time,acc_x,acc_y,acc_z,gravity_x,gravity_y,gravity_z1419804789353.00,-2.1871033,-9.346365,1.1174936,-0.04605185,-9.701073,1.43439341419804789357.00,-2.235586,-9.1751795,0.9235633,-0.25232905,-9.700948,1.41363061419804789368.00,-2.166154,-9.345168,0.6679823,-0.4413871,-9.699396,1.37742291419804789384.00,-1.6927006,-9.846753,0.50996494,-0.60153735,-9.699476,1.3148131419804789388.00,-1.2216414,-10.205285,0.623091,-0.6902613,-9.704159,1.23418941419804789399.00,-1.0079589,-10.420164,0.83737206,-0.7209268,-9.710354,1.16605221419804789408.00,-0.83258367,-10.445902,0.997185,-0.73673666,-9.714152,1.12377021419804789418.00,-0.65900403,-10.335769,1.0348936,-0.7332567,-9.717332,1.09825771419804789435.00,-0.4842273,-10.165182,0.92057055,-0.7176076,-9.720442,1.08094231419804789436.00,-0.3357868,-9.997588,0.74639237,-0.68966836,-9.725152,1.05648121419804789451.00,-0.2753332,-9.833585,0.717662,-0.6524965,-9.731604,1.02007721419804789456.00,-0.29688102,-9.753978,0.79128367,-0.61285365,-9.737759,0.98531691419804789468.00,-0.33279404,-9.773131,0.8571242,-0.576343,-9.742501,0.96014271419804789483.00,-0.4189853,-9.797672,0.8511387,-0.54759794,-9.745597,0.94544371419804789490.00,-0.5895722,-9.735423,0.7344214,-0.5277987,-9.748143,0.930325031419804789501.00,-0.7589619,-9.703699,0.78529817,-0.5283511,-9.750136,0.90888891419804789516.00,-1.0169371,-9.555858,0.97503865,-0.54638654,-9.750101,0.898548661419804789517.00,-1.01574,-9.391854,1.0720038,-0.5879589,-9.746413,0.912204861419804789533.00,-0.96785605,-9.411008,1.1432313,-0.6258885,-9.741639,0.93762921419804789538.00,-0.9223662,-9.340978,1.1947067,-0.6568945,-9.736929,0.964946871419804789549.00,-0.78769237,-9.030331,1.3138182,-0.6817802,-9.731415,1.00256031419804789556.00,-0.62129533,-8.72088,1.448492,-0.6955705,-9.724872,1.05519351419804789568.00,-0.492607,-8.5299425,1.6136919,-0.6982333,-9.71725,1.12157541419804789583.00,-0.40641573,-8.483255,1.7357962,-0.69149965,-9.7081785,1.20145561419804789588.00,-0.27473465,-8.526949,1.9177556,-0.6759829,-9.698247,1.28741821419804789600.00,-0.14963761,-8.68796,2.0440497,-0.64593583,-9.686884,1.3847131419804789615.00,-0.14604631,-9.02614,2.018312,-0.6010566,-9.675812,1.47911171419804789616.00,-0.20949265,-9.431957,1.8986019,-0.56067836,-9.665437,1.56056481419804789633.00,-0.1592144,-9.820416,1.7477672,-0.5295067,-9.658156,1.61555421419804789636.00,-0.2777274,-10.317214,1.5921441,-0.49723026,-9.655327,1.64250181419804789649.00,-0.4758476,-10.887033,1.4999673,-0.48264995,-9.656397,1.64056421419804789665.00,-0.6278794,-11.391612,1.4431051,-0.4888798,-9.659967,1.61753051419804789670.00,-0.6488287,-11.727997,1.483208,-0.5031971,-9.665103,1.58208041419804789682.00,-0.45250413,-11.854291,1.6112977,-0.5204019,-9.670301,1.54429281419804789688.00,-0.05566519,-11.701062,1.8668787,-0.51697165,-9.674903,1.51636611419804789700.00,0.14724341,-11.344326,2.1865046,-0.47563747,-9.677128,1.51569571419804789717.00,-0.010175358,-10.996569,2.429516,-0.41780397,-9.674602,1.54852531419804789718.00,-0.21667525,-10.67814,2.5007436,-0.37668198,-9.666727,1.60714191419804789733.00,-0.23822308,-10.394426,2.3708582,-0.35094255,-9.656564,1.67272341419804789736.00,-0.11552023,-9.956287,2.0099323,-0.33046237,-9.648081,1.72502641419804789748.00,0.10474633,-9.520543,1.5705963,-0.29393122,-9.647692,1.73378491419804789756.00,0.11492168,-9.156625,1.3640964,-0.24029286,-9.655155,1.70018081419804789768.00,0.12629414,-8.911219,1.2000936,-0.19479747,-9.663701,1.65690911419804789784.00,0.16160862,-8.716091,1.0684125,-0.15426585,-9.67158,1.61465591419804789788.00,0.18375498,-8.653243,1.050456,-0.11488485,-9.678484,1.57611781419804789799.00,0.19093758,-8.672397,1.1432313,-0.08030074,-9.684366,1.5417491419804789815.00,0.17956513,-8.766968,1.1707647,-0.048379708,-9.687269,1.52475291419804789816.00,0.16879122,-8.876503,1.110311,-0.022842824,-9.688811,1.51552151419804789833.00,0.15562311,-8.983644,0.9804256,-0.003443711,-9.690767,1.50312731419804789839.00,0.05207389,-9.119514,0.87089086,0.010124211,-9.694636,1.47794541419804789850.00,-0.023343466,-9.239823,0.8690952,0.009606618,-9.700143,1.44137611419804789857.00,0.003591303,-9.344569,0.93373865,7.66E-04,-9.705494,1.40490651419804789868.00,0.06284779,-9.384672,0.99179804,-8.95E-04,-9.710317,1.37119021419804789881.00,0.18734628,-9.540894,1.0271125,0.002039689,-9.713658,1.34730021419804789888.00,0.29927522,-9.683948,1.2312182,0.018612346,-9.716969,1.32309751419804789900.00,0.33399114,-9.805453,1.2814964,0.04542963,-9.717731,1.31681681419804789916.00,0.35194764,-9.858724,1.3551182,0.07221563,-9.7182255,1.31197171419804789917.00,0.34476504,-9.816227,1.5436616,0.09754823,-9.717734,1.31396781419804789933.00,0.30765492,-9.751583,1.757344,0.12037352,-9.714235,1.33773571419804789937.00,0.28191724,-9.683349,1.9500773,0.13589053,-9.708151,1.37975991419804789948.00,0.31483752,-9.5798,2.1601684,0.14640813,-9.699434,1.43872931419804789968.00,0.3184288,-9.460688,2.4492683,0.16021833,-9.687383,1.5163511419804789969.00,0.2765303,-9.415796,2.8628666,0.17373101,-9.670785,1.61744751419804789989.00,0.22266077,-9.479243,3.311181,0.18243133,-9.647671,1.74916951419804789990.00,0.065242,-9.629479,3.643975,0.18622108,-9.617215,1.90916431419804790002.00,-0.23283611,-9.751583,3.7313633,0.17348494,-9.581399,2.08257151419804790018.00,-0.5267244,-9.849746,3.5739446,0.13161154,-9.545845,2.2427461419804790019.00,-0.87448215,-9.955689,3.383007,0.06400924,-9.51633,2.36764811419804790034.00,-1.0785879,-10.142437,3.1663318,-0.03127017,-9.49396,2.45645381419804790037.00,-1.1821371,-10.507553,2.8083985,-0.13650224,-9.479607,2.5077511419804790050.00,-1.1216835,-11.039065,2.3307555,-0.23997283,-9.47723,2.5089631419804790057.00,-0.86610246,-11.552622,1.9967642,-0.32385758,-9.488662,2.45577291419804790069.00,-0.48961425,-12.054207,1.899799,-0.372927,-9.511161,2.3599031419804790083.00,-0.16759412,-12.616246,2.0392613,-0.37888184,-9.537151,2.2515731419804790088.00,0.05267244,-13.277644,2.12246,-0.35034314,-9.560294,2.15602371419804790099.00,0.32022446,-13.830106,2.2062569,-0.30123365,-9.580729,2.07105921419804790116.00,0.66498953,-14.1216,2.492364,-0.23236674,-9.597409,2.00153641419804790117.00,0.8571242,-14.128783,2.8030117,-0.14172873,-9.607074,1.96327461419804790134.00,0.7457938,-14.02284,3.0585926,-0.04930676,-9.609369,1.95652341419804790137.00,0.48961425,-13.924079,3.2267854,0.027073009,-9.606091,1.97298771419804790149.00,0.2777274,-13.750499,3.3901896,0.07530337,-9.599325,2.00441741419804790163.00,0.04369418,-13.498509,3.7044287,0.09822978,-9.590344,2.04598161419804790168.00,-0.43035775,-13.292608,4.0659533,0.09593787,-9.578047,2.10290581419804790180.00,-1.0127473,-12.607267,4.4340615,0.053430855,-9.562519,2.17388441419804790188.00,-1.7872716,-11.629835,4.3065705,-0.031736325,-9.538464,2.27752071419804790200.00,-2.5450363,-10.530896,3.9492357,-0.17458618,-9.514356,2.37001371419804790215.00,-3.2531216,-9.523536,3.6774938,-0.3713304,-9.487442,2.45376851419804790216.00,-3.7924154,-8.649054,3.4596214,-0.61238635,-9.453021,2.53688531419804790233.00,-4.022857,-7.9152308,3.2399535,-0.88340956,-9.409513,2.6174441419804790236.00,-3.989937,-7.4735007,2.8700492,-1.1628575,-9.358807,2.68902921419804790250.00,-3.9414546,-7.4226236,2.4498668,-1.4293886,-9.308748,2.73394161419804790266.00,-3.9749734,-7.65965,2.381632,-1.6752439,-9.266514,2.73782471419804790268.00,-3.8391025,-7.913435,2.541445,-1.9053327,-9.225571,2.7256081419804790279.00,-3.738546,-8.182783,2.742558,-2.099134,-9.184837,2.72081041419804790288.00,-3.567959,-8.526351,2.8574798,-2.2607112,-9.143235,2.73145031419804790297.00,-3.127426,-8.826224,2.956839,-2.384812,-9.106013,2.75020071419804790314.00,-2.831742,-9.077017,3.3674448,-2.4526193,-9.080519,2.77474711419804790317.00,-2.8999767,-9.385869,3.674501,-2.4823833,-9.057215,2.8240111419804790333.00,-2.7072437,-9.633071,3.7882257,-2.500044,-9.03001,2.8946651419804790336.00,-2.509722,-10.059238,3.6804867,-2.4911058,-9.008252,2.96920751419804790348.00,-2.4187422,-10.612898,3.2501287,-2.457814,-8.999586,3.02274351419804790366.00,-2.3008277,-10.915764,2.914342,-2.4133048,-9.01286,3.01905661419804790368.00,-2.2559366,-10.803835,2.9400797,-2.3647275,-9.041044,2.97286841419804790380.00,-2.1625626,-10.396821,3.1118636,-2.3254967,-9.065537,2.92890571419804790397.00,-2.0817583,-9.750985,3.169923,-2.2877128,-9.081543,2.90900921419804790398.00,-2.094328,-9.024344,3.052607,-2.2624207,-9.089073,2.90526961419804790414.00,-2.106299,-8.285733,2.813187,-2.2542162,-9.091373,2.90445261419804790417.00,-1.9764135,-7.603386,2.6060886,-2.2632763,-9.092192,2.89482431419804790431.00,-1.8537107,-7.0904284,2.5246856,-2.274487,-9.093251,2.882691419804790447.00,-1.5071499,-6.5283895,2.336741,-2.2825716,-9.090858,2.88384441419804790449.00,-1.3138182,-6.3949127,1.988983,-2.2675614,-9.08966,2.89942171419804790463.00,-1.2677298,-6.363788,1.690905,-2.2384253,-9.101137,2.88602641419804790469.00,-1.1198878,-6.299743,1.4598645,-2.208223,-9.119033,2.85260771419804790482.00,-1.0965444,-6.369175,1.1959038,-2.1698332,-9.143845,2.80219631419804790499.00,-1.0289081,-6.479907,0.9103952,-2.133665,-9.175518,2.72538421419804790499.00,-0.95349085,-6.602011,0.7649474,-2.0919044,-9.21535,2.62138771419804790516.00,-0.79846627,-6.754043,0.46567222,-2.0406427,-9.260043,2.50155451419804790517.00,-0.60453594,-6.872556,0.008379706,-1.9722254,-9.312714,2.35670881419804790537.00,-0.3477578,-6.8869214,-0.19512744,-1.8828455,-9.377631,2.16455531419804790540.00,-0.12569559,-7.1227503,-0.26156655,-1.7657477,-9.445158,1.95998081419804790559.00,-0.054468088,-7.6081743,-0.24899697,-1.6211052,-9.511498,1.75322781419804790560.00,-0.11552023,-8.444948,-0.29209262,-1.4656954,-9.571716,1.55059981419804790573.00,-0.1412579,-9.617508,-0.33399114,-1.315324,-9.624613,1.34429691419804790595.00,-0.15981296,-10.95048,-0.14604631,-1.1707339,-9.66981,1.13776721419804790599.00,-0.11432313,-12.336722,0.2220622,-1.027669,-9.705285,0.96007371419804790600.00,-0.1921347,-13.809156,0.43514615,-0.88745385,-9.730648,0.83503631419804790623.00,-0.6398504,-15.322891,0.66139823,-0.76798755,-9.748361,0.741650161419804790624.00,-1.2892777,-16.318878,1.3844471,-0.70505935,-9.757408,0.68283441419804790629.00,-1.3311762,-15.863382,2.1057005,-0.7107798,-9.755549,0.70317751419804790638.00,-0.9696517,-14.07611,0.5859809,-0.7239231,-9.748326,0.78516081419804790656.00,-0.6907272,-12.179304,-2.0608091,-0.710691,-9.753072,0.73682081419804790658.00,-0.18614918,-11.022904,-3.0621839,-0.7164038,-9.758226,0.65890351419804790669.00,0.034715924,-10.873267,-2.9640217,-0.72553957,-9.7619095,0.59087681419804790691.00,-0.52373165,-11.94168,-2.2996306,-0.7262816,-9.7656,0.52532271419804790692.00,-0.78769237,-12.831125,1.292869,-0.71859163,-9.770485,0.43779171419804790698.00,-1.9195513,-13.224972,4.9224787,-0.69238317,-9.774934,0.376384761419804790722.00,-4.1419687,-13.581708,7.9146323,-0.68938076,-9.775273,0.37307051419804790733.00,-6.1626754,-13.385384,9.137471,-0.7553297,-9.768222,0.426269021419804790734.00,-7.717709,-12.471396,5.5509567,-0.8956819,-9.750821,0.53816991419804790760.00,-8.728661,-10.894217,1.4155718,-1.0905867,-9.726422,0.614587371419804790761.00,-8.15525,-8.979453,0.9056068,-1.3400741,-9.690911,0.678858461419804790762.00,-5.7359085,-6.7761893,2.3983915,-1.6116899,-9.64187,0.77921151419804790770.00,-4.7979803,-6.0411696,3.7972038,-1.8410378,-9.590304,0.898339451419804790791.00,-3.6535518,-5.976526,4.156933,-2.0682185,-9.531004,1.02607681419804790792.00,-3.1148565,-6.2345014,4.8201265,-2.232383,-9.478662,1.1583711419804790798.00,-2.7234044,-7.029376,4.7483006,-2.3156605,-9.440607,1.29731831419804790823.00,-2.2152352,-7.8853035,4.2999864,-2.3451889,-9.417385,1.40831141419804790823.00,-1.8375498,-8.656835,4.2419267,-2.3467238,-9.40672,1.47543031419804790829.00,-2.4001873,-9.534309,4.542998,-2.330853,-9.404733,1.51279761419804790867.00,-3.3859997,-10.056845,4.7830167,-2.316084,-9.403229,1.54448811419804790868.00,-3.7786489,-9.891046,4.4484267,-2.3043265,-9.401517,1.57224241419804790869.00,-3.839701,-9.487623,3.5733461,-2.2921762,-9.400025,1.59869661419804790872.00,-3.7612908,-8.948928,2.9712043,-2.2839937,-9.39739,1.6256771419804790893.00,-3.5565867,-8.358757,3.1064768,-2.2808368,-9.392073,1.660471419804790894.00,-3.128623,-7.9625163,3.514688,-2.2759593,-9.385232,1.70524221419804790898.00,-2.6862943,-7.6973586,3.7954082,-2.2629328,-9.37885,1.75690161419804790920.00,-2.3385365,-7.560889,3.5757403,-2.2386942,-9.374386,1.81094881419804790922.00,-2.0141222,-7.445967,2.9526494,-2.2015038,-9.372792,1.86402111419804790936.00,-1.9297266,-7.36217,2.3331497,-2.1559033,-9.374211,1.9096221419804790939.00,-1.8644845,-7.1832037,1.8950106,-2.109798,-9.378073,1.94187641419804790955.00,-1.7741034,-6.928221,1.7190368,-2.0670106,-9.384908,1.95483411419804790958.00,-1.5592239,-6.6415157,1.5526398,-2.0295255,-9.39455,1.94777311419804790969.00,-1.4425066,-6.5379663,1.6316484,-1.9957001,-9.4053955,1.93031511419804790984.00,-1.365892,-6.491279,1.8561049,-1.9659147,-9.416722,1.90549581419804791000.00,-1.067814,-6.4344172,2.0799627,-1.9370414,-9.4272785,1.88273511419804791001.00,-0.8367735,-6.602011,2.0667946,-1.9016176,-9.437235,1.86891111419804791014.00,-0.85652566,-6.9485717,1.8680758,-1.8583034,-9.446909,1.86360131419804791018.00,-0.8379706,-7.2687964,1.4281414,-1.810112,-9.456597,1.86189221419804791032.00,-0.8655039,-7.6015906,0.9876082,-1.7599223,-9.467091,1.85667421419804791050.00,-1.0301052,-8.063671,0.7649474,-1.7094344,-9.479207,1.84196651419804791051.00,-1.2384008,-8.566454,0.5770026,-1.664572,-9.492854,1.81254461419804791064.00,-1.3605051,-8.963891,0.4441244,-1.6290375,-9.507561,1.76717631419804791069.00,-1.3036429,-9.249998,0.31483752,-1.6025946,-9.522065,1.71242241419804791080.00,-1.1558008,-9.492412,0.08738836,-1.5827421,-9.535703,1.65399591419804791100.00,-0.98820674,-9.65821,-0.20709845,-1.5694983,-9.548051,1.59429231419804791101.00,-0.85772276,-9.93893,-0.29508537,-1.55801,-9.55981,1.53395151419804791119.00,-0.8690952,-10.383653,-0.019752163,-1.5521787,-9.569179,1.4805321419804791121.00,-1.0073603,-10.90499,0.4249708,-1.550863,-9.575864,1.43807531419804791131.00,-1.186327,-11.437101,0.7392098,-1.5535153,-9.580198,1.40598861419804791147.00,-1.2808979,-11.958439,0.6452374,-1.561291,-9.582306,1.38281291419804791149.00,-1.2599486,-12.408549,0.23223756,-1.5735588,-9.582862,1.36493991419804791165.00,-1.1988965,-12.78803,-0.16998832,-1.5864837,-9.583727,1.34374751419804791171.00,-1.0767922,-13.161526,-0.320823,-1.6000873,-9.584955,1.31861421419804791181.00,-1.073201,-13.541006,-0.2208651,-1.6094177,-9.588126,1.28374521419804791199.00,-1.1935096,-13.837887,-0.022744916,-1.6111572,-9.594061,1.23634971419804791199.00,-1.1791444,-13.731345,0.20111294,-1.6027162,-9.602711,1.17882751419804791217.00,-0.9103952,-13.227964,0.57161564,-1.5809562,-9.613857,1.11567751419804791221.00,-0.74998367,-12.870629,1.18094,-1.5443324,-9.627366,1.04846571419804791242.00,-0.8158242,-13.177686,1.3461399,-1.5014693,-9.640968,0.98373051419804791254.00,-0.93373865,-13.96478,0.8559271,-1.4466712,-9.656827,0.90731711419804791255.00,-0.8158242,-14.426262,1.376666,-1.3795245,-9.674871,0.81495971419804791258.00,-0.92296475,-14.420277,2.3732524,-1.3017588,-9.692318,0.73130181419804791270.00,-1.22224,-13.657125,2.8215668,-1.2262324,-9.706427,0.672345161419804791281.00,-1.3760674,-12.133814,3.2321723,-1.1596464,-9.717334,0.631691631419804791304.00,-2.184709,-10.598533,3.4314895,-1.1007175,-9.726162,0.60049811419804791305.00,-3.4344823,-9.287108,3.105878,-1.0599796,-9.731755,0.58289871419804791310.00,-4.4633904,-8.678383,2.4588451,-1.0446033,-9.733691,0.57830551419804791318.00,-4.8386817,-8.811859,1.9578584,-1.0566716,-9.731595,0.59150051419804791338.00,-4.805163,-9.329605,1.8249803,-1.0980364,-9.724715,0.628190931419804791339.00,-4.7141833,-10.070611,1.9907787,-1.165717,-9.712534,0.69150871419804791350.00,-4.9907136,-10.922947,2.4929626,-1.2502383,-9.695539,0.77705871419804791368.00,-5.0703206,-11.280281,2.8048072,-1.340231,-9.6750765,0.87582771419804791370.00,-4.6375685,-11.121067,2.3169887,-1.4263736,-9.652689,0.98054251419804791387.00,-3.8839936,-10.58716,1.6053122,-1.4938217,-9.631935,1.07921331419804791390.00,-2.8886044,-10.363302,1.316811,-1.5385747,-9.614518,1.1680081419804791399.00,-1.5676036,-10.233417,1.3796587,-1.5553507,-9.602211,1.24451611419804791420.00,-0.6925228,-10.142437,2.332551,-1.540521,-9.5965395,1.30523381419804791421.00,-0.20410569,-9.831789,3.506907,-1.5080168,-9.592894,1.36845641419804791430.00,-0.034715924,-9.252393,3.9761705,-1.456455,-9.59151,1.43251241419804791464.00,-0.032920275,-8.441956,3.4207156,-1.3907225,-9.590832,1.50073961419804791465.00,-0.077811554,-7.5447283,2.5198972,-1.3210894,-9.589455,1.57082551419804791466.00,-0.29328972,-6.7241154,1.8171991,-1.2584604,-9.586114,1.64106861419804791493.00,-0.6368576,-6.0160303,1.6334441,-1.2129776,-9.580772,1.70525031419804791493.00,-0.83856916,-5.54557,1.7956513,-1.1892405,-9.574726,1.75520181419804791494.00,-1.0965444,-5.349245,1.8620903,-1.1765461,-9.568532,1.79703311419804791498.00,-1.1875241,-5.2115784,1.6376339,-1.1848358,-9.563181,1.81992351419804791516.00,-1.2617443,-5.1601033,1.246182,-1.2081164,-9.559511,1.82389771419804791519.00,-1.3425486,-5.319318,0.8690952,-1.241865,-9.557856,1.80984931419804791533.00,-1.4203602,-5.687426,0.60453594,-1.2835189,-9.558173,1.7788481419804791546.00,-1.5388732,-6.177639,0.46088383,-1.3313459,-9.559994,1.73333131419804791550.00,-1.690905,-6.579266,0.39025488,-1.3819945,-9.562142,1.68104881419804791560.00,-1.8070238,-6.8318543,0.33159694,-1.4360703,-9.564891,1.61893811419804791578.00,-1.9087774,-7.0186024,0.23822308,-1.4924835,-9.567448,1.55139241419804791579.00,-1.8782512,-7.132327,0.12808979,-1.5502948,-9.568938,1.48404381419804791603.00,-1.6274586,-7.195773,-0.017357962,-1.6062387,-9.568875,1.42372931419804791604.00,-1.2413936,-7.442376,-0.109534726,-1.6542715,-9.568011,1.37366451419804791610.00,-0.95708215,-8.107366,-0.23223756,-1.687349,-9.56789,1.33369721419804791619.00,-0.97264445,-9.210494,-0.37349546,-1.7082472,-9.569214,1.29709031419804791637.00,-0.9091981,-10.511743,-0.31663316,-1.7068305,-9.573855,1.26428581419804791639.00,-0.6733692,-11.848905,-0.040102877,-1.6811098,-9.582435,1.23337161419804791652.00,-0.6500258,-13.27106,0.36511576,-1.6335747,-9.594724,1.20129191419804791671.00,-0.9235633,-14.590864,0.81283146,-1.571759,-9.609227,1.16735681419804791672.00,-1.7340006,-15.640721,1.4000094,-1.5046272,-9.623805,1.13528941419804791678.00,-2.6539726,-15.993866,2.28347,-1.4472543,-9.635565,1.10983111419804791721.00,-2.705448,-15.157092,2.047641,-1.4087673,-9.641771,1.10545071419804791722.00,-2.144606,-13.335704,-0.4866215,-1.3892478,-9.643614,1.11405311419804791724.00,-1.9231426,-12.084733,-2.570774,-1.3897487,-9.643327,1.11591361419804791726.00,-2.247557,-12.556391,-2.6964695,-1.4081285,-9.64119,1.11133221419804791731.00,-2.433706,-14.02284,-1.6944963,-1.4322292,-9.640216,1.08874631419804791756.00,-2.4881742,-15.491682,0.06703765,-1.4512281,-9.640661,1.05922961419804791757.00,-3.2184057,-16.487072,2.9987376,-1.4651808,-9.644118,1.00728141419804791759.00,-4.72376,-15.920843,8.987235,-1.4914111,-9.644789,0.96130241419804791784.00,-6.71394,-14.361619,9.362526,-1.5498952,-9.63053,1.01048581419804791786.00,-7.326257,-11.696274,3.1112652,-1.6557285,-9.6025505,1.10453411419804791802.00,-6.649895,-8.719683,-0.31064767,-1.7865707,-9.570452,1.17686821419804791803.00,-3.9085343,-6.141726,0.8319851,-1.9333425,-9.531421,1.25881291419804791810.00,-2.529474,-4.95899,3.378817,-2.0593064,-9.49238,1.35069071419804791837.00,-2.1212628,-4.4699745,5.637148,-2.1594093,-9.456714,1.4415051419804791839.00,-2.0296845,-4.754286,5.967548,-2.2146447,-9.429336,1.53406351419804791840.00,-2.618658,-5.9861026,5.5605335,-2.2371986,-9.410112,1.6171361419804791853.00,-2.8060043,-7.0395517,5.5641246,-2.2535112,-9.394336,1.68479731419804791883.00,-2.6258407,-8.013393,5.230732,-2.2736382,-9.38068,1.73315681419804791885.00,-2.7096379,-8.93576,5.0200424,-2.2953157,-9.369203,1.76634161419804791886.00,-3.2142158,-9.813833,5.149928,-2.316462,-9.360378,1.78542161419804791900.00,-4.064756,-10.458471,4.7937903,-2.335044,-9.351518,1.80751241419804791900.00,-4.260482,-10.356718,3.721188,-2.3550825,-9.340967,1.83584011419804791913.00,-4.0737343,-9.936536,2.8107927,-2.3759992,-9.329902,1.86492911419804791933.00,-3.8833952,-9.514558,2.496554,-2.3980947,-9.319187,1.89004781419804791934.00,-3.4680011,-8.953117,2.8646624,-2.4169285,-9.310453,1.90900791419804791946.00,-3.0059202,-8.379706,3.4093432,-2.4277632,-9.30316,1.9306931419804791952.00,-2.7030537,-7.9930425,3.4560301,-2.428268,-9.299394,1.94811921419804791967.00,-2.134431,-7.2262993,2.259528,-2.4155035,-9.300235,1.95993611419804791979.00,-1.7633295,-6.787562,1.9075803,-2.3911347,-9.307442,1.95560421419804791979.00,-1.5149311,-6.3967085,1.8800468,-2.3623435,-9.31861,1.93732771419804791997.00,-1.6328455,-6.178836,1.8818425,-2.3333406,-9.333028,1.90275971419804792000.00,-1.6885108,-6.079477,1.8740613,-2.3048227,-9.349935,1.85388641419804792015.00,-1.3251907,-5.905897,1.9728222,-2.2768326,-9.36736,1.79971861419804792029.00,-0.801459,-5.880758,2.0272903,-2.244314,-9.384853,1.7487131419804792030.00,-0.46986207,-5.9603653,1.9662381,-2.2098095,-9.399803,1.71196561419804792046.00,-0.36990416,-6.1926026,1.7238252,-2.1731474,-9.410866,1.69807211419804792052.00,-0.2908955,-6.3949127,1.3682863,-2.1309102,-9.419559,1.70339121419804792070.00,-0.25558102,-6.6492968,0.90141696,-2.0819764,-9.428866,1.71238151419804792071.00,-0.3417723,-6.9144545,0.3417723,-2.0319326,-9.439466,1.7140951419804792079.00,-0.46028528,-7.425018,-0.22505496,-1.9821117,-9.452804,1.69885791419804792109.00,-0.6368576,-8.157045,-0.4345476,-1.9355499,-9.468648,1.663951419804792111.00,-0.7200562,-8.911818,-0.4417302,-1.8921287,-9.485926,1.61476781419804792112.00,-0.6362591,-9.624092,-0.55964464,-1.8503829,-9.504232,1.55436561419804792138.00,-0.41120413,-10.192117,-0.75836337,-1.8094609,-9.523485,1.48305891419804792139.00,-0.25677812,-10.769119,-0.8535329,-1.7704183,-9.542317,1.40719681419804792140.00,-0.1448492,-11.455657,-0.641646,-1.7306372,-9.5613785,1.32489131419804792152.00,-0.002394202,-12.252926,-0.8062474,-1.6910987,-9.579703,1.24091081419804792173.00,0.15382746,-13.028647,-0.60932434,-1.6483047,-9.598386,1.1508571419804792174.00,0.31483752,-13.54759,0.17477672,-1.6016233,-9.6163645,1.0633521419804792180.00,0.3812766,-13.817536,0.078410104,-1.5534859,-9.631058,0.99990421419804792213.00,0.46387658,-13.883976,-0.94690675,-1.5087136,-9.641401,0.9682811419804792214.00,0.3369839,-13.974357,-1.5945383,-1.4648019,-9.650548,0.94426821419804792215.00,0.037110128,-14.112622,-1.4449008,-1.4281732,-9.657073,0.93361681419804792245.00,-0.31902736,-14.029424,-0.97862995,-1.399379,-9.661989,0.9263361419804792246.00,-0.6787562,-13.704411,-0.29927522,-1.3779814,-9.665965,0.91689571419804792247.00,-0.6955156,-13.141773,0.91697925,-1.3600243,-9.669533,0.906016231419804792270.00,-0.6314707,-12.926893,2.1428106,-1.3392724,-9.673007,0.899807161419804792271.00,-0.7182605,-13.181277,2.546832,-1.3146555,-9.676023,0.903702141419804792272.00,-0.80325466,-13.641562,2.4672248,-1.2887986,-9.678968,0.909383951419804792279.00,-0.7218518,-13.772047,2.48159,-1.2571658,-9.682213,0.919067141419804792308.00,-0.6302736,-13.239936,2.7976246,-1.2159932,-9.686334,0.930962741419804792311.00,-0.7577648,-11.939884,3.1986535,-1.16603,-9.692012,0.935775461419804792312.00,-1.2485762,-10.41777,3.3740287,-1.1117463,-9.6992235,0.92707921419804792345.00,-2.1721394,-9.367912,3.0160956,-1.0594687,-9.706725,0.909628571419804792346.00,-3.4985273,-9.0476885,2.1230583,-1.0157386,-9.713221,0.889954751419804792347.00,-4.5238442,-9.202713,1.4143747,-0.988734,-9.717573,0.872694731419804792374.00,-4.8015714,-9.63726,1.1725603,-0.9835014,-9.719363,0.85856011419804792375.00,-5.0481744,-10.230424,1.2515689,-1.0031495,-9.718768,0.84240571419804792376.00,-5.228338,-10.718841,1.5406688,-1.0553961,-9.714736,0.824894251419804792379.00,-5.2020016,-10.939706,1.8046296,-1.1353765,-9.706672,0.8135251419804792401.00,-4.9158945,-10.883442,1.7531542,-1.2217999,-9.69635,0.811421041419804792402.00,-4.9176903,-10.723031,1.3299791,-1.3163103,-9.683236,0.820166951419804792411.00,-4.2317514,-10.171766,0.84216046,-1.4103862,-9.66809,0.842158141419804792434.00,-3.244742,-9.801263,0.5374983,-1.4871988,-9.653474,0.876972561419804792435.00,-2.1146786,-9.766547,0.40940848,-1.5389465,-9.641411,0.91936641419804792439.00,-0.8343793,-9.564836,1.2479776,-1.5618042,-9.633348,0.964249251419804792474.00,-0.31783026,-9.401431,2.5929205,-1.5539318,-9.628975,1.01908121419804792475.00,-0.21188685,-9.0554695,3.5458126,-1.5316169,-9.624999,1.0880861419804792481.00,-0.011372458,-8.491036,3.6212301,-1.493165,-9.621543,1.16909471419804792482.00,0.1376666,-7.7590094,3.0472202,-1.4399805,-9.617523,1.26494571419804792502.00,-0.17058687,-7.0305734,2.6018987,-1.3830309,-9.610743,1.37523011419804792508.00,-0.65541273,-6.293758,2.48159,-1.3361232,-9.599523,1.49476841419804792511.00,-1.1893197,-5.837064,2.2451627,-1.3072253,-9.584888,1.60980551419804792538.00,-1.4077905,-5.583278,1.941099,-1.2904619,-9.568764,1.71577431419804792539.00,-1.5729905,-5.6443305,1.6298528,-1.294719,-9.5533285,1.79666341419804792540.00,-1.697489,-5.8801594,1.2737153,-1.3187097,-9.540886,1.84469271419804792564.00,-1.8154035,-6.1746464,0.8738836,-1.3574703,-9.532927,1.85768251419804792564.00,-1.869273,-6.4248405,0.54527944,-1.4059628,-9.529613,1.83851221419804792578.00,-1.804031,-6.517017,0.35075054,-1.4614234,-9.530023,1.7925671419804792579.00,-1.851915,-6.569091,0.3172317,-1.5227877,-9.532653,1.726281419804792603.00,-1.8914193,-6.613384,0.47046062,-1.58807,-9.534989,1.65300231419804792604.00,-1.8650831,-6.619968,0.61052144,-1.6589521,-9.536093,1.5751881419804792611.00,-1.7567455,-6.740875,0.60094464,-1.7312101,-9.534803,1.50360551419804792643.00,-1.5370775,-7.0587053,0.29688102,-1.798125,-9.53119,1.44692171419804792645.00,-1.1480197,-7.61416,-0.06703765,-1.8529599,-9.526461,1.4083591419804792647.00,-0.93732995,-8.55149,-0.53689975,-1.8884394,-9.522972,1.38462871419804792680.00,-1.0432734,-9.878476,-0.9624691,-1.9108915,-9.521823,1.36153531419804792682.00,-1.1133038,-11.36348,-0.94331545,-1.9091547,-9.525792,1.335971419804792685.00,-1.1641805,-12.86225,-0.6859388,-1.8838974,-9.5353985,1.30287561419804792686.00,-1.460463,-14.374787,-0.4237737,-1.8422152,-9.549631,1.25744571419804792700.00,-1.9961656,-15.734694,0.049679685,-1.7940757,-9.56623,1.19955381419804792701.00,-2.8377275,-16.527773,0.81881696,-1.7476971,-9.581957,1.14107581419804792711.00,-3.2932243,-16.126743,1.6944963,-1.7144045,-9.592749,1.10016931419804792737.00,-2.541445,-14.279617,0.66379243,-1.6927874,-9.598754,1.08110891419804792737.00,-1.6765398,-12.260707,-2.146402,-1.6820667,-9.60151,1.07333711419804792739.00,-1.8219875,-11.945271,-3.0095115,-1.6864892,-9.601547,1.0660471419804792774.00,-2.1709423,-13.167511,-2.742558,-1.7002366,-9.599392,1.06361191419804792775.00,-2.191293,-14.796765,-1.2384008,-1.7073038,-9.600699,1.04023271419804792777.00,-2.7084408,-16.24825,1.1725603,-1.7058039,-9.606199,0.99073481419804792780.00,-3.9522285,-16.484676,7.2370734,-1.7066128,-9.610033,0.95138771419804792803.00,-6.0507464,-15.085266,10.897807,-1.7291324,-9.604421,0.96725341419804792805.00,-6.9360023,-12.196063,5.08289,-1.7938436,-9.584332,1.0455041419804792811.00,-6.5601125,-8.729858,0.04070143,-1.8861378,-9.562691,1.0806671419804792845.00,-4.8787847,-5.919065,0.47105917,-2.004332,-9.531384,1.14269881419804792846.00,-3.354875,-4.4687777,3.3967736,-2.1303704,-9.492164,1.23724231419804792847.00,-2.5192988,-4.0426097,6.1584854,-2.2348936,-9.455093,1.33299051419804792875.00,-2.4384944,-4.8584337,6.485294,-2.3093076,-9.419297,1.45407891419804792877.00,-3.221997,-6.5367694,6.1237693,-2.3478954,-9.393701,1.55440891419804792878.00,-3.4290953,-7.6973586,6.025607,-2.3644722,-9.374488,1.64275261419804792880.00,-3.1381998,-8.504803,5.2702365,-2.3774598,-9.358812,1.71193581419804792900.00,-3.0843303,-9.193734,4.663905,-2.3948658,-9.347091,1.75126391419804792901.00,-3.4063504,-9.960478,4.51307,-2.416194,-9.336814,1.77659581419804792913.00,-4.2491093,-10.561422,4.068946,-2.439724,-9.326168,1.80019941419804792934.00,-4.518457,-10.49199,3.1663318,-2.4651592,-9.313969,1.82848861419804792935.00,-4.2293572,-9.929952,2.5270798,-2.490974,-9.301089,1.85880971419804792940.00,-3.78643,-9.390059,2.493561,-2.5198002,-9.286757,1.89133371419804792968.00,-3.2752678,-8.881291,3.0172927,-2.5491176,-9.271749,1.92537831419804792969.00,-2.8754363,-8.444948,3.4811692,-2.568318,-9.258617,1.96268691419804792972.00,-2.2188265,-7.9691005,3.4021606,-2.5710602,-9.24954,2.00151351419804792980.00,-1.9452889,-7.650073,2.9987376,-2.5615718,-9.243934,2.03922871419804793002.00,-1.6310499,-7.15986,2.6420016,-2.5414631,-9.244226,2.0629251419804793004.00,-1.4107834,-6.5906386,2.3295584,-2.5148597,-9.25041,2.06780461419804793013.00,-1.4161704,-6.2249246,2.1380222,-2.4866521,-9.261732,2.05116681419804793059.00,-1.3341689,-5.8885393,2.1428106,-2.459438,-9.276388,2.01747181419804793061.00,-1.4161704,-5.6150017,2.083554,-2.4323611,-9.292387,1.97624981419804793062.00,-1.1695676,-5.3660045,1.9865888,-2.4060175,-9.308031,1.93443311419804793063.00,-0.83976626,-5.3767786,1.775899,-2.3780212,-9.322248,1.90028941419804793065.00,-0.6919243,-5.547365,1.496376,-2.3495405,-9.333564,1.88006711419804793091.00,-0.65900403,-5.8987145,1.1408371,-2.3201141,-9.3421755,1.87382581419804793091.00,-0.66139823,-6.399701,0.61171854,-2.286457,-9.350695,1.87270531419804793094.00,-0.6811504,-6.921637,0.17657238,-2.25056,-9.361692,1.86120311419804793114.00,-0.8511387,-7.621941,-0.10175357,-2.2155778,-9.376585,1.82791721419804793115.00,-0.9552865,-8.291121,-0.40222588,-2.1832569,-9.393672,1.77840111419804793135.00,-1.0702082,-8.904634,-0.80684596,-2.1493495,-9.414201,1.70983351419804793142.00,-1.0420763,-9.416395,-1.0546459,-2.1149287,-9.436554,1.62754771419804793143.00,-0.89782566,-9.856929,-1.06123,-2.077996,-9.459439,1.53991651419804793163.00,-0.748188,-10.19092,-0.83378077,-2.0391695,-9.481324,1.45488791419804793163.00,-0.7020996,-10.525509,-0.57760113,-1.9997514,-9.501076,1.37874771419804793179.00,-0.57400984,-10.784681,-0.19991584,-1.9586849,-9.51929,1.31037311419804793180.00,-0.4794389,-11.168352,0.24720132,-1.9185277,-9.5352545,1.25242271419804793199.00,-0.492607,-11.708843,0.6392518,-1.879799,-9.548716,1.20779591419804793201.00,-0.49320555,-12.257115,0.664391,-1.844593,-9.559139,1.17929861419804793211.00,-0.3824737,-12.698846,0.1436521,-1.8136312,-9.566653,1.1663171419804793231.00,-0.35434186,-13.11424,-0.6476316,-1.7869107,-9.572324,1.16102211419804793234.00,-0.35075054,-13.405135,-1.3599066,-1.7640847,-9.577736,1.15125161419804793240.00,-0.350152,-13.678074,-1.5454572,-1.7421058,-9.584134,1.13129911419804793268.00,-0.5267244,-13.98513,-1.3868413,-1.7199752,-9.591676,1.1008481419804793269.00,-0.7637503,-14.016255,-1.1300632,-1.6950147,-9.600218,1.06449911419804793274.00,-0.86131406,-13.5535755,-0.830788,-1.6656843,-9.609199,1.02917651419804793280.00,-0.56084174,-12.896367,-0.11552023,-1.633096,-9.617994,0.99877141419804793303.00,-0.4854244,-12.774263,0.8331822,-1.5973864,-9.626283,0.97644381419804793304.00,-1.0151415,-13.330915,1.5358804,-1.5618291,-9.633536,0.962322061419804793312.00,-1.3054385,-13.820529,2.0009542,-1.5247722,-9.639727,0.959763351419804793336.00,-1.3605051,-14.041993,2.2343888,-1.4831516,-9.645935,0.962610841419804793337.00,-1.6238673,-13.606847,2.6791117,-1.4384176,-9.653338,0.956250371419804793340.00,-1.553837,-12.164939,3.5595794,-1.3956413,-9.6617,0.93495331419804793366.00,-1.6633717,-10.632649,4.2131963,-1.3522625,-9.67037,0.90867731419804793367.00,-2.64679,-9.731233,3.9324763,-1.3110206,-9.6775465,0.89258251419804793372.00,-3.9624038,-9.530719,2.9412768,-1.2784967,-9.682697,0.8838571419804793381.00,-4.7746367,-9.704897,1.9363106,-1.2608415,-9.684358,0.89100721419804793401.00,-5.3318872,-10.257359,1.4161704,-1.2650398,-9.68217,0.90863811419804793402.00,-5.556942,-10.83496,1.6861166,-1.3004426,-9.675209,0.932511451419804793412.00,-5.6179943,-11.182119,2.44029,-1.3652178,-9.662627,0.96964911419804793436.00,-5.7987566,-11.219229,2.9029696,-1.4486016,-9.644325,1.02903941419804793437.00,-5.5401826,-10.775703,2.966416,-1.5347695,-9.622533,1.10531571419804793442.00,-5.2199583,-10.006566,2.5079262,-1.6208733,-9.597265,1.19819591419804793476.00,-4.5112743,-9.232041,1.5233108,-1.6978484,-9.570625,1.30032221419804793478.00,-3.371036,-8.767567,0.7128736,-1.7551517,-9.546319,1.39915431419804793481.00,-2.1003134,-8.404845,0.8984242,-1.7850498,-9.527577,1.48636411419804793507.00,-0.14425065,-7.9756846,2.6360161,-1.7884915,-9.514682,1.56285951419804793508.00,-0.05327099,-7.887099,2.9861681,-1.763951,-9.506158,1.64068521419804793509.00,0.08020575,-7.577648,2.8054059,-1.726633,-9.498793,1.72106621419804793512.00,0.092176765,-7.223905,2.28347,-1.6744941,-9.494724,1.79351221419804793536.00,-0.075417355,-6.933608,1.536479,-1.6145778,-9.491853,1.86233411419804793537.00,-0.3274071,-6.694188,1.435324,-1.5605674,-9.487743,1.92814251419804793541.00,-0.6955156,-6.522404,1.6292542,-1.5192072,-9.481092,1.99280611419804793573.00,-0.91458505,-6.377555,1.9548657,-1.4966313,-9.472845,2.04834631419804793574.00,-1.2330139,-6.2674217,2.0332758,-1.4845232,-9.463908,2.09786131419804793575.00,-1.5101427,-6.2464724,1.7675194,-1.4994171,-9.455032,2.1270951419804793600.00,-1.7010803,-6.423643,1.4460979,-1.5368531,-9.446685,2.13742761419804793601.00,-1.9273324,-6.740875,1.0229226,-1.589024,-9.438709,2.1345181419804793602.00,-2.2499511,-7.117962,0.6997054,-1.6524277,-9.431046,2.1202031419804793612.00,-2.5300727,-7.41604,0.47046062,-1.7244662,-9.424335,2.09249541419804793634.00,-2.654571,-7.597999,0.30166942,-1.8029724,-9.417957,2.05468961419804793635.00,-2.633622,-7.7027454,0.14604631,-1.8860639,-9.41279,2.0031321419804793640.00,-2.4253263,-7.6081743,-0.079008654,-1.9689877,-9.407516,1.94734381419804793668.00,-2.0871453,-7.5243773,-0.3465607,-2.047463,-9.401772,1.89340411419804793670.00,-1.7351977,-7.739856,-0.36032736,-2.1150045,-9.396195,1.84625571419804793672.00,-1.4413095,-8.3629465,-0.3878607,-2.1648605,-9.3921795,1.80852511419804793701.00,-1.1887212,-9.324219,-0.5626374,-2.1918724,-9.392029,1.77647861419804793703.00,-0.9115923,-10.330381,-0.52492875,-2.2027667,-9.395491,1.74440941419804793704.00,-0.6955156,-11.355699,-0.34356794,-2.1875029,-9.405181,1.71108441419804793712.00,-0.7433996,-12.512098,-0.12210429,-2.1488051,-9.420874,1.67336871419804793741.00,-1.1204864,-13.876793,0.29747957,-2.0935485,-9.441691,1.62540081419804793743.00,-1.7735049,-15.22413,1.0977415,-2.0261567,-9.465759,1.56986861419804793744.00,-2.5420437,-16.010626,2.1254525,-1.9518349,-9.49,1.51678591419804793769.00,-2.7018566,-15.538967,1.2144588,-1.8821386,-9.510442,1.47630011419804793770.00,-2.2212207,-13.734937,-1.371279,-1.8210882,-9.52908,1.43201171419804793772.00,-2.0799627,-12.17272,-3.0801406,-1.7762425,-9.54467,1.3837061419804793799.00,-2.5689783,-12.232575,-3.2196028,-1.7573379,-9.55321,1.34845021419804793801.00,-2.790442,-13.4195,-1.5155296,-1.7593321,-9.557154,1.31755131419804793804.00,-3.1914709,-14.7877865,1.0067618,-1.7647088,-9.561114,1.28112821419804793841.00,-4.4155064,-15.904083,4.830302,-1.772842,-9.565279,1.23808751419804793843.00,-6.343437,-15.681422,10.381259,-1.7932662,-9.562299,1.23167821419804793843.00,-8.824429,-14.716559,9.567828,-1.8475357,-9.542959,1.29959441419804793844.00,-8.689755,-11.97041,3.3734303,-1.9518998,-9.511878,1.37283121419804793865.00,-5.515642,-7.621941,-0.4369418,-2.0750997,-9.478991,1.41883081419804793866.00,-2.831742,-4.691438,1.1444284,-2.2082953,-9.43565,1.50411161419804793872.00,-1.8764555,-3.7175968,5.298967,-2.359478,-9.380405,1.61594361419804793923.00,-1.7495629,-3.843891,7.5171947,-2.488564,-9.32398,1.74380181419804793924.00,-2.4073699,-5.070919,6.7444663,-2.5782037,-9.273726,1.87650081419804793925.00,-3.0418332,-6.547543,6.5110316,-2.6209152,-9.241178,1.97530321419804793926.00,-2.954445,-7.4268136,6.4487824,-2.6308005,-9.219161,2.06309461419804793927.00,-2.8060043,-8.22528,5.849035,-2.6326191,-9.204749,2.12422321419804793973.00,-3.3518825,-9.140464,5.039196,-2.6380098,-9.197405,2.14919541419804793976.00,-4.3646297,-10.052056,4.533421,-2.6484425,-9.193178,2.15443971419804793978.00,-5.297171,-10.733206,3.7367504,-2.6650474,-9.188557,2.15368491419804793982.00,-4.871602,-10.502166,2.610877,-2.6841993,-9.183595,2.15106061419804793985.00,-4.0019083,-10.114903,1.8602947,-2.7021942,-9.179236,2.14713721419804794002.00,-3.5637693,-9.913192,1.9357121,-2.7237813,-9.1737385,2.14334751419804794003.00,-3.0735564,-9.501988,2.743755,-2.7467558,-9.168798,2.13514831419804794004.00,-2.546832,-8.853758,3.5452142,-2.757945,-9.168524,2.12186461419804794029.00,-2.3373394,-8.201338,3.6762967,-2.7534444,-9.172091,2.112271419804794030.00,-2.2529438,-7.5345526,3.086126,-2.743233,-9.180185,2.09028461419804794032.00,-2.0326772,-6.821679,2.4648306,-2.7244916,-9.193483,2.05606371419804794041.00,-1.7992426,-6.2021794,2.1619642,-2.6986818,-9.211224,2.01018741419804794060.00,-1.6053122,-5.707777,1.9285295,-2.668775,-9.232208,1.95304571419804794061.00,-1.2779051,-5.3115363,1.7052702,-2.6369593,-9.25517,1.886451419804794076.00,-1.0145429,-5.217564,1.5903485,-2.6036134,-9.278162,1.8186021419804794097.00,-0.85772276,-5.2965727,1.7399861,-2.5684993,-9.300361,1.7539931419804794098.00,-0.8265981,-5.628768,1.7729063,-2.5302687,-9.320017,1.70453191419804794101.00,-0.80924016,-5.9920883,1.4149733,-2.4872231,-9.336815,1.67571211419804794123.00,-0.5734113,-6.2446766,0.76554596,-2.4395022,-9.351278,1.66517781419804794124.00,-0.47345337,-6.564901,0.09636662,-2.389661,-9.365021,1.6602121419804794153.00,-0.58777654,-7.0305734,-0.30885202,-2.3420885,-9.379494,1.64625131419804794154.00,-0.86849666,-7.5566993,-0.35075054,-2.2969007,-9.395041,1.62105731419804794155.00,-0.99538934,-8.074445,-0.23942018,-2.250721,-9.41277,1.58253611419804794162.00,-1.0905589,-8.59279,-0.09995792,-2.2027524,-9.432209,1.53352211419804794184.00,-1.0881647,-9.11293,-0.10115502,-2.1549697,-9.45101,1.48490771419804794184.00,-0.9516952,-9.653421,-0.29149407,-2.109866,-9.467424,1.44455851419804794192.00,-0.7026982,-10.125079,-0.59615624,-2.0709472,-9.480709,1.41340461419804794211.00,-0.4938041,-10.650007,-0.5967548,-2.0401847,-9.491135,1.38794291419804794225.00,-0.43155485,-11.298837,-0.18794483,-2.0113456,-9.500798,1.36371391419804794226.00,-0.49679685,-11.984177,0.2861071,-1.9879891,-9.509224,1.33901571419804794242.00,-0.5470751,-12.603676,0.29987377,-1.9670849,-9.517536,1.3105251419804794243.00,-0.50757074,-13.120225,-0.3609259,-1.9470226,-9.526224,1.2769251419804794260.00,-0.415394,-13.485341,-1.3982137,-1.9284313,-9.535473,1.23543561419804794261.00,-0.30825347,-13.647549,-1.9434932,-1.9129397,-9.545734,1.1789931419804794280.00,-0.5231331,-13.572131,-1.6274586,-1.898758,-9.556524,1.11263721419804794283.00,-1.0127473,-13.355455,-1.1432313,-1.8915467,-9.565343,1.04721011419804794293.00,-1.4502877,-13.108852,-0.9672575,-1.8913395,-9.570651,0.99793611419804794317.00,-1.3724761,-12.594698,-0.83258367,-1.8925779,-9.573113,0.97161071419804794319.00,-0.8367735,-11.936892,-0.08738836,-1.8887951,-9.574723,0.96308371419804794321.00,-0.6679823,-11.882423,1.0666169,-1.8777877,-9.576451,0.96741211419804794351.00,-1.2503718,-12.831125,1.8968062,-1.8606194,-9.578215,0.98299371419804794352.00,-1.4646529,-14.129381,2.2421699,-1.8428701,-9.579354,1.00508861419804794354.00,-1.3760674,-15.164275,2.2625206,-1.8135611,-9.582181,1.03112331419804794361.00,-1.3491327,-15.349227,2.534861,-1.7762439,-9.587462,1.04686441419804794384.00,-1.376666,-14.052767,3.5793316,-1.7381773,-9.594821,1.04334271419804794385.00,-1.1887212,-11.269507,4.606444,-1.7004212,-9.60338,1.02666211419804794393.00,-1.6490064,-8.885481,4.083311,-1.6631436,-9.612112,1.00581291419804794417.00,-2.819771,-7.94037,2.1829133,-1.632304,-9.619999,0.980615261419804794418.00,-3.4554317,-7.9212165,0.78888947,-1.6129172,-9.625679,0.95667761419804794428.00,-3.7618895,-8.670003,0.54288524,-1.6036528,-9.628648,0.94226251419804794453.00,-3.916914,-9.760562,1.4478935,-1.6126136,-9.628481,0.928573551419804794454.00,-4.120421,-10.823587,2.5480292,-1.6391408,-9.624747,0.92079471419804794455.00,-4.1539397,-11.553221,3.0777464,-1.6740433,-9.617459,0.93405371419804794475.00,-3.7337575,-11.973403,2.8670566,-1.7076368,-9.60724,0.97741151419804794476.00,-3.233968,-12.058995,2.319383,-1.7328598,-9.59654,1.0363411419804794489.00,-2.6551697,-11.952454,1.7423803,-1.7501878,-9.584496,1.11566531419804794493.00,-1.9369092,-11.725004,0.9498995,-1.7544813,-9.572062,1.21154121419804794512.00,-1.4766239,-11.226412,0.49320555,-1.7423037,-9.560206,1.31802881419804794513.00,-1.0384849,-10.516531,1.039682,-1.7181723,-9.547941,1.43356781419804794521.00,-0.7032967,-9.5809965,2.1332338,-1.6854099,-9.53371,1.56146291419804794554.00,-0.58897364,-8.573636,2.755726,-1.6466739,-9.516486,1.70156661419804794555.00,-0.6452374,-7.627328,2.6258407,-1.6061574,-9.49647,1.84599531419804794556.00,-1.0564415,-6.996456,2.4540567,-1.5677085,-9.474499,1.98659151419804794605.00,-1.4736311,-6.567295,2.380435,-1.5415167,-9.451027,2.1147541419804794607.00,-1.757344,-6.261436,2.4959552,-1.5344621,-9.428413,2.21829561419804794609.00,-1.7968484,-6.0130377,2.5492263,-1.5479221,-9.409239,2.28922341419804794613.00,-1.5981296,-5.7855883,2.4720132,-1.5795406,-9.395637,2.32324721419804794615.00,-1.5957354,-5.747281,2.5791538,-1.6177418,-9.384958,2.3400561419804794645.00,-1.5556326,-5.741296,2.4139538,-1.6657339,-9.378468,2.332391419804794646.00,-1.4413095,-5.7586536,1.9219455,-1.7153578,-9.375308,2.30901551419804794647.00,-1.4526819,-5.744887,1.4867992,-1.7642028,-9.374598,2.2748431419804794647.00,-1.5310919,-5.743091,1.1468226,-1.8146541,-9.374962,2.23327281419804794653.00,-1.5334862,-5.817312,0.8319851,-1.8663585,-9.3756695,2.18721491419804794678.00,-1.5717934,-6.030994,0.49559975,-1.9185342,-9.376218,2.1391951419804794679.00,-1.5251064,-6.3182983,0.16639702,-1.9684882,-9.37649,2.09209851419804794681.00,-1.3467385,-6.6606693,-0.08559271,-2.0157273,-9.376308,2.0474591419804794693.00,-1.1707647,-7.2065473,-0.12629414,-2.0588992,-9.3762665,2.00423051419804794707.00,-1.079785,-7.8583684,-0.05207389,-2.0952258,-9.377917,1.95834061419804794728.00,-1.1827357,-8.619126,0.01316811,-2.1197016,-9.383006,1.90695131419804794729.00,-1.4856021,-9.624092,0.013766659,-2.1282568,-9.392772,1.84845051419804794735.00,-1.6771383,-10.730213,0.10295067,-2.128412,-9.404995,1.78503021419804794742.00,-1.7280151,-11.807604,0.17776948,-2.1113331,-9.421729,1.71571061419804794764.00,-1.762731,-12.882601,0.3854665,-2.0785918,-9.44165,1.64471341419804794765.00,-2.0524294,-13.945626,0.85473,-2.0334108,-9.462729,1.57873581419804794773.00,-2.3588872,-14.730925,1.7543513,-1.9826623,-9.482008,1.52675431419804794799.00,-2.540248,-14.95179,2.2296004,-1.934311,-9.496029,1.5014261419804794800.00,-2.1787236,-14.070724,0.48602295,-1.892134,-9.506057,1.49167821419804794802.00,-1.6394296,-12.756906,-1.8363527,-1.8618534,-9.5127535,1.48708591419804794833.00,-1.2078748,-12.030265,-2.8281507,-1.8464,-9.516714,1.48099671419804794836.00,-1.1923125,-12.022484,-2.7778726,-1.838239,-9.520451,1.46707671419804794837.00,-1.7711107,-12.840702,-2.420538,-1.8270173,-9.528309,1.42959441419804794841.00,-2.1051018,-13.940838,-0.2765303,-1.8137671,-9.54149,1.35669231419804794859.00,-2.867655,-14.964958,2.8311436,-1.8035356,-9.555426,1.26945451419804794875.00,-4.3688197,-15.629948,7.0467343,-1.8022316,-9.563824,1.20649771419804794876.00,-6.120178,-15.139734,9.431359,-1.8284634,-9.55957,1.20071211419804794891.00,-7.827244,-13.43626,5.808932,-1.8963609,-9.537271,1.27070211419804794907.00,-7.9631147,-10.59135,0.919972,-2.016548,-9.501964,1.34781461419804794907.00,-6.5445504,-8.08881,1.0007763,-2.1725457,-9.457259,1.41798781419804794928.00,-3.8869865,-6.517017,4.2479124,-2.3301492,-9.4086485,1.48933761419804794928.00,-2.9107506,-5.8598084,6.283582,-2.4601612,-9.361186,1.57676221419804794934.00,-2.9334955,-5.6042275,5.7987566,-2.5588965,-9.319465,1.66434371419804794944.00,-3.0520086,-6.215348,4.703409,-2.6222005,-9.284437,1.75889041419804794969.00,-3.38181,-7.1748238,4.83928,-2.6649551,-9.25448,1.85013871419804794970.00,-3.1597476,-7.829638,5.0523643,-2.701428,-9.22918,1.92221781419804794974.00,-2.7922378,-9.249998,5.121796,-2.7317698,-9.211749,1.96252611419804794998.00,-3.1172507,-9.915586,5.3438582,-2.7519271,-9.201437,1.98263551419804794999.00,-3.8025908,-10.399215,4.8135424,-2.7688024,-9.192429,2.00084471419804795003.00,-4.188656,-10.292074,3.9414546,-2.7799046,-9.185293,2.0181441419804795031.00,-3.7008374,-9.853337,3.0897174,-2.7892704,-9.177256,2.04164961419804795032.00,-3.2824504,-9.7402115,2.7790697,-2.7963662,-9.168053,2.07304291419804795034.00,-2.938284,-9.515755,3.3662477,-2.8024654,-9.158357,2.10738591419804795051.00,-2.7018566,-8.982447,4.2000284,-2.8023932,-9.150385,2.14183521419804795088.00,-2.6204538,-8.2516165,4.2503066,-2.795429,-9.1432495,2.181041419804795089.00,-2.463035,-7.5094137,3.4326868,-2.7860386,-9.141133,2.20183131419804795091.00,-2.2864625,-6.8731546,2.295441,-2.7736833,-9.145469,2.19942471419804795092.00,-2.2092497,-6.3751607,1.4454993,-2.7612195,-9.155,2.17532371419804795114.00,-2.0189106,-6.0561333,1.0881647,-2.7500436,-9.168092,2.13395261419804795115.00,-1.8489223,-5.873575,1.3108255,-2.7365258,-9.185182,2.0770781419804795117.00,-1.5867572,-5.7263317,1.5646108,-2.7171974,-9.206559,2.00661951419804795123.00,-1.0755951,-5.7227407,1.7357962,-2.693503,-9.22972,1.9307251419804795147.00,-0.7529764,-6.029797,1.8716671,-2.660178,-9.255802,1.85039321419804795148.00,-0.44113165,-6.2225304,1.9853917,-2.6184635,-9.282075,1.77682611419804795154.00,-0.14544775,-6.285378,1.7830818,-2.569143,-9.307113,1.71684461419804795182.00,-0.015562311,-6.319495,1.1390414,-2.5132966,-9.331781,1.66481771419804795183.00,0.012569559,-6.401497,0.46986207,-2.45429,-9.356649,1.61244891419804795184.00,-0.033518825,-6.607398,-0.24121583,-2.394738,-9.381856,1.5544751419804795213.00,-0.29209262,-7.1113777,-0.7445967,-2.3323655,-9.408572,1.48635091419804795214.00,-0.48841715,-7.7757688,-0.89423436,-2.2685797,-9.436801,1.40381991419804795215.00,-0.599149,-8.492233,-0.82719666,-2.2023249,-9.465376,1.31408621419804795222.00,-0.6835446,-9.514558,-1.5149311,-2.1328793,-9.493294,1.22416371419804795246.00,-0.40521863,-10.875661,-2.7970262,-2.0627134,-9.520459,1.12979381419804795248.00,-0.06404489,-11.841123,-2.4139538,-1.9926313,-9.547064,1.02634441419804795256.00,-0.12210429,-12.212823,-1.1994951,-1.9215266,-9.571055,0.93436671419804795279.00,-0.5506664,-12.124836,-0.56323594,-1.8721108,-9.585586,0.88440531419804795281.00,-0.78290397,-11.726201,-0.19871874,-1.8523815,-9.589272,0.88597391419804795282.00,-0.8583213,-11.647193,0.17956513,-1.8540964,-9.585795,0.91937111419804795313.00,-0.8690952,-11.72261,0.22325931,-1.8683968,-9.579397,0.95637371419804795314.00,-0.736217,-11.95365,-0.24660277,-1.887344,-9.572853,0.98428491419804795315.00,-0.5626374,-12.337321,-0.9139865,-1.9043767,-9.5677395,1.00105891419804795322.00,-0.37948096,-12.646772,-1.276708,-1.9121801,-9.565861,1.00411771419804795362.00,-0.39145198,-12.87482,-1.3772645,-1.9110572,-9.567628,0.989314441419804795363.00,-0.62728083,-12.933477,-1.4814123,-1.9031547,-9.572295,0.958932161419804795364.00,-0.85293436,-12.730569,-1.8118122,-1.8899069,-9.578737,0.92003131419804795365.00,-0.7613561,-12.228984,-1.7417817,-1.8705957,-9.586446,0.878258761419804795373.00,-0.4309563,-11.832744,-0.7086837,-1.8442581,-9.594785,0.842152831419804795398.00,-0.56203884,-12.272079,0.95468795,-1.8128633,-9.602803,0.818603931419804795399.00,-1.01574,-13.148955,2.4271219,-1.774835,-9.610393,0.81284261419804795402.00,-1.3652935,-13.87799,3.1848867,-1.7312969,-9.617011,0.828307871419804795436.00,-1.4425066,-14.001291,3.5942953,-1.6828148,-9.622876,0.859528961419804795437.00,-1.0929531,-12.998121,4.3418846,-1.6311522,-9.628878,0.891322551419804795438.00,-0.9103952,-11.370064,5.08289,-1.577091,-9.635898,0.91249891419804795457.00,-1.8112136,-10.411784,4.4741645,-1.5259435,-9.642694,0.927555561419804795457.00,-3.1639376,-10.111312,3.1693244,-1.4821117,-9.649248,0.93046071419804795476.00,-4.231153,-10.316016,2.1763294,-1.4472464,-9.653586,0.94029351419804795477.00,-4.923676,-10.782288,1.8656816,-1.4254754,-9.654051,0.96837131419804795483.00,-5.2325277,-11.368867,2.0398598,-1.4263518,-9.649865,1.00797961419804795505.00,-5.3683987,-11.935096,2.3247697,-1.4532293,-9.64083,1.05494191419804795506.00,-5.241506,-12.247539,2.598906,-1.5027138,-9.627006,1.1104211419804795525.00,-5.2002063,-12.263102,2.6593595,-1.5561247,-9.609701,1.18426681419804795526.00,-4.63697,-11.407773,2.517503,-1.6208348,-9.587192,1.27634481419804795535.00,-3.6954503,-10.05445,2.3169887,-1.6814702,-9.561704,1.38451251419804795575.00,-2.6288335,-9.09258,1.7908629,-1.7311016,-9.535696,1.49806331419804795576.00,-1.584363,-8.497022,1.7040731,-1.7648247,-9.512668,1.6015541419804795577.00,-0.8038532,-8.136096,2.3127987,-1.7763655,-9.495112,1.69048941419804795578.00,-0.4333505,-7.961918,2.9173348,-1.773537,-9.480223,1.77491251419804795601.00,-0.2777274,-7.905654,3.328539,-1.7468145,-9.4707985,1.85013871419804795602.00,-0.35434186,-7.884106,3.2495303,-1.6969308,-9.465341,1.92305481419804795603.00,-0.5255273,-7.8649526,2.5157075,-1.6329528,-9.462,1.99359611419804795625.00,-0.7769185,-7.639299,1.8076223,-1.5709976,-9.459233,2.05554491419804795626.00,-1.1025299,-7.3579803,1.2036849,-1.5249723,-9.455276,2.10775351419804795634.00,-1.377863,-7.123947,1.1001357,-1.5029198,-9.449193,2.1504361419804795656.00,-1.4993688,-6.8881183,1.3814543,-1.4940803,-9.44414,2.17860871419804795657.00,-1.5699978,-6.6708446,1.5520413,-1.5083438,-9.439536,2.18870571419804795696.00,-1.7154455,-6.522404,1.3718776,-1.5424867,-9.436169,2.17941711419804795697.00,-2.0099323,-6.206968,1.2791022,-1.5923551,-9.43372,2.15400741419804795699.00,-2.1517887,-5.9268465,1.1007342,-1.6537732,-9.431082,2.1189891419804795701.00,-2.203264,-5.846042,0.88525605,-1.7222927,-9.428199,2.07681681419804795703.00,-2.2104468,-5.973533,0.9139865,-1.7942096,-9.424739,2.03113561419804795729.00,-2.131438,-6.199785,0.87927055,-1.866941,-9.420831,1.98314981419804795731.00,-1.9387048,-6.4392056,0.56922144,-1.9360598,-9.41719,1.9335451419804795737.00,-1.7489643,-6.6708446,0.20470424,-1.9970696,-9.414085,1.88603091419804795758.00,-1.520318,-7.0126166,0.008379706,-2.0485682,-9.411509,1.84316241419804795758.00,-1.2108675,-7.487866,-0.22266077,-2.0878925,-9.410844,1.80198111419804795763.00,-0.9451111,-8.219893,-0.45908818,-2.1102464,-9.414016,1.75885861419804795774.00,-0.931943,-9.370307,-0.7098808,-2.1206367,-9.420819,1.70923321419804795797.00,-1.0749966,-10.702681,-0.6703765,-2.1063635,-9.434429,1.65081081419804795798.00,-1.1354501,-11.900379,-0.37349546,-2.0663142,-9.454871,1.58308551419804795803.00,-1.3269863,-13.135189,-0.032920275,-2.0061827,-9.480252,1.50679921419804795829.00,-1.6531962,-14.356831,0.6171055,-1.9364564,-9.507429,1.4245451419804795831.00,-2.1535845,-15.258247,1.3790601,-1.8655983,-9.532546,1.34927321419804795836.00,-2.7515364,-15.522807,1.8513165,-1.800515,-9.5534935,1.28813781419804795885.00,-2.566584,-14.383166,0.87567925,-1.7512081,-9.56717,1.25416861419804795886.00,-1.9668367,-12.339117,-1.1282675,-1.7188814,-9.574943,1.23948311419804795887.00,-1.8387469,-11.201273,-2.4893713,-1.7071842,-9.577433,1.23640991419804795888.00,-2.292448,-11.725004,-2.7485435,-1.7130396,-9.576255,1.23742741419804795889.00,-2.8365304,-13.395558,-2.0326772,-1.7236981,-9.576476,1.22081051419804795913.00,-2.9724014,-14.908095,0.11432313,-1.7338272,-9.5783,1.19181161419804795914.00,-3.6613328,-16.19857,2.4546554,-1.743744,-9.582337,1.14392861419804795915.00,-4.5633483,-16.193184,6.5786676,-1.7676308,-9.583998,1.09217681419804795923.00,-6.1638722,-14.839262,7.917625,-1.813699,-9.575223,1.0936271419804795944.00,-6.871359,-12.260108,3.5859156,-1.8968153,-9.5536585,1.14020751419804795945.00,-6.168062,-9.244612,0.28072014,-2.004947,-9.527015,1.17752351419804795954.00,-4.502895,-7.0209966,1.103727,-2.1230786,-9.495522,1.2239361419804795971.00,-3.369839,-6.223727,4.8560395,-2.2361426,-9.462807,1.27489521419804795996.00,-2.6527755,-5.8741736,7.101202,-2.3311045,-9.429243,1.35118541419804795997.00,-2.8018146,-6.0836663,6.0244102,-2.3959055,-9.398133,1.45089671419804795998.00,-2.8263552,-6.9066734,5.106832,-2.434855,-9.370054,1.56332161419804796003.00,-2.5318682,-7.627328,5.3378725,-2.462219,-9.34162,1.68581991419804796028.00,-2.095525,-8.154651,5.605425,-2.4906714,-9.313197,1.79758831419804796029.00,-2.087744,-8.829217,5.571307,-2.5185719,-9.2859125,1.89711231419804796035.00,-2.5959132,-9.566033,5.5383873,-2.544837,-9.263347,1.97094151419804796064.00,-3.4165258,-10.09156,4.941034,-2.5660384,-9.244876,2.02931881419804796065.00,-3.9067385,-10.056845,3.8642416,-2.5855148,-9.229261,2.07514381419804796066.00,-3.788824,-9.5798,3.1543608,-2.6088593,-9.21496,2.10920571419804796092.00,-3.6092591,-9.305663,2.9963434,-2.6363487,-9.201153,2.1351481419804796095.00,-3.345897,-9.122507,3.2752678,-2.6624784,-9.189254,2.15388511419804796096.00,-2.918532,-8.824429,3.6762967,-2.6798134,-9.179229,2.17502781419804796104.00,-2.5600002,-8.353969,3.7068229,-2.6850932,-9.1746,2.18801431419804796137.00,-2.3828292,-7.891887,3.2782607,-2.6758912,-9.176483,2.19138341419804796139.00,-2.2547395,-7.4441714,2.5893292,-2.6568236,-9.184649,2.18034431419804796140.00,-2.100912,-7.0461354,1.9686323,-2.6328118,-9.198059,2.1527681419804796171.00,-1.775899,-6.67683,1.7286136,-2.6058261,-9.216401,2.10666351419804796172.00,-1.4694413,-6.341642,1.821389,-2.5788996,-9.237223,2.04777431419804796173.00,-1.3054385,-6.0824695,1.8668787,-2.544838,-9.262402,1.97537541419804796191.00,-1.1210849,-5.8933277,1.7806876,-2.507636,-9.289948,1.89182651419804796192.00,-0.7691373,-5.825093,1.6514006,-2.4680877,-9.316865,1.8096881419804796194.00,-0.53330845,-5.971139,1.3192052,-2.4265325,-9.340759,1.74141751419804796203.00,-0.5057751,-6.232107,0.7978677,-2.3828864,-9.361782,1.68797771419804796218.00,-0.3453636,-6.533178,0.22984336,-2.3363297,-9.381557,1.64265881419804796236.00,-0.15682021,-6.8162923,-0.492607,-2.2865932,-9.401725,1.5967061419804796237.00,-0.10175357,-7.177218,-1.1348516,-2.2340467,-9.423202,1.54360541419804796254.00,-0.15203181,-7.65127,-1.3018472,-2.1777902,-9.446741,1.47874981419804796254.00,-0.17477672,-8.126519,-1.09834,-2.116349,-9.472361,1.40209231419804796270.00,-0.15741876,-8.740033,-0.8523358,-2.0499785,-9.499257,1.3160871419804796289.00,0.065242,-9.642049,-1.6346412,-1.9813728,-9.525895,1.22551821419804796290.00,0.5446809,-10.53329,-2.3918076,-1.9087955,-9.552648,1.12863641419804796304.00,0.8265981,-10.761936,-1.6729485,-1.837791,-9.577235,1.03415551419804796305.00,0.7194576,-10.71525,-0.62967503,-1.780872,-9.593554,0.981133461419804796323.00,0.6817489,-10.36031,-0.3716998,-1.7462945,-9.599561,0.98452981419804796324.00,0.33758244,-10.224439,0.001197101,-1.7317823,-9.598562,1.01927441419804796337.00,-0.19632454,-10.513538,0.5931635,-1.737612,-9.592956,1.06127691419804796364.00,-0.55725044,-11.058219,0.6278794,-1.7565675,-9.584683,1.10395471419804796366.00,-0.6380547,-11.78486,0.09816227,-1.7783687,-9.575981,1.14383081419804796367.00,-0.5781997,-12.653356,-0.6362591,-1.7971106,-9.568716,1.17493581419804796393.00,-0.3250129,-13.412318,-1.2395979,-1.8091528,-9.565065,1.18613171419804796394.00,-0.18435353,-14.024036,-1.3509283,-1.8112372,-9.566684,1.16978261419804796395.00,-0.25139117,-14.266449,-0.7469909,-1.803267,-9.572467,1.13422971419804796403.00,-0.5781997,-14.091074,0.52492875,-1.7864118,-9.579383,1.10206381419804796428.00,-0.7667431,-13.858238,2.147599,-1.7670261,-9.584249,1.09096421419804796429.00,-0.6015432,-14.025233,2.6731262,-1.7416514,-9.587116,1.10646491419804796435.00,-0.480636,-14.528614,2.0368671,-1.7050495,-9.589578,1.14157681419804796461.00,-0.48243165,-15.064916,1.5406688,-1.6580849,-9.593155,1.18004981419804796463.00,-0.22625206,-14.911687,2.220622,-1.6000737,-9.599331,1.20954361419804796464.00,-1.0618285,-13.949816,2.8000188,-1.5281259,-9.608745,1.22770081419804796494.00,-2.3307555,-12.533048,2.9317,-1.4572192,-9.619917,1.22643041419804796496.00,-3.6194344,-11.453262,2.540248,-1.3987694,-9.6298485,1.2164871419804796498.00,-4.9015293,-10.753557,2.1362264,-1.3555387,-9.6384945,1.19680661419804796505.00,-5.5802855,-10.362105,2.0614076,-1.3396254,-9.642386,1.18329821419804796536.00,-5.929839,-10.280702,2.0171149,-1.3551558,-9.640729,1.1791141419804796537.00,-5.837662,-10.070611,2.255338,-1.4090894,-9.632724,1.18131761419804796539.00,-5.7239375,-9.701904,2.4361002,-1.5022271,-9.616232,1.20074711419804796564.00,-5.5647235,-9.149442,2.3391352,-1.6098081,-9.594233,1.23678051419804796566.00,-5.2409077,-8.327033,1.8435353,-1.7455329,-9.562499,1.29697021419804796567.00,-4.6818614,-7.36217,1.2952632,-1.8907673,-9.523615,1.37700531419804796589.00,-4.2299557,-6.6965823,1.483208,-2.0299757,-9.481625,1.4657311419804796590.00,-3.4811692,-7.443573,1.3790601,-2.1476824,-9.441919,1.55177961419804796595.00,-1.7663223,-7.9475527,1.376666,-2.219215,-9.414423,1.61682681419804796603.00,-0.64823014,-8.20433,2.123657,-2.2281058,-9.404126,1.66384041419804796617.00,-0.43394905,-8.43178,3.1256304,-2.2082047,-9.399924,1.7133691419804796638.00,-0.51834464,-8.585608,3.6721067,-2.1610715,-9.400714,1.76825271419804796639.00,-0.53929394,-8.531139,3.6876693,-2.091266,-9.40448,1.83105311419804796654.00,-0.6051345,-8.425196,3.1794999,-2.0046983,-9.409411,1.90120141419804796655.00,-0.7733272,-8.225879,2.508525,-1.9192507,-9.411726,1.97643281419804796668.00,-0.88944596,-7.7829514,2.0655975,-1.8510551,-9.40807,2.05723641419804796682.00,-1.1659763,-7.361572,1.6418238,-1.7985245,-9.400246,2.13800331419804796684.00,-1.3964181,-7.0449386,1.2677298,-1.7714942,-9.384557,2.22762511419804796699.00,-1.6298528,-6.870162,1.0911574,-1.7716043,-9.363408,2.31482341419804796703.00,-1.8740613,-6.7648168,1.1204864,-1.7933073,-9.341136,2.38696651419804796715.00,-2.030283,-6.682217,1.1432313,-1.8312937,-9.322341,2.43119071419804796734.00,-2.1218612,-6.513426,1.283292,-1.8804114,-9.309706,2.44209651419804796735.00,-2.1380222,-6.3182983,1.2401965,-1.9364933,-9.303242,2.4228241419804796759.00,-2.19668,-6.2584434,1.0366893,-1.995838,-9.299196,2.38997551419804796760.00,-2.2379801,-6.2530565,0.89662856,-2.0586443,-9.29891,2.33723241419804796764.00,-2.2361844,-6.3631897,0.7098808,-2.12356,-9.299791,2.2748151419804796790.00,-2.142212,-6.6486983,0.29209262,-2.1855311,-9.300909,2.21064641419804796791.00,-1.9476831,-7.023391,-0.24660277,-2.2379758,-9.302939,2.14876321419804796795.00,-1.7076644,-7.5572977,-0.62129533,-2.2745287,-9.307004,2.09203341419804796804.00,-1.5807717,-8.315661,-0.8822633,-2.300022,-9.313043,2.03655461419804796818.00,-1.6460136,-9.264962,-1.0366893,-2.3036523,-9.323661,1.983161419804796836.00,-1.7357962,-10.381259,-0.943914,-2.2847629,-9.340224,1.92625531419804796838.00,-1.7842789,-11.514315,-0.7254431,-2.2454166,-9.362794,1.86188261419804796853.00,-1.9273324,-12.70124,-0.45010993,-2.1910827,-9.390466,1.78570071419804796870.00,-1.9764135,-13.879786,-0.061052144,-2.129255,-9.421205,1.69633661419804796871.00,-2.2224178,-15.0302,0.5781997,-2.0630045,-9.452571,1.60103641419804796888.00,-2.2499511,-15.503654,1.5927427,-1.9965389,-9.481632,1.51092141419804796889.00,-1.899799,-14.916475,1.441908,-1.9330548,-9.506079,1.43810681419804796895.00,-1.2174516,-13.263279,-0.31663316,-1.8769176,-9.525856,1.38044371419804796903.00,-1.1127052,-11.795633,-1.7836803,-1.8340755,-9.540488,1.33628571419804796917.00,-1.7070658,-11.544841,-2.0147207,-1.8083894,-9.548186,1.3161581419804796934.00,-2.4301147,-12.791621,-1.1474211,-1.7946451,-9.551494,1.31095841419804796935.00,-2.984971,-14.4107,1.1653777,-1.7843349,-9.553684,1.30907421419804796954.00,-3.846285,-15.991471,3.5930982,-1.7785511,-9.555248,1.3055181419804796972.00,-4.83928,-16.629526,7.8410106,-1.7871708,-9.554366,1.30019531419804796973.00,-6.5122285,-15.515624,9.543288,-1.8207302,-9.542129,1.34280751419804796975.00,-7.335834,-12.397177,4.771045,-1.8994106,-9.514244,1.42891291419804796984.00,-6.4763155,-8.684368,0.9696517,-2.01015,-9.481073,1.49630451419804797008.00,-4.1940427,-5.893926,1.4682442,-2.133898,-9.439485,1.58524881419804797010.00,-2.4127567,-4.559159,3.8187518,-2.2568612,-9.39404,1.6819581419804797015.00,-1.9219455,-4.3263226,5.9148755,-2.369818,-9.346112,1.79012351419804797042.00,-1.8722657,-4.8267107,5.8412538,-2.4516094,-9.304944,1.89156061419804797043.00,-2.3157916,-6.4104753,5.441422,-2.4879696,-9.277291,1.97794381419804797044.00,-2.7964275,-7.739856,5.671864,-2.4980035,-9.258368,2.05256681419804797066.00,-2.8293478,-8.72507,5.4713492,-2.5026534,-9.243811,2.11164881419804797067.00,-2.6001031,-9.40203,5.342661,-2.5080733,-9.23252,2.1541841419804797084.00,-2.9161377,-10.135853,5.3995233,-2.513132,-9.226191,2.17530851419804797085.00,-3.8031895,-10.740389,5.3558292,-2.521794,-9.220115,2.19098761419804797105.00,-4.459201,-10.9426985,4.4394484,-2.5344636,-9.210705,2.21580981419804797106.00,-4.3676224,-10.731411,2.9616275,-2.5511901,-9.197598,2.25077561419804797116.00,-3.7642837,-10.328587,2.1601684,-2.5737486,-9.181432,2.29074811419804797136.00,-3.2010477,-9.929353,2.5139117,-2.6011646,-9.163619,2.33075741419804797138.00,-2.7252002,-9.440936,3.5877113,-2.6263838,-9.146011,2.37128351419804797156.00,-2.256535,-8.946533,4.243124,-2.6453114,-9.131464,2.40604851419804797158.00,-1.8291701,-8.425196,3.970185,-2.648377,-9.12357,2.43247841419804797165.00,-1.6519991,-7.8452005,3.2172086,-2.6354043,-9.123905,2.44527751419804797190.00,-1.5011644,-7.113772,2.480393,-2.614493,-9.131462,2.43951061419804797191.00,-1.4083891,-6.528988,1.970428,-2.592742,-9.144908,2.41220551419804797195.00,-1.2360066,-6.0758853,1.846528,-2.5757344,-9.16083,2.36963421419804797217.00,-1.0594343,-5.8029466,2.058415,-2.555309,-9.18077,2.31392311419804797218.00,-0.86011696,-5.590461,2.3157916,-2.5318904,-9.204083,2.2460551419804797234.00,-0.6805518,-5.539584,2.3199813,-2.5028622,-9.230217,2.17006471419804797249.00,-0.42317516,-5.6467247,2.172738,-2.4677641,-9.257448,2.09288841419804797250.00,-0.32680854,-5.9962783,2.0649989,-2.4266708,-9.283825,2.0229361419804797265.00,-0.39983168,-6.3542113,1.9033904,-2.379859,-9.309254,1.96073281419804797266.00,-0.28909984,-6.5206084,1.3599066,-2.3285441,-9.332998,1.90877781419804797283.00,-0.17357962,-6.76781,0.43275195,-2.2745118,-9.356746,1.85696651419804797284.00,-0.39923313,-7.277176,-0.64583594,-2.2201004,-9.38118,1.79861511419804797297.00,-0.5506664,-7.767389,-1.4574703,-2.1683338,-9.406366,1.72887551419804797315.00,-0.6332663,-8.260594,-1.5705963,-2.11695,-9.432996,1.64544521419804797316.00,-0.6476316,-8.749012,-1.1414356,-2.0658374,-9.460632,1.54892081419804797330.00,-0.58777654,-9.354745,-1.0049661,-2.0132616,-9.487652,1.44971051419804797336.00,-0.39683893,-10.151415,-1.7902644,-1.9625913,-9.51377,1.3441831419804797352.00,-0.030526072,-10.900801,-2.3517046,-1.9137607,-9.537943,1.23917831419804797368.00,0.077811554,-11.092337,-1.42455,-1.8706931,-9.557409,1.15188231419804797369.00,-0.3657143,-10.808025,-0.45310268,-1.8448703,-9.567002,1.11324981419804797387.00,-0.92176765,-10.840346,0.003591303,-1.843253,-9.565797,1.1262081419804797387.00,-1.246182,-11.22282,0.12569559,-1.8580925,-9.559035,1.158771419804797395.00,-1.3754689,-11.69807,-0.09756372,-1.8793536,-9.549907,1.19905541419804797415.00,-1.270124,-12.195465,-0.6290765,-1.9028324,-9.540654,1.23512051419804797417.00,-0.9684546,-12.828133,-1.2479776,-1.9239416,-9.533805,1.25516661419804797432.00,-0.57161564,-13.517663,-1.5855601,-1.9354367,-9.53205,1.25079381419804797436.00,-0.41359833,-14.135965,-1.5646108,-1.9321597,-9.536724,1.21985341419804797449.00,-0.32202014,-14.325108,-1.1653777,-1.9142151,-9.54629,1.17239311419804797464.00,-0.24540567,-14.028825,-0.073621705,-1.8877687,-9.556797,1.12887191419804797465.00,-0.31483752,-13.838486,1.5610195,-1.8523929,-9.567204,1.09892171419804797482.00,-0.21428105,-14.056956,2.4498668,-1.8089237,-9.57574,1.09699421419804797484.00,-0.5291186,-14.750078,2.5187001,-1.7548397,-9.583364,1.11806421419804797498.00,-0.664391,-15.26962,2.5210943,-1.6939511,-9.590496,1.15034581419804797514.00,-0.4890157,-15.052944,2.7856536,-1.6238214,-9.598828,1.18156921419804797516.00,-0.66498953,-14.107235,3.3135753,-1.5451474,-9.608485,1.20826721419804797530.00,-1.6065093,-12.500127,3.650559,-1.4693761,-9.619313,1.2166111419804797536.00,-2.92751,-10.999561,3.2213984,-1.4056784,-9.630333,1.2046371419804797547.00,-4.1838675,-9.974843,2.3511062,-1.3630893,-9.639062,1.18358531419804797563.00,-5.0505686,-9.471462,1.6220716,-1.347783,-9.64349,1.16489861419804797566.00,-5.2301335,-9.306262,1.4293385,-1.3647034,-9.643055,1.14867731419804797586.00,-5.5258174,-9.57142,1.6484078,-1.4158024,-9.6373005,1.13504421419804797587.00,-5.9370217,-9.855133,2.112883,-1.4854785,-9.627719,1.12729471419804797599.00,-6.108207,-9.898827,2.4109612,-1.5872742,-9.610605,1.1345591419804797621.00,-5.825093,-9.585785,2.0973208,-1.7075357,-9.586568,1.16294371419804797632.00,-5.551555,-9.06744,1.4987702,-2.0506458,-9.497486,1.32778041419804797633.00,-4.8979383,-8.356362,1.3245921,-2.0506458,-9.497486,1.32778041419804797636.00,-3.8744168,-8.277952,1.2964603,-2.0506458,-9.497486,1.32778041419804797662.00,-2.2631192,-8.453926,1.0163386,-2.1227014,-9.473605,1.38396871419804797664.00,-0.7290344,-8.453327,1.4694413,-2.1424515,-9.461603,1.43468821419804797665.00,-0.1448492,-8.483853,2.3732524,-2.119785,-9.458014,1.49094061419804797691.00,-0.047285482,-8.476671,3.0388405,-2.0671334,-9.459042,1.55688671419804797692.00,0.074220255,-8.357559,3.2315738,-1.9880303,-9.463545,1.63077691419804797696.00,0.073023155,-8.286332,3.1226375,-1.8933287,-9.468444,1.71297241419804797716.00,-0.08200141,-8.281544,2.6677392,-1.7973707,-9.470381,1.8032621419804797716.00,-0.16699557,-8.153454,2.260725,-1.7073666,-9.469615,1.89253341419804797731.00,-0.10115502,-7.69257,1.9853917,-1.6309985,-9.463724,1.98699891419804797747.00,-0.17896658,-7.091027,1.6334441,-1.5784506,-9.452647,2.0799851419804797748.00,-0.28311434,-6.601413,1.3617022,-1.555309,-9.4378195,2.16309431419804797764.00,-0.6171055,-6.296152,1.299453,-1.5597792,-9.421951,2.22807461419804797766.00,-1.122282,-6.1477113,1.4425066,-1.5859982,-9.407686,2.26945951419804797783.00,-1.4263457,-5.9244523,1.6089035,-1.6203619,-9.394457,2.29978561419804797784.00,-1.5532384,-5.837064,1.4927847,-1.6654446,-9.384904,2.30656861419804797796.00,-1.6783354,-5.8843493,1.4401124,-1.7176551,-9.379186,2.29149651419804797812.00,-1.7651252,-6.027403,1.5346833,-1.777838,-9.375817,2.2591411419804797816.00,-1.7705121,-6.171055,1.3551182,-1.8427223,-9.373223,2.21753431419804797830.00,-1.7914615,-6.3326635,0.7290344,-1.907406,-9.370506,2.17389631419804797844.00,-1.6741456,-6.659472,0.31902736,-1.9670831,-9.3681135,2.13058971419804797845.00,-1.584363,-7.2939353,0.02813187,-2.0212455,-9.366491,2.0865731419804797862.00,-1.6316484,-8.274361,-0.41000703,-2.0597854,-9.368362,2.03996521419804797864.00,-1.8483237,-9.585187,-1.0097545,-2.0758915,-9.376643,1.98484871419804797879.00,-2.284667,-11.153389,-1.4933833,-2.0669775,-9.392972,1.91574131419804797885.00,-2.4223335,-12.58991,-1.471237,-2.0376608,-9.417041,1.82693281419804797897.00,-2.4636335,-13.818733,-0.9475053,-1.9956434,-9.4461155,1.72007641419804797912.00,-2.5821466,-14.6920185,-0.39085343,-1.950554,-9.475089,1.60885881419804797916.00,-2.622848,-15.057135,0.02633622,-1.9069211,-9.501853,1.49960371419804797932.00,-2.6713305,-14.804546,0.7906851,-1.8683357,-9.523494,1.40811531419804797944.00,-2.397793,-13.810354,1.3724761,-1.8406761,-9.537104,1.35128751419804797945.00,-1.87047,-12.242152,0.06823475,-1.8244606,-9.542931,1.33199681419804797962.00,-1.9572599,-11.319786,-1.4580688,-1.8165935,-9.544566,1.33103531419804797964.00,-2.7940333,-12.023681,-1.5825673,-1.8135605,-9.544554,1.33525031419804797980.00,-3.4674027,-15.941194,1.9093759,-1.8166587,-9.544033,1.33474991419804798006.00,-4.152743,-17.869722,4.944625,-1.8201971,-9.5414,1.34868371419804798008.00,-5.228338,-17.463306,8.461109,-1.8358661,-9.53372,1.38136531419804798009.00,-6.537368,-14.768633,5.1846437,-1.8783927,-9.513873,1.45885471419804798016.00,-6.2045736,-10.868479,0.27473465,-1.959237,-9.490875,1.50168731419804798038.00,-4.435259,-7.4256167,0.21787235,-2.062482,-9.462486,1.54205081419804798039.00,-3.1609447,-5.685032,3.1010897,-2.172543,-9.428235,1.5996331419804798044.00,-2.4253263,-5.0559554,6.1764417,-2.2910147,-9.383685,1.69354521419804798066.00,-2.336741,-5.121796,6.88752,-2.3969157,-9.340715,1.7821931419804798066.00,-2.7048495,-6.225523,6.057929,-2.4610112,-9.308924,1.859511419804798084.00,-2.6366146,-7.2430587,6.165668,-2.4904456,-9.286949,1.92889681419804798098.00,-2.3600843,-7.7919292,6.5499372,-2.507248,-9.266905,2.00213861419804798099.00,-2.349909,-8.428787,6.3482256,-2.525642,-9.247789,2.06638071419804798116.00,-2.7688942,-9.0716305,5.9837084,-2.545953,-9.230586,2.11773661419804798117.00,-3.3183637,-9.592968,5.4701524,-2.5663388,-9.216679,2.1534031419804798129.00,-3.7936125,-9.859323,4.481347,-2.5827653,-9.204511,2.18556761419804798143.00,-3.940856,-9.746197,3.2495303,-2.5968978,-9.193553,2.21474271419804798144.00,-3.7379475,-9.487024,2.6150668,-2.6118946,-9.183422,2.23900441419804798160.00,-3.4105403,-9.291897,2.7754784,-2.6277924,-9.173962,2.2590991419804798165.00,-3.1358056,-9.136872,3.1812954,-2.6413224,-9.165244,2.2786181419804798177.00,-2.6024973,-8.759786,3.3141737,-2.6516807,-9.159466,2.28979851419804798195.00,-2.3439236,-8.301296,3.0974984,-2.6507328,-9.159329,2.29144551419804798196.00,-2.0901382,-7.6231384,2.7623103,-2.6392727,-9.165096,2.28158741419804798217.00,-1.9452889,-6.904279,2.4361002,-2.6214955,-9.176707,2.25525281419804798217.00,-1.9237411,-6.3182983,2.1452048,-2.601651,-9.193571,2.20908211419804798236.00,-1.8393455,-5.8400564,2.0290859,-2.5821068,-9.214218,2.14506361419804798237.00,-1.6514006,-5.5862713,2.0937295,-2.5653508,-9.235773,2.07119061419804798245.00,-1.5478514,-5.455787,2.146402,-2.544205,-9.258609,1.99388221419804798265.00,-1.1007342,-5.346851,2.1523874,-2.5215306,-9.280999,1.91711461419804798266.00,-0.66498953,-5.4605756,2.0231004,-2.49497,-9.30182,1.84977451419804798281.00,-0.5189432,-5.849035,1.757344,-2.4625294,-9.320452,1.79875041419804798304.00,-0.50038815,-6.2967505,1.3317747,-2.4243238,-9.3373575,1.76261091419804798305.00,-0.44532153,-6.6828156,0.47644615,-2.3821158,-9.354098,1.73111471419804798306.00,-0.39444473,-7.149685,-0.58298814,-2.3363516,-9.371852,1.69713741419804798340.00,-0.45549688,-7.7230964,-1.3132197,-2.2887874,-9.391593,1.65221871419804798341.00,-0.6973112,-8.358757,-1.5334862,-2.240143,-9.413316,1.5942561419804798342.00,-0.7098808,-8.895058,-1.0869676,-2.1900344,-9.4368305,1.52327781419804798345.00,-0.623091,-9.35235,-0.31064767,-2.1368732,-9.461501,1.44366771419804798363.00,-0.6811504,-9.8276,-0.062249243,-2.082229,-9.485404,1.3644931419804798366.00,-0.521936,-10.131663,-0.6302736,-2.0260365,-9.507981,1.28989521419804798378.00,-0.30406362,-10.441712,-1.4526819,-1.9744252,-9.528696,1.21491041419804798406.00,-0.08259996,-10.8469305,-1.745373,-1.9296131,-9.546489,1.1452231419804798407.00,0.008379706,-11.162367,-0.700304,-1.8945781,-9.560388,1.08625411419804798409.00,-0.4405331,-11.304223,0.41359833,-1.8704064,-9.569017,1.0516011419804798417.00,-0.9792285,-11.5155115,0.18614918,-1.8626068,-9.570766,1.04954181419804798440.00,-1.1785458,-11.900978,-0.75118077,-1.86373,-9.569302,1.0608351419804798441.00,-1.1761516,-12.3115835,-1.4790181,-1.8771588,-9.564528,1.08003571419804798445.00,-1.0875661,-12.726379,-1.797447,-1.897534,-9.559054,1.09282621419804798463.00,-0.98940384,-13.205818,-1.702876,-1.919569,-9.5553465,1.08674751419804798465.00,-0.9768343,-13.687651,-1.4221559,-1.93557,-9.554996,1.06112871419804798478.00,-0.84335756,-13.794193,-1.1186907,-1.939448,-9.55838,1.02289521419804798506.00,-0.5410896,-13.546393,-0.45310268,-1.928388,-9.564753,0.98347331419804798507.00,-0.20530279,-13.310564,0.83617496,-1.9085821,-9.571575,0.95532711419804798508.00,-0.26276365,-13.6331835,2.0392613,-1.8775465,-9.578586,0.94652041419804798517.00,-0.44472298,-14.333487,2.3481133,-1.8376793,-9.584987,0.959869741419804798538.00,-0.5494693,-14.997279,2.4013844,-1.7885966,-9.591337,0.98872671419804798539.00,-0.50517654,-15.195998,2.6821043,-1.7298601,-9.59826,1.02538291419804798546.00,-0.51834464,-14.441226,3.2076318,-1.6629624,-9.606636,1.05712041419804798562.00,-0.7170634,-12.713211,3.8295257,-1.5972301,-9.614827,1.08367651419804798565.00,-1.3180081,-10.649409,3.9875429,-1.5323498,-9.624185,1.09425271419804798581.00,-2.504335,-9.394848,3.127426,-1.4764678,-9.6333065,1.09079731419804798602.00,-4.0276456,-9.021951,2.0057425,-1.4378535,-9.640256,1.080941419804798603.00,-4.705205,-8.920197,1.6753427,-1.422088,-9.643381,1.0739021419804798606.00,-4.9338512,-9.313444,1.5969325,-1.4284289,-9.642884,1.06994451419804798635.00,-5.3300915,-9.958083,1.8387469,-1.4636654,-9.638204,1.06448891419804798636.00,-5.4049106,-10.405201,2.058415,-1.5155709,-9.630129,1.06493461419804798637.00,-5.4982843,-10.723031,1.9991584,-1.5903426,-9.616816,1.07613581419804798645.00,-5.1768627,-10.627861,1.9375077,-1.6768337,-9.599494,1.09924281419804798660.00,-4.8584337,-10.353127,1.3850456,-1.7642809,-9.579918,1.13265091419804798666.00,-4.158728,-9.77373,0.9744401,-1.8457603,-9.560073,1.16985211419804798679.00,-2.9682117,-9.578004,0.7721301,-1.9085847,-9.542751,1.20977711419804798703.00,-1.4796166,-9.6845455,0.66498953,-1.9540958,-9.528443,1.24926731419804798704.00,-0.480636,-9.631275,1.2563573,-1.9648333,-9.519642,1.29855281419804798706.00,0.012569559,-9.540894,2.4917655,-1.9420445,-9.514916,1.36573891419804798741.00,0.19033903,-9.335591,3.433884,-1.8904583,-9.512472,1.45238881419804798743.00,0.25079262,-8.893861,3.4913447,-1.816025,-9.510721,1.55519091419804798744.00,0.17597382,-8.377312,2.8634653,-1.7282188,-9.507276,1.67193081419804798746.00,-0.14963761,-7.9266033,2.3133974,-1.640983,-9.499792,1.79763571419804798777.00,-0.32441434,-7.331644,2.1918917,-1.5627,-9.488769,1.9213651419804798778.00,-0.45130703,-6.4308257,2.581548,-1.5021777,-9.472473,2.04599861419804798780.00,-0.97384155,-5.922058,2.6150668,-1.4700658,-9.451859,2.1613991419804798801.00,-1.3754689,-5.7005944,2.203264,-1.469818,-9.430236,2.25403711419804798803.00,-1.4526819,-5.6604915,1.7753005,-1.4929283,-9.411869,2.31479261419804798806.00,-1.5981296,-5.932832,1.5771804,-1.5311543,-9.398956,2.34212951419804798835.00,-1.7471687,-6.2458735,1.4574703,-1.5765275,-9.388896,2.35235521419804798837.00,-1.7717092,-6.4122705,1.2276269,-1.630252,-9.38457,2.33291771419804798838.00,-1.8896236,-6.477513,0.9768343,-1.6884681,-9.38516,2.28872011419804798846.00,-2.0296845,-6.420052,0.7577648,-1.7515473,-9.38816,2.22821861419804798884.00,-2.1176715,-6.3643866,0.4973954,-1.81806,-9.391323,2.1605831419804798886.00,-2.1709423,-6.423643,0.18974048,-1.8848628,-9.393604,2.09233641419804798887.00,-2.1691468,-6.6840124,-0.18854338,-1.9468703,-9.39568,2.02515631419804798909.00,-2.1033063,-7.1305313,-0.5243302,-2.0041223,-9.397159,1.9614531419804798910.00,-1.9405005,-7.7350674,-0.7733272,-2.0471723,-9.4006,1.8995221419804798911.00,-1.8608932,-8.665215,-1.043872,-2.068748,-9.408345,1.83676561419804798933.00,-1.9476831,-9.824008,-1.2366052,-2.0647244,-9.421762,1.77135381419804798935.00,-1.9015948,-11.000758,-1.074398,-2.0359023,-9.440827,1.70184341419804798956.00,-1.8513165,-12.145785,-0.4914099,-1.9878991,-9.463938,1.62865871419804798958.00,-1.7256209,-13.224373,0.4333505,-1.9318788,-9.487653,1.55649151419804798959.00,-1.8171991,-14.202404,1.0618285,-1.8689351,-9.511343,1.48722161419804798988.00,-1.8986019,-14.848839,1.5089456,-1.8049515,-9.53308,1.42579571419804798988.00,-2.1775265,-14.812327,1.7363948,-1.745435,-9.550372,1.38356451419804798989.00,-2.1320367,-13.958196,0.7882909,-1.7006288,-9.560719,1.36781491419804798997.00,-1.7872716,-12.542026,-1.1360487,-1.6741648,-9.565537,1.36677381419804799013.00,-2.110489,-11.930905,-2.2643163,-1.6647476,-9.568485,1.35760561419804799027.00,-2.8766334,-12.945449,-2.0332758,-1.6672125,-9.568782,1.3524891419804799028.00,-3.0933087,-14.496891,-0.5009867,-1.6783143,-9.568565,1.34021961419804799053.00,-3.4272997,-16.03756,1.3551182,-1.688976,-9.569907,1.31704771419804799054.00,-4.0533834,-17.52017,4.6537294,-1.705331,-9.571113,1.28687061419804799057.00,-5.1942205,-17.075447,9.0842,-1.7347485,-9.565521,1.28913031419804799083.00,-6.754043,-14.781801,6.371569,-1.7940216,-9.542278,1.37723881419804799084.00,-6.10701,-11.017518,0.16938977,-1.8872131,-9.515356,1.43764951419804799086.00,-3.8187518,-7.401076,-0.6877344,-1.994823,-9.483991,1.49832431419804799097.00,-2.0572178,-5.317522,1.9309237,-2.1131444,-9.442646,1.59419751419804799119.00,-1.7980455,-4.677073,5.231331,-2.2229745,-9.400781,1.68941591419804799120.00,-1.5340848,-4.549582,6.6882024,-2.290167,-9.367031,1.78444921419804799126.00,-1.83336,-5.3737855,5.985504,-2.3092887,-9.342617,1.88496831419804799161.00,-2.2050598,-6.719327,5.4264584,-2.3083117,-9.323468,1.97863821419804799162.00,-2.2337902,-7.755418,5.823297,-2.3094707,-9.306503,2.0556571419804799164.00,-2.2158337,-8.656835,6.1985884,-2.3109994,-9.292855,2.11483071419804799189.00,-2.4139538,-9.631275,6.090849,-2.3156993,-9.283668,2.1497571419804799190.00,-3.1836896,-10.457873,5.9280434,-2.317589,-9.278095,2.17166781419804799190.00,-3.928885,-10.779295,5.0942626,-2.3203547,-9.272295,2.19337581419804799197.00,-4.0958805,-10.535086,3.8456864,-2.331617,-9.26471,2.21339251419804799213.00,-3.8804023,-10.120291,3.1268275,-2.3502202,-9.257417,2.22420221419804799227.00,-3.5823243,-9.651027,3.093907,-2.3769002,-9.248195,2.2342021419804799228.00,-3.1292217,-9.174581,3.4542346,-2.4049242,-9.239319,2.24091721419804799243.00,-2.7922378,-8.638878,3.6463692,-2.4226725,-9.234317,2.24242351419804799246.00,-2.6018987,-8.06427,3.3159695,-2.4278233,-9.234736,2.23511171419804799258.00,-2.6402059,-7.4681134,2.5737667,-2.4239717,-9.240585,2.2150251419804799275.00,-2.4199393,-6.859388,1.887828,-2.4163532,-9.250308,2.182531419804799277.00,-2.03567,-6.3446345,1.447295,-2.406892,-9.263535,2.13639741419804799302.00,-1.8363527,-6.033388,1.5239093,-2.3947406,-9.281148,2.07265161419804799303.00,-1.6089035,-5.7999535,1.9422961,-2.3803794,-9.302202,1.99329161419804799307.00,-1.3377602,-5.6443305,2.3145945,-2.361495,-9.325486,1.90500371419804799333.00,-0.961272,-5.5707088,2.4654293,-2.336991,-9.348552,1.82028471419804799335.00,-0.6769605,-5.7041855,2.296638,-2.306181,-9.369211,1.75208371419804799337.00,-0.5943606,-6.0585275,1.9758149,-2.2699707,-9.388208,1.69681481419804799346.00,-0.55485624,-6.3584013,1.5011644,-2.2305946,-9.404153,1.66034761419804799358.00,-0.4818331,-6.621165,0.7212533,-2.189094,-9.418267,1.63539531419804799380.00,-0.43035775,-6.996456,-0.16460137,-2.14769,-9.432208,1.60974121419804799381.00,-0.46507367,-7.3747396,-0.7020996,-2.1063647,-9.447485,1.57436971419804799403.00,-0.61650693,-7.7266874,-0.7140707,-2.0644126,-9.464916,1.5244481419804799405.00,-0.6607997,-8.094796,-0.45789108,-2.0221052,-9.483054,1.46736921419804799406.00,-0.76195467,-8.573636,-0.108337626,-1.9785395,-9.502344,1.40043681419804799432.00,-0.7703344,-9.068039,-0.26635495,-1.9360117,-9.521013,1.33137111419804799433.00,-0.6344634,-9.63726,-1.1282675,-1.8981823,-9.537918,1.2630991419804799437.00,-0.24959552,-10.274716,-2.3481133,-1.8691087,-9.552339,1.19567931419804799462.00,0.11372458,-10.814011,-2.2122424,-1.8488544,-9.564577,1.12739631419804799463.00,0.079008654,-11.174936,-0.41359833,-1.8385174,-9.572331,1.07735421419804799480.00,-0.33518824,-11.293449,0.8230068,-1.8316952,-9.575435,1.06128861419804799481.00,-0.7278373,-11.567586,0.41359833,-1.839302,-9.5713825,1.08443391419804799510.00,-0.93493575,-12.6300125,-1.151611,-1.8548548,-9.563696,1.12500741419804799511.00,-0.7284359,-13.1794815,-1.429937,-1.8750148,-9.556867,1.1493491419804799512.00,-0.50517654,-13.649942,-1.3599066,-1.8934275,-9.552172,1.1581711419804799531.00,-0.5069722,-14.045585,-1.0289081,-1.9041114,-9.551117,1.14931361419804799532.00,-0.61052144,-14.038402,-0.51235914,-1.9060631,-9.553377,1.12708311419804799538.00,-0.6835446,-13.775638,0.40521863,-1.9024686,-9.556298,1.10823711419804799546.00,-0.5602432,-13.5218525,1.6250644,-1.8908179,-9.560384,1.09281681419804799559.00,-0.38486794,-13.811551,2.2266076,-1.8684862,-9.564655,1.09386671419804799575.00,-0.40462008,-14.382568,2.1493945,-1.8348151,-9.569406,1.10919581419804799579.00,-0.3561375,-14.983513,2.0949266,-1.7907307,-9.574739,1.13492061419804799595.00,-0.13706805,-15.105618,2.1990743,-1.7330118,-9.581665,1.16565321419804799611.00,-0.079008654,-14.420876,2.5761611,-1.6679435,-9.589899,1.19255241419804799612.00,-0.4225766,-12.694057,3.0693667,-1.5908959,-9.601131,1.20736481419804799626.00,-1.3628993,-10.857106,3.0370448,-1.5122836,-9.6144,1.20279441419804799627.00,-2.6683378,-9.652225,2.3116016,-1.4412855,-9.627886,1.18190941419804799647.00,-4.0282445,-9.196129,1.417966,-1.386187,-9.639026,1.15675511419804799647.00,-5.019444,-9.23264,1.2431892,-1.3537469,-9.646171,1.13540481419804799661.00,-5.2516813,-9.476849,1.6579847,-1.3395029,-9.650441,1.11583891419804799676.00,-5.3713913,-9.799467,2.3157916,-1.3531264,-9.65047,1.09904551419804799678.00,-5.5485625,-9.965864,2.8724434,-1.4028473,-9.644775,1.08661481419804799693.00,-5.3899465,-9.93474,2.855684,-1.4867116,-9.631459,1.09319951419804799709.00,-5.006874,-9.689933,2.2427685,-1.5884593,-9.611147,1.12828681419804799709.00,-4.414908,-9.231443,1.520318,-1.6957968,-9.584994,1.1927161419804799724.00,-4.022857,-8.7951,0.83617496,-1.7960868,-9.55538,1.28031341419804799726.00,-2.9765913,-8.959702,0.7350199,-1.8865105,-9.525545,1.36947931419804799742.00,-1.5526398,-9.096769,1.2844892,-1.940855,-9.501529,1.45753341419804799758.00,-0.59136784,-9.264962,2.19249,-1.9486601,-9.487555,1.53603651419804799760.00,-0.42317516,-9.36073,3.269881,-1.9200273,-9.480702,1.61250011419804799775.00,-0.32680854,-9.341577,3.9151182,-1.8652514,-9.477185,1.69534711419804799778.00,-0.18854338,-9.184756,3.733159,-1.7884535,-9.476273,1.78103711419804799792.00,-0.20410569,-8.8806925,3.080739,-1.7053257,-9.475528,1.86457461419804799808.00,-0.22864626,-8.27077,2.5558102,-1.6247354,-9.472386,1.950521419804799809.00,-0.41958386,-7.422025,2.112883,-1.5591803,-9.463287,2.0458591419804799825.00,-0.75118077,-6.724714,1.8866309,-1.5169703,-9.448201,2.14492061419804799826.00,-1.1300632,-6.3111157,1.785476,-1.5036993,-9.429386,2.2351681419804799842.00,-1.4772224,-6.130952,1.6621746,-1.5182226,-9.409873,2.3064471419804799846.00,-1.75076,-6.1141925,1.5304934,-1.5521672,-9.39205,2.3559661419804799858.00,-1.9261353,-6.161478,1.4760253,-1.5905297,-9.375727,2.3950671419804799873.00,-1.8740613,-6.131551,1.2413936,-1.6379079,-9.364418,2.40734721419804799877.00,-1.927931,-6.201581,0.94331545,-1.6901337,-9.359582,2.38998961419804799899.00,-2.019509,-6.2704144,0.93972415,-1.74952,-9.359711,2.34635421419804799900.00,-2.0111294,-6.269217,0.92535895,-1.8142698,-9.361869,2.28784041419804799906.00,-1.9859903,-6.3206925,0.581791,-1.8781285,-9.364573,2.2243651419804799929.00,-1.8686744,-6.4846954,0.18614918,-1.9382802,-9.367066,2.16137121419804799930.00,-1.6310499,-6.716933,-0.08559271,-1.9894311,-9.369554,2.10333441419804799945.00,-1.3634979,-7.241263,-0.26755205,-2.0263205,-9.372777,2.05316261419804799946.00,-1.2042835,-8.075643,-0.51834464,-2.0459912,-9.378127,2.00874691419804799964.00,-1.3395559,-9.223063,-0.6775591,-2.044644,-9.387019,1.96816591419804799966.00,-1.5251064,-10.588956,-0.5758055,-2.0212867,-9.4005,1.92753461419804799977.00,-1.54845,-12.054207,-0.31304187,-1.9799496,-9.418573,1.88166981419804799999.00,-1.5574282,-13.4661875,0.06943185,-1.9297234,-9.439191,1.82982741419804800000.00,-1.6801311,-14.726735,0.521936,-1.8702465,-9.462988,1.76760511419804800006.00,-1.7968484,-15.5994215,1.2258313,-1.8077093,-9.4877405,1.69864341419804800035.00,-1.9309237,-15.643115,2.011728,-1.7469887,-9.50992,1.63703511419804800036.00,-1.6897079,-14.661492,1.1013328,-1.6951097,-9.525977,1.59773421419804800038.00,-1.2318168,-12.894572,-1.0827777,-1.6558272,-9.537126,1.5722111419804800066.00,-1.4574703,-11.868058,-2.267309,-1.626432,-9.5472145,1.54136751419804800067.00,-2.408567,-12.451046,-2.2158337,-1.6139895,-9.551166,1.52991941419804800068.00,-2.8054059,-13.912706,-0.40342298,-1.6154046,-9.552436,1.520471419804800081.00,-3.3913867,-15.55034,2.1242554,-1.616982,-9.554812,1.5037651419804800102.00,-4.7602715,-16.940174,6.0758853,-1.624925,-9.557473,1.47808991419804800104.00,-6.67683,-16.79293,10.220847,-1.6554227,-9.552041,1.47934831419804800109.00,-8.526351,-14.686033,6.6684504,-1.7273949,-9.527563,1.55307381419804800149.00,-8.421006,-11.102511,0.96187055,-1.836785,-9.502313,1.58197871419804800150.00,-5.940613,-7.3807254,0.3321955,-1.9677938,-9.470578,1.61442321419804800151.00,-3.709217,-5.2564697,2.5115175,-2.1088266,-9.4264765,1.69257341419804800151.00,-2.8526914,-4.699219,5.3899465,-2.2509055,-9.379148,1.77070591419804800158.00,-2.4157495,-4.6525326,6.621165,-2.3625863,-9.33803,1.84113791419804800177.00,-2.8592753,-5.5868697,6.033388,-2.4283597,-9.306597,1.9133031419804800178.00,-2.9173348,-6.5152216,5.9322333,-2.4792266,-9.278441,1.98351981419804800193.00,-2.5719712,-7.0712748,6.130952,-2.5172293,-9.252568,2.05522131419804800214.00,-2.2272062,-7.7350674,6.033987,-2.5508814,-9.22875,2.1198061419804800215.00,-2.3810337,-8.6257105,5.8963203,-2.57975,-9.210049,2.16570571419804800218.00,-3.2010477,-9.531317,5.4737434,-2.5986075,-9.196425,2.20076421419804800227.00,-3.8385038,-10.048465,4.3035774,-2.6078098,-9.186012,2.23313931419804800254.00,-3.8552632,-9.932345,2.932897,-2.6121404,-9.177625,2.26236991419804800255.00,-3.4105403,-9.502586,2.4139538,-2.6174068,-9.170804,2.2838381419804800259.00,-3.063381,-9.17099,2.7730842,-2.6253076,-9.163032,2.30586391419804800286.00,-2.8101943,-8.8806925,3.445855,-2.6353354,-9.155217,2.32538151419804800287.00,-2.4067712,-8.489241,3.8911762,-2.6384587,-9.150166,2.34166811419804800288.00,-2.0949266,-8.038532,3.767875,-2.6286013,-9.149735,2.35439941419804800314.00,-1.9680338,-7.467515,3.0550013,-2.6096225,-9.1546955,2.35623241419804800314.00,-1.8938135,-6.849811,2.195483,-2.5920527,-9.162994,2.34332781419804800318.00,-1.7699136,-6.325481,1.6831238,-2.5716965,-9.176524,2.31261061419804800327.00,-1.447295,-5.823297,1.6011224,-2.5545223,-9.194033,2.2615471419804800352.00,-1.3383588,-5.5551467,1.7902644,-2.539556,-9.214369,2.19464541419804800353.00,-1.3096284,-5.645528,1.9566613,-2.5233753,-9.236299,2.1198521419804800358.00,-1.0534488,-5.773019,2.0380642,-2.502029,-9.2580385,2.0491361419804800377.00,-0.80445176,-5.9567738,1.9381063,-2.4747663,-9.277641,1.99281231419804800378.00,-0.6488287,-6.3033347,1.4754268,-2.441774,-9.296063,1.94713161419804800393.00,-0.4782418,-6.6750345,0.82001406,-2.4041002,-9.313659,1.90957341419804800408.00,-0.29987377,-6.9701195,0.108936176,-2.3601282,-9.332869,1.8702221419804800409.00,-0.34955344,-7.4004774,-0.80325466,-2.3132095,-9.355266,1.81616011419804800427.00,-0.3728969,-7.9188223,-1.264737,-2.2647913,-9.381084,1.74251821419804800428.00,-0.31483752,-8.487445,-1.2395979,-2.2124145,-9.409496,1.65439191419804800447.00,-0.32441434,-9.122507,-1.0462662,-2.155345,-9.438441,1.56227181419804800448.00,-0.35254622,-9.697116,-0.75596917,-2.0932047,-9.468163,1.46382581419804800458.00,-0.25079262,-10.186729,-0.6536171,-2.0273168,-9.49725,1.36478591419804800475.00,-0.10354923,-10.538677,-0.801459,-1.9607801,-9.524466,1.2689641419804800510.00,0.23582886,-11.006743,-1.3437457,-1.8970214,-9.548747,1.18029821419804800511.00,0.46507367,-11.626842,-1.276708,-1.83609,-9.570477,1.09778151419804800512.00,0.3238158,-11.787253,0.39444473,-1.7817482,-9.58782,1.03414751419804800513.00,-0.32621,-11.789648,1.0336965,-1.7340243,-9.599742,1.00423871419804800545.00,-0.7858967,-11.939884,-5.99E-04,-1.7112492,-9.602509,1.0167941419804800548.00,-0.9516952,-12.264298,-1.1079168,-1.7096068,-9.599136,1.05082861419804800549.00,-0.9163807,-12.65575,-1.8064252,-1.7238858,-9.593572,1.07795661419804800550.00,-0.7727286,-12.967595,-1.9602526,-1.7470559,-9.589192,1.07961191419804800559.00,-0.7811083,-13.325528,-1.6663644,-1.7671479,-9.588332,1.05427031419804800586.00,-0.88166475,-13.573328,-1.3623008,-1.7802953,-9.589402,1.02191351419804800587.00,-0.81043726,-13.481152,-0.85173726,-1.7807071,-9.594329,0.973824861419804800588.00,-0.6147113,-13.219584,0.31603462,-1.7657267,-9.601637,0.92800391419804800617.00,-0.6464345,-13.405135,1.4999673,-1.7386271,-9.609131,0.901212631419804800619.00,-0.6703765,-14.09287,1.7860745,-1.7021558,-9.615829,0.89939361419804800620.00,-0.6697779,-14.797962,1.839944,-1.6548157,-9.622404,0.91724551419804800627.00,-0.48123455,-15.084668,2.2529438,-1.5974834,-9.629548,0.94352151419804800650.00,-0.4878186,-14.510658,2.9909565,-1.5358117,-9.637033,0.969158351419804800651.00,-0.7954735,-12.835914,3.691859,-1.4677509,-9.645617,0.98903121419804800660.00,-1.4161704,-10.712257,3.781043,-1.4012822,-9.654762,0.996178451419804800677.00,-3.0101101,-9.487623,2.7682958,-1.3456162,-9.66286,0.99440941419804800695.00,-4.4663835,-9.130887,1.6837224,-1.3128335,-9.667775,0.99045891419804800695.00,-5.072715,-9.457695,1.3192052,-1.3066618,-9.668909,0.98753751419804800698.00,-5.117606,-10.020332,1.7860745,-1.318819,-9.667691,0.98328921419804800707.00,-5.2516813,-10.605715,2.5647886,-1.3656571,-9.661031,0.98480921419804800724.00,-5.489306,-11.250953,2.8281507,-1.443545,-9.647662,1.00458651419804800727.00,-5.4527946,-11.501745,2.367267,-1.5383385,-9.628384,1.04792741419804800750.00,-5.026028,-11.292253,1.5783775,-1.6363013,-9.605581,1.10710791419804800751.00,-4.7279496,-10.85531,0.7308301,-1.7292782,-9.581618,1.17157481419804800759.00,-3.9205053,-9.8683,0.45250413,-1.8099747,-9.559402,1.22972241419804800793.00,-2.7180176,-9.302073,0.85293436,-1.8756303,-9.538731,1.29036311419804800794.00,-1.5879543,-9.144653,1.3754689,-1.9094048,-9.523062,1.35493671419804800794.00,-0.7086837,-8.86932,2.3403323,-1.9096254,-9.512856,1.42454041419804800812.00,-0.58119243,-8.739435,3.5763388,-1.8803076,-9.505991,1.50697611419804800813.00,-0.5554548,-8.485649,4.1814733,-1.8322762,-9.499292,1.60517781419804800819.00,-0.49081135,-7.9595237,3.7223852,-1.7762642,-9.490448,1.71658481419804800853.00,-0.6823475,-7.3190746,2.896984,-1.7226114,-9.47924,1.8294891419804800854.00,-0.88405895,-6.491878,2.4181437,-1.6823707,-9.462253,1.95084981419804800855.00,-1.1617863,-5.762245,2.2379801,-1.66474,-9.439213,2.07371381419804800859.00,-1.5622166,-5.341464,2.2774844,-1.6714605,-9.412563,2.18638351419804800879.00,-1.6609775,-5.080496,2.3343468,-1.6959193,-9.386192,2.278961419804800880.00,-1.5598224,-5.015254,2.2331917,-1.7303289,-9.363519,2.34539441419804800888.00,-1.6065093,-5.3402667,1.8938135,-1.7716069,-9.342367,2.39832761419804800912.00,-1.8369513,-5.8322754,1.5298948,-1.8156163,-9.328163,2.42060281419804800913.00,-1.869273,-6.0920463,1.13964,-1.8638667,-9.32046,2.41359641419804800919.00,-1.8902222,-6.2554507,0.6560113,-1.9147102,-9.318586,2.38080741419804800953.00,-1.9716251,-6.3482256,0.31543607,-1.968666,-9.321139,2.32617741419804800955.00,-2.0697873,-6.4182563,0.10295067,-2.0248153,-9.326504,2.25540141419804800957.00,-2.1721394,-6.554127,0.039504327,-2.0800478,-9.332938,2.1771721419804800962.00,-2.2176294,-6.813898,0.008379706,-2.13292,-9.338863,2.09920671419804800982.00,-2.094328,-7.1826053,-0.088585466,-2.17716,-9.344814,2.02603321419804800983.00,-2.1045034,-7.865551,-0.24839842,-2.2061455,-9.351864,1.96111371419804800988.00,-2.3050177,-9.021951,-0.4961983,-2.2156405,-9.36155,1.90334391419804801008.00,-2.2691047,-10.388441,-0.6488287,-2.2039678,-9.37533,1.84827641419804801009.00,-1.9578584,-11.707047,-0.6410475,-2.1718292,-9.393644,1.79248431419804801023.00,-1.5502456,-14.296975,0.11911154,-2.1231565,-9.415771,1.73375131419804801044.00,-1.7471687,-15.465944,0.736217,-2.0588827,-9.440701,1.6746851419804801045.00,-2.1296425,-15.995063,1.6124948,-1.9868405,-9.4653,1.62202311419804801048.00,-2.3080103,-15.604808,2.0129251,-1.9148309,-9.486131,1.58655641419804801059.00,-1.822586,-13.938444,0.048482586,-1.853222,-9.501289,1.56891491419804801073.00,-1.5011644,-12.21402,-2.2732944,-1.808419,-9.513107,1.54945331419804801115.00,-1.6573862,-11.632229,-2.8173769,-1.786059,-9.519896,1.53361651419804801118.00,-2.111686,-12.382213,-2.5594015,-1.7771207,-9.5236225,1.5208071419804801122.00,-2.247557,-13.582306,-0.85652566,-1.7761251,-9.526073,1.50654911419804801123.00,-2.8880057,-14.903906,1.7106571,-1.7700591,-9.531948,1.47622181419804801125.00,-4.246715,-15.783176,6.338649,-1.7654215,-9.539825,1.43017961419804801152.00,-6.021417,-15.115194,10.594941,-1.7781382,-9.540319,1.41099611419804801153.00,-7.81647,-13.259687,7.5471225,-1.8250916,-9.524314,1.45838421419804801154.00,-7.45734,-9.898229,1.9321208,-1.9146912,-9.504926,1.46994281419804801159.00,-5.216367,-6.7492547,0.9780314,-2.0074742,-9.483016,1.48756551419804801175.00,-3.3075895,-5.2522798,3.1232362,-2.11746,-9.44465,1.57649211419804801195.00,-2.4612393,-4.9021277,6.0483522,-2.2484498,-9.392317,1.7027171419804801197.00,-2.0500352,-5.1002483,7.129933,-2.3690593,-9.337012,1.83797221419804801201.00,-2.544438,-6.451775,6.3685765,-2.4471333,-9.289607,1.97107591419804801207.00,-2.8568811,-7.6883802,6.549339,-2.4935527,-9.250951,2.09105061419804801227.00,-2.6479871,-8.300697,6.968324,-2.5321097,-9.213481,2.20693971419804801228.00,-2.5318682,-8.80767,6.7881603,-2.5570457,-9.181864,2.3076581419804801240.00,-2.7156234,-9.456498,6.1728506,-2.576837,-9.160018,2.37157771419804801271.00,-3.2782607,-10.166978,5.3863554,-2.589903,-9.147079,2.40702061419804801272.00,-3.918111,-10.622475,4.1401734,-2.59333,-9.139846,2.4306881419804801273.00,-4.021062,-10.442909,3.2094274,-2.5929408,-9.135805,2.44624731419804801295.00,-3.8061821,-9.894637,3.0322564,-2.5948403,-9.132927,2.4549631419804801296.00,-3.41473,-9.208099,3.2543187,-2.6018045,-9.128583,2.46373181419804801299.00,-3.1262288,-8.5622635,3.7391446,-2.6139748,-9.123977,2.46790981419804801308.00,-2.6803088,-7.8972745,4.107253,-2.624463,-9.121215,2.46698981419804801328.00,-2.4678235,-7.4327993,3.7343562,-2.6269228,-9.122136,2.46095231419804801329.00,-2.144606,-6.938995,2.908955,-2.6215184,-9.127841,2.44551421419804801339.00,-1.7609353,-6.417658,2.1984756,-2.608531,-9.13828,2.4202911419804801361.00,-1.4383167,-6.0519433,1.7244238,-2.5960166,-9.151228,2.3845591419804801361.00,-1.2671312,-5.9681463,1.6777369,-2.5770564,-9.167837,2.3409261419804801368.00,-1.0911574,-6.022016,1.9440918,-2.5551574,-9.188096,2.28482681419804801401.00,-0.60214174,-5.879561,2.4199393,-2.5266447,-9.211676,2.22069951419804801402.00,-0.3250129,-5.7825956,2.6156654,-2.488436,-9.238054,2.15323541419804801403.00,-0.28550854,-5.847239,2.529474,-2.441981,-9.265308,2.0883451419804801408.00,-0.29328972,-6.0645127,1.9369092,-2.3902578,-9.291952,2.02895981419804801433.00,-0.15023616,-6.357204,1.0390835,-2.333629,-9.31731,1.97795691419804801435.00,-0.073621705,-6.6882024,0.08559271,-2.2730763,-9.341772,1.93257641419804801439.00,-0.15502456,-7.1939774,-1.0013748,-2.2129622,-9.366102,1.88396111419804801461.00,-0.14425065,-7.8505874,-1.4616601,-2.154746,-9.392327,1.81980051419804801464.00,-0.11851298,-8.5538845,-1.1306617,-2.0961595,-9.421301,1.73655521419804801469.00,-0.12090719,-9.157822,-0.6338649,-2.0355084,-9.452038,1.63892161419804801502.00,-0.16519992,-9.64145,-0.2789245,-1.9713839,-9.482233,1.53989661419804801503.00,-0.076614454,-10.062231,-0.30406362,-1.9063954,-9.511404,1.43849051419804801505.00,0.1945289,-10.451289,-0.7422025,-1.8413147,-9.538132,1.34312671419804801510.00,0.39444473,-10.95048,-1.7465701,-1.7800106,-9.561952,1.25341341419804801533.00,0.62249243,-11.501146,-1.9422961,-1.7278008,-9.582787,1.16417121419804801535.00,0.6051345,-11.672332,-0.56084174,-1.6857659,-9.599571,1.0848091419804801540.00,0.013766659,-11.652579,0.2657564,-1.6501068,-9.611765,1.03030051419804801569.00,-0.54527944,-11.824364,-0.14844051,-1.6361376,-9.616084,1.01211431419804801570.00,-0.7835025,-12.190677,-0.6087258,-1.6404718,-9.614215,1.02278611419804801572.00,-0.9151836,-12.488754,-0.90381116,-1.6577468,-9.608918,1.04448271419804801596.00,-1.0283096,-12.826337,-1.1115081,-1.6860502,-9.602577,1.05742351419804801597.00,-1.0749966,-13.129802,-1.1755531,-1.720095,-9.596837,1.05470451419804801600.00,-1.122282,-13.2752495,-1.0001777,-1.7501255,-9.593056,1.03957871419804801610.00,-1.158195,-13.240534,-0.43275195,-1.7736934,-9.590396,1.02407921419804801623.00,-1.0223241,-13.100473,0.7218518,-1.7856647,-9.590138,1.00551091419804801640.00,-0.91937345,-13.205219,2.1637597,-1.78253,-9.591594,0.99715671419804801641.00,-0.6464345,-13.936049,2.6629508,-1.7663083,-9.593359,1.00896841419804801660.00,-0.4902128,-15.070303,2.2439656,-1.7352757,-9.595762,1.03949451419804801660.00,-0.11731588,-15.78557,2.1410148,-1.6896576,-9.599566,1.07878221419804801668.00,0.076015905,-15.556924,2.5785553,-1.6351527,-9.604888,1.11480931419804801688.00,-0.002394202,-14.000094,3.3159695,-1.5675998,-9.612315,1.14735981419804801689.00,-0.5554548,-11.753136,3.7660792,-1.4955311,-9.622099,1.16147141419804801708.00,-1.4969746,-9.931149,3.2908301,-1.4264027,-9.633152,1.15677731419804801709.00,-2.6952724,-9.088988,2.1416135,-1.3680062,-9.6433735,1.14205491419804801725.00,-3.980959,-9.011177,1.3311762,-1.3277524,-9.650722,1.12739781419804801728.00,-4.3221326,-9.173983,1.4407109,-1.3133616,-9.65412,1.11509821419804801741.00,-4.291008,-9.396643,1.9387048,-1.3140459,-9.655231,1.10462711419804801757.00,-4.56275,-9.737218,2.4378958,-1.345273,-9.651334,1.1010911419804801772.00,-4.71957,-9.973047,2.8389246,-1.4083502,-9.640435,1.11756671419804801773.00,-4.365228,-9.916184,2.6060886,-1.4887115,-9.622578,1.16625711419804801788.00,-3.6469676,-9.629479,1.9578584,-1.5727584,-9.599596,1.24280851419804801789.00,-3.1693244,-9.0716305,1.30484,-1.6547172,-9.57277,1.33953771419804801800.00,-2.7281928,-8.416816,1.0803835,-1.7318197,-9.544715,1.43861771419804801821.00,-2.1613655,-8.65025,1.4131776,-1.7898706,-9.518008,1.5408731419804801822.00,-1.2395979,-8.919,1.8752584,-1.8127401,-9.498118,1.63404791419804801839.00,-0.6254852,-9.087193,2.8496985,-1.7929087,-9.486026,1.72371791419804801840.00,-0.53570265,-9.376292,3.965995,-1.7392375,-9.477132,1.82466821419804801853.00,-0.36631286,-9.237429,4.5160627,-1.6642668,-9.467737,1.93972921419804801869.00,-0.41299978,-8.655638,4.2251673,-1.5820924,-9.455948,2.0621381419804801869.00,-0.80205756,-7.887099,3.4213142,-1.5065683,-9.441472,2.18157171419804801885.00,-1.1851299,-7.179612,2.6844985,-1.4524794,-9.422111,2.29881121419804801888.00,-1.6537948,-6.701969,2.3678656,-1.4288237,-9.398583,2.40738151419804801909.00,-2.0135236,-6.4565635,2.284667,-1.43651,-9.373358,2.49939581419804801928.00,-2.3588872,-6.4308257,2.143409,-1.4680992,-9.349941,2.56781481419804801928.00,-2.3546975,-6.5481415,1.8387469,-1.5128,-9.331968,2.6069521419804801929.00,-2.3002293,-6.6385226,1.460463,-1.5584724,-9.318156,2.62935421419804801940.00,-2.3247697,-6.567894,0.7577648,-1.6084763,-9.313734,2.6148721419804801960.00,-2.3558946,-6.4547677,0.36511576,-1.6632024,-9.31814,2.56445311419804801961.00,-2.3918076,-6.3721676,0.41299978,-1.7240058,-9.328391,2.48582031419804801969.00,-2.3439236,-6.199785,0.415394,-1.7897134,-9.341133,2.38967231419804801998.00,-2.273893,-6.039374,0.12928689,-1.8539311,-9.353628,2.28975061419804802000.00,-2.1068976,-6.0124393,-0.18375498,-1.9106522,-9.364516,2.19673851419804802002.00,-1.8291701,-6.137536,-0.22864626,-1.961374,-9.374033,2.10971431419804802028.00,-1.46585,-6.4499793,-0.10594343,-1.9995962,-9.382132,2.0365611419804802029.00,-0.99179804,-7.016208,-0.20350714,-2.0199182,-9.39,1.97944751419804802030.00,-0.6757634,-7.937976,-0.30406362,-2.0179987,-9.399718,1.93477861419804802041.00,-0.78170687,-9.44333,-0.2184709,-1.9922864,-9.412925,1.89685771419804802059.00,-1.0755951,-11.225215,-0.0724246,-1.9448963,-9.430865,1.8564931419804802060.00,-1.2084733,-12.997522,0.094570965,-1.8878505,-9.451682,1.80891031419804802068.00,-1.079785,-14.573505,0.427365,-1.8171757,-9.476908,1.74829041419804802095.00,-1.0672154,-15.826272,0.8002619,-1.7389714,-9.504341,1.67746771419804802098.00,-1.3533225,-16.567278,1.1133038,-1.6595334,-9.531019,1.6050051419804802102.00,-1.407192,-16.344017,1.2773066,-1.5877751,-9.553144,1.5449291419804802135.00,-0.7703344,-14.867992,-0.12270284,-1.5292408,-9.568297,1.50980371419804802136.00,-0.25079262,-13.078327,-2.058415,-1.4859996,-9.578355,1.48906371419804802137.00,-0.19393034,-12.334928,-2.6982653,-1.4530264,-9.587162,1.4647331419804802141.00,-0.62847793,-12.782044,-2.405574,-1.4315704,-9.593295,1.4455771419804802162.00,-0.99538934,-14.128783,-0.95229375,-1.4112685,-9.601601,1.40995981419804802163.00,-1.4167689,-15.652692,3.1824925,-1.3858578,-9.613779,1.35094181419804802168.00,-3.433884,-16.645687,9.626487,-1.3616996,-9.624246,1.30003351419804802200.00,-6.7324953,-16.124949,12.583325,-1.3640563,-9.619889,1.32946871419804802201.00,-8.515577,-13.415909,6.084265,-1.4226,-9.598261,1.42126561419804802202.00,-8.692748,-9.930551,0.38965634,-1.5149826,-9.576548,1.47138771419804802230.00,-6.6965823,-6.76362,0.41000703,-1.6484406,-9.543215,1.54275731419804802231.00,-4.1419687,-4.8255134,3.2381577,-1.8012846,-9.498969,1.64175751419804802233.00,-3.157952,-4.2042184,5.46297,-1.9408953,-9.455365,1.73186951419804802262.00,-3.1052797,-4.779425,5.8244944,-2.0437262,-9.418788,1.811081419804802263.00,-3.9091327,-6.217143,5.704784,-2.1099572,-9.389931,1.88352481419804802265.00,-4.0037036,-7.189788,5.9609637,-2.1696796,-9.362177,1.95256911419804802270.00,-3.5464113,-7.7428484,5.8634,-2.2169454,-9.338808,2.0105221419804802299.00,-3.4464533,-8.437765,5.5060654,-2.2581089,-9.32139,2.04524451419804802301.00,-4.016872,-9.363124,5.0601454,-2.2965643,-9.307452,2.06579611419804802302.00,-4.7842135,-10.199898,4.2479124,-2.330402,-9.294505,2.08609371419804802330.00,-5.2061915,-10.527904,2.9987376,-2.362648,-9.281024,2.109711419804802331.00,-4.613028,-10.174759,2.3235726,-2.3988543,-9.267693,2.12738631419804802332.00,-3.7463272,-9.649231,2.654571,-2.4377098,-9.252216,2.15045931419804802356.00,-3.0454245,-9.249998,3.4398694,-2.477698,-9.235002,2.17856431419804802357.00,-2.5013423,-8.7771435,4.0839095,-2.5076332,-9.219224,2.21091419804802373.00,-2.1511903,-8.257602,4.123414,-2.5196273,-9.207879,2.24429461419804802374.00,-2.1158757,-7.8266454,3.9163153,-2.5168953,-9.20303,2.26713041419804802381.00,-2.0524294,-7.2364745,3.3494883,-2.5065243,-9.204889,2.27106551419804802412.00,-1.9189527,-6.655282,2.6048915,-2.4987953,-9.210384,2.25726651419804802413.00,-1.6561891,-6.10701,2.3690627,-2.4851878,-9.221447,2.2269171419804802414.00,-1.3042414,-5.589264,2.4636335,-2.4711185,-9.236533,2.1795421419804802421.00,-1.2084733,-5.2959743,2.504335,-2.4544713,-9.254956,2.11937071419804802444.00,-0.93852705,-5.1343656,2.5246856,-2.4329615,-9.275166,2.0548481419804802445.00,-0.8026561,-5.2852,2.2619221,-2.4070487,-9.294861,1.99551691419804802450.00,-0.46746787,-5.4761376,1.6956934,-2.3785923,-9.313761,1.94076321419804802471.00,-0.27952304,-6.0441623,1.3299791,-2.3487294,-9.331452,1.89152341419804802472.00,-0.22385786,-6.741473,1.1258733,-2.3149595,-9.349794,1.84193231419804802484.00,-0.24720132,-7.219715,0.8559271,-2.2756364,-9.370797,1.78326461419804802489.00,-0.24779987,-7.4190326,0.044292733,-2.2304344,-9.394756,1.71292421419804802504.00,-0.31902736,-7.7224975,-1.1839328,-2.1804156,-9.420868,1.63200531419804802519.00,-0.31064767,-8.14687,-1.9602526,-2.1261494,-9.448621,1.54059921419804802521.00,-0.40162733,-8.72507,-1.9003977,-2.0681202,-9.476781,1.44356451419804802537.00,-0.47465047,-9.392453,-1.4736311,-2.005454,-9.504736,1.34481941419804802552.00,0.13587095,-11.517307,-2.645593,-1.9384071,-9.531575,1.24980371419804802553.00,0.90500826,-12.345701,-2.7012582,-1.8606585,-9.560395,1.14332251419804802570.00,1.1007342,-12.00333,-0.6727707,-1.7822388,-9.5861435,1.04875121419804802570.00,0.4189853,-11.179127,0.46267948,-1.7246847,-9.601209,1.00631321419804802584.00,-0.12749124,-10.957064,0.029927522,-1.68869,-9.608296,0.99967831419804802601.00,-0.54527944,-11.242573,-0.694917,-1.6858845,-9.605928,1.02680391419804802602.00,-0.83378077,-11.6986685,-1.158195,-1.7014719,-9.598546,1.06924161419804802616.00,-0.87448215,-12.202647,-1.4550761,-1.7267487,-9.58965,1.10786251419804802621.00,-0.6733692,-12.7018385,-1.5580268,-1.7530873,-9.582227,1.1304981419804802637.00,-0.4890157,-13.128007,-1.4389153,-1.7724074,-9.579008,1.12763331419804802660.00,-0.6344634,-13.48175,-1.4191631,-1.7826556,-9.578879,1.11248051419804802661.00,-0.75716627,-13.522451,-1.1641805,-1.7888732,-9.582383,1.0715641419804802662.00,-0.93972415,-13.38658,0.19632454,-1.7898406,-9.587654,1.02163821419804802670.00,-1.1851299,-13.764266,1.9632454,-1.7834569,-9.591955,0.99199971419804802691.00,-1.1390414,-14.614207,2.5480292,-1.7683649,-9.594584,0.993588451419804802692.00,-1.1031284,-15.555727,2.32058,-1.7391582,-9.597199,1.01955321419804802701.00,-1.0809821,-15.866375,2.4768016,-1.6957542,-9.600464,1.06109231419804802718.00,-0.50637364,-14.63396,3.5482068,-1.6481273,-9.603704,1.10586231419804802743.00,-0.32022446,-12.361263,5.01286,-1.5861437,-9.608027,1.1577361419804802744.00,-1.3383588,-10.36031,5.120599,-1.5184932,-9.614053,1.19772241419804802745.00,-2.8335378,-9.1272955,3.406949,-1.4560548,-9.621846,1.21259091419804802750.00,-4.3544545,-8.848371,1.5819688,-1.4025846,-9.629827,1.21227741419804802787.00,-5.4007206,-9.278131,0.80684596,-1.3681141,-9.634144,1.21735631419804802789.00,-5.309741,-9.797672,0.8822633,-1.3665059,-9.633702,1.22265611419804802790.00,-5.463568,-10.508151,1.5496471,-1.3814968,-9.630793,1.22869841419804802810.00,-5.365406,-10.982801,2.4241292,-1.4369487,-9.622294,1.23167361419804802811.00,-4.747103,-11.047445,2.903568,-1.5229928,-9.607506,1.24366681419804802812.00,-4.3167458,-11.028292,2.4708161,-1.6192268,-9.588191,1.27086221419804802846.00,-3.8307228,-10.752359,1.6023195,-1.7178262,-9.565915,1.30871381419804802847.00,-2.7168205,-10.111911,0.86729956,-1.8066064,-9.543138,1.35465351419804802849.00,-1.407192,-9.715671,0.7206547,-1.8800548,-9.522608,1.39848291419804802850.00,-0.58897364,-9.569026,1.1563994,-1.9196526,-9.5069895,1.44999361419804802877.00,-0.20709845,-9.509769,2.4588451,-1.9217212,-9.497312,1.50945131419804802878.00,-0.02873042,-9.433155,3.8881836,-1.8841807,-9.491636,1.59032011419804802881.00,-0.17058687,-9.153033,4.5406036,-1.8137945,-9.486932,1.6966661419804802912.00,-0.44232875,-8.549096,4.173692,-1.7255472,-9.480447,1.82044371419804802913.00,-0.8619126,-7.8589673,3.4560301,-1.638295,-9.471143,1.9452121419804802914.00,-1.4413095,-7.203554,2.908955,-1.5604572,-9.457429,2.07181121419804802921.00,-1.7866731,-6.589442,2.7371712,-1.5109856,-9.437082,2.19744871419804802947.00,-1.9231426,-6.0627174,2.6366146,-1.495831,-9.410693,2.31770161419804802948.00,-2.0602105,-5.93343,2.4349031,-1.5095532,-9.382529,2.42069841419804802950.00,-2.1015105,-6.0728927,1.869273,-1.5416417,-9.358478,2.49251771419804802976.00,-2.1080947,-6.194997,1.22224,-1.5834415,-9.342649,2.52547121419804802977.00,-2.143409,-6.1626754,0.7703344,-1.6291534,-9.331637,2.53707961419804802981.00,-2.2290018,-6.077681,0.6841431,-1.6815181,-9.328968,2.51261731419804803014.00,-2.2343888,-5.901707,0.92296475,-1.7403862,-9.332928,2.4572141419804803015.00,-2.1865046,-5.762245,1.0803835,-1.8028996,-9.341105,2.37985091419804803016.00,-2.1200657,-5.6150017,0.9756372,-1.865978,-9.350802,2.29150341419804803023.00,-2.0111294,-5.48332,0.75956047,-1.9255677,-9.358997,2.20720311419804803062.00,-1.8746599,-5.54138,0.61530983,-1.9814477,-9.365128,2.13041141419804803065.00,-1.5807717,-5.693412,0.5674258,-2.0299866,-9.367744,2.07241871419804803068.00,-1.1779473,-6.1076083,0.5243302,-2.066691,-9.368181,2.03380581419804803070.00,-0.8146271,-6.8252707,0.33997664,-2.0869682,-9.368917,2.00956031419804803073.00,-0.8439561,-8.037335,0.016759412,-2.0866382,-9.372909,1.99121421419804803112.00,-1.371279,-9.727641,-0.25857377,-2.063322,-9.382969,1.96799291419804803114.00,-2.0207062,-11.6190605,-0.37229836,-2.018791,-9.400675,1.92929721419804803115.00,-2.27928,-13.415311,-0.41718966,-1.9680028,-9.422587,1.87408361419804803117.00,-2.28347,-14.940417,-0.33758244,-1.903682,-9.451519,1.79308991419804803152.00,-2.1428106,-15.953164,0.005985504,-1.8352482,-9.484267,1.68846991419804803153.00,-2.15538,-16.463728,0.5793968,-1.7691877,-9.516365,1.57453861419804803155.00,-1.8992004,-16.081852,0.6218939,-1.7122309,-9.543221,1.47159171419804803156.00,-1.5131354,-14.830284,-0.19632454,-1.6668907,-9.563148,1.39214671419804803180.00,-1.5879543,-13.64695,-1.3335704,-1.630015,-9.579168,1.32399961419804803181.00,-2.428319,-13.649942,-1.560421,-1.6153339,-9.58701,1.28465781419804803185.00,-2.6868927,-14.624981,-0.2645593,-1.6210873,-9.58754,1.2734111419804803200.00,-2.5941176,-16.506226,1.5580268,-1.6338024,-9.583575,1.28692561419804803201.00,-2.6449943,-18.30427,4.5016975,-1.6510704,-9.576512,1.31710211419804803218.00,-3.276465,-17.622522,8.380903,-1.6770824,-9.562894,1.38160751419804803235.00,-4.8937483,-14.511855,6.1106014,-1.7242341,-9.535481,1.50732271419804803235.00,-5.602432,-10.836157,0.78050977,-1.8063501,-9.505138,1.59995481419804803252.00,-4.5621514,-7.3747396,0.15622166,-1.9094005,-9.472144,1.67423461419804803253.00,-2.4223335,-4.975151,2.1960814,-2.0252345,-9.43109,1.76730191419804803267.00,-1.7034745,-4.3077674,4.909311,-2.1426353,-9.390393,1.84391781419804803270.00,-1.400608,-4.179079,6.0782795,-2.2338996,-9.358545,1.89677061419804803284.00,-1.3521254,-4.935647,5.807735,-2.2724607,-9.34105,1.93677941419804803300.00,-2.011728,-6.5218053,5.4498014,-2.285318,-9.330058,1.97426951419804803302.00,-2.3876176,-7.7093296,5.5467668,-2.2801776,-9.32405,2.00830751419804803315.00,-2.493561,-8.549694,5.804742,-2.2691848,-9.318609,2.04565741419804803332.00,-2.814384,-9.424176,5.9759274,-2.25658,-9.31414,2.07966881419804803332.00,-3.276465,-10.304046,6.3949127,-2.2471445,-9.308727,2.11384651419804803350.00,-3.7499185,-10.817003,6.2943563,-2.2410905,-9.299187,2.16171461419804803351.00,-3.9522285,-10.913968,5.0703206,-2.240239,-9.285195,2.2219121419804803365.00,-3.6110547,-10.477625,3.8642416,-2.2443197,-9.271266,2.27531311419804803379.00,-3.132813,-9.865308,3.4344823,-2.2547696,-9.255694,2.32777141419804803399.00,-2.6258407,-9.269152,3.4919431,-2.2726357,-9.23984,2.3729481419804803400.00,-2.2756886,-8.6257105,3.6445735,-2.2905068,-9.227755,2.4026091419804803402.00,-2.0177135,-7.9487495,3.6493618,-2.3006566,-9.221815,2.4156791419804803415.00,-1.6047137,-7.2765775,3.5583823,-2.3012774,-9.222468,2.41259241419804803432.00,-1.532289,-6.8168907,3.1693244,-2.2976136,-9.22647,2.40075331419804803432.00,-1.5568297,-6.5391636,2.7665,-2.2898197,-9.236269,2.37032581419804803449.00,-1.4341269,-6.355408,2.6539726,-2.2798026,-9.251024,2.3219441419804803450.00,-1.3437457,-6.1584854,2.6204538,-2.2682493,-9.269375,2.2592341419804803464.00,-1.4131776,-6.067506,2.5061307,-2.2570148,-9.289723,2.18570471419804803483.00,-1.525705,-6.1662664,2.4438813,-2.2452753,-9.310697,2.10714911419804803484.00,-1.282095,-6.278794,2.598906,-2.2322743,-9.330793,2.03067871419804803497.00,-0.95109665,-6.3063273,2.6396074,-2.2171807,-9.349865,1.95819661419804803502.00,-0.7846996,-6.2883706,2.195483,-2.200202,-9.366866,1.89508041419804803515.00,-0.6051345,-6.3578024,1.1821371,-2.1799042,-9.382247,1.84169441419804803533.00,-0.47285482,-6.5684924,-0.007781155,-2.154835,-9.397298,1.79383721419804803533.00,-0.5650316,-6.917447,-0.8463503,-2.126098,-9.413368,1.74316421419804803550.00,-0.7092823,-7.4016747,-1.555034,-2.0944338,-9.431612,1.6817941419804803551.00,-0.8888474,-8.005612,-1.5340848,-2.0610554,-9.451742,1.60841691419804803564.00,-0.8146271,-8.504803,-0.7882909,-2.0220714,-9.474233,1.52333131419804803582.00,-0.8403648,-8.99741,0.16160862,-1.9791628,-9.497177,1.43419961419804803583.00,-0.80684596,-9.43914,0.3393781,-1.9353254,-9.518214,1.35223071419804803596.00,-0.7104794,-9.929952,-0.45968673,-1.8910172,-9.536157,1.28693141419804803602.00,-0.5943606,-10.400413,-1.543063,-1.8507155,-9.550038,1.24178781419804803614.00,-0.5177461,-10.5123415,-1.6118963,-1.8218817,-9.559043,1.21485081419804803631.00,-0.88166475,-10.354323,-0.8206126,-1.8011689,-9.564775,1.20051941419804803634.00,-1.4951789,-10.605117,-0.034117375,-1.803981,-9.562319,1.21577171419804803653.00,-1.7429788,-11.119271,0.20231004,-1.8257624,-9.5531,1.25510421419804803654.00,-1.7968484,-11.795034,-0.25378537,-1.8539933,-9.540927,1.3053041419804803663.00,-1.602918,-12.489353,-0.99538934,-1.8836148,-9.529364,1.34670081419804803688.00,-1.3180081,-13.144167,-1.459266,-1.9118484,-9.521108,1.36519471419804803689.00,-0.8098387,-13.627796,-1.4640543,-1.9369521,-9.516187,1.36411311419804803691.00,-0.4237737,-14.050373,-1.1857284,-1.9486084,-9.516913,1.3422681419804803702.00,-0.3878607,-14.265252,-0.4878186,-1.9453406,-9.52318,1.30195471419804803722.00,-0.664391,-14.180857,0.9911995,-1.92914,-9.532495,1.25712721419804803725.00,-0.9295488,-14.185645,2.6623523,-1.9044653,-9.541298,1.22761641419804803731.00,-0.87208796,-14.310742,3.3626564,-1.8734313,-9.547551,1.22675481419804803762.00,-0.76195467,-14.605827,3.0597897,-1.8364521,-9.551248,1.25360371419804803763.00,-0.5279215,-14.817715,2.4133554,-1.7963618,-9.554627,1.28552091419804803764.00,-0.3321955,-14.53879,2.296638,-1.7460791,-9.559471,1.31837771419804803790.00,-0.20171149,-13.287221,2.8508956,-1.6851848,-9.568438,1.33250151419804803791.00,-0.58298814,-11.245565,3.4542346,-1.6181209,-9.5819025,1.31879711419804803792.00,-1.5508442,-9.43495,3.3159695,-1.5552605,-9.597036,1.28392081419804803803.00,-2.8083985,-8.465898,2.0566192,-1.5020918,-9.610615,1.24508451419804803819.00,-4.39755,-8.330625,0.65242,-1.4590304,-9.62242,1.20442641419804803839.00,-5.3857565,-8.429984,0.50757074,-1.4366397,-9.629878,1.17129081419804803840.00,-5.5006785,-8.715493,1.4305356,-1.444745,-9.63216,1.14217951419804803843.00,-5.4162827,-8.998009,2.939481,-1.4900728,-9.628254,1.11659111419804803850.00,-5.3235073,-9.088988,4.2880154,-1.5724922,-9.615364,1.11465371419804803869.00,-5.146935,-9.208698,4.325125,-1.6770351,-9.592559,1.15790831419804803871.00,-4.856638,-9.496601,2.759916,-1.7839254,-9.56239,1.24446931419804803884.00,-4.0533834,-9.706094,1.3006501,-1.8827555,-9.5310755,1.33575641419804803924.00,-3.3363202,-10.163984,0.6452374,-1.9564606,-9.501911,1.43400031419804803926.00,-2.154183,-10.1460285,1.0205284,-1.9938644,-9.482093,1.51156891419804803929.00,-0.8110358,-9.776124,1.785476,-1.992883,-9.472761,1.57022811419804803931.00,-0.3453636,-9.470264,2.6007016,-1.9633477,-9.467655,1.63680951419804803934.00,-0.39085343,-9.041104,2.8748376,-1.9084842,-9.463153,1.72534381419804803971.00,-0.7338228,-8.534132,2.949058,-1.8407363,-9.458605,1.82123111419804803972.00,-1.0450691,-7.98167,2.753332,-1.7668201,-9.455086,1.91051631419804803973.00,-1.2719196,-7.3729444,2.6551697,-1.7047737,-9.450298,1.98896321419804803973.00,-1.5568297,-6.839636,2.6126726,-1.667499,-9.440619,2.06507851419804803983.00,-1.9458874,-6.467337,2.457648,-1.6586055,-9.423963,2.14670521419804804000.00,-2.2768857,-6.151303,2.2272062,-1.6745427,-9.401046,2.23307781419804804053.00,-2.4809916,-5.940613,1.7872716,-1.7106764,-9.375122,2.31323531419804804055.00,-2.3900118,-5.5701103,1.4041992,-1.7569618,-9.349115,2.38275741419804804057.00,-2.4145525,-5.439028,0.88405895,-1.8145311,-9.326056,2.4295221419804804060.00,-2.5617957,-5.7335143,0.6757634,-1.8776673,-9.308704,2.44801831419804804063.00,-2.0153193,-6.393117,0.46986207,-1.9362714,-9.298692,2.440411419804804065.00,-1.6932992,-6.7450647,-0.002394202,-1.9818516,-9.297094,2.40971021419804804067.00,-1.3611037,-7.068282,-0.25378537,-2.0162299,-9.30175,2.36276531419804804101.00,-1.0175357,-7.331644,-0.08439561,-2.044372,-9.308812,2.31018161419804804103.00,-0.724246,-7.6291237,0.25558102,-2.0605228,-9.318926,2.25438481419804804104.00,-0.47884035,-8.2037325,0.5542577,-2.0633013,-9.331567,2.19886971419804804123.00,-0.44771573,-9.164406,0.61770403,-2.0502985,-9.346414,2.1473681419804804123.00,-0.5638345,-10.460866,0.521936,-2.0188284,-9.363804,2.10092781419804804125.00,-0.59376204,-11.868058,0.39863458,-1.9666376,-9.3843,2.05855351419804804131.00,-0.6440403,-13.058575,0.48243165,-1.8932717,-9.408651,2.01573921419804804158.00,-0.82001406,-14.058154,0.6997054,-1.8104762,-9.4347315,1.96936881419804804159.00,-1.0348936,-14.857818,1.0875661,-1.717404,-9.462768,1.91754191419804804162.00,-1.3640964,-15.26543,1.5819688,-1.6200823,-9.490983,1.86197961419804804188.00,-1.6765398,-15.155296,1.2228385,-1.5250635,-9.516706,1.81021641419804804189.00,-1.532289,-14.13836,-0.29987377,-1.4417624,-9.538774,1.761691419804804191.00,-1.6956934,-12.943054,-1.6178818,-1.3754052,-9.557213,1.71415141419804804215.00,-2.6150668,-12.46601,-1.508347,-1.3264716,-9.572958,1.66412911419804804216.00,-3.684078,-13.245322,-0.65062433,-1.3061393,-9.581877,1.62850371419804804231.00,-4.2263646,-14.339473,1.5897499,-1.3097228,-9.587346,1.59304671419804804233.00,-4.9625816,-15.631145,3.7547069,-1.3280443,-9.589471,1.56484871419804804257.00,-5.793968,-16.503233,5.7867856,-1.3697525,-9.586586,1.54646371419804804258.00,-6.471527,-15.585654,6.2650275,-1.439154,-9.575355,1.55300391419804804264.00,-6.4308257,-12.970588,2.8335378,-1.5342829,-9.557562,1.57142691419804804294.00,-5.2289367,-9.8754835,0.14544775,-1.6397315,-9.539038,1.5774791419804804295.00,-3.1310172,-7.1820064,0.81043726,-1.7507483,-9.513719,1.61073141419804804296.00,-2.034473,-5.6748567,3.3333273,-1.867802,-9.479571,1.6791111419804804331.00,-1.6567876,-5.0200424,6.0381765,-1.9836344,-9.442207,1.75508281419804804332.00,-1.5628152,-4.9883194,7.0395517,-2.0740979,-9.4076805,1.83414321419804804335.00,-1.8357542,-5.7586536,6.2482677,-2.1282415,-9.378601,1.91906371419804804336.00,-1.8770541,-6.534375,5.7574563,-2.1683023,-9.351786,2.00324081419804804355.00,-1.809418,-7.3460093,5.873575,-2.1933038,-9.325647,2.09573631419804804356.00,-1.8183962,-8.403049,6.247071,-2.213058,-9.2995825,2.18873051419804804362.00,-2.223615,-9.58818,6.588843,-2.229172,-9.277259,2.26575951419804804385.00,-2.9987376,-10.659584,6.3542113,-2.237955,-9.259804,2.32765651419804804386.00,-3.8672342,-11.341932,5.1888337,-2.2390642,-9.247045,2.37679771419804804391.00,-4.0785227,-11.210251,4.0922894,-2.2392151,-9.23812,2.41111231419804804419.00,-3.6739025,-10.654198,3.793014,-2.2426178,-9.233081,2.42719821419804804420.00,-3.0974984,-9.88925,3.8899791,-2.2470975,-9.230912,2.43129541419804804423.00,-2.742558,-9.063849,3.9175124,-2.254688,-9.231808,2.42084981419804804432.00,-2.4510639,-8.19236,3.7642837,-2.2580059,-9.236633,2.39925221419804804452.00,-2.0757728,-7.359776,3.2716765,-2.250354,-9.2462845,2.36907671419804804453.00,-1.8842367,-6.7719994,2.5037365,-2.2345884,-9.2609,2.3265281419804804463.00,-1.8106151,-6.3344593,1.7465701,