time,acc_x,acc_y,acc_z,local max
1409523491747,-0.127989693432,10.2024041375,-0.663204344561,0
1409523491766,-0.21887221509,10.388417567,-0.621958956495,0
1409523491766,-0.182417893788,10.3917510718,-0.520807882429,0
1409523491783,-0.119467410496,10.1621253829,-0.376958502318,0
1409523491784,-0.0956061399763,10.1664864338,-0.280390908468,0
1409523491798,-0.0781829529539,10.266153583,-0.192101744117,0
1409523491802,-0.00472467043985,9.98897654103,-0.0397744650785,0
1409523491816,-0.0608075710646,9.95320152852,0.0479299886386,0
1409523491830,-0.124922109179,10.1642499831,0.058687995957,0
1409523491834,-0.0550918270479,10.0634761096,0.07116570582,0
1409523491843,0.0310309203693,9.9863914887,0.0161136616126,0
1409523491864,0.0806047563847,10.0170460412,-0.079161491266,0
1409523491865,0.0628959747904,9.97737212051,-0.178644468182,0
1409523491881,0.0513037495212,9.8646344585,-0.260034292252,0
1409523491882,-0.00550862581557,9.67933673191,-0.290098173683,0
1409523491901,-0.0966205697331,9.64062736233,-0.308682036629,0
1409523491903,-0.125425222328,9.74262360061,-0.345242088733,0
1409523491914,-0.127959244994,9.81382193206,-0.383075013878,0
1409523491931,-0.0611596307451,9.78223304507,-0.386222004413,0
1409523491936,0.0210000304773,9.8267430339,-0.371019047275,0
1409523491951,0.0239003404737,9.98943899356,-0.342278669528,0
1409523491966,0.0712985187406,9.99674545874,-0.28493829699,0
1409523491967,0.240635167391,9.79872417482,-0.178875326851,0
1409523491986,0.248452644686,9.68919904362,-0.191232149477,0
1409523491987,0.291006150113,9.53506534693,-0.175191621153,0
1409523492003,0.32316333818,9.43023214036,-0.156120860382,0
1409523492004,0.327304028043,9.4715119274,-0.110037604354,0
1409523492014,0.322535772485,9.58139352098,-0.0140074180828,0
1409523492031,0.295220332553,9.80662787252,0.0573072794363,0.0
1409523492034,0.305741136407,10.0529027804,0.115849018533,0.0
1409523492050,0.307420168016,10.2787247455,0.14070008971,0.0
1409523492070,0.323793668759,10.5925819553,0.125977164963,0.0
1409523492070,0.374476616153,10.8022436655,0.0387720657078,0.0
1409523492074,0.370096097341,10.8501069991,-0.104780577676,10.8501069991
1409523492082,0.283692158389,10.7817806293,-0.187091127421,0.0
1409523492103,0.134342422509,10.7589519236,-0.198463541768,0.0
1409523492104,0.0547618915654,10.7692382889,-0.212534534143,0.0
1409523492116,-0.0148411442911,10.7302161566,-0.305301328694,0.0
1409523492134,-0.077506271858,10.520000895,-0.519638886695,0.0
1409523492135,-0.0556918146793,10.2787044657,-0.774272141159,0.0
1409523492149,-0.0691696654472,10.1743025517,-0.786140341281,0.0
1409523492167,-0.14865203229,10.000323049,-0.382541428985,0.0
1409523492168,-0.19922154875,9.70071533222,0.242813757015,0.0
1409523492189,-0.129602606842,9.42307439337,0.612424060122,0.0
1409523492190,-0.129387225035,9.29073786724,0.733275120291,0.0
1409523492194,-0.0659397078805,9.11917512666,0.584431022288,0.0
1409523492215,-0.0034105037274,8.92409369178,0.402712962544,0.0
1409523492216,-0.0242517227684,8.85254630948,0.37942623638,0.0
1409523492229,-0.134823000509,8.89847784608,0.474414895438,0.0
1409523492249,-0.197611782913,8.89892395193,0.512919168088,0.0
1409523492250,-0.362084963226,9.07506205254,0.549696074856,0.0
1409523492263,-0.635036133627,9.36469497956,0.502869086938,0.0
1409523492263,-0.702917767728,9.7056805975,0.382801445398,0.0
1409523492283,-0.839215885479,10.0229616164,0.293291337509,0.0
1409523492283,-1.07156853815,10.2318548607,0.337256929256,0.0
1409523492300,-0.884743824037,10.1990289672,0.367297028031,0.0
1409523492314,-0.712778233976,10.1435666312,0.342906836605,0.0
1409523492320,-0.687046896563,10.1648056696,0.270340065053,0.0
1409523492344,-0.786803245402,10.3525154993,0.31109851489,0.0
1409523492345,-0.929602682468,10.6535861734,0.487529412014,0.0
1409523492345,-0.974803446288,10.6021460897,0.728250156458,0.0
1409523492369,-0.888432024142,10.3925885128,1.20755590386,0.0
1409523492370,-0.86256640666,10.1258394698,1.80053646262,0.0
1409523492374,-0.781826766306,9.98194473161,2.18112682456,0.0
1409523492382,-0.652638931536,9.78255786473,2.51740647064,0.0
1409523492399,-0.410951026115,9.50018907078,3.25386266987,0.0
1409523492426,-0.190761087332,9.17384557931,4.73297164217,0.0
1409523492427,-0.174251490242,9.06743634081,5.76170045695,0.0
1409523492428,-0.256769991673,9.6657671411,4.65995062712,0.0
1409523492435,-0.231778978559,10.3255291785,1.99028581712,0.0
1409523492466,0.25363406937,10.3709408558,-0.944638655798,0.0
1409523492468,0.976234473132,9.75268577507,-1.68498383113,0.0
1409523492469,1.10018988604,9.23264397918,-0.893153071768,0.0
1409523492505,0.853155858265,9.0575696964,-0.498776752062,0.0
1409523492506,0.43512124801,9.54656188075,-0.374181263827,0.0
1409523492507,0.3646603429,10.1355922226,-0.411256199099,0.0
1409523492508,0.593540547383,10.499228519,-0.10201998994,0.0
1409523492515,0.842631026325,10.567258044,1.1242914765,0.0
1409523492541,1.34491657756,10.9806651566,1.14594144481,0.0
1409523492542,1.55264545903,11.3886584324,1.14416256096,0.0
1409523492543,1.62751522528,11.7577725633,1.41823979812,0.0
1409523492575,1.6219584258,11.9573106242,1.62957498272,0.0
1409523492575,1.65559866058,12.3713209132,1.40734484593,0.0
1409523492576,1.44644187484,13.0826389322,0.82343757276,0.0
1409523492583,1.25728894549,13.3421642614,0.642635279852,0.0
1409523492610,1.10485905106,13.2014361387,0.915764183434,0.0
1409523492611,1.03509347673,12.7922780859,1.38112279753,0.0
1409523492614,1.17841848209,12.4897888984,1.6809787226,0.0
1409523492628,1.42140677839,12.0461407834,2.02080076889,0.0
1409523492634,1.56029587768,11.4253954507,3.04811801614,0.0
1409523492646,2.57277257706,8.63270606813,11.8331923549,0.0
1409523492672,5.18798874466,5.87425105762,21.5111221213,0.0
1409523492673,4.4067858033,10.2908904104,15.7218346023,0.0
1409523492675,1.16898127747,15.99683892,-8.80333666086,0.0
1409523492683,5.04903299176,13.1301714946,-9.47432238565,0.0
1409523492708,7.211813482,12.0130975668,5.30603897811,0.0
1409523492709,4.06406177774,11.3619870345,4.59242140646,0.0
1409523492716,0.321144162203,11.9682778526,-0.652480120335,0.0
1409523492731,-0.594113651396,12.6513714289,-4.36319493261,0.0
1409523492746,-1.95489678942,11.3834976762,-6.24995923,0.0
1409523492746,-4.22234082267,11.0920971305,-7.3347457028,0.0
1409523492763,-6.35240252894,13.5268626281,-7.40381094214,0.0
1409523492764,-6.99831644871,16.0455057218,-5.58974621521,0.0
1409523492780,-6.81583466428,18.8856183532,-3.99416931952,0.0
1409523492783,-5.61734921372,19.8282238739,-2.59963867174,19.8282238739
1409523492798,-5.1553114845,17.7798195801,0.383645005097,0.0
1409523492811,-5.72620255373,15.3738407865,2.65676164291,0.0
1409523492815,-5.38953999482,14.9479578676,3.13943655272,0.0
1409523492828,-3.2113048688,15.0284664455,1.41744465675,0.0
1409523492848,-1.53808843047,14.6758349541,-0.611560702179,0.0
1409523492848,-0.185518833127,13.7772801966,-1.76993884699,0.0
1409523492863,1.58884173879,12.1551697711,-2.54216632703,0.0
1409523492864,2.50284636076,10.1027221765,-2.87410930409,0.0
1409523492880,2.51390956868,8.05235515952,-2.72644546731,0.0
1409523492883,1.37588948778,7.36996429346,-2.53449488419,0.0
1409523492897,-0.450069802831,7.08731015205,-1.59822838584,0.0
1409523492911,-2.4465211239,6.58269801854,-2.40106151039,0.0
1409523492915,-3.73187906308,5.63228894536,-3.37349428227,0.0
1409523492928,-4.1680856111,4.78931840327,-3.25860852609,0.0
1409523492944,-2.58082614852,4.40310054069,-5.31275800522,0.0
1409523492945,-1.92349773618,3.28843845909,-2.19669513937,0.0
1409523492967,-0.573451599772,2.11455523967,0.734559527254,0.0
1409523492968,0.723709681429,2.52442942034,-0.248071678644,0.0
1409523492975,0.413554390805,3.10151565641,0.0509954287779,0.0
1409523493007,-0.463711609008,2.90970996545,1.25511605516,0.0
1409523493008,-1.26628400824,3.0250872673,1.06687344082,0.0
1409523493009,-2.05168294399,3.92470794659,0.316440932809,0.0
1409523493019,-2.17750416753,4.98335777639,-0.272843398081,0.0
1409523493055,-2.01888598643,5.55327386719,-0.504329044238,0.0
1409523493056,-1.78839772808,5.83338081457,-0.731903053744,0.0
1409523493056,-1.52967753617,6.02387592505,-0.942700214295,0.0
1409523493057,-1.07734203489,5.8358033195,-0.782771234566,0.0
1409523493063,-0.337290981262,6.02379299631,0.171595240449,0.0
1409523493085,2.81432890674,4.79589556988,5.16047901733,0.0
1409523493086,9.28785009908,9.95115740122,15.8894670787,0.0
1409523493095,15.3077753107,15.7118550281,19.9644939479,0.0
1409523493122,21.1310216944,13.7861688482,16.0471011444,0.0
1409523493124,17.699686866,10.2485090019,8.92514525806,0.0
1409523493125,11.4633734923,9.18059339972,4.05358201963,0.0
1409523493151,1.25621782324,11.3480496846,-4.41355090804,0.0
1409523493152,-1.42053234105,10.5751716284,-4.56590376359,0.0
1409523493157,-2.54338848059,10.5333848791,-3.11342971534,0.0
1409523493163,-2.98121501102,10.5931889282,-0.553909801039,0.0
1409523493178,-2.142410872,9.39134047642,1.25037710603,0.0
1409523493195,-1.72172402862,7.77411992974,0.768734294077,0.0
1409523493197,-3.7735066021,8.7930261098,-3.50587179732,0.0
1409523493221,-5.50454359567,12.3849903906,-8.62428028658,0.0
1409523493222,-5.41911360099,15.1614217165,-8.03220874289,0.0
1409523493224,-4.62676924274,15.7843185705,-0.282689923227,0.0
1409523493252,-4.18969053785,15.4828720807,3.72936912199,0.0
1409523493253,-3.90673950361,16.3293738218,3.16391791994,16.3293738218
1409523493258,-2.13243633086,13.8453410749,-0.01892178946,0.0
1409523493263,-2.18810152369,11.4932508151,-0.124551119134,0.0
1409523493277,-3.08603393795,8.73580466074,-1.4700559799,0.0
1409523493295,-2.32835263334,6.72679387236,-2.43401633061,0.0
1409523493296,-1.45597685013,6.04285579191,-2.13052018309,0.0
1409523493318,-1.42353819154,6.44089160412,-1.94198426388,0.0
1409523493319,-1.91912622655,7.34798570274,-2.44248495809,0.0
1409523493324,-2.46372505983,8.22654111877,-3.32219733742,0.0
1409523493354,-2.06056452406,8.31646914986,-3.80254814144,0.0
1409523493355,-0.859704347444,7.68164952468,-3.10512990746,0.0
1409523493356,-0.0853042200478,7.39380106941,-2.222077267,0.0
1409523493364,0.11995464635,7.78387617009,-1.85096462612,0.0
1409523493385,-0.0624087211074,8.86398700412,-1.76428964637,0.0
1409523493386,-0.142536224869,10.5700646084,-1.92580945423,0.0
1409523493395,-0.110676906767,12.7146562992,-2.15483969931,0.0
1409523493420,0.216422302888,13.8813697315,-2.40704325058,0.0
1409523493421,0.518831625587,13.0539584038,-2.05313274655,0.0
1409523493424,0.436126666908,11.1057950478,-0.808214920559,0.0
1409523493451,0.129742460931,9.63423538906,0.355665522023,0.0
1409523493452,0.264512775638,8.84634215029,1.13059689587,0.0
1409523493456,0.891221658649,8.63761798842,-0.0603069731653,0.0
1409523493464,2.23981000719,8.64764781563,-1.39179554224,0.0
1409523493489,3.15993640648,8.38685857774,1.5916632865,0.0
1409523493490,2.84395671986,8.93076226749,5.87991330641,0.0
1409523493500,5.27266847994,8.16508814625,0.972000594134,0.0
1409523493516,6.18036807091,7.79853736675,0.135528563022,0.0
1409523493518,4.97962632402,7.75962158332,1.27014444388,0.0
1409523493524,3.18444164831,7.88131004028,2.03154500956,0.0
1409523493562,1.53710234254,8.60456970414,2.39129059531,0.0
1409523493563,0.274091096496,9.21181736419,2.04249602193,0.0
1409523493564,-0.561608352052,9.69089155796,1.52616730646,0.0
1409523493567,-1.04864590158,10.1998977444,1.11549085702,0.0
1409523493590,-1.45118379188,11.0229995208,1.25952209128,0.0
1409523493590,-1.44063070517,11.7831189891,0.999726536294,0.0
1409523493596,-0.920362794673,12.0751423719,0.701558246145,0.0
1409523493619,-0.0725655421009,11.9761686944,0.570978102908,0.0
1409523493619,0.544672821532,11.7349984117,0.754641093808,0.0
1409523493624,0.937127174717,10.9406269873,3.71509623615,0.0
1409523493645,0.050115362198,9.93629748414,10.9656189812,0.0
1409523493645,-1.76734609609,11.1344707145,10.322196526,0.0
1409523493661,-1.79135645125,11.8583911524,4.56772448842,0.0
1409523493666,-0.5749802465,11.6293191212,-0.486885025582,0.0
1409523493684,0.229981616749,10.5730908497,-11.0692144803,0.0
1409523493685,0.507855144548,10.5914083729,-10.7250710225,0.0
1409523493696,1.65166963453,11.4514156809,-4.78198778013,0.0
1409523493716,3.36594681417,12.5720608676,0.0673011434025,0.0
1409523493722,4.20909255042,13.7578320774,3.11249294747,0.0
1409523493724,2.94864574302,14.25250045,2.74827996345,0.0
1409523493752,2.04659309116,13.6821065718,-0.859591469362,0.0
1409523493754,1.89933466701,13.5299194632,-2.12998402181,0.0
1409523493757,1.55444873736,12.9700665092,-0.436762225462,0.0
1409523493765,0.359671164736,13.1396486152,3.83614123147,0.0
1409523493785,-0.893386243678,15.2872708062,3.58148449303,0.0
1409523493786,0.332202777044,15.1109415964,0.551225068038,0.0
1409523493798,1.6474828132,13.4292887841,-0.692519911893,0.0
1409523493819,2.19546478103,13.1253817231,-1.72899691688,0.0
1409523493820,1.22657447964,13.6132334149,-1.39310919608,0.0
1409523493824,-0.0982741587463,12.4309103918,-0.480375640679,0.0
1409523493851,-1.67674059801,11.1028256857,-1.7388757094,0.0
1409523493852,-2.30864496907,10.8636352633,-5.25901905839,0.0
1409523493858,-1.79713067876,9.09160050415,-7.69163194319,0.0
1409523493865,-2.47239980349,8.83574711701,-7.40205960933,0.0
1409523493881,-3.87898086384,10.77089664,-5.77090498662,0.0
1409523493884,-5.05579477464,14.5955793342,-4.2689646114,0.0
1409523493895,-5.36541073605,18.9102988005,0.589559513888,18.9102988005
1409523493918,-3.90702749666,18.4034492127,6.54639817218,0.0
1409523493919,-5.57931203056,18.3848512918,7.48680774427,0.0
1409523493924,-8.11021177237,17.651107727,6.34320613132,0.0
1409523493951,-7.82425617092,14.4244582661,1.47457052115,0.0
1409523493952,-3.60240651716,12.2034682667,-2.99633305085,0.0
1409523493956,-0.616006933848,11.288519349,-5.87660172367,0.0
1409523493964,-0.517791805239,11.4437532645,-5.76855427541,0.0
1409523493982,0.0231301274236,9.69751722805,-4.84892929466,0.0
1409523493984,-0.351483070052,7.93526584192,-3.97699546367,0.0
1409523493997,-1.24736805102,6.89966327837,-3.18639456888,0.0
1409523494027,-0.798299128592,5.73882516666,-2.45975497374,0.0
1409523494028,-0.180233130606,5.08554924418,-2.6803580419,0.0
1409523494029,-0.720467808015,5.48008959193,-2.01407417551,0.0
1409523494053,-0.898683152991,5.43033154647,-0.448158650354,0.0
1409523494055,0.065462571331,4.69140847851,-0.489414971083,0.0
1409523494058,0.0814316886118,3.97769194577,-0.361761533444,0.0
1409523494075,-0.3239866061,3.4219685687,-0.362934937961,0.0
1409523494076,-0.813079492707,3.22247559295,-1.40493847802,0.0
1409523494091,-1.34849212769,3.04436714362,-1.91920524475,0.0
1409523494098,-1.58427437004,2.68531224935,-1.85361470438,0.0
1409523494110,-1.94760030045,2.07478921078,-1.06053732073,0.0
1409523494124,-2.71230073582,1.65181323721,-0.0973374690271,0.0
1409523494124,-3.61681957166,1.86077337831,0.514915235951,0.0
1409523494140,-3.65908594642,2.3760873594,-0.00160926804171,0.0
1409523494144,-2.91280356966,2.69522718337,-1.29573320338,0.0
1409523494159,-2.54148986186,3.33737856894,-1.84372617109,0.0
1409523494176,-2.25123680118,4.27605364286,-1.02331359544,0.0
1409523494177,-1.74359655085,5.08128126262,0.631045402386,0.0
1409523494201,-1.32043987697,5.80059434761,3.82456711599,0.0
1409523494202,11.0110863502,11.5883785837,12.0443865619,0.0
1409523494204,20.7746327462,7.53315480795,22.8905416965,0.0
1409523494230,24.2038849546,5.07102574803,22.8299443185,0.0
1409523494232,19.6822843643,7.05557352836,13.8064915158,0.0
1409523494236,9.48416383009,-1.08800035589,5.93730024637,0.0
1409523494244,1.65619460842,4.92136495179,-6.26577707641,0.0
1409523494266,-0.413948734257,5.03529603156,-4.63409739378,0.0
1409523494267,-2.29753093207,7.06021157429,-1.98752257052,0.0
1409523494278,-2.31156317776,7.65779789538,-2.65193621356,0.0
1409523494303,-2.83565610465,9.40035068485,-4.69995653797,0.0
1409523494304,-7.24520598837,14.9004199069,-5.98208802941,0.0
1409523494305,-7.34462570934,18.0382047943,-3.93229708279,18.0382047943
1409523494337,-5.26151556192,16.3990937558,1.85750060798,0.0
1409523494338,-4.0954135023,14.1863446355,0.436936628773,0.0
1409523494339,-4.28395154075,10.8040860983,-5.56178286014,0.0
1409523494345,-3.56916363652,9.23330869042,-6.81175944281,0.0
1409523494384,-3.41037005002,9.67062304607,-3.88256893577,0.0
1409523494386,-2.70799052813,9.56527371158,-2.70804109103,0.0
1409523494388,-1.65702015127,8.14553084292,-1.76593994316,0.0
1409523494389,-1.17706952666,7.357841752,-0.278768249143,0.0
1409523494428,-1.03660047105,7.64022711932,0.11514665397,0.0
1409523494431,-1.7821025201,8.84571548512,-1.1539862306,0.0
1409523494431,-2.8386342224,9.48236784594,-2.78625690189,0.0
1409523494432,-2.78838750949,8.95746785887,-2.64223485041,0.0
1409523494450,-1.85948500358,7.90151998796,-1.60367538544,0.0
1409523494450,-0.652040838518,7.14666798,-0.61651871381,0.0
1409523494458,0.204326403567,7.13048129262,-0.222552164539,0.0
1409523494485,0.811959398955,8.2040028841,-0.467809756532,0.0
1409523494486,0.769352612637,10.8990223558,-0.955276252588,0.0
1409523494486,0.200765726512,14.6032592185,-1.14631430165,0.0
1409523494513,0.276456724198,16.9070393506,-0.841082746143,0.0
1409523494514,1.05356993712,16.0991418563,-0.590230212282,0.0
1409523494518,1.8817738718,12.9972836281,0.0169430975225,0.0
1409523494525,2.55372492936,10.664922216,0.916339551036,0.0
1409523494542,3.08300126434,9.69328247982,1.36099382446,0.0
1409523494545,3.79976443906,8.67990535978,1.95310947403,0.0
1409523494558,4.66953406493,7.4414674058,3.20083654963,0.0
1409523494575,3.96671240161,7.44741737679,4.10782783236,0.0
1409523494580,3.19276134031,8.90183594825,0.401105944304,0.0
1409523494592,3.65580121128,8.29643358644,-3.82172598247,0.0
1409523494608,3.63874741519,7.55136078078,-5.5616001462,0.0
1409523494608,2.05300164487,7.76738975922,-3.20020471503,0.0
1409523494624,1.1879450849,7.43138553558,0.371659977087,0.0
1409523494625,0.832286035393,7.22615513831,2.55502640303,0.0
1409523494641,0.595972888332,7.34652148964,2.92100008222,0.0
1409523494646,0.570875949674,7.57389512055,2.77186231404,0.0
1409523494657,0.272608575213,8.16532709879,2.59032598496,0.0
1409523494673,-0.375249811121,8.92886442327,2.19821029737,0.0
1409523494676,-0.872198940966,9.5636738639,1.83950396362,0.0
1409523494690,-1.0500308592,10.1000826888,1.58808334445,0.0
1409523494711,-0.864734957567,10.589199436,1.32179304349,0.0
1409523494711,-0.356049960717,11.0691505174,1.17315893064,0.0
1409523494729,0.0649320242442,11.5357779233,1.60345788339,0.0
1409523494730,0.336957336655,11.8714541503,2.92066333199,0.0
1409523494744,-0.689776428166,12.1130137548,9.96882249634,0.0
1409523494746,-0.801752620577,11.6742741233,4.80603291718,0.0
1409523494760,0.656535298935,11.3916689811,-2.09431600065,0.0
1409523494774,0.81193859017,11.3767202354,-3.06858212171,0.0
1409523494776,0.749657897771,11.2893706928,-2.86214185754,0.0
1409523494792,1.16642881502,11.4120562663,-7.3119238991,0.0
1409523494807,1.90147970476,12.0596620066,-6.7767807481,0.0
1409523494808,3.25802042177,13.7335148746,-0.83839060995,0.0
1409523494827,4.40717355262,15.5022257471,5.11085747793,0.0
1409523494829,5.30485120183,15.8537014058,4.4894520042,0.0
1409523494842,3.75128112109,15.2361564853,2.06906130148,0.0
1409523494861,1.37343509241,15.3660053413,3.49659862381,0.0
1409523494862,-0.0828954344883,15.4052729534,3.26790203321,0.0
1409523494865,-1.06940811035,15.0045674378,1.47635414192,0.0
1409523494878,-1.45075740015,14.1261122093,2.20495572885,0.0
1409523494892,-0.927010682886,13.6013911815,0.0410763939857,0.0
1409523494910,0.40682500369,13.1568039459,-3.49487249908,0.0
1409523494910,-0.131703195478,12.9273090452,-4.31669270031,0.0
1409523494937,-0.892261449247,13.0194038274,-4.08737203608,0.0
1409523494940,-0.275023487263,12.9866344881,-6.09001620295,0.0
1409523494941,-0.0279412744521,11.5682712945,-8.87274779855,0.0
1409523494965,-0.053691490459,9.81468953327,-9.18799298451,0.0
1409523494966,-1.26855528182,9.08845498576,-7.2227243228,0.0
1409523494966,-2.44496016504,9.10948650394,-5.01449414605,0.0
1409523494976,-3.27336384314,10.4369591821,-3.68823202658,0.0
1409523494996,-5.09532450172,14.6745156189,-3.89148857287,0.0
1409523494999,-5.3989735247,19.1695228328,1.28682443356,19.1695228328
1409523495007,-3.44588067593,16.4564757276,12.3179247829,0.0
1409523495053,-5.94667177923,17.7578059519,8.0644309459,0.0
1409523495055,-7.97027377605,16.8188094156,4.64167355174,0.0
1409523495059,-9.41665829899,12.9087762616,0.157407039138,0.0
1409523495060,-9.31194178495,12.069940495,-2.33803073252,0.0
1409523495061,-6.40169516624,11.7768251025,-3.1448565545,0.0
1409523495078,-3.10025412684,10.596490959,-2.59366099006,0.0
1409523495079,-1.29398627371,8.84080808223,-1.02288010188,0.0
1409523495085,-1.55879660214,7.54751179458,-0.498447097049,0.0
1409523495115,-1.19083382414,6.85311438136,-1.97832717962,0.0
1409523495116,-0.635409046949,6.20471195258,-4.03483194354,0.0
1409523495120,-0.102465677976,5.31495325309,-5.07649369837,0.0
1409523495126,0.328626388271,4.44607546304,-2.21059957985,0.0
1409523495149,1.31642710074,4.23804531992,-0.220144296948,0.0
1409523495150,2.24907119959,4.43495768513,0.207361223221,0.0
1409523495157,1.87532681847,3.80115075492,0.917857202538,0.0
1409523495184,0.845528255628,3.54936467277,-0.164646008596,0.0
1409523495197,-0.595272266086,3.13285072601,-0.645957446973,0.0
1409523495198,-1.65639396015,2.69861099565,-0.892654134377,0.0
1409523495224,-2.08899692423,2.74403841472,-1.91658143155,0.0
1409523495224,-2.46508556971,2.61135902202,-2.22262015695,0.0
1409523495225,-2.9919098764,2.09179511114,-1.5359254116,0.0
1409523495226,-3.71808856913,1.52795651998,-0.395281185381,0.0
1409523495243,-3.46698631306,1.44002371926,-0.636767827285,0.0
1409523495258,-2.86096668629,2.16050372283,-1.32759469263,0.0
1409523495259,-1.98000570633,3.26613292111,-1.8429480722,0.0
1409523495271,-0.914212896384,3.95919302176,-1.33262012499,0.0
1409523495278,0.0862417679364,4.49350271989,0.694108558365,0.0
1409523495295,1.51200702326,6.05557463848,4.85118824422,0.0
1409523495299,6.6302316248,12.02403876,9.61081439832,0.0
1409523495307,22.9870383908,5.2942704953,23.9825510143,0.0
1409523495332,19.0729465363,6.54589747501,23.0039053127,0.0
1409523495333,10.5761369824,4.17964312575,14.9332992032,0.0
1409523495338,2.78815652333,6.91100073213,1.25586859323,0.0
1409523495369,-0.00976966253401,4.91633432493,-5.71187894606,0.0
1409523495370,-0.931159764364,4.85937783098,-2.28043786476,0.0
1409523495371,-3.94702980151,7.13197147679,-1.94806886824,0.0
1409523495394,-5.7376560864,10.6031086867,-3.39862143511,0.0
1409523495395,-7.68935961185,16.7452526527,-4.25390117593,0.0
1409523495397,-6.50568316983,18.8161054729,-4.13624704079,18.8161054729
1409523495406,-1.43845285526,18.3366659032,1.6662059799,0.0
1409523495436,3.38963678073,16.3455373762,3.58802745342,0.0
1409523495437,1.49694758516,9.34786394822,-8.94228897175,0.0
1409523495438,-1.01429761226,6.75177099985,-11.7836893258,0.0
1409523495466,-1.04451354889,5.69538184816,-8.21727467109,0.0
1409523495466,-2.4090651938,5.09888096316,-2.75558431105,0.0
1409523495467,-3.22341064936,5.1999530839,0.626613312453,0.0
1409523495497,-2.42064434624,5.31226818081,0.429412730288,0.0
1409523495498,-1.71187656947,5.9068045325,0.227444890392,0.0
1409523495498,-2.02948460965,7.53080299616,-0.560198438314,0.0
1409523495507,-2.47717799261,9.20644165599,-1.51796446823,0.0
1409523495538,-2.74308078114,10.6519482435,-2.48749112668,0.0
1409523495540,-2.01044854986,10.6042215739,-2.26705629796,0.0
1409523495541,-0.70055897609,9.27715029344,-1.56149161776,0.0
1409523495565,0.198947024561,8.25671951261,-1.31919812601,0.0
1409523495565,0.613693410641,8.02156753347,-1.34788419981,0.0
1409523495566,0.724805629872,8.45270598291,-1.20200805353,0.0
1409523495589,0.508063880904,9.1576785618,-0.64761476041,0.0
1409523495590,0.128406496576,10.6715415325,-0.273904030432,0.0
1409523495606,-0.385034114586,13.3714946391,0.0280711242303,0.0
1409523495607,-0.701259130387,15.8998289215,0.267589786649,0.0
1409523495624,0.0946472297853,15.6010689848,-0.354005231384,0.0
1409523495626,1.38099819396,12.7957152121,-0.740709059681,0.0
1409523495639,2.13309103289,10.1904729126,-0.425216067943,0.0
1409523495652,2.39582712972,9.10517602677,0.35553417912,0.0
1409523495659,2.54172338559,9.43758693938,0.417663679146,0.0
1409523495673,2.93349912413,9.58114672118,0.478465504866,0.0
1409523495688,3.48430656109,8.65156639233,1.83869677555,0.0
1409523495689,3.9660675807,6.68640975692,6.37977360404,0.0
1409523495706,3.86922167535,6.94702858197,4.01410384785,0.0
1409523495707,3.65243793914,8.03112490562,-0.384768180291,0.0
1409523495722,2.97985856865,9.26957119204,-0.566323474958,0.0
1409523495726,1.96935008187,9.32006529879,0.222392617195,0.0
1409523495738,1.57106689066,8.92504846448,0.375011213256,0.0
1409523495755,1.69028772943,9.20054829754,0.658718163171,0.0
1409523495757,1.85185260423,9.82268877642,0.737443950722,0.0
1409523495770,1.82542541717,10.4251147178,0.442807089585,0.0
1409523495788,1.35570353737,11.0113666451,-0.0179856326139,0.0
1409523495789,0.793136868948,11.5824595474,-0.109407282333,0.0
1409523495805,0.362375143868,11.9627383467,0.434321686025,0.0
1409523495806,0.137198166481,12.0791718384,1.39674215429,0.0
1409523495821,0.402254395575,11.6503991349,3.13408772068,0.0
1409523495835,-0.634437126815,10.7035891612,13.1773234974,0.0
1409523495839,-3.24206319001,10.8537836083,18.1436391558,0.0
1409523495853,-2.04309226864,10.5366345902,5.66458916157,0.0
1409523495857,0.54631022175,8.91223312855,-3.94025917069,0.0
1409523495871,1.49640001181,9.26943410236,-7.19382276405,0.0
1409523495892,0.610327396922,10.672256219,-2.41438778884,0.0
1409523495892,0.0882852585065,11.5281548515,-5.15243463516,0.0
1409523495907,0.00129268222605,13.2574143599,-3.44597888052,0.0
1409523495908,0.968770921383,15.430717276,0.658203520321,0.0
1409523495926,3.46997493532,15.2242405733,2.06297228733,0.0
1409523495927,3.62346031898,13.7195069752,-1.74883739515,0.0
1409523495937,0.682462255633,13.3575189512,-3.38554886661,0.0
1409523495956,-0.0999938451811,13.7864492157,-1.5268108865,0.0
1409523495982,-0.671811561952,15.6279630891,3.19011932718,0.0
1409523495983,-1.06177507166,16.6342412335,2.37685261505,0.0
1409523495984,-0.380437571257,15.8174629596,-0.814903843765,0.0
1409523495987,-0.671393046457,14.9317355611,-0.316506429825,0.0
1409523496011,-1.05634280033,13.8508608845,0.903858657888,0.0
1409523496011,-0.717075216645,12.2821468949,0.759880275429,0.0
1409523496020,-0.163407064591,10.2152200488,-1.19863746438,0.0
1409523496040,-0.649901705463,9.29674211046,-5.57603547968,0.0
1409523496040,-1.14986448203,8.77579095976,-8.4538438332,0.0
1409523496058,-1.46592049822,8.88172221522,-8.36569930356,0.0
1409523496058,-2.43796423029,9.85792099072,-6.52032204037,0.0
1409523496072,-2.90528164341,10.3690768522,-4.97918959172,0.0
1409523496092,-3.49163677633,14.6922079852,-4.32698046306,0.0
1409523496092,-2.70588536946,18.8034770002,4.43069943567,18.8034770002
1409523496098,-0.780317256501,17.9784272541,11.6212128377,0.0
1409523496106,-4.15666684928,18.7998495885,7.08102597458,0.0
1409523496122,-7.12204009993,16.4019512484,1.90529238455,0.0
1409523496138,-7.9060352079,12.2859006916,-2.54075680043,0.0
1409523496139,-5.56044617717,10.2578276211,-6.03790981844,0.0
1409523496156,-3.07957491591,10.5360018992,-6.795550279,0.0
1409523496159,-1.77863615912,9.73962257523,-5.30707256228,0.0
1409523496171,-1.14216418801,7.97127009747,-3.5685325439,0.0
1409523496188,-1.57540136882,6.70623549969,-1.87750970548,0.0
1409523496188,-1.33979579908,5.25809770394,-3.38202265345,0.0
1409523496202,-1.12672096915,4.91855649929,-4.33400204517,0.0
1409523496206,-0.9096662958,4.9399339472,-2.94279656541,0.0
1409523496222,-0.582862056934,4.3423515425,-0.149483372759,0.0
1409523496239,0.054217873796,3.76860097142,0.659169344987,0.0
1409523496240,-0.0123204401809,3.16584529226,0.296084987936,0.0
1409523496255,-0.40593155864,2.70766844891,0.033615333286,0.0
1409523496291,-0.562095438432,2.79427752498,-0.852212882349,0.0
1409523496292,-0.71948460736,2.9458795169,-1.55756622234,0.0
1409523496295,-1.05687380531,2.82782179025,-1.55183397554,0.0
1409523496296,-1.4587853735,2.80068349586,-0.964527263455,0.0
1409523496299,-2.91146470047,3.01198201587,0.733355173075,0.0
1409523496308,-4.14103107527,3.55964918223,1.34600624176,0.0
1409523496339,-3.76543237119,3.78815690701,0.474422515278,0.0
1409523496343,-3.07366453675,3.71176606936,-0.565542432289,0.0
1409523496345,-2.66266116897,4.10855212492,-1.66452294716,0.0
1409523496370,-2.044993341,4.69997482459,-1.85169247864,0.0
1409523496371,-1.10681133139,4.88351063276,-0.77179766992,0.0
1409523496372,0.123183646353,5.24503121939,1.92807304141,0.0
1409523496391,8.24268227451,12.8973767532,2.08542437506,0.0
1409523496392,12.1015751247,8.36190045053,19.8337456804,0.0
1409523496398,21.4231144391,-0.0399906447242,25.860773665,0.0
1409523496408,22.4608438045,0.449422576393,23.3278695708,0.0
1409523496428,14.6779569716,1.63636489427,14.1123379341,0.0
1409523496429,1.84511266429,3.65201516624,-3.75452462471,0.0
1409523496442,0.840148726519,3.79188659057,-1.17744322379,0.0
1409523496462,-2.03071665334,4.74895636865,-1.8484870377,0.0
1409523496463,-4.642411364,7.15288651895,-4.27269292563,0.0
1409523496467,-8.71972190848,13.0187994172,-7.63391267649,0.0
1409523496498,-10.5347861998,16.8628401189,-8.4766309907,0.0
1409523496499,-7.05220375204,16.9813323937,-2.43708731956,0.0
1409523496501,-1.20648901359,13.6544339874,3.16733756012,0.0
1409523496509,0.934242214207,12.3497030824,2.97271083899,0.0
1409523496526,-2.45618023977,10.5216329742,-4.29307543589,0.0
1409523496527,-3.07346942252,8.12198156866,-5.01382519716,0.0
1409523496539,-2.03084612889,6.89240939828,-2.14193347967,0.0
1409523496563,-1.67292013171,6.26110401151,-2.26478845111,0.0
1409523496563,-1.37856430754,6.31924781621,-1.46650555047,0.0
1409523496567,-1.21438669314,6.96288702583,-0.939059180688,0.0
1409523496587,-1.60538502659,8.37387239743,-1.30841405833,0.0
1409523496587,-2.29088435701,10.141476771,-2.27504735,0.0
1409523496618,-2.78096835837,11.003872408,-2.70496870041,0.0
1409523496619,-2.34072168835,10.3233907458,-2.0012785461,0.0
1409523496621,-0.689233987403,8.60866119824,-1.17954713031,0.0
1409523496643,0.451415517157,7.69705880107,-0.68547112589,0.0
1409523496644,0.949265163757,7.5558638876,-0.573278689598,0.0
1409523496647,1.13435436368,7.72699932567,-0.452401225519,0.0
1409523496678,1.13179182417,9.03068112114,-0.539014546451,0.0
1409523496681,0.921009102205,12.1552590213,-0.922165751591,0.0
1409523496682,0.567442565474,16.4331609002,-1.52680039964,0.0
1409523496687,0.787707217276,17.768530056,-1.95090571287,17.768530056
1409523496714,1.38054155942,14.7505341751,-1.79785553453,0.0
1409523496715,1.98616187249,10.9046010495,-0.758315148584,0.0
1409523496719,2.33652888526,8.87839564503,0.439337492764,0.0
1409523496741,2.57623382989,8.59946769884,0.807800172842,0.0
1409523496757,2.69885907289,8.64487735615,1.00780164381,0.0
1409523496759,2.84511886179,7.62025849604,4.66705751865,0.0
1409523496760,2.696503227,7.51385061819,6.06789847052,0.0
1409523496767,2.43589974382,8.32124650676,2.19802219576,0.0
1409523496789,3.41381419667,8.75751117806,-0.771755229586,0.0
1409523496790,4.29259917636,8.28383813722,-2.11355226745,0.0
1409523496810,3.41876117597,7.99448778586,-2.60171560945,0.0
1409523496811,2.02321593435,8.62187697943,-0.69762818932,0.0
1409523496818,0.306137426172,9.2707434093,0.607132027321,0.0
1409523496836,-0.423017777056,9.47187395832,1.1757890186,0.0
1409523496838,-0.194412957142,9.81114203811,1.94876729533,0.0
1409523496858,-0.0335911059212,9.9675489802,2.14298269167,0.0
1409523496861,-0.536261100675,9.93949839829,1.85618048631,0.0
1409523496867,-1.14475049642,9.88272362398,1.55874560172,0.0
1409523496892,-1.34406309011,10.02864613,1.23251569972,0.0
1409523496894,-1.02344794556,10.3695793411,1.43223971548,0.0
1409523496899,-0.469063951306,10.6965336687,1.83616650232,0.0
1409523496924,0.0971025029089,10.6924949389,2.13471575768,0.0
1409523496925,0.106445110196,10.7766561035,2.81866663857,0.0
1409523496927,-0.990697311425,11.3703548426,7.5579738574,0.0
1409523496939,-2.28312598785,11.9166427291,11.9156767869,0.0
1409523496959,-1.17352656806,11.7764473896,6.1777485413,0.0
1409523496960,0.760310954635,11.4096302037,2.74705959151,0.0
1409523496967,1.97581352026,11.1110547812,-6.26357917651,0.0
1409523496995,2.60512612476,8.97161246818,-16.1762808972,0.0
1409523496996,4.11162954145,14.42819255,-3.62257119097,0.0
1409523496999,5.60820729599,17.2532485786,6.37696818942,0.0
1409523497024,4.81273745338,17.5666287946,2.06661689902,0.0
1409523497026,3.05644394356,16.4238236941,-2.7431508933,0.0
1409523497028,2.6608645022,14.9256949313,-1.76012469722,0.0
1409523497061,1.54403804802,15.0920394361,0.867094334663,0.0
1409523497061,-0.180876672991,15.3285973015,0.0355259192719,0.0
1409523497062,-0.621483784062,14.5683442474,1.20686489062,0.0
1409523497067,-0.778797693516,13.6219435395,0.921803052787,0.0
1409523497088,-1.43325557645,13.0240299243,-0.693254570908,0.0
1409523497088,-2.58421321957,13.4872279131,0.33185731063,0.0
1409523497102,-4.01377902556,14.129122145,0.486071763989,0.0
1409523497117,-2.94804827448,12.1455954221,-4.89304405648,0.0
1409523497119,-1.43560157495,8.66392088125,-10.181008562,0.0
1409523497134,-2.08192081706,8.0159656878,-10.0664415121,0.0
1409523497151,-2.91938147283,9.31167627126,-7.92826306268,0.0
1409523497151,-3.94776064408,12.7166811062,-6.26914311037,0.0
1409523497169,-3.64641448119,18.6285495104,-3.06914153562,0.0
1409523497169,-0.952839792509,19.5554284949,2.33172201987,19.5554284949
1409523497183,-4.34860311276,17.504142382,11.5085575989,0.0
1409523497187,-8.69432673849,17.316302219,10.4160663444,0.0
1409523497203,-9.91191910456,14.5380259286,0.727086505032,0.0
1409523497218,-7.78489136199,13.1481445742,-4.83198767921,0.0
1409523497221,-2.92134638239,10.3799241903,-6.72062461966,0.0
1409523497233,-0.632722457301,8.72583329525,-6.98831288484,0.0
1409523497252,-0.885864090135,8.6670207979,-5.7243973875,0.0
1409523497252,-1.14133404385,7.63416295389,-4.55377663657,0.0
1409523497268,-0.638376649616,6.60898618822,-4.95426581651,0.0
1409523497269,0.198688973955,5.56889559025,-5.68794721936,0.0
1409523497283,0.687427586524,3.99952609246,-3.5043113098,0.0
1409523497287,-0.165971781972,3.61098165305,-1.41061214159,0.0
1409523497301,-0.935166574276,3.82030967359,0.805194726184,0.0
1409523497315,-0.486080184253,3.82485216732,0.953892185438,0.0
1409523497319,0.0688552701931,3.90905051458,-0.526960754904,0.0
1409523497333,-0.12807413401,4.49522948939,-1.51479588745,0.0
1409523497351,0.0737727941214,4.38901918488,-1.8161591327,0.0
1409523497352,-0.216886117611,3.3219564617,-1.47282145703,0.0
1409523497378,-1.27041535211,2.24622334823,-0.971489091942,0.0
1409523497379,-3.02881293146,1.91991412513,-0.124831320465,0.0
1409523497380,-3.85457923447,1.88809385193,0.0252127209932,0.0
1409523497388,-4.12752848965,2.24256069753,-0.209566473628,0.0
1409523497416,-4.03646560934,2.97755005116,-1.14563514718,0.0
1409523497417,-3.50024485741,3.83545403607,-2.31883838119,0.0
1409523497419,-3.11855341719,4.45544754196,-1.80726703053,0.0
1409523497434,-2.59515317674,5.23797622625,0.26617843737,0.0
1409523497452,-0.874638301949,6.50391038563,2.87348872154,0.0
1409523497453,3.24259001735,9.11415063002,6.48134048361,0.0
1409523497470,10.3525434042,11.634449723,13.1407971854,0.0
1409523497471,19.5271493379,8.70221379945,22.6115987656,0.0
1409523497486,24.1542328324,6.04320364657,22.6024171904,0.0
1409523497488,19.4003861983,9.72119440152,13.6959715061,0.0
1409523497501,11.1064566036,3.83411517264,4.88250644062,0.0
1409523497516,3.59369830756,5.19968685085,2.78487824365,0.0
1409523497521,-0.463138267113,6.65036229847,-4.81569895434,0.0
1409523497536,-0.389090494514,6.16072984006,-2.64529948712,0.0
1409523497551,-2.33311109021,8.62118579242,-1.62536811528,0.0
1409523497552,-5.85304386346,14.2782987113,-3.73317044865,0.0
1409523497566,-6.23594420144,17.1302164236,-8.48775508121,0.0
1409523497567,-2.91410338388,17.845749186,-4.5977679889,0.0
1409523497585,0.802122914627,15.7219333579,1.33412544501,0.0
1409523497588,0.328805491825,10.642701404,-7.27778410411,0.0
1409523497600,-3.14849883137,8.83039947265,-9.2430485518,0.0
1409523497618,-4.40584440352,8.00277835322,-4.68436269481,0.0
1409523497619,-5.35095697637,8.26075536799,1.8394484619,0.0
1409523497631,-5.60906503222,8.56733805796,2.82456059173,0.0
1409523497650,-3.77560682996,6.91455481435,-0.743871626428,0.0
1409523497650,-3.09876932899,6.10177503772,-0.709617082176,0.0
1409523497665,-3.1945699258,6.60095928271,-0.166435178599,0.0
1409523497668,-3.0075983474,7.21240489617,-0.60458266683,0.0
1409523497680,-1.87360325183,6.77006599109,-2.27604471165,0.0
1409523497698,-0.899593369482,6.1045517815,-3.25760565317,0.0
1409523497701,-0.736036211846,5.99711519216,-2.62927396946,0.0
1409523497738,-0.418220639814,6.23574137467,-2.03892836274,0.0
1409523497740,-0.0257806047975,6.87515575927,-1.7299304329,0.0
1409523497741,0.295906658752,7.89623010425,-1.20776111384,0.0
1409523497742,0.727441900851,9.08498340965,-0.814570515062,0.0
1409523497748,0.620202866226,12.398075498,-1.38891959114,0.0
1409523497772,0.0509081932874,18.1112250327,-2.24756152379,0.0
1409523497772,0.468294160338,20.4250466418,-2.24378181822,20.4250466418
1409523497780,1.55772253581,16.972238811,-1.44367146963,0.0
1409523497808,2.05098304788,12.6224529705,-0.176646965383,0.0
1409523497809,2.13578768467,10.0779637712,1.29466951407,0.0
1409523497809,2.42887254039,9.16016123911,2.35613306951,0.0
1409523497830,2.89200830321,8.6899068289,2.54246505338,0.0
1409523497831,3.14062838842,8.34869572189,2.76137381051,0.0
1409523497848,3.47670317706,8.61200940133,3.46382725841,0.0
1409523497849,3.99283157177,8.2814715731,9.5186652153,0.0
1409523497865,3.40662710802,9.67604383204,9.44140199454,0.0
1409523497868,3.39131458352,8.99059987042,3.11072418816,0.0
1409523497883,3.63659964807,7.72826087124,0.376845837004,0.0
1409523497899,4.28426913991,6.64395607416,-1.00536272487,0.0
1409523497900,4.63293673413,6.4617027541,-1.77078607781,0.0
1409523497915,3.22388923948,7.34338323488,-1.51339890731,0.0
1409523497920,1.0705731612,8.27517763854,-1.05238280312,0.0
1409523497932,-0.0731921529774,9.13756592345,-0.509197698569,0.0
1409523497950,-0.446513787131,9.89911683216,-0.199536289934,0.0
1409523497950,-0.974687105476,10.4169184158,-0.197277575829,0.0
1409523497964,-1.7510104657,10.6669601081,0.0392035307904,0.0
1409523497968,-2.2457140306,10.8837323962,0.456005328364,0.0
1409523497980,-2.21733579678,11.149993201,1.36527610724,0.0
1409523497997,-2.12067201825,11.2206436866,4.3371934258,0.0
1409523498001,-2.96977218137,11.1529969262,11.334972701,0.0
1409523498027,-2.25195460872,11.4452882125,9.40142750386,0.0
1409523498029,-0.505066790707,10.33236707,1.29829994288,0.0
1409523498029,0.377186678323,9.51749555873,-3.96974814482,0.0
1409523498058,1.07736327539,10.2247512402,-4.33912068599,0.0
1409523498059,1.28708526282,11.3598767838,1.15176399454,0.0
1409523498061,1.97212973647,11.8421941332,-5.11290149854,0.0
1409523498068,1.55712401647,12.0855314864,-11.0058048187,0.0
1409523498087,1.21332196094,14.3151934808,-4.1790059855,0.0
1409523498088,3.30357833624,15.0921253701,2.81296177153,0.0
1409523498099,4.69830941219,14.3426995338,3.81001652875,0.0
1409523498122,0.759366891257,15.5753523682,-1.0200489092,0.0
1409523498124,-0.0539938803389,17.2905015527,3.13727473092,0.0
1409523498128,-0.599846255232,17.6397373941,0.870320475958,0.0
1409523498158,-0.0761035126658,15.8778731204,-2.54894188721,0.0
1409523498158,-0.27981595926,13.2836168756,0.757691040617,0.0
1409523498160,-1.86777074407,12.8147820846,3.67611782595,0.0
1409523498168,-1.94808101931,12.9001707759,1.67910200661,0.0
1409523498182,-0.983448002579,11.7171744109,-2.98597538279,0.0
1409523498198,-0.279825973768,9.42760471753,-7.28979182454,0.0
1409523498200,-0.852008000183,7.78821551433,-9.19398127283,0.0
1409523498227,-1.74408262572,8.72805684486,-8.41845711805,0.0
1409523498229,-2.13139431964,10.77233495,-5.79354365269,0.0
1409523498229,-2.821915933,13.4936821021,-3.65567985032,0.0
1409523498258,-3.25970669873,17.4211608444,-1.60535016412,0.0
1409523498258,-2.52011037989,18.6333612218,6.01388904536,18.6333612218
1409523498260,-4.30066531501,17.9657884053,10.0276567379,0.0
1409523498268,-7.9552162753,18.5659549168,5.51525721953,0.0
1409523498282,-7.82070086825,15.6005823475,1.1084315256,0.0
1409523498297,-6.36036111709,12.9372879031,-2.91853619846,0.0
1409523498302,-3.98907211249,11.1759402927,-4.19483842987,0.0
1409523498320,-2.18975567821,9.22126441335,-4.89172889941,0.0
1409523498321,-0.753152539932,7.98050891173,-4.66177986259,0.0
1409523498328,0.162992361871,7.33047720111,-4.48237650664,0.0
1409523498354,1.31325208942,6.50613274816,-5.61487441151,0.0
1409523498355,0.718664414332,5.79380200559,-6.0170001577,0.0
1409523498362,-0.128304646222,5.26361180175,-4.41387990662,0.0
1409523498368,-0.884736778558,4.76890399753,-1.80508943889,0.0
1409523498380,-0.0620633420927,4.1083228548,-0.540497053237,0.0
1409523498397,0.643012752841,3.4673247794,0.0681994158264,0.0
1409523498400,0.401640518267,3.3151562122,-0.0400785678346,0.0
1409523498416,-0.392506436548,3.01429719416,-0.484407617487,0.0
1409523498432,-1.058738812,2.77760872108,-0.953604573265,0.0
1409523498433,-1.06948808131,2.74061624657,-1.72894199702,0.0
1409523498451,-1.55310250679,2.39910060737,-1.31530533807,0.0
1409523498452,-2.26534593577,2.34290552802,-1.04332080706,0.0
1409523498465,-3.09440004773,2.05464395314,-0.108617345352,0.0
1409523498468,-3.61484688738,2.24256313048,0.407291497242,0.0
1409523498482,-3.17293239414,2.52020501998,-0.531931552249,0.0
1409523498498,-2.29988286476,2.54257917925,-1.95498619117,0.0
1409523498500,-1.68703102827,3.00750673149,-2.54393724018,0.0
1409523498511,-1.23494572382,3.29845366823,-2.04402486319,0.0
1409523498527,-0.999701109976,4.07048195397,0.552300574985,0.0
1409523498528,0.364249953108,5.64677579261,5.0936310501,0.0
1409523498547,8.59868742772,14.559748732,7.85671494706,0.0
1409523498548,17.0295919341,5.6121587355,25.2732936453,0.0
1409523498569,22.1960356624,2.72403395406,24.882166556,0.0
1409523498570,19.7953308339,7.3888401895,15.9903164237,0.0
1409523498580,9.71674679073,-2.41748331897,10.1061108987,0.0
1409523498603,3.60218598621,4.31551981301,-1.62184465058,0.0
1409523498604,-0.433485653645,3.77586099947,-5.6064644015,0.0
1409523498609,-1.0720748286,4.60161404181,-1.62770055343,0.0
1409523498632,-2.58140490275,5.99586830321,-0.619730533326,0.0
1409523498632,-2.51746528932,5.51901545757,-0.785914932575,0.0
1409523498649,-1.29218221204,3.99143869482,-4.06694868665,0.0
1409523498649,-4.34559463961,5.68873342841,-9.20129379423,0.0
1409523498665,-6.59932128073,10.7610994746,-7.04397240937,0.0
1409523498680,-6.63802674233,12.7483717454,-1.81685416746,0.0
1409523498681,-5.94966426572,13.692182827,1.38792639791,0.0
1409523498695,-5.13822110031,15.7490290669,3.62461364298,15.7490290669
1409523498700,-4.0756893977,15.0041901662,-2.03551629195,0.0
1409523498712,-1.78304535347,12.4651909147,-3.32292890087,0.0
1409523498729,-0.438829918145,10.4300624982,-2.26461259584,0.0
1409523498730,-0.0943711947499,9.20024538886,-0.94585003716,0.0
1409523498744,-0.942441782897,9.17383539091,-0.105767729966,0.0
1409523498749,-1.36358830655,9.43126326925,-0.0505053129,0.0
1409523498768,-0.952390879429,8.84822864969,-0.596331675713,0.0
1409523498769,-0.593563695034,7.80698001491,-1.1670210309,0.0
1409523498783,-0.322674281271,7.22065400897,-1.4762321297,0.0
1409523498804,0.280526496787,7.30677229514,-1.85740838821,0.0
1409523498811,0.923547693445,7.8616028121,-2.57422779609,0.0
1409523498812,1.06906430126,9.35030975448,-2.9792308217,0.0
1409523498834,0.653947501106,11.4623632282,-2.85415860523,0.0
1409523498835,0.321721739721,13.3348422149,-2.24080834619,0.0
1409523498853,0.446607825479,13.7947149907,-1.27331610722,0.0
1409523498854,0.579570993801,12.7988700152,0.229612224986,0.0
1409523498861,0.805352716156,11.5651138904,1.62339382761,0.0
1409523498882,1.04120802497,11.0846528348,2.48092847648,0.0
1409523498885,1.39706545368,10.2787984441,3.34439840819,0.0
1409523498900,2.10751108394,8.5053771872,5.75905945607,0.0
1409523498918,2.18109956317,8.08125120561,4.5786325742,0.0
1409523498919,1.49209336383,8.72576969045,1.81640955221,0.0
1409523498921,1.28762099315,9.35655478248,-1.11371365787,0.0
1409523498929,1.83840596468,8.58140213344,-2.9447736329,0.0
1409523498948,1.77363877739,7.76448255289,-3.38323500284,0.0
1409523498949,0.608591546447,7.11013983591,-3.10855205112,0.0
1409523498968,0.127061973284,7.11661388229,-1.9638248017,0.0
1409523498969,0.215581607034,7.64571524184,-0.0925305793035,0.0
1409523498981,0.75385766947,8.15826541696,1.10766825208,0.0
1409523498999,1.12771347192,8.53292514312,1.71234825245,0.0
1409523499015,0.839375756534,8.81218103843,2.09463618465,0.0
1409523499015,0.0562245313115,8.88011911048,2.36173608861,0.0
1409523499030,-0.606489497064,8.91764032081,2.72125856525,0.0
1409523499031,-0.556819988577,9.23215160103,2.63243053066,0.0
1409523499045,0.0424078441999,9.86642442758,1.69619913888,0.0
1409523499049,0.683716592016,10.8388754986,0.601693486171,0.0
1409523499061,1.15480294061,11.5146633391,0.0292868977118,0.0
1409523499076,1.37453230109,11.5895284316,0.0814985226354,0.0
1409523499083,1.3747008253,11.4167855004,0.320253370333,0.0
1409523499095,1.26714853124,11.2806751484,0.450835825872,0.0
1409523499124,0.876044573515,11.5667772891,0.591065234859,0.0
1409523499125,0.415293955021,11.9968494736,1.21124471077,0.0
1409523499126,0.64123267612,11.9923448852,5.10993115439,0.0
1409523499129,1.47558756419,11.3892882474,13.6879418043,0.0
1409523499148,1.48759698,12.5816070536,7.80510352455,0.0
1409523499150,1.5147516707,13.5445998331,-0.234666245677,0.0
1409523499166,2.0485753935,15.2444997902,-1.43245022532,0.0
1409523499169,2.29997906298,15.8934455542,-8.30785185708,0.0
1409523499181,2.7940770415,14.1699268936,-6.31173315963,0.0
1409523499206,0.999538429921,14.6547250536,4.19597715476,0.0
1409523499207,0.773293165728,16.3819273653,3.05312430947,0.0
1409523499209,2.03559980462,16.0523853576,-1.65871240681,0.0
1409523499234,2.04542407555,16.2175621519,-0.351002785936,0.0
1409523499235,1.4608521869,15.8751031062,-2.59763320943,0.0
1409523499241,0.832412035885,12.4680578706,-3.54976682279,0.0
1409523499249,-0.362979958967,11.4149083861,-2.71019174308,0.0
1409523499264,-1.68519136071,11.998974129,-2.75693998689,0.0
1409523499280,-0.760629845045,11.8943504995,-5.84281612689,0.0
1409523499281,-0.188207358358,9.78114726079,-7.37778610323,0.0
1409523499297,-1.87191277926,9.62468372878,-6.6617656098,0.0
1409523499313,-3.56150758831,11.2976550729,-5.48796414683,0.0
1409523499313,-4.84987766426,14.6544607339,-4.80468908503,0.0
1409523499334,-4.9742198405,19.2012458958,-1.1331042478,19.2012458958
1409523499335,-2.78320832924,18.3518148907,7.38283590991,0.0
1409523499341,-5.8266850256,17.8253634286,9.22104253712,0.0
1409523499349,-8.51642469775,16.0813891577,4.33643272133,0.0
1409523499365,-9.37494972953,12.7339679916,-3.1795560976,0.0
1409523499384,-7.41766074862,11.9343350674,-6.61331044423,0.0
1409523499385,-2.90429830611,9.94753831825,-5.96146846433,0.0
1409523499390,-0.496687659735,8.89957870058,-3.99638101327,0.0
1409523499422,-0.642573748558,8.44502627317,-3.07504200458,0.0
1409523499423,-1.44812967402,7.42999916087,-2.24977339602,0.0
1409523499426,-2.45654634126,6.82663869527,-2.06150320329,0.0
1409523499430,-1.25263622007,5.68917824431,-4.45563784537,0.0
1409523499455,0.131985119351,4.16367337583,-4.52926739106,0.0
1409523499457,-0.49585752888,3.73684979106,-2.16491305267,0.0
1409523499461,-0.814949888296,4.54613251383,-1.39059985654,0.0
1409523499477,-0.383532754758,4.46902459401,-0.667842856042,0.0
1409523499537,-0.285956781162,4.30829332847,-0.564167759048,0.0
1409523499538,-0.419924514666,4.12269638111,-0.283017370406,0.0
1409523499539,-0.697842911828,3.84785200323,-0.408317433659,0.0
1409523499540,-1.11648222237,3.74886073975,-0.929764130029,0.0
1409523499542,-1.51652350316,3.53123211365,-0.916434164107,0.0
1409523499542,-2.63764824134,3.35122565791,0.179827943761,0.0
1409523499545,-3.34705642332,3.54236810156,0.141378351267,0.0
1409523499572,-4.07918075836,3.65339232889,0.189336158146,0.0
1409523499573,-4.02258327679,3.22460095134,0.257260586891,0.0
1409523499581,-3.45442618701,3.41778120776,-0.733250816437,0.0
1409523499584,-2.74144291798,3.8412997783,-1.7370289287,0.0
1409523499616,-1.75879751196,4.22478025928,-1.7189684565,0.0
1409523499618,-0.4082171906,4.14668648275,-0.0055714940549,0.0
1409523499618,1.56736949795,4.14411884526,3.93072412093,0.0
1409523499633,7.00911928711,7.90879440263,10.5686462006,0.0
1409523499634,14.8736275936,10.2478311843,20.0889767651,0.0
1409523499645,23.3199854818,4.43893770313,23.8935598733,0.0
1409523499672,22.0117243096,5.30641649592,20.663873899,0.0
1409523499673,12.5593042804,3.55455032155,9.33061353663,0.0
1409523499674,4.16651470512,7.12091926409,-0.809930016331,0.0
1409523499713,0.575930833174,5.48114953034,-3.25025515709,0.0
1409523499713,0.261671079075,5.3924733884,0.50441729699,0.0
1409523499714,-1.93785632033,6.62955193146,-0.796666233862,0.0
1409523499715,-4.01356143944,8.49197048826,-6.63976053765,0.0
1409523499737,-7.45602581044,13.007065716,-13.6638330467,0.0
1409523499738,-7.17709275458,16.0122338991,-10.4182269903,16.0122338991
1409523499744,-5.09619892764,14.1212123244,-1.62383010209,0.0
1409523499768,-3.74812068376,11.9307228139,1.33177829118,0.0
1409523499769,-4.52964201144,12.3272977614,1.31640921094,0.0
1409523499776,-6.41379191191,11.9013637348,-1.87938269773,0.0
1409523499785,-4.32095369741,10.8039004911,-1.67020887767,0.0
1409523499814,-2.29795753696,8.68479211467,-4.34864391644,0.0
1409523499816,-1.58244146944,6.78318050335,-2.66671446483,0.0
1409523499817,-1.6936759767,8.53234951195,-2.51703844346,0.0
1409523499835,-1.57127207381,9.96379515839,-2.60804960443,0.0
1409523499836,-1.74198856669,10.5980712048,-2.88327122405,0.0
1409523499843,-1.24068934688,9.50079041137,-2.67437371945,0.0
1409523499861,-0.646738015454,7.80833455472,-1.48989088765,0.0
1409523499863,-0.133281364917,6.99115242201,-0.710526325846,0.0
1409523499882,0.130576696792,7.41200090151,-0.790736993164,0.0
1409523499899,0.154863200883,8.17578247879,-0.752259733695,0.0
1409523499900,0.316254948403,8.96444889158,-0.448654080069,0.0
1409523499906,0.79804680528,10.0510235789,-0.590559422824,0.0
1409523499915,0.438121442753,12.7743750484,-0.890855081246,0.0
1409523499929,0.228453170534,15.8262912264,-0.61812843676,0.0
1409523499953,1.07821757799,15.3471739755,-0.189545709361,0.0
1409523499954,1.91084791541,11.8690291819,0.420094454592,0.0
1409523499955,2.19128325257,9.70371577618,1.86496109822,0.0
1409523499962,2.43012823438,9.60124037337,1.68602705334,0.0
1409523499977,2.78534213994,9.64718495266,0.439784502901,0.0
1409523499999,3.24001612996,9.01591966663,-0.0523837412791,0.0
1409523500000,3.24699745769,8.43800663946,-0.694461027041,0.0
1409523500002,2.28872180953,8.7167814543,-1.09752273094,0.0
1409523500011,1.69526928368,8.43267901577,-0.622352104761,0.0
1409523500035,1.46631177475,7.79468201948,0.377274457447,0.0
1409523500036,1.17559276923,7.69282156631,1.25952770698,0.0
1409523500045,0.947044481133,8.23731815469,1.03275946,0.0
1409523500072,1.01499228592,8.87323087743,0.667624673307,0.0
1409523500073,1.18012129923,9.3956015978,0.821760071351,0.0
1409523500074,1.17796487713,9.44630886975,1.53270537874,0.0
1409523500102,1.0149901915,9.35567342509,2.1193809757,0.0
1409523500104,0.872451106221,9.35037519322,2.30494345035,0.0
1409523500107,0.774495920471,9.38588547227,2.16511925084,0.0
1409523500110,0.597690926894,9.63471249747,1.92916323115,0.0
1409523500132,0.474322257466,10.0646409818,1.59123693891,0.0
1409523500133,0.508635378863,10.3900193498,1.26133986411,0.0
1409523500142,0.615324693998,10.6139686718,1.1558007277,0.0
1409523500173,0.632828314748,10.6280239479,1.44656204527,0.0
1409523500174,0.258374169734,10.6160208997,1.95642201702,0.0
1409523500187,-0.651053841908,10.9711862059,4.59814583019,0.0
1409523500218,-2.02881010356,11.4058107901,10.5160211746,0.0
1409523500219,-1.47831446065,11.6198521795,7.50374744161,0.0
1409523500219,0.208133300358,10.8310038596,0.185980449459,0.0
1409523500220,1.58287595223,11.0335843714,-3.35953479374,0.0
1409523500224,2.07810725331,12.7204028772,-2.68488254362,0.0
1409523500232,2.00018957665,14.8644650031,-4.705195259,0.0
1409523500252,2.53493723343,15.9836319626,-9.4085054186,0.0
1409523500253,4.67334831456,15.0461621111,-2.75377825187,0.0
1409523500262,5.04789623144,15.0774473065,1.82035271884,0.0
1409523500277,3.23516296319,15.5554136994,2.61409829254,0.0
1409523500300,2.02483720129,17.3804949967,3.00321321833,0.0
1409523500301,1.05100313719,18.5747979723,-0.0174508405795,0.0
1409523500302,-0.770931249985,17.9619258251,-2.815073483,0.0
1409523500311,-1.57517756621,14.8139996768,-2.35578583597,0.0
1409523500335,-3.09924047376,13.456344028,-0.523354630565,0.0
1409523500336,-4.35244931359,12.6204593939,-0.64643120615,0.0
1409523500345,-3.29078743538,11.3240000377,-3.20835631061,0.0
1409523500366,-0.963942968489,10.1085060959,-7.97854248056,0.0
1409523500367,-2.20321310025,7.28521127909,-6.84623582407,0.0
1409523500370,-3.29184017348,8.52155176634,-5.11163997631,0.0
1409523500402,-4.14146184529,11.1363225453,-4.47583728861,0.0
1409523500404,-4.87912333173,16.8110105067,-2.75518408412,0.0
1409523500405,-4.33667151838,18.5824749821,5.07324489243,0.0
1409523500410,-6.48480574619,18.1151201245,7.73014411444,0.0
1409523500426,-9.42773149159,18.637273217,5.61504211422,18.637273217
1409523500442,-9.11555343108,15.7388162284,1.4948663344,0.0
1409523500443,-8.09711126521,12.786759829,-2.21686423189,0.0
1409523500461,-5.73252254328,11.4867314128,-4.52443019939,0.0
1409523500475,-2.72884809879,10.3635574083,-4.5812893535,0.0
1409523500476,-0.0586300824105,8.57632255931,-4.13503650643,0.0
1409523500490,1.36930552124,7.5795282808,-3.47477255543,0.0
1409523500491,1.31462810573,6.94207425998,-2.06167672592,0.0
1409523500507,0.568690988935,6.84975872728,-1.85817082378,0.0
1409523500510,0.609858430732,6.05596076769,-3.26666859385,0.0
1409523500525,1.39834730967,5.48651719504,-5.40242934459,0.0
1409523500542,1.61932571426,5.9503820849,-6.62693958358,0.0
1409523500565,0.671993923171,5.41188611762,-2.69744291654,0.0
1409523500566,0.201646433666,4.61113823504,-0.571929866026,0.0
1409523500566,-0.190775888333,4.16083345318,-0.158253152429,0.0
1409523500571,-0.476081517386,3.66358922502,-0.460032830567,0.0
1409523500604,-1.2504171056,2.77660932419,0.076715548593,0.0
1409523500606,-1.96528869634,2.43673090505,-0.0215137303517,0.0
1409523500607,-2.21335851679,2.55474746316,-1.26626668574,0.0
1409523500611,-2.52052794373,2.78756004898,-1.58600756232,0.0
1409523500637,-3.17910221645,2.82018563386,-0.863983056859,0.0
1409523500639,-3.46121631659,2.84701018194,-0.822226437349,0.0
1409523500645,-3.24091043078,2.60872941001,-0.526401460747,0.0
1409523500672,-2.42709547026,2.73625514192,-1.11461901604,0.0
1409523500673,-1.61801713793,2.71369024353,-1.09184711441,0.0
1409523500674,-0.868246548558,2.93282678614,-0.64934399933,0.0
1409523500697,0.266211749337,4.07065587326,1.44318105611,0.0
1409523500698,2.93933002054,7.55184952356,4.86322102132,0.0
1409523500705,10.2962236012,14.1093410353,9.1053379077,0.0
1409523500711,20.8786187458,7.38666861147,24.4848026468,0.0
1409523500736,21.8962878354,6.30486469103,24.6151113597,0.0
1409523500737,13.7310622833,8.32776936605,16.1565645315,0.0
1409523500742,6.76567752537,-0.507916087455,4.97208055147,0.0
1409523500767,-0.0705778146208,2.57489549037,-5.55596803663,0.0
1409523500767,-0.249450274125,2.53940547739,-1.93965639516,0.0
1409523500771,-1.09427905773,2.80274949441,0.055474783717,0.0
1409523500804,-3.04966664363,3.84994539485,-0.672203244823,0.0
1409523500805,-5.13401750126,7.08136392636,-5.22825250138,0.0
1409523500806,-8.83175251225,13.5418943212,-10.7141546125,0.0
1409523500811,-8.12197697454,18.1810950011,-7.48483654196,18.1810950011
1409523500836,-5.20186002582,16.265841166,-1.57688682303,0.0
1409523500836,-2.4888567208,13.59016217,3.90727371567,0.0
1409523500842,-2.99411832652,13.4547572263,0.422528555303,0.0
1409523500862,-2.77172745167,11.1315212049,-2.97566946053,0.0
1409523500871,-1.32358484557,9.99218280324,-0.827653977486,0.0
1409523500895,-0.761839914743,8.46071590314,-2.03011310632,0.0
1409523500896,-1.11753784444,6.7239187716,-1.70660320749,0.0
1409523500897,-1.45692936691,7.07692123144,-0.870944547608,0.0
1409523500918,-1.64670615913,8.67863889738,-2.44684181619,0.0
1409523500919,-1.34434399879,9.81181954116,-4.11926805542,0.0
1409523500922,-0.5598324909,8.22513250614,-2.80005072444,0.0
1409523500943,-0.176521155511,7.73826719212,-2.04910216677,0.0
1409523500944,0.429157663543,8.07966365973,-1.43643572719,0.0
1409523500965,0.704584659774,9.07973937632,-0.833630943052,0.0
1409523500966,1.00495382535,9.82826391954,-0.534780195416,0.0
1409523500971,1.34498438845,10.6515221132,-0.726546305964,0.0
1409523501001,1.1453456444,13.1676452904,-0.215180012866,0.0
1409523501002,0.737360821965,15.7484032865,0.583942869007,0.0
1409523501004,0.853328084379,15.2320716515,0.454936154525,0.0
1409523501012,1.47499186629,12.7309736967,0.652224890148,0.0
1409523501035,1.96886535656,11.0953165982,1.33640757322,0.0
1409523501036,2.2986305712,10.6093216113,0.540935932721,0.0
1409523501043,2.82744747258,10.17580857,-0.490179805278,0.0
1409523501063,3.28045066175,9.66145917302,-0.595021980876,0.0
1409523501065,3.28968313759,9.65200693243,-0.449780749121,0.0
1409523501071,2.70984806304,9.74691829139,-0.38646498689,0.0
1409523501097,2.3076867698,8.42623119655,0.00174458454989,0.0
1409523501098,2.39243177885,6.83667444652,0.3888831576,0.0
1409523501103,1.95943325013,6.23949564162,1.02576884883,0.0
1409523501111,0.65937367496,6.47615448992,1.36292974177,0.0
1409523501132,-0.234522187512,7.27494599491,1.47768600005,0.0
1409523501133,-0.0645496701948,8.05749313338,1.95499587823,0.0
1409523501143,0.459756255642,8.80294486622,2.15581322159,0.0
1409523501163,0.88540351829,9.70525912334,2.37185242559,0.0
1409523501164,1.11770786171,10.3705578039,2.65890600251,0.0
1409523501171,1.04907692002,10.3612135349,2.8667501083,0.0
1409523501200,0.691927999645,10.0655411364,2.81579423368,0.0
1409523501201,0.249443264947,9.91714628857,2.5070845097,0.0
1409523501203,-0.0202611489044,10.2693153855,2.23217435399,0.0
1409523501211,-0.243501775269,10.9383434598,2.53581533075,0.0
1409523501225,-0.791038972429,11.3360017592,4.65213367198,0.0
1409523501240,-1.21050131616,11.2540331479,6.58630218566,0.0
1409523501245,-0.990882597305,10.9524526443,4.99234475388,0.0
1409523501256,-0.408726892808,10.3428594588,0.837976790826,0.0
1409523501272,-0.177752986704,10.0630346859,-2.10896585408,0.0
1409523501272,-0.142879554337,10.2198926753,-2.38070424638,0.0
1409523501289,0.132474107698,10.3758251139,-1.65917744591,0.0
1409523501291,0.74988821064,11.0438287352,-3.85563946829,0.0
1409523501306,1.58343241842,12.9719030596,-7.6299587304,0.0
1409523501326,2.80768239916,15.2328166993,-6.26762147683,0.0
1409523501326,4.67656096091,16.1105543593,0.050473298657,0.0
1409523501339,5.16121278666,15.7851857199,2.37847896722,0.0
1409523501343,4.08710244158,15.1293164924,1.64325629347,0.0
1409523501359,2.39207468881,15.3867384577,1.41059880164,0.0
1409523501373,1.07041854039,17.4808092702,3.09906930311,0.0
1409523501373,0.193904256517,17.5562731574,0.459548029699,0.0
1409523501387,-0.285483319533,15.4319891327,-3.91483886876,0.0
1409523501391,-0.634394645366,13.0262874251,-1.83222173608,0.0
1409523501407,-1.8927679047,12.7305905468,2.29832102406,0.0
1409523501420,-2.55106499922,12.2697295412,2.23424279139,0.0
1409523501425,-1.98510965498,11.8946914815,-3.51731170698,0.0
1409523501438,-0.561192889483,10.8170167405,-9.11815530514,0.0
1409523501443,-1.17054503133,8.87305809603,-8.62204637698,0.0
1409523501457,-2.79622208092,8.82520742548,-6.76223648503,0.0
1409523501472,-3.97273601274,10.4132015793,-5.17451485455,0.0
1409523501473,-4.54551628063,13.1842973911,-4.20353518881,0.0
1409523501491,-3.05758763527,19.1306511418,3.1755183741,19.1306511418
1409523501492,-5.19965255769,17.3193272151,11.1568088709,0.0
1409523501508,-8.45787650977,17.7857047799,9.05179720266,0.0
1409523501522,-9.28870807987,14.6220093077,1.59405233834,0.0
1409523501523,-9.19953300041,12.5602228874,-3.52240745716,0.0
1409523501539,-5.73253293531,10.6623712915,-4.92256297583,0.0
1409523501557,-1.94308810638,8.72264090338,-5.29130593209,0.0
1409523501558,-0.71586420986,8.00482849125,-5.08335620793,0.0
1409523501571,-0.53884417637,7.16518965275,-4.26500181705,0.0
1409523501571,-0.973746408255,6.53441914499,-3.00460817689,0.0
1409523501594,-0.269608509427,5.90357327974,-2.94956790698,0.0
1409523501595,0.0944589019745,4.79173191081,-3.31241789758,0.0
1409523501605,0.0238615253489,4.7839612974,-2.89780315559,0.0
1409523501621,-0.265064760759,5.1564149449,-1.15275101607,0.0
1409523501623,0.478768416138,4.39371827033,1.10835212827,0.0
1409523501638,1.25823096361,4.19535945896,-0.0236718358575,0.0
1409523501643,0.957735387773,4.55860391021,-1.60210744595,0.0
1409523501654,0.259097422394,4.57374081038,-1.54965300244,0.0
1409523501671,-0.162667222792,3.81251327723,-1.13304015134,0.0
1409523501672,-1.58775881805,3.17523699169,-0.518912667434,0.0
1409523501688,-2.78659061918,2.69703682872,-0.150195155197,0.0
1409523501691,-3.46955757202,2.31366017715,-0.25959845858,0.0
1409523501706,-3.84137321343,2.26513080495,-0.339210105217,0.0
1409523501725,-3.83781434728,2.66991626673,-0.519601812543,0.0
1409523501726,-3.04323446885,3.12787685818,-1.23239932415,0.0
1409523501736,-2.22866878712,3.35967224407,-1.73036755859,0.0
1409523501743,-1.43848864443,3.96774326958,-1.27530524117,0.0
1409523501754,-0.595807930265,4.67766298508,0.603996471576,0.0
1409523501771,0.577658110525,5.28006950833,4.11625840733,0.0
1409523501771,4.12877970005,8.85251996847,7.06207389686,0.0
1409523501788,12.9444261006,12.4319165385,12.3892855156,0.0
1409523501791,22.5683036076,12.6562958468,21.2378643,0.0
1409523501805,22.874479931,11.9748231615,20.231662382,0.0
1409523501819,15.2065045613,11.1371452138,11.7558107056,0.0
1409523501823,8.08314687052,-1.8892841107,6.99901780685,0.0
1409523501836,0.556202302123,5.80480230461,-4.75727990881,0.0
1409523501859,0.845970366944,5.15715053173,-2.70030665385,0.0
1409523501860,-2.43625512168,6.54673681588,-2.61105600405,0.0
1409523501881,-5.40757440117,9.3234004845,-6.92559726349,0.0
1409523501882,-7.83584580938,13.6564330693,-11.6249588713,0.0
1409523501884,-7.31057498642,15.2397781989,-10.060902104,0.0
1409523501892,-3.88199462516,13.1006560366,-3.33918098352,0.0
1409523501916,-3.06581851315,11.0351401935,-0.713350788581,0.0
1409523501916,-3.689868576,10.70238728,1.12902896342,0.0
1409523501923,-4.24091264105,9.49051370713,-2.82468116061,0.0
1409523501939,-4.07615393062,8.33667218208,-1.16052367506,0.0
1409523501956,-3.22469858567,7.91811303351,-0.870925215722,0.0
1409523501956,-2.19638237843,7.36503523239,-1.87768953234,0.0
1409523501971,-2.28183546129,7.48038408587,-0.208312485352,0.0
1409523501972,-2.42479990279,8.4334532558,0.970718922052,0.0
1409523501985,-2.38796891998,10.0394340007,-0.321101168734,0.0
1409523501992,-1.80364392393,10.5251056789,-2.59039368424,0.0
1409523502006,-1.26195316175,9.50025425319,-3.30485393329,0.0
1409523502019,-0.900137141024,8.11611003588,-3.16626885994,0.0
1409523502025,-0.368118687402,7.27559013225,-2.69399628916,0.0
1409523502035,0.062333648055,7.43302527371,-1.82922634964,0.0
1409523502053,0.610385284665,9.34352825432,-2.22334972514,0.0
1409523502055,1.31109574758,9.85444769991,-2.17864154333,0.0
1409523502078,1.56529466676,11.0504398668,-2.09740570146,0.0
1409523502079,1.44107691748,13.7626111686,-2.40369924158,0.0
1409523502085,1.14482376998,15.3208495583,-1.94397924539,15.3208495583
1409523502092,0.744660470188,13.8774942699,-0.440801302839,0.0
1409523502112,0.483003663305,11.2350752004,1.60049772979,0.0
1409523502113,0.791264976868,9.83878643627,2.20497426764,0.0
1409523502124,1.58882004841,8.27699883617,4.50370118113,0.0
1409523502146,2.47226883446,6.60907201597,10.3018975483,0.0
1409523502147,1.67416586612,9.36646725845,6.39309235671,0.0
1409523502152,2.1113250697,10.9534368467,1.2113809437,0.0
1409523502180,3.05291405119,10.1680447334,-1.35173565711,0.0
1409523502181,4.10800423374,8.88858999178,-3.05877712728,0.0
1409523502184,4.60928861959,8.56464750816,-3.69972701508,0.0
1409523502216,4.35075756093,8.94346092373,-2.9263034669,0.0
1409523502217,3.26875404621,9.78409419572,-1.06100931013,0.0
1409523502218,2.35626479932,10.2032232721,0.950896505829,0.0
1409523502224,1.7881579573,9.76661580042,2.09318949351,0.0
1409523502245,1.27422451192,9.54617197201,2.293576439,0.0
1409523502246,0.825112086006,9.58701282475,2.26294045731,0.0
1409523502252,0.488895831373,9.71212755584,2.51122096319,0.0
1409523502272,0.0218110286385,9.57704853863,3.0491518995,0.0
1409523502272,-1.13447876278,9.45120026032,5.08520478095,0.0
1409523502289,-2.86188867496,9.65931865493,8.75870510712,0.0
1409523502312,-2.96656535117,10.4146753856,8.91480857198,0.0
1409523502313,-0.990118954419,10.6009537779,4.55811027356,0.0
1409523502329,0.846537599931,10.1603902161,-0.27872861252,0.0
1409523502330,1.28228432744,10.1636066662,-2.93879532125,0.0
1409523502332,-0.385395234871,10.4943852489,-2.08753085244,0.0
1409523502356,-2.3535311871,10.8255202041,-0.21233843422,0.0
1409523502357,-2.51559781522,10.8187808353,-0.193798279423,0.0
1409523502369,-1.05656341745,10.4056983496,-1.82302646963,0.0
1409523502372,0.98488730449,10.274642651,-5.32777998264,0.0
1409523502386,2.36117785139,11.7129084472,-6.3410147674,0.0
1409523502404,2.67871190801,14.2264514341,-2.00397462211,0.0
1409523502404,3.66083475897,15.5231451322,4.13866229346,0.0
1409523502420,4.57544868944,15.9971065374,3.43762983554,0.0
1409523502425,4.48672742961,15.7398711823,0.410537432208,0.0
1409523502440,2.68452399802,15.064517653,-1.35486917882,0.0
1409523502458,0.839820781279,15.200902721,-0.267065364311,0.0
1409523502459,-0.16711575761,16.0877928043,-0.125264568041,0.0
1409523502464,-0.20216846788,14.8418541568,-3.3310937905,0.0
1409523502472,-0.157190511091,13.0280208309,-3.47333380403,0.0
1409523502492,-0.60681068274,12.3919647117,-2.67066051692,0.0
1409523502493,0.0799830322428,11.4410131349,-3.3903295951,0.0
1409523502506,0.966505057685,10.4557404995,-5.60996208607,0.0
1409523502522,0.900946598631,10.5416454501,-6.40948784035,0.0
1409523502526,-1.07072799872,9.87540132166,-4.94015471747,0.0
1409523502549,-2.71527848972,9.24962727428,-3.61733463883,0.0
1409523502550,-3.72890493542,10.1581019334,-3.11473421971,0.0
1409523502553,-4.97754790576,12.6557218087,-2.99653140058,0.0
1409523502587,-6.21113254534,18.034968234,-1.78714698721,0.0
1409523502588,-3.26131367542,18.5161518196,5.65062780352,18.5161518196
1409523502590,-2.06307412328,17.9671036194,9.72246984393,0.0
1409523502613,-5.85860915253,18.3921748165,5.88325261559,0.0
1409523502614,-8.32932972827,16.6637554283,1.18185725382,0.0
1409523502615,-9.3713959131,12.6858134807,-1.26394827619,0.0
1409523502642,-6.02988832479,12.5843611033,-3.04131882614,0.0
1409523502643,-3.16020149036,10.9414764311,-3.66982388497,0.0
1409523502645,-2.36795264187,8.72370918222,-3.25710099459,0.0
1409523502653,-2.98720463271,7.04713487622,-2.48353187291,0.0
1409523502675,-3.39351271026,5.73644197451,-2.12579335423,0.0
1409523502676,-1.21014149013,6.01798798035,-6.35744007119,0.0
1409523502686,-0.504821711635,6.35943684347,-5.9015197378,0.0
1409523502711,-0.263327779528,5.49431988597,-2.96051987419,0.0
1409523502712,-0.43300955591,4.2130658951,0.0661931719403,0.0
1409523502713,0.216915846624,3.41328465547,0.919799795841,0.0
1409523502749,0.0361896208056,3.73590486752,0.180186585321,0.0
1409523502750,-0.926009269391,3.96594217509,-0.454839979511,0.0
1409523502752,-1.23304062346,4.11172198069,-2.08111008457,0.0
1409523502754,-1.42829255407,3.86870168639,-1.47323324476,0.0
1409523502781,-1.87727498229,2.92909407356,-0.232861905717,0.0
1409523502783,-2.69586143047,2.20925040355,0.351243516442,0.0
1409523502785,-3.63002041223,1.9774392553,0.550235501447,0.0
1409523502819,-4.06622603429,2.15754173287,0.196645158388,0.0
1409523502820,-3.69835324244,2.23449703125,-0.356772557126,0.0
1409523502821,-3.0639681457,2.36709282344,-1.32122561397,0.0
1409523502842,-2.20398638131,2.65614075449,-2.08878559754,0.0
1409523502843,-1.20119162264,2.57912274968,-2.02033095877,0.0
1409523502845,-0.0376665445088,2.95890732101,-0.884918572014,0.0
1409523502853,1.74991661625,3.79158193459,1.58100436828,0.0
1409523502877,6.7715777464,9.38073663056,3.96132022986,0.0
1409523502878,10.6666276241,8.42443618677,19.9537984855,0.0
1409523502884,20.4564572544,-1.0735822201,26.2855824841,0.0
1409523502915,21.4459969281,-1.94196757454,24.960212219,0.0
1409523502916,19.8278690407,-1.2436738876,14.2257689127,0.0
1409523502916,10.4818462261,-5.75387903751,5.39603284441,0.0
1409523502940,1.01916349435,6.01335344106,-3.18385162109,0.0
1409523502940,-1.82109206447,5.39031531841,-2.080887614,0.0
1409523502944,-5.78424665819,8.32574256887,-5.5197908011,0.0
1409523502953,-11.2269464471,13.4169416626,-11.5650645739,0.0
1409523502983,-12.0317321378,15.6468759914,-7.84614945781,0.0
1409523502984,-6.476391888,18.5385932015,1.87092924651,18.5385932015
1409523502987,2.71607771875,15.7235085481,4.15660711419,0.0
1409523503015,3.15726470979,7.45516991052,-9.53738401688,0.0
1409523503016,-0.366665486694,5.14078239166,-9.59060380102,0.0
1409523503023,-2.41298655717,3.48952160203,-4.79294183944,0.0
1409523503051,-3.50687660483,2.57654559548,-0.712670272433,0.0
1409523503052,-3.69169993681,2.22599713396,2.26313823337,0.0
1409523503053,-3.67144942139,2.53098733799,2.17921653418,0.0
1409523503054,-4.9946433725,4.53038178696,1.12037783917,0.0
1409523503070,-5.72194715102,8.28171669495,-0.58388312684,0.0
1409523503086,-3.81450758364,10.9652333917,-1.6775109852,0.0
1409523503087,-1.28029905253,11.2181614415,-2.62914459664,0.0
1409523503107,-0.656866348085,10.4782545256,-3.23878882347,0.0
1409523503108,-1.04009852393,9.79734500803,-3.27049485784,0.0
1409523503113,-1.07830143658,10.0387864135,-3.10632535639,0.0
1409523503141,-1.11672583556,10.1971176065,-2.29417497304,0.0
1409523503141,-1.04714978651,9.99077935317,-1.57182229389,0.0
1409523503145,-0.47071531394,10.0505246709,-1.72330853928,0.0
1409523503153,0.387388754575,10.5691705358,-2.36037164434,0.0
1409523503176,1.25085150352,11.401388864,-2.8795160497,0.0
1409523503178,1.88774223297,12.1006182322,-1.97744433505,0.0
1409523503185,1.41698362559,11.002886489,-0.689530570836,0.0
1409523503221,0.579354887041,9.78945153641,0.707698076614,0.0
1409523503223,-0.100599528571,8.93575391342,2.07689292918,0.0
1409523503225,-0.0664679903087,9.25007449859,2.7549684179,0.0
1409523503260,0.731239862951,8.23437475385,6.10465749174,0.0
1409523503260,1.57600171271,6.99104446823,8.502108364,0.0
1409523503261,1.08859424771,8.50040162437,3.81997223747,0.0
1409523503262,1.53479530661,10.0825066611,0.186832610283,0.0
1409523503265,3.37180628218,11.0478033315,-2.10029641332,0.0
1409523503289,4.38640847964,10.4048593782,-3.7763304677,0.0
1409523503290,4.59107256493,9.67574689092,-2.36838313809,0.0
1409523503294,4.17939176541,9.5398411776,0.826504703404,0.0
1409523503306,3.22608058898,9.72765406611,2.28900278396,0.0
1409523503324,2.65866871106,9.53123271515,1.90929618765,0.0
1409523503326,2.33294469167,9.49725582544,1.57595385433,0.0
1409523503333,2.14721288832,9.75462355595,1.62881856827,0.0
1409523503351,1.83915728397,10.3925376288,1.49892281567,0.0
1409523503354,1.20148760258,11.4566607927,1.67593374265,0.0
1409523503375,0.342004715482,12.2787616688,5.28856666366,0.0
1409523503376,-1.20442259339,12.2715051319,13.3636939745,0.0
1409523503385,-2.23127497891,12.4504348046,11.5819516307,0.0
1409523503412,-0.561059688054,11.1253143945,2.75487210237,0.0
1409523503413,1.44292944356,9.63987864686,-3.6589859778,0.0
1409523503414,1.39689692716,9.69985329242,-6.29088765577,0.0
1409523503436,0.195328748421,10.7193254114,-4.72004756254,0.0
1409523503437,-0.0856192460591,10.4656563899,0.0835669305172,0.0
1409523503453,0.357942801861,10.1181774229,0.903740339259,0.0
1409523503454,0.942124502874,10.903450134,-5.61885754441,0.0
1409523503472,0.931746545878,12.8360963734,-7.62246672048,0.0
1409523503474,1.3099323684,14.2762678883,-1.89979829665,0.0
1409523503485,2.64543957914,14.9758459831,1.84843809811,0.0
1409523503507,3.82260566109,15.0242557684,1.13322006799,0.0
1409523503508,2.70974226457,14.874392932,0.398853369405,0.0
1409523503514,1.37094406286,14.447491095,-1.18807351471,0.0
1409523503543,0.415989921251,14.9489618129,-0.465476515948,0.0
1409523503545,-1.59443616966,16.4960357207,1.96993777819,0.0
1409523503546,-3.62804370383,17.0313652415,0.853560332568,0.0
1409523503554,-4.07626970927,15.8430909289,0.26420364121,0.0
1409523503580,-3.04219146006,13.8346562771,1.63120824718,0.0
1409523503580,-2.34396619547,12.0245150508,1.8137875992,0.0
1409523503589,-2.02399959061,11.3103597833,0.78053277839,0.0
1409523503609,-1.73558774085,11.4318085557,-1.10471895214,0.0
1409523503610,-1.66492466445,11.2968123043,-3.28393162607,0.0
1409523503613,-1.73243020241,10.2776403906,-5.39131702747,0.0
1409523503636,-1.90937307104,9.33727768037,-6.14153646237,0.0
1409523503637,-2.30751718993,9.26643520403,-5.65073226172,0.0
1409523503655,-3.20364751987,10.6392581506,-4.49416272088,0.0
1409523503656,-4.32975153547,13.92496619,-3.08888245868,0.0
1409523503665,-4.60002957693,18.7221018248,2.00337895272,0.0
1409523503687,-3.00157021122,18.4433223639,8.70032106555,0.0
1409523503689,-2.90923902646,19.272438517,4.59646276625,19.272438517
1409523503709,-3.0849780736,16.3407300679,0.863707567096,0.0
1409523503710,-3.05882796723,12.3249490005,-1.64173053346,0.0
1409523503722,-2.71952009932,10.3454095649,-3.7863727391,0.0
1409523503759,-1.16735970343,9.95286967515,-4.82930843751,0.0
1409523503760,0.675131491577,8.28569458414,-3.42128521741,0.0
1409523503761,-0.0754824634286,7.72326695803,-4.07716793907,0.0
1409523503761,-1.25148209587,7.18616235679,-4.53927896123,0.0
1409523503767,-1.60825022707,5.86089563997,-4.5965399043,0.0
1409523503783,-0.757535633559,4.81746496496,-3.60758714985,0.0
1409523503785,-0.281498164067,4.68472067055,-1.50633122105,0.0
1409523503808,-0.57956846057,4.36930277319,0.432516543541,0.0
1409523503809,-0.948390104337,4.14936241601,0.432789349894,0.0
1409523503817,-1.08784281108,4.49788616118,-0.433395867811,0.0
1409523503836,-0.882110308442,4.13182299298,-0.862393067141,0.0
1409523503836,-1.21668711716,3.44488199124,-0.60990923181,0.0
1409523503848,-1.28299905801,3.1789948867,-1.09644240087,0.0
1409523503856,-2.29761447879,3.29468463724,-0.452169107559,0.0
1409523503878,-2.80154879062,3.47803249955,-0.615827499718,0.0
1409523503879,-3.15246015722,3.50437873888,-0.645968226245,0.0
1409523503889,-3.45789820885,3.34045815762,-0.255213640135,0.0
1409523503906,-3.21677201423,3.06549256499,-0.31856958183,0.0
1409523503907,-2.63190060231,3.01592882855,-0.80593998681,0.0
1409523503914,-1.79101381789,2.9675204004,-1.40058158249,0.0
1409523503939,-0.751729166178,3.14763984859,-0.719903449504,0.0
1409523503940,0.0560148994455,3.35237260489,2.33611517087,0.0
1409523503947,3.80559984834,8.01818175052,5.80599106767,0.0
1409523503969,9.166155308,13.1842036749,15.1323561035,0.0
1409523503970,20.7541507007,2.8529248577,24.8623894976,0.0
1409523503989,22.9770956365,0.90444529957,23.9551177623,0.0
1409523503990,21.8243419036,5.07052521718,13.6770385449,0.0
1409523503995,11.7260129727,1.84046659809,5.21424145604,0.0
1409523504027,3.19785301764,6.03210838683,-2.42637464938,0.0
1409523504028,0.174400038057,6.88169560585,-2.29399258721,0.0
1409523504029,-3.18595060068,8.42978324603,-0.781519531507,0.0
1409523504034,-8.98220919626,13.8675093734,-6.52489109034,0.0
1409523504069,-10.7260165635,15.5894358205,-8.89223550434,0.0
1409523504071,-8.0891479812,17.628324072,-3.90434019327,17.628324072
1409523504072,-0.933979350512,14.4406658922,-0.0199785700109,0.0
1409523504085,1.13006997639,8.34698534987,-6.65447482113,0.0
1409523504087,-1.89539792447,6.05698910021,-7.87688821368,0.0
1409523504109,-2.92353662004,4.94659322759,-3.70137221427,0.0
1409523504109,-3.59220267582,4.38311108944,2.34694659257,0.0
1409523504114,-4.26131722525,4.39866778092,2.15907149753,0.0
1409523504134,-3.66661724426,4.39968656144,-0.0560542978009,0.0
1409523504134,-3.43731863779,5.74602092012,-0.549765886455,0.0
1409523504149,-3.1798711708,8.14661665902,-1.47184008337,0.0
1409523504172,-2.36541818081,9.88358797267,-2.77523621031,0.0
1409523504173,-1.41082534981,10.3562683864,-3.23469847437,0.0
1409523504174,-0.756142596726,10.1199728663,-2.66850300191,0.0
1409523504211,-0.582389069396,9.54929068458,-2.540421975,0.0
1409523504211,-0.685367627378,9.57687717192,-2.33467288458,0.0
1409523504212,-0.883512343924,9.72716566006,-1.62108897353,0.0
1409523504214,-0.826070136488,9.83845507649,-1.36612371605,0.0
1409523504236,-0.536922058722,10.0044413372,-1.88225035191,0.0
1409523504236,-0.128769286336,10.3408241007,-2.35246493333,0.0
1409523504249,0.0521968505801,11.1873250422,-2.53646105128,0.0
1409523504277,0.286142599002,12.560869435,-2.8597200244,0.0
1409523504278,0.635751814904,13.2564185852,-2.76627205085,0.0
1409523504279,0.524567021879,12.0191009822,-1.61357947378,0.0
1409523504286,-0.102400539416,10.8126859158,0.240690863224,0.0
1409523504309,-0.643040769199,8.59356840177,7.76097869885,0.0
1409523504310,1.48801566351,10.6669051018,4.81757698589,0.0
1409523504314,2.57444850298,10.4971963676,2.83133599504,0.0
1409523504341,3.46411254658,9.50607289521,1.20690475228,0.0
1409523504341,3.98339601085,8.4457425593,0.418851765961,0.0
1409523504346,3.90771309464,8.25722686927,-0.188504501151,0.0
1409523504370,3.79395637397,8.45035905528,-0.372934339642,0.0
1409523504371,4.00569767878,7.99467640998,0.28557957113,0.0
1409523504374,2.62143282473,7.71648262335,0.707691757944,0.0
1409523504405,1.780929115,8.3116059757,1.64113736681,0.0
1409523504406,1.13984817011,9.18552711644,2.38238392728,0.0
1409523504407,0.901287473511,9.40181857256,2.71069989161,0.0
1409523504415,1.10336847911,9.37890447026,3.20660985805,0.0
1409523504445,1.5185233739,9.52431832295,3.57191500294,0.0
1409523504446,1.56422619377,9.77778201715,3.76652612306,0.0
1409523504447,0.92980037303,10.0606364189,4.2923728248,0.0
1409523504467,-0.632105800314,10.5016066613,5.3872868024,0.0
1409523504468,-1.32368543529,11.2221479775,5.290457088,0.0
1409523504484,-0.700042838836,11.6587005812,3.11307249443,0.0
1409523504505,0.461354361613,11.5278050733,0.796186367951,0.0
1409523504506,1.24897170186,11.224203636,-0.856841565787,0.0
1409523504507,0.992876771345,10.9968157052,-1.37732972661,0.0
1409523504515,-0.215336059172,11.1263115533,-0.126772350385,0.0
1409523504530,-0.878342183194,11.1188744728,1.23849100345,0.0
1409523504534,-0.884186599795,11.1420981447,0.644318799432,0.0
1409523504548,-0.519908506941,11.6418223246,-1.45353745207,0.0
1409523504565,0.452968022673,13.2277170663,-4.82477280195,0.0
1409523504566,2.22370637594,15.5901163817,-6.71653166485,0.0
1409523504579,5.11698112075,16.1814671076,-3.2856644123,0.0
1409523504601,5.86038861364,15.9911522179,-0.248119595956,0.0
1409523504601,4.91315060528,15.8004113656,0.691955766709,0.0
1409523504614,3.50171086658,16.1156512702,1.82102555041,0.0
1409523504615,2.01341936962,17.8402475001,2.97242712646,0.0
1409523504630,-0.180576948524,17.5656789052,-0.525680435562,0.0
1409523504634,-0.79064834291,15.3446236853,-3.17202343177,0.0
1409523504647,-1.2991106294,13.2264550052,-1.90793599777,0.0
1409523504669,-2.63906557882,12.1453107108,1.48267451529,0.0
1409523504669,-4.28239188808,11.9186618561,0.438058227692,0.0
1409523504689,-3.72782214756,11.529263883,-4.66716272668,0.0
1409523504690,-1.60990869666,10.4402140408,-8.46470298697,0.0
1409523504701,-1.34550482613,8.8002757936,-7.53657305234,0.0
1409523504717,-2.09685411382,8.59450310243,-5.72544688722,0.0
1409523504717,-3.70577645986,10.1134133952,-4.67800237392,0.0
1409523504731,-4.93602077681,13.4866676111,-4.42863150593,0.0
1409523504734,-3.97938717421,18.7062072362,-0.502656837528,18.7062072362
1409523504746,-1.85924222486,17.995908648,8.96490161626,0.0
1409523504765,-5.5739867795,17.7268346047,10.806396334,0.0
1409523504766,-8.63205725883,18.0063405332,5.7589136933,0.0
1409523504781,-10.1569362036,14.9684937014,-0.149600292173,0.0
1409523504801,-8.71957063653,13.2580027257,-4.26125812406,0.0
1409523504802,-4.192247682,10.9369840097,-5.52805274776,0.0
1409523504806,-1.73037598245,9.51911818835,-5.65948622464,0.0
1409523504814,-0.957994034228,8.57823768206,-4.80382413746,0.0
1409523504830,-0.421410896091,6.83787356793,-3.22338606565,0.0
1409523504834,-0.887593071591,5.80939481191,-1.63570953287,0.0
1409523504848,0.351820985584,5.73157412711,-3.4706741363,0.0
1409523504863,1.85208665916,5.35489090432,-4.45602037085,0.0
1409523504866,2.28361158498,4.90483639694,-2.76150047169,0.0
1409523504878,0.848488713241,4.77831219715,0.469937157778,0.0
1409523504896,-0.00352276443632,4.67643996524,0.497574469141,0.0
1409523504897,-0.794311083139,4.52859014059,-0.853514986352,0.0
1409523504910,-1.07307753802,4.07352029486,-1.07196157148,0.0
1409523504914,-1.71618470219,3.67595494651,-0.74920483953,0.0
1409523504929,-2.5276606118,3.34205088941,-0.109200260639,0.0
1409523504946,-2.78075989673,3.06032899093,-0.466553289174,0.0
1409523504947,-3.40331094394,2.68805398742,-0.178160063594,0.0
1409523504970,-3.71059288519,2.67487761264,-0.333608791904,0.0
1409523504970,-3.42977612182,2.80574272328,-0.873897679667,0.0
1409523504975,-2.95829142341,3.01998325585,-1.01714214048,0.0
1409523505007,-2.47932917932,3.16711026322,-0.956246089165,0.0
1409523505007,-1.65373219534,3.54464933863,-0.322828204554,0.0
1409523505008,-0.496378249414,3.95673408536,1.32892104452,0.0
1409523505015,1.3912907244,4.68004589533,4.76544490202,0.0
1409523505031,7.17628408618,10.7321708125,6.68976498702,0.0
1409523505049,14.731682641,11.0743946244,19.1309786895,0.0
1409523505050,23.8159618025,5.01407704867,23.4999750141,0.0
1409523505070,22.8829005213,5.93523466641,19.1051005542,0.0
1409523505071,14.6897260449,7.2817008592,12.0746873026,0.0
1409523505075,4.93325394191,8.52288117064,0.33982158928,0.0
1409523505104,1.01104808801,7.38221122571,-4.63426272366,0.0
1409523505105,0.77325508843,6.45502690834,-0.771412526855,0.0
1409523505107,-2.24636916508,6.52562273445,-0.0598358312385,0.0
1409523505115,-4.24960078025,7.05881485991,-3.10501720306,0.0
1409523505145,-6.67333649941,10.4420438468,-7.51374933438,0.0
1409523505146,-9.80504202138,15.8792434034,-8.9040728064,0.0
1409523505149,-7.52408302698,15.9749367217,-4.46629931225,0.0
1409523505172,-3.97736828316,12.5387529167,-1.4496868046,0.0
1409523505173,-3.47131127513,12.1814835436,-0.422433235123,0.0
1409523505175,-4.74995155337,10.2302519804,-4.22536715657,0.0
1409523505211,-4.15378305689,9.80053174208,-2.59860406806,0.0
1409523505212,-2.48642420365,9.50620902295,-1.50038535359,0.0
1409523505212,-1.64413349303,8.29671164734,-1.80292146111,0.0
1409523505215,-1.50330832208,7.89192445137,-1.3612493869,0.0
1409523505229,-1.77630424119,8.76964109575,-1.3816042777,0.0
1409523505248,-1.83899172743,10.1512064929,-2.17598644748,0.0
1409523505249,-1.50422082624,10.6980539499,-3.03809718286,0.0
1409523505273,-1.28602133653,9.88867015461,-3.24891286251,0.0
1409523505274,-0.728382031389,8.61180701344,-3.09777132127,0.0
1409523505275,0.00946002379592,7.64905956499,-2.49759861958,0.0
1409523505316,0.510381888297,7.27944147353,-1.78671739396,0.0
1409523505318,0.609960642262,7.78317345417,-1.6952119959,0.0
1409523505319,0.691989942332,8.78512787264,-2.10125147096,0.0
1409523505321,1.03526893858,9.80709430617,-1.73430756235,0.0
1409523505344,1.19957277912,12.2336037255,-1.58826145595,0.0
1409523505346,1.08006151144,15.8849830947,-1.94441954757,0.0
1409523505347,0.743238736314,16.9341839429,-1.31389562228,16.9341839429
1409523505374,0.453885229355,15.0731755403,0.322763169935,0.0
1409523505375,0.42864279218,11.8093937988,3.56148879368,0.0
1409523505376,0.924737385646,9.80350064239,4.23189975462,0.0
1409523505411,2.03026853028,8.89115322156,3.62751777075,0.0
1409523505412,3.16217283516,7.85325023398,2.51630306465,0.0
1409523505413,4.06288900079,7.1252513742,2.0474315361,0.0
1409523505416,4.51672489873,7.00190141049,1.49422275436,0.0
1409523505437,3.57853918207,7.80097184105,-0.612532087283,0.0
1409523505438,2.03720037149,8.64125825214,-1.32920051282,0.0
1409523505449,1.33503716714,9.20488850439,-0.623056140102,0.0
1409523505468,1.1052485283,9.47697029818,-0.352220108232,0.0
1409523505468,0.957677843629,9.75333092325,-1.11325435769,0.0
1409523505476,1.93722830381,9.76188220959,-0.868049643547,0.0
1409523505514,1.49466047439,9.54454297539,0.571215452484,0.0
1409523505516,0.773629992416,9.33142433612,1.50885359544,0.0
1409523505517,0.768653269053,9.19842263606,1.72858315396,0.0
1409523505518,0.905422969353,9.06495469623,1.70741486543,0.0
1409523505541,0.89610758497,9.0276884808,1.84825614155,0.0
1409523505542,0.761802450545,9.09049836942,2.08692000438,0.0
1409523505548,0.595041435967,9.1900499664,2.4853246458,0.0
1409523505574,0.63402409625,9.44015142397,3.75632837608,0.0
1409523505575,-0.0212815387438,9.51517056965,8.95860854212,0.0
1409523505575,-1.35364691392,10.5346873158,12.3792583014,0.0
1409523505609,-1.68088782893,11.6257895557,6.39457725494,0.0
1409523505610,-0.589362886716,11.3660074848,-0.929945500199,0.0
1409523505611,0.709880536874,11.290273496,-4.48665270748,0.0
1409523505617,1.12818010433,12.2554380767,-3.37490088416,0.0
1409523505640,0.36196937204,13.8958105711,1.24710455953,0.0
1409523505641,0.316933383864,15.8703880649,-2.35796653682,0.0
1409523505647,2.24525283369,15.812508446,-11.0309974743,0.0
1409523505690,3.98163267456,15.4092957935,-5.55330799351,0.0
1409523505691,5.66200614391,15.3133003568,1.72668658177,0.0
1409523505693,4.90640346198,15.3502523055,2.60163371645,0.0
1409523505695,2.83332075072,15.8188428002,3.57169403059,0.0
1409523505697,1.65790498129,17.1997242052,1.87719973523,0.0
1409523505719,-0.30837859508,17.6581840895,-0.19572335178,0.0
1409523505720,-0.957264408388,15.8902939171,-3.18727922763,0.0
1409523505727,-0.693868278007,13.0729179906,-1.49495275568,0.0
1409523505750,-1.17403008661,12.0711140201,-0.85963521758,0.0
1409523505750,-2.03557919589,11.2170887615,-1.97292456235,0.0
1409523505756,-2.31175698314,9.86147758524,-4.3652449462,0.0
1409523505785,-2.63911351261,9.6788569665,-7.50798809612,0.0
1409523505786,-2.67904768277,9.07140978276,-8.43606029598,0.0
1409523505787,-2.66821102149,8.92919701311,-6.84956662215,0.0
1409523505796,-3.11159456303,9.46877007136,-3.98212964503,0.0
1409523505819,-3.39804779745,10.7620383098,-2.3831100098,0.0
1409523505824,-3.52997421633,13.5459995233,-2.07615140464,0.0
1409523505828,-4.46311100598,18.6952083064,-0.34823300733,18.6952083064
1409523505855,-3.69497837075,17.9734051311,7.92078465151,0.0
1409523505857,-5.39407125116,18.1712358172,7.57035368207,0.0
1409523505857,-7.12169889001,18.4877444879,1.98777898458,0.0
1409523505888,-6.25407650629,14.0163822988,-1.21615470717,0.0
1409523505889,-5.21217308256,11.2283380452,-2.91836199926,0.0
1409523505890,-4.90630304188,10.506870589,-3.5223756701,0.0
1409523505896,-4.58290761289,10.549686753,-2.51877052646,0.0
1409523505923,-2.73043334608,9.45724753191,-1.38537298648,0.0
1409523505924,-0.115699502939,7.82898359388,-2.01221234405,0.0
1409523505930,0.678444080954,6.76300671195,-3.10841763086,0.0
1409523505952,0.533207229109,6.48237679369,-2.76644748828,0.0
1409523505953,-0.442722072691,6.67642872411,-3.0699871046,0.0
1409523505956,0.853285479176,6.36559536433,-3.8386157866,0.0
1409523505986,1.18239932178,4.86566609563,-0.870295123708,0.0
1409523505987,0.918852385481,4.63920578577,-0.843879763365,0.0
1409523505989,0.445381455869,4.79065115913,-0.683354977456,0.0
1409523505996,-0.867866250912,3.75846974117,-0.675309591541,0.0
1409523506019,-1.80915059836,2.90010597848,-0.127319210413,0.0
1409523506020,-2.56378580115,2.5989781801,-0.213230285773,0.0
1409523506028,-3.33494685693,2.62888857181,-0.0961807370065,0.0
1409523506050,-3.51901163705,2.66421074778,-0.599013754967,0.0
1409523506051,-3.51356158301,2.55316869808,-0.965020932933,0.0
1409523506057,-3.30230753787,2.28296319971,-1.15527716402,0.0
1409523506077,-2.89426247122,2.55349962287,-1.45110627842,0.0
1409523506078,-2.07114480763,3.068807717,-1.52066771103,0.0
1409523506097,-0.786930539586,4.05863996715,-0.578955997725,0.0
1409523506099,0.298515259034,5.0656373669,2.96706500892,0.0
1409523506122,3.90493864241,8.57483396957,6.80118972022,0.0
1409523506123,11.1807154346,11.8780027351,15.5347077501,0.0
1409523506128,20.0114702487,3.50540671317,24.9031804036,0.0
1409523506155,21.2481072835,2.4788550398,23.8960227368,0.0
1409523506156,18.3023993068,6.97320185611,14.4184329417,0.0
1409523506157,9.00907087563,-0.0433485228573,6.48211739266,0.0
1409523506188,3.14657049665,5.27676750747,-2.20296063811,0.0
1409523506189,-0.188093568924,6.16840669613,-1.88399681231,0.0
1409523506190,-1.58240368687,5.71888355482,0.890665462973,0.0
1409523506196,-3.60325906633,5.93273105317,-0.22323933706,0.0
1409523506222,-4.13445003209,7.45655556655,-2.70129505211,0.0
1409523506223,-5.37538026859,11.2148062269,-6.85284056905,0.0
1409523506232,-6.87419849339,14.8277088624,-8.73209847485,0.0
1409523506259,-5.02738386881,13.8488254164,-5.97048912659,0.0
1409523506260,-3.7424934403,12.1275056909,-2.76125858919,0.0
1409523506260,-3.35556132731,12.315804181,-1.68272696301,0.0
1409523506281,-3.53252609515,11.7950396128,-4.24321373981,0.0
1409523506282,-2.60894491649,11.296764238,-3.25270800756,0.0
1409523506292,-2.28411217819,10.5008423328,-1.8589729682,0.0
1409523506297,-2.01895950618,8.75863938404,-1.70556568208,0.0
1409523506332,-1.52942807294,7.39151906181,-0.139803357523,0.0
1409523506334,-1.5245857763,7.44959498425,0.59801351634,0.0
1409523506336,-1.85940067219,8.53652612984,0.215632829835,0.0
1409523506338,-1.85890585967,9.62849063316,-0.454817255411,0.0
1409523506368,-1.49212898111,9.53999984541,-1.45934648872,0.0
1409523506369,-1.54783923137,8.72877304189,-1.79068875843,0.0
1409523506370,-1.24568598705,7.87261711651,-1.89995739982,0.0
1409523506377,-0.337268715071,7.22781774072,-2.16816051605,0.0
1409523506402,0.379076997671,7.52104964075,-2.74570693312,0.0
1409523506404,0.452452711105,9.07002825632,-2.67538731749,0.0
1409523506410,0.512517775828,12.028050005,-3.08789364226,0.0
1409523506433,1.11561220773,14.7893836952,-3.9301730102,0.0
1409523506434,1.46956165057,15.1064772839,-3.59973169161,15.1064772839
1409523506437,1.55108569876,13.0762769633,-1.7798976079,0.0
1409523506470,1.41047656548,11.0493252774,0.703722003973,0.0
1409523506471,1.48966452401,10.3276953848,2.64309659504,0.0
1409523506472,1.83811543817,9.54141489116,7.06920551806,0.0
1409523506476,3.008833414,9.01148337642,7.87853920593,0.0
1409523506498,4.12124531528,8.6052058719,5.20091084888,0.0
1409523506499,4.67759606719,8.06221756064,3.65182710234,0.0
1409523506508,4.00759219739,8.51148744976,1.53983216627,0.0
1409523506535,3.57594150026,8.70316947816,-0.833096341668,0.0
1409523506540,3.95675807041,8.00604575219,-2.62233711307,0.0
1409523506542,4.09349817202,7.32351012389,-3.37083138008,0.0
1409523506579,1.4643369392,7.52904901688,-2.02986668026,0.0
1409523506581,0.297694448654,8.81532202905,-1.19311559744,0.0
1409523506582,0.0760027417404,9.8123143105,-0.0887071538007,0.0
1409523506584,-0.19044346905,10.3378644081,0.54885290938,0.0
1409523506609,-0.328306603159,10.4133840217,1.13447472928,0.0
1409523506615,-0.700324197659,10.0753049907,1.60525439778,0.0
1409523506616,-1.24626175745,9.64257178576,1.79826668083,0.0
1409523506637,-1.64820066287,9.8023470969,1.81524368156,0.0
1409523506638,-1.58646976035,10.4642914998,1.78050873138,0.0
1409523506639,-1.0474761478,11.0221496342,1.81705597752,0.0
1409523506664,-0.33110547084,11.2681371089,2.11030011831,0.0
1409523506664,0.0901506152855,11.2822702833,4.69928876225,0.0
1409523506668,-1.73463129496,11.5920881675,15.9181987806,0.0
1409523506676,-2.34796384885,12.9905556913,12.3674055703,0.0
1409523506698,-0.318114711039,11.5996007215,0.757066142532,0.0
1409523506698,1.51230042274,10.9572977169,-3.49424145106,0.0
1409523506710,2.1745437164,12.2995413828,-0.655908355699,0.0
1409523506734,2.29430202174,11.6275064095,-12.0459702958,0.0
1409523506735,2.93475889315,11.3617840127,-13.5875216529,0.0
1409523506737,4.88807608667,12.5733824874,-2.11227949688,0.0
1409523506765,5.31662544994,14.7220774914,4.51422681429,0.0
1409523506766,4.54123119202,16.2269860474,3.85209024484,0.0
1409523506770,3.47068933427,15.8696173515,2.29628724671,0.0
1409523506777,1.83803615911,15.6782410594,1.923015857,0.0
1409523506799,-0.330049268799,16.4894047089,0.317632357746,0.0
1409523506800,-1.04672674977,15.6565820716,-3.27177206855,0.0
1409523506808,-0.554438886218,13.0248756479,-1.63002837757,0.0
1409523506834,-0.269728644312,12.1203470048,-0.126195447294,0.0
1409523506835,-0.888663575155,12.5119975446,-0.808204027844,0.0
1409523506837,-1.01243308093,11.6482801329,-2.80929832432,0.0
1409523506866,0.233573596758,10.6642599639,-7.8322386727,0.0
1409523506867,0.939191601652,10.4148897051,-9.94798802895,0.0
1409523506869,-0.915674670811,8.93883788201,-7.50816257323,0.0
1409523506877,-2.2717295836,8.41582368739,-5.25242742786,0.0
1409523506902,-3.26793006543,9.32666858534,-3.58417117007,0.0
1409523506903,-4.08958487632,11.925505542,-2.54435470359,0.0
1409523506909,-5.26593117162,18.0627996089,-2.11506551455,0.0
1409523506924,-2.08866911621,19.6114851973,2.38064737711,19.6114851973
1409523506928,-3.01586050346,17.9691421497,8.24834478736,0.0
1409523506944,-8.56565624672,17.6188311932,6.43867026236,0.0
1409523506960,-9.98162573761,14.7013503638,2.05120447059,0.0
1409523506961,-9.61262203565,12.6167072991,-1.09814029409,0.0
1409523506976,-6.383705365,11.0669800623,-2.13502626717,0.0
1409523506977,-3.30039873053,9.67686614459,-2.49389379206,0.0
1409523506992,-2.40942737647,9.60183481023,-2.69998421463,0.0
1409523507008,-1.54583570516,8.38294379078,-3.31509701114,0.0
1409523507010,-1.02547995476,7.06672580786,-3.19460650445,0.0
1409523507030,-0.754759902404,6.1266632213,-2.41481048552,0.0
1409523507031,-0.658214440967,5.52142708279,-1.04818915322,0.0
1409523507037,-0.708756724548,5.42213270074,-1.52162089285,0.0
1409523507064,-0.355485424678,5.23935701547,-1.79972834715,0.0
1409523507065,0.138525939316,5.06165797244,-0.976318816443,0.0
1409523507070,0.315080650252,4.41211068792,-0.271711582768,0.0
1409523507077,-0.0975809672872,3.97678647351,-0.288580757366,0.0
1409523507101,-1.07365953472,3.76675064001,-0.313878244496,0.0
1409523507102,-1.41256038304,3.64775607644,-0.952813379292,0.0
1409523507109,-2.29757381403,3.33400455363,-1.8798348086,0.0
1409523507130,-3.31062104112,2.48005946703,-0.263512511902,0.0
1409523507131,-4.13931531141,2.16095220294,0.613721484795,0.0
1409523507137,-3.77848461979,2.12562646305,-0.182901732066,0.0
1409523507164,-3.22341590936,2.31393940396,-0.911928213271,0.0
1409523507164,-2.43278509347,3.09230180732,-1.34663825154,0.0
1409523507169,-1.47537160264,3.95844766715,-0.609657109069,0.0
1409523507177,0.357957091634,5.03824634455,1.25485447031,0.0
1409523507197,2.78550460857,6.29645554367,4.30403783221,0.0
1409523507198,8.63825574181,11.8713433368,5.99149692882,0.0
1409523507209,17.1737653735,9.86278361554,21.383867268,0.0
1409523507233,23.4593478545,6.15002888647,23.6989624588,0.0
1409523507234,19.5637786324,8.16693670206,20.0692114327,0.0
1409523507240,12.5311829457,7.50563179812,8.46468494737,0.0
1409523507268,5.23723506322,5.42623202353,3.62839092559,0.0
1409523507268,-0.883002447341,5.59386596095,-5.32223777978,0.0
1409523507269,-0.60991881168,4.17438344253,-0.914604412053,0.0
1409523507277,-2.24827364856,4.7263771636,0.481370792745,0.0
1409523507293,-3.08321479941,5.57197904684,-1.10702062324,0.0
1409523507314,-3.00025296563,6.99626610745,-3.98538999441,0.0
1409523507315,-5.23169784824,12.1880417127,-8.56574083926,0.0
1409523507317,-6.48471142777,17.1692733316,-9.26793300116,0.0
1409523507352,-5.11147597955,18.5896480894,-3.80180431871,18.5896480894
1409523507353,-2.26548025515,17.1452621774,0.463596518707,0.0
1409523507354,-1.3376933814,13.7117065764,-1.99778562697,0.0
1409523507357,-2.67189550654,10.8329040787,-5.55786135298,0.0
1409523507381,-2.16710374944,8.85883183231,-2.27934051464,0.0
1409523507382,-1.99799104538,6.8999495388,-1.52809347031,0.0
1409523507389,-2.24880073925,5.40972325503,-1.92930863233,0.0
1409523507416,-2.46673185791,5.30120668589,-0.396439217136,0.0
1409523507418,-2.8679898601,6.75506622837,-0.0470668010521,0.0
1409523507419,-2.89926805623,9.33527993249,-1.67256875101,0.0
1409523507459,-1.93032675929,10.4848549158,-2.04027069528,0.0
1409523507460,-0.874596302588,9.88338968041,-1.66467045708,0.0
1409523507463,-0.294033954884,8.99601974356,-1.59830747189,0.0
1409523507465,0.312937214606,8.34261354598,-1.97087052998,0.0
1409523507486,0.824179664597,8.12183710136,-2.1895340367,0.0
1409523507488,0.736438329356,8.82494821188,-2.04494015248,0.0
1409523507491,0.132160354297,11.0172481511,-2.25347281873,0.0
1409523507520,-0.140007714694,13.9246814299,-3.13255941581,0.0
1409523507520,0.0643913777933,15.3390763153,-3.49297128555,0.0
1409523507521,0.783384812457,13.8407574229,-2.60167745688,0.0
1409523507541,1.12621709239,11.3090948163,-0.894909422671,0.0
1409523507541,1.07148271871,9.4448556835,0.684487234141,0.0
1409523507557,0.769361880069,8.83797762867,1.96086750106,0.0
1409523507557,0.749276762758,9.14296796372,2.70051477687,0.0
1409523507572,1.05874249319,8.81152127053,5.10799592707,0.0
1409523507577,1.78375381584,8.3838975602,6.56851410264,0.0
1409523507590,2.27683085197,8.22651573849,5.01839132744,0.0
1409523507606,2.5483293785,8.28093495418,4.44966385577,0.0
1409523507611,2.20785173943,8.56382173862,1.51028723623,0.0
1409523507626,2.69417412746,7.57189558648,-0.0436133014679,0.0
1409523507642,2.95413178945,6.61130604038,-1.38933777955,0.0
1409523507642,2.66759050583,6.52790152832,-2.61898271146,0.0
1409523507666,2.28837332001,7.69602420095,-2.57544363075,0.0
1409523507667,1.25652252535,8.59034014815,-1.1839288902,0.0
1409523507671,0.71416566539,9.05492144015,0.103868145008,0.0
1409523507694,0.232275880734,9.21805374473,0.762248672223,0.0
1409523507695,-0.391759415931,9.51008959336,1.04081713345,0.0
1409523507711,-0.7490168365,10.0125313848,0.854934633464,0.0
1409523507712,-0.421298308756,10.6283528926,0.41047008596,0.0
1409523507718,0.104404263965,11.2812604724,0.197039315938,0.0
1409523507742,0.472654029661,11.866373797,0.327436441211,0.0
1409523507743,0.720084662489,12.3910432162,0.710547295351,0.0
1409523507759,0.790705323842,12.7788447774,1.37279216204,0.0
1409523507762,0.686906235426,12.7963501314,2.19468632259,0.0
1409523507778,0.207778314326,12.251410279,4.47382639442,0.0
1409523507779,-1.76588816493,11.0872880771,16.2112755017,0.0
1409523507791,-2.70032707134,11.6294125443,13.5643062095,0.0
1409523507820,-0.866709843667,10.2601079414,1.66801190788,0.0
1409523507821,1.35932583193,9.6915437491,-3.65122458445,0.0
1409523507822,2.92690470926,12.0550030878,-5.82064253471,0.0
1409523507847,3.12038093283,14.5321676578,-12.8127978891,0.0
1409523507848,4.19893042588,14.5373883819,-3.24167092156,0.0
1409523507852,5.17894765776,14.9966678844,4.76659010959,0.0
1409523507858,4.91380472799,14.5955938701,2.59110138881,0.0
1409523507890,0.918017248558,14.8249188235,-1.55031077781,0.0
1409523507891,-0.396877531373,15.9417351703,-1.99001859897,0.0
1409523507892,-0.441900922129,16.4430150509,-0.594126422709,0.0
1409523507921,-0.663043697679,15.9521188542,1.01878372423,0.0
1409523507923,-0.486103341395,15.0354264865,1.2737341384,0.0
1409523507924,0.704406207369,14.1104232433,-0.819129491125,0.0
1409523507961,0.46349560528,13.156099455,-2.02166060526,0.0
1409523507967,-1.36554781324,11.9671827388,-2.21789257778,0.0
1409523507968,-1.88106144571,9.95613751795,-4.63978384395,0.0
1409523507969,-1.54452901817,9.22965100176,-7.35974117886,0.0
1409523507972,-1.21261698975,8.22443510797,-7.81223003087,0.0
1409523508011,-2.15585490148,8.83849436249,-6.17808099253,0.0
1409523508012,-3.56226752589,11.0636093424,-4.74054176877,0.0
1409523508012,-4.61421487523,13.8740465245,-3.90753309309,0.0
1409523508013,-4.29311741578,18.7531540417,-2.12314509199,0.0
1409523508018,-1.58160285432,18.8040583174,5.63229076562,18.8040583174
1409523508045,-4.24397037274,17.7435693473,10.0286895556,0.0
1409523508046,-8.62439968891,17.8830047259,7.45261565278,0.0
1409523508049,-9.73731104348,14.7156238398,0.846378112199,0.0
1409523508090,-8.62620875146,12.8264906244,-3.60855324766,0.0
1409523508094,-5.71577155449,11.2924660963,-3.81979189608,0.0
1409523508095,-3.15300190777,9.48209321361,-4.40178932123,0.0
1409523508096,-1.17136110352,8.88287752465,-4.24947688902,0.0
1409523508120,-0.204147993971,8.24241011771,-3.12357037278,0.0
1409523508121,-0.807421020711,7.18792733313,-2.63182957333,0.0
1409523508122,-0.943157622961,6.31599379024,-3.12760224119,0.0
1409523508138,1.06436866096,6.1437510338,-6.38064549464,0.0
1409523508139,0.0736641215878,6.45582458989,-4.50416464691,0.0
1409523508159,0.165766094189,5.31980491567,-1.30028619915,0.0
1409523508159,0.769675590253,4.60962656815,0.482618948764,0.0
1409523508169,1.29783671946,4.61526780199,-0.0423235377062,0.0
1409523508194,0.5780243735,4.48275533753,-0.366249206562,0.0
1409523508195,0.249584047374,4.25465284843,-0.878411221304,0.0
1409523508198,-0.680245257278,3.72797826103,-0.327794889166,0.0
1409523508226,-1.09146787263,3.30071159639,-1.18741693902,0.0
1409523508227,-1.68710745443,2.23225129604,-1.08326637216,0.0
1409523508230,-2.83249034177,1.83072585702,-0.132045474035,0.0
1409523508238,-3.23157172695,1.67593390198,-0.47594606127,0.0
1409523508262,-3.08724642211,1.53613823218,-1.09743586556,0.0
1409523508264,-2.69674501697,1.74805376481,-1.50316871298,0.0
1409523508271,-2.01248556021,2.18403470454,-1.7849989087,0.0
1409523508288,-0.923658029102,2.72908421915,-1.40466566552,0.0
1409523508289,0.182165242376,3.11697025411,0.456371111808,0.0
1409523508307,1.21918962181,4.45244547786,4.77589091833,0.0
1409523508321,5.64593121808,12.9971543014,6.85227015678,0.0
1409523508321,13.2685535326,9.27393685438,22.8010736439,0.0
1409523508339,21.9210292481,4.41991125142,25.1393098973,0.0
1409523508339,18.5494580902,5.90877755019,22.4672392895,0.0
1409523508356,12.7242944259,8.45483003032,13.9644319401,0.0
1409523508358,2.54145211532,8.953135416,-1.89490815007,0.0
1409523508370,1.08425147705,5.38386466482,-1.89841268704,0.0
1409523508389,-2.05975089583,5.15182666641,0.86306561882,0.0
1409523508391,-4.25037178296,4.56249483743,0.510621291154,0.0
1409523508403,-5.8878207458,6.78312176799,-2.34636432037,0.0
1409523508419,-7.90051455925,13.0318935591,-5.95550795784,0.0
1409523508420,-8.90934042743,16.9478657755,-8.27139877229,0.0
1409523508438,-7.57736045217,17.4025830779,-5.50407084249,17.4025830779
1409523508439,-0.927151846433,15.8402831698,-0.581857876344,0.0
1409523508455,1.36466311985,11.8510666948,-5.40257032152,0.0
1409523508458,-0.0348645527489,9.18730933351,-9.41401535942,0.0
1409523508471,-1.17052448667,7.328499943,-6.48286827298,0.0
1409523508491,-1.5888340599,4.89407383132,-2.62231171208,0.0
1409523508491,-1.59011831317,3.8769345043,-0.566928146009,0.0
1409523508504,-1.64673785086,4.22759912931,-0.0370750901181,0.0
1409523508521,-1.58515335767,5.48061494594,0.332317792618,0.0
1409523508521,-1.35963817407,6.87386102099,-0.1022006283,0.0
1409523508535,-1.35662182938,7.94061503749,-1.83368868687,0.0
1409523508538,-1.32667486283,8.7359469589,-3.05967580076,0.0
1409523508559,-0.878828396841,8.93369637898,-2.90958643663,0.0
1409523508560,-0.288509282559,8.84087532854,-2.12891522754,0.0
1409523508571,0.368829102318,8.96822444503,-1.68173215279,0.0
1409523508589,0.820117612941,9.52295623255,-1.52592037453,0.0
1409523508590,0.680141390126,11.4438713255,-2.06970440369,0.0
1409523508607,0.199289232958,14.7836038695,-2.42871022504,0.0
1409523508620,0.18506548135,16.6851967767,-2.47317606527,0.0
1409523508620,0.517897441593,15.2977244912,-1.85306063625,0.0
1409523508639,0.653887865432,12.485450321,-0.591180510883,0.0
1409523508640,0.784096313653,10.2092827271,0.650182859626,0.0
1409523508651,0.681465043049,9.29296991668,2.44785472453,0.0
1409523508684,0.597441008152,8.46776550266,6.24654516544,0.0
1409523508684,0.946887355964,8.92580268071,5.64302385202,0.0
1409523508685,1.29656400193,9.35302244522,2.93487967043,0.0
1409523508703,2.06950193888,9.16905199438,1.01580863007,0.0
1409523508703,2.41444853249,10.1167401667,-1.06187643823,0.0
1409523508719,2.9697483433,9.84727916159,-2.16623532807,0.0
1409523508719,3.27146771489,9.02890324459,-2.34667420895,0.0
1409523508736,3.61509389697,8.47503552762,-2.83233637962,0.0
1409523508738,3.55590957309,8.48007684258,-1.92882576046,0.0
1409523508753,2.38268340796,8.67158402302,1.20248298347,0.0
1409523508766,1.32978743383,8.37460223671,3.5578401292,0.0
1409523508770,0.660806557747,7.89472772281,3.10686084826,0.0
1409523508783,0.825402454667,7.99759259571,2.82338175416,0.0
1409523508790,0.971782950743,8.32728658285,2.72283863104,0.0
1409523508801,0.750072112693,8.98217094346,2.36165707199,0.0
1409523508818,0.22979530138,9.69764860445,1.78552086837,0.0
1409523508819,-0.358383043837,10.5672212473,1.60122866884,0.0
1409523508837,-1.07409066032,11.6471028536,2.94497642618,0.0
1409523508838,-2.5804516764,12.3340647557,9.51712873354,0.0
1409523508855,-2.9911384751,12.7340185123,12.1040524238,0.0
1409523508869,-0.835730088551,12.126981116,4.69338020854,0.0
1409523508871,0.96304669847,10.9029131556,-2.83134472769,0.0
1409523508888,0.951963614302,11.0906736522,-5.68746240018,0.0
1409523508891,0.335973025527,11.3669261964,-2.25404471899,0.0
1409523508903,-0.0719389407215,11.1591654863,0.466607777487,0.0
1409523508917,0.551117194332,10.9586020949,-7.05127985728,0.0
1409523508918,1.28808821462,11.9240410236,-7.37019631422,0.0
1409523508936,2.25412541602,14.4382698182,-1.27430454695,0.0
1409523508938,4.7394814632,15.0092446553,2.95283611555,0.0
1409523508952,5.84743525207,15.2353317163,1.17348763877,0.0
1409523508975,3.71222758207,15.2625160931,-0.823367310843,0.0
1409523508976,1.43563636268,14.9688883619,-0.0932141939969,0.0
1409523508978,0.137022963556,14.8545378058,2.35315258634,0.0
1409523509009,-1.10478467632,15.4617873209,0.604818905533,0.0
1409523509010,-0.750578518207,14.3595826744,-0.885547315381,0.0
1409523509011,-0.373207278972,13.8057430811,0.648671690537,0.0
1409523509019,-0.53550839774,13.8709469097,1.01895153418,0.0
1409523509037,-0.869599072102,13.4421203246,0.103130550227,0.0
1409523509039,-0.671441147599,11.5998161512,-2.58427482603,0.0
1409523509056,-0.565239097239,10.3264524184,-6.74481801957,0.0
1409523509058,-1.20686917699,9.08660620468,-7.68538918772,0.0
1409523509070,-2.17463194444,8.68314379042,-6.96067340548,0.0
1409523509088,-3.51948362613,10.061264758,-5.80366465562,0.0
1409523509105,-4.86162237561,12.7319978255,-5.01569462098,0.0
1409523509106,-4.82981096017,17.4412725933,-4.20246706466,0.0
1409523509122,-1.78153392422,19.5715570592,2.20375144956,19.5715570592
1409523509123,-1.39667747353,17.9084442211,9.97690236108,0.0
1409523509137,-6.78814024521,17.5270276274,12.2060628524,0.0
1409523509138,-11.4950588981,15.8666650442,6.28034859885,0.0
1409523509151,-10.523936626,14.5528175594,-1.30184287123,0.0
1409523509167,-6.49523707141,12.410660282,-4.52240585016,0.0
1409523509173,-3.10658826289,10.9412651364,-6.06618672489,0.0
1409523509183,-1.96340805784,9.30082705743,-6.55946742891,0.0
1409523509203,-1.81374425458,7.58995234209,-6.80440739569,0.0
1409523509203,-1.47333347822,5.70352700848,-3.54374207964,0.0
1409523509216,-0.0948844846271,4.50512440745,-3.08937364695,0.0
1409523509219,0.0801935568937,5.27402625077,-5.44264796035,0.0
1409523509235,0.093783046952,6.13989831576,-4.98657171801,0.0
1409523509239,0.20283393669,4.97846053809,0.185670908118,0.0
1409523509251,1.15269319129,4.4629140806,1.75974034243,0.0
1409523509267,1.36984351604,4.54348506477,0.789523821348,0.0
1409523509270,0.0822515110594,4.33285908541,0.487281934435,0.0
1409523509284,-0.331764107936,4.71314445839,-1.36875220397,0.0
1409523509302,-0.926755325307,4.1870344565,-1.001014013,0.0
1409523509302,-1.16200333171,3.84508129714,-1.35254939588,0.0
1409523509319,-1.46115158523,3.20167866347,-1.15404002565,0.0
1409523509319,-2.95817232641,2.60564907265,-0.000525590140621,0.0
1409523509336,-3.44266321089,2.09914076551,-0.285235656334,0.0
1409523509339,-3.08951908218,2.07615938356,-0.772829625989,0.0
1409523509356,-2.37444658652,2.22180633266,-1.35473391054,0.0
1409523509359,-1.7608287563,2.0920596541,-1.90139534788,0.0
1409523509374,-1.14126019673,2.26906758024,-1.65067107175,0.0
1409523509392,-0.350023008147,2.51444031638,-0.0227028342305,0.0
1409523509393,0.581963706662,3.29812908743,3.66811202459,0.0
1409523509399,5.39604698964,11.3837585257,5.72363380724,0.0
1409523509430,14.0690585497,8.13977407029,22.9053696488,0.0
1409523509431,22.3746773365,2.89011118594,25.3819640535,0.0
1409523509432,18.9185421643,4.48237747407,22.9587168506,0.0
1409523509463,12.5461304708,4.77046222968,13.9746973637,0.0
1409523509463,4.14135400676,8.11716768504,-2.57981368832,0.0
1409523509464,1.5175455379,5.47960683524,-3.2484898099,0.0
1409523509473,-1.13428411123,4.95728440002,0.351328749437,0.0
1409523509493,-4.36453355673,5.68831175385,0.0805492636378,0.0
1409523509494,-5.86656972112,7.7589949619,-3.772147101,0.0
1409523509499,-8.06496978175,13.5695940616,-8.63800399131,0.0
1409523509540,-7.84438138672,17.0157421417,-8.38344164251,0.0
1409523509541,-4.32644288966,16.9709286138,-2.36502823229,0.0
1409523509542,-1.88702407574,14.7435277462,-1.08852609132,0.0
1409523509543,-2.22742061402,11.4837255032,-5.17015920968,0.0
1409523509551,-2.8297583056,9.32486164235,-5.79469275941,0.0
1409523509575,-3.08253435783,7.96625432548,-3.16522538751,0.0
1409523509576,-3.06435670528,7.63010331512,-1.43096032886,0.0
1409523509579,-2.55419009558,6.74594460355,-1.05577270732,0.0
1409523509607,-2.71812669608,6.53868672123,-0.673284884333,0.0
1409523509608,-3.26617224039,7.53633816418,-0.260009480363,0.0
1409523509611,-3.32724968717,8.9620724537,-1.17571264056,0.0
1409523509619,-2.47670358158,9.19997535614,-2.40356154902,0.0
1409523509635,-1.56062223281,8.63434776284,-2.99425780456,0.0
1409523509663,-0.513881205178,7.48857657999,-3.11809622208,0.0
1409523509664,-0.0140867955636,6.93625212098,-2.73746286727,0.0
1409523509665,0.167368702476,7.1256675924,-2.04498698106,0.0
1409523509673,0.488545887934,7.53427373929,-1.85398360465,0.0
1409523509690,0.813801435457,7.89158656819,-1.63947864928,0.0
1409523509691,1.15477341513,9.19078973076,-2.12389459493,0.0
1409523509700,1.15942403573,12.9109924539,-2.9601265222,0.0
1409523509726,0.954222462586,17.0307099663,-3.71402223191,0.0
1409523509727,0.769109329189,17.2338968911,-2.70227940025,17.2338968911
1409523509731,0.635558242276,14.1323086179,-0.605508078105,0.0
1409523509757,0.384498791701,11.1465818871,1.51976744797,0.0
1409523509758,0.551334896654,9.76304059683,2.98444703849,0.0
1409523509760,1.19611935207,8.07351207933,6.83003984126,0.0
1409523509793,1.90964457878,6.49109355653,11.2157982077,0.0
1409523509794,1.72266543189,9.13478128758,5.77150598704,0.0
1409523509795,2.72694312357,10.9798936907,0.597913421043,0.0
1409523509800,3.98914078571,9.86235716879,-1.43571381787,0.0
1409523509831,4.60679203511,8.57351639478,-2.87725043656,0.0
1409523509832,4.95668892975,8.11999869351,-3.49397278526,0.0
1409523509833,4.30551759612,8.0876748107,-2.51086799279,0.0
1409523509858,2.09203587762,8.58998550987,-0.549859404406,0.0
1409523509859,0.94617358233,8.87707834252,1.08637682028,0.0
1409523509860,0.694129589891,9.18172572212,2.37196632369,0.0
1409523509871,0.751478152647,9.43378520752,2.98748149436,0.0
1409523509891,0.623249181138,9.14500274855,3.37820224706,0.0
1409523509894,0.361752631655,9.18301603833,3.03079330121,0.0
1409523509900,0.0552490738358,9.48566461389,2.48972725778,0.0
1409523509940,-0.285068446052,9.95818286697,2.1696713229,0.0
1409523509941,-0.970542244405,10.6301357912,3.90445838456,0.0
1409523509942,-1.93256360429,11.3466971793,7.71431383101,0.0
1409523509943,-1.84117946027,12.0012950828,8.13529103486,0.0
1409523509954,-0.505879147255,12.0840315499,3.7784434038,0.0
1409523509973,0.731849262932,11.4924968767,-1.0221136657,0.0
1409523509974,0.447217005231,11.4431677632,-1.96714793813,0.0
1409523509980,-0.514077091654,11.9133097948,1.01142260754,0.0
1409523510010,-0.058170809377,12.0529750701,0.188230013022,0.0
1409523510011,1.64489719759,10.9794896828,-9.28320576057,0.0
1409523510014,2.74298895312,11.604562492,-8.65335084695,0.0
1409523510022,3.2356939307,14.1054507004,-2.31912589385,0.0
1409523510052,4.67728885441,15.6609894285,2.98067402091,0.0
1409523510055,5.61100994883,16.3815902719,4.02980250083,0.0
1409523510056,3.93498594303,16.0868690295,-0.513573980899,0.0
1409523510074,1.21703288138,15.6043066511,-1.63821968617,0.0
1409523510080,-0.678851820858,16.1960764459,1.64801508861,0.0
1409523510080,-1.75820247461,16.5481530287,3.08158028649,0.0
1409523510116,-1.91409832658,15.2552939823,0.829954730174,0.0
1409523510117,-1.69872516616,13.3856183187,-2.08460665981,0.0
1409523510117,-0.609338918331,12.6797242696,-3.92108943243,0.0
1409523510120,-0.416045058248,12.354093342,-2.95720047483,0.0
1409523510134,-0.69230731356,10.7733272101,-2.70224327192,0.0
1409523510151,-1.12582306826,10.8874127683,-5.31695528576,0.0
1409523510152,-0.791307717771,10.4346899938,-6.50492265913,0.0
1409523510175,-1.54200968442,9.49595835026,-5.91639812559,0.0
1409523510176,-2.77823505717,9.58059026559,-4.74267359119,0.0
1409523510180,-4.09789846878,10.8744657719,-3.86354927337,0.0
1409523510215,-5.27781254252,14.6962849332,-3.04771355892,0.0
1409523510216,-5.4866467172,18.9240173759,1.92728983789,18.9240173759
1409523510218,-2.38857169626,18.1794207384,8.44086777207,0.0
1409523510222,-3.48422617871,18.6357261961,7.02765337864,0.0
1409523510248,-6.16538655182,17.4739714556,4.31074424747,0.0
1409523510249,-7.44499312866,13.7557497289,-0.0823198745104,0.0
1409523510255,-6.54584181478,12.074225814,-2.97617436042,0.0
1409523510268,-3.98458608002,11.0915165102,-5.05105602344,0.0
1409523510282,-2.1768388956,10.356447129,-5.27690990134,0.0
1409523510283,-1.25142204183,8.46701996126,-3.97774273061,0.0
1409523510300,-1.4745687302,6.75478641843,-3.66125569633,0.0
1409523510300,-1.68633818144,5.55665895197,-2.71994182111,0.0
1409523510325,-1.05814252379,5.03879864791,-3.97980196643,0.0
1409523510326,-0.167177984831,5.46842128062,-5.52471528206,0.0
1409523510332,-0.044979784327,5.23025615119,-1.9168414687,0.0
1409523510357,0.683199021161,4.11426963325,0.760111086471,0.0
1409523510358,1.38523124181,4.14031658875,0.461915904385,0.0
1409523510360,1.11882435226,4.41389156648,0.00740347778829,0.0
1409523510385,0.0199879369963,3.96041727196,0.41859878818,0.0
1409523510388,-0.911338605664,3.79518946449,-0.127545469337,0.0
1409523510408,-1.50760201172,3.81228621288,-0.765063743172,0.0
1409523510408,-1.96586481582,3.79874720191,-1.35842279434,0.0
1409523510412,-1.9898246812,3.55511197201,-1.37174215585,0.0
1409523510443,-2.72680859514,2.95181836644,-0.485342568017,0.0
1409523510444,-3.50350872157,2.8945892076,-0.388327005777,0.0
1409523510445,-3.06359645039,2.51735488051,-1.37330269798,0.0
1409523510452,-2.45685524251,2.67884726109,-2.02631085041,0.0
1409523510468,-1.70773796506,3.26809727531,-1.90699096338,0.0
1409523510487,-0.593330340539,3.89797046555,-0.410321015818,0.0
1409523510488,1.09600317061,4.66628198057,3.8380628866,0.0
1409523510494,7.22800776081,13.9774249109,4.11882066989,0.0
1409523510500,11.1659773146,8.62751677126,22.6866621387,0.0
1409523510524,21.3086319084,2.58630192606,25.8545858357,0.0
1409523510525,20.5467129747,3.90168142569,22.3901183788,0.0
1409523510532,16.0472146714,7.24158940749,12.2559019192,0.0
1409523510555,5.33971397797,8.62771683366,0.500263755132,0.0
1409523510568,0.923020814215,6.14106573141,-3.39873955352,0.0
1409523510570,-1.26395577123,5.84572061098,-0.544793093598,0.0
1409523510587,-3.87343865409,6.50198263503,0.380580727055,0.0
1409523510588,-6.00802933411,8.88099670747,-3.5263761536,0.0
1409523510592,-8.9948924879,14.7884543433,-7.16665494935,0.0
1409523510600,-8.43851145124,17.1773865855,-6.86042206272,17.1773865855
1409523510621,-3.80439307465,14.5364214733,-1.97420846421,0.0
1409523510622,0.109919373638,11.1187564587,-2.00469077759,0.0
1409523510632,-1.14649738108,8.86514722672,-6.7730295999,0.0
1409523510654,-2.08102604438,7.78612518656,-7.22210326485,0.0
1409523510655,-2.79332413003,7.23411629476,-4.41232638297,0.0
1409523510660,-2.51303310899,6.63928258861,-0.565406776809,0.0
1409523510688,-1.98259062083,6.6805465789,1.02860003641,0.0
1409523510689,-2.39387875943,7.26979494065,1.19802326775,0.0
1409523510692,-2.7400666704,8.19763967204,1.08505936439,0.0
1409523510701,-2.63497928421,9.68662151324,0.422842513398,0.0
1409523510727,-2.27270909603,10.619801732,-1.02603891078,0.0
1409523510728,-1.43492610471,10.1005964313,-2.30158308829,0.0
1409523510734,-1.12530299967,9.248371502,-2.83725076285,0.0
1409523510760,-0.509027247444,8.42049009541,-2.70928680748,0.0
1409523510761,0.113732317436,7.91153353623,-2.51108180564,0.0
1409523510761,0.155436685248,8.0560186678,-2.06614393535,0.0
1409523510782,0.0957585009029,8.73808956483,-1.52605860675,0.0
1409523510789,0.203526021195,10.5129148531,-1.44884284145,0.0
1409523510823,0.340479072669,13.2328051188,-2.03023141398,0.0
1409523510824,0.52623918505,14.9846606173,-2.1820237131,0.0
1409523510825,0.623913075137,14.445635114,-1.30524617975,0.0
1409523510825,0.885611836464,12.2619101769,-0.103356291793,0.0
1409523510832,1.12554458147,10.2037870707,1.05091648462,0.0
1409523510847,1.308063973,9.48758465875,2.10865515369,0.0
1409523510874,1.53951341273,9.54194177334,2.48648962775,0.0
1409523510875,1.85013208901,9.51844364362,2.21289937856,0.0
1409523510876,2.29684156187,9.2131186777,2.24980284571,0.0
1409523510882,3.09057987626,8.71190917532,3.41881577205,0.0
1409523510922,4.08438433997,7.7115085152,9.75630437198,0.0
1409523510923,3.08816695101,9.36212483,6.21441029087,0.0
1409523510925,2.90290896176,8.86318011054,0.577707594962,0.0
1409523510926,3.52858197137,8.18302605213,-0.469917916594,0.0
1409523510933,3.73497025919,8.30985373477,-0.582320174962,0.0
1409523510969,2.7160517508,8.62939190445,-1.44650031147,0.0
1409523510971,1.20272627993,9.15180480064,-1.29580882794,0.0
1409523510972,0.362741897987,9.67621171896,-0.532138217259,0.0
1409523510992,0.250775958837,9.45262665467,-0.169204464031,0.0
1409523510994,0.212917926607,8.85417931414,-0.0543880567554,0.0
1409523510995,-0.148480337464,9.04466383384,0.00353320787161,0.0
1409523511003,-0.0766787088966,9.84472344617,0.244557859487,0.0
1409523511021,-0.190595196989,10.7238962633,1.3191521784,0.0
1409523511022,-1.47545990152,11.4655754174,7.72026030363,0.0
1409523511035,-2.77038452418,12.0576422233,14.3123224199,0.0
1409523511052,-1.37175525293,12.0165369709,7.9401263016,0.0
1409523511065,0.186543440306,10.4498382802,-0.547161921544,0.0
1409523511065,0.638563793441,9.41981611317,-4.78317585974,0.0
1409523511077,0.0929588061035,9.51907018757,-4.08678051002,0.0
1409523511081,-0.285107988485,10.0268460064,-0.141926274451,0.0
1409523511097,0.112220235323,11.2042695284,-1.3068950965,0.0
1409523511102,1.53128427393,12.6006010855,-9.32249264706,0.0
1409523511114,2.72618952339,14.942983499,-5.56320162884,0.0
1409523511129,4.27525419023,15.8441151765,2.5649408087,0.0
1409523511132,5.56982941892,16.0612492124,3.20940488862,0.0
1409523511145,4.67751519181,14.8002715735,0.480133825292,0.0
1409523511170,1.9085078431,14.5048750689,-0.845486095433,0.0
1409523511171,0.413641606705,15.6064891112,0.650786269927,0.0
1409523511173,-1.14532848881,16.1970842603,0.701921743078,0.0
1409523511181,-2.09243610608,16.158777643,-2.02846192167,0.0
1409523511205,-1.00544561443,14.0139040708,-0.175218922014,0.0
