time,acc_x,acc_y,acc_z,gravity_x,gravity_y,gravity_z,vertaccel,corr
1409523491747,-0.127989693432,10.2024041375,-0.663204344561,-8.881784197e-15,9.80664969327,5.10702591328e-15,97.1552920892
1409523491766,-0.21887221509,10.388417567,-0.621958956495,1.16018306073e-14,9.80664934342,1.33226762955e-15,98.7654528087
1409523491766,-0.182417893788,10.3917510718,-0.520807882429,-1.7763568394e-15,9.80664998678,7.54951656745e-15,98.7247595841
1409523491783,-0.119467410496,10.1621253829,-0.376958502318,-1.07691633389e-14,9.80664926862,-2.6645352591e-15,96.5656380011
1409523491784,-0.0956061399763,10.1664864338,-0.280390908468,1.88737914186e-15,9.80664915204,1.04360964315e-14,96.6328908787
1409523491798,-0.0781829529539,10.266153583,-0.192101744117,1.06581410364e-14,9.80664911372,3.33066907388e-15,97.6329946905
1409523491802,-0.00472467043985,9.98897654103,-0.0397744650785,5.55111512313e-15,9.80665047515,5.3290705182e-15,95.1750506072
1409523491816,-0.0608075710646,9.95320152852,0.0479299886386,5.3290705182e-15,9.80665059373,3.5527136788e-15,94.9638998832
1409523491830,-0.124922109179,10.1642499831,0.058687995957,1.68753899743e-14,9.80664975968,-5.10702591328e-15,97.0155954164
1409523491834,-0.0550918270479,10.0634761096,0.07116570582,-5.44009282066e-15,9.80665110046,5.10702591328e-15,96.0957225546
1409523491843,0.0310309203693,9.9863914887,0.0161136616126,3.77475828373e-15,9.80665028324,-7.54951656745e-15,95.293725797
1409523491864,0.0806047563847,10.0170460412,-0.079161491266,3.88578058619e-15,9.80664969808,1.55431223448e-15,95.4398268171
1409523491865,0.0628959747904,9.97737212051,-0.178644468182,2.10942374679e-15,9.80665082173,-1.99840144433e-15,94.8779397781
1409523491881,0.0513037495212,9.8646344585,-0.260034292252,9.10382880193e-15,9.80665068606,2.44249065418e-15,93.6150211896
1409523491882,-0.00550862581557,9.67933673191,-0.290098173683,-1.74305014866e-14,9.80665076945,2.22044604925e-15,91.7187039852
1409523491901,-0.0966205697331,9.64062736233,-0.308682036629,-9.21485110439e-15,9.80665032178,2.88657986403e-15,91.2245889326
1409523491903,-0.125425222328,9.74262360061,-0.345242088733,-3.10862446895e-15,9.80665025743,5.3290705182e-15,92.0312368835
1409523491914,-0.127959244994,9.81382193206,-0.383075013878,-1.57651669497e-14,9.80665166601,-3.99680288865e-15,92.5216871132
1409523491931,-0.0611596307451,9.78223304507,-0.386222004413,3.33066907388e-15,9.80665179361,7.32747196253e-15,92.0761754241
1409523491936,0.0210000304773,9.8267430339,-0.371019047275,-9.32587340685e-15,9.80664939295,8.881784197e-16,92.3828067361
1409523491951,0.0239003404737,9.98943899356,-0.342278669528,3.21964677141e-15,9.80665032398,-1.55431223448e-15,93.8383859883
1409523491966,0.0712985187406,9.99674545874,-0.28493829699,1.69864122768e-14,9.80665142636,6.43929354283e-15,93.8908738501
1409523491967,0.240635167391,9.79872417482,-0.178875326851,5.10702591328e-15,9.80665092369,7.32747196253e-15,92.122365147
1409523491986,0.248452644686,9.68919904362,-0.191232149477,1.37667655054e-14,9.80665159451,7.54951656745e-15,91.0095697939
1409523491987,0.291006150113,9.53506534693,-0.175191621153,-9.54791801178e-15,9.80664981021,4.4408920985e-15,89.5345122001
1409523492003,0.32316333818,9.43023214036,-0.156120860382,2.67563748935e-14,9.80664996271,-2.22044604925e-16,88.5375403009
1409523492004,0.327304028043,9.4715119274,-0.110037604354,-1.58761892521e-14,9.80665108087,4.66293670343e-15,88.9784223784
1409523492014,0.322535772485,9.58139352098,-0.0140074180828,-1.83186799063e-15,9.80665012654,4.4408920985e-15,90.1833201264
1409523492031,0.295220332553,9.80662787252,0.0573072794363,1.22679644221e-14,9.80665105441,2.6645352591e-15,92.4662567719
1409523492034,0.305741136407,10.0529027804,0.115849018533,3.71924713249e-15,9.80664986897,1.11022302463e-15,94.9473132533
1409523492050,0.307420168016,10.2787247455,0.14070008971,2.39808173319e-14,9.80664931247,4.4408920985e-15,97.1888604771
1409523492070,0.323793668759,10.5925819553,0.125977164963,7.77156117238e-16,9.80665045609,6.66133814775e-16,100.198032746
1409523492070,0.374476616153,10.8022436655,0.0387720657078,-1.03805852802e-14,9.80665013168,7.32747196253e-15,102.081271594
1409523492074,0.370096097341,10.8501069991,-0.104780577676,1.30451205393e-14,9.80665109693,1.99840144433e-15,102.291769619
1409523492082,0.283692158389,10.7817806293,-0.187091127421,2.33146835171e-15,9.80665014773,-2.22044604925e-16,101.455381416
1409523492103,0.134342422509,10.7589519236,-0.198463541768,1.80966353014e-14,9.80665077328,-5.55111512313e-15,101.139074661
1409523492104,0.0547618915654,10.7692382889,-0.212534534143,-3.00315328161e-14,9.80665002317,1.99840144433e-15,101.125455492
1409523492116,-0.0148411442911,10.7302161566,-0.305301328694,-1.99562588676e-14,9.8066504318,4.4408920985e-15,100.49222305
1409523492134,-0.077506271858,10.520000895,-0.519638886695,2.30093721854e-14,9.80665070605,1.7763568394e-15,97.9729710212
1409523492135,-0.0556918146793,10.2787044657,-0.774272141159,1.5959455979e-14,9.8066523905,-4.4408920985e-16,95.2368858848
1409523492149,-0.0691696654472,10.1743025517,-0.786140341281,-6.31439345256e-14,9.80665143568,1.7763568394e-15,94.2125831525
1409523492167,-0.14865203229,10.000323049,-0.382541428985,2.22044604925e-15,9.80665185036,-1.55431223448e-15,93.3371479059
1409523492168,-0.19922154875,9.70071533222,0.242813757015,-3.74145159299e-14,9.8066509333,-2.22044604925e-16,91.7627818557
1409523492189,-0.129602606842,9.42307439337,0.612424060122,-4.82114348443e-14,9.80665103187,-2.44249065418e-15,89.9456195478
1409523492190,-0.129387225035,9.29073786724,0.733275120291,-1.19626530903e-14,9.80665013542,4.4408920985e-15,89.0236002363
1409523492194,-0.0659397078805,9.11917512666,0.584431022288,5.7620574978e-14,9.80665009064,5.55111512313e-15,87.2170955718
1409523492215,-0.0034105037274,8.92409369178,0.402712962544,-8.46267500521e-14,9.80665077429,-6.66133814775e-15,85.0933310459
1409523492216,-0.0242517227684,8.85254630948,0.37942623638,-3.91908727693e-14,9.80665040346,1.33226762955e-15,84.3871421186
1409523492229,-0.134823000509,8.89847784608,0.474414895438,2.07334149849e-14,9.80664981045,-2.6645352591e-15,84.9785652792
1409523492249,-0.197611782913,8.89892395193,0.512919168088,3.69426711444e-14,9.80665039111,5.77315972805e-15,85.0169646033
1409523492250,-0.362084963226,9.07506205254,0.549696074856,-6.66966482044e-14,9.8066517134,5.99520433298e-15,86.6854582257
1409523492263,-0.635036133627,9.36469497956,0.502869086938,-2.19269047363e-15,9.80664972982,1.99840144433e-15,89.2290109715
1409523492263,-0.702917767728,9.7056805975,0.382801445398,4.91273688397e-14,9.8066499193,6.66133814775e-15,92.0483170263
1409523492283,-0.839215885479,10.0229616164,0.293291337509,2.99760216649e-14,9.80665079156,-3.99680288865e-15,94.6426124703
1409523492283,-1.07156853815,10.2318548607,0.337256929256,2.72282196789e-14,9.80665021709,7.1054273576e-15,96.4034189448
1409523492300,-0.884743824037,10.1990289672,0.367297028031,-1.43218770177e-14,9.80665116834,0.0,95.8197401562
1409523492314,-0.712778233976,10.1435666312,0.342906836605,5.71764857682e-15,9.8066516405,3.10862446895e-15,94.8663356057
1409523492320,-0.687046896563,10.1648056696,0.270340065053,-3.53050921831e-14,9.80665101492,8.881784197e-16,94.461499693
1409523492344,-0.786803245402,10.3525154993,0.31109851489,1.35447209004e-14,9.80664952202,3.99680288865e-15,95.78463552
1409523492345,-0.929602682468,10.6535861734,0.487529412014,2.96984659087e-14,9.80665090499,-2.22044604925e-15,98.4341252827
1409523492345,-0.974803446288,10.6021460897,0.728250156458,1.66533453694e-14,9.8066502448,3.10862446895e-15,98.0432652317
1409523492369,-0.888432024142,10.3925885128,1.20755590386,-1.28230759344e-14,9.80665166631,2.6645352591e-15,96.9176204552
1409523492370,-0.86256640666,10.1258394698,1.80053646262,3.07531777821e-14,9.80664984304,-4.4408920985e-16,95.7239598038
1409523492374,-0.781826766306,9.98194473161,2.18112682456,-2.57571741713e-14,9.80665006572,2.22044604925e-15,95.1735736556
1409523492382,-0.652638931536,9.78255786473,2.51740647064,-1.32671651443e-14,9.80665006963,0.0,94.0756300535
1409523492399,-0.410951026115,9.50018907078,3.25386266987,-1.85962356625e-14,9.80665000477,0.0,93.4737762808
1409523492426,-0.190761087332,9.17384557931,4.73297164217,-3.60822483003e-15,9.80665081072,-1.7763568394e-15,94.8190027459
1409523492427,-0.174251490242,9.06743634081,5.76170045695,1.99840144433e-15,9.80664987289,-3.5527136788e-15,96.9172238943
1409523492428,-0.256769991673,9.6657671411,4.65995062712,-1.22124532709e-15,9.80665016276,0.0,98.8529275959
1409523492435,-0.231778978559,10.3255291785,1.99028581712,6.16173778667e-15,9.80665023137,0.0,96.5024969392
1409523492466,0.25363406937,10.3709408558,-0.944638655798,-2.25930385511e-14,9.80664972904,0.0,87.5646912762
1409523492468,0.976234473132,9.75268577507,-1.68498383113,3.94129173742e-15,9.80664928635,4.4408920985e-15,79.2748444067
1409523492469,1.10018988604,9.23264397918,-0.893153071768,5.55111512313e-16,9.80665015342,-4.4408920985e-16,76.9864814982
1409523492505,0.853155858265,9.0575696964,-0.498776752062,-7.32747196253e-15,9.80664990037,8.881784197e-16,76.9254816616
1409523492506,0.43512124801,9.54656188075,-0.374181263827,2.6645352591e-15,9.80664958333,3.10862446895e-15,82.0773352937
1409523492507,0.3646603429,10.1355922226,-0.411256199099,-8.10462807976e-15,9.8066511759,-8.881784197e-16,87.7751212002
1409523492508,0.593540547383,10.499228519,-0.10201998994,-8.32667268469e-15,9.80665149923,-1.7763568394e-15,92.5530831427
1409523492515,0.842631026325,10.567258044,1.1242914765,1.09912079438e-14,9.80665112341,-8.881784197e-16,97.3261771293
1409523492541,1.34491657756,10.9806651566,1.14594144481,1.22124532709e-15,9.80665042046,4.88498130835e-15,101.75875803
1409523492542,1.55264545903,11.3886584324,1.14416256096,2.33146835171e-15,9.80664988097,0.0,106.087683515
1409523492543,1.62751522528,11.7577725633,1.41823979812,1.13242748512e-14,9.80665115631,-2.22044604925e-15,110.691114673
1409523492575,1.6219584258,11.9573106242,1.62957498272,-1.28785870857e-14,9.80665164774,3.10862446895e-15,113.459568071
1409523492575,1.65559866058,12.3713209132,1.40734484593,-4.77395900589e-15,9.80665025151,-3.10862446895e-15,117.040127978
1409523492576,1.44644187484,13.0826389322,0.82343757276,-2.88657986403e-15,9.80665094038,0.0,122.493848915
1409523492583,1.25728894549,13.3421642614,0.642635279852,9.43689570931e-15,9.8066505078,8.881784197e-16,124.550414589
1409523492610,1.10485905106,13.2014361387,0.915764183434,-2.55351295664e-15,9.80665051959,8.881784197e-16,123.803320615
1409523492611,1.03509347673,12.7922780859,1.38112279753,1.76525460915e-14,9.80665058259,1.33226762955e-15,120.955866866
1409523492614,1.17841848209,12.4897888984,1.6809787226,-3.88578058619e-15,9.80665149013,2.22044604925e-15,118.659210292
1409523492628,1.42140677839,12.0461407834,2.02080076889,-3.10862446895e-15,9.80664854131,-3.5527136788e-15,115.090116666
1409523492634,1.56029587768,11.4253954507,3.04811801614,1.01030295241e-14,9.80665042868,4.4408920985e-16,111.587761566
1409523492646,2.57277257706,8.63270606813,11.8331923549,1.22124532709e-14,9.80665034253,5.3290705182e-15,109.058922883
1409523492672,5.18798874466,5.87425105762,21.5111221213,7.32747196253e-15,9.8066496841,-1.33226762955e-15,109.144287269
1409523492673,4.4067858033,10.2908904104,15.7218346023,5.55111512313e-16,9.80665104337,4.4408920985e-16,135.517224318
1409523492675,1.16898127747,15.99683892,-8.80333666086,-1.72084568817e-14,9.80665053174,-6.66133814775e-16,166.548924832
1409523492683,5.04903299176,13.1301714946,-9.47432238565,-1.49880108324e-14,9.80665092197,1.24344978758e-14,135.357987898
1409523492708,7.211813482,12.0130975668,5.30603897811,-4.66293670343e-15,9.80665016213,-2.00575667186e-13,117.630415738
1409523492709,4.06406177774,11.3619870345,4.59242140646,2.6645352591e-15,9.8066497386,1.04360964315e-14,108.075393473
1409523492716,0.321144162203,11.9682778526,-0.652480120335,3.99680288865e-15,9.80664950935,2.22044604925e-16,116.36129692
1409523492731,-0.594113651396,12.6513714289,-4.36319493261,1.33226762955e-15,9.80664790281,-3.99680288865e-15,127.476148121
1409523492746,-1.95489678942,11.3834976762,-6.24995923,-3.5527136788e-15,9.80664904175,1.99840144433e-15,116.480874338
1409523492746,-4.22234082267,11.0920971305,-7.3347457028,2.6645352591e-15,9.80665134213,5.3290705182e-15,111.864821311
1409523492763,-6.35240252894,13.5268626281,-7.40381094214,4.4408920985e-16,9.80665111327,-8.60422844084e-16,131.756243982
1409523492764,-6.99831644871,16.0455057218,-5.58974621521,-4.66293670343e-15,9.80665043964,4.88498130835e-15,152.826730861
1409523492780,-6.81583466428,18.8856183532,-3.99416931952,1.11022302463e-16,9.80665006273,-1.99840144433e-15,178.773208868
1409523492783,-5.61734921372,19.8282238739,-2.59963867174,7.04991620637e-15,9.80664941057,-7.54951656745e-15,187.619483802
1409523492798,-5.1553114845,17.7798195801,0.383645005097,2.60624855031e-14,9.8066512642,-6.88338275268e-15,171.135575461
1409523492811,-5.72620255373,15.3738407865,2.65676164291,-5.33184607576e-14,9.80664959055,-1.7763568394e-15,151.42026194
1409523492815,-5.38953999482,14.9479578676,3.13943655272,2.5202062659e-14,9.8066511554,1.99840144433e-15,148.190312876
1409523492828,-3.2113048688,15.0284664455,1.41744465675,-4.88498130835e-15,9.80665150958,4.21884749358e-15,147.36470203
1409523492848,-1.53808843047,14.6758349541,-0.611560702179,2.22044604925e-16,9.80664916903,1.45439216226e-14,142.309818041
1409523492848,-0.185518833127,13.7772801966,-1.76993884699,3.33066907388e-15,9.80665133019,2.88657986403e-15,132.377376596
1409523492863,1.58884173879,12.1551697711,-2.54216632703,-1.55431223448e-15,9.80664969465,-2.44249065418e-15,115.330791448
1409523492864,2.50284636076,10.1027221765,-2.87410930409,-4.66293670343e-15,9.80665053658,8.21565038223e-15,94.1750503652
1409523492880,2.51390956868,8.05235515952,-2.72644546731,1.02140518266e-14,9.80665098863,1.11022302463e-15,73.5489365708
1409523492883,1.37588948778,7.36996429346,-2.53449488419,7.1054273576e-15,9.80664951724,1.7763568394e-15,66.2904414681
1409523492897,-0.450069802831,7.08731015205,-1.59822838584,-2.88657986403e-15,9.80665097596,1.33226762955e-15,64.3650339624
1409523492911,-2.4465211239,6.58269801854,-2.40106151039,2.04281036531e-14,9.80664942713,5.77315972805e-15,57.6727147523
1409523492915,-3.73187906308,5.63228894536,-3.37349428227,9.43689570931e-15,9.80665119828,-1.7763568394e-15,46.0179022603
1409523492928,-4.1680856111,4.78931840327,-3.25860852609,-6.43929354283e-15,9.80664921311,8.881784197e-16,37.1452404148
1409523492944,-2.58082614852,4.40310054069,-5.31275800522,-1.7763568394e-15,9.80664902678,4.88498130835e-15,27.080924824
1409523492945,-1.92349773618,3.28843845909,-2.19669513937,8.881784197e-16,9.80665186293,-3.10862446895e-15,22.9989735661
1409523492967,-0.573451599772,2.11455523967,0.734559527254,-2.22044604925e-15,9.80665197644,-1.7763568394e-15,20.8000201086
1409523492968,0.723709681429,2.52442942034,-0.248071678644,-1.33226762955e-15,9.80665063555,3.10862446895e-15,21.1059207594
1409523492975,0.413554390805,3.10151565641,0.0509954287779,1.33226762955e-15,9.80665018388,0.0,26.9570737289
1409523493007,-0.463711609008,2.90970996545,1.25511605516,8.881784197e-16,9.8066510712,0.0,29.2442486668
1409523493008,-1.26628400824,3.0250872673,1.06687344082,4.4408920985e-16,9.8066503741,2.6645352591e-15,30.0133610605
1409523493009,-2.05168294399,3.92470794659,0.316440932809,2.6645352591e-15,9.8066508159,-3.99680288865e-15,36.1730069838
1409523493019,-2.17750416753,4.98335777639,-0.272843398081,-3.10862446895e-15,9.80665085365,4.4408920985e-15,44.1863680446
1409523493055,-2.01888598643,5.55327386719,-0.504329044238,-2.22044604925e-15,9.80664839106,4.88498130835e-15,48.6572743668
1409523493056,-1.78839772808,5.83338081457,-0.731903053744,-4.4408920985e-16,9.80665168342,4.4408920985e-16,50.3911445797
1409523493056,-1.52967753617,6.02387592505,-0.942700214295,2.22044604925e-15,9.80665152277,4.4408920985e-15,51.1109727596
1409523493057,-1.07734203489,5.8358033195,-0.782771234566,-2.22044604925e-15,9.80665142133,1.7763568394e-15,49.2646880343
1409523493063,-0.337290981262,6.02379299631,0.171595240449,8.881784197e-16,9.80664949388,0.0,53.0155641302
1409523493085,2.81432890674,4.79589556988,5.16047901733,1.7763568394e-15,9.80665137505,-8.881784197e-16,56.1664805821
1409523493086,9.28785009908,9.95115740122,15.8894670787,2.22044604925e-15,9.80665009677,-2.22044604925e-15,128.084303663
1409523493095,15.3077753107,15.7118550281,19.9644939479,-3.5527136788e-15,9.8066509769,8.71525074331e-15,163.123664263
1409523493122,21.1310216944,13.7861688482,16.0471011444,-6.66133814775e-15,9.80664931083,-2.77555756156e-15,144.500258771
1409523493124,17.699686866,10.2485090019,8.92514525806,-4.4408920985e-16,9.80664885638,-5.99520433298e-15,106.504727121
1409523493125,11.4633734923,9.18059339972,4.05358201963,3.5527136788e-15,9.80665176556,6.66133814775e-16,92.7085891047
1409523493151,1.25621782324,11.3480496846,-4.41355090804,4.4408920985e-15,9.80664944302,0.0,113.696992817
1409523493152,-1.42053234105,10.5751716284,-4.56590376359,-8.881784197e-16,9.80665084394,3.5527136788e-15,107.525727882
1409523493157,-2.54338848059,10.5333848791,-3.11342971534,1.33226762955e-15,9.80665247,-2.22044604925e-15,104.474471347
1409523493163,-2.98121501102,10.5931889282,-0.553909801039,3.5527136788e-15,9.80665033198,8.881784197e-16,100.767436363
1409523493178,-2.142410872,9.39134047642,1.25037710603,4.4408920985e-15,9.80664997224,-1.7763568394e-15,86.1590668926
1409523493195,-1.72172402862,7.77411992974,0.768734294077,-8.881784197e-16,9.80665010695,2.6645352591e-15,71.1599420355
1409523493197,-3.7735066021,8.7930261098,-3.50587179732,8.881784197e-16,9.8066508326,0.0,88.9496562464
1409523493221,-5.50454359567,12.3849903906,-8.62428028658,1.33226762955e-15,9.8066502119,1.11022302463e-15,132.516254464
1409523493222,-5.41911360099,15.1614217165,-8.03220874289,8.881784197e-15,9.8066523469,8.881784197e-16,155.660096518
1409523493224,-4.62676924274,15.7843185705,-0.282689923227,6.43929354283e-15,9.80664957544,7.27196081129e-15,154.572205269
1409523493252,-4.18969053785,15.4828720807,3.72936912199,-1.3433698598e-14,9.80665086654,-1.75970349403e-14,149.727402348
1409523493253,-3.90673950361,16.3293738218,3.16391791994,3.20854454117e-14,9.80665025348,1.21014309684e-14,156.549603902
1409523493258,-2.13243633086,13.8453410749,-0.01892178946,-7.51065876159e-14,9.80665023062,-2.6645352591e-15,134.255696842
1409523493263,-2.18810152369,11.4932508151,-0.124551119134,-3.38618022511e-15,9.80665162335,-1.04360964315e-14,111.728966149
1409523493277,-3.08603393795,8.73580466074,-1.4700559799,-4.66293670343e-15,9.80665197672,1.08801856413e-14,86.275115505
1409523493295,-2.32835263334,6.72679387236,-2.43401633061,-1.88737914186e-15,9.80665206204,-8.77076189454e-15,67.4242904251
1409523493296,-1.45597685013,6.04285579191,-2.13052018309,1.28785870857e-14,9.80665169244,1.38777878078e-14,60.2523046085
1409523493318,-1.42353819154,6.44089160412,-1.94198426388,1.11022302463e-14,9.80665019882,1.28230759344e-14,63.7997215518
1409523493319,-1.91912622655,7.34798570274,-2.44248495809,-2.22044604925e-15,9.8066523592,1.29340982369e-14,72.5613710405
1409523493324,-2.46372505983,8.22654111877,-3.32219733742,6.66133814775e-16,9.80665080451,7.86726586655e-13,80.7078270569
1409523493354,-2.06056452406,8.31646914986,-3.80254814144,-4.21884749358e-15,9.8066493685,-1.54876111935e-14,80.3429178448
1409523493355,-0.859704347444,7.68164952468,-3.10512990746,6.2172489379e-15,9.80664854352,5.66213742559e-15,72.9400903522
1409523493356,-0.0853042200478,7.39380106941,-2.222077267,-6.66133814775e-16,9.80665055694,4.10782519111e-15,69.6878089654
1409523493364,0.11995464635,7.78387617009,-1.85096462612,-3.99680288865e-15,9.80665128444,-1.55431223448e-15,73.0707926513
1409523493385,-0.0624087211074,8.86398700412,-1.76428964637,4.4408920985e-15,9.80665034297,-2.88657986403e-15,82.869467801
1409523493386,-0.142536224869,10.5700646084,-1.92580945423,1.55431223448e-15,9.8066506279,1.11022302463e-15,98.1551738824
1409523493395,-0.110676906767,12.7146562992,-2.15483969931,-2.22044604925e-16,9.80665037761,6.66133814775e-16,117.091422299
1409523493420,0.216422302888,13.8813697315,-2.40704325058,1.33226762955e-15,9.80665228855,4.88498130835e-15,126.130958375
1409523493421,0.518831625587,13.0539584038,-2.05313274655,-3.77475828373e-15,9.80665139407,-2.22044604925e-15,117.33423698
1409523493424,0.436126666908,11.1057950478,-0.808214920559,6.66133814775e-16,9.80665019003,3.99680288865e-15,100.780459544
1409523493451,0.129742460931,9.63423538906,0.355665522023,8.43769498715e-15,9.80664925636,-2.6645352591e-15,89.579502054
1409523493452,0.264512775638,8.84634215029,1.13059689587,-8.881784197e-16,9.80664946679,-4.4408920985e-16,84.2339608027
1409523493456,0.891221658649,8.63761798842,-0.0603069731653,-2.6645352591e-15,9.80665045771,0.0,79.8971165301
1409523493464,2.23981000719,8.64764781563,-1.39179554224,-6.66133814775e-15,9.80664857877,3.5527136788e-15,76.7556806152
1409523493489,3.15993640648,8.38685857774,1.5916632865,-4.88498130835e-15,9.8066495721,-1.33226762955e-15,80.5483353026
1409523493490,2.84395671986,8.93076226749,5.87991330641,5.10702591328e-15,9.80664913919,4.4408920985e-16,95.753907277
1409523493500,5.27266847994,8.16508814625,0.972000594134,5.88418203051e-15,9.80664989568,7.9936057773e-15,79.0715423299
1409523493516,6.18036807091,7.79853736675,0.135528563022,3.91908727693e-14,9.80664883893,-2.44249065418e-15,74.3909211503
1409523493518,4.97962632402,7.75962158332,1.27014444388,8.71525074331e-15,9.80664978693,3.33066907388e-15,75.9376294155
1409523493524,3.18444164831,7.88131004028,2.03154500956,-4.66293670343e-15,9.80665138111,-2.22044604925e-16,78.4975594454
1409523493562,1.53710234254,8.60456970414,2.39129059531,-9.10382880193e-15,9.80665061059,2.44249065418e-15,86.0106463628
1409523493563,0.274091096496,9.21181736419,2.04249602193,6.66133814775e-16,9.80664982871,1.55431223448e-15,91.419620765
1409523493564,-0.561608352052,9.69089155796,1.52616730646,1.33226762955e-15,9.80665070666,-7.9936057773e-15,95.5379308489
1409523493567,-1.04864590158,10.1998977444,1.11549085702,7.1054273576e-15,9.80665211582,-7.43849426499e-15,100.163628565
1409523493590,-1.45118379188,11.0229995208,1.25952209128,7.54951656745e-15,9.80665131507,-9.54791801178e-15,108.347264793
1409523493590,-1.44063070517,11.7831189891,0.999726536294,4.4408920985e-16,9.80664872541,-7.77156117238e-16,115.609553387
1409523493596,-0.920362794673,12.0751423719,0.701558246145,-6.66133814775e-15,9.80664869959,1.3433698598e-14,118.30047073
1409523493619,-0.0725655421009,11.9761686944,0.570978102908,-3.66373598126e-15,9.80665037212,-2.10942374679e-15,117.279797969
1409523493619,0.544672821532,11.7349984117,0.754641093808,-5.77315972805e-15,9.80664971202,-1.25455201783e-14,115.066214603
1409523493624,0.937127174717,10.9406269873,3.71509623615,1.13242748512e-14,9.80665008103,1.70974345792e-14,109.14817361
1409523493645,0.050115362198,9.93629748414,10.9656189812,1.02140518266e-14,9.80665025231,2.30926389122e-14,100.538466131
1409523493645,-1.76734609609,11.1344707145,10.322196526,2.22044604925e-15,9.80665143442,4.66293670343e-15,101.298896427
1409523493661,-1.79135645125,11.8583911524,4.56772448842,-9.99200722163e-15,9.8066518833,6.43929354283e-15,105.757998377
1409523493666,-0.5749802465,11.6293191212,-0.486885025582,6.77236045021e-15,9.80664770698,3.77475828373e-15,110.432367228
1409523493684,0.229981616749,10.5730908497,-11.0692144803,-2.22044604925e-16,9.80664901806,5.77315972805e-15,119.699795059
1409523493685,0.507855144548,10.5914083729,-10.7250710225,1.16573417586e-14,9.80664830291,1.62092561595e-14,110.824254556
1409523493696,1.65166963453,11.4514156809,-4.78198778013,-7.77156117238e-15,9.80665155904,-3.25295346215e-14,111.281344613
1409523493716,3.36594681417,12.5720608676,0.0673011434025,-3.44169137634e-15,9.80664962482,1.02140518266e-14,123.136057234
1409523493722,4.20909255042,13.7578320774,3.11249294747,1.55431223448e-15,9.80664990761,-1.2490009027e-15,135.591598427
1409523493724,2.94864574302,14.25250045,2.74827996345,8.65973959208e-15,9.80665003225,3.61932706028e-14,139.267031643
1409523493752,2.04659309116,13.6821065718,-0.859591469362,6.66133814775e-15,9.80664980537,-1.78190795452e-14,134.294228516
1409523493754,1.89933466701,13.5299194632,-2.12998402181,2.22044604925e-16,9.80665111232,-3.5527136788e-15,133.221505895
1409523493757,1.55444873736,12.9700665092,-0.436762225462,1.99840144433e-15,9.80665049814,1.72778458207e-14,127.218290146
1409523493765,0.359671164736,13.1396486152,3.83614123147,-5.3290705182e-15,9.80665107703,4.76702011198e-15,128.934741805
1409523493785,-0.893386243678,15.2872708062,3.58148449303,3.5527136788e-15,9.80664950878,-3.01425551186e-14,148.944773866
1409523493786,0.332202777044,15.1109415964,0.551225068038,6.43929354283e-15,9.80664909731,-7.1054273576e-15,147.524835846
1409523493798,1.6474828132,13.4292887841,-0.692519911893,-8.881784197e-16,9.80665101975,-7.1054273576e-15,131.65931871
1409523493819,2.19546478103,13.1253817231,-1.72899691688,0.0,9.80664999966,5.21804821574e-15,129.290548377
1409523493820,1.22657447964,13.6132334149,-1.39310919608,8.881784197e-16,9.8066509007,5.55111512313e-16,133.845240649
1409523493824,-0.0982741587463,12.4309103918,-0.480375640679,7.1054273576e-15,9.80664961684,-2.34257058196e-14,121.769184081
1409523493851,-1.67674059801,11.1028256857,-1.7388757094,5.77315972805e-15,9.80665099916,-1.3433698598e-14,109.482996914
1409523493852,-2.30864496907,10.8636352633,-5.25901905839,2.22044604925e-15,9.80664954895,1.82631687551e-14,108.735456833
1409523493858,-1.79713067876,9.09160050415,-7.69163194319,0.0,9.80664991631,4.02872180061e-14,89.8546336049
1409523493865,-2.47239980349,8.83574711701,-7.40205960933,1.7763568394e-15,9.80665136572,1.25455201783e-14,82.6737023697
1409523493881,-3.87898086384,10.77089664,-5.77090498662,-1.7763568394e-15,9.80665128035,3.33066907388e-15,97.8035720512
1409523493884,-5.05579477464,14.5955793342,-4.2689646114,1.33226762955e-15,9.80665044035,3.33066907388e-15,132.706848183
1409523493895,-5.36541073605,18.9102988005,0.589559513888,3.5527136788e-15,9.80664922632,3.10862446895e-15,179.553040653
1409523493918,-3.90702749666,18.4034492127,6.54639817218,-2.22044604925e-15,9.80664902647,2.88657986403e-15,185.847161295
1409523493919,-5.57931203056,18.3848512918,7.48680774427,3.33066907388e-16,9.80664915438,4.66293670343e-15,186.524926682
1409523493924,-8.11021177237,17.651107727,6.34320613132,1.87072579649e-14,9.80665027634,3.33066907388e-16,176.617617568
1409523493951,-7.82425617092,14.4244582661,1.47457052115,4.61297666732e-14,9.80664997037,1.83186799063e-14,141.786809397
1409523493952,-3.60240651716,12.2034682667,-2.99633305085,-8.32667268469e-15,9.80665045489,-1.07691633389e-14,118.784204629
1409523493956,-0.616006933848,11.288519349,-5.87660172367,-1.04360964315e-14,9.80665195698,-1.92623694772e-14,107.557580924
1409523493964,-0.517791805239,11.4437532645,-5.76855427541,-1.1768364061e-14,9.80665036103,-4.77395900589e-15,106.612758254
1409523493982,0.0231301274236,9.69751722805,-4.84892929466,1.06581410364e-14,9.80665156309,-2.6645352591e-15,87.9406584605
1409523493984,-0.351483070052,7.93526584192,-3.97699546367,-4.66293670343e-15,9.80665079443,-4.4408920985e-16,69.7484278353
1409523493997,-1.24736805102,6.89966327837,-3.18639456888,-1.06581410364e-14,9.80664990309,-8.881784197e-16,59.3562154616
1409523494027,-0.798299128592,5.73882516666,-2.45975497374,-3.5527136788e-15,9.80665000877,3.5527136788e-15,48.6146175521
1409523494028,-0.180233130606,5.08554924418,-2.6803580419,-3.77475828373e-15,9.80664934074,2.22044604925e-15,41.1271182773
1409523494029,-0.720467808015,5.48008959193,-2.01407417551,7.54951656745e-15,9.80664973984,1.33226762955e-15,45.3544680393
1409523494053,-0.898683152991,5.43033154647,-0.448158650354,5.99520433298e-15,9.80665035583,-2.6645352591e-15,48.1283278489
1409523494055,0.065462571331,4.69140847851,-0.489414971083,-7.32747196253e-15,9.80664969174,4.4408920985e-15,41.0297078794
1409523494058,0.0814316886118,3.97769194577,-0.361761533444,2.22044604925e-15,9.80665050469,-8.881784197e-16,34.7047002119
1409523494075,-0.3239866061,3.4219685687,-0.362934937961,1.33226762955e-15,9.80664962619,0.0,29.6056299358
1409523494076,-0.813079492707,3.22247559295,-1.40493847802,-5.10702591328e-15,9.80665049418,3.99680288865e-15,24.8240585785
1409523494091,-1.34849212769,3.04436714362,-1.91920524475,3.10862446895e-15,9.80664918085,8.881784197e-16,21.2935148403
1409523494098,-1.58427437004,2.68531224935,-1.85361470438,-3.10862446895e-15,9.80664996358,-8.881784197e-16,17.6576629948
1409523494110,-1.94760030045,2.07478921078,-1.06053732073,4.88498130835e-15,9.80665223579,4.4408920985e-16,14.5256814241
1409523494124,-2.71230073582,1.65181323721,-0.0973374690271,-2.22044604925e-15,9.80664985338,2.22044604925e-15,14.3573806905
1409523494124,-3.61681957166,1.86077337831,0.514915235951,-6.2172489379e-15,9.80664958497,-2.22044604925e-15,18.7626914183
1409523494140,-3.65908594642,2.3760873594,-0.00160926804171,-4.4408920985e-16,9.80665076585,-4.4408920985e-16,21.7982960417
1409523494144,-2.91280356966,2.69522718337,-1.29573320338,-4.4408920985e-16,9.80665117046,8.881784197e-16,20.3168002737
1409523494159,-2.54148986186,3.33737856894,-1.84372617109,-2.6645352591e-15,9.8066490694,-2.22044604925e-15,23.6300390275
1409523494176,-2.25123680118,4.27605364286,-1.02331359544,-8.881784197e-16,9.8066499873,4.4408920985e-16,33.6497219788
1409523494177,-1.74359655085,5.08128126262,0.631045402386,-2.6645352591e-15,9.80665016696,0.0,45.5023412891
1409523494201,-1.32043987697,5.80059434761,3.82456711599,0.0,9.80665049581,3.99680288865e-15,62.4722759984
1409523494202,11.0110863502,11.5883785837,12.0443865619,0.0,9.80665070786,-8.881784197e-16,128.605059972
1409523494204,20.7746327462,7.53315480795,22.8905416965,1.33226762955e-15,9.80664919891,7.32747196253e-15,105.994880953
1409523494230,24.2038849546,5.07102574803,22.8299443185,1.33226762955e-15,9.80664973507,0.0,84.5789360616
1409523494232,19.6822843643,7.05557352836,13.8064915158,4.4408920985e-15,9.80665005761,3.77475828373e-15,88.6364218202
1409523494236,9.48416383009,-1.08800035589,5.93730024637,8.881784197e-16,9.80665047679,-1.7763568394e-15,-0.21583616579
1409523494244,1.65619460842,4.92136495179,-6.26577707641,6.2172489379e-15,9.80664853905,3.5527136788e-15,63.6483447967
1409523494266,-0.413948734257,5.03529603156,-4.63409739378,-1.33226762955e-15,9.80665096288,-8.881784197e-16,57.8191098814
1409523494267,-2.29753093207,7.06021157429,-1.98752257052,4.4408920985e-16,9.8066491833,3.10862446895e-15,68.9993263789
1409523494278,-2.31156317776,7.65779789538,-2.65193621356,2.22044604925e-15,9.80664876179,-4.4408920985e-16,76.4897093149
1409523494303,-2.83565610465,9.40035068485,-4.69995653797,5.77315972805e-15,9.80665159946,1.33226762955e-15,97.1666913413
1409523494304,-7.24520598837,14.9004199069,-5.98208802941,4.88498130835e-15,9.80665020122,3.10862446895e-15,151.140001927
1409523494305,-7.34462570934,18.0382047943,-3.93229708279,7.54951656745e-15,9.80664917778,-2.44249065418e-15,178.783738411
1409523494337,-5.26151556192,16.3990937558,1.85750060798,-3.5527136788e-15,9.80665121193,3.44169137634e-15,158.437379759
1409523494338,-4.0954135023,14.1863446355,0.436936628773,-2.55351295664e-15,9.80665072642,1.05471187339e-14,137.319273603
1409523494339,-4.28395154075,10.8040860983,-5.56178286014,3.46389583683e-14,9.80665146798,6.66133814775e-16,110.561655998
1409523494345,-3.56916363652,9.23330869042,-6.81175944281,7.04575287003e-14,9.80665001961,1.64313007645e-14,94.1475190273
1409523494384,-3.41037005002,9.67062304607,-3.88256893577,5.55111512313e-15,9.80665189906,7.17412240725e-14,94.6099492664
1409523494386,-2.70799052813,9.56527371158,-2.70804109103,-4.66293670343e-15,9.80664977761,8.60422844084e-15,92.5917459028
1409523494388,-1.65702015127,8.14553084292,-1.76593994316,-1.44328993201e-15,9.80665148061,1.99840144433e-15,78.489476509
1409523494389,-1.17706952666,7.357841752,-0.278768249143,4.21884749358e-15,9.80665051578,1.28785870857e-14,71.485360862
1409523494428,-1.03660047105,7.64022711932,0.11514665397,1.33226762955e-15,9.80665087283,1.47659662275e-14,74.5054810377
1409523494431,-1.7821025201,8.84571548512,-1.1539862306,-3.10862446895e-15,9.80665012547,7.77156117238e-15,85.2025859864
1409523494431,-2.8386342224,9.48236784594,-2.78625690189,-5.99520433298e-15,9.80664997508,3.77475828373e-15,89.5158236346
1409523494432,-2.78838750949,8.95746785887,-2.64223485041,-3.33066907388e-15,9.80664907855,-3.77475828373e-15,83.2839019558
1409523494450,-1.85948500358,7.90151998796,-1.60367538544,1.33226762955e-15,9.80664955079,6.66133814775e-16,73.3938037871
1409523494450,-0.652040838518,7.14666798,-0.61651871381,-3.5527136788e-15,9.80665135868,-3.99680288865e-15,67.133247527
1409523494458,0.204326403567,7.13048129262,-0.222552164539,8.881784197e-16,9.80665129495,-2.6645352591e-15,67.3972076079
1409523494485,0.811959398955,8.2040028841,-0.467809756532,-8.881784197e-16,9.80665152473,6.66133814775e-16,77.0431301188
1409523494486,0.769352612637,10.8990223558,-0.955276252588,-8.881784197e-16,9.80665114838,-4.4408920985e-16,101.512602742
1409523494486,0.200765726512,14.6032592185,-1.14631430165,-7.54951656745e-15,9.80665171738,4.4408920985e-16,135.629553669
1409523494513,0.276456724198,16.9070393506,-0.841082746143,-1.7763568394e-15,9.80665194418,4.4408920985e-16,157.079702829
1409523494514,1.05356993712,16.0991418563,-0.590230212282,-4.4408920985e-16,9.80665147807,3.10862446895e-15,149.389022277
1409523494518,1.8817738718,12.9972836281,0.0169430975225,2.22044604925e-15,9.80665017326,-8.881784197e-16,121.248004058
1409523494525,2.55372492936,10.664922216,0.916339551036,-1.55431223448e-15,9.80664991946,4.88498130835e-15,101.301447405
1409523494542,3.08300126434,9.69328247982,1.36099382446,2.6645352591e-15,9.80664936549,0.0,93.3824808599
1409523494545,3.79976443906,8.67990535978,1.95310947403,-2.88657986403e-15,9.80665060329,-2.44249065418e-15,85.2904798794
1409523494558,4.66953406493,7.4414674058,3.20083654963,-5.77315972805e-15,9.80665006593,8.65973959208e-15,76.0113658581
1409523494575,3.96671240161,7.44741737679,4.10782783236,7.21644966006e-15,9.80665103128,4.21884749358e-15,77.3128918161
1409523494580,3.19276134031,8.90183594825,0.401105944304,-3.41671135828e-14,9.80664908634,2.22044604925e-16,86.6372364339
1409523494592,3.65580121128,8.29643358644,-3.82172598247,1.69704528208e-13,9.80665208847,5.3290705182e-15,76.1169144622
1409523494608,3.63874741519,7.55136078078,-5.5616001462,2.94209101526e-14,9.80664923966,1.99840144433e-15,63.5266433952
1409523494608,2.05300164487,7.76738975922,-3.20020471503,1.15463194561e-14,9.80665073761,5.77315972805e-15,65.5576532191
1409523494624,1.1879450849,7.43138553558,0.371659977087,1.09912079438e-14,9.80665163335,-1.33226762955e-15,68.981597137
1409523494625,0.832286035393,7.22615513831,2.55502640303,-6.43929354283e-15,9.80665152862,6.66133814775e-15,72.4955338013
1409523494641,0.595972888332,7.34652148964,2.92100008222,-2.88657986403e-15,9.80665034941,-2.6645352591e-15,74.7072480751
1409523494646,0.570875949674,7.57389512055,2.77186231404,7.32747196253e-15,9.80665045595,5.55111512313e-15,76.6797414424
1409523494657,0.272608575213,8.16532709879,2.59032598496,4.21884749358e-15,9.80665025235,2.44249065418e-15,82.0388132531
1409523494673,-0.375249811121,8.92886442327,2.19821029737,-5.10702591328e-15,9.80665040898,1.11022302463e-15,88.8304746503
1409523494676,-0.872198940966,9.5636738639,1.83950396362,3.10862446895e-15,9.80665004903,-1.7763568394e-15,94.5839039298
1409523494690,-1.0500308592,10.1000826888,1.58808334445,-5.3290705182e-15,9.80665063832,1.06581410364e-14,99.5928165812
1409523494711,-0.864734957567,10.589199436,1.32179304349,1.31006316906e-14,9.80665131945,2.10942374679e-15,104.18113914
1409523494711,-0.356049960717,11.0691505174,1.17315893064,-4.66293670343e-15,9.80665103771,-1.49880108324e-14,108.799399652
1409523494729,0.0649320242442,11.5357779233,1.60345788339,7.77156117238e-16,9.80665098771,2.10942374679e-15,113.670015092
1409523494730,0.336957336655,11.8714541503,2.92066333199,1.3211653993e-14,9.80665106446,5.55111512313e-15,117.584840267
1409523494744,-0.689776428166,12.1130137548,9.96882249634,1.55431223448e-15,9.80665020179,-3.32511795875e-14,121.102191595
1409523494746,-0.801752620577,11.6742741233,4.80603291718,4.4408920985e-16,9.8066500734,4.99600361081e-15,110.584459814
1409523494760,0.656535298935,11.3916689811,-2.09431600065,5.10702591328e-15,9.8066498405,8.881784197e-16,112.615679359
1409523494774,0.81193859017,11.3767202354,-3.06858212171,-7.32747196253e-15,9.80664875659,-7.77156117238e-16,113.209449242
1409523494776,0.749657897771,11.2893706928,-2.86214185754,-9.54791801178e-15,9.80664956827,1.05471187339e-15,111.589686049
1409523494792,1.16642881502,11.4120562663,-7.3119238991,-7.77156117238e-15,9.80665124222,-1.29913441116e-13,112.062154467
1409523494807,1.90147970476,12.0596620066,-6.7767807481,4.4408920985e-15,9.80665034762,-2.10942374679e-15,113.404463196
1409523494808,3.25802042177,13.7335148746,-0.83839060995,5.99520433298e-15,9.80664901695,4.21884749358e-15,131.934776622
1409523494827,4.40717355262,15.5022257471,5.11085747793,8.881784197e-15,9.80664913027,5.99520433298e-15,155.642551247
1409523494829,5.30485120183,15.8537014058,4.4894520042,5.99520433298e-15,9.80665042844,1.72084568817e-15,157.101657997
1409523494842,3.75128112109,15.2361564853,2.06906130148,-4.4408920985e-16,9.80664975998,-9.58073897994e-13,149.433220163
1409523494861,1.37343509241,15.3660053413,3.49659862381,4.4408920985e-16,9.80664932771,-3.06976666309e-14,149.97158871
1409523494862,-0.0828954344883,15.4052729534,3.26790203321,8.881784197e-16,9.80664978806,3.47499806708e-14,149.674401586
1409523494865,-1.06940811035,15.0045674378,1.47635414192,8.881784197e-16,9.80665043529,-1.31006316906e-14,145.85120213
1409523494878,-1.45075740015,14.1261122093,2.20495572885,3.10862446895e-15,9.80664969453,-1.24344978758e-14,136.507351548
1409523494892,-0.927010682886,13.6013911815,0.0410763939857,2.6645352591e-15,9.80665116461,6.88338275268e-15,132.274034801
1409523494910,0.40682500369,13.1568039459,-3.49487249908,4.4408920985e-15,9.80664932503,-4.66293670343e-15,131.176870156
1409523494910,-0.131703195478,12.9273090452,-4.31669270031,3.99680288865e-15,9.80664806733,-9.99200722163e-16,129.483396903
1409523494937,-0.892261449247,13.0194038274,-4.08737203608,-4.4408920985e-16,9.80664931144,-1.1768364061e-14,129.592300728
1409523494940,-0.275023487263,12.9866344881,-6.09001620295,-2.22044604925e-15,9.80665015849,-1.42663658664e-14,129.202721121
1409523494941,-0.0279412744521,11.5682712945,-8.87274779855,3.10862446895e-15,9.80665050369,-6.75848266241e-15,112.463521566
1409523494965,-0.053691490459,9.81468953327,-9.18799298451,4.4408920985e-15,9.80665066083,7.88258347484e-15,88.9527082172
1409523494966,-1.26855528182,9.08845498576,-7.2227243228,4.88498130835e-15,9.80665041572,2.6645352591e-15,77.1086329375
1409523494966,-2.44496016504,9.10948650394,-5.01449414605,4.88498130835e-15,9.80664992531,5.3290705182e-15,75.9442134146
1409523494976,-3.27336384314,10.4369591821,-3.68823202658,4.4408920985e-15,9.80665058033,1.7763568394e-15,87.8874489851
1409523494996,-5.09532450172,14.6745156189,-3.89148857287,-2.6645352591e-15,9.80665059533,-2.6645352591e-15,123.483499459
1409523494999,-5.3989735247,19.1695228328,1.28682443356,2.44249065418e-15,9.80664941184,2.6645352591e-15,174.613200476
1409523495007,-3.44588067593,16.4564757276,12.3179247829,4.88498130835e-15,9.80664905804,3.5527136788e-15,180.709099261
1409523495053,-5.94667177923,17.7578059519,8.0644309459,-8.881784197e-16,9.80665112745,-2.44249065418e-15,182.270380298
1409523495055,-7.97027377605,16.8188094156,4.64167355174,3.5527136788e-15,9.80665065256,5.55111512313e-15,167.879244507
1409523495059,-9.41665829899,12.9087762616,0.157407039138,-1.3211653993e-14,9.80664855005,-9.54791801178e-15,125.509827132
1409523495060,-9.31194178495,12.069940495,-2.33803073252,1.38777878078e-14,9.80664915575,1.06581410364e-14,114.69698578
1409523495061,-6.40169516624,11.7768251025,-3.1448565545,4.88498130835e-15,9.80665101188,-3.77475828373e-15,110.187787723
1409523495078,-3.10025412684,10.596490959,-2.59366099006,4.21884749358e-15,9.80665148511,-6.66133814775e-16,98.6566023507
1409523495079,-1.29398627371,8.84080808223,-1.02288010188,2.22044604925e-16,9.80665056088,-8.43769498715e-15,83.3299226522
1409523495085,-1.55879660214,7.54751179458,-0.498447097049,-4.4408920985e-16,9.80664984268,-5.3290705182e-15,71.5577668947
1409523495115,-1.19083382414,6.85311438136,-1.97832717962,-1.55431223448e-15,9.80665085806,6.43929354283e-15,62.4889914023
1409523495116,-0.635409046949,6.20471195258,-4.03483194354,2.44249065418e-15,9.80665051232,-3.33066907388e-15,52.1104478523
1409523495120,-0.102465677976,5.31495325309,-5.07649369837,2.6645352591e-15,9.80664912819,-4.4408920985e-15,39.5363452961
1409523495126,0.328626388271,4.44607546304,-2.21059957985,1.7763568394e-15,9.80665202321,-4.4408920985e-16,35.2478268769
1409523495149,1.31642710074,4.23804531992,-0.220144296948,-8.881784197e-16,9.80665205389,0.0,37.4487522409
1409523495150,2.24907119959,4.43495768513,0.207361223221,2.6645352591e-15,9.80665056435,-3.99680288865e-15,40.0556977592
1409523495157,1.87532681847,3.80115075492,0.917857202538,2.44249065418e-15,9.8066501655,-4.4408920985e-16,36.3564762258
1409523495184,0.845528255628,3.54936467277,-0.164646008596,-7.54951656745e-15,9.80665068115,2.6645352591e-15,31.4356145633
1409523495197,-0.595272266086,3.13285072601,-0.645957446973,7.1054273576e-15,9.80664979824,4.4408920985e-16,26.4723122889
1409523495198,-1.65639396015,2.69861099565,-0.892654134377,-4.4408920985e-16,9.8066509758,2.6645352591e-15,21.8691132212
1409523495224,-2.08899692423,2.74403841472,-1.91658143155,-6.66133814775e-15,9.80664994896,-8.881784197e-16,19.2281069896
1409523495224,-2.46508556971,2.61135902202,-2.22262015695,4.21884749358e-15,9.80665051643,1.7763568394e-15,16.4996982808
1409523495225,-2.9919098764,2.09179511114,-1.5359254116,-4.4408920985e-16,9.80664991905,-4.4408920985e-16,13.6524584316
1409523495226,-3.71808856913,1.52795651998,-0.395281185381,0.0,9.8066507494,3.99680288865e-15,13.0024950386
1409523495243,-3.46698631306,1.44002371926,-0.636767827285,-1.7763568394e-15,9.80664972366,-2.22044604925e-15,11.7255124526
1409523495258,-2.86096668629,2.16050372283,-1.32759469263,-1.7763568394e-15,9.80664933028,4.4408920985e-15,15.3633211521
1409523495259,-1.98000570633,3.26613292111,-1.8429480722,8.881784197e-16,9.80665113136,4.4408920985e-16,22.0318881011
1409523495271,-0.914212896384,3.95919302176,-1.33262012499,-2.6645352591e-15,9.80665056648,2.22044604925e-15,27.7846374872
1409523495278,0.0862417679364,4.49350271989,0.694108558365,8.881784197e-16,9.80665079623,8.881784197e-16,37.5890406443
1409523495295,1.51200702326,6.05557463848,4.85118824422,-2.6645352591e-15,9.80665087483,8.881784197e-16,63.896402557
1409523495299,6.6302316248,12.02403876,9.61081439832,0.0,9.8066509912,4.4408920985e-16,128.258691638
1409523495307,22.9870383908,5.2942704953,23.9825510143,8.881784197e-16,9.8066507467,3.5527136788e-15,97.2593432436
1409523495332,19.0729465363,6.54589747501,23.0039053127,1.7763568394e-15,9.80665099653,8.881784197e-16,109.757712182
1409523495333,10.5761369824,4.17964312575,14.9332992032,3.10862446895e-15,9.80665089354,4.4408920985e-16,71.9243319246
1409523495338,2.78815652333,6.91100073213,1.25586859323,1.02140518266e-14,9.8066506823,-2.6645352591e-15,53.7620655315
1409523495369,-0.00976966253401,4.91633432493,-5.71187894606,3.10862446895e-15,9.80665033672,3.10862446895e-15,60.8984344211
1409523495370,-0.931159764364,4.85937783098,-2.28043786476,3.99680288865e-15,9.80665077885,-2.6645352591e-15,49.1836864436
1409523495371,-3.94702980151,7.13197147679,-1.94806886824,2.22044604925e-15,9.80665086121,3.5527136788e-15,68.3861297831
1409523495394,-5.7376560864,10.6031086867,-3.39862143511,2.6645352591e-15,9.80664945631,8.881784197e-16,104.075309124
1409523495395,-7.68935961185,16.7452526527,-4.25390117593,5.77315972805e-15,9.80664954784,8.881784197e-16,163.674581723
1409523495397,-6.50568316983,18.8161054729,-4.13624704079,-3.99680288865e-15,9.80665062526,8.881784197e-16,184.782943015
1409523495406,-1.43845285526,18.3366659032,1.6662059799,-1.43315914691e-13,9.80665132438,-4.88498130835e-15,172.310011023
1409523495436,3.38963678073,16.3455373762,3.58802745342,-2.8088642523e-14,9.80665085813,1.33226762955e-15,148.94455695
1409523495437,1.49694758516,9.34786394822,-8.94228897175,-6.23390228327e-14,9.80665143791,-4.4408920985e-16,105.680085244
1409523495438,-1.01429761226,6.75177099985,-11.7836893258,3.43891581878e-14,9.80665222834,3.10862446895e-15,80.5106326322
1409523495466,-1.04451354889,5.69538184816,-8.21727467109,-5.40539835114e-15,9.80664958747,4.27435864481e-15,58.4402523902
1409523495466,-2.4090651938,5.09888096316,-2.75558431105,-2.04176953122e-13,9.80665036766,8.38218383592e-15,48.7802875737
1409523495467,-3.22341064936,5.1999530839,0.626613312453,-1.68198788231e-14,9.80664978108,-3.88578058619e-15,51.1810514314
1409523495497,-2.42064434624,5.31226818081,0.429412730288,7.43849426499e-15,9.80665015694,1.1768364061e-14,52.1719180349
1409523495498,-1.71187656947,5.9068045325,0.227444890392,5.77315972805e-15,9.80665119717,1.27675647832e-14,57.8858748186
1409523495498,-2.02948460965,7.53080299616,-0.560198438314,2.88657986403e-15,9.80665087953,1.11022302463e-16,73.3427215434
1409523495507,-2.47717799261,9.20644165599,-1.51796446823,-8.21565038223e-15,9.8066511779,-1.66533453694e-15,89.000891386
1409523495538,-2.74308078114,10.6519482435,-2.48749112668,-1.99840144433e-15,9.80665070398,-8.65973959208e-15,101.862254725
1409523495540,-2.01044854986,10.6042215739,-2.26705629796,-4.21884749358e-15,9.80665004412,-3.33066907388e-15,100.481260841
1409523495541,-0.70055897609,9.27715029344,-1.56149161776,4.4408920985e-15,9.8066504089,-5.10702591328e-15,87.4673119044
1409523495565,0.198947024561,8.25671951261,-1.31919812601,-3.99680288865e-15,9.80665060466,-3.5527136788e-15,77.2915455354
1409523495565,0.613693410641,8.02156753347,-1.34788419981,-5.3290705182e-15,9.80664949759,2.6645352591e-15,74.3479280426
1409523495566,0.724805629872,8.45270598291,-1.20200805353,6.2172489379e-15,9.80665031311,6.43929354283e-15,77.9635156256
1409523495589,0.508063880904,9.1576785618,-0.64761476041,-6.2172489379e-15,9.80664965424,-3.33066907388e-15,85.0022088785
1409523495590,0.128406496576,10.6715415325,-0.273904030432,3.10862446895e-15,9.80665192024,-1.55431223448e-15,99.6351388998
1409523495606,-0.385034114586,13.3714946391,0.0280711242303,0.0,9.80665089404,-3.5527136788e-15,125.438086847
1409523495607,-0.701259130387,15.8998289215,0.267589786649,3.5527136788e-15,9.80665009662,-3.99680288865e-15,149.605225607
1409523495624,0.0946472297853,15.6010689848,-0.354005231384,3.5527136788e-15,9.80665035652,1.33226762955e-15,145.58816251
1409523495626,1.38099819396,12.7957152121,-0.740709059681,1.7763568394e-15,9.80665025828,5.3290705182e-15,118.050226904
1409523495639,2.13309103289,10.1904729126,-0.425216067943,-4.4408920985e-16,9.8066516964,2.22044604925e-15,93.8277546896
1409523495652,2.39582712972,9.10517602677,0.35553417912,-3.99680288865e-15,9.80665033038,3.10862446895e-15,85.2017490206
1409523495659,2.54172338559,9.43758693938,0.417663679146,-2.6645352591e-15,9.80664929781,4.88498130835e-15,88.6113588677
1409523495673,2.93349912413,9.58114672118,0.478465504866,-1.15463194561e-14,9.80665132403,-3.99680288865e-15,90.2958244268
1409523495688,3.48430656109,8.65156639233,1.83869677555,-2.6645352591e-15,9.80664989872,4.88498130835e-15,84.5828897539
1409523495689,3.9660675807,6.68640975692,6.37977360404,-5.99520433298e-15,9.80665132528,6.2172489379e-15,74.8778284061
1409523495706,3.86922167535,6.94702858197,4.01410384785,-2.53685961127e-14,9.80664992199,4.21884749358e-15,72.0383776219
1409523495707,3.65243793914,8.03112490562,-0.384768180291,1.11223530386e-13,9.80664948643,2.10942374679e-15,77.7387103901
1409523495722,2.97985856865,9.26957119204,-0.566323474958,2.38697950294e-14,9.80665093194,3.77475828373e-15,89.3468452778
1409523495726,1.96935008187,9.32006529879,0.222392617195,1.26565424807e-14,9.80665051893,-1.99840144433e-15,90.372867713
1409523495738,1.57106689066,8.92504846448,0.375011213256,-1.99840144433e-15,9.80665004836,-2.22044604925e-16,86.6914968447
1409523495755,1.69028772943,9.20054829754,0.658718163171,1.0325074129e-14,9.80665131864,3.33066907388e-15,89.7064033776
1409523495757,1.85185260423,9.82268877642,0.737443950722,4.66293670343e-15,9.80664964808,-8.43769498715e-15,95.8823664254
1409523495770,1.82542541717,10.4251147178,0.442807089585,-2.44249065418e-15,9.80665063045,4.4408920985e-15,101.481406065
1409523495788,1.35570353737,11.0113666451,-0.0179856326139,5.99520433298e-15,9.80665008007,-3.10862446895e-15,106.722742233
1409523495789,0.793136868948,11.5824595474,-0.109407282333,1.06581410364e-14,9.80664920569,-2.22044604925e-16,112.096133447
1409523495805,0.362375143868,11.9627383467,0.434321686025,5.10702591328e-15,9.80665142357,3.99680288865e-15,116.294087978
1409523495806,0.137198166481,12.0791718384,1.39674215429,3.77475828373e-15,9.80665056523,-8.65973959208e-15,118.520889826
1409523495821,0.402254395575,11.6503991349,3.13408772068,4.21884749358e-15,9.80665006911,3.33066907388e-16,116.148152357
1409523495835,-0.634437126815,10.7035891612,13.1773234974,4.4408920985e-16,9.80665097099,4.55191440096e-15,113.07870064
1409523495839,-3.24206319001,10.8537836083,18.1436391558,4.4408920985e-15,9.80664942746,-2.0650148258e-14,95.8262331189
1409523495853,-2.04309226864,10.5366345902,5.66458916157,1.24344978758e-14,9.80665082753,3.5527136788e-15,86.1228521171
1409523495857,0.54631022175,8.91223312855,-3.94025917069,5.3290705182e-15,9.80665190347,8.881784197e-16,91.2402116921
1409523495871,1.49640001181,9.26943410236,-7.19382276405,5.10702591328e-15,9.80664924609,0.0,101.289815227
1409523495892,0.610327396922,10.672256219,-2.41438778884,6.66133814775e-16,9.80665110069,-5.99520433298e-15,105.977765475
1409523495892,0.0882852585065,11.5281548515,-5.15243463516,-1.33226762955e-15,9.80664978986,1.88737914186e-15,116.931702054
1409523495907,0.00129268222605,13.2574143599,-3.44597888052,-1.55431223448e-15,9.80665140371,-1.1990408666e-14,131.492172467
1409523495908,0.968770921383,15.430717276,0.658203520321,8.21565038223e-15,9.8066507471,1.03805852802e-14,151.019575685
1409523495926,3.46997493532,15.2242405733,2.06297228733,5.55111512313e-15,9.80664983155,-5.99520433298e-15,147.853797719
1409523495927,3.62346031898,13.7195069752,-1.74883739515,0.0,9.80665084826,4.32986979604e-15,135.067648071
1409523495937,0.682462255633,13.3575189512,-3.38554886661,3.10862446895e-15,9.80665295544,-5.21804821574e-15,132.77258166
1409523495956,-0.0999938451811,13.7864492157,-1.5268108865,-8.881784197e-16,9.80665113864,1.76525460915e-14,135.601513626
1409523495982,-0.671811561952,15.6279630891,3.19011932718,5.3290705182e-15,9.8066507325,7.82707232361e-15,152.190428544
1409523495983,-1.06177507166,16.6342412335,2.37685261505,5.77315972805e-15,9.80664996928,3.88578058619e-15,161.458924534
1409523495984,-0.380437571257,15.8174629596,-0.814903843765,1.7763568394e-15,9.80665158306,-2.55351295664e-15,154.907441514
1409523495987,-0.671393046457,14.9317355611,-0.316506429825,4.4408920985e-16,9.8066500542,8.881784197e-16,146.010621283
1409523496011,-1.05634280033,13.8508608845,0.903858657888,8.881784197e-16,9.80664917156,6.99440505514e-15,134.476774423
1409523496011,-0.717075216645,12.2821468949,0.759880275429,-3.10862446895e-15,9.80665178322,-9.54791801178e-15,118.771253183
1409523496020,-0.163407064591,10.2152200488,-1.19863746438,2.6645352591e-15,9.80664804943,1.04360964315e-14,100.292137555
1409523496040,-0.649901705463,9.29674211046,-5.57603547968,7.54951656745e-15,9.8066503405,1.09912079438e-14,95.6636168902
1409523496040,-1.14986448203,8.77579095976,-8.4538438332,0.0,9.80664966566,2.55351295664e-15,90.3572274053
1409523496058,-1.46592049822,8.88172221522,-8.36569930356,2.22044604925e-16,9.80665172204,-1.1046719095e-14,85.9230166579
1409523496058,-2.43796423029,9.85792099072,-6.52032204037,-1.7763568394e-15,9.80665044231,7.66053886991e-15,90.6901378968
1409523496072,-2.90528164341,10.3690768522,-4.97918959172,8.43769498715e-15,9.80665036569,2.6645352591e-15,93.2358337796
1409523496092,-3.49163677633,14.6922079852,-4.32698046306,8.881784197e-15,9.80665096668,2.22044604925e-16,132.257066699
1409523496092,-2.70588536946,18.8034770002,4.43069943567,-4.4408920985e-16,9.80665138384,4.4408920985e-15,185.223999657
1409523496098,-0.780317256501,17.9784272541,11.6212128377,-6.2172489379e-15,9.80665000509,5.55111512313e-15,189.964116689
1409523496106,-4.15666684928,18.7998495885,7.08102597458,1.7763568394e-15,9.80664971443,7.54951656745e-15,188.25258242
1409523496122,-7.12204009993,16.4019512484,1.90529238455,2.29816166097e-14,9.80664929104,-1.87905246918e-14,161.139200818
1409523496138,-7.9060352079,12.2859006916,-2.54075680043,-8.881784197e-15,9.80665007288,-2.9892754938e-14,120.054838048
1409523496139,-5.56044617717,10.2578276211,-6.03790981844,1.17128529098e-14,9.80665016092,5.49560397189e-15,98.192784918
1409523496156,-3.07957491591,10.5360018992,-6.795550279,2.22044604925e-15,9.80665171992,-1.7763568394e-15,97.2710083951
1409523496159,-1.77863615912,9.73962257523,-5.30707256228,-1.33226762955e-15,9.80665085484,-2.22044604925e-16,87.7583285425
1409523496171,-1.14216418801,7.97127009747,-3.5685325439,3.77475828373e-15,9.80665058154,2.22044604925e-16,70.7749575651
1409523496188,-1.57540136882,6.70623549969,-1.87750970548,9.54791801178e-15,9.80665117692,3.10862446895e-15,60.0880374331
1409523496188,-1.33979579908,5.25809770394,-3.38202265345,-3.77475828373e-15,9.80665014209,6.2172489379e-15,42.8101599185
1409523496202,-1.12672096915,4.91855649929,-4.33400204517,-6.66133814775e-16,9.80664943299,-1.33226762955e-15,36.0714072388
1409523496206,-0.9096662958,4.9399339472,-2.94279656541,1.11022302463e-15,9.80664895204,5.3290705182e-15,37.4624189867
1409523496222,-0.582862056934,4.3423515425,-0.149483372759,4.88498130835e-15,9.80665031419,-1.7763568394e-15,38.4829717469
1409523496239,0.054217873796,3.76860097142,0.659169344987,-4.4408920985e-16,9.80664974817,3.99680288865e-15,35.4638568653
1409523496240,-0.0123204401809,3.16584529226,0.296084987936,1.55431223448e-15,9.80665002189,-4.4408920985e-15,29.117685962
1409523496255,-0.40593155864,2.70766844891,0.033615333286,-3.33066907388e-15,9.80665016957,4.4408920985e-16,24.3389347763
1409523496291,-0.562095438432,2.79427752498,-0.852212882349,6.66133814775e-16,9.80665110073,4.4408920985e-16,22.6543545471
1409523496292,-0.71948460736,2.9458795169,-1.55756622234,1.99840144433e-15,9.80665142542,-8.881784197e-16,21.7425484731
1409523496295,-1.05687380531,2.82782179025,-1.55183397554,4.88498130835e-15,9.80665038482,0.0,20.1451529369
1409523496296,-1.4587853735,2.80068349586,-0.964527263455,-1.11022302463e-15,9.80665058903,1.7763568394e-15,21.2636319156
1409523496299,-2.91146470047,3.01198201587,0.733355173075,-6.66133814775e-15,9.80665037783,3.5527136788e-15,28.8617389131
1409523496308,-4.14103107527,3.55964918223,1.34600624176,-3.99680288865e-15,9.80665066278,2.6645352591e-15,36.3119054043
1409523496339,-3.76543237119,3.78815690701,0.474422515278,2.6645352591e-15,9.80664950401,-3.99680288865e-15,36.0605005638
1409523496343,-3.07366453675,3.71176606936,-0.565542432289,2.6645352591e-15,9.80665131648,-4.4408920985e-16,32.5810455626
1409523496345,-2.66266116897,4.10855212492,-1.66452294716,-8.881784197e-16,9.80665028478,4.4408920985e-15,32.9410969157
1409523496370,-2.044993341,4.69997482459,-1.85169247864,-2.6645352591e-15,9.80665056178,-2.6645352591e-15,36.759283732
1409523496371,-1.10681133139,4.88351063276,-0.77179766992,-8.881784197e-16,9.80665037012,3.10862446895e-15,40.2356277231
1409523496372,0.123183646353,5.24503121939,1.92807304141,-8.881784197e-16,9.80665050471,3.10862446895e-15,50.6024444848
1409523496391,8.24268227451,12.8973767532,2.08542437506,-2.6645352591e-15,9.80665121294,1.7763568394e-15,111.978188585
1409523496392,12.1015751247,8.36190045053,19.8337456804,3.99680288865e-15,9.80665000123,3.5527136788e-15,126.787458589
1409523496398,21.4231144391,-0.0399906447242,25.860773665,0.0,9.80665081896,4.4408920985e-16,68.2529912055
1409523496408,22.4608438045,0.449422576393,23.3278695708,-1.7763568394e-15,9.80665034408,-4.4408920985e-16,63.9492026258
1409523496428,14.6779569716,1.63636489427,14.1123379341,-8.881784197e-16,9.80665043329,-1.33226762955e-15,50.9660240739
1409523496429,1.84511266429,3.65201516624,-3.75452462471,3.5527136788e-15,9.80665146307,1.33226762955e-15,44.1737345426
1409523496442,0.840148726519,3.79188659057,-1.17744322379,3.5527136788e-15,9.80665057517,3.5527136788e-15,37.3950322855
1409523496462,-2.03071665334,4.74895636865,-1.8484870377,6.66133814775e-15,9.80665056134,1.33226762955e-15,47.189896982
1409523496463,-4.642411364,7.15288651895,-4.27269292563,1.33226762955e-15,9.80665091171,3.5527136788e-15,74.7801066229
1409523496467,-8.71972190848,13.0187994172,-7.63391267649,4.4408920985e-15,9.80665295791,5.3290705182e-15,136.33615003
1409523496498,-10.5347861998,16.8628401189,-8.4766309907,-4.4408920985e-16,9.80665128476,5.10702591328e-15,173.787332237
1409523496499,-7.05220375204,16.9813323937,-2.43708731956,-7.21644966006e-15,9.80665130021,9.99200722163e-16,167.338587344
1409523496501,-1.20648901359,13.6544339874,3.16733756012,-4.97643593e-13,9.80664924667,4.66293670343e-15,131.669881181
1409523496509,0.934242214207,12.3497030824,2.97271083899,-5.69544411633e-14,9.80665132425,-4.77395900589e-15,117.636381459
1409523496526,-2.45618023977,10.5216329742,-4.29307543589,3.07323611004e-14,9.8066487106,-8.65973959208e-15,106.619235271
1409523496527,-3.07346942252,8.12198156866,-5.01382519716,6.43929354283e-15,9.80665225747,-4.77395900589e-15,82.928855199
1409523496539,-2.03084612889,6.89240939828,-2.14193347967,-7.32747196253e-15,9.80665085193,5.49560397189e-15,68.1687375799
1409523496563,-1.67292013171,6.26110401151,-2.26478845111,3.77475828373e-15,9.80665143422,1.28452803949e-13,61.6083886803
1409523496563,-1.37856430754,6.31924781621,-1.46650555047,-2.10942374679e-15,9.80665030486,-5.48450174165e-14,61.7741932563
1409523496567,-1.21438669314,6.96288702583,-0.939059180688,-5.77315972805e-15,9.80665031862,-2.34812169708e-14,67.968984113
1409523496587,-1.60538502659,8.37387239743,-1.30841405833,5.3290705182e-15,9.80665112139,1.49880108324e-14,81.5177856163
1409523496587,-2.29088435701,10.141476771,-2.27504735,2.22044604925e-15,9.8066498025,1.1990408666e-14,98.0822769671
1409523496618,-2.78096835837,11.003872408,-2.70496870041,-1.11022302463e-15,9.80664925946,7.43849426499e-15,105.438560513
1409523496619,-2.34072168835,10.3233907458,-2.0012785461,4.88498130835e-15,9.80665084639,4.21884749358e-15,98.3659189167
1409523496621,-0.689233987403,8.60866119824,-1.17954713031,4.4408920985e-16,9.80664981872,5.55111512313e-15,81.9460892495
1409523496643,0.451415517157,7.69705880107,-0.68547112589,-5.77315972805e-15,9.80665140572,-4.4408920985e-16,73.3744472014
1409523496644,0.949265163757,7.5558638876,-0.573278689598,7.54951656745e-15,9.80665076814,8.881784197e-16,71.9318501157
1409523496647,1.13435436368,7.72699932567,-0.452401225519,-1.33226762955e-15,9.80665080373,3.5527136788e-15,73.5311207756
1409523496678,1.13179182417,9.03068112114,-0.539014546451,1.7763568394e-15,9.80665057209,-3.10862446895e-15,85.7329239571
1409523496681,0.921009102205,12.1552590213,-0.922165751591,3.77475828373e-15,9.80665095834,-2.6645352591e-15,114.829580744
1409523496682,0.567442565474,16.4331609002,-1.52680039964,-4.21884749358e-15,9.80664947506,8.21565038223e-15,154.172572297
1409523496687,0.787707217276,17.768530056,-1.95090571287,-3.99680288865e-15,9.80665068943,-6.66133814775e-15,164.972055014
1409523496714,1.38054155942,14.7505341751,-1.79785553453,-2.22044604925e-16,9.80664988529,-4.66293670343e-15,135.25316278
1409523496715,1.98616187249,10.9046010495,-0.758315148584,6.66133814775e-16,9.80664965837,3.5527136788e-15,100.172053847
1409523496719,2.33652888526,8.87839564503,0.439337492764,-1.7763568394e-15,9.80665130734,1.33226762955e-15,83.4955052209
1409523496741,2.57623382989,8.59946769884,0.807800172842,-5.10702591328e-15,9.80665010158,-2.22044604925e-15,81.8616382362
1409523496757,2.69885907289,8.64487735615,1.00780164381,-1.27675647832e-14,9.80665046171,0.0,82.9754470514
1409523496759,2.84511886179,7.62025849604,4.66705751865,1.49880108324e-14,9.80664867525,2.6645352591e-15,80.6117261467
1409523496760,2.696503227,7.51385061819,6.06789847052,-7.93809462607e-15,9.80665163494,-9.10382880193e-15,80.945611145
1409523496767,2.43589974382,8.32124650676,2.19802219576,4.46587211655e-14,9.80664893996,4.55191440096e-15,82.8961005537
1409523496789,3.41381419667,8.75751117806,-0.771755229586,-8.24326717996e-13,9.80665042226,6.10622663544e-15,84.7653886726
1409523496790,4.29259917636,8.28383813722,-2.11355226745,-2.07056594093e-14,9.8066494523,2.99760216649e-15,78.4483142087
1409523496810,3.41876117597,7.99448778586,-2.60171560945,1.1990408666e-14,9.80664923928,-8.881784197e-16,73.8247319879
1409523496811,2.02321593435,8.62187697943,-0.69762818932,-5.10702591328e-15,9.8066497407,8.881784197e-16,81.3116245071
1409523496818,0.306137426172,9.2707434093,0.607132027321,-1.99840144433e-15,9.80665070603,4.21884749358e-15,89.3008480331
1409523496836,-0.423017777056,9.47187395832,1.1757890186,-4.21884749358e-15,9.8066512248,-9.54791801178e-15,92.2969541651
1409523496838,-0.194412957142,9.81114203811,1.94876729533,2.6645352591e-15,9.80664983571,1.99840144433e-15,96.8980326502
1409523496858,-0.0335911059212,9.9675489802,2.14298269167,7.54951656745e-15,9.8066517024,4.21884749358e-15,98.809483553
1409523496861,-0.536261100675,9.93949839829,1.85618048631,-3.5527136788e-15,9.80665060563,-7.77156117238e-15,98.280829179
1409523496867,-1.14475049642,9.88272362398,1.55874560172,-7.1054273576e-15,9.80665043372,-1.7763568394e-15,97.4843687685
1409523496892,-1.34406309011,10.02864613,1.23251569972,-4.66293670343e-15,9.80665013026,-1.13242748512e-14,98.6759360451
1409523496894,-1.02344794556,10.3695793411,1.43223971548,2.22044604925e-15,9.80665215273,-5.3290705182e-15,102.168436311
1409523496899,-0.469063951306,10.6965336687,1.83616650232,8.99280649946e-15,9.8066510195,-1.33226762955e-14,105.580916499
1409523496924,0.0971025029089,10.6924949389,2.13471575768,-3.88578058619e-15,9.80664999971,-1.93178806285e-14,105.546913567
1409523496925,0.106445110196,10.7766561035,2.81866663857,4.10782519111e-15,9.80665021777,4.90441021128e-14,106.277891858
1409523496927,-0.990697311425,11.3703548426,7.5579738574,8.32667268469e-15,9.80665034763,1.4983140332e-10,111.505597627
1409523496939,-2.28312598785,11.9166427291,11.9156767869,-1.59872115546e-14,9.80664929455,7.21644966006e-15,108.259741933
1409523496959,-1.17352656806,11.7764473896,6.1777485413,1.23234755733e-14,9.80664867258,3.77475828373e-15,101.5471644
1409523496960,0.760310954635,11.4096302037,2.74705959151,5.77315972805e-15,9.80664852704,8.881784197e-16,100.827752257
1409523496967,1.97581352026,11.1110547812,-6.26357917651,2.45359288442e-14,9.80665058055,4.88498130835e-15,117.033829165
1409523496995,2.60512612476,8.97161246818,-16.1762808972,2.2315482795e-14,9.80664952028,1.44328993201e-14,111.488270948
1409523496996,4.11162954145,14.42819255,-3.62257119097,3.5527136788e-15,9.80664974133,3.93296506473e-14,142.268896383
1409523496999,5.60820729599,17.2532485786,6.37696818942,-3.77475828373e-15,9.80664968266,-2.41473507856e-14,167.905283186
1409523497024,4.81273745338,17.5666287946,2.06661689902,3.10862446895e-15,9.80665016481,1.33226762955e-15,168.850147811
1409523497026,3.05644394356,16.4238236941,-2.7431508933,7.54951656745e-15,9.8066499655,-6.43929354283e-15,162.058096348
1409523497028,2.6608645022,14.9256949313,-1.76012469722,2.22044604925e-15,9.80665130657,-4.32986979604e-15,146.764814479
1409523497061,1.54403804802,15.0920394361,0.867094334663,2.6645352591e-15,9.80664978654,-1.7763568394e-15,146.749178439
1409523497061,-0.180876672991,15.3285973015,0.0355259192719,6.2172489379e-15,9.80665063958,-1.12132525487e-14,149.590104807
1409523497062,-0.621483784062,14.5683442474,1.20686489062,3.5527136788e-15,9.80665011885,1.15463194561e-14,141.486694323
1409523497067,-0.778797693516,13.6219435395,0.921803052787,3.5527136788e-15,9.80664993899,1.23234755733e-14,132.061807269
1409523497088,-1.43325557645,13.0240299243,-0.693254570908,5.77315972805e-15,9.80664935712,1.25455201783e-14,127.132308072
1409523497088,-2.58421321957,13.4872279131,0.33185731063,4.4408920985e-16,9.80665242252,-4.21884749358e-15,130.383908074
1409523497102,-4.01377902556,14.129122145,0.486071763989,-1.33226762955e-15,9.80664871603,-6.66133814775e-16,136.051807767
1409523497117,-2.94804827448,12.1455954221,-4.89304405648,5.3290705182e-15,9.80665023493,-8.21565038223e-15,123.041889386
1409523497119,-1.43560157495,8.66392088125,-10.181008562,-2.22044604925e-16,9.80665137284,1.25455201783e-14,93.0836868425
1409523497134,-2.08192081706,8.0159656878,-10.0664415121,-2.22044604925e-16,9.80664890594,-1.14352971536e-14,79.9216598375
1409523497151,-2.91938147283,9.31167627126,-7.92826306268,6.66133814775e-15,9.80665006402,-1.22124532709e-15,85.7357598244
1409523497151,-3.94776064408,12.7166811062,-6.26914311037,6.66133814775e-16,9.80665112887,-6.66133814775e-15,114.633585314
1409523497169,-3.64641448119,18.6285495104,-3.06914153562,4.88498130835e-15,9.80664995185,4.4408920985e-15,171.646439172
1409523497169,-0.952839792509,19.5554284949,2.33172201987,5.10702591328e-15,9.80665002743,-2.6645352591e-15,188.858931063
1409523497183,-4.34860311276,17.504142382,11.5085575989,-3.77475828373e-15,9.8066496297,5.99520433298e-15,185.483186719
1409523497187,-8.69432673849,17.316302219,10.4160663444,-4.21884749358e-15,9.80664964532,9.7699626167e-15,177.267415169
1409523497203,-9.91191910456,14.5380259286,0.727086505032,5.07927033766e-15,9.80665111552,3.21964677141e-14,142.644227495
1409523497218,-7.78489136199,13.1481445742,-4.83198767921,-1.07691633389e-14,9.80665046215,3.21964677141e-15,128.040690247
1409523497221,-2.92134638239,10.3799241903,-6.72062461966,-7.9936057773e-15,9.80665130974,-3.44169137634e-15,97.7042838698
1409523497233,-0.632722457301,8.72583329525,-6.98831288484,3.10862446895e-15,9.80665065385,-5.44009282066e-15,77.8970259697
1409523497252,-0.885864090135,8.6670207979,-5.7243973875,-1.15463194561e-14,9.8066521943,-6.88338275268e-15,75.2405385899
1409523497252,-1.14133404385,7.63416295389,-4.55377663657,1.11022302463e-15,9.80664999616,1.55431223448e-15,64.1539668238
1409523497268,-0.638376649616,6.60898618822,-4.95426581651,1.7763568394e-15,9.80665010836,1.7763568394e-15,50.9915605442
1409523497269,0.198688973955,5.56889559025,-5.68794721936,6.2172489379e-15,9.80664988031,1.33226762955e-15,36.5518036926
1409523497283,0.687427586524,3.99952609246,-3.5043113098,-3.10862446895e-15,9.80665013891,4.4408920985e-16,25.1458289791
1409523497287,-0.165971781972,3.61098165305,-1.41061214159,4.66293670343e-15,9.80664970124,8.881784197e-16,26.9356438813
1409523497301,-0.935166574276,3.82030967359,0.805194726184,-3.10862446895e-15,9.80665095593,1.33226762955e-15,35.6062264969
1409523497315,-0.486080184253,3.82485216732,0.953892185438,-4.4408920985e-15,9.80664903777,2.22044604925e-15,36.1817276194
1409523497319,0.0688552701931,3.90905051458,-0.526960754904,5.10702591328e-15,9.80665176639,1.7763568394e-15,32.3397700334
1409523497333,-0.12807413401,4.49522948939,-1.51479588745,7.77156117238e-15,9.80665045752,2.22044604925e-15,34.0049465915
1409523497351,0.0737727941214,4.38901918488,-1.8161591327,-1.7763568394e-15,9.80665071643,3.5527136788e-15,31.2001298245
1409523497352,-0.216886117611,3.3219564617,-1.47282145703,-2.22044604925e-15,9.80665084372,2.22044604925e-15,22.5412599924
1409523497378,-1.27041535211,2.24622334823,-0.971489091942,6.43929354283e-15,9.80665132631,-4.4408920985e-16,15.1355065433
1409523497379,-3.02881293146,1.91991412513,-0.124831320465,-3.33066907388e-15,9.8066506358,4.4408920985e-16,15.933718705
1409523497380,-3.85457923447,1.88809385193,0.0252127209932,-2.6645352591e-15,9.806650679,0.0,16.8284290253
1409523497388,-4.12752848965,2.24256069753,-0.209566473628,-8.881784197e-16,9.80665145531,8.881784197e-16,19.4955512908
1409523497416,-4.03646560934,2.97755005116,-1.14563514718,-1.33226762955e-15,9.80665089889,-4.4408920985e-16,22.703939837
1409523497417,-3.50024485741,3.83545403607,-2.31883838119,-1.7763568394e-15,9.8066506321,0.0,25.5366968859
1409523497419,-3.11855341719,4.45544754196,-1.80726703053,8.881784197e-16,9.80664983856,3.99680288865e-15,31.8412752811
1409523497434,-2.59515317674,5.23797622625,0.26617843737,0.0,9.8066504137,1.33226762955e-15,45.2152676718
1409523497452,-0.874638301949,6.50391038563,2.87348872154,2.6645352591e-15,9.80665106337,4.4408920985e-16,63.1613706233
1409523497453,3.24259001735,9.11415063002,6.48134048361,-8.881784197e-16,9.80665012104,3.99680288865e-15,93.7092956291
1409523497470,10.3525434042,11.634449723,13.1407971854,0.0,9.80664968556,8.881784197e-16,133.496940188
1409523497471,19.5271493379,8.70221379945,22.6115987656,8.881784197e-16,9.80664999346,3.10862446895e-15,114.567681973
1409523497486,24.1542328324,6.04320364657,22.6024171904,2.6645352591e-15,9.80665147846,-1.55431223448e-15,90.4000681807
1409523497488,19.4003861983,9.72119440152,13.6959715061,-8.881784197e-16,9.8066498785,-1.33226762955e-15,112.708852176
1409523497501,11.1064566036,3.83411517264,4.88250644062,-3.5527136788e-15,9.80665041879,2.22044604925e-15,43.2918891014
1409523497516,3.59369830756,5.19968685085,2.78487824365,1.7763568394e-15,9.80665035184,2.6645352591e-15,37.867612186
1409523497521,-0.463138267113,6.65036229847,-4.81569895434,-2.6645352591e-15,9.8066503684,0.0,72.3954395434
1409523497536,-0.389090494514,6.16072984006,-2.64529948712,5.3290705182e-15,9.80665241613,0.0,62.213543444
1409523497551,-2.33311109021,8.62118579242,-1.62536811528,3.99680288865e-15,9.80665165819,4.4408920985e-16,81.7759785815
1409523497552,-5.85304386346,14.2782987113,-3.73317044865,4.88498130835e-15,9.806649515,2.22044604925e-15,138.347162967
1409523497566,-6.23594420144,17.1302164236,-8.48775508121,0.0,9.80665107467,1.33226762955e-15,176.905253533
1409523497567,-2.91410338388,17.845749186,-4.5977679889,8.881784197e-15,9.80665104792,4.4408920985e-15,177.474117759
1409523497585,0.802122914627,15.7219333579,1.33412544501,-5.55111512313e-15,9.80664995249,6.43929354283e-15,150.199856846
1409523497588,0.328805491825,10.642701404,-7.27778410411,1.99840144433e-15,9.80665034625,1.11022302463e-15,112.154258748
1409523497600,-3.14849883137,8.83039947265,-9.2430485518,-8.881784197e-16,9.80665129325,7.66053886991e-15,93.2194000965
1409523497618,-4.40584440352,8.00277835322,-4.68436269481,1.1990408666e-14,9.8066502133,-1.46154442715e-12,78.4907254824
1409523497619,-5.35095697637,8.26075536799,1.8394484619,-1.11022302463e-14,9.80664976531,1.43218770177e-14,81.5718058524
1409523497631,-5.60906503222,8.56733805796,2.82456059173,-2.92266211233e-14,9.80664959821,2.52575738102e-15,84.3934245023
1409523497650,-3.77560682996,6.91455481435,-0.743871626428,5.82867087928e-15,9.80665101306,7.6688655426e-14,67.9008404587
1409523497650,-3.09876932899,6.10177503772,-0.709617082176,-1.64313007645e-14,9.80665088935,-5.42402928128e-13,59.849520818
1409523497665,-3.1945699258,6.60095928271,-0.166435178599,-2.22044604925e-16,9.80665005314,1.35308431126e-13,64.7116410378
1409523497668,-3.0075983474,7.21240489617,-0.60458266683,-2.22044604925e-15,9.80664905504,6.469824676e-14,70.6018502297
1409523497680,-1.87360325183,6.77006599109,-2.27604471165,6.88338275268e-15,9.80665081954,-1.03805852802e-14,65.782924646
1409523497698,-0.899593369482,6.1045517815,-3.25760565317,5.99520433298e-15,9.8066508106,4.38538094727e-15,58.1253608451
1409523497701,-0.736036211846,5.99711519216,-2.62927396946,2.22044604925e-16,9.80665127324,6.77236045021e-15,56.1524532451
1409523497738,-0.418220639814,6.23574137467,-2.03892836274,3.5527136788e-15,9.80665126433,3.10862446895e-15,58.0016789974
1409523497740,-0.0257806047975,6.87515575927,-1.7299304329,-4.4408920985e-16,9.80664928879,-1.99840144433e-15,63.6970012881
1409523497741,0.295906658752,7.89623010425,-1.20776111384,1.7763568394e-15,9.8066499077,4.4408920985e-16,73.4231160634
1409523497742,0.727441900851,9.08498340965,-0.814570515062,-1.33226762955e-15,9.8066504986,6.43929354283e-15,84.7567289547
1409523497748,0.620202866226,12.398075498,-1.38891959114,-4.4408920985e-16,9.80664989355,1.11022302463e-15,114.539652542
1409523497772,0.0509081932874,18.1112250327,-2.24756152379,-5.55111512313e-15,9.8066504359,3.77475828373e-15,165.408815077
1409523497772,0.468294160338,20.4250466418,-2.24378181822,-3.99680288865e-15,9.80665125777,4.88498130835e-15,184.475944965
1409523497780,1.55772253581,16.972238811,-1.44367146963,2.6645352591e-15,9.80665125017,1.33226762955e-15,152.142382191
1409523497808,2.05098304788,12.6224529705,-0.176646965383,-2.22044604925e-16,9.80664971584,3.5527136788e-15,114.469371226
1409523497809,2.13578768467,10.0779637712,1.29466951407,1.11022302463e-15,9.80665193058,-2.22044604925e-15,94.9826638879
1409523497809,2.42887254039,9.16016123911,2.35613306951,7.32747196253e-15,9.80664964314,3.5527136788e-15,89.5593899143
1409523497830,2.89200830321,8.6899068289,2.54246505338,4.4408920985e-15,9.80664938453,3.5527136788e-15,86.148995237
1409523497831,3.14062838842,8.34869572189,2.76137381051,-2.22044604925e-16,9.80664998307,-2.22044604925e-16,83.7593941897
1409523497848,3.47670317706,8.61200940133,3.46382725841,1.47659662275e-14,9.80664977714,6.66133814775e-15,87.6623604346
1409523497849,3.99283157177,8.2814715731,9.5186652153,-3.9857006584e-14,9.80664927067,4.4408920985e-15,92.8507635987
1409523497865,3.40662710802,9.67604383204,9.44140199454,-1.04319330951e-13,9.80665077639,1.93178806285e-14,99.4379703829
1409523497868,3.39131458352,8.99059987042,3.11072418816,-2.33146835171e-15,9.80664881734,-1.28230759344e-14,86.8867443581
1409523497883,3.63659964807,7.72826087124,0.376845837004,-1.46549439251e-14,9.80664986158,-5.55111512313e-15,75.2422314174
1409523497899,4.28426913991,6.64395607416,-1.00536272487,-1.55431223448e-15,9.80665208624,3.17523785043e-14,65.5129184387
1409523497900,4.63293673413,6.4617027541,-1.77078607781,-5.10702591328e-15,9.80665252795,1.7763568394e-15,63.8726392842
1409523497915,3.22388923948,7.34338323488,-1.51339890731,5.3290705182e-15,9.80664944047,-4.38260538971e-14,72.1153783763
1409523497920,1.0705731612,8.27517763854,-1.05238280312,7.1054273576e-15,9.80664943424,-8.77631300966e-14,81.0153577322
1409523497932,-0.0731921529774,9.13756592345,-0.509197698569,4.88498130835e-15,9.80665014996,2.58681964738e-14,89.4328593158
1409523497950,-0.446513787131,9.89911683216,-0.199536289934,8.881784197e-16,9.80665055456,-1.19348975147e-14,96.9244676668
1409523497950,-0.974687105476,10.4169184158,-0.197277575829,-1.7763568394e-15,9.8066500709,1.54876111935e-14,101.967355352
1409523497964,-1.7510104657,10.6669601081,0.0392035307904,3.5527136788e-15,9.80664959113,6.93889390391e-15,104.464746892
1409523497968,-2.2457140306,10.8837323962,0.456005328364,2.6645352591e-15,9.80665164173,4.60742555219e-15,106.738225312
1409523497980,-2.21733579678,11.149993201,1.36527610724,-1.7763568394e-15,9.80665051842,1.55431223448e-15,109.675369695
1409523497997,-2.12067201825,11.2206436866,4.3371934258,1.02140518266e-14,9.80664885001,2.10942374679e-14,110.943159796
1409523498001,-2.96977218137,11.1529969262,11.334972701,-5.99520433298e-15,9.80665066908,3.40560912804e-14,107.168285088
1409523498027,-2.25195460872,11.4452882125,9.40142750386,5.3290705182e-15,9.80665124032,-6.66133814775e-15,98.6050132627
1409523498029,-0.505066790707,10.33236707,1.29829994288,3.88578058619e-15,9.80664976454,-3.5527136788e-15,94.2311770258
1409523498029,0.377186678323,9.51749555873,-3.96974814482,2.33146835171e-15,9.80665054427,3.99680288865e-15,97.2168397387
1409523498058,1.07736327539,10.2247512402,-4.33912068599,6.66133814775e-15,9.80664986652,1.11022302463e-14,104.437526711
1409523498059,1.28708526282,11.3598767838,1.15176399454,1.13242748512e-14,9.80664904356,2.22044604925e-16,108.959856194
1409523498061,1.97212973647,11.8421941332,-5.11290149854,-7.54951656745e-15,9.80664949789,3.10862446895e-15,120.345130137
1409523498068,1.55712401647,12.0855314864,-11.0058048187,-6.2172489379e-15,9.80664992162,-3.66373598126e-15,125.399898672
1409523498087,1.21332196094,14.3151934808,-4.1790059855,5.77315972805e-15,9.80665043829,-3.93296506473e-14,139.568100004
1409523498088,3.30357833624,15.0921253701,2.81296177153,-8.881784197e-16,9.80665147865,1.22124532709e-15,148.775481671
1409523498099,4.69830941219,14.3426995338,3.81001652875,5.3290705182e-15,9.8066526242,1.95173738282e-13,140.53869433
1409523498122,0.759366891257,15.5753523682,-1.0200489092,1.7763568394e-15,9.80665148866,-2.10942374679e-15,152.897958321
1409523498124,-0.0539938803389,17.2905015527,3.13727473092,6.66133814775e-15,9.80665130471,4.40203429264e-14,168.643735565
1409523498128,-0.599846255232,17.6397373941,0.870320475958,2.22044604925e-15,9.80665157185,6.10622663544e-16,172.264847738
1409523498158,-0.0761035126658,15.8778731204,-2.54894188721,6.2172489379e-15,9.80665013213,2.32036612147e-14,156.534183626
1409523498158,-0.27981595926,13.2836168756,0.757691040617,2.22044604925e-15,9.80665118626,3.61932706028e-14,129.954420965
1409523498160,-1.86777074407,12.8147820846,3.67611782595,4.4408920985e-15,9.8066499425,-8.99280649946e-15,123.814292764
1409523498168,-1.94808101931,12.9001707759,1.67910200661,5.3290705182e-15,9.80665162276,-6.32827124036e-15,124.034780104
1409523498182,-0.983448002579,11.7171744109,-2.98597538279,3.99680288865e-15,9.80665033931,5.55111512313e-15,116.695289854
1409523498198,-0.279825973768,9.42760471753,-7.28979182454,2.6645352591e-15,9.80664952349,-3.44169137634e-15,98.3294196325
1409523498200,-0.852008000183,7.78821551433,-9.19398127283,-2.22044604925e-15,9.80664838372,-2.94764213038e-14,79.511709148
1409523498227,-1.74408262572,8.72805684486,-8.41845711805,9.32587340685e-15,9.80664945881,-1.01585406753e-14,82.2625423341
1409523498229,-2.13139431964,10.77233495,-5.79354365269,1.99840144433e-15,9.80664916573,-2.22044604925e-15,98.2283801664
1409523498229,-2.821915933,13.4936821021,-3.65567985032,1.33226762955e-15,9.80664957394,-5.55111512313e-15,123.512270365
1409523498258,-3.25970669873,17.4211608444,-1.60535016412,1.11022302463e-15,9.80665171137,6.2172489379e-15,162.162976197
1409523498258,-2.52011037989,18.6333612218,6.01388904536,-5.10702591328e-15,9.80664975712,3.99680288865e-15,186.996633436
1409523498260,-4.30066531501,17.9657884053,10.0276567379,6.2172489379e-15,9.80664980198,7.9936057773e-15,186.346393482
1409523498268,-7.9552162753,18.5659549168,5.51525721953,-1.28785870857e-14,9.80665007795,-1.45439216226e-14,184.796990237
1409523498282,-7.82070086825,15.6005823475,1.1084315256,-5.38458166943e-15,9.80664963165,7.88258347484e-15,153.168682894
1409523498297,-6.36036111709,12.9372879031,-2.91853619846,2.63677968348e-14,9.80665034199,-1.38500322322e-14,126.109189867
1409523498302,-3.98907211249,11.1759402927,-4.19483842987,6.55031584529e-15,9.80664962714,6.10622663544e-16,107.474405069
1409523498320,-2.18975567821,9.22126441335,-4.89172889941,9.99200722163e-15,9.80665173356,-3.66373598126e-15,86.5684731328
1409523498321,-0.753152539932,7.98050891173,-4.66177986259,-7.32747196253e-15,9.8066500077,3.77475828373e-15,72.7794398243
1409523498328,0.162992361871,7.33047720111,-4.48237650664,-1.33226762955e-15,9.80665003213,8.881784197e-16,64.4775115147
1409523498354,1.31325208942,6.50613274816,-5.61487441151,2.22044604925e-15,9.80665133655,3.5527136788e-15,52.3006836832
1409523498355,0.718664414332,5.79380200559,-6.0170001577,-2.44249065418e-15,9.80665007252,1.7763568394e-15,41.1003267593
1409523498362,-0.128304646222,5.26361180175,-4.41387990662,-3.66373598126e-15,9.80665063694,5.77315972805e-15,36.4314444899
1409523498368,-0.884736778558,4.76890399753,-1.80508943889,-8.43769498715e-15,9.80665008844,3.10862446895e-15,37.2352495774
1409523498380,-0.0620633420927,4.1083228548,-0.540497053237,4.88498130835e-15,9.80665058502,1.7763568394e-15,34.5068061868
1409523498397,0.643012752841,3.4673247794,0.0681994158264,-1.55431223448e-14,9.8066492029,-3.5527136788e-15,30.4470586265
1409523498400,0.401640518267,3.3151562122,-0.0400785678346,1.33226762955e-15,9.80665094876,2.22044604925e-15,28.7063508733
1409523498416,-0.392506436548,3.01429719416,-0.484407617487,-1.23234755733e-14,9.80665026546,-1.7763568394e-15,24.7134296825
1409523498432,-1.058738812,2.77760872108,-0.953604573265,-1.45439216226e-14,9.80665062527,1.7763568394e-15,21.0425652179
1409523498433,-1.06948808131,2.74061624657,-1.72894199702,1.50990331349e-14,9.80665140559,-1.7763568394e-15,17.8716548394
1409523498451,-1.55310250679,2.39910060737,-1.31530533807,-1.55431223448e-15,9.80665017958,8.881784197e-16,15.8295628373
1409523498452,-2.26534593577,2.34290552802,-1.04332080706,-1.1768364061e-14,9.80665067137,3.10862446895e-15,16.1025649027
1409523498465,-3.09440004773,2.05464395314,-0.108617345352,-8.881784197e-15,9.80665116159,2.6645352591e-15,17.2859528602
1409523498468,-3.61484688738,2.24256313048,0.407291497242,-1.7763568394e-15,9.80665125651,-3.10862446895e-15,21.2357844173
1409523498482,-3.17293239414,2.52020501998,-0.531931552249,4.4408920985e-16,9.80665003243,-2.22044604925e-15,20.447453601
1409523498498,-2.29988286476,2.54257917925,-1.95498619117,0.0,9.80664995098,8.881784197e-16,15.354271752
1409523498500,-1.68703102827,3.00750673149,-2.54393724018,0.0,9.80664980079,8.881784197e-16,15.8156494849
1409523498511,-1.23494572382,3.29845366823,-2.04402486319,-2.6645352591e-15,9.80664991816,-8.881784197e-16,18.3146662399
1409523498527,-0.999701109976,4.07048195397,0.552300574985,-1.7763568394e-15,9.806650984,-8.881784197e-16,33.1820054911
1409523498528,0.364249953108,5.64677579261,5.0936310501,8.881784197e-16,9.80664971958,1.33226762955e-15,61.5121450952
1409523498547,8.59868742772,14.559748732,7.85671494706,0.0,9.8066501709,0.0,138.374398381
1409523498548,17.0295919341,5.6121587355,25.2732936453,0.0,9.80665029063,-2.6645352591e-15,118.361258456
1409523498569,22.1960356624,2.72403395406,24.882166556,0.0,9.80665031145,1.7763568394e-15,92.1273095654
1409523498570,19.7953308339,7.3888401895,15.9903164237,3.5527136788e-15,9.80665046656,0.0,104.840425343
1409523498580,9.71674679073,-2.41748331897,10.1061108987,1.33226762955e-15,9.80664987964,-8.881784197e-16,8.9403062315
1409523498603,3.60218598621,4.31551981301,-1.62184465058,6.66133814775e-15,9.80664942144,1.7763568394e-15,43.9902072342
1409523498604,-0.433485653645,3.77586099947,-5.6064644015,3.99680288865e-15,9.80665041796,8.881784197e-16,49.2691762351
1409523498609,-1.0720748286,4.60161404181,-1.62770055343,5.3290705182e-15,9.80665224063,4.4408920985e-16,45.9061400934
1409523498632,-2.58140490275,5.99586830321,-0.619730533326,3.10862446895e-15,9.80664857984,-3.99680288865e-15,56.507984741
1409523498632,-2.51746528932,5.51901545757,-0.785914932575,-8.881784197e-16,9.80665084368,0.0,52.392335035
1409523498649,-1.29218221204,3.99143869482,-4.06694868665,0.0,9.80665106595,-2.6645352591e-15,45.8064422901
1409523498649,-4.34559463961,5.68873342841,-9.20129379423,2.6645352591e-15,9.80664884465,-6.66133814775e-16,69.8321916618
1409523498665,-6.59932128073,10.7610994746,-7.04397240937,8.881784197e-16,9.80664906808,-5.88418203051e-15,109.729881017
1409523498680,-6.63802674233,12.7483717454,-1.81685416746,1.99840144433e-15,9.80665015352,-1.55431223448e-15,124.714073363
1409523498681,-5.94966426572,13.692182827,1.38792639791,-1.53210777398e-14,9.80665238989,5.07371922254e-14,134.569288833
1409523498695,-5.13822110031,15.7490290669,3.62461364298,-6.8597905134e-14,9.8066509142,-8.520961714e-15,154.922197497
1409523498700,-4.0756893977,15.0041901662,-2.03551629195,-2.12052597703e-14,9.80665124377,1.69586567011e-14,147.511258438
1409523498712,-1.78304535347,12.4651909147,-3.32292890087,-5.55111512313e-16,9.8066504112,1.03361763593e-13,122.101078641
1409523498729,-0.438829918145,10.4300624982,-2.26461259584,-1.1990408666e-14,9.80665125697,1.79301018477e-14,101.186286009
1409523498730,-0.0943711947499,9.20024538886,-0.94585003716,9.54791801178e-15,9.80665017957,3.66373598126e-15,89.0882147798
1409523498744,-0.942441782897,9.17383539091,-0.105767729966,2.88657986403e-15,9.80665197551,6.43929354283e-15,89.2558010339
1409523498749,-1.36358830655,9.43126326925,-0.0505053129,4.4408920985e-16,9.80664989572,6.66133814775e-16,91.8278944504
1409523498768,-0.952390879429,8.84822864969,-0.596331675713,8.43769498715e-15,9.80665244476,-2.55351295664e-15,85.7497697527
1409523498769,-0.593563695034,7.80698001491,-1.1670210309,-3.5527136788e-15,9.8066494593,1.33226762955e-14,75.0520147901
1409523498783,-0.322674281271,7.22065400897,-1.4762321297,2.88657986403e-15,9.80665071221,4.21884749358e-15,68.781448848
1409523498804,0.280526496787,7.30677229514,-1.85740838821,4.21884749358e-15,9.8066508021,8.21565038223e-15,68.7510434373
1409523498811,0.923547693445,7.8616028121,-2.57422779609,2.88657986403e-15,9.80664963877,-3.99680288865e-15,72.4659336751
1409523498812,1.06906430126,9.35030975448,-2.9792308217,3.33066907388e-15,9.80665134604,3.10862446895e-15,84.7607507036
1409523498834,0.653947501106,11.4623632282,-2.85415860523,-3.5527136788e-15,9.806650932,-7.9936057773e-15,103.082369459
1409523498835,0.321721739721,13.3348422149,-2.24080834619,4.4408920985e-15,9.80665063165,1.7763568394e-15,119.852469524
1409523498853,0.446607825479,13.7947149907,-1.27331610722,-4.4408920985e-16,9.80665051353,4.4408920985e-16,124.745148405
1409523498854,0.579570993801,12.7988700152,0.229612224986,6.43929354283e-15,9.80664957269,3.5527136788e-15,118.425001941
1409523498861,0.805352716156,11.5651138904,1.62339382761,4.21884749358e-15,9.80665000335,-3.5527136788e-15,110.543675612
1409523498882,1.04120802497,11.0846528348,2.48092847648,4.66293670343e-15,9.80665068482,3.10862446895e-15,108.529242969
1409523498885,1.39706545368,10.2787984441,3.34439840819,5.77315972805e-15,9.80664889556,7.54951656745e-15,103.165180114
1409523498900,2.10751108394,8.5053771872,5.75905945607,-2.10942374679e-15,9.80664941732,-2.6645352591e-15,90.3085207247
1409523498918,2.18109956317,8.08125120561,4.5786325742,-5.44009282066e-15,9.80664992887,-6.43929354283e-15,83.2455891236
1409523498919,1.49209336383,8.72576969045,1.81640955221,2.17603712827e-14,9.80664977193,7.66053886991e-15,86.3940611885
1409523498921,1.28762099315,9.35655478248,-1.11371365787,-4.31321645067e-14,9.80665098627,-8.21565038223e-15,90.7954983009
1409523498929,1.83840596468,8.58140213344,-2.9447736329,-2.44249065418e-15,9.80665128123,5.55111512313e-15,81.3829778778
1409523498948,1.77363877739,7.76448255289,-3.38323500284,-9.25370891025e-14,9.8066504181,1.33226762955e-15,71.4927502569
1409523498949,0.608591546447,7.11013983591,-3.10855205112,1.52655665886e-15,9.80665175472,-3.77475828373e-15,63.5142333353
1409523498968,0.127061973284,7.11661388229,-1.9638248017,3.33066907388e-16,9.80665101644,-8.881784197e-16,63.7672777896
1409523498969,0.215581607034,7.64571524184,-0.0925305793035,2.60347299275e-14,9.80664933262,-8.881784197e-16,71.5050890581
1409523498981,0.75385766947,8.15826541696,1.10766825208,2.64233079861e-14,9.80665023111,-3.10862446895e-15,78.745325493
1409523498999,1.12771347192,8.53292514312,1.71234825245,-2.10942374679e-15,9.80665078651,-1.7763568394e-15,83.740938105
1409523499015,0.839375756534,8.81218103843,2.09463618465,-1.0325074129e-14,9.80665041733,4.4408920985e-15,87.3367885046
1409523499015,0.0562245313115,8.88011911048,2.36173608861,1.55431223448e-14,9.80665197875,4.4408920985e-15,88.5569200569
1409523499030,-0.606489497064,8.91764032081,2.72125856525,-1.57651669497e-14,9.8066520996,6.66133814775e-16,89.3927841252
1409523499031,-0.556819988577,9.23215160103,2.63243053066,-1.00475183729e-14,9.80665065286,8.54871728961e-15,92.1761400984
1409523499045,0.0424078441999,9.86642442758,1.69619913888,-1.43773881689e-14,9.80664868986,3.88578058619e-15,97.4460108427
1409523499049,0.683716592016,10.8388754986,0.601693486171,5.77315972805e-15,9.8066500013,1.57651669497e-14,106.292076708
1409523499061,1.15480294061,11.5146633391,0.0292868977118,1.7763568394e-14,9.80665093487,2.3758772727e-14,112.608478409
1409523499076,1.37453230109,11.5895284316,0.0814985226354,6.32827124036e-15,9.806650843,1.22124532709e-15,113.316401274
1409523499083,1.3747008253,11.4167855004,0.320253370333,-2.55351295664e-15,9.80665010932,1.9206858326e-14,111.735291044
1409523499095,1.26714853124,11.2806751484,0.450835825872,9.32587340685e-15,9.80665003966,-3.88578058619e-15,110.484975712
1409523499124,0.876044573515,11.5667772891,0.591065234859,1.55431223448e-15,9.80665130849,1.11022302463e-14,113.378395012
1409523499125,0.415293955021,11.9968494736,1.21124471077,9.54791801178e-15,9.80664891947,-7.43849426499e-15,117.944892319
1409523499126,0.64123267612,11.9923448852,5.10993115439,-1.7763568394e-15,9.80665099874,-1.16573417586e-15,119.720005033
1409523499129,1.47558756419,11.3892882474,13.6879418043,7.77156117238e-15,9.80664926378,-6.37802310965e-13,111.908831733
1409523499148,1.48759698,12.5816070536,7.80510352455,1.99840144433e-15,9.80664963036,-2.44249065418e-15,112.280773596
1409523499150,1.5147516707,13.5445998331,-0.234666245677,-1.99840144433e-15,9.80664869201,6.66133814775e-16,128.898103161
1409523499166,2.0485753935,15.2444997902,-1.43245022532,4.4408920985e-15,9.8066482531,-6.66133814775e-16,147.835154901
1409523499169,2.29997906298,15.8934455542,-8.30785185708,2.88657986403e-15,9.80665121448,7.77156117238e-15,164.156896595
1409523499181,2.7940770415,14.1699268936,-6.31173315963,5.77315972805e-15,9.80664996326,1.68753899743e-14,142.382630078
1409523499206,0.999538429921,14.6547250536,4.19597715476,-4.4408920985e-16,9.80665236035,1.11022302463e-15,142.551125983
1409523499207,0.773293165728,16.3819273653,3.05312430947,4.88498130835e-15,9.80664964632,3.5527136788e-15,156.950028209
1409523499209,2.03559980462,16.0523853576,-1.65871240681,3.10862446895e-15,9.80665184782,7.1054273576e-15,157.116941715
1409523499234,2.04542407555,16.2175621519,-0.351002785936,-1.33226762955e-15,9.8066500183,-1.02140518266e-14,157.565211019
1409523499235,1.4608521869,15.8751031062,-2.59763320943,3.10862446895e-15,9.80664900006,9.54791801178e-15,156.655414139
1409523499241,0.832412035885,12.4680578706,-3.54976682279,3.10862446895e-15,9.80665195304,3.33066907388e-16,124.464742849
1409523499249,-0.362979958967,11.4149083861,-2.71019174308,-8.881784197e-16,9.80664898897,-1.25455201783e-14,113.255274346
1409523499264,-1.68519136071,11.998974129,-2.75693998689,0.0,9.80665099478,7.77156117238e-16,118.851677879
1409523499280,-0.760629845045,11.8943504995,-5.84281612689,2.6645352591e-15,9.80664883979,1.08801856413e-14,119.000169342
1409523499281,-0.188207358358,9.78114726079,-7.37778610323,-8.881784197e-16,9.8066497369,-1.30520594332e-14,96.2265740925
1409523499297,-1.87191277926,9.62468372878,-6.6617656098,0.0,9.80664989994,-1.22124532709e-15,90.6959293985
1409523499313,-3.56150758831,11.2976550729,-5.48796414683,5.3290705182e-15,9.80664824285,-8.65973959208e-15,103.810075063
1409523499313,-4.84987766426,14.6544607339,-4.80468908503,6.66133814775e-15,9.80665036812,3.77475828373e-15,133.446575234
1409523499334,-4.9742198405,19.2012458958,-1.1331042478,-3.5527136788e-15,9.80665005229,-3.99680288865e-15,179.789091975
1409523499335,-2.78320832924,18.3518148907,7.38283590991,6.66133814775e-16,9.80664990379,-1.55431223448e-15,186.782436947
1409523499341,-5.8266850256,17.8253634286,9.22104253712,7.1054273576e-15,9.80665022528,1.11022302463e-14,183.236514102
1409523499349,-8.51642469775,16.0813891577,4.33643272133,-4.4408920985e-16,9.80664865793,4.21884749358e-15,159.620809642
1409523499365,-9.37494972953,12.7339679916,-3.1795560976,8.54871728961e-15,9.80665073236,6.66133814775e-16,123.743299467
1409523499384,-7.41766074862,11.9343350674,-6.61331044423,-1.72084568817e-14,9.80665113107,1.74305014866e-14,112.60493474
1409523499385,-2.90429830611,9.94753831825,-5.96146846433,1.73194791842e-14,9.80665183315,1.7763568394e-15,90.1186345632
1409523499390,-0.496687659735,8.89957870058,-3.99638101327,4.10782519111e-15,9.80665016956,-2.22044604925e-16,79.8820639018
1409523499422,-0.642573748558,8.44502627317,-3.07504200458,-1.7763568394e-15,9.80664988908,-2.44249065418e-15,75.4339915607
1409523499423,-1.44812967402,7.42999916087,-2.24977339602,2.22044604925e-15,9.80665196952,6.2172489379e-15,66.0799670914
1409523499426,-2.45654634126,6.82663869527,-2.06150320329,5.3290705182e-15,9.80665050965,1.33226762955e-15,59.8236087507
1409523499430,-1.25263622007,5.68917824431,-4.45563784537,-2.22044604925e-15,9.8066502813,-4.4408920985e-16,43.0771270446
1409523499455,0.131985119351,4.16367337583,-4.52926739106,8.43769498715e-15,9.80664991287,-4.4408920985e-16,26.368922892
1409523499457,-0.49585752888,3.73684979106,-2.16491305267,4.66293670343e-15,9.80665024526,-2.22044604925e-15,26.9547174551
1409523499461,-0.814949888296,4.54613251383,-1.39059985654,7.9936057773e-15,9.80665081482,6.66133814775e-15,35.6442797181
1409523499477,-0.383532754758,4.46902459401,-0.667842856042,5.3290705182e-15,9.80664919593,8.881784197e-16,36.6579598775
1409523499537,-0.285956781162,4.30829332847,-0.564167759048,3.5527136788e-15,9.80665043184,-4.4408920985e-16,35.276341752
1409523499538,-0.419924514666,4.12269638111,-0.283017370406,1.99840144433e-15,9.80664941556,2.22044604925e-15,34.3020365052
1409523499539,-0.697842911828,3.84785200323,-0.408317433659,1.55431223448e-15,9.8066507423,4.4408920985e-15,31.4236030375
1409523499540,-1.11648222237,3.74886073975,-0.929764130029,1.11022302463e-15,9.80664981509,8.881784197e-16,28.7439468414
1409523499542,-1.51652350316,3.53123211365,-0.916434164107,1.11022302463e-15,9.806649698,1.7763568394e-15,26.6966737172
1409523499542,-2.63764824134,3.35122565791,0.179827943761,2.44249065418e-15,9.80665061897,-1.7763568394e-15,29.1203207144
1409523499545,-3.34705642332,3.54236810156,0.141378351267,8.881784197e-16,9.80665017752,3.5527136788e-15,31.107203155
1409523499572,-4.07918075836,3.65339232889,0.189336158146,0.0,9.80665087357,1.33226762955e-15,32.9426721599
1409523499573,-4.02258327679,3.22460095134,0.257260586891,-8.881784197e-16,9.80665089199,2.22044604925e-15,30.1255915694
1409523499581,-3.45442618701,3.41778120776,-0.733250816437,0.0,9.80664991257,-8.881784197e-16,28.8208532168
1409523499584,-2.74144291798,3.8412997783,-1.7370289287,-4.4408920985e-15,9.80665038848,-1.7763568394e-15,29.0520715825
1409523499616,-1.75879751196,4.22478025928,-1.7189684565,1.7763568394e-15,9.80665084882,1.33226762955e-15,31.2169927203
1409523499618,-0.4082171906,4.14668648275,-0.0055714940549,0.0,9.80665010509,3.99680288865e-15,34.4640487504
1409523499618,1.56736949795,4.14411884526,3.93072412093,-8.881784197e-16,9.80664992246,0.0,45.8602527271
1409523499633,7.00911928711,7.90879440263,10.5686462006,-8.881784197e-16,9.8066511635,1.33226762955e-15,95.6591321627
1409523499634,14.8736275936,10.2478311843,20.0889767651,1.33226762955e-15,9.80665052473,6.66133814775e-16,132.403841302
1409523499645,23.3199854818,4.43893770313,23.8935598733,-4.4408920985e-16,9.8066501158,6.66133814775e-15,86.9573625415
1409523499672,22.0117243096,5.30641649592,20.663873899,-4.4408920985e-16,9.80664933475,3.5527136788e-15,90.9336638048
1409523499673,12.5593042804,3.55455032155,9.33061353663,-1.7763568394e-15,9.80665038369,3.99680288865e-15,51.7550071776
1409523499674,4.16651470512,7.12091926409,-0.809930016331,3.5527136788e-15,9.80665024907,2.6645352591e-15,63.8751172148
1409523499713,0.575930833174,5.48114953034,-3.25025515709,3.10862446895e-15,9.806649653,-4.4408920985e-16,57.5591731786
1409523499713,0.261671079075,5.3924733884,0.50441729699,2.6645352591e-15,9.80665112487,4.4408920985e-16,45.7511332349
1409523499714,-1.93785632033,6.62955193146,-0.796666233862,7.1054273576e-15,9.80665031154,-2.22044604925e-15,59.3852693074
1409523499715,-4.01356143944,8.49197048826,-6.63976053765,1.7763568394e-15,9.80665204817,-4.4408920985e-15,92.6564184567
1409523499737,-7.45602581044,13.007065716,-13.6638330467,2.22044604925e-15,9.80665301951,3.10862446895e-15,151.428222657
1409523499738,-7.17709275458,16.0122338991,-10.4182269903,4.4408920985e-16,9.80665175534,1.7763568394e-15,168.069745687
1409523499744,-5.09619892764,14.1212123244,-1.62383010209,-1.99840144433e-15,9.80665098094,1.72084568817e-14,138.914021767
1409523499768,-3.74812068376,11.9307228139,1.33177829118,5.3290705182e-15,9.80665242407,-1.00475183729e-14,116.127689908
1409523499769,-4.52964201144,12.3272977614,1.31640921094,-8.54871728961e-15,9.80665167408,-9.21485110439e-15,119.623632384
1409523499776,-6.41379191191,11.9013637348,-1.87938269773,3.65263375102e-14,9.80665202845,1.22124532709e-14,117.420907612
1409523499785,-4.32095369741,10.8039004911,-1.67020887767,1.00475183729e-14,9.80664935242,1.21569421196e-14,106.511065659
1409523499814,-2.29795753696,8.68479211467,-4.34864391644,1.33226762955e-14,9.80665087037,1.48214773787e-14,86.4489299845
1409523499816,-1.58244146944,6.78318050335,-2.66671446483,4.32986979604e-15,9.80665039817,-1.58068003131e-14,66.2816799857
1409523499817,-1.6936759767,8.53234951195,-2.51703844346,1.22124532709e-14,9.80665172194,1.49880108324e-15,82.7418556444
1409523499835,-1.57127207381,9.96379515839,-2.60804960443,-4.21884749358e-15,9.80665052288,2.67563748935e-14,95.9771766236
1409523499836,-1.74198856669,10.5980712048,-2.88327122405,-4.88498130835e-15,9.80665117348,-6.32827124036e-15,101.037783437
1409523499843,-1.24068934688,9.50079041137,-2.67437371945,5.3290705182e-15,9.80665111178,4.88498130835e-15,89.2753842078
1409523499861,-0.646738015454,7.80833455472,-1.48989088765,-4.4408920985e-16,9.8066512689,3.10862446895e-15,73.2228716176
1409523499863,-0.133281364917,6.99115242201,-0.710526325846,1.55431223448e-15,9.80665033106,4.4408920985e-15,65.9030844725
1409523499882,0.130576696792,7.41200090151,-0.790736993164,5.10702591328e-15,9.8066515007,6.88338275268e-15,69.5029240919
1409523499899,0.154863200883,8.17578247879,-0.752259733695,-5.55111512313e-15,9.80665038897,1.33226762955e-15,76.5273948642
1409523499900,0.316254948403,8.96444889158,-0.448654080069,-5.3290705182e-15,9.80664947698,-4.4408920985e-15,84.2480819122
1409523499906,0.79804680528,10.0510235789,-0.590559422824,-2.88657986403e-15,9.80665050807,1.33226762955e-15,94.1498526825
1409523499915,0.438121442753,12.7743750484,-0.890855081246,4.21884749358e-15,9.80665069498,6.66133814775e-16,119.234345929
1409523499929,0.228453170534,15.8262912264,-0.61812843676,1.11022302463e-15,9.80664957948,-1.33226762955e-15,148.164781117
1409523499953,1.07821757799,15.3471739755,-0.189545709361,-2.22044604925e-16,9.80665138827,-1.7763568394e-15,144.105232423
1409523499954,1.91084791541,11.8690291819,0.420094454592,4.88498130835e-15,9.80664945517,1.55431223448e-15,112.416387259
1409523499955,2.19128325257,9.70371577618,1.86496109822,-1.33226762955e-15,9.80665021083,-1.33226762955e-15,94.884645123
1409523499962,2.43012823438,9.60124037337,1.68602705334,2.44249065418e-15,9.80665030824,3.99680288865e-15,93.9231426286
1409523499977,2.78534213994,9.64718495266,0.439784502901,-5.10702591328e-15,9.80665045419,3.10862446895e-15,92.5968223538
1409523499999,3.24001612996,9.01591966663,-0.0523837412791,1.11022302463e-16,9.80665165741,5.77315972805e-15,85.821007101
1409523500000,3.24699745769,8.43800663946,-0.694461027041,-2.77555756156e-16,9.80665114729,-5.55111512313e-15,79.1609396059
1409523500002,2.28872180953,8.7167814543,-1.09752273094,3.87190279838e-14,9.80664904514,2.88657986403e-15,80.8475869157
1409523500011,1.69526928368,8.43267901577,-0.622352104761,1.0616507673e-14,9.80664917985,8.881784197e-16,78.4890754694
1409523500035,1.46631177475,7.79468201948,0.377274457447,-7.79931674799e-15,9.80665076721,2.22044604925e-15,74.0738171137
1409523500036,1.17559276923,7.69282156631,1.25952770698,-2.09277040142e-14,9.80664982484,5.77315972805e-15,74.8473362135
1409523500045,0.947044481133,8.23731815469,1.03275946,4.77395900589e-15,9.8066518072,-3.5527136788e-15,79.7869047462
1409523500072,1.01499228592,8.87323087743,0.667624673307,-9.99200722163e-15,9.80665107286,8.881784197e-16,85.3914136033
1409523500073,1.18012129923,9.3956015978,0.821760071351,3.5527136788e-15,9.80665152431,3.99680288865e-15,90.7682281107
1409523500074,1.17796487713,9.44630886975,1.53270537874,-6.43929354283e-15,9.80665116589,1.11022302463e-15,92.5763950401
1409523500102,1.0149901915,9.35567342509,2.1193809757,1.25455201783e-14,9.80665109157,2.44249065418e-15,92.783325097
1409523500104,0.872451106221,9.35037519322,2.30494345035,-5.21804821574e-15,9.80665157595,-1.99840144433e-15,93.0765122058
1409523500107,0.774495920471,9.38588547227,2.16511925084,-5.99520433298e-15,9.80665099505,1.7763568394e-15,93.2563220923
1409523500110,0.597690926894,9.63471249747,1.92916323115,-7.54951656745e-15,9.80664967798,-7.32747196253e-15,95.407291447
1409523500132,0.474322257466,10.0646409818,1.59123693891,6.66133814775e-16,9.80665154591,6.66133814775e-15,99.3017364551
1409523500133,0.508635378863,10.3900193498,1.26133986411,7.32747196253e-15,9.80665028398,5.55111512313e-15,102.260890173
1409523500142,0.615324693998,10.6139686718,1.1558007277,-3.33066907388e-15,9.80665005415,9.9364960704e-15,104.382270461
1409523500173,0.632828314748,10.6280239479,1.44656204527,6.66133814775e-15,9.80664986338,-1.19348975147e-14,104.585315267
1409523500174,0.258374169734,10.6160208997,1.95642201702,-4.88498130835e-15,9.80665071106,-4.97102359276e-14,104.469455071
1409523500187,-0.651053841908,10.9711862059,4.59814583019,5.10702591328e-15,9.80665056634,1.8339496588e-14,107.783778444
1409523500218,-2.02881010356,11.4058107901,10.5160211746,-3.99680288865e-15,9.80665010984,9.65894031424e-15,107.710554058
1409523500219,-1.47831446065,11.6198521795,7.50374744161,2.22044604925e-16,9.80665080592,-4.4408920985e-16,101.782850846
1409523500219,0.208133300358,10.8310038596,0.185980449459,6.66133814775e-15,9.80665060243,4.4408920985e-16,101.586266751
1409523500220,1.58287595223,11.0335843714,-3.35953479374,2.88657986403e-15,9.80665033731,8.881784197e-15,110.509400796
1409523500224,2.07810725331,12.7204028772,-2.68488254362,4.66293670343e-15,9.80665219238,-4.88498130835e-15,125.947775033
1409523500232,2.00018957665,14.8644650031,-4.705195259,-8.21565038223e-15,9.80665150601,-3.33066907388e-15,149.126682715
1409523500252,2.53493723343,15.9836319626,-9.4085054186,3.5527136788e-15,9.80665130844,-1.15463194561e-14,162.321126651
1409523500253,4.67334831456,15.0461621111,-2.75377825187,4.21884749358e-15,9.80665114654,-2.08166817117e-15,147.346940495
1409523500262,5.04789623144,15.0774473065,1.82035271884,3.10862446895e-15,9.80665087182,2.58126853225e-15,148.105281796
1409523500277,3.23516296319,15.5554136994,2.61409829254,3.5527136788e-15,9.80664861293,7.97140131681e-14,152.200183736
1409523500300,2.02483720129,17.3804949967,3.00321321833,2.6645352591e-15,9.80665137546,3.83026943496e-15,169.01255282
1409523500301,1.05100313719,18.5747979723,-0.0174508405795,6.2172489379e-15,9.80665137064,5.21804821574e-15,181.393367157
1409523500302,-0.770931249985,17.9619258251,-2.815073483,8.881784197e-16,9.80664920461,6.99440505514e-15,177.185850048
1409523500311,-1.57517756621,14.8139996768,-2.35578583597,6.66133814775e-15,9.80665136253,-4.94049245958e-15,145.999781699
1409523500335,-3.09924047376,13.456344028,-0.523354630565,4.4408920985e-15,9.80665136442,1.90958360236e-14,131.962520963
1409523500336,-4.35244931359,12.6204593939,-0.64643120615,-1.7763568394e-15,9.80664824066,-9.38138455808e-15,123.781279534
1409523500345,-3.29078743538,11.3240000377,-3.20835631061,4.4408920985e-16,9.80665159209,2.25375273999e-14,112.263494298
1409523500366,-0.963942968489,10.1085060959,-7.97854248056,-4.4408920985e-16,9.80664940399,1.44328993201e-14,101.15576574
1409523500367,-2.20321310025,7.28521127909,-6.84623582407,-3.10862446895e-15,9.80665066522,3.60822483003e-15,69.1374750004
1409523500370,-3.29184017348,8.52155176634,-5.11163997631,4.4408920985e-15,9.80665041287,-2.88657986403e-15,78.5080598578
1409523500402,-4.14146184529,11.1363225453,-4.47583728861,3.5527136788e-15,9.80665068605,9.7699626167e-15,101.848166137
1409523500404,-4.87912333173,16.8110105067,-2.75518408412,-1.55431223448e-15,9.80664906747,-2.44249065418e-15,156.086522388
1409523500405,-4.33667151838,18.5824749821,5.07324489243,-1.02140518266e-14,9.80665054626,2.44249065418e-15,184.973290729
1409523500410,-6.48480574619,18.1151201245,7.73014411444,-2.44249065418e-15,9.8066491814,4.66293670343e-15,184.456773609
1409523500426,-9.42773149159,18.637273217,5.61504211422,1.7763568394e-15,9.80664921988,7.32747196253e-15,185.902702265
1409523500442,-9.11555343108,15.7388162284,1.4948663344,-1.01162134225e-13,9.80664958884,-1.9206858326e-14,154.685406049
1409523500443,-8.09711126521,12.786759829,-2.21686423189,-8.43769498715e-15,9.8066493536,-8.99280649946e-15,124.503514941
1409523500461,-5.73252254328,11.4867314128,-4.52443019939,-2.22044604925e-16,9.80664977787,3.30846461338e-14,110.253261819
1409523500475,-2.72884809879,10.3635574083,-4.5812893535,1.33226762955e-15,9.80665100475,-8.77076189454e-15,97.7847111617
1409523500476,-0.0586300824105,8.57632255931,-4.13503650643,-1.99840144433e-15,9.80665071319,4.4408920985e-16,79.1863723065
1409523500490,1.36930552124,7.5795282808,-3.47477255543,-1.33226762955e-15,9.80664945929,5.10702591328e-15,68.7178433894
1409523500491,1.31462810573,6.94207425998,-2.06167672592,6.66133814775e-16,9.80665001113,-1.99840144433e-15,63.0706516167
1409523500507,0.568690988935,6.84975872728,-1.85817082378,-5.55111512313e-15,9.80664973337,-1.33226762955e-15,61.5862651143
1409523500510,0.609858430732,6.05596076769,-3.26666859385,7.77156117238e-15,9.80665057677,1.33226762955e-15,50.6656095683
1409523500525,1.39834730967,5.48651719504,-5.40242934459,-2.44249065418e-15,9.80665188539,-2.22044604925e-15,39.2299227175
1409523500542,1.61932571426,5.9503820849,-6.62693958358,-4.88498130835e-15,9.80665084997,8.881784197e-16,36.6700132677
1409523500565,0.671993923171,5.41188611762,-2.69744291654,6.66133814775e-16,9.80665044644,8.881784197e-16,36.5754398167
1409523500566,0.201646433666,4.61113823504,-0.571929866026,6.66133814775e-16,9.80665044644,8.881784197e-16,37.0452807181
1409523500566,-0.190775888333,4.16083345318,-0.158253152429,6.66133814775e-16,9.80665044644,8.881784197e-16,34.6941484815
1409523500571,-0.476081517386,3.66358922502,-0.460032830567,4.4408920985e-16,9.80664932892,8.881784197e-16,29.3713272695
1409523500604,-1.2504171056,2.77660932419,0.076715548593,-3.77475828373e-15,9.80665004128,-8.881784197e-16,23.7026934401
1409523500606,-1.96528869634,2.43673090505,-0.0215137303517,2.22044604925e-16,9.80665098157,1.7763568394e-15,20.6836665604
1409523500607,-2.21335851679,2.55474746316,-1.26626668574,1.28785870857e-14,9.8066505583,2.6645352591e-15,17.5069916635
1409523500611,-2.52052794373,2.78756004898,-1.58600756232,-2.44249065418e-15,9.80665025359,2.22044604925e-15,18.0849367399
1409523500637,-3.17910221645,2.82018563386,-0.863983056859,3.99680288865e-15,9.80665048796,4.4408920985e-15,20.8770665118
1409523500639,-3.46121631659,2.84701018194,-0.822226437349,-3.5527136788e-15,9.80664973409,-1.33226762955e-15,21.5550975633
1409523500645,-3.24091043078,2.60872941001,-0.526401460747,-2.22044604925e-15,9.80665038685,8.881784197e-16,20.9589709661
1409523500672,-2.42709547026,2.73625514192,-1.11461901604,-3.10862446895e-15,9.80665000601,4.4408920985e-16,19.5222181309
1409523500673,-1.61801713793,2.71369024353,-1.09184711441,1.33226762955e-15,9.80665020024,8.881784197e-16,18.6940316472
1409523500674,-0.868246548558,2.93282678614,-0.64934399933,4.4408920985e-15,9.80665101115,-8.881784197e-16,21.0916615577
1409523500697,0.266211749337,4.07065587326,1.44318105611,-1.7763568394e-15,9.80665118099,2.22044604925e-15,36.2905842542
1409523500698,2.93933002054,7.55184952356,4.86322102132,0.0,9.80665108365,4.4408920985e-16,74.140172119
1409523500705,10.2962236012,14.1093410353,9.1053379077,-8.881784197e-16,9.80664900655,1.33226762955e-15,141.628645123
1409523500711,20.8786187458,7.38666861147,24.4848026468,2.6645352591e-15,9.80665045131,0.0,126.340601205
1409523500736,21.8962878354,6.30486469103,24.6151113597,4.4408920985e-16,9.80665025494,3.99680288865e-15,118.932538765
1409523500737,13.7310622833,8.32776936605,16.1565645315,0.0,9.80664886752,4.4408920985e-16,116.044385779
1409523500742,6.76567752537,-0.507916087455,4.97208055147,-1.33226762955e-15,9.80664976036,4.4408920985e-16,8.32293890008
1409523500767,-0.0705778146208,2.57489549037,-5.55596803663,3.99680288865e-15,9.8066493673,-3.10862446895e-15,39.8260920396
1409523500767,-0.249450274125,2.53940547739,-1.93965639516,2.6645352591e-15,9.80665010438,-1.33226762955e-15,27.9513062307
1409523500771,-1.09427905773,2.80274949441,0.055474783717,1.33226762955e-15,9.80665141904,8.881784197e-16,25.3438096247
1409523500804,-3.04966664363,3.84994539485,-0.672203244823,4.4408920985e-15,9.80665018073,1.7763568394e-15,36.133681336
1409523500805,-5.13401750126,7.08136392636,-5.22825250138,-1.7763568394e-15,9.80665196199,-8.881784197e-16,76.495791564
1409523500806,-8.83175251225,13.5418943212,-10.7141546125,4.4408920985e-16,9.80664931458,-2.44249065418e-15,147.451618951
1409523500811,-8.12197697454,18.1810950011,-7.48483654196,-2.88657986403e-15,9.80665188955,-1.1768364061e-14,183.038226353
1409523500836,-5.20186002582,16.265841166,-1.57688682303,-4.51860771022e-14,9.80665084439,1.38444811171e-13,159.603307378
1409523500836,-2.4888567208,13.59016217,3.90727371567,2.4480417693e-14,9.80664990001,-1.00489061516e-13,133.411061619
1409523500842,-2.99411832652,13.4547572263,0.422528555303,1.33226762955e-14,9.80664975384,-1.5598633496e-14,131.621334569
1409523500862,-2.77172745167,11.1315212049,-2.97566946053,0.0,9.80665220315,5.27355936697e-15,110.124493625
1409523500871,-1.32358484557,9.99218280324,-0.827653977486,8.43769498715e-15,9.80664915838,-2.3397950244e-14,98.0413138585
1409523500895,-0.761839914743,8.46071590314,-2.03011310632,4.88498130835e-15,9.80665092912,-9.07897021452e-13,82.958033842
1409523500896,-1.11753784444,6.7239187716,-1.70660320749,-1.24344978758e-14,9.80665018182,3.27515792264e-14,65.5850272618
1409523500897,-1.45692936691,7.07692123144,-0.870944547608,3.5527136788e-15,9.80665068051,1.16018306073e-14,68.9761785696
1409523500918,-1.64670615913,8.67863889738,-2.44684181619,-6.43929354283e-15,9.80665191511,3.33066907388e-15,83.789363084
1409523500919,-1.34434399879,9.81181954116,-4.11926805542,-1.33226762955e-15,9.80665013781,1.33226762955e-14,92.8423699557
1409523500922,-0.5598324909,8.22513250614,-2.80005072444,4.4408920985e-15,9.80665064064,6.66133814775e-15,76.5431202571
1409523500943,-0.176521155511,7.73826719212,-2.04910216677,2.6645352591e-15,9.80665124363,7.32747196253e-15,71.5357960476
1409523500944,0.429157663543,8.07966365973,-1.43643572719,4.21884749358e-15,9.80665002921,3.77475828373e-15,74.7841488163
1409523500965,0.704584659774,9.07973937632,-0.833630943052,4.21884749358e-15,9.80664961484,3.33066907388e-15,84.6046060048
1409523500966,1.00495382535,9.82826391954,-0.534780195416,4.4408920985e-15,9.80665085195,2.6645352591e-15,91.7986722044
1409523500971,1.34498438845,10.6515221132,-0.726546305964,-3.10862446895e-15,9.80665131531,3.10862446895e-15,98.9381642078
1409523501001,1.1453456444,13.1676452904,-0.215180012866,-4.66293670343e-15,9.80665044695,1.11022302463e-15,123.273267564
1409523501002,0.737360821965,15.7484032865,0.583942869007,-6.2172489379e-15,9.80665041678,-3.5527136788e-15,149.034319582
1409523501004,0.853328084379,15.2320716515,0.454936154525,3.33066907388e-15,9.80665076633,5.77315972805e-15,144.323116951
1409523501012,1.47499186629,12.7309736967,0.652224890148,1.7763568394e-15,9.80664984097,9.10382880193e-15,121.347872002
1409523501035,1.96886535656,11.0953165982,1.33640757322,2.44249065418e-15,9.8066507024,-5.55111512313e-15,107.341681107
1409523501036,2.2986305712,10.6093216113,0.540935932721,-5.10702591328e-15,9.8066489487,-4.4408920985e-16,101.710886437
1409523501043,2.82744747258,10.17580857,-0.490179805278,-1.22124532709e-15,9.80664936131,-3.10862446895e-15,96.0031241931
1409523501063,3.28045066175,9.66145917302,-0.595021980876,-1.65423230669e-14,9.80665080664,3.77475828373e-15,90.6698103329
1409523501065,3.28968313759,9.65200693243,-0.449780749121,-1.68198788231e-14,9.80664941561,1.55431223448e-15,90.5970003472
1409523501071,2.70984806304,9.74691829139,-0.38646498689,-3.75255382323e-14,9.8066510053,-5.3290705182e-15,91.3818395459
1409523501097,2.3076867698,8.42623119655,0.00174458454989,-2.30093721854e-14,9.80665209788,-3.99680288865e-15,79.4425918997
1409523501098,2.39243177885,6.83667444652,0.3888831576,-2.94209101526e-14,9.80665108703,7.1054273576e-15,65.1396002827
1409523501103,1.95943325013,6.23949564162,1.02576884883,-1.89848137211e-14,9.80665078307,-2.22044604925e-15,60.7711753313
1409523501111,0.65937367496,6.47615448992,1.36292974177,5.88418203051e-15,9.80664954467,2.88657986403e-15,63.7270542848
1409523501132,-0.234522187512,7.27494599491,1.47768600005,1.08801856413e-14,9.80664897392,7.1054273576e-15,71.6299662109
1409523501133,-0.0645496701948,8.05749313338,1.95499587823,-1.04360964315e-14,9.8066492865,9.99200722163e-15,80.0097098968
1409523501143,0.459756255642,8.80294486622,2.15581322159,-8.881784197e-16,9.80665027887,5.3290705182e-15,87.5698002101
1409523501163,0.88540351829,9.70525912334,2.37185242559,0.0,9.80664975818,-3.33066907388e-15,96.5871294846
1409523501164,1.11770786171,10.3705578039,2.65890600251,-4.4408920985e-15,9.80665016459,-6.66133814775e-16,103.243137955
1409523501171,1.04907692002,10.3612135349,2.8667501083,4.4408920985e-16,9.80665128999,1.11022302463e-15,103.022738044
1409523501200,0.691927999645,10.0655411364,2.81579423368,7.54951656745e-15,9.8066519902,3.66928709639e-14,99.599171758
1409523501201,0.249443264947,9.91714628857,2.5070845097,2.88657986403e-15,9.80665003529,-1.74305014866e-14,97.4863881594
1409523501203,-0.0202611489044,10.2693153855,2.23217435399,3.5527136788e-15,9.80665123798,5.98687766029e-14,100.407569518
1409523501211,-0.243501775269,10.9383434598,2.53581533075,3.5527136788e-15,9.80664830882,-9.82547376793e-15,106.36635777
1409523501225,-0.791038972429,11.3360017592,4.65213367198,-3.33066907388e-15,9.80665164378,5.99520433298e-15,108.347394921
1409523501240,-1.21050131616,11.2540331479,6.58630218566,2.44249065418e-15,9.8066512553,7.21644966006e-15,103.08460304
1409523501245,-0.990882597305,10.9524526443,4.99234475388,3.99680288865e-15,9.80665065211,-4.88498130835e-15,97.1410847359
1409523501256,-0.408726892808,10.3428594588,0.837976790826,3.99680288865e-15,9.80664955566,-2.22044604925e-15,95.8212482429
1409523501272,-0.177752986704,10.0630346859,-2.10896585408,1.1768364061e-14,9.80665129513,1.7763568394e-15,98.835224583
1409523501272,-0.142879554337,10.2198926753,-2.38070424638,5.10702591328e-15,9.80664966098,-1.7763568394e-15,101.254858188
1409523501289,0.132474107698,10.3758251139,-1.65917744591,9.7699626167e-15,9.80665117358,-2.88657986403e-15,102.012284725
1409523501291,0.74988821064,11.0438287352,-3.85563946829,1.13242748512e-14,9.80665141408,-3.5527136788e-15,111.270865298
1409523501306,1.58343241842,12.9719030596,-7.6299587304,-5.55111512313e-15,9.80665036575,4.66293670343e-15,132.666129066
1409523501326,2.80768239916,15.2328166993,-6.26762147683,1.7763568394e-15,9.80664911455,3.23630011678e-14,150.374570318
1409523501326,4.67656096091,16.1105543593,0.050473298657,5.55111512313e-15,9.80664800547,-3.82471831983e-14,157.832849204
1409523501339,5.16121278666,15.7851857199,2.37847896722,2.44249065418e-15,9.80664892504,1.09912079438e-14,155.294830058
1409523501343,4.08710244158,15.1293164924,1.64325629347,-4.4408920985e-16,9.8066488497,3.55895868331e-13,148.348218056
1409523501359,2.39207468881,15.3867384577,1.41059880164,-8.881784197e-16,9.8066516915,-1.47659662275e-14,150.634350002
1409523501373,1.07041854039,17.4808092702,3.09906930311,-4.4408920985e-16,9.80665052971,3.31401572851e-14,170.415662458
1409523501373,0.193904256517,17.5562731574,0.459548029699,3.5527136788e-15,9.8066498274,1.11022302463e-16,171.390761324
1409523501387,-0.285483319533,15.4319891327,-3.91483886876,2.22044604925e-15,9.80665020222,-1.55431223448e-15,153.112782799
1409523501391,-0.634394645366,13.0262874251,-1.83222173608,1.33226762955e-15,9.80664927881,1.3211653993e-14,128.21595874
1409523501407,-1.8927679047,12.7305905468,2.29832102406,-3.10862446895e-15,9.80665239055,-3.29736238314e-14,124.074042608
1409523501420,-2.55106499922,12.2697295412,2.23424279139,5.3290705182e-15,9.80664997965,1.66533453694e-15,118.649811633
1409523501425,-1.98510965498,11.8946914815,-3.51731170698,-3.10862446895e-15,9.80665194101,-7.9936057773e-15,118.645882205
1409523501438,-0.561192889483,10.8170167405,-9.11815530514,4.4408920985e-16,9.80664757528,1.28785870857e-14,110.884467384
1409523501443,-1.17054503133,8.87305809603,-8.62204637698,2.6645352591e-15,9.80664952253,-3.77614606251e-14,86.0722454229
1409523501457,-2.79622208092,8.82520742548,-6.76223648503,2.6645352591e-15,9.80665030227,3.33066907388e-15,80.609391113
1409523501472,-3.97273601274,10.4132015793,-5.17451485455,4.4408920985e-15,9.80664930741,4.21884749358e-15,93.4068171698
1409523501473,-4.54551628063,13.1842973911,-4.20353518881,-2.22044604925e-15,9.8066508149,-6.2172489379e-15,118.127956137
1409523501491,-3.05758763527,19.1306511418,3.1755183741,-5.10702591328e-15,9.80665048545,-2.44249065418e-15,185.810974079
1409523501492,-5.19965255769,17.3193272151,11.1568088709,0.0,9.80664923604,-1.55431223448e-15,183.20281272
1409523501508,-8.45787650977,17.7857047799,9.05179720266,4.4408920985e-15,9.80664987313,-8.881784197e-15,180.7080023
1409523501522,-9.28870807987,14.6220093077,1.59405233834,-6.93889390391e-15,9.80665152164,-2.33146835171e-15,143.650949996
1409523501523,-9.19953300041,12.5602228874,-3.52240745716,-3.59157148466e-14,9.80665047488,2.73392419814e-14,122.752803256
1409523501539,-5.73253293531,10.6623712915,-4.92256297583,3.44169137634e-15,9.80665031111,3.88578058619e-16,102.27529198
1409523501557,-1.94308810638,8.72264090338,-5.29130593209,-3.99680288865e-15,9.80665037854,-6.88338275268e-15,80.9428169202
1409523501558,-0.71586420986,8.00482849125,-5.08335620793,-2.88657986403e-15,9.80665062538,5.99520433298e-15,71.8783885607
1409523501571,-0.53884417637,7.16518965275,-4.26500181705,-9.32587340685e-15,9.80665090389,-1.11022302463e-15,62.4319398361
1409523501571,-0.973746408255,6.53441914499,-3.00460817689,1.02140518266e-14,9.80664896418,1.33226762955e-15,56.4119535924
1409523501594,-0.269608509427,5.90357327974,-2.94956790698,-1.7763568394e-15,9.80664875621,-1.33226762955e-15,49.1923116074
1409523501595,0.0944589019745,4.79173191081,-3.31241789758,4.4408920985e-15,9.80665114271,-1.33226762955e-15,36.7489221629
1409523501605,0.0238615253489,4.7839612974,-2.89780315559,-3.5527136788e-15,9.80665053982,4.4408920985e-15,36.3442319345
1409523501621,-0.265064760759,5.1564149449,-1.15275101607,2.22044604925e-16,9.80664999163,-3.10862446895e-15,43.144720979
1409523501623,0.478768416138,4.39371827033,1.10835212827,-1.99840144433e-15,9.80665118338,3.5527136788e-15,42.173466191
1409523501638,1.25823096361,4.19535945896,-0.0236718358575,1.99840144433e-15,9.8066503711,8.881784197e-16,37.3193374417
1409523501643,0.957735387773,4.55860391021,-1.60210744595,5.10702591328e-15,9.80664961818,6.2172489379e-15,36.0345015356
1409523501654,0.259097422394,4.57374081038,-1.54965300244,-2.22044604925e-15,9.80664927192,3.10862446895e-15,35.4468884014
1409523501671,-0.162667222792,3.81251327723,-1.13304015134,-4.88498130835e-15,9.80665122239,3.5527136788e-15,29.3868857262
1409523501672,-1.58775881805,3.17523699169,-0.518912667434,-1.99840144433e-15,9.80665071204,2.6645352591e-15,25.6774890513
1409523501688,-2.78659061918,2.69703682872,-0.150195155197,-7.32747196253e-15,9.80665071161,4.4408920985e-15,22.9675994024
