index,i,acc_x,acc_y,acc_z
0,0,-3.90673950361,16.3293738218,3.16391791994
0,1,-2.13637225358,13.6790316626,-0.026390529942
0,2,-2.3150818651,11.1033089347,-0.314824533788
0,3,-2.92531366121,8.30965085714,-1.67453241793
0,4,-2.08162008859,6.53335683951,-2.34817903636
0,5,-1.4445086375,6.1835755235,-2.06386607024
0,6,-1.63378766094,6.82571940353,-2.15431789173
0,7,-2.18867514403,7.78282626219,-2.87789815594
0,8,-2.23567465576,8.27740949999,-3.59391092353
0,9,-1.29638077531,7.91249302474,-3.358736538
0,10,-0.31214870181,7.47812031388,-2.48074925259
0,11,0.0743415649284,7.69719281439,-1.93343410187
0,12,-0.0347779078563,8.70033384745,-1.77742221906
0,13,-0.13606127507,10.4321997515,-1.91275734854
0,14,-0.110998718061,12.6929937569,-2.15252626249
0,15,0.234750140628,13.8312235904,-2.38559412912
0,16,0.507971378488,12.7981389732,-1.88965868859
0,17,0.374230867721,10.8085102683,-0.573087558421
0,18,0.166498001305,9.41935541485,0.567010442162
0,19,0.4797461294,8.7746591048,0.721599607512
0,20,1.44972794441,8.64177175524,-0.611731532074
0,21,2.68593189776,8.52120454877,0.0547299504825
0,22,2.98439213614,8.68902729427,3.97402440867
0,23,4.36496812516,8.45124918146,2.80627100175
0,24,5.9053075888,7.90961336054,0.389004936087
0,25,5.25858652784,7.76866262391,1.00654681499
0,26,3.47457250499,7.86164321895,1.90849037269
0,27,1.68686046125,8.53881882561,2.35858645115
0,28,0.299606475204,9.1995497347,2.04954237694
0,29,-0.586206208089,9.71659894111,1.50542607164
0,30,-1.09743837314,10.2996676567,1.13294918844
0,31,-1.44915845201,11.168881035,1.2096623383
0,32,-1.30399468827,11.8598119987,0.921419712619
0,33,-0.637763710482,12.042151146,0.658031531733
0,34,0.176823695731,11.8787261559,0.645185371959
0,35,0.73098953466,11.3578725839,2.16010969674
0,36,0.453302549707,10.3928108946,7.66992682438
0,37,-1.06973462725,10.6745658382,10.5691667613
0,38,-1.78383805721,11.6317089951,6.36962987392
0,39,-0.869859326439,11.6848517348,0.7384748566
0,40,0.0917558422514,10.7544633812,-9.25204679613
0,41,0.479787111437,10.589558118,-10.7598329879
0,42,1.61700858938,11.4253548534,-4.96208121172
0,43,3.40001330856,12.6199708155,0.190339196092
0,44,4.06904290516,13.81279523,3.07202483813
0,45,2.78463616995,14.1487924722,2.0923033393
0,46,2.00940662042,13.6436754838,-1.18039766948
0,47,1.78785638672,13.3489568922,-1.58268000683
0,48,1.08377878451,13.0368715812,1.24650277272
0,49,-0.222557530083,14.1375336736,3.71781587825
0,50,-0.237262828544,15.1928723404,1.95922439682
0,51,1.12934219289,14.0917580738,-0.202559768284
0,52,2.01833929648,13.2236143085,-1.39397404658
0,53,1.47124374766,13.4900385433,-1.4779293276
0,54,0.142607411869,12.6458782142,-0.646327196207
0,55,-1.50135543809,11.250390653,-1.59904236843
0,56,-2.28311347933,10.8732995228,-5.11679104429
0,57,-1.81759337951,9.08384737121,-7.68285702398
0,58,-2.61447869847,9.03121676579,-7.23729651613
0,59,-4.08106002024,11.4276603349,-5.5129960333
0,60,-5.13085318953,15.6415719321,-3.09114058102
0,61,-4.90874527726,18.7515883236,2.45483222507
0,62,-4.54891448947,18.3963106168,6.90736346248
0,63,-6.72972100411,18.0513314896,6.96698882929
0,64,-7.9600128706,15.9563019496,3.78594298255
0,65,-5.30820435706,13.1008379634,-1.1899073652
0,66,-1.61147346162,11.5935023216,-4.91651216606
0,67,-0.543585677399,11.4029847614,-5.79693037293
0,68,-0.0806831727844,10.0326534371,-5.02542297784
0,69,-0.306075409752,8.14887207054,-4.08268441288
0,70,-1.20212133481,6.95196643815,-3.226323907
0,71,-0.785812946815,5.72562767327,-2.46421160138
0,72,-0.229345374007,5.12141654852,-2.61978678132
0,73,-0.749270288011,5.47204788762,-1.76099691892
0,74,-0.674689701886,5.25866255089,-0.457743452139
0,75,0.0703016977797,4.47513074131,-0.450732111192
0,76,-0.070088280119,3.7699973503,-0.362200078566
0,77,-0.54136122237,3.33330502393,-0.82604762243
0,78,-1.08889812285,3.13072275542,-1.66986378209
0,79,-1.48662717876,2.83401175102,-1.88077846352
0,80,-1.82282169809,2.28446378968,-1.33290733128
0,81,-2.50374607163,1.76717032091,-0.360028337673
0,82,-3.43408849371,1.81855920839,0.391227820804
0,83,-3.6535358164,2.30841986693,0.0662171819776
0,84,-2.95803280461,2.67588537586,-1.21730144972
0,85,-2.53855801277,3.34686013534,-1.83543917537
0,86,-2.21021536681,4.34112254143,-0.889628019855
0,87,-1.67948190329,5.19026809368,1.11491232869
0,88,1.41989928463,7.0867686223,5.65119365952
0,89,13.8711150925,10.4004847504,15.2215431165
0,90,22.0216335492,6.6378351498,22.8685062863
0,91,22.2399574255,5.93300104656,18.9106668385
0,92,14.5317184379,2.94265742521,9.83215249083
0,93,4.97715124792,2.3719372455,-1.08871396978
0,94,0.317920124267,4.99501736699,-5.21095384724
0,95,-1.7648006135,6.48750818847,-2.73604878316
0,96,-2.30858664079,7.5310371606,-2.51099998625
0,97,-2.76154195337,9.15392907825,-4.4103375022
0,98,-6.93341963295,14.5115261235,-5.89143226739
0,99,-7.34462570934,18.0382047943,-3.93229708279
1,0,-7.34462570934,18.0382047943,-3.93229708279
1,1,-5.14372747509,16.1755837436,1.71400929695
1,2,-4.13350199491,13.5030600826,-0.77492589424
1,3,-4.06734914553,10.3280929444,-5.94056364277
1,4,-3.50500461167,9.41000135937,-5.62824812683
1,5,-3.05563291775,9.61741631148,-3.28937305459
1,6,-2.07103878458,8.70482348815,-2.13707069838
1,7,-1.31766112377,7.58857896045,-0.714404401937
1,8,-1.06355917869,7.58603194781,0.0395468240795
1,9,-1.71432960655,8.73612563368,-1.03861051382
1,10,-2.83812667985,9.47706582587,-2.78480213369
1,11,-2.68517611994,8.84014031766,-2.5268393543
1,12,-1.60336048372,7.74139986506,-1.3942785157
1,13,-0.383885439482,7.14159942133,-0.493155450907
1,14,0.455972391556,7.57507104262,-0.324123490516
1,15,0.790010448428,9.59234624832,-0.718928860561
1,16,0.419011197954,13.1814309278,-1.07298656564
1,17,0.255049169297,16.2554651718,-0.927410862851
1,18,0.912276625683,16.2460323098,-0.635839763893
1,19,1.81484830132,13.2479388384,-0.0321214123606
1,20,2.56441738057,10.6452931304,0.92532246565
1,21,3.16988164915,9.57044888951,1.43276541835
1,22,3.99304657814,8.40469692556,2.2303821575
1,23,4.44235938588,7.44339062874,3.4940054491
1,24,3.63836952712,8.06444343741,2.53527915258
1,25,3.43597420183,8.58384682891,-1.81694718895
1,26,3.64512105616,7.82982233441,-4.91134414561
1,27,2.48547776405,7.7084727651,-3.8442216508
1,28,1.33649015075,7.48908323055,-0.241690525599
1,29,0.857433644954,7.24066637852,2.40064695877
1,30,0.59521237504,7.35341159967,2.91648075591
1,31,0.531709526765,7.65155790557,2.74802421022
1,32,0.122096020812,8.34271455801,2.49922840097
1,33,-0.540899521069,9.14046757015,2.07864151945
1,34,-0.949439067067,9.79665951511,1.73030106843
1,35,-0.950832043174,10.3619330686,1.4455238904
1,36,-0.541026323208,10.8946228514,1.22720769895
1,37,-0.0456289010991,11.4132293116,1.49045007762
1,38,0.292993649801,11.8172034469,2.70778164333
1,39,-0.627550139389,12.0983737788,9.54166133486
1,40,-0.742831896556,11.6628557338,4.5272309407
1,41,0.678511521938,11.3895550171,-2.23209100767
1,42,0.796840240497,11.3555445887,-3.01853599706
1,43,0.8927913441,11.3315051322,-4.39034983141
1,44,1.49311809935,11.6998810398,-7.07408249866
1,45,2.64141100495,12.9726726619,-3.53765885456
1,46,4.00090729424,14.8769239235,3.00758795191
1,47,5.07816492678,15.7649449264,4.64637257837
1,48,3.98667052726,15.3297238975,2.43578716553
1,49,1.49352832618,15.3594473183,3.42450077924
1,50,-0.132719307007,15.3850353011,3.17741981648
1,51,-1.12718830578,14.8714681608,1.58674832176
1,52,-1.31849812812,13.9936068993,1.65852155338
1,53,-0.455452611875,13.444213876,-1.20900654801
1,54,0.162039458614,13.052488082,-3.868427136
1,55,-0.554235558683,12.9784728131,-4.18929233129
1,56,-0.48700420148,12.9978886046,-5.40223941836
1,57,-0.0878399927094,11.9121169172,-8.19814619962
1,58,-0.0500500457711,10.0626707924,-9.1434128572
1,59,-1.2194698761,9.11779779576,-7.30212911722
1,60,-2.49516644856,9.18993939352,-4.93411462366
1,61,-3.56782213139,11.121816788,-3.72108156941
1,62,-5.17507070978,15.8550225639,-2.53152758128
1,63,-4.68875794333,18.1829602491,5.29813365151
1,64,-4.6078644209,17.0611342156,10.3415539092
1,65,-7.09133553501,17.226656396,6.12832575325
1,66,-8.93453012468,14.2121206462,1.65216254334
1,67,-9.33626986397,12.2648215317,-1.75828256335
1,68,-6.78384876263,11.8153150025,-3.03890972939
1,69,-3.2002977947,10.6322586603,-2.61036388596
1,70,-1.31271023633,8.74936289018,-0.985798980326
1,71,-1.49561107461,7.42827183474,-0.752567919308
1,72,-1.03935433945,6.67627735533,-2.53919211523
1,73,-0.436228191878,5.87217587297,-4.42413987211
1,74,0.102194191858,4.9024557164,-3.71591770271
1,75,0.897360131815,4.32630053215,-1.06457987151
1,76,1.94761048077,4.37130924385,0.069177620742
1,77,1.95838112539,3.94199673941,0.759969207134
1,78,0.970352323851,3.57988419788,-0.0334334981553
1,79,-0.566165184839,3.14126514918,-0.636233983572
1,80,-1.69135177543,2.7022818982,-0.975395734149
1,81,-2.15737667796,2.71991488877,-1.97222483617
1,82,-2.61408638372,2.46441165329,-2.0284034613
1,83,-3.27064513219,1.87537221757,-1.09810237527
1,84,-3.59634202073,1.48532243478,-0.51236561782
1,85,-3.11194451152,1.86212311529,-1.04149467769
1,86,-2.2558621748,2.91992579842,-1.68157479173
1,87,-1.1402901591,3.81218027314,-1.44087150773
1,88,-0.0249198614325,4.43413497566,0.468916482437
1,89,1.49760535401,6.03979613426,4.80919754032
1,90,8.11721405807,11.4122416451,10.9173359089
1,91,22.235849045,5.53448173383,23.7947301221
1,92,16.5839821215,5.85275226159,20.6397883715
1,93,7.50814468037,5.25563248584,9.54522047803
1,94,1.40332437073,5.92374160129,-2.19281453228
1,95,-0.558880935342,4.8823905558,-3.66687870569
1,96,-3.03312979026,6.44330673563,-2.04878674598
1,97,-5.37591340258,9.90186884633,-3.10558051251
1,98,-7.4922178416,16.1248340703,-4.16750928292
1,99,-6.50568316983,18.8161054729,-4.13624704079
2,0,0.787707217276,17.768530056,-1.95090571287
2,1,1.43559795152,14.4009038909,-1.70335186308
2,2,2.04986496572,10.5362000668,-0.540560122884
2,3,2.40190296106,8.80232438698,0.539827314604
2,4,2.62082482734,8.6159803015,0.880527980465
2,5,2.76534079512,8.17914151065,2.67109976874
2,6,2.76405578826,7.5622178354,5.43115258331
2,7,2.53066464679,8.02764800183,3.60524993204
2,8,3.14711025498,8.63852990407,0.0381840682357
2,9,4.13282008914,8.36996050828,-1.86958916965
2,10,3.49820099419,8.02079236326,-2.55733712382
2,11,2.02321593435,8.62187697943,-0.69762818932
2,12,0.239850589515,9.28902800466,0.658828117438
2,13,-0.381453264345,9.53355906373,1.31633052346
2,14,-0.150552452264,9.85379847686,2.00173513069
2,15,-0.216380194922,9.9573487686,2.03869098063
2,16,-0.812847189649,9.9136916827,1.7209828115
2,17,-1.25346645662,9.96231771816,1.38080201881
2,18,-1.14003527085,10.245603628,1.35961280066
2,19,-0.620259586103,10.6073643066,1.72600465136
2,20,-0.00583685240297,10.6932292534,2.08043407489
2,21,0.10559578226,10.7690050886,2.75648928576
2,22,-0.990697311425,11.3703548426,7.5579738574
2,23,-2.18225331333,11.9038976983,11.3940469464
2,24,-0.821919745755,11.7097533558,5.55398691407
2,25,1.09181165435,11.328200543,0.289612654782
2,26,2.20465446735,10.3330757583,-9.86819798404
2,27,3.28990040508,11.4518761418,-10.4700492126
2,28,4.92794468029,15.969132202,1.83172301651
2,29,5.10199921433,17.4526723524,3.63401736825
2,30,3.5354330826,16.7354978124,-1.43139604085
2,31,2.73278803699,15.1980819791,-1.93885673288
2,32,1.64556772568,15.0769172084,0.628256240855
2,33,-0.180876672991,15.3285973015,0.0355259192719
2,34,-0.635785048557,14.4823078194,1.18095017809
2,35,-0.897790035868,13.5132319731,0.628156212115
2,36,-1.74715311548,13.1503566485,-0.413678603216
2,37,-3.10405533084,13.7206439974,0.38793529367
2,38,-3.52935595689,13.2275190891,-1.95898088168
2,39,-2.12307734746,10.246500218,-7.77738833224
2,40,-1.84689563811,8.25158575815,-10.1081022575
2,41,-2.69098311216,8.95830065759,-8.51140263978
2,42,-3.76078261294,12.097589318,-6.57080128352
2,43,-3.67380958691,18.0911069282,-3.36005076969
2,44,-0.952839792509,19.5554284949,2.33172201987
2,45,-4.74366889692,17.4870660035,11.4092402122
2,46,-8.91570716869,16.8111610753,8.65443364634
2,47,-9.33182062932,14.1589673774,-0.789024636126
2,48,-6.01632955122,12.1415189801,-5.51876474847
2,49,-1.88106278007,9.62806469255,-6.84230110383
2,50,-0.770799711574,8.69375375124,-6.29890443174
2,51,-1.04843587886,8.00974762444,-4.97945690963
2,52,-0.775546848044,6.88857985159,-4.84504149471
2,53,0.0464952242151,5.7580029717,-5.55455060066
2,54,0.642996803564,4.14219604681,-3.70282366521
2,55,-0.165971781972,3.61098165305,-1.41061214159
2,56,-0.89434053882,3.82072262756,0.818712677025
2,57,-0.385182828899,3.84016095773,0.684646196285
2,58,0.015147250865,4.06891750771,-0.796370336507
2,59,-0.0546752510531,4.45660756048,-1.62438252208
2,60,-0.0583448930299,3.90399067434,-1.66009655285
2,61,-0.791538427337,2.73519294526,-1.19936743971
2,62,-2.38939562988,2.03857202444,-0.432706873729
2,63,-3.62937024274,1.89677210826,-0.0157083812226
2,64,-4.07790135235,2.17811218015,-0.166879347333
2,65,-4.04474405301,2.91073283719,-1.06053799504
2,66,-3.50024485741,3.83545403607,-2.31883838119
2,67,-3.07097157715,4.52658651326,-1.61877198799
2,68,-2.28233229041,5.46814607341,0.740234852674
2,69,0.24824214877,7.21579408865,3.85744829302
2,70,5.82802761256,10.0306230275,8.90296110243
2,71,14.5228188286,10.3016152123,17.4457069946
2,72,22.0510130622,7.25184462515,22.6065906337
2,73,21.1290577016,8.3837432179,16.9346790277
2,74,13.3684374022,5.43968223506,7.2861787312
2,75,4.95965436139,4.95140109117,3.16626518856
2,76,-0.0943349421426,6.51848271232,-4.12473739088
2,77,-0.389090494514,6.16072984006,-2.64529948712
2,78,-2.65310497869,9.13546878504,-1.81698650922
2,79,-5.92266210673,14.7968292044,-4.59764038185
2,80,-5.32998761483,17.3253617224,-7.42684951058
2,81,-1.56274836624,17.0734525212,-2.44071583112
2,82,0.586978631535,13.4131915607,-2.5803788955
2,83,-1.56790595719,9.65417307781,-8.34974653012
2,84,-3.94862783183,8.30373148756,-6.34206664281
2,85,-5.09319900195,8.19039800033,0.0602272373388
2,86,-5.56213629479,8.51159575069,2.6454492954
2,87,-3.94228484835,7.06480783649,-0.419468697504
2,88,-3.09876932899,6.10177503772,-0.709617082176
2,89,-3.17757250958,6.65654524757,-0.206266768438
2,90,-2.80141742094,7.1319796407,-0.908484856797
2,91,-1.60796419301,6.58856211575,-2.54374315024
2,92,-0.840118039432,6.06548393083,-3.02912140455
2,93,-0.591574588195,6.10558163876,-2.36093505731
2,94,-0.204162438896,6.58451285718,-1.87038403737
2,95,0.178929472007,7.52493034244,-1.39764086622
2,96,0.609750471188,8.76077796272,-0.921804314728
2,97,0.639700872521,11.7956951183,-1.2844924864
2,98,0.102662254464,17.5918478023,-2.16950316628
2,99,0.468294160338,20.4250466418,-2.24378181822
3,0,0.468294160338,20.4250466418,-2.24378181822
3,1,1.48069224664,17.2163767385,-1.50024492862
3,2,1.98122903607,13.2375742004,-0.355822147802
3,3,2.11779882232,10.6177039044,0.982572079033
3,4,2.34597985392,9.41974175324,2.05592115484
3,5,2.72827343756,8.85615838806,2.47659010958
3,6,3.03515320075,8.49345194911,2.6685034287
3,7,3.31036313016,8.48168242868,3.11614827915
3,8,3.70088015658,8.46844246583,6.093706371
3,9,3.77966631223,8.78858875817,9.49056949866
3,10,3.40214162104,9.47525721702,7.58696102095
3,11,3.44582237564,8.71008009282,2.50319566568
3,12,3.73473138926,7.56397226562,0.167420297326
3,13,4.31244429904,6.62922853315,-1.06721511703
3,14,4.61870393115,6.47060861755,-1.7681862074
3,15,3.30928605734,7.28994805422,-1.52899812977
3,16,1.35333183815,8.15282079766,-1.11292027135
3,17,0.157871546856,8.96334606791,-0.618932063125
3,18,-0.344698795998,9.69142112978,-0.28398940138
3,19,-0.79329424867,10.2390875689,-0.198053295825
3,20,-1.42950281147,10.563407488,-0.0587330891226
3,21,-2.00585775671,10.7786306808,0.253919608328
3,22,-2.23310148224,11.0020705317,0.860125674529
3,23,-2.18120893006,11.176397928,2.47599268084
3,24,-2.37797509798,11.2001446683,6.4577326001
3,25,-2.80300648267,11.2209029826,10.885765231
3,26,-1.9696293048,11.2654221693,8.09183113037
3,27,-0.424861929886,10.2582878417,0.819386480363
3,28,0.391331660082,9.5317835523,-3.97721021636
3,29,1.042000821,10.1890312563,-4.32046550715
3,30,1.26166441586,11.2222858089,0.486202215084
3,31,1.84065655466,11.7496281773,-3.91059195946
3,32,1.66611541768,12.0216247068,-9.45817364374
3,33,1.32792264612,13.571972816,-6.45460559658
3,34,2.45903030582,14.7782134957,-0.0120757060609
3,35,4.03616435593,14.6984875571,3.33666730057
3,36,2.90788099359,14.9029962767,1.61453223877
3,37,0.44716780721,16.2336924592,0.575691477914
3,38,-0.224917351265,17.3998582303,2.42742036825
3,39,-0.47287831764,17.2126187823,0.0414083879163
3,40,-0.111084437839,15.4323947754,-1.98113623294
3,41,-0.440215432474,13.236259826,1.05248162499
3,42,-1.87020438878,12.8173696207,3.61560219506
3,43,-1.9448361597,12.8967207278,1.75978951446
3,44,-1.09062944888,11.8486184515,-2.46763345063
3,45,-0.407757251733,9.84389011632,-6.50727974422
3,46,-0.707517589472,8.20220268685,-8.71312535154
3,47,-1.45573527201,8.42426974812,-8.66913159232
3,48,-1.97881698567,9.9670132722,-6.82760047238
3,49,-2.50106750659,12.2292177688,-4.64903070799
3,50,-3.02533386455,15.3185712147,-2.70300141027
3,51,-2.96835057313,17.8986943264,1.39616831234
3,52,-3.09564328821,18.4175801094,7.31126850154
3,53,-5.22353171912,18.1173456052,8.88816191004
3,54,-7.93075892856,18.0267962678,4.71401618427
3,55,-7.65844089589,15.3046607426,0.66099066737
3,56,-6.26455146034,12.8661223431,-2.97010396538
3,57,-4.06092935506,11.2293144628,-4.15616260468
3,58,-2.37150481299,9.41870642137,-4.82133592269
3,59,-0.999841967717,8.19356793726,-4.70126606083
3,60,-0.059103371899,7.48806064611,-4.52586822929
3,61,0.953069750488,6.76426080918,-5.26025385544
3,62,0.946889986586,6.06722188657,-5.86264886118
3,63,0.256681290393,5.50460734895,-5.14257092984
3,64,-0.487418890866,5.02875052096,-3.17536321992
3,65,-0.552343470895,4.50200252572,-1.29414302044
3,66,0.172962022885,3.89465682967,-0.337598230216
3,67,0.579622064973,3.42736131731,0.0397627736528
3,68,0.249228476433,3.25741559258,-0.12535383999
3,69,-0.473261875997,2.98560768227,-0.541279975763
3,70,-1.05928170439,2.77574041428,-0.99276302901
3,71,-1.06927092436,2.74136356929,-1.71327861472
3,72,-1.50913755902,2.43014748366,-1.3529086707
3,73,-2.15023588664,2.35198756105,-1.08727790298
3,74,-2.90179151667,2.12161381397,-0.325770674838
3,75,-3.45713572385,2.18561792522,0.250955484335
3,76,-3.33809235626,2.41643986935,-0.180908796379
3,77,-2.68790487782,2.53263510846,-1.32251746276
3,78,-2.0027425804,2.76799859852,-2.24053821493
3,79,-1.49980378097,3.12799990731,-2.33690282142
3,80,-1.15415464432,3.56359469566,-1.15235754099
3,81,-0.627714456407,4.5003802736,1.79084525002
3,82,2.02777267525,7.44737638643,5.65182981716
3,83,9.70577589825,13.3848126719,10.1437404327
3,84,17.3427097358,5.43712086996,25.2495889732
3,85,22.1438493621,2.75320693165,24.8861173347
3,86,19.9893271837,7.01188615028,16.7088497678
3,87,11.2438049791,-0.93167672678,10.9976571904
3,88,4.96097727611,2.81929689479,0.984367693705
3,89,0.748680786313,3.93394287414,-4.43925255527
3,90,-0.839860583164,4.30134020823,-3.07452377091
3,91,-1.92583729478,5.39028311896,-1.05753569357
3,92,-2.54975802337,5.7598502281,-0.701983417803
3,93,-1.99764822623,4.87095258853,-2.17786864642
3,94,-2.37167145411,4.59149238852,-5.88212119943
3,95,-4.98301227548,7.12334200714,-8.59114229144
3,96,-6.60753153016,11.1826420775,-5.93518975199
3,97,-6.54068255372,12.8818399791,-1.36365287539
3,98,-5.89228949645,13.8376163995,1.5460760011
3,99,-5.13822110031,15.7490290669,3.62461364298
4,0,-5.13822110031,15.7490290669,3.62461364298
4,1,-3.95989929446,14.8759578807,-2.10053713078
4,2,-1.64726601657,12.2596223878,-3.216028264
4,3,-0.386639202479,10.2437265725,-2.06480008695
4,4,-0.265698586295,9.19491003574,-0.776136439747
4,5,-1.04879191513,9.23884243089,-0.0918125741411
4,6,-1.23898302561,9.25458611181,-0.215907241025
4,7,-0.825532783936,8.48011044547,-0.798090538658
4,8,-0.484113426847,7.57008061857,-1.29195480819
4,9,-0.0484921094265,7.2597986845,-1.64949406539
4,10,0.605284676917,7.58698972795,-2.21943839219
4,11,1.00439025334,8.68866222453,-2.79922947698
4,12,0.817478361772,10.6303421628,-2.90342947838
4,13,0.435819475954,12.6917686235,-2.4514538897
4,14,0.410025032681,13.6600047836,-1.55672292469
4,15,0.54733749845,13.0402869789,-0.134734037367
4,16,0.762020870451,11.8018953689,1.35590038872
4,17,1.00785474898,11.1525968225,2.35966095038
4,18,1.36471477834,10.3520579342,3.26590114167
4,19,2.07880620999,8.57703057132,5.66149739353
4,20,2.17413990459,8.08776149334,4.55073133156
4,21,1.47970109894,8.76399908996,1.63882632736
4,22,1.34881932332,9.27042671037,-1.31716476621
4,23,1.82793854047,8.44937472648,-3.01563607653
4,24,1.52650754658,7.62568258262,-3.32496892217
4,25,0.482129234303,7.11184009052,-2.80791661188
4,26,0.154780242438,7.28229208579,-1.37786398459
4,27,0.411318357011,7.8320971237,0.34390535938
4,28,0.908686840181,8.31342752578,1.35809128254
4,29,0.993738371841,8.66268040761,1.88997698863
4,30,0.435934216268,8.84717943918,2.23223310488
4,31,-0.318644009992,8.90134322945,2.56510233803
4,32,-0.575885052441,9.11143009953,2.6665261399
4,33,-0.157334766726,9.65500015206,2.00827626947
4,34,0.502336340108,10.563838832,0.911250640472
4,35,1.0453586374,11.3576621236,0.162270246546
4,36,1.33458150828,11.5759165966,0.072005499922
4,37,1.37467869586,11.4394689156,0.288901723665
4,38,1.27583962571,11.2916739648,0.440283708253
4,39,0.887896208598,11.5581075273,0.586815858829
4,40,0.419858373629,11.9967584718,1.29000605306
4,41,0.700227466185,11.9497045169,5.71645715994
4,42,1.47704325095,11.5338117391,12.9748704977
4,43,1.49225990668,12.7469694501,6.42453699835
4,44,1.63337916465,13.9223553791,-0.500840463376
4,45,2.11714003063,15.4214849986,-3.30755976125
4,46,2.45968750048,15.3363486134,-7.66264177306
4,47,2.12339089374,14.3511140847,-2.38460910274
4,48,0.903555590566,15.3874775495,3.71113049312
4,49,1.3725700549,16.2254781293,0.816191726997
4,50,2.04076002774,16.1391448859,-0.971834626148
4,51,1.70885238209,16.0203887619,-1.64451727219
4,52,1.06728360748,13.7413980092,-3.19391890669
4,53,0.0234093727023,11.7553203407,-2.98156954663
4,54,-1.32458825115,11.8396834719,-2.74419046585
4,55,-0.966087959638,11.9176001949,-5.15706587356
4,56,-0.286502128799,10.1440205442,-7.11420540022
4,57,-1.6678272737,9.64364900539,-6.74855597264
4,58,-3.44204128868,11.1793641698,-5.57096020987
4,59,-4.82384998596,14.5866464782,-4.81849262163
4,60,-4.90782555228,19.1755055623,-0.875045455146
4,61,-3.02914584006,18.3092733584,7.53137785958
4,62,-6.17988316437,17.5963567062,8.57962912697
4,63,-8.67252015807,15.4727671275,2.9698892997
4,64,-8.92022602689,12.548194686,-3.97729700641
4,65,-6.14115419922,11.3724127545,-6.42895109638
4,66,-2.10176142398,9.59821844569,-5.30643931398
4,67,-0.552684340293,8.72510403147,-3.64273573721
4,68,-0.99246167578,8.00415591126,-2.71659200288
4,69,-1.93705896723,7.13746075331,-2.15849087833
4,70,-1.81202880164,6.21769522152,-3.34321164804
4,71,-0.441443920209,4.79544811934,-4.49877434688
4,72,-0.267551111341,3.89205836734,-3.02467826663
4,73,-0.715032078782,4.29272075215,-1.63306156442
4,74,-0.496834224172,4.48927515881,-0.85765782587
4,75,-0.306654714955,4.34238783935,-0.586159446289
4,76,-0.398273163797,4.15269184735,-0.328455817055
4,77,-0.666963089921,3.87839026744,-0.394395204409
4,78,-1.09111014294,3.75486021026,-0.898161299946
4,79,-1.51248268215,3.5334303826,-0.916568810227
4,80,-2.66631119819,3.35894858493,0.178274424872
4,81,-3.41361318105,3.55246121314,0.145738151892
4,82,-4.0711770741,3.59275516439,0.198941632918
4,83,-3.91354302723,3.26167595005,0.0671624387778
4,84,-3.28158175815,3.52045237638,-0.976590964864
4,85,-2.45359729399,3.95363244445,-1.73173848735
4,86,-1.29496184604,4.19796017441,-1.13052909566
4,87,0.370044232163,4.14567498919,1.54509041488
4,88,3.9859249598,5.81730798187,6.8809117119
4,89,10.9016537014,9.06649947637,15.2807290053
4,90,19.4807318962,7.07934383092,22.1642039151
4,91,22.5403146822,4.95592001399,21.968797525
4,92,15.9010689372,4.17389694885,13.3373217455
4,93,6.70978427338,6.04020140271,2.26296196941
4,94,1.48264393215,5.89523279644,-2.63401143468
4,95,0.325157898085,5.41038776051,-0.254102390703
4,96,-1.60459459315,6.44211578858,-0.599532365551
4,97,-3.80389425569,8.30384740172,-6.04954899181
4,98,-7.28216397352,12.7790306035,-13.3090819098
4,99,-7.17709275458,16.0122338991,-10.4182269903
5,0,-7.17709275458,16.0122338991,-10.4182269903
5,1,-4.97364636002,13.9220769144,-1.35513842997
5,2,-3.89021547061,12.0028273498,1.32898391296
5,3,-5.04350107521,12.2111339359,0.444829599487
5,4,-5.65275983391,11.5022861916,-1.80331949043
5,5,-3.40140998811,9.8406694109,-2.88767934984
5,6,-1.90767604559,7.64754941759,-3.43122785193
5,7,-1.65322706497,7.89628805428,-2.5714660876
5,8,-1.60465495641,9.57340089118,-2.58322837872
5,9,-1.71094920435,10.4827482873,-2.83323092958
5,10,-1.28626200323,9.60054321078,-2.69336440169
5,11,-0.646738015454,7.80833455472,-1.48989088765
5,12,-0.109294268398,7.02941137469,-0.717818204693
5,13,0.134992424809,7.5508702792,-0.783741127806
5,14,0.198879132025,8.39087331864,-0.669458191797
5,15,0.491451987267,9.35956695971,-0.500256022889
5,16,0.634444367767,11.2889106105,-0.727057449379
5,17,0.323756930633,14.4390566,-0.742095093345
5,18,0.769212338913,15.5213984304,-0.34539397387
5,19,1.6837669143,12.8176141256,0.253828955332
5,20,2.14029500945,10.0974091227,1.60225807211
5,21,2.40841505421,9.61055631908,1.70229378469
5,22,2.78534213994,9.64718495266,0.439784502901
5,23,3.24065079611,8.96338211871,-0.110754403621
5,24,3.07276552166,8.48869296943,-0.767744973204
5,25,2.12687112066,8.63929897107,-0.967930741982
5,26,1.61201200771,8.20068010803,-0.258851536686
5,27,1.33416677224,7.74838181349,0.778298661781
5,28,1.05093006663,7.98981970543,1.1358359359
5,29,0.990283993272,8.64198988734,0.800400959377
5,30,1.13508611378,9.25313685588,0.779723144612
5,31,1.17835695388,9.43708936576,1.40344259558
5,32,1.02980607201,9.36391301096,2.06604683053
5,33,0.872451106221,9.35037519322,2.30494345035
5,34,0.758422739236,9.40850611093,2.14366870359
5,35,0.575260259725,9.7128813128,1.86772208711
5,36,0.483680381483,10.1533805367,1.50126500942
5,37,0.547431493458,10.4714554669,1.22296199633
5,38,0.623280885248,10.6203574336,1.28796496296
5,39,0.428580599286,10.6214768307,1.7246674844
5,40,-0.320352746765,10.8420351855,3.63751898904
5,41,-1.65305839584,11.2872768126,8.90205517157
5,42,-1.57840457754,11.5809355633,8.05143357488
5,43,0.0548198675395,10.9027173432,0.8512319942
5,44,1.58287595223,11.0335843714,-3.35953479374
5,45,2.07102382816,12.9153176159,-2.86854733593
5,46,2.09741642334,15.0679499048,-5.56034256074
5,47,3.11814025555,15.7279583667,-7.59357982767
5,48,4.80954755706,15.0575385458,-1.09045789888
5,49,4.22392656406,15.2947047578,2.18114616143
5,50,2.57498527488,16.5509125888,2.82634279752
5,51,1.40512461505,18.1405059811,1.08097245357
5,52,-0.274040053481,18.1290727743,-2.05208548961
5,53,-1.42895096326,15.3863498856,-2.43929268088
5,54,-2.96068930035,13.5797672688,-0.689939285602
5,55,-4.35244931359,12.6204593939,-0.64643120615
5,56,-3.07925612021,11.2135005884,-3.64200959879
5,57,-1.18926481063,9.59517976561,-7.77266854302
5,58,-2.50011139295,7.62239504834,-6.37316422922
5,59,-3.60079350869,9.47237750413,-4.88043899897
5,60,-4.47676252094,13.7157261641,-3.69372219566
5,61,-4.58324052445,17.7772638569,1.51486808491
5,62,-5.70366602699,18.2850673454,6.7639989428
5,63,-8.62511537921,18.4948678281,6.19188811428
5,64,-9.17231307845,16.2658084082,2.24398920346
5,65,-8.18969691665,13.0551285926,-1.87943418041
5,66,-5.73252254328,11.4867314128,-4.52443019939
5,67,-2.48610100639,10.2010815129,-4.54072091285
5,68,0.200994572798,8.39508723594,-4.01498851534
5,69,1.35439349883,7.40567718422,-3.08938278375
5,70,1.04337824508,6.90850497536,-1.98767457969
5,71,0.587403462479,6.48894147292,-2.4983970829
5,72,1.03994327379,5.74535518261,-4.43162900335
5,73,1.53896993077,5.78170394314,-6.18166313304
5,74,0.930357138922,5.55874865415,-3.76912382573
5,75,0.287164159031,4.75672875914,-0.958386784301
5,76,-0.155101131787,4.20177025153,-0.195860126392
5,77,-0.476081517386,3.66358922502,-0.460032830567
5,78,-1.31540543203,2.74571128609,0.0677856141435
5,79,-2.01039230005,2.45818846107,-0.247832449514
5,80,-2.29713199687,2.61824180475,-1.35346874299
5,81,-2.76000949745,2.79942389803,-1.3234531967
5,82,-3.30733589833,2.83237861026,-0.845002775264
5,83,-3.34104946979,2.7170388518,-0.660867359203
5,84,-2.72302818318,2.6898821485,-0.900721723203
5,85,-1.83867486493,2.71984430673,-1.09805763303
5,86,-1.0045684739,2.89298377839,-0.729799111162
5,87,0.163079176801,3.96721686534,1.25295150562
5,88,2.93933002054,7.55184952356,4.86322102132
5,89,11.2582595234,13.4981889967,10.5034710658
5,90,21.0636494894,7.18997698957,24.5084951401
5,91,19.6694081393,6.85656596604,22.308234952
5,92,11.1981950986,5.1147928375,12.0894794479
5,93,3.65828873446,0.893361902466,0.186603920514
5,94,-0.168144610714,2.55553730147,-3.58343441401
5,95,-0.787068590962,2.70698803368,-0.670027463147
5,96,-2.5163791202,3.56434651291,-0.473745600676
5,97,-4.75504461805,6.49383328426,-4.39987990928
5,98,-8.49559478397,12.9545733762,-10.2154362388
5,99,-8.12197697454,18.1810950011,-7.48483654196
6,0,-6.476391888,18.5385932015,1.87092924651
6,1,2.75618562703,14.9718413992,2.91169882955
6,2,2.51655012861,7.03437217982,-9.54706034127
6,3,-0.924753051368,4.69043853994,-8.28215053877
6,4,-2.81076475632,3.15753032692,-3.30920672416
6,5,-3.59088721027,2.4172053857,0.639969957476
6,6,-3.68065420113,2.39235542707,2.21736276108
6,7,-4.51348193573,3.80332926006,1.5054100919
6,8,-5.52359157506,7.25862535641,-0.119084681564
6,9,-4.16131477771,10.477321265,-1.47866955641
6,10,-1.51068164627,11.1951679824,-2.54263245014
6,11,-0.656866348085,10.4782545256,-3.23878882347
6,12,-1.04357151599,9.81929422671,-3.25557035771
6,13,-1.08528769094,10.0675739032,-2.95866165033
6,14,-1.09775054946,10.1408435374,-2.09716969691
6,15,-0.837537251031,10.0125049232,-1.6269082013
6,16,-0.0806680100693,10.2862727913,-2.01288267794
6,17,0.858368435817,11.0231078057,-2.64354131999
6,18,1.65614560408,11.8463530074,-2.30547041311
6,19,1.5453723367,11.3022678735,-1.04077977926
6,20,0.731651021324,10.0100760732,0.45365650435
6,21,-0.0387854907878,9.01336278823,1.95242066986
6,22,-0.0664679903087,9.25007449859,2.7549684179
6,23,0.808036394748,8.12134472788,6.32260757104
6,24,1.48738217362,7.26547304207,7.65081088645
6,25,1.21028544559,8.9318848162,2.82911597551
6,26,2.20279929773,10.4335236321,-0.644850671027
6,27,3.83298909921,10.75555608,-2.8621300744
6,28,4.49804343525,10.0071616579,-3.00835919701
6,29,4.32909387433,9.58926143699,-0.335272693503
6,30,3.48607454619,9.67643236924,1.89013967108
6,31,2.76183450704,9.56694568805,1.97833375061
6,32,2.36255596616,9.50034463359,1.60625770281
6,33,2.14721288832,9.75462355595,1.62881856827
6,34,1.78118731293,10.4892760982,1.51501471812
6,35,1.04521798674,11.6061336793,2.33277609193
6,36,-0.0797481869377,12.2767826133,7.49087411208
6,37,-1.57782346085,12.3365704674,12.7157876677
6,38,-1.47208621034,11.8481073455,7.5696427542
6,39,0.532025292825,10.315076714,-0.74359594136
6,40,1.41363602403,9.6780443304,-5.33383250015
6,41,0.523029160803,10.4412875608,-5.14845849706
6,42,-0.0345377925173,10.5117780302,-0.789817522765
6,43,0.317618979323,10.1497664199,0.829179120283
6,44,0.942124502874,10.903450134,-5.61885754441
6,45,0.966127075198,12.9670210566,-7.1022241365
6,46,1.55275186126,14.4034639056,-1.21830077033
6,47,2.96648487422,14.9890486518,1.65337863535
6,48,3.41792806236,14.9697601915,0.86617763214
6,49,2.10119762743,14.6803466425,-0.322477032467
6,50,0.850059985619,14.7210205775,-0.793929697206
6,51,-0.863372136602,15.9334633906,1.08433258032
6,52,-3.07342346724,16.8853662813,1.15802690865
6,53,-3.99477407192,16.0591408039,0.371359403275
6,54,-3.13619857363,14.0172412455,1.50693510118
6,55,-2.34396619547,12.0245150508,1.8137875992
6,56,-1.99778033154,11.3214005808,0.609146257433
6,57,-1.72273990878,11.4072637827,-1.50093943831
6,58,-1.68333526571,11.0188563278,-3.85867309918
6,59,-1.79677306373,9.93569031417,-5.66412409471
6,60,-2.09034767053,9.30507655476,-5.91844364389
6,61,-2.79631555171,10.0152477203,-5.01987614853
6,62,-3.92025916616,12.7301632666,-3.59989346311
6,63,-4.52631738381,17.4137921062,0.614580385972
6,64,-3.2921991868,18.4940095386,7.48269522685
6,65,-2.91763277053,19.1970643212,4.96954079346
6,66,-3.0849780736,16.3407300679,0.863707567096
6,67,-3.02798179742,12.14499087,-1.8366980067
6,68,-2.43730911825,10.2740386758,-3.97599741154
6,69,-0.664862104792,9.49818555942,-4.44530210475
6,70,0.402180962484,8.08117544737,-3.65978802529
6,71,-0.6100277509,7.47912850292,-4.28721840369
6,72,-1.44608289471,6.46328960216,-4.5705122029
6,73,-1.06688639484,5.19689430133,-3.96720633329
6,74,-0.411326564838,4.72092365993,-2.07940101981
6,75,-0.525373861206,4.4266514818,0.079998768161
6,76,-0.914860863995,4.16935699393,0.432764549317
6,77,-1.08784281108,4.49788616118,-0.433395867811
6,78,-0.912526381962,4.06937381101,-0.839439991202
6,79,-1.22874383368,3.39653888132,-0.698369808003
6,80,-1.55971235458,3.21054663685,-0.920731502692
6,81,-2.48086331945,3.36135658717,-0.511681250162
6,82,-2.96105395726,3.49000806288,-0.629527829958
6,83,-3.31906273084,3.41496751274,-0.432829361094
6,84,-3.30445426682,3.16548005322,-0.295531057577
6,85,-2.79141098738,3.02944621122,-0.673020785451
6,86,-1.94390232415,2.97632193279,-1.29246492873
6,87,-0.846209589062,3.1312653533,-0.781783279776
6,88,0.0560148994455,3.35237260489,2.33611517087
6,89,4.29292307194,8.48782010729,6.65384243456
6,90,11.2730635612,11.3057893445,16.9014530842
6,91,21.3604084104,2.32152134184,24.6149517516
6,92,22.5579124609,2.41938345143,20.2176344105
6,93,17.2341923895,3.60231675396,9.83031259543
6,94,7.07428936084,4.12681666467,1.04663267126
6,95,1.27383748518,6.57275479893,-2.34213151891
6,96,-2.26949133557,8.00757752598,-1.19401218306
6,97,-7.92834399707,12.8788318957,-5.48064171601
6,98,-10.567488621,15.4328970526,-8.67702237579
6,99,-8.0891479812,17.628324072,-3.90434019327
7,0,0.743238736314,16.9341839429,-1.31389562228
7,1,0.451590462339,14.7764681093,0.617192772094
7,2,0.518841809174,11.4446859522,3.68338169567
7,3,1.22624587964,9.55467861853,4.06706830447
7,4,2.44187009569,8.51373395335,3.22343969581
7,5,3.57158927408,7.52234166136,2.30317964258
7,6,4.31043585421,7.05796957582,1.74568129151
7,7,3.91969762449,7.51040077539,0.153560582405
7,8,2.45756550165,8.41208923093,-1.13374548767
7,9,1.46270320429,9.10241027671,-0.751446026051
7,10,1.12613840456,9.45223558965,-0.376841565674
7,11,0.957677843629,9.75333092325,-1.11325435769
7,12,1.89699486477,9.74212409739,-0.73720736209
7,13,1.36356402312,9.50579413188,0.741695114839
7,14,0.772272704226,9.29515114519,1.56877983867
7,15,0.818387705526,9.14988883976,1.7208855945
7,16,0.901188703725,9.0480155074,1.77143362731
7,17,0.82285023892,9.06194842005,1.97843643037
7,18,0.655681804905,9.15384938568,2.34045023074
7,19,0.623392461627,9.37194193554,3.4096909951
7,20,0.0978649403459,9.50153072498,8.01273942103
7,21,-1.23252278891,10.4420039753,12.0682901415
7,22,-1.68088782893,11.6257895557,6.39457725494
7,23,-0.471249848208,11.3591225767,-1.25328251904
7,24,0.785935003685,11.4657579652,-4.28451601233
7,25,0.91921354098,12.7028123933,-2.11435394497
7,26,0.345592649067,14.6138387506,-0.0638303845929
7,27,1.19344222469,15.8440791472,-6.30025332657
7,28,3.19236911053,15.5925742719,-8.04316684841
7,29,5.05096124597,15.3482077883,-0.920584172876
7,30,5.11247692069,15.3401745013,2.36301177063
7,31,3.21024488004,15.7336445285,3.39531942802
7,32,1.76476096033,17.074189532,2.03124467117
7,33,-0.30837859508,17.6581840895,-0.19572335178
7,34,-0.933319305626,15.6341688328,-3.03343136655
7,35,-0.781170425026,12.8907718141,-1.37944047603
7,36,-1.4089980255,11.8381980405,-1.16325958434
7,37,-2.13600748216,10.7241392429,-2.84285924739
7,38,-2.46055540562,9.77846821309,-5.7937645598
7,39,-2.66089578724,9.34752213901,-8.01420929604
7,40,-2.67215162559,8.98091074752,-7.42647341263
7,41,-2.99067177897,9.32161378275,-4.76415791151
7,42,-3.34596539119,10.5268986301,-2.67384085257
7,43,-3.51798090552,13.2929121403,-2.10405673239
7,44,-4.46311100598,18.6952083064,-0.34823300733
7,45,-3.84944135988,17.9913897389,7.88892729065
7,46,-5.70818536732,18.2287828482,6.55534010071
7,47,-6.88507460354,17.2682820727,1.11397888683
7,48,-5.87520253403,13.0025480247,-1.83513917702
7,49,-5.07314124589,10.9003982924,-3.19291366782
7,50,-4.72990553516,10.5302248602,-2.97495468266
7,51,-3.40406035219,9.85449815774,-1.79751754647
7,52,-0.828808732887,8.27305557698,-1.84125615562
7,53,0.534054338428,6.95682069048,-2.90910757872
7,54,0.546410579277,6.50788860444,-2.79753568306
7,55,-0.442722072691,6.67642872411,-3.0699871046
7,56,0.883204919412,6.22923815808,-3.56876845361
7,57,1.13448169699,4.82449149384,-0.865492330918
7,58,0.789723950133,4.68050906941,-0.800100276299
7,59,-0.0321631647783,4.41531246169,-0.680429382578
7,60,-1.29572277248,3.36830439449,-0.426223054665
7,61,-2.22076979988,2.73585445209,-0.174179796973
7,62,-3.05452465483,2.61801206573,-0.138744209285
7,63,-3.46881215157,2.65457742706,-0.461877477342
7,64,-3.51455250193,2.57335816166,-0.898474173303
7,65,-3.32151245106,2.30752733592,-1.13798114301
7,66,-2.89426247122,2.55349962287,-1.45110627842
7,67,-1.95439805599,3.15879246701,-1.43505755527
7,68,-0.589576758019,4.24173040346,0.0657750943927
7,69,1.28208527268,6.02269098581,4.01273538473
7,70,6.55067565776,9.77598624793,9.97701445837
7,71,15.1946948956,8.07227727056,19.7931044108
7,72,20.6859995404,2.94546943678,24.3538216763
7,73,19.3735658438,5.33889392291,17.8648292308
7,74,11.5436149932,1.87025612595,8.64656708785
7,75,4.21247965646,4.30947368377,-0.623855541606
7,76,0.115057709764,6.08734858807,-1.91299352374
7,77,-1.58240368687,5.71888355482,0.890665462973
7,78,-3.65154915412,6.07126055439,-0.448517129337
7,79,-4.36007371145,8.13987386843,-3.45612150974
7,80,-5.78414887535,12.2001433093,-7.36536545245
7,81,-6.202629539,14.4717512457,-7.72787689366
7,82,-4.44334276494,13.0664073593,-4.51174797323
7,83,-3.53143956049,12.2302139582,-2.17296861128
7,84,-3.46817527048,11.9844085467,-3.31212763916
7,85,-2.86083069249,11.432657522,-3.52284593454
7,86,-2.34317267606,10.6455554065,-2.11237933899
7,87,-2.04306429454,8.91702147029,-1.719511799
7,88,-1.52942807294,7.39151906181,-0.139803357523
7,89,-1.55502349411,7.54840690657,0.563251635749
7,90,-1.85931070628,8.73506513044,0.0937328143359
7,91,-1.75887580188,9.60435678195,-0.728779773585
7,92,-1.51238725393,9.2450082805,-1.5798345868
7,93,-1.41049684759,8.33961125762,-1.8403563227
7,94,-0.750185656879,7.52090836608,-2.04625000867
7,95,0.118587647583,7.41441985892,-2.53569005419
7,96,0.432441152895,8.64757954299,-2.69456539448
7,97,0.501596854969,11.4902278689,-3.0128924923
7,98,1.06078544119,14.5383533597,-3.85360215857
7,99,1.46956165057,15.1064772839,-3.59973169161
8,0,-5.11147597955,18.5896480894,-3.80180431871
8,1,-2.16239282473,16.7637559995,0.190109613632
8,2,-1.63418274254,13.071972688,-2.78891356608
8,3,-2.50363158751,10.1748799966,-4.46502107353
8,4,-2.09194254764,7.98821747964,-1.94545293938
8,5,-2.1373297642,6.07204604782,-1.75099078254
8,6,-2.39408815169,5.33737887561,-0.907395688866
8,7,-2.77882141517,6.43198633004,-0.124705115737
8,8,-2.8957927011,9.04858952092,-1.49195742323
8,9,-1.93032675929,10.4848549158,-2.04027069528
8,10,-0.810089375065,9.78479302076,-1.65729679206
8,11,-0.159151472775,8.85081836632,-1.68109926258
8,12,0.483351364603,8.26902139778,-2.04375836556
8,13,0.785183515601,8.43433092826,-2.12527008816
8,14,0.400728343212,10.0428926225,-2.16079163373
8,15,-0.0492850250302,12.9555370036,-2.83953055011
8,16,0.0189693572406,15.0247663408,-3.41287975894
8,17,0.70349665305,14.0072372999,-2.70071010451
8,18,1.12621709239,11.3090948163,-0.894909422671
8,19,1.03791373664,9.37742478852,0.826307263799
8,20,0.764898520666,8.90575325868,2.12523356235
8,21,0.852432006236,9.03248573265,3.5030084936
8,22,1.3809697477,8.62146628816,5.75711511621
8,23,2.05768550258,8.2964632148,5.70733478308
8,24,2.45782986966,8.26279521561,4.63923967966
8,25,2.28351343701,8.50095800874,2.16348204057
8,26,2.64013830656,7.68210960338,0.129042313832
8,27,2.95413178945,6.61130604038,-1.38933777955
8,28,2.62545526296,6.65769293639,-2.61414503582
8,29,2.05907314342,7.89476107811,-2.26621813285
8,30,1.07573690537,8.74520057882,-0.754663211797
8,31,0.499992427765,9.12742468663,0.396481712659
8,32,-0.114410395191,9.38029588286,0.917008928459
8,33,-0.629931029644,9.84505078765,0.916895466792
8,34,-0.494124648254,10.4915036686,0.509239985406
8,35,0.0459928669964,11.2087151857,0.220753845941
8,36,0.472654029661,11.866373797,0.327436441211
8,37,0.727931402639,12.4341322786,0.784130058317
8,38,0.767638859749,12.7827348561,1.55543530883
8,39,0.527196928393,12.614703514,2.95439967987
8,40,-0.669406787564,11.7340226337,9.69047044209
8,41,-2.28502089071,11.3884683367,14.740737006
8,42,-1.47791558622,10.716542809,5.63344334175
8,43,0.864651237351,9.81789134738,-2.4691720306
8,44,2.75272927845,11.7923964946,-5.57959609579
8,45,3.12038093283,14.5321676578,-12.8127978891
8,46,4.30782122942,14.5884194377,-2.35186414032
8,47,5.1200270067,14.9075403256,4.28314817164
8,48,3.58187556818,14.6720355212,1.21063066661
8,49,0.333619568589,15.3212816443,-1.7457364761
8,50,-0.421890526237,16.2202239928,-1.21452294549
8,51,-0.589329439162,16.1157509197,0.481147008587
8,52,-0.525423420569,15.2391359016,1.21707849081
8,53,0.572127368617,14.2132013814,-0.586589087845
8,54,0.46349560528,13.156099455,-2.02166060526
8,55,-1.42282710574,11.7437332698,-2.48699160736
8,56,-1.80627646182,9.79469606991,-5.24421880727
8,57,-1.43389167536,8.89457903716,-7.5105707962
8,58,-1.63183383941,8.4973503322,-7.08594156938
8,59,-2.93719524837,10.0746693513,-5.37944809044
8,60,-4.26356575878,12.9372341305,-4.18520265165
8,61,-4.36447240677,17.6689079268,-2.5196757589
8,62,-1.88288225004,18.7984022868,4.77057567033
8,63,-4.24397037274,17.7435693473,10.0286895556
8,64,-8.74805650608,17.5310735163,6.71858925939
8,65,-9.49039942303,14.2958164586,-0.143606634436
8,66,-7.65606301913,12.315149115,-3.67896613047
8,67,-4.57676282261,10.4878559262,-4.07845741837
8,68,-2.05209034985,9.14919560864,-4.31717130334
8,69,-0.526552363819,8.45589925336,-3.49887254486
8,70,-0.673360348102,7.42225684082,-2.74110530654
8,71,-0.928075778267,6.412875295,-3.07251638921
8,72,1.06436866096,6.1437510338,-6.38064549464
8,73,0.083897674099,6.32960018164,-4.14817815271
8,74,0.299968204425,5.16198750511,-0.904085055166
8,75,0.945729299989,4.61150697943,0.30763811994
8,76,0.977920121256,4.55637337334,-0.186290501642
8,77,0.395557525652,4.35603173248,-0.650783659196
8,78,-0.370302155727,3.90353645683,-0.511333666546
8,79,-1.00008506922,3.39565974409,-0.996389816828
8,80,-1.62092527868,2.35096910719,-1.09483865736
8,81,-2.83249034177,1.83072585702,-0.132045474035
8,82,-3.21553558197,1.66040104978,-0.545000483969
8,83,-3.00046833208,1.58323057276,-1.18759872054
8,84,-2.46865853138,1.89338074472,-1.59711211155
8,85,-1.52856221305,2.42627893325,-1.61596191173
8,86,-0.30931176717,2.94457646079,-0.370756344781
8,87,0.873514828668,4.00728706994,3.33605098283
8,88,4.66221086335,11.0983301184,6.39085254824
8,89,12.4215954976,9.68762768182,21.0289843676
8,90,21.9210292481,4.41991125142,25.1393098973
8,91,17.902217683,6.1916722702,21.5224829173
8,92,10.4614405791,8.56556456047,10.4401341423
8,93,2.05571856923,7.76337849894,-1.89607632906
8,94,-0.313082910895,5.28073666553,-0.671088995547
8,95,-3.27676249979,4.82442009475,0.667263214561
8,96,-5.34200442485,6.04291279114,-1.39403578319
8,97,-7.45324926738,11.6432776055,-5.1534760384
8,98,-8.7972486643,16.5127577514,-8.01407757068
8,99,-7.57736045217,17.4025830779,-5.50407084249
9,0,-8.43851145124,17.1773865855,-6.86042206272
9,1,-3.40900797886,14.1912027849,-1.97728748577
9,2,-0.143902192971,10.6634818664,-2.96799154977
9,3,-1.42968788511,8.53817085091,-6.90911252867
9,4,-2.3688232507,7.56309129088,-6.08683987823
9,5,-2.65176300829,6.93369523105,-2.46943769299
9,6,-2.19155281314,6.66429106758,0.400657958476
9,7,-2.2734004158,7.09718683468,1.14839424039
9,8,-2.67362656627,8.01956846097,1.10673930544
9,9,-2.64453268296,9.55125952767,0.483044045307
9,10,-2.26424664157,10.614557234,-1.03892319541
9,11,-1.40052353748,10.0059047725,-2.36110171879
9,12,-0.994577840111,9.07276029454,-2.81010689353
9,13,-0.314021727128,8.26111985971,-2.64722261498
9,14,0.131003823297,7.97137081294,-2.32681460683
9,15,0.124693378161,8.40738852385,-1.78791816001
9,16,0.162160710376,9.83166878286,-1.47848121601
9,17,0.301744876292,12.4635432255,-1.86579828235
9,18,0.492464619163,14.6661414358,-2.15442511326
9,19,0.616020235534,14.4891927304,-1.37609688952
9,20,0.890458962626,12.2203319323,-0.0800376498447
9,21,1.14766814408,10.1169746571,1.17912723239
9,22,1.35949718183,9.49966401754,2.19261837015
9,23,1.6399154091,9.53434641827,2.39805641589
9,24,2.03964519871,9.38891183989,2.22855539492
9,25,2.7137546159,8.9498571209,2.86382983732
9,26,3.71296246969,8.0853956306,7.38774802655
9,27,3.35986260254,8.91195674414,7.1803814039
9,28,2.93472093971,8.94885748661,1.54562623971
9,29,3.48434246564,8.23111775323,-0.395843385474
9,30,3.70409394075,8.31953670961,-0.608507451825
9,31,2.51733224453,8.69799157769,-1.42671254091
9,32,1.00757839322,9.27363671095,-1.11839040324
9,33,0.32541991827,9.6016833642,-0.411160299516
9,34,0.234332571101,9.19269498151,-0.119334711376
9,35,0.0194420882661,8.95615587519,-0.0233797029652
9,36,-0.102788392012,9.55379267805,0.156912531627
9,37,-0.16067773547,10.4930023921,1.03693548859
9,38,-1.26780499978,11.3457080793,6.68573777834
9,39,-2.69190424401,12.0217593866,13.9128035038
9,40,-1.30879368957,11.9532360137,7.59720556531
9,41,0.250465510446,10.3041785798,-1.14619419563
9,42,0.506295917723,9.44387770696,-4.61435274466
9,43,-0.0368823152704,9.69345784254,-2.73198208568
9,44,-0.108517666793,10.5501453495,-0.65969019536
9,45,0.886255165474,11.9659049232,-5.67903921498
9,46,2.30374827358,14.1148685043,-6.89224390801
9,47,3.88407624406,15.6165566721,0.512379587102
9,48,5.37368165699,16.0283501161,3.1117588159
9,49,4.72258156691,14.8639573129,0.617975798187
9,50,1.83300954833,14.5605121417,-0.769916784051
9,51,0.177434016475,15.6959732247,0.658534068889
9,52,-1.38449707903,16.1874108721,0.012430918646
9,53,-1.70814653832,15.4004890064,-1.3732750026
9,54,-1.12192479788,13.7549095353,0.332699845496
9,55,-1.596805721,12.9064591427,-0.119800359561
9,56,-1.54775017938,11.2729041595,-4.12471354166
9,57,-1.5898843438,9.76623828916,-8.25624189765
9,58,-1.78222071017,8.55079426512,-8.14209439361
9,59,-2.53637859648,8.32170942223,-5.50051179838
9,60,-3.06614755273,9.10883114961,-3.24167675805
9,61,-3.3775059222,11.1119965053,-2.04173787051
9,62,-3.65493748316,15.7027035722,-0.378597728637
9,63,-2.1240036596,18.541782731,6.36728718106
9,64,-2.36976739487,18.0613237918,10.4104060767
9,65,-6.25291554286,17.8493725189,4.08169458765
9,66,-8.01084668197,14.4817641948,-0.7571008628
9,67,-7.29678490136,12.1834260489,-2.34380973223
9,68,-4.74339275774,11.1154722472,-3.60075518773
9,69,-2.71010588286,9.7137240404,-4.49699406683
9,70,-1.71839909925,8.31742867565,-4.14828171879
9,71,-1.45872897598,6.81830078844,-3.07505939077
9,72,-1.0135543001,5.63288668379,-1.95134701817
9,73,-0.193287974434,5.48507121216,-3.12739205674
9,74,0.308177070197,5.50460905905,-3.71228740985
9,75,0.646168551504,5.28930839693,-2.27579784589
9,76,0.248944572011,4.92415249974,-0.186109065532
9,77,0.0829269068272,4.72679270172,0.125119644495
9,78,-0.158312475726,5.00443759258,-1.46289459091
9,79,-0.523627074543,4.81022268339,-1.97708253422
9,80,-1.06914853476,3.90745395057,-1.06580316649
9,81,-1.62672836335,3.10430504205,-0.837749690577
9,82,-2.07349134903,2.70970884074,-0.87506925524
9,83,-3.07254710734,2.43604520945,-0.221300931103
9,84,-3.11244178699,2.10196272974,-1.25065635263
9,85,-2.46971488178,1.82861998498,-2.46715304289
9,86,-1.31107202019,2.09529232461,-2.15575588207
9,87,0.0221589641014,2.7965474266,0.0861078233408
9,88,1.73981926995,3.4762949888,4.06400556361
9,89,7.04800847839,12.4451147015,4.76537609606
9,90,15.9171153024,7.44757921398,24.1510334149
9,91,21.4882656667,4.69637688286,24.6810584651
9,92,17.9902153104,5.01212648353,17.0287408394
9,93,9.06458116945,3.64324532067,5.18233145485
9,94,1.96805661447,5.92472283776,-1.79860362279
9,95,-0.0425707557024,4.5660198202,-1.58769656247
9,96,-2.64754612297,5.14874739636,-2.40122120306
9,97,-7.63813734861,10.2845048543,-6.94214241922
9,98,-11.2054218422,15.3754565257,-6.95159853111
9,99,-9.5227345298,17.5161601818,-2.93929810094
10,0,-0.227208223695,20.122361571,-5.10241849883
10,1,0.933524223075,15.2165373016,-2.62975435799
10,2,1.21963897168,10.7351523417,0.290033924294
10,3,1.16007352663,9.17533830337,1.81621748682
10,4,1.07406629243,8.64581812648,2.33401204504
10,5,1.13719658232,8.04534158251,3.25366406699
10,6,1.85578437523,6.71245917464,8.24410130845
10,7,2.35580740801,6.88486053739,11.3262166643
10,8,2.18290930359,8.62463742041,3.93137725797
10,9,3.44509034138,7.72545977458,0.53229668595
10,10,4.58068482354,6.34416175073,-1.2368106564
10,11,3.40463297426,6.87758332531,-2.73796516272
10,12,0.874295926702,8.52936774444,-3.14737559472
10,13,-0.293392550378,9.45564913573,-2.18201174271
10,14,-0.0124812720533,9.03465548373,-0.814308029054
10,15,0.0728299907517,8.4324589916,0.0554091857661
10,16,-0.461967397165,8.47860027135,0.349430706557
10,17,-0.714621830635,8.74888252425,0.167877551933
10,18,-0.595506269658,9.49294222092,-0.072226664163
10,19,0.1029649961,10.7970019453,0.25363691205
10,20,0.804977028944,11.9065799323,0.971555573607
10,21,0.864100351557,12.2813198936,1.70793339211
10,22,0.355385915542,12.4071180769,3.67805285757
10,23,-1.59758765777,11.8525761178,16.3717453146
10,24,-2.03163226438,12.2338844452,11.9332991996
10,25,0.160180520486,11.0406465575,0.204916049784
10,26,1.83897529736,11.9308580344,-8.25660313287
10,27,2.72548833634,13.8213727628,-12.9843055672
10,28,4.33830233124,13.9180752431,-3.04362227649
10,29,5.70180909199,14.4024595834,4.02671774045
10,30,3.77732207516,14.9389603677,3.84513574136
10,31,1.02088982587,15.4455672007,1.13521723687
10,32,0.304175194989,16.4941865201,0.00481546271752
10,33,-0.618177528564,16.7624184041,-0.932645440524
10,34,-0.47825524973,14.5362879813,-1.08455778317
10,35,-0.234468330264,13.1949674698,-1.30209553627
10,36,-0.536727167239,12.5286950689,-2.63566901966
10,37,-0.750667680501,10.6549103317,-4.23988371047
10,38,-0.0619809242201,9.78416444917,-6.86676316772
10,39,-0.724661727698,9.7583545181,-6.48409211847
10,40,-2.11572828148,9.76775223402,-4.00371953978
10,41,-3.57330731953,11.2127134083,-2.26220720114
10,42,-4.70116733772,14.6520539625,-1.83903434826
10,43,-4.92788052764,18.3017361235,0.00980868249176
10,44,-4.22172742801,18.6824107772,4.74039289555
10,45,-6.75696437047,18.4768336368,5.23627434481
10,46,-8.79473434108,16.2236816395,3.91148229303
10,47,-9.15345266443,14.1633454976,1.09332719657
10,48,-7.20532328724,13.3204164184,-1.81421045557
10,49,-3.55950697442,10.8824641601,-4.3079095943
10,50,-0.400127327661,9.36341129276,-4.49495760741
10,51,1.21243172835,8.78060158297,-4.20783070709
10,52,1.92994908959,8.06441828514,-4.65475102577
10,53,1.71469294656,7.65441294599,-5.64315502345
10,54,1.1910255167,7.72657771696,-5.11097527573
10,55,1.23429419223,6.18942251826,-1.20264501922
10,56,0.953049935099,4.81354757393,0.473360474519
10,57,-0.0787110479819,4.26169580232,-0.189417402711
10,58,-0.666024857511,4.23958279716,-1.12910447967
10,59,-0.718860405703,3.88985590595,-1.29675954508
10,60,-0.855041957022,3.23740733197,-1.22512245784
10,61,-0.989439688471,2.46785032745,-1.54497021076
10,62,-1.43223057532,1.28324063467,-1.03983385404
10,63,-2.45918478107,0.603699442134,-0.252635515292
10,64,-3.05606946349,0.594100733643,-0.206241853698
10,65,-2.79580124429,0.828458660952,-0.934157091481
10,66,-2.28911462291,1.08885688735,-1.43753806726
10,67,-1.54642132303,1.36104007241,-1.86175490984
10,68,-0.7923161318,1.80731896244,-1.91942847661
10,69,-0.489251607425,0.942198384664,0.0443898227813
10,70,2.66523716241,4.93376962685,7.21282205651
10,71,12.1922293292,11.5720359214,17.3200083679
10,72,19.0266723228,11.3803349547,22.1302739813
10,73,17.1496179651,11.6666624419,16.7834145
10,74,11.7242741802,6.634273428,6.95397678728
10,75,4.01550711426,4.13902713331,-3.94730335726
10,76,-0.391739473788,4.6877678289,-1.58259203348
10,77,-3.31693172664,5.07778704254,1.25367653017
10,78,-4.92812746292,7.37545513598,0.551763580363
10,79,-7.57987218874,13.2840947785,-5.29596721309
10,80,-8.71157303744,16.3491754535,-9.08988888824
10,81,-4.70506550002,15.2391430045,-5.03024744644
10,82,-0.369734170035,12.0350101275,-4.583394755
10,83,-1.93594231711,9.78889165372,-7.09713384825
10,84,-2.81115795736,7.37468245812,-3.70865473149
10,85,-2.93539720157,5.85232564506,0.606955669673
10,86,-2.10856470374,4.71645247158,0.0274665309772
10,87,-1.7457207654,4.76701607253,-0.337680613461
10,88,-1.90364769151,6.88696700407,-1.54996537163
10,89,-2.64391412785,10.203614967,-3.52175499775
10,90,-3.0397989878,12.2537469464,-3.91086772413
10,91,-2.33838992851,11.6522460337,-2.69624832003
10,92,-1.31618460495,9.75344830044,-1.43162597316
10,93,-0.631267841452,8.37660395287,-0.854614531747
10,94,-0.238599784385,8.18211664229,-0.872851340932
10,95,0.288371649225,8.75204131224,-1.62808912267
10,96,0.923097993378,9.62480990964,-2.04468981497
10,97,1.18486550392,11.4678203304,-1.6124726662
10,98,0.738276362973,15.0819660904,-0.499607908623
10,99,0.401231339116,17.2875271362,0.50295899158
11,0,0.401231339116,17.2875271362,0.50295899158
11,1,0.73510887395,14.641048867,1.12326643257
11,2,1.20658054217,11.1273282037,1.80573988208
11,3,1.89410703208,8.78094693257,2.17344282032
11,4,2.69177094747,7.69621273944,2.16948139822
11,5,3.40562258624,7.32634207963,1.98775782857
11,6,3.83969303618,7.69875892555,2.12349853049
11,7,4.37323248761,7.75684806409,6.04082097781
11,8,4.02280587913,8.32714147558,9.91265484242
11,9,3.70121486244,9.10298174766,4.10646101695
11,10,3.8568243626,9.00606442559,0.667642019634
11,11,3.0648415749,8.57187596615,-0.925411686582
11,12,2.08775286571,8.97126189043,-1.64658959941
11,13,1.50304922664,9.55549951023,-1.19218001261
11,14,1.27687610171,9.54960820892,-0.695354977163
11,15,0.96859767584,9.15121340982,-0.543045957872
11,16,0.613466471737,9.12892038552,-0.415326020649
11,17,0.555191251122,9.42148525462,0.143109947444
11,18,0.568874320363,9.96011314551,0.972843798582
11,19,0.324385022179,10.9488818605,2.36885348891
11,20,-1.18030961496,11.8424955888,10.7793712416
11,21,-0.656211870522,11.2142321203,4.35063852667
11,22,0.664336499013,10.2946011669,-3.41907631178
11,23,0.236309906211,10.3879593088,-4.88363842578
11,24,-0.854463953944,11.0290915169,0.236946609057
11,25,-0.923809117372,11.2221600202,0.69576637678
11,26,-0.286515478955,12.1418823974,-6.84444776235
11,27,-0.249946634243,14.3677132175,-3.7354195975
11,28,1.95989745937,15.4528919505,2.71870127922
11,29,3.98156556007,15.1923647689,1.93473787652
11,30,1.73684236328,14.2666954752,-1.41816402856
11,31,-0.296407056923,12.6207816694,-1.58541628709
11,32,-0.569617973373,12.4613861617,1.31543273127
11,33,-1.17373679398,14.6989209973,1.24443661047
11,34,-0.725629081225,15.5895233464,-1.33881066298
11,35,0.212108253395,14.4943962717,-0.23941763325
11,36,0.774675329902,13.2905956465,0.405897263336
11,37,0.706102153025,12.2085766477,0.224081445914
11,38,0.00499766330505,11.8184059607,-0.475201441502
11,39,-0.836739027349,11.8862355874,-2.21674531224
11,40,-1.87230566725,11.1445488284,-4.24451577055
11,41,-3.24508647324,10.2994904042,-5.65957109036
11,42,-4.33404753471,10.6599589547,-5.54431821652
11,43,-5.10573042904,12.0250598631,-5.0804419567
11,44,-5.52486044444,17.0551035484,-3.34036945087
11,45,-3.23052616001,18.7151901221,5.34984190941
11,46,-2.92059886518,18.2603144509,9.15975989826
11,47,-5.46420519785,17.5303366144,6.388742987
11,48,-6.70233374814,13.9897764368,0.995903832365
11,49,-6.03813098108,12.3040199084,-3.95140050539
11,50,-2.96947247414,11.1893626976,-6.27734634556
11,51,-0.562459582443,9.78798910892,-5.8995939175
11,52,-0.00454143147195,7.75758640711,-4.62250251042
11,53,-0.165283204165,6.37011114681,-4.72576473548
11,54,-0.334044953309,5.95087480841,-5.84948346394
11,55,-0.0484514825345,5.87955633544,-5.91537024521
11,56,0.379217286589,5.02606362087,-3.15828385593
11,57,0.369099791058,4.4359714248,-0.254396187216
11,58,0.142749271794,4.06970050015,1.17592401195
11,59,-0.228623835049,4.56050542355,0.311541086017
11,60,-0.7414731614,4.7000594727,-0.669747236442
11,61,-1.45021168643,4.19631426034,-0.26366241985
11,62,-2.1615734205,3.68033584934,-0.111016155962
11,63,-2.65567534404,3.22184480695,-0.38035707167
11,64,-3.26727408656,2.82443686218,-0.389779121528
11,65,-3.63792455902,2.42838538431,-0.328864556726
11,66,-3.57424662962,1.98611078273,-0.434170042556
11,67,-3.11064235474,2.11389821815,-0.885316049631
11,68,-2.20181168956,2.08662586589,-1.49379082753
11,69,-1.37815249024,2.19748658817,-1.11043014274
11,70,-0.617758976768,2.18501870315,1.29482823221
11,71,2.4064678737,5.56955494459,4.61741040494
11,72,9.66009631323,8.4585841873,15.9582074598
11,73,20.2077790688,4.99566330085,19.7734997865
11,74,21.8200996607,5.06419771135,11.5733067069
11,75,11.7873530361,3.34125095102,4.26518320337
11,76,2.48850496832,5.32777796563,-0.254156938044
11,77,-0.84949185699,5.57137445935,1.33339858008
11,78,-2.80293368876,5.5930477726,2.47921427495
11,79,-5.68827537823,8.26897167681,-1.36286815091
11,80,-8.57309513475,14.4303399154,-7.34454973179
11,81,-7.33359806626,16.2681700934,-7.0500816635
11,82,-4.5762103474,12.4527992732,-3.79039310294
11,83,-2.2066448189,10.1504904427,-2.83376481437
11,84,-1.76069781562,10.1918902411,-3.50912873355
11,85,-2.09406383864,9.58756687515,-2.79850839594
11,86,-2.05796846046,9.00457444021,-1.34377005278
11,87,-1.25412561206,8.46446642926,-1.53743029665
11,88,-0.0762814376017,7.65381362963,-0.164136635898
11,89,-0.0439274717445,8.36052383325,0.591912404338
11,90,-0.85067669748,10.2613963602,-1.09022181773
11,91,-1.71673169902,11.0793270216,-2.62145318182
11,92,-1.99480374735,10.3050656767,-2.37995763244
11,93,-1.53067790661,8.85673128019,-1.44910420147
11,94,-0.70890279353,7.84641239291,-0.71470215007
11,95,0.239515713727,7.47226586269,-0.453352305814
11,96,0.888438700059,7.84436812584,-0.518849591422
11,97,0.803450720735,10.2748227408,-1.07420210634
11,98,0.32715440636,15.7902770668,-2.61822362425
11,99,0.489067275785,18.7857633975,-3.47640945341
12,0,0.489067275785,18.7857633975,-3.47640945341
12,1,1.04321020709,15.2854816051,-2.23380723725
12,2,1.1682959344,11.3155995672,-0.150519228174
12,3,1.35580374496,9.43481949387,1.45801361161
12,4,1.79295266446,8.71085225064,2.31741665265
12,5,2.33582599188,8.36307144301,2.66803740816
12,6,2.87634802474,7.41939124298,5.02421534383
12,7,3.05993609374,6.84343230287,10.986923863
12,8,2.39827863731,8.59217831247,7.40039325125
12,9,2.6756669064,8.4273609959,0.892966385805
12,10,3.77149884985,7.07782991217,-2.22566194949
12,11,4.79093957256,6.51630296137,-3.95124729822
12,12,4.22197771462,7.61398701045,-3.98718005151
12,13,1.92574956624,8.90613716197,-3.11920241485
12,14,0.0768104800826,9.70069964614,-1.53001111272
12,15,-0.364659466073,9.70049884455,-0.0466516540314
12,16,-0.332905337322,9.22047266878,0.786284092008
12,17,-0.383178908956,8.84764274366,1.29364385468
12,18,-0.636421601044,9.17852453902,1.478417707
12,19,-0.942985637014,10.0741557017,1.47133016512
12,20,-0.999943066938,11.0354667925,1.80823514787
12,21,-0.693205851225,11.5734511035,2.67235743784
12,22,-1.39555930908,11.3387437643,8.9288943134
12,23,-2.84834254362,11.4219150554,16.0689220996
12,24,-1.66349638518,11.5356859904,6.21128942489
12,25,0.442330100283,10.6398442467,-2.41940661047
12,26,2.50475223539,11.7823125931,-7.77334033969
12,27,3.31514908176,12.3696763308,-11.7883342682
12,28,4.32994887465,14.4926825404,-2.00242434737
12,29,5.08350658504,16.8766649834,4.93943542217
12,30,5.07380967771,17.6875790862,3.62824019099
12,31,3.46138575961,16.2791447153,0.620823845608
12,32,0.610165164165,15.2958885756,-0.20518167026
12,33,-1.13529353006,15.5499548135,-1.52261671599
12,34,-0.858587119888,14.4013141667,-0.531420607167
12,35,0.0579542105242,12.9742589849,-0.456956677984
12,36,0.553379032029,12.5634129791,-1.47451731342
12,37,-0.173425975871,12.4193284617,-2.24123390567
12,38,-1.0223870148,12.1934150907,-5.16357306161
12,39,-1.26405924931,11.5701673499,-8.69395290566
12,40,-1.37671966965,10.2106691956,-8.6337822607
12,41,-2.21575414104,8.72304663775,-5.94379351571
12,42,-3.13722067468,8.67532306169,-3.5420143029
12,43,-3.9617825492,10.9569812947,-2.17529633334
12,44,-4.90450315855,16.3284762464,-2.08732261555
12,45,-3.84305249268,18.94168663,3.55187894607
12,46,-4.77433143018,17.625066856,9.59977362172
12,47,-8.48695333828,17.2513348571,4.94836518924
12,48,-9.21216594588,14.0197614909,0.0464972316936
12,49,-8.23480568922,11.8531290501,-2.45859255013
12,50,-5.63549141891,10.4278070774,-3.26574406419
12,51,-2.93140828715,9.51890747586,-3.16333903327
12,52,-1.15157072368,8.5825139767,-1.90489803531
12,53,-0.443799365271,7.84084948046,-1.49361700769
12,54,0.90314738723,7.38360777685,-3.92636380574
12,55,0.795803592872,5.91247530546,-3.99333414954
12,56,0.768917915151,5.48361678079,-3.58715662361
12,57,1.00953408455,5.00545470732,-0.875325860616
12,58,1.08682017588,4.42112837379,0.696462680276
12,59,0.567024290259,4.52606791727,-0.382368126374
12,60,-0.0677086819898,4.64086453709,-1.35389318585
12,61,-0.572598506608,4.39863190235,-1.27150513311
12,62,-1.12302286096,3.62222288198,-0.787588693159
12,63,-1.92085651102,2.90758254793,-0.549360065856
12,64,-2.74536123209,2.66499241361,-0.578294921501
12,65,-3.40318744375,2.83897148948,-0.678929119393
12,66,-3.2998512887,2.93704269805,-0.684459820882
12,67,-2.63973808745,2.88609523681,-0.662416548138
12,68,-1.93217777105,3.36163388389,-0.929278169145
12,69,-1.12848316543,3.8738762055,-0.924264949252
12,70,-0.170430169685,4.02159402317,0.989547574881
12,71,1.42880884455,4.83271752599,5.04355506843
12,72,6.00495734913,10.208664942,7.36483384684
12,73,12.7001218676,13.4647278048,15.7320890605
12,74,18.8104559357,11.3308534563,21.967906041
12,75,17.9687735949,11.717753651,18.9739701369
12,76,12.8047075962,8.30927263752,12.9331909225
12,77,-0.58291819372,5.25044020807,-5.34310776731
12,78,-1.69522452344,4.460370031,-1.73291544726
12,79,-3.16082308764,5.33616765862,-3.2907022359
12,80,-4.86374793579,8.61675222227,-7.72239833626
12,81,-6.4680169178,13.550859366,-8.6524576618
12,82,-5.54941485963,15.5482345732,-3.78050554921
12,83,-2.93396023367,14.4520390648,-1.22194313148
12,84,-1.05376715391,13.3064382295,-3.48248095113
12,85,-0.593811350639,11.3870139041,-4.50313517432
12,86,-1.24667684794,9.29491547459,-1.49625780731
12,87,-1.60426010195,7.28452295824,0.96011464479
12,88,-1.46882771193,5.30876191129,-1.32422330856
12,89,-1.38432956288,4.93454464818,-1.62366427895
12,90,-1.71544002427,6.1669906164,-2.09687785623
12,91,-2.07715017453,7.91597796087,-3.03739310083
12,92,-2.09418665288,9.12261832138,-3.44506084052
12,93,-1.52307058129,9.12025252073,-2.78620639729
12,94,-0.652431778414,8.75029410774,-2.09126759548
12,95,0.237084274449,8.75907952235,-1.40265388855
12,96,0.658549500394,9.23214346777,-0.735998035876
12,97,0.514398056028,11.258924138,-1.05114982526
12,98,-0.181176130894,16.243374198,-2.16615074379
12,99,-0.573516776113,19.7307006987,-2.66772455131
13,0,-0.573516776113,19.7307006987,-2.66772455131
13,1,0.201086462157,16.4098485973,-1.72991714878
13,2,0.716104377593,11.6647939926,-0.0553838285212
13,3,1.20832760777,8.94848371489,1.42262387568
13,4,1.69645083553,8.02104060058,2.3863110186
13,5,2.0538556382,8.02754992595,2.7492038255
13,6,2.30063879872,8.5033294017,3.30399087508
13,7,2.52163298757,8.02897930105,7.94454640631
13,8,1.89271515625,9.08497701998,8.58649637836
13,9,2.24169751363,9.68102968162,2.44111445607
13,10,3.57031558533,8.03404656688,-1.12154783643
13,11,4.27885065598,6.6509122251,-3.06797122033
13,12,3.74451068067,6.93162408383,-3.6060587776
13,13,2.3125244423,7.93875365792,-2.5483661788
13,14,1.092946276,8.7551652309,-1.03892427185
13,15,0.583508184548,9.10805188118,0.099912800608
13,16,0.222710195763,8.96093344886,0.643585780005
13,17,-0.273797048019,8.78279208386,0.829689365622
13,18,-0.615617102659,8.95846852847,0.749274621833
13,19,-0.773340995934,9.42073236273,0.41846773608
13,20,-0.814609073027,10.286477942,0.510306517531
13,21,-0.491859233464,11.2188467386,1.40281512973
13,22,-0.362256501849,11.9281944166,3.15069150474
13,23,-1.17498014753,12.3370346004,8.07190520974
13,24,-2.26744121468,12.5414171753,12.2986954174
13,25,-1.44368377823,11.9547809689,5.77135866491
13,26,0.29714042851,10.9515982252,-0.37276795241
13,27,1.81218449777,11.0799824359,-3.30955707765
13,28,2.7780179289,11.0586766103,-12.5605096505
13,29,4.98561730284,14.2258752654,-0.29148397929
13,30,5.27089825866,16.4290414339,4.75793388616
13,31,3.43090918667,15.7471552745,-0.676483186437
13,32,1.49121209221,14.2647744693,-3.14249556854
13,33,0.372786004565,14.2170566426,-1.73307815551
13,34,-0.9983124033,15.1574379366,-0.274258005413
13,35,-1.21535481229,15.4803691222,0.778450562985
13,36,-0.872567741851,15.1505139993,1.21850908448
13,37,-1.17005994495,14.2927224565,0.464746646343
13,38,-2.02472623765,13.5591343317,0.00409799823892
13,39,-2.12077168461,12.6021881565,-1.34607125759
13,40,-0.725262198614,11.1673700998,-5.24200943562
13,41,-0.912378358019,9.12308018723,-7.09188176895
13,42,-2.03671797153,8.54219120648,-7.37838860686
13,43,-3.06148773558,9.99023162061,-6.95360154509
13,44,-3.57391952608,14.0418100571,-5.84586356618
13,45,-1.96019235729,18.4376284222,-1.11331669218
13,46,-2.36312232417,18.519120514,6.72132534431
13,47,-7.19463638231,17.5013736577,10.5437369867
13,48,-10.8045972991,14.8631222632,6.14787274816
13,49,-8.37349288545,14.1057694871,-1.74572994708
13,50,-2.63165377287,10.7651708383,-5.76923007766
13,51,-0.162489482503,9.42474420797,-6.71877298912
13,52,0.167351812799,8.96519693787,-5.56612546784
13,53,0.0922952724445,8.0023972882,-4.62285390632
13,54,0.814793049028,7.01183030027,-5.03348781955
13,55,0.978502602964,6.32657404944,-5.04827082455
13,56,0.321244231605,5.48726901919,-2.26368587234
13,57,0.108324955995,4.7618693637,-0.0161592338999
13,58,-0.153239765121,4.70020803419,0.633721351377
13,59,-0.373256359361,4.62494097187,0.144540008128
13,60,-0.540304318557,3.98260608511,-0.279538001184
13,61,-0.653275215726,3.53771241106,-0.517533237975
13,62,-0.970092757397,2.90522653816,-0.39796160225
13,63,-1.18904948768,2.70353363251,-0.855122407022
13,64,-1.96248558991,2.76405860102,-0.604581573895
13,65,-3.10609068342,2.77219344484,-0.00889404586178
13,66,-3.68630883319,3.07359184127,-0.433431898772
13,67,-3.65023188055,2.89726393098,-0.615455881311
13,68,-3.32977843847,2.49144453399,-0.548190853798
13,69,-2.90893911623,2.55404929352,-0.556653631998
13,70,-2.17163582992,2.98745490924,-0.462255111614
13,71,-1.42315207961,3.67626154343,0.658008270126
13,72,1.3170850666,5.75325254162,1.83118614737
13,73,9.35942620258,9.0236731229,7.3752548884
13,74,16.8305239499,3.27359860752,22.8401554241
13,75,20.8233847033,-0.209174725849,23.6985603257
13,76,18.108812981,1.61352665002,15.39948724
13,77,10.3484167697,2.90394340999,4.13814569354
13,78,0.53185657069,2.78253784272,-6.8721539704
13,79,-1.1915792414,2.57086216985,-0.503493317115
13,80,-3.23052394957,1.47974894284,-4.47637777445
13,81,-9.98817837764,14.4235892585,-7.41698298562
13,82,-11.8941300026,16.2212641865,-3.65208925713
13,83,-9.58666821044,16.5142286717,1.36573271462
13,84,-3.5069500117,15.18475303,1.38693951913
13,85,-1.62363596125,10.7338688653,-5.00813027724
13,86,-1.02529251686,8.29707947369,-7.95634850357
13,87,-0.630786432618,7.02966358067,-4.66331693116
13,88,-0.759468503607,5.37344144458,-0.927795783516
13,89,-0.981494850814,4.77887251829,0.251876837315
13,90,-1.38097722745,6.53933022377,-0.157065762548
13,91,-2.10698392548,8.75570820992,-1.2599647102
13,92,-2.63277758983,9.71563406584,-1.81950891469
13,93,-2.40025962619,9.40652536805,-1.4948556451
13,94,-1.55245128405,9.04232532392,-0.713416451988
13,95,-0.429884664891,8.81163310088,0.252294974772
13,96,0.354397910764,8.84683599524,0.227142261474
13,97,0.512256740246,10.7045914662,-1.09628357189
13,98,0.10561063363,15.213127503,-2.56264942997
13,99,0.380899062971,17.5819741669,-2.18963954911
14,0,0.380899062971,17.5819741669,-2.18963954911
14,1,1.28631523485,15.048664877,-1.8550572272
14,2,1.92699055957,11.5744336778,-0.85000003607
14,3,2.216315771,9.33922005919,0.779075547049
14,4,2.65253745581,8.44714778849,2.15940138946
14,5,3.46782407807,8.1706637525,1.08306667828
14,6,4.19308007527,7.94652636439,-1.18172621338
14,7,4.45815758341,7.95608483302,-1.84701460072
14,8,4.44119805941,8.00501196973,-1.65619114886
14,9,4.02304264845,7.79326809442,-1.33170703148
14,10,2.07592210362,8.575350837,0.139052410832
14,11,0.704113861785,9.89038629884,1.09775677902
14,12,0.921553656539,10.382399324,2.02595751772
14,13,0.877880534039,10.2101769358,2.67493547398
14,14,0.415077322014,9.64405176007,3.01059637972
14,15,0.058994540172,8.94034408279,3.40579367674
14,16,-0.0830347083253,8.56798785169,3.33670810861
14,17,-0.0069031986231,8.76278712932,2.93286422241
14,18,0.000225910980961,9.45262136784,3.59330876358
14,19,0.160773816036,10.0500186709,9.62649434619
14,20,0.224003646321,11.0107446789,10.0199393927
14,21,0.069091546364,11.1747140519,2.90985952287
14,22,0.305785626905,10.8782445539,-1.76616900463
14,23,0.315985542538,11.3485417937,-0.907013895696
14,24,-0.747168588925,12.3158241782,4.25387085205
14,25,-1.6224533469,12.5823074824,0.880678884113
14,26,-0.573867560764,10.8497729542,-10.1475712224
14,27,1.36904558116,11.0535749152,-10.8148850278
14,28,3.27345845542,13.0768486014,-6.50681636056
14,29,3.79601810802,15.0551245449,0.106429275183
14,30,4.27202736251,15.8853744781,4.02040226535
14,31,3.80153466193,15.5294976518,0.626603499827
14,32,1.20050633096,15.0017341287,-0.210616219337
14,33,-1.53210228929,15.1943324044,1.09214590374
14,34,-2.64026480926,15.5536860784,1.625426465
14,35,-1.68575605647,14.9130636546,3.22625667473
14,36,-0.130400212994,13.7582591608,0.811549211949
14,37,0.0518836051331,12.8843222324,-1.41214990622
14,38,-0.764732275651,12.1127684874,-1.66011224822
14,39,-0.600400190554,10.4873211582,-3.43441610557
14,40,-1.02177572373,9.66063479966,-6.49398593548
14,41,-1.86683657875,9.23452082414,-7.26706890394
14,42,-2.47068866394,9.40306733185,-6.1840072808
14,43,-3.47866407376,11.2417691238,-4.5261602489
14,44,-4.52172379809,15.4973707497,-2.65862064066
14,45,-4.14457628364,19.1340425478,2.44729231372
14,46,-3.33186259046,18.2081004275,7.99800606064
14,47,-6.42173819097,18.1933118931,4.91340675787
14,48,-7.42862216997,15.7539715847,0.781081328079
14,49,-6.42289320284,12.9513837668,-2.12975440007
14,50,-3.48113556783,11.5550456411,-3.4427176747
14,51,-0.980832812214,10.3775468215,-3.68949071533
14,52,-0.131828205542,8.53563568433,-3.46762260401
14,53,-0.0562164963641,6.76436107223,-3.24205372387
14,54,0.201391758241,5.49644104618,-3.84695223603
14,55,0.174710874674,6.28922456814,-5.81895926185
14,56,0.047777910665,6.30851088115,-3.62826478311
14,57,0.150378290158,4.79175655591,0.320939190896
14,58,0.503551811225,4.15243916142,1.01962735177
14,59,0.33332231253,4.26644459028,-0.533956385475
14,60,-0.371503463536,4.42063010174,-1.66905872393
14,61,-0.95096352562,3.8314677383,-0.591279882331
14,62,-1.00215297601,3.17678790423,-0.769416819316
14,63,-1.63713313896,2.91658520986,-1.22846521071
14,64,-2.65915674407,2.38613957006,-0.532956147164
14,65,-3.37760769926,2.49283205302,-0.541367619943
14,66,-3.48734384601,2.54910898161,-0.660859324182
14,67,-3.01586674118,2.38721177559,-0.739314560671
14,68,-2.27661352346,2.20088140672,-1.27825114991
14,69,-1.44587907532,2.30945305062,-1.62747295596
14,70,-0.628450476196,2.57028979486,0.2320739507
14,71,0.487740298734,3.63835727276,5.34189377092
14,72,8.62244180932,15.399546814,2.82313882452
14,73,15.1148195344,6.48348416311,25.1474056639
14,74,18.9025934267,4.75114324097,23.9793410673
14,75,15.7173275,6.76633272631,16.3948087749
14,76,9.85167136243,5.59812378298,6.34766699205
14,77,3.06310024739,4.60745966328,-2.29755542668
14,78,-0.888815246569,3.25952184913,-0.914051685496
14,79,-3.44760345427,4.12762823157,0.0515071601575
14,80,-6.3207159445,8.79247810267,-4.64693053072
14,81,-9.01324974821,15.7354844506,-9.84671545749
14,82,-7.17211673935,17.4201710337,-5.86302434761
14,83,1.48287622906,13.5575717898,-1.74139974558
14,84,-1.70209361528,9.82955579079,-7.51500988524
14,85,-2.37654151872,7.1968883995,-3.99894829049
14,86,-2.71159033884,5.62733637892,-0.783412731912
14,87,-2.0525104065,4.80530975209,-0.0569537797668
14,88,-1.90615619054,5.41350329803,-0.670307047462
14,89,-2.68795851474,7.59482673136,-1.78061975
14,90,-3.3402616012,9.89931433194,-2.15436117699
14,91,-3.45135265663,10.583579229,-2.13543193907
14,92,-2.72545365446,9.65150658309,-1.84260613965
14,93,-1.52367033307,8.05219064217,-1.49251162348
14,94,-0.401454420697,7.02262578531,-1.07950756918
14,95,0.227046136657,6.87260950185,-0.504734886829
14,96,0.692250354349,7.36008380224,-0.654133290519
14,97,0.848412099326,9.85936195512,-1.6041434107
14,98,0.515487275957,15.6764762709,-3.49118890953
14,99,0.695371920497,19.4152453225,-4.55842805604
15,0,0.695371920497,19.4152453225,-4.55842805604
15,1,0.874158419755,16.2209422259,-2.08003439534
15,2,0.891155975584,11.8867356756,0.718900772835
15,3,1.08673906149,9.53536121854,2.60685490117
15,4,1.77526847649,8.10783648937,6.10792043823
15,5,2.74321383924,7.17856016415,9.19883699967
15,6,3.55747166656,8.8853651869,4.04581546894
15,7,4.93318800252,9.93476601773,-1.26998218438
15,8,5.3663034587,9.4367457371,-3.18844738539
15,9,4.96056486883,8.70744347572,-3.70811785914
15,10,2.60372388643,8.62036285238,-1.90346365601
15,11,0.907206245991,8.68106498861,0.255864811703
15,12,0.566336310905,8.57392578679,1.71835425255
15,13,0.570284358994,8.56850974927,2.58175477328
15,14,0.637133629888,8.84954361418,3.2722632418
15,15,0.631687498081,8.99991921127,3.48407048413
15,16,0.199324526797,9.06359021392,3.6635761017
15,17,-0.948182794622,9.5103813909,5.17558080538
15,18,-1.07302153871,9.80563016073,4.96713941024
15,19,-0.0653679767776,9.84578517772,2.61858859271
15,20,0.378299802743,10.333646437,0.92700671013
15,21,0.256344152565,11.1004062298,1.02717370414
15,22,-0.414732623664,11.7198415863,2.30058958585
15,23,-0.882358866926,11.9331884132,2.76399453397
15,24,-0.716377555828,11.8465277446,1.10648151737
15,25,-0.0949465238164,11.2297580889,-5.92004826328
15,26,0.240755986442,10.7771078547,-8.20500976891
15,27,1.63457201321,11.4564267117,-3.70584716676
15,28,3.62735193326,13.6013479333,0.932277745997
15,29,4.23006331028,16.3252510986,3.36759256031
15,30,4.09256220419,16.5842661563,0.802557279372
15,31,3.33210773206,15.8681009775,-2.88125536975
15,32,1.64744545745,14.9495938884,-1.16009017462
15,33,-0.616045462289,14.4671732075,2.0679725064
15,34,-0.863803782893,14.011535999,1.87491141467
15,35,0.342864682329,13.3264580007,1.10768307919
15,36,1.29894595763,13.0493618518,-2.23828930822
15,37,0.990567140597,12.6374452868,-4.02278098161
15,38,0.391980412714,11.0394435322,-5.21267441724
15,39,-0.772451415029,10.041364763,-5.84761148086
15,40,-2.19759710484,9.68105246034,-4.77280115952
15,41,-2.92220891436,9.30982622662,-3.93486782132
15,42,-3.75914801266,10.0087857551,-3.87208807507
15,43,-5.00979724005,13.4744325241,-4.5536838098
15,44,-5.19675402101,19.0134287007,-1.53638850943
15,45,-2.04754104102,18.4098077136,6.82813559363
15,46,-5.41559524019,17.7339062949,8.97445724212
15,47,-8.62941256284,17.3476874604,5.7782600819
15,48,-8.9386773281,14.5845936414,0.635061741512
15,49,-6.51958814714,13.3749470063,-2.96825894784
15,50,-3.53481997373,12.3121129564,-4.16853769899
15,51,-1.4486979773,9.85158480854,-4.42013968949
15,52,-0.955185760014,7.62026886815,-3.90509993163
15,53,-1.38348530533,6.0706159559,-3.46541101497
15,54,-0.781274812936,5.44271695401,-4.92696687401
15,55,0.196064642498,6.56462038043,-7.52963442345
15,56,0.0600985627679,6.67978876917,-4.03501819892
15,57,0.548337657452,4.82311451276,-0.301770652464
15,58,1.26040275642,3.59041335044,0.907650596541
15,59,0.788209618631,3.57089861308,0.393951292236
15,60,-0.587124474152,3.77128018566,-0.499535797377
15,61,-1.36533120545,3.40243467867,-1.17586153788
15,62,-2.40561363289,2.63433115226,-0.298964001515
15,63,-2.76687604447,2.06939763654,-0.580170757162
15,64,-3.71958646856,1.60178628605,-0.228567492017
15,65,-3.99432645083,1.8580926935,0.0396755184751
15,66,-3.55464697321,2.40925142129,-0.122377485979
15,67,-2.73016765521,2.97100828114,-0.960681500824
15,68,-1.74323571206,3.34916672361,-1.53533697403
15,69,-0.535635090128,3.88455102297,-1.21021640624
15,70,0.699489311958,4.42721583391,0.610641545987
15,71,2.63060604598,5.89323796365,4.21508474553
15,72,8.18293697486,10.54837882,12.2739725147
15,73,16.9633465509,9.60914819252,23.2082352578
15,74,18.6392944185,8.447060881,21.7074599057
15,75,16.4221641617,10.0494756834,12.0063157598
15,76,10.1078046024,9.73464206289,2.42257593552
15,77,2.95026184817,9.81544241336,-1.54824411367
15,78,-0.19127719628,9.80035948232,-0.0773754084664
15,79,-2.41947414709,10.1178840499,-0.435183629313
15,80,-2.48003911542,9.26030507299,-3.086410611
15,81,-3.71999532408,11.5610746965,-8.25496042663
15,82,-5.34558623339,15.583206846,-9.00029751853
15,83,-5.67803446147,15.3505401391,-4.16077737569
15,84,-5.14832338911,12.577907956,-3.07642810102
15,85,-4.39836218631,10.7365978728,-1.86207348545
15,86,-3.71610306646,9.49921655324,-0.172727001194
15,87,-3.19566107375,8.31923282425,-1.39558881441
15,88,-2.50200914153,7.09899464163,-0.990671691469
15,89,-2.34500164151,7.14180084449,-0.467809708818
15,90,-1.82797567385,7.92720059043,-0.833117577558
15,91,-2.26992475104,8.74617991417,-2.44532054016
15,92,-2.55895442915,8.74825588213,-3.33758148639
15,93,-1.62962509261,7.82246909146,-3.0871119121
15,94,-0.481541388859,6.97679053086,-2.14380449189
15,95,0.192450435322,6.72266856615,-1.24652453071
15,96,0.464836046436,7.43804069664,-0.931218026284
15,97,0.301175174043,10.1446183569,-1.49905032153
15,98,-0.10985729269,15.3426097337,-3.25570942148
15,99,0.27597517014,17.9091026799,-4.410909161
16,0,0.27597517014,17.9091026799,-4.410909161
16,1,0.874294675388,14.8644267915,-3.17911906641
16,2,1.0413382001,11.2981007849,-1.3341960613
16,3,1.02890422253,9.27917486639,0.579789563437
16,4,1.31814560897,8.77851924916,1.83781383674
16,5,1.64236144229,8.45035278018,3.23058021952
16,6,1.60286267537,7.12304377964,7.50590523296
16,7,0.684219104713,7.34841921993,8.21766373445
16,8,0.611728971337,8.94254042105,3.28059567246
16,9,1.87274777435,9.6679205112,-1.69885371423
16,10,3.12976785305,9.35557820565,-3.81975553842
16,11,3.47069697803,9.07152456546,-3.99339682624
16,12,2.90166075088,9.07507819347,-3.15854421343
16,13,1.85337703954,9.156734503,-1.59404342023
16,14,1.05269334281,9.1517137058,0.645145651198
16,15,0.811426229582,8.9769828479,2.32397769949
16,16,0.859290568788,8.81200346015,2.85728894526
16,17,1.03435636421,8.84296195194,2.71407553199
16,18,1.16853506134,9.00325690715,2.373329363
16,19,1.15822201333,9.0458593173,2.06239501485
16,20,0.942771543787,9.24025474711,1.89771125106
16,21,0.706583953577,9.65814144468,1.61901786789
16,22,0.586395953488,9.96268749882,1.29868293051
16,23,0.512653552104,10.2157955959,1.04504191659
16,24,0.354854131632,10.6798573965,1.0759580671
16,25,0.275177492257,11.3858523382,1.60960712132
16,26,0.0867133438123,11.7335136031,5.25586807376
16,27,-0.478118298659,11.7891630041,11.7447863616
16,28,-0.877392374784,12.0757927941,10.1116456067
16,29,-0.635530262314,11.7708031971,2.50520662536
16,30,0.107661785687,11.1943773583,-2.21796306776
16,31,0.918135413298,11.4254772,-3.71648591925
16,32,1.51208944071,12.4154022671,-7.02757200439
16,33,2.52044000873,13.3650263983,-9.30659716484
16,34,4.50118030434,13.756564415,-4.17017357086
16,35,5.71499467926,14.282052872,0.178397388719
16,36,4.99693355784,15.2074006798,1.5897084457
16,37,3.1527994535,15.807560751,2.70296123521
16,38,2.17853791803,16.2522019748,2.22643465083
16,39,1.37709299348,16.5130231494,-1.09129826405
16,40,-1.10144750772,17.1017488291,-1.70268128791
16,41,-2.12794979142,16.5715514269,-0.617031805795
16,42,-1.95667754972,14.9028866223,0.325892104634
16,43,-3.08736548622,12.6745676043,-0.308510095073
16,44,-3.09621279547,11.8578658929,-1.71002163691
16,45,-2.13307736386,11.5252836103,-4.32427524813
16,46,-1.32669328014,10.7868358476,-6.60050813102
16,47,-1.29013083305,9.72075946632,-7.25370225458
16,48,-1.95792355894,9.13968093326,-6.61922457154
16,49,-2.91605767256,9.49456576935,-5.77663328243
16,50,-3.85426414431,11.1708661977,-5.18122586963
16,51,-4.23024939899,14.9160833323,-3.45187701001
16,52,-3.56972805142,17.9000104462,2.62459080756
16,53,-3.72363648938,17.5665471987,9.69945487852
16,54,-6.44869063829,17.619976226,9.04880612378
16,55,-8.1352484338,17.1083084614,4.99762604789
16,56,-8.07849656947,14.5360727127,0.394231102235
16,57,-7.23302270786,13.4768697781,-2.71090239513
16,58,-5.36168972527,11.6606331319,-4.39051195184
16,59,-2.60040020835,10.6467213303,-4.99740028175
16,60,-0.83724060997,9.41740099021,-3.93574702636
16,61,-0.533394950611,7.94701373636,-2.58176543939
16,62,-1.30119079645,7.26639038181,-2.19682282044
16,63,-1.24578931471,6.40654675295,-4.32977587758
16,64,0.323597212762,6.24548819076,-7.16435293094
16,65,1.44793567461,6.26834869485,-6.58811431772
16,66,1.27670320591,5.71466683358,-3.0689688581
16,67,0.784383901626,5.05906633804,-0.182838260406
16,68,0.486580441406,4.17363594446,1.06074803819
16,69,-0.101057966525,3.26818015208,1.42581175844
16,70,-1.06177684366,2.96055055769,0.842413675279
16,71,-1.86068002188,3.0726760924,-0.39067929709
16,72,-2.19244998333,3.11402611158,-1.32870120436
16,73,-2.21475863915,3.03668287397,-1.70243499809
16,74,-2.22521843611,2.69248587043,-1.37949647412
16,75,-2.32484752246,2.02505214501,-0.761440790882
16,76,-2.5370632395,1.30035609447,-0.305861353666
16,77,-2.51117588262,1.53026266714,-0.566552714231
16,78,-2.12810769348,2.01864034897,-1.05654490487
16,79,-1.73821028865,2.51661361925,-1.51590204168
16,80,-1.16306266258,2.84770084718,-1.57286914934
16,81,-0.368163645629,3.31742775049,-0.887661332551
16,82,0.181786430715,3.5665012039,1.76915948752
16,83,2.46852412588,7.76597101927,4.45260961331
16,84,7.84088690994,9.29969900642,15.5553833748
16,85,16.5016467563,2.16358611331,24.2636858702
16,86,19.3452050263,-0.832001095647,25.6706495315
16,87,18.3677315492,1.71392789064,19.2760595168
16,88,13.3083392842,2.27388721022,9.53462634589
16,89,6.32695852861,3.19114538235,1.20012720593
16,90,1.4329882655,4.97158129106,-0.876882926519
16,91,-1.22668796273,4.77490646689,1.23096196329
16,92,-2.759852193,4.28770509731,1.32986357222
16,93,-3.58713359518,4.56090965335,-0.949435697132
16,94,-4.62180409051,6.95658990673,-6.21130528986
16,95,-6.63672525589,10.9588346882,-10.6931715313
16,96,-7.35731417692,13.0949397541,-9.95771769285
16,97,-6.04066725644,13.5842795356,-5.64273400789
16,98,-3.73437521152,14.2053337554,0.0645989941949
16,99,-2.53640449907,15.0464255386,0.729507290391
17,0,-2.53640449907,15.0464255386,0.729507290391
17,1,-2.32215861434,11.8936987791,-1.9253820173
17,2,-1.67973648268,7.81242447896,-1.81272900007
17,3,-1.27553665802,5.97027048312,-2.49876146127
17,4,-0.864722619583,7.74255983602,-3.20906635966
17,5,-1.55644719871,10.1661333612,-5.15799976751
17,6,-1.87302319639,11.106895978,-4.42526225268
17,7,-1.1705239544,10.0289843805,-2.12271909272
17,8,-0.0907066414321,9.21957924595,-0.745094772946
17,9,0.0768642386233,9.1097215254,0.931396058126
17,10,-0.0394003027966,9.36952900853,1.80477791075
17,11,-0.0678728082604,10.6998764764,1.32153955713
17,12,-0.6373406738,13.6391993387,1.02842655227
17,13,-0.414335899965,14.1828358676,0.926586537253
17,14,0.54587139731,11.9967287619,0.751225223304
17,15,1.46677922198,10.0780979075,1.10670684641
17,16,2.2708440978,8.85318731759,1.76997977488
17,17,2.95302858479,8.29060260037,2.03433083257
17,18,3.04171644207,8.02823219508,1.54556999518
17,19,2.53642741603,8.27681762041,0.497648472878
17,20,1.88203560884,8.23512992636,-0.633478689588
17,21,1.44454136831,7.82059221155,-1.33951155713
17,22,1.12397775122,8.50887575715,-0.883294762765
17,23,1.56493877181,8.77793591024,0.84114488532
17,24,1.41341211514,9.34536865896,2.53194261226
17,25,1.41650983514,9.37835502541,2.56015128115
17,26,1.80399885809,8.49890945937,1.81014687873
17,27,1.71007047161,8.48338793593,1.20455442117
17,28,1.09172574963,9.73978779051,0.482979737704
17,29,0.473838209823,11.3798245616,-0.0431469691595
17,30,0.513090792588,12.0217693992,0.188502946729
17,31,0.660878258364,11.763639032,1.39274151916
17,32,-0.252586363241,11.4304966882,7.31580803934
17,33,-1.85139665843,11.6385921234,12.2007835332
17,34,-0.668800215759,11.2370280499,1.75322879545
17,35,1.08698107551,10.4687160006,-5.07400289778
17,36,1.94494592272,11.4664289579,-5.45293045937
17,37,1.38527028263,13.8946757897,-2.77220994765
17,38,0.906974382232,14.6775397041,-1.39717588788
17,39,1.71390265279,14.2627136805,2.09033769193
17,40,1.37125844611,13.7791673076,-0.409188955587
17,41,0.69624749881,15.1336928297,-1.61423664506
17,42,0.00043130272619,14.823484605,0.236414907823
17,43,-1.19867444153,14.4136218017,0.453741308007
17,44,-0.113961218946,13.4928008312,-0.00816253764171
17,45,-0.494440361817,12.9146913681,-0.673522116548
17,46,-2.38709309929,11.8598311806,-1.83863418494
17,47,-2.24381764697,10.3340086245,-4.39297784227
17,48,-2.1554434477,9.79460175529,-5.87826434655
17,49,-2.70962403417,11.360215489,-5.69584553472
17,50,-3.55564899646,15.1660319227,-5.30465262223
17,51,-3.01156223677,19.2881337579,0.489996862534
17,52,-1.59125542155,18.478230515,7.98444735205
17,53,-4.87468282032,17.5410021604,6.00163573883
17,54,-6.76097974057,13.9580682389,0.737998294037
17,55,-6.07651176688,11.9369048528,-3.28529258472
17,56,-2.65539857073,10.296611927,-4.47435493095
17,57,-0.789374905722,8.65811054537,-4.3869262568
17,58,-1.31855006159,7.95994920396,-5.09826466728
17,59,-2.01716256471,7.07409686371,-3.87006170484
17,60,-1.28556057934,6.32723665227,-4.52970121216
17,61,-0.64207271075,5.45981491197,-2.99272994667
17,62,0.687950377942,5.62149265522,-1.90210117828
17,63,1.40363568141,4.91197902788,-0.119880720525
17,64,0.22323605922,4.31368300331,0.580837866645
17,65,-1.3637639886,3.85501716975,0.0832900265585
17,66,-2.23548685989,3.3116296096,-0.400774527767
17,67,-2.34096874324,2.98300385687,-1.20651163078
17,68,-2.37256456096,2.39811849082,-1.1259174446
17,69,-2.34737175027,2.07903626793,-1.62216462058
17,70,-2.27785971248,2.23574901748,-1.22438438659
17,71,-1.73008104272,2.10219102048,-1.37384931475
17,72,-1.22563875415,2.23768939876,-1.83886621022
17,73,-0.255891551464,3.36201912173,-0.393879458492
17,74,0.935808092219,5.16117754583,3.79758379513
17,75,7.12276797616,9.28782230931,13.3831930765
17,76,18.2938388785,2.78250965056,25.2225401739
17,77,19.4215074752,1.5642373963,24.8281264649
17,78,11.6431738968,7.56767234987,9.21397433987
17,79,3.00227485675,7.99008693061,-3.55581490227
17,80,-0.231279803627,6.85411726773,-0.865536490197
17,81,-3.45085621552,6.45099963074,1.27880808551
17,82,-3.65842252518,5.81381914979,-1.78060231459
17,83,-4.5727731381,8.90541961764,-5.94910094133
17,84,-6.2250317791,14.7897065368,-6.88299111703
17,85,-7.29944066866,14.9865143141,-4.78047851875
17,86,-6.17349933376,13.8811110125,-1.59843749626
17,87,-4.73893807485,14.0144164917,-1.23874395091
17,88,-2.48113464635,11.6440675899,-1.89341314807
17,89,-1.27235924938,9.02985544305,-2.3339584667
17,90,-0.985153621973,7.41254729873,-1.05268787537
17,91,-0.996960803831,7.77182721894,-3.12894724319
17,92,-0.777220227282,8.49495641382,-4.81402873551
17,93,-0.597053825258,7.66775312265,-2.85478870451
17,94,-0.140714135166,6.97949142161,-1.5635538962
17,95,0.029907397431,7.39750315036,-0.571781382479
17,96,0.218173626883,8.73126933632,-0.644390546102
17,97,0.400746126712,11.2036498986,-1.74125032668
17,98,0.527564348171,15.6215666811,-2.78352837758
17,99,1.21259759688,17.0814994046,-1.85678021181
18,0,1.21259759688,17.0814994046,-1.85678021181
18,1,1.5764585581,13.319725393,1.63738605424
18,2,1.78330754762,10.9953036157,3.12180747408
18,3,1.98771698009,10.7041045629,2.4066739863
18,4,2.49324247386,10.3932605327,1.18695815738
18,5,3.01446827312,9.46166424531,0.295017024595
18,6,3.09923933705,8.29989977106,0.352583949389
18,7,2.32825059215,7.97897622969,1.3114242114
18,8,1.65263572837,7.77134251256,1.29263545274
18,9,1.36276929422,7.61359762823,0.382575904074
18,10,1.52643003142,7.78460968776,0.150413707636
18,11,1.06875951848,8.06368126903,0.198482752688
18,12,0.759757117242,8.55306666954,1.30493334243
18,13,0.901965813167,9.31439265324,2.79698253709
18,14,0.998627544267,8.85786974162,3.31718044455
18,15,0.964358799581,8.04078124725,2.69347288734
18,16,0.697221092691,8.0442491505,1.63864848713
18,17,0.29512559078,8.90013243371,0.631406962573
18,18,-0.0111357038187,10.275422001,0.112055579886
18,19,0.0444428408145,11.5715069854,0.275109039761
18,20,0.272489978219,12.2775246492,1.08765303454
18,21,0.0991497618593,12.379084295,2.53579118944
18,22,-1.07631767762,11.9414659813,6.97346920561
18,23,-1.9019490549,11.4183553828,8.8412425001
18,24,-1.09506976392,10.6375276272,2.77713462787
18,25,0.207154215937,9.82418749546,-2.57460349395
18,26,1.18891740736,9.91457581428,-2.36877742802
18,27,1.88684999417,11.1495434521,-6.23339320663
18,28,2.19272595754,12.7914282861,-9.32943267949
18,29,3.58672951384,13.8892812488,-1.95512837595
18,30,4.34258417285,14.8343287707,3.11099369403
18,31,3.28535975143,15.4347381457,1.5776457303
18,32,2.17599679683,15.134779813,-0.501120540759
18,33,1.05142444617,15.4145112817,0.528021444999
18,34,-1.33319012701,16.8887695215,0.411294092787
18,35,-1.68370608183,16.8750889625,1.05420152589
18,36,-0.948776796692,15.4371223372,2.05257537256
18,37,-1.09389236091,13.8759636177,0.909969221573
18,38,-2.23229190463,12.987419938,-0.706452589473
18,39,-1.26227602471,10.8827199105,-6.83843214267
18,40,-1.09749294711,8.22927431414,-8.1792503093
18,41,-2.08279065177,8.54706500604,-6.24514773092
18,42,-3.34412362678,10.4767036792,-5.02604523381
18,43,-4.1884837834,14.5263448997,-4.16030959716
18,44,-3.29585368087,18.8370516915,0.410577430204
18,45,-2.67220903422,18.4635232661,7.55746470372
18,46,-6.35088950489,18.1238918416,7.91104339194
18,47,-8.48839224873,15.9637536088,2.86888256589
18,48,-8.06527402549,13.3469347401,-2.0491535695
18,49,-5.07158321828,11.104005583,-5.07331139632
18,50,-1.67617914377,9.89273026439,-5.8461074896
18,51,-0.98127430231,9.06488480942,-5.04349276779
18,52,-0.862328415115,7.58204233051,-3.71847433143
18,53,-0.644215060023,6.6809602068,-3.67476462219
18,54,0.212825318234,6.3438333035,-4.41352362112
18,55,0.0174974299495,6.03172469797,-2.86673509196
18,56,0.202502773717,5.09575025736,-0.388032283502
18,57,0.22365279143,4.49209891986,0.747999969801
18,58,-0.15656368521,4.65397659108,-0.0528224056832
18,59,-0.748423652633,4.45243416715,-0.569307098373
18,60,-0.722672632558,3.93306332436,-1.36492355054
18,61,-0.876637812391,3.36479001743,-1.00854125303
18,62,-1.64673800592,2.52468016201,-0.131858072131
18,63,-2.42955218185,2.15252751248,-0.266183163407
18,64,-3.19571883891,2.21669333923,-0.284864687773
18,65,-3.26751563674,2.36433270713,-0.633800823802
18,66,-2.91975806355,2.36378506693,-1.04835207285
18,67,-2.30254040756,2.51169494452,-1.37440705202
18,68,-1.58692601312,3.07839250529,-1.3240353247
18,69,-0.559640898163,4.02690443516,-0.00254822336683
18,70,1.569237272,5.60226389828,3.11099160392
18,71,7.08287941273,11.779347554,6.08322467674
18,72,14.1631857523,10.8192176897,19.3428589301
18,73,19.022857935,7.36574938818,24.337442273
18,74,18.7015042487,8.6307672517,19.0596944328
18,75,10.4061112519,0.063578988279,7.69243022801
18,76,2.8131091967,4.8940291062,-1.18522635871
18,77,-1.28556816773,5.04064920524,-2.05641112356
18,78,-2.48445356008,5.61550230717,0.378511014142
18,79,-4.6827196194,7.85691620461,-2.89592926737
18,80,-6.35632752851,11.3876681276,-9.17648962804
18,81,-6.97022007104,14.328265878,-10.6620932854
18,82,-3.37732014758,12.7346221401,-5.84908693642
18,83,-1.18396905735,10.9035987519,-4.83899260811
18,84,-2.06108722982,11.2242213182,-3.10564165283
18,85,-2.41756739227,10.9919082988,-0.347650498533
18,86,-1.57417571241,10.0889676904,2.70870271769
18,87,-1.33846002747,8.72243875832,-0.392895770693
18,88,-1.23708670903,7.3299121786,-1.8107418373
18,89,-2.64121420375,8.31078099926,-1.70702381954
18,90,-3.23053118162,9.39936051778,-1.94167161263
18,91,-2.57160465958,8.96402544935,-2.35143582758
18,92,-1.91410479044,7.93297696406,-2.65324922424
18,93,-0.874033278213,7.22583772508,-2.62308399557
18,94,0.00694618591426,7.26664742245,-2.37712386552
18,95,0.51846851598,7.76145039756,-1.86472296335
18,96,0.700486137805,8.76586600847,-1.05679330788
18,97,0.55698886941,12.1182165419,-1.23360974415
18,98,0.23575112505,17.6561370664,-2.10966556545
18,99,0.307649008577,19.1283040557,-1.92731622703
19,0,0.307649008577,19.1283040557,-1.92731622703
19,1,0.709717859195,15.4480020298,-0.5038042277
19,2,1.05366391714,11.9605902535,1.08706902895
19,3,1.34320792384,10.1152730737,2.03861766955
19,4,1.74840428605,9.077152117,2.26398684776
19,5,2.18034273297,7.95952403334,4.55130309573
19,6,2.94985380925,6.89431963732,10.5722932635
19,7,3.31858478659,8.54224592699,9.18794686223
19,8,3.84875695947,9.93505685192,3.66106704354
19,9,4.55317934794,9.09400982836,0.199913358304
19,10,5.00795734671,7.48793394485,-2.03057221188
19,11,5.40097115642,6.2755547116,-3.44986304679
19,12,5.1509949657,6.26984830571,-3.53208244914
19,13,3.58727796501,7.02031248844,-2.22059535026
19,14,1.71230351102,7.87854365221,-0.970756649749
19,15,0.567248180421,8.64750570152,-0.192933851659
19,16,0.0727664295777,9.34309502532,0.627286434715
19,17,-0.184565827808,10.0083992224,1.34635996769
19,18,-0.543039787575,10.4197264722,2.04622385339
19,19,-1.06891060027,10.4421074417,2.85949576571
19,20,-2.24119478516,10.3617656683,5.66231910553
19,21,-3.35296998008,10.650958296,8.52393578206
19,22,-2.89894033712,10.9785796007,7.69174776034
19,23,-1.35037451521,10.9145572754,3.93064038725
19,24,-0.120754979301,10.8089388383,-0.169895797101
19,25,0.024672853253,11.0409294066,-3.05922277756
19,26,-0.662492434565,11.4997064701,-3.73238379374
19,27,-1.57988818071,11.6159257832,-1.50864811206
19,28,-2.34588681796,11.0618262344,2.20285967622
19,29,-2.48490150768,10.2828527177,2.95642637129
19,30,-1.36772205958,9.47969400273,-2.25070801744
19,31,0.333139530008,9.07984815911,-6.80278210335
19,32,1.98194876243,10.205573447,-6.83230561724
19,33,2.73189044044,12.6103894828,-3.67485631968
19,34,3.60156201856,14.8823452958,0.40808155693
19,35,4.9470260448,15.4751907402,2.43657288776
19,36,5.28482196928,14.9939132651,0.331235665039
19,37,4.22318462738,14.2994179187,-2.12817536211
19,38,2.06355936816,13.5979646598,-2.50408848466
19,39,0.645270781798,13.26191782,-0.600757077095
19,40,-0.118703128455,13.6478103678,2.11773822254
19,41,-0.774723558831,14.3417319461,3.64516521705
19,42,-1.25505193387,14.6025544102,2.53637016595
19,43,-1.20423545936,14.0766051517,-0.206438799684
19,44,-0.755099700669,12.7517357585,-1.40573721401
19,45,-0.775252942563,11.0801331361,0.245201172571
19,46,-1.58766094404,10.2757908593,1.80568179853
19,47,-2.07502580572,10.5653596016,-0.0690981954456
19,48,-1.05201331382,9.86675667832,-5.32898327595
19,49,-1.20465045282,9.12761325627,-5.96926298394
19,50,-1.70739756313,8.65614353663,-5.66357908303
19,51,-2.45595168114,9.43367327597,-4.71318805673
19,52,-3.47613953959,11.4628778012,-3.77106770061
19,53,-4.59255708801,14.9273897918,-2.23063149983
19,54,-5.06878895996,18.1103690675,1.54029348999
19,55,-3.95012245251,18.5843784366,6.25443691835
19,56,-3.07894749379,18.852090031,5.84417131531
19,57,-3.15902338943,17.9986429666,2.74943401796
19,58,-3.35301092893,15.1318392117,0.394202944224
19,59,-3.10372709204,13.0529391679,-1.60480053194
19,60,-2.21422445837,12.8620860008,-3.68722772209
19,61,-0.490483999389,12.313294577,-4.80965482383
19,62,1.20833218301,11.2195285154,-4.30485346062
19,63,1.21670949243,10.0771189321,-3.548598123
19,64,0.121501240625,8.62196816828,-3.18474840171
19,65,-1.63085578291,7.08059067609,-2.34275782105
19,66,-2.84106045287,5.81932143936,-3.41761598889
19,67,-1.75277254809,5.42069359974,-4.42221442558
19,68,-1.36463592319,5.11711595318,-2.63479280573
19,69,-0.849339203355,4.8897120813,-1.89648500021
19,70,-0.128520330831,4.49675009413,-1.71777837079
19,71,-0.0706307841756,3.83088838287,-0.831786624828
19,72,-0.929363385202,3.40120255094,-0.200536629228
19,73,-1.91326661798,3.04182172596,-0.175901835442
19,74,-2.38731025853,2.57594840722,-0.645991383856
19,75,-2.40172440528,2.18624095341,-1.40680812673
19,76,-2.48617823961,1.88875526743,-1.82573129298
19,77,-3.02524586779,1.54046435791,-1.28730679008
19,78,-3.67412891272,1.29587279917,-0.213673414656
19,79,-3.73371470576,1.39361856078,0.136495438829
19,80,-3.08753375197,1.90490686918,-0.539857655396
19,81,-2.18090265565,2.83233615088,-0.733562495975
19,82,-1.01938490445,3.67968736685,0.0698571360004
19,83,0.165791929555,4.65578788341,2.58213543737
19,84,2.72266348079,7.08445859181,5.3088335012
19,85,6.47441659422,12.017231397,9.55394161648
19,86,13.4822762557,12.8181095961,18.1053087659
19,87,21.5043986553,9.85619047751,21.53586143
19,88,21.6317428803,9.90403927028,18.5409003236
19,89,16.389726132,9.85783829496,10.4530985949
19,90,8.137444307,9.80363528738,0.899348269294
19,91,2.68594838161,9.49289193303,-2.94820803879
19,92,1.03251713317,9.00270306873,-1.29701099127
19,93,-0.839139268655,9.28432554529,0.231638585145
19,94,-2.52528555794,9.29955683366,0.199229212649
19,95,-3.06225651666,8.98236719403,-1.60880057098
19,96,-2.91313714588,9.47187131216,-4.40490137388
19,97,-4.38515758982,12.7762719206,-8.01648447049
19,98,-4.73541898249,16.5082638186,-10.4420578018
19,99,-3.77602299772,18.3411101262,-6.36320491462
20,0,-3.77602299772,18.3411101262,-6.36320491462
20,1,-1.86426761187,17.1559684896,0.728173359922
20,2,-0.658298851549,13.0186749261,-1.99468508986
20,3,-2.35957952694,9.67138607146,-4.38183145462
20,4,-3.24393249666,9.10924288454,0.28912024765
20,5,-4.56146888365,9.21369784917,1.40248550585
20,6,-4.05216890969,7.69359279229,-1.56786335221
20,7,-3.01834705492,6.8186324918,-0.202072619072
20,8,-3.57708916152,8.39730121742,-0.107108650531
20,9,-3.41859753123,9.17777390878,-1.56423717241
20,10,-1.83005685649,7.96452545032,-2.77356341221
20,11,-0.548236105163,6.80583902768,-3.17607717658
20,12,0.13951661577,6.40156499276,-2.61721135182
20,13,0.464229548827,6.69008478631,-2.31961829682
20,14,0.650605200546,7.39169283031,-2.52376148816
20,15,0.412046743696,9.47435859115,-3.17123220488
20,16,-0.287392701771,13.9370522606,-4.74035239819
20,17,-0.711604351554,17.3310868137,-5.38774270664
20,18,-0.291516845996,15.4152918912,-2.5727018627
20,19,-0.257466017495,11.6335799463,0.459570202627
20,20,-0.0935224625627,9.78475507011,1.93924192212
20,21,0.555533424439,9.31021758854,2.45774207212
20,22,1.07264013297,8.95098952132,4.34949104204
20,23,1.47564870033,7.76017092376,10.1605129961
20,24,2.46238624261,7.67714644088,7.41620201655
20,25,4.57159879741,7.59769359132,1.31213801767
20,26,6.58188218699,6.61734311308,-2.45984062287
20,27,6.18174673867,6.81574952236,-3.78947669121
20,28,2.43168358182,8.25531333031,-1.69028759596
20,29,0.372118374199,8.78623040451,-0.46085678473
20,30,0.235078013071,8.44432636742,0.238650746929
20,31,0.498715720978,8.20089342538,0.886393552278
20,32,0.107833688705,8.57774865964,1.27296530833
20,33,-0.571186929664,9.21811464327,1.21370405285
20,34,-0.977821551646,10.0895202995,0.890682656739
20,35,-0.741444640113,10.9017225978,0.664150085955
20,36,-0.146419248034,11.3785114437,0.764736299847
20,37,0.339878226128,12.0174965787,1.28206120765
20,38,0.673620588555,12.5621777699,3.11970510198
20,39,0.10694686477,12.5831071062,9.42766601006
20,40,-1.48104413825,12.4918742063,12.8927677826
20,41,-1.96029387881,12.0140860623,4.97870187188
20,42,-1.33929772656,11.0011461417,0.300128923185
20,43,-0.336050284877,9.62703160245,-7.71309050021
20,44,1.14081471573,8.86747410872,-14.4788967312
20,45,3.3983917396,9.95608325708,-9.9777603659
20,46,4.16035992316,12.3139497327,-1.56105500515
20,47,4.42434664772,14.5265505795,5.2319830741
20,48,4.00719220171,15.3262547989,2.48517834938
20,49,2.52782496974,14.7693329174,-1.8645101768
20,50,0.789169531613,14.5784445815,-2.14415864452
20,51,-1.05727409225,15.1003864852,0.684784433834
20,52,-2.91157467683,16.3054839588,1.50313136849
20,53,-3.45761191461,17.9381912082,1.55839110521
20,54,-2.42805940823,17.31552155,2.81497784139
20,55,-1.02257431668,13.7571235561,2.22534207491
20,56,-1.35502915363,12.842164419,0.685586227569
20,57,-1.22603578525,11.3937544337,-1.36853435008
20,58,-1.17427874014,9.20136302236,-5.9878430296
20,59,-2.06669039419,8.58827948634,-8.12624253388
20,60,-2.74833324327,9.93104656983,-5.94725534949
20,61,-3.38595063668,12.760475915,-4.1151351321
20,62,-2.781331251,17.8407559595,-0.242442039454
20,63,-1.31269925213,18.6896149438,7.08391846305
20,64,-4.58206518654,18.6861635586,6.09867307051
20,65,-7.07649718425,17.5325227901,3.69595174142
20,66,-6.76363764429,14.6413904606,-0.0477567601334
20,67,-3.90806945151,12.270996424,-4.20737188009
20,68,-1.17546871643,10.8077275776,-5.87127291233
20,69,-0.548501025219,9.40616345682,-6.10420367341
20,70,-0.872982739034,7.71724035807,-5.22030601851
20,71,-1.29847354136,6.39638220705,-4.5842265157
20,72,-0.738196755543,5.06686374421,-3.59187107588
20,73,0.0750382448022,4.70765822938,-3.49136198557
20,74,0.496832844578,4.16791460249,-1.12861288413
20,75,1.1928440583,3.82581019354,0.176003567296
20,76,1.07052575585,3.90186129596,-0.13983240265
20,77,0.401077273093,3.70699362624,-0.196364206279
20,78,-0.303935129196,3.76223556076,-0.581741825893
20,79,-0.518546720131,3.41882681053,-1.31703256821
20,80,-1.2396413387,2.71570194015,-0.390961322692
20,81,-2.39645550864,2.57701490515,0.32181851195
20,82,-2.86931485294,2.82232920371,-0.381426798662
20,83,-3.10176639802,2.49014445239,-0.362039027121
20,84,-2.75572397233,2.46088127404,-0.877297794411
20,85,-2.20046636145,2.86395109105,-1.26275991289
20,86,-1.49084815617,3.31327747472,-1.13656849342
20,87,-0.956174078072,3.94336984237,0.346117905756
20,88,-0.408974381695,5.04414474623,4.23189534153
20,89,3.35953791581,12.4419457488,6.7312486516
20,90,9.65130297047,12.134291013,22.3175559125
20,91,19.0185400598,6.84455698802,23.6006028271
20,92,19.7537545909,6.90111759079,18.3311005808
20,93,17.1789455241,6.3408942586,6.85179340562
20,94,8.84254242184,5.35605975449,0.860750146678
20,95,1.85259950652,7.89428745569,-0.391286677682
20,96,-2.29375966329,8.35068175677,0.63151919653
20,97,-5.35863372924,9.66044246862,-1.64773261118
20,98,-7.35556242961,14.0674995663,-7.48953860942
20,99,-6.88902984389,16.1398578774,-11.4995411704
21,0,-1.09911491235,18.3966131841,-3.84055562372
21,1,0.641375719504,15.6278718132,-3.63530643556
21,2,1.41702961271,11.5104365181,-1.96185554478
21,3,1.70691359514,9.00972519824,-0.204199038399
21,4,1.93277261454,7.93249355722,1.28884005407
21,5,2.2337163877,7.8931883272,2.09661027467
21,6,2.53636807651,8.52636072783,2.77930409494
21,7,2.85446679421,9.20533364074,3.00971983585
21,8,2.71382931759,9.28165254714,3.32827688837
21,9,2.17602302294,8.80022591066,4.82894580345
21,10,1.43299542529,8.67346393723,7.99959673458
21,11,1.96959298228,8.7782349775,5.01381231127
21,12,3.48410456943,7.73779280138,0.261058367376
21,13,3.65675114058,7.78761493939,-1.67783230532
21,14,2.11534193309,8.96415901528,-2.77472300504
21,15,1.27850916517,9.38938807884,-2.76067945851
21,16,1.43167287515,9.11437359975,-2.16520860122
21,17,1.32323344629,8.956717284,-1.3840990147
21,18,0.818022735425,9.17615874151,-0.599043093119
21,19,0.484606533616,9.56975856046,0.0262278477739
21,20,0.36707217981,10.0050886209,0.672302885208
21,21,0.280555216558,10.5114409005,1.68972334837
21,22,-0.247289427104,10.7513185914,6.10539812267
21,23,-1.38553063916,10.5405094014,11.8914462447
21,24,-1.10925913822,10.5542436736,5.80813269652
21,25,-0.117581102488,9.74395618602,-1.90361326299
21,26,0.750561684168,9.61620787601,-4.23782084656
21,27,1.20457602466,10.3665423452,-1.32492102833
21,28,1.64619746479,12.0164330263,-1.401390795
21,29,2.08530391903,13.4617899126,-7.8364832297
21,30,2.86412190231,14.2521521016,-3.16899070994
21,31,4.35783455682,14.3944068818,2.27835598572
21,32,3.87138920347,14.5049021976,2.38745946153
21,33,2.320477287,14.6475658054,0.768145260728
21,34,0.575818580156,15.5756730609,0.964285102807
21,35,-1.34431157489,17.0566349069,0.713010033978
21,36,-1.87765027106,17.0280954667,-0.27457035844
21,37,-1.20416516601,15.3235747048,0.651818965778
21,38,-1.04974159044,13.3910131976,-0.228673106121
21,39,-1.36112153214,11.6708199003,-2.27904178561
21,40,-1.42963593982,10.4371984601,-4.50279416294
21,41,-1.53342723591,9.81090086734,-6.75271119869
21,42,-2.0387953159,9.06369232013,-7.27606884766
21,43,-2.60351872311,9.18250215365,-5.9630573591
21,44,-3.40223146658,11.0317857921,-4.34745564815
21,45,-3.52615629997,15.1186876504,1.20938987993
21,46,-4.49284102137,17.715435322,9.39727613163
21,47,-8.37535155019,17.3988505102,5.80836191938
21,48,-9.14337728876,14.8562930127,-0.749159920115
21,49,-7.22680509256,12.8745567499,-3.86306357044
21,50,-3.22230475791,10.5547499489,-3.90640882048
21,51,-0.520066943735,9.20042017287,-3.21368551911
21,52,-0.30309869367,8.97020903965,-3.2372364441
21,53,-0.34963209426,8.08012033369,-2.96645023861
21,54,-0.707075176479,7.18139348655,-1.94237733653
21,55,-0.277900210396,6.01485387746,-1.71324159074
21,56,0.821858006948,5.57352058666,-3.81747706548
21,57,0.79059323709,5.87257206577,-2.98524558848
21,58,0.472129263669,5.25318352724,-0.586043140676
21,59,0.859978614467,4.64474676916,-0.276127345213
21,60,0.22093349744,4.23985858587,-0.349258577427
21,61,-0.85851095022,3.99803546797,-0.583590153116
21,62,-1.58492399389,3.66128795398,-0.754239105431
21,63,-2.12606694384,3.07322796402,-0.676961669897
21,64,-2.48109911835,2.78519399696,-0.696156922621
21,65,-2.76502915718,2.6622279988,-0.902624430688
21,66,-2.93420648869,2.58849049327,-0.968229665322
21,67,-2.76089439222,2.88567170949,-0.856419782376
21,68,-1.87930385895,3.55161269179,-0.650843158133
21,69,-0.824114178685,4.60957215051,0.777151435764
21,70,0.847465082391,6.09839672116,3.60455475628
21,71,4.33129544103,9.55420454869,6.32339421154
21,72,9.9274279653,14.0557485411,14.5169562307
21,73,17.2731320532,14.0835345476,21.2179555647
21,74,17.1795832579,13.8164006148,18.2579005802
21,75,12.4561182335,8.57752534005,9.64567470677
21,76,4.36165471274,6.97823609021,-0.998106854586
21,77,0.473328257463,7.15153243292,-3.77474517513
21,78,-0.29491752904,7.59018635227,-0.74913988046
21,79,-2.22741919955,8.58540394042,0.097434046351
21,80,-2.67603061613,7.92926481656,-0.707052784769
21,81,-1.71452675576,7.02971917886,-3.91255049923
21,82,-3.20728968871,9.38011240126,-9.19285190504
21,83,-4.98393605545,12.7626119962,-10.0987723603
21,84,-4.32072257379,13.0890067307,-6.38504004348
21,85,-3.17902518313,12.3179762496,-1.31876391304
21,86,-1.87130078403,13.9456954764,5.77472148126
21,87,-2.66394089878,14.2987853771,3.9578713534
21,88,-2.50880748816,11.7147973147,0.129928955047
21,89,-1.87091370138,8.90695854914,-3.47168098754
21,90,-1.25023148897,6.52303119261,-3.12290961974
21,91,-0.98330317822,5.54916265151,-1.32727246821
21,92,-1.42464723437,6.36269171199,-1.41549235139
21,93,-1.61796299767,7.7062446407,-2.43962766382
21,94,-1.41666290102,8.17450112546,-2.81444691146
21,95,-0.771896488527,8.7683659277,-2.33345543425
21,96,0.181797157693,9.8262508973,-2.12721926325
21,97,0.240155655002,11.2905251424,-2.37318235995
21,98,-0.171898167263,14.3391648113,-2.95480757193
21,99,-0.237167462664,16.7220181294,-2.86352603735
22,0,-0.237167462664,16.7220181294,-2.86352603735
22,1,0.276845837604,15.704758486,-1.94673021362
22,2,0.634210299467,13.3432060947,-0.201726632514
22,3,0.830135816917,11.3659652057,1.43504388322
22,4,0.982441441703,10.3888867508,2.32866850278
22,5,1.2469377704,9.89548401477,2.44075139258
22,6,1.74070682125,9.1056264297,2.86067327083
22,7,2.51146663665,8.07454483613,5.05292639632
22,8,3.28051044853,7.53234854872,6.20187280662
22,9,3.36426453714,7.67457731319,4.72853464256
22,10,2.94053041887,8.02870354249,1.85863590872
22,11,2.73193950943,7.96986765622,-0.484979904047
22,12,2.72040004997,7.38728044207,-1.62537902323
22,13,2.49389868941,6.99738477992,-2.13869089316
22,14,2.08509833617,7.39162622034,-2.26801025312
22,15,1.54052117417,8.1126935667,-1.92085946635
22,16,0.880303091978,8.7247796033,-1.12475420865
22,17,0.508410934703,9.08991403639,-0.035502508571
22,18,0.258234569502,9.01372611116,0.936091007871
22,19,0.100479280651,8.68921979099,1.4585193819
22,20,-0.0482632200172,8.42900552453,1.64422650873
22,21,-0.156196238064,8.43786277529,1.41434872671
22,22,-0.0725538291756,8.66035578836,0.927360562512
22,23,-0.00458558817825,9.08341902043,0.733619928615
22,24,0.12481491889,9.59641929113,0.720876700819
22,25,0.296959068975,10.0746781454,0.854897935731
22,26,0.440948909594,10.5977995164,1.12098800596
22,27,0.388539331377,11.2274207629,1.52946139695
22,28,0.00446972431466,11.8998514233,2.3101936143
22,29,-0.948060203545,12.3886155762,5.13885352669
22,30,-2.01368187832,12.4582649364,9.23837279281
22,31,-2.03665712509,11.9381406258,8.79915698196
22,32,-0.782253298696,10.8678099104,2.54567077139
22,33,0.756053180107,10.0503918583,-3.18853672593
22,34,1.82401900973,10.56892056,-5.17001447755
22,35,2.28495757943,12.3309376857,-4.07109993903
22,36,2.59733009879,14.5391778527,-2.89302375688
22,37,3.1702184971,14.9632466326,-6.09953889099
22,38,4.43187213347,13.2922111741,-3.62388058205
22,39,5.38471208659,12.5692845685,1.35469664629
22,40,3.26653504064,13.9690880497,2.60623160123
22,41,1.30620271038,15.7669166988,3.60576030677
22,42,-0.264263028666,17.3367036488,1.59972935343
22,43,-1.49014157263,17.9168111186,-0.991136189132
22,44,-1.40353220135,17.0671028777,-1.7127072338
22,45,-0.766673047528,14.627621438,-0.852264304489
22,46,-0.822424444775,12.7668494141,-0.287561753627
22,47,-1.58351222477,11.4131967214,-0.468988240561
22,48,-2.04783121828,10.2591118299,-1.83190724699
22,49,-2.18111927422,9.76779598775,-4.26250664061
22,50,-2.26973047353,9.6250108192,-6.73034216091
22,51,-2.2860403156,9.32548558286,-7.64679830743
22,52,-2.5669165474,9.54918803697,-6.647965067
22,53,-3.185883773,11.0277122099,-5.13762269896
22,54,-3.2647621984,14.421597512,-2.42389780514
22,55,-2.58713388678,19.0604388894,3.9941714369
22,56,-2.54423734465,18.1982868012,9.17814031032
22,57,-5.93857370941,17.9773223396,6.40354708719
22,58,-7.61019997456,14.8568367958,0.704871604213
22,59,-7.70459876672,12.7660015853,-3.72692063841
22,60,-5.48344244859,11.171557941,-5.12126917456
22,61,-3.11529435475,10.3618918552,-4.21965505617
22,62,-0.944808556423,9.52564938067,-3.45261435439
22,63,0.501148635981,8.53801543199,-3.47401683445
22,64,0.671675614715,7.87776081602,-3.61404765909
22,65,-0.369040595808,7.52516502397,-1.97134927285
22,66,-1.05732516353,6.77816938965,-1.87380691959
22,67,-0.925835938972,6.54055535868,-3.60970292141
22,68,-0.570002822855,6.09992558463,-3.1095877704
22,69,-0.0498486776121,4.93411571963,-0.636811868279
22,70,0.596342585754,4.09101931488,0.397864459256
22,71,0.797815021632,4.03867575748,-0.265134857851
22,72,0.284585768322,4.11029237478,-0.612741392515
22,73,-0.363345091083,3.90249504898,-0.468861392474
22,74,-0.593051937554,3.44655757669,-0.840445800727
22,75,-0.901314614429,3.03024663149,-1.20325256029
22,76,-1.54384094877,2.56151287816,-0.870683049607
22,77,-2.20405453239,2.27352598038,-0.376859950836
22,78,-2.56057074394,2.27415954061,-0.439734705949
22,79,-2.90964372458,2.40212748749,-0.42087441674
22,80,-2.79126127835,2.3674570649,-0.401257556534
22,81,-2.60192305447,2.34758282631,-0.451341862161
22,82,-2.33605401444,2.66451907381,-0.655910984856
22,83,-1.90204849632,3.29553420096,-0.451905122859
22,84,-1.22840552328,4.16472451891,0.535041723557
22,85,-0.504647469163,5.26089868727,2.65506422104
22,86,2.07110456504,9.40022554772,2.34775991571
22,87,6.35390044083,12.232171254,10.660687601
22,88,11.8066440174,8.88170334477,21.2688026358
22,89,16.3024179506,5.04717412397,23.9636101736
22,90,19.5306963354,5.76163102418,17.5296570361
22,91,18.7739842043,5.44264138069,9.85051331367
22,92,11.4442366261,3.95963187852,4.46278262194
22,93,3.79539767817,6.66093916465,-1.73157142333
22,94,0.111128657604,6.54123099359,-1.05758019695
22,95,-2.3260787246,6.06589702195,0.56710047649
22,96,-3.37066589479,5.54530437743,-0.593691354433
22,97,-4.31437176378,7.68390558311,-3.30991630364
22,98,-6.11356049348,12.0268503073,-6.70555918233
22,99,-7.7166695404,14.0937505289,-8.39913089159
23,0,-7.7166695404,14.0937505289,-8.39913089159
23,1,-5.9073310782,14.0530264652,-4.17516289152
23,2,0.0684765148452,13.6362745452,-0.244334097522
23,3,0.915586232027,11.8776105257,-5.34954172234
23,4,-1.23351688063,9.37801365971,-6.19919154539
23,5,-2.16012981941,7.36249428171,-2.13022628674
23,6,-2.1041046701,6.05802434462,1.74583662219
23,7,-1.90458310254,5.50043399602,1.60421224819
23,8,-1.46886507937,5.45323748334,0.27212507393
23,9,-1.34566576303,6.21128533807,0.221959639158
23,10,-1.68076067167,7.697549683,-0.181383476921
23,11,-1.85066042117,9.17955707671,-1.44081570381
23,12,-1.95432516466,10.2886176451,-2.49438842442
23,13,-1.8490386237,11.1436559218,-3.09666319269
23,14,-1.35748911698,11.996071413,-3.66090751663
23,15,-1.03479577711,12.9109500416,-3.32186246663
23,16,-0.606905519621,13.5509360086,-2.90747114138
23,17,0.0225932414505,13.1096722988,-2.47737778347
23,18,0.459588530465,11.8908125354,-1.73360001805
23,19,0.603282231622,10.6174338267,-0.586468804704
23,20,0.556230172442,9.85751623363,0.772311098839
23,21,0.525283596382,9.69260882859,1.76740001455
23,22,0.665535563391,9.68213530193,2.21090728245
23,23,0.980650161197,9.93099521562,2.43806113387
23,24,1.44233384394,10.1110922712,3.09201756517
23,25,1.86810236972,9.58100950236,4.76312382932
23,26,1.90863529524,9.34179501073,4.32761122637
23,27,1.59292554053,9.53763573618,1.07508306812
23,28,2.12933655644,8.65891260174,-0.651803909815
23,29,3.47029399525,7.68656198424,-1.97562042239
23,30,4.21784339873,7.21416768773,-3.16765859122
23,31,2.46338205496,8.33002799976,-1.75936572591
23,32,0.732505969504,9.25642253548,0.724281520255
23,33,0.220441563603,9.41392299423,2.07852569681
23,34,-0.0988611855349,9.18031774846,2.33564081666
23,35,-0.351096184883,8.64509489141,1.92146178936
23,36,-0.360821210272,8.24968100041,1.35040822228
23,37,-0.0878792737475,8.15470273367,0.756152323679
23,38,0.19596859072,8.39116953055,0.18046031831
23,39,0.409768042034,8.85259270635,-0.266906651527
23,40,0.589102869995,9.48310521837,-0.474287990425
23,41,0.715446244607,10.2481109609,-0.390539032899
23,42,0.878258558725,10.935637677,0.0131552073624
23,43,1.06865851915,11.4757646491,0.542375791947
23,44,1.08949405389,11.9598732133,0.998653206531
23,45,0.857321691708,12.2549794261,1.42942197362
23,46,0.625549637612,12.1082450832,3.04400491763
23,47,0.819328548081,11.4660383863,9.05803370199
23,48,0.860162040961,11.2424934632,11.6404422574
23,49,0.588295491417,11.2842741806,3.4335565833
23,50,0.97230928958,11.3747597756,-3.91391512088
23,51,2.15606130219,12.95168712,-5.5984527851
23,52,3.5359506627,14.6391161751,-7.03187887381
23,53,4.73546355214,14.0094399645,-5.96820071756
23,54,4.54495808324,13.2550076957,-0.223075337632
23,55,2.12637422681,14.3731106042,3.77301242096
23,56,0.26446895331,15.6819348931,3.02792509899
23,57,-1.26760603096,16.7229678912,0.895838886623
23,58,-2.1775382367,17.5111480238,-0.203430753688
23,59,-1.57864504751,15.7523618712,-0.198829672311
23,60,-1.38528570366,13.5807732473,-0.35721613418
23,61,-2.28030497668,12.2490084832,-0.794425491862
23,62,-2.77344885582,11.3829322845,-1.40066524377
23,63,-1.95637750184,10.2690918541,-3.44129552127
23,64,-0.731220851285,8.76959996101,-6.46581213211
23,65,-1.62355340645,8.06052483272,-7.82477263152
23,66,-2.38732249731,8.66291116033,-7.08300439476
23,67,-3.63755634754,11.6532803903,-5.44840995842
23,68,-2.37446329493,19.741641416,0.520882061115
23,69,-1.76821663326,18.7727022203,6.34353864264
23,70,-6.93833831895,17.4421608709,9.36077887376
23,71,-10.2965935506,15.4971845289,4.86558769417
23,72,-10.0496555543,14.4083119949,-1.18615879077
23,73,-5.73338225283,12.4103522132,-4.26275099245
23,74,-0.808387254713,10.0717532791,-5.8640270033
23,75,0.475083705722,9.39942229008,-6.2226090642
23,76,0.21532527121,8.42731846627,-5.88109605536
23,77,0.0270603208686,7.41019212405,-4.60874936528
23,78,0.961173878396,6.42710074821,-3.59785611569
23,79,1.13976622203,6.15118665417,-2.90075230647
23,80,0.522784815378,6.02526900875,-0.684873934148
23,81,0.501879132634,5.64066921677,0.792870120793
23,82,0.731005955164,5.28668974918,0.832266217673
23,83,0.172499953557,4.85136292965,0.49941882626
23,84,-0.471641401758,4.6920010496,-0.369169047306
23,85,-0.606830644766,5.04751165397,-1.53682684984
23,86,-0.592823145664,4.75751378763,-1.49880558839
23,87,-0.712914426715,3.76706997027,-0.854876193055
23,88,-1.28616346604,3.00912643194,-0.237652375351
23,89,-2.15571899587,2.61383351918,0.231139784029
23,90,-2.86055573426,2.56128555798,0.175663336727
23,91,-3.13824832729,2.6842372065,-0.172380257293
23,92,-2.85079166082,2.78175266948,-0.644241709134
23,93,-2.53820758607,2.66884135173,-0.957566329882
23,94,-2.25228368074,2.84280705705,-1.09374140846
23,95,-1.64508751515,3.4715718141,-0.911822649888
23,96,-0.879047628602,4.18860261449,0.0191748591978
23,97,-0.528781904418,4.50431388727,2.10761200471
23,98,0.539530776412,7.48455139263,3.28153112143
23,99,6.37514961648,16.2893722575,6.80416118985
