index,i,acc_x,acc_y,acc_z
0,0,-5.36541073605,18.9102988005,0.589559513888
0,1,-4.09283688932,18.4013827771,6.65088812464
0,2,-6.1417341954,18.2217971663,7.2326740525
0,3,-8.01489323855,16.5755579067,4.7203275946
0,4,-5.94787854703,13.4373515997,-0.512497733073
0,5,-1.94329563754,11.6951633124,-4.59648231353
0,6,-0.550530181442,11.392008626,-5.8045700915
0,7,-0.0970747465014,10.0855696806,-5.0532904015
0,8,-0.309859381443,8.13107155149,-4.07387700045
0,9,-1.24736805102,6.89966327837,-3.18639456888
0,10,-0.729625128816,5.66623895305,-2.48426642576
0,11,-0.300285281141,5.17322487701,-2.53229496048
0,12,-0.779872923007,5.46350357678,-1.49210233379
0,13,-0.470173942181,5.10192129404,-0.4664947929
0,14,0.0743343031537,4.29489929365,-0.418496394617
0,15,-0.18884717453,3.60720969439,-0.362543803122
0,16,-0.704392184572,3.26680736534,-1.17338213578
0,17,-1.28900183492,3.06415697133,-1.86206449289
0,18,-1.58427437004,2.68531224935,-1.85361470438
0,19,-2.03256701549,2.02779188038,-0.953515114986
0,20,-2.91330492156,1.69824882412,0.0387186876348
0,21,-3.63090836324,2.03254470534,0.342740401287
0,22,-3.32740489008,2.51792728116,-0.576775461525
0,23,-2.70651817644,3.05197795313,-1.60017374099
0,24,-2.34798782141,3.96316195156,-1.29678445399
0,25,-1.85640549537,4.90234179156,0.263410069536
0,26,-1.36745728518,5.7206706715,3.46973137003
0,27,11.0110863502,11.5883785837,12.0443865619
0,28,21.1556607693,7.2595849124,22.8838086545
0,29,23.1990848234,5.51203636588,20.8247325845
0,30,16.2829108529,4.34104890028,11.1834277593
0,31,6.00506639824,1.58282866975,0.513710325132
0,32,0.506114973601,4.9846599961,-5.35928836384
0,33,-1.66967019947,6.38523972671,-2.86971417828
0,34,-2.30844490094,7.52500093514,-2.50428873733
0,35,-2.77742355722,9.20673370824,-4.47239872415
0,36,-7.24520598837,14.9004199069,-5.98208802941
0,37,-7.11316902629,17.8560813456,-3.28898622826
0,38,-5.00238177089,15.907371729,1.54181972371
0,39,-4.15825951511,13.0589251231,-1.5626365342
0,40,-3.96626802776,10.1059628059,-6.11732800799
0,41,-3.48094497735,9.47626111023,-5.18443138334
0,42,-2.94211703543,9.60039015641,-3.09955037261
0,43,-1.89056912391,8.46102925818,-1.9752957538
0,44,-1.23039737384,7.4453627621,-0.444009548479
0,45,-1.03660047105,7.64022711932,0.11514665397
0,46,-1.89949493147,8.91645463632,-1.33534963852
0,47,-2.8274682862,9.36572340437,-2.75425200156
0,48,-2.47875334085,8.60548523523,-2.29604836209
0,49,-1.32284315244,7.56603020665,-1.16493908694
0,50,-0.176281259582,7.1376753759,-0.39764840866
0,51,0.609415067159,7.8461623536,-0.386057225868
0,52,0.778820787374,10.3001291399,-0.846950364576
0,53,0.263942047193,14.1916773449,-1.12508785175
0,54,0.276456724198,16.9070393506,-0.841082746143
0,55,1.14559259653,15.754490942,-0.522766511192
0,56,2.03109632904,12.4789810921,0.216808976081
0,57,2.73015037435,10.3410423039,1.06455764218
0,58,3.40156267532,9.24289264869,1.62415633538
0,59,4.28296978677,7.99188427423,2.6462911827
0,60,4.20098628938,7.44543405313,3.80549740479
0,61,3.36475046504,8.57863182126,1.22482191943
0,62,3.60435233673,8.36370051553,-3.35252243505
0,63,3.63874741519,7.55136078078,-5.5616001462
0,64,1.95688424932,7.73005595659,-2.80333086035
0,65,1.10890974056,7.38577878063,0.856852516185
0,66,0.753514986373,7.26627725542,2.67701762943
0,67,0.584818693373,7.44757643671,2.8547166297
0,68,0.405171852751,7.90246844179,2.67100879788
0,69,-0.159297015677,8.67435198178,2.32891552656
0,70,-0.761765801,9.42260509932,1.91921648223
0,71,-1.03027175717,10.0404817082,1.6160189688
0,72,-0.864734957567,10.589199436,1.32179304349
0,73,-0.30927418461,11.1209980069,1.22096992539
0,74,0.125382093669,11.6103726404,1.8961702053
0,75,-0.00528725161881,11.9519740185,5.27004972011
0,76,-0.739543624793,11.9180183631,7.67424935005
0,77,0.00840733470781,11.5172712665,0.972505740609
0,78,0.760137493092,11.3817031506,-2.74382674802
0,79,0.763498051638,11.3087817023,-2.9080174718
0,80,1.12012093533,11.3984245359,-6.81750367226
0,81,1.90147970476,12.0596620066,-6.7767807481
0,82,3.38570410298,13.9300383049,-0.17736304463
0,83,4.60665747466,15.5803314491,4.97276737266
0,84,4.78699450825,15.647853099,3.68265510329
0,85,2.6944606639,15.293867088,2.70352233363
0,86,0.564362577465,15.3878206814,3.36954496236
0,87,-0.740570551733,15.138135943,2.07353677235
0,88,-1.36601311353,14.3213244823,2.04304426509
0,89,-0.985204762583,13.6596935179,0.281507431193
0,90,0.40682500369,13.1568039459,-3.49487249908
0,91,-0.216209668119,12.9375417988,-4.29121262651
0,92,-0.755097457695,13.012121752,-4.53240407316
0,93,-0.19266274966,12.5138467569,-7.01759340148
0,94,-0.0393858148996,10.7889016228,-9.01285677009
0,95,-0.72861581899,9.41122589577,-8.09617706134
0,96,-2.05282520396,9.10247599788,-5.75057087163
0,97,-3.08927413689,10.1419652536,-3.98295694202
0,98,-4.89288442854,14.2036760148,-3.86890451217
0,99,-5.3989735247,19.1695228328,1.28682443356
1,0,-5.3989735247,19.1695228328,1.28682443356
1,1,-3.69848583788,16.587923225,11.8882789408
1,2,-6.35548026344,17.5681096819,7.37296480567
1,3,-8.40857211633,15.6339508841,3.28280491156
1,4,-9.37434859635,12.5698527195,-0.850850646382
1,5,-7.84212026035,11.921902418,-2.7455185214
1,6,-4.40082180903,11.0614710761,-2.81079863666
1,7,-1.82309503877,9.35509902592,-1.4830078368
1,8,-1.5079744179,7.79572017302,-0.599095855551
1,9,-1.22428498578,6.91624141893,-1.84379262665
1,10,-0.630025780596,6.19572449097,-4.04535377944
1,11,-0.054566559504,5.21841127642,-4.75806101853
1,12,0.538159872735,4.40194785692,-1.78838179257
1,13,1.6084671721,4.29970474741,-0.0862789320467
1,14,2.09428817307,4.17247198676,0.501607032837
1,15,1.34482452852,3.67144277321,0.360204033166
1,16,-0.0422377223977,3.29272476618,-0.461211642344
1,17,-1.35627873355,2.82142627292,-0.822881333899
1,18,-2.01034183986,2.73577888398,-1.73041283206
1,19,-2.43469456805,2.6220805891,-2.1978897549
1,20,-3.00658015302,2.08040443253,-1.5128820939
1,21,-3.68765193203,1.51729799868,-0.424552293491
1,22,-3.33231528489,1.60013038672,-0.790284908473
1,23,-2.57621162206,2.51787881722,-1.4941735628
1,24,-1.5278511809,3.56015841836,-1.62644530672
1,25,-0.388721557549,4.23984053997,-0.268075766056
1,26,0.979145261168,5.47176998204,3.29753220001
1,27,5.23435218802,10.3962758178,8.31273453811
1,28,20.1782937946,6.44988726803,21.51467705
1,29,19.3497005058,6.45739859766,23.0731024835
1,30,10.3401375746,4.26241153806,14.5188316089
1,31,2.42075207468,6.64907484027,0.34091184565
1,32,-0.223829989222,4.90310200815,-4.91467546253
1,33,-1.93644977675,5.61690904625,-2.16964819925
1,34,-4.72477657172,8.63963713363,-2.57810685183
1,35,-6.78250746871,13.8913271736,-3.85649846808
1,36,-6.93611096693,18.0630680838,-4.17903036266
1,37,-2.76924061464,18.4625793256,0.142329429008
1,38,2.60933946582,16.667335926,3.27743004356
1,39,1.61165602126,9.7719653681,-8.18287585507
1,40,-1.01551845819,6.70908860989,-11.639591764
1,41,-1.23748044817,5.61102818765,-7.44491441815
1,42,-2.60648227393,5.12338329546,-1.93565761444
1,43,-2.94771313112,5.23852594546,0.558887859992
1,44,-2.10563644545,5.57650655934,0.33964924589
1,45,-1.88511731866,6.79262187631,-0.202178743448
1,46,-2.31890255419,8.61404414999,-1.17936031624
1,47,-2.67593361232,10.2869213274,-2.24266116242
1,48,-2.12145343338,10.6114528875,-2.30045551443
1,49,-0.766715015169,9.34417409549,-1.59712619757
1,50,0.219893811737,8.24484315002,-1.32064691762
1,51,0.630528595373,8.08689154096,-1.3257817534
1,52,0.670072864981,8.63072936141,-1.06200974718
1,53,0.373841573313,9.69288264235,-0.515494805367
1,54,-0.104975599407,11.8987929446,-0.136642596495
1,55,-0.56071467892,14.776124796,0.161137047796
1,56,-0.178694348456,15.7036734075,-0.140528154484
1,57,1.06915553598,13.4758009752,-0.646962677064
1,58,2.02673446981,10.5588910156,-0.469831238492
1,59,2.38521152985,9.149026406,0.323988714592
1,60,2.56546736975,9.44628753222,0.421348638281
1,61,3.02251850788,9.43091151652,0.698300861745
1,62,3.61082965715,8.1354646497,3.03130281132
1,63,3.93085088785,6.78118023875,5.51953005634
1,64,3.76849387873,7.45075010609,1.97018351154
1,65,3.2719890023,8.73166017875,-0.487466124749
1,66,2.30618624413,9.30323392987,-0.0405127468562
1,67,1.66359732903,9.01682005225,0.339554367707
1,68,1.67463246778,9.16437155179,0.621463715202
1,69,1.84695669894,9.80383603464,0.735058320797
1,70,1.792212759,10.4665668743,0.410225785996
1,71,1.25910118017,11.1094331031,-0.0336842997374
1,72,0.675656398472,11.6861719472,0.0388824363099
1,73,0.278218091713,12.0062538941,0.794014184264
1,74,0.263032941909,11.8756130802,2.2215425747
1,75,-0.194628602165,11.1052661197,8.91655680423
1,76,-2.39919415949,10.8052359082,16.5383654076
1,77,-2.30953025117,10.6071121498,8.43771138252
1,78,0.232443253217,9.10913027542,-2.77603513042
1,79,1.47720627868,9.26221792107,-7.12809420661
1,80,0.568142173616,10.7414197449,-2.63564409966
1,81,0.0724684264555,11.8425656712,-4.8421699525
1,82,0.27492289128,13.8720858917,-2.28520001967
1,83,1.92882902774,15.3514635921,1.19740769352
1,84,3.54439209103,14.4946727681,0.214822138248
1,85,1.90045135258,13.5074331833,-2.70771886328
1,86,0.145017661134,13.6521377188,-2.10883995098
1,87,-0.550516894759,15.2373389342,2.18955837276
1,88,-1.0184457928,16.5224325508,2.46721558307
1,89,-0.387319768231,15.8257132452,-0.782663879534
1,90,-0.706388478628,14.8334742268,-0.205564149124
1,91,-0.991230839828,13.5497945633,0.876226443072
1,92,-0.554889596346,11.6766834753,0.186173058717
1,93,-0.355056468571,9.85339540642,-2.92306698556
1,94,-0.897358029216,9.03889760153,-7.00040527082
1,95,-1.33822109774,8.83892170796,-8.40131325493
1,96,-2.1434055236,9.56210317996,-7.07952727164
1,97,-2.8108740852,10.2658130418,-5.29052948034
1,98,-3.43240898513,14.2555280728,-4.39286017303
1,99,-2.70588536946,18.8034770002,4.43069943567
2,0,-2.70588536946,18.8034770002,4.43069943567
2,1,-1.08725812857,18.0531020118,11.2084685774
2,2,-4.69582562212,18.3638680721,6.13998350367
2,3,-7.33585694755,15.2793920056,0.692733515922
2,4,-7.05309374218,11.5484195751,-3.81244880698
2,5,-4.43277742205,10.3842704748,-6.38229184597
2,6,-2.36997195766,10.101613177,-5.98365334261
2,7,-1.37360854114,8.61430736211,-4.20072891422
2,8,-1.45724577405,7.05124493545,-2.33869775233
2,9,-1.3826331754,5.52139548498,-3.10847484473
2,10,-1.14609140823,4.94942388153,-4.24745846411
2,11,-0.9096662958,4.9399339472,-2.94279656541
2,12,-0.524945699595,4.29019239968,-0.0759694893273
2,13,0.0421199985275,3.65900902976,0.593154007341
2,14,-0.119668927033,3.04088797135,0.224502354849
2,15,-0.462718424019,2.73916265839,-0.288504017854
2,16,-0.633635969763,2.86318752131,-1.17282803689
2,17,-0.903515078968,2.88148439327,-1.55443954227
2,18,-1.31263571234,2.81055196655,-1.17809334058
2,19,-2.51527942948,2.95435514678,0.270296326748
2,20,-3.91747355258,3.4600733338,1.23461513836
2,21,-3.79957770792,3.76738347748,0.553657399503
2,22,-3.07366453675,3.71176606936,-0.565542432289
2,23,-2.60650954825,4.16231782489,-1.68153835911
2,24,-1.8744147938,4.73334497153,-1.65534796796
2,25,-0.771358155641,4.98210715638,-0.0354692941042
2,26,3.07572860205,8.02770232259,1.98529170819
2,27,9.99672447916,10.8357966156,10.1528431502
2,28,17.1860511144,3.77905076221,23.1212154902
2,29,22.0834876716,0.27145413235,24.248925605
2,30,16.8005624715,1.31265335303,16.6256647441
2,31,4.17835708381,3.28553329861,-0.506004159466
2,32,0.931509084498,3.77917100654,-1.41172335115
2,33,-2.03071665334,4.74895636865,-1.8484870377
2,34,-5.01307595895,7.68615132788,-4.57825835752
2,35,-9.0497335978,13.7177159084,-7.78713418817
2,36,-9.58499098676,16.8951561938,-6.82948271676
2,37,-4.92648930169,15.7715511551,-0.39911463604
2,38,-0.233429364593,13.0613744851,3.0788708687
2,39,-0.915079124326,11.3525739325,-0.990445310945
2,40,-2.84900062879,8.99458207977,-4.75173437488
2,41,-2.31519793624,7.22774726293,-2.92517667535
2,42,-1.73799758574,6.37588680911,-2.24245118358
2,43,-1.40532392792,6.31396201579,-1.53907672325
2,44,-1.21438669314,6.96288702583,-0.939059180688
2,45,-1.66770314754,8.53456370412,-1.39628981212
2,46,-2.37999053907,10.2982759777,-2.35321486826
2,47,-2.66090108473,10.8182865001,-2.51305320378
2,48,-1.74018070619,9.69985272853,-1.70246712218
2,49,-0.170756939876,8.19429647226,-0.954967128302
2,50,0.722969869848,7.62004339372,-0.624275251549
2,51,1.06704920007,7.66476825728,-0.496356667002
2,52,1.13249069858,8.67513154056,-0.515392731652
2,53,0.959333233471,11.5871539485,-0.852501896111
2,54,0.599584977904,16.0442607294,-1.47183361345
2,55,0.787707217276,17.768530056,-1.95090571287
2,56,1.43559795152,14.4009038909,-1.70335186308
2,57,2.04986496572,10.5362000668,-0.540560122884
2,58,2.40190296106,8.80232438698,0.539827314604
2,59,2.62082482734,8.6159803015,0.880527980465
2,60,2.76534079512,8.17914151065,2.67109976874
2,61,2.76405578826,7.5622178354,5.43115258331
2,62,2.53066464679,8.02764800183,3.60524993204
2,63,3.14711025498,8.63852990407,0.0381840682357
2,64,4.13282008914,8.36996050828,-1.86958916965
2,65,3.49820099419,8.02079236326,-2.55733712382
2,66,2.02321593435,8.62187697943,-0.69762818932
2,67,0.239850589515,9.28902800466,0.658828117438
2,68,-0.381453264345,9.53355906373,1.31633052346
2,69,-0.150552452264,9.85379847686,2.00173513069
2,70,-0.216380194922,9.9573487686,2.03869098063
2,71,-0.812847189649,9.9136916827,1.7209828115
2,72,-1.25346645662,9.96231771816,1.38080201881
2,73,-1.14003527085,10.245603628,1.35961280066
2,74,-0.620259586103,10.6073643066,1.72600465136
2,75,-0.00583685240297,10.6932292534,2.08043407489
2,76,0.10559578226,10.7690050886,2.75648928576
2,77,-0.990697311425,11.3703548426,7.5579738574
2,78,-2.18225331333,11.9038976983,11.3940469464
2,79,-0.821919745755,11.7097533558,5.55398691407
2,80,1.09181165435,11.328200543,0.289612654782
2,81,2.20465446735,10.3330757583,-9.86819798404
2,82,3.28990040508,11.4518761418,-10.4700492126
2,83,4.92794468029,15.969132202,1.83172301651
2,84,5.10199921433,17.4526723524,3.63401736825
2,85,3.5354330826,16.7354978124,-1.43139604085
2,86,2.73278803699,15.1980819791,-1.93885673288
2,87,1.64556772568,15.0769172084,0.628256240855
2,88,-0.180876672991,15.3285973015,0.0355259192719
2,89,-0.635785048557,14.4823078194,1.18095017809
2,90,-0.897790035868,13.5132319731,0.628156212115
2,91,-1.74715311548,13.1503566485,-0.413678603216
2,92,-3.10405533084,13.7206439974,0.38793529367
2,93,-3.52935595689,13.2275190891,-1.95898088168
2,94,-2.12307734746,10.246500218,-7.77738833224
2,95,-1.84689563811,8.25158575815,-10.1081022575
2,96,-2.69098311216,8.95830065759,-8.51140263978
2,97,-3.76078261294,12.097589318,-6.57080128352
2,98,-3.67380958691,18.0911069282,-3.36005076969
2,99,-0.952839792509,19.5554284949,2.33172201987
3,0,-0.952839792509,19.5554284949,2.33172201987
3,1,-4.74366889692,17.4870660035,11.4092402122
3,2,-8.91570716869,16.8111610753,8.65443364634
3,3,-9.33182062932,14.1589673774,-0.789024636126
3,4,-6.01632955122,12.1415189801,-5.51876474847
3,5,-1.88106278007,9.62806469255,-6.84230110383
3,6,-0.770799711574,8.69375375124,-6.29890443174
3,7,-1.04843587886,8.00974762444,-4.97945690963
3,8,-0.775546848044,6.88857985159,-4.84504149471
3,9,0.0464952242151,5.7580029717,-5.55455060066
3,10,0.642996803564,4.14219604681,-3.70282366521
3,11,-0.165971781972,3.61098165305,-1.41061214159
3,12,-0.89434053882,3.82072262756,0.818712677025
3,13,-0.385182828899,3.84016095773,0.684646196285
3,14,0.015147250865,4.06891750771,-0.796370336507
3,15,-0.0546752510531,4.45660756048,-1.62438252208
3,16,-0.0583448930299,3.90399067434,-1.66009655285
3,17,-0.791538427337,2.73519294526,-1.19936743971
3,18,-2.38939562988,2.03857202444,-0.432706873729
3,19,-3.62937024274,1.89677210826,-0.0157083812226
3,20,-4.07790135235,2.17811218015,-0.166879347333
3,21,-4.04474405301,2.91073283719,-1.06053799504
3,22,-3.50024485741,3.83545403607,-2.31883838119
3,23,-3.07097157715,4.52658651326,-1.61877198799
3,24,-2.28233229041,5.46814607341,0.740234852674
3,25,0.24824214877,7.21579408865,3.85744829302
3,26,5.82802761256,10.0306230275,8.90296110243
3,27,14.5228188286,10.3016152123,17.4457069946
3,28,22.0510130622,7.25184462515,22.6065906337
3,29,21.1290577016,8.3837432179,16.9346790277
3,30,13.3684374022,5.43968223506,7.2861787312
3,31,4.95965436139,4.95140109117,3.16626518856
3,32,-0.0943349421426,6.51848271232,-4.12473739088
3,33,-0.389090494514,6.16072984006,-2.64529948712
3,34,-2.65310497869,9.13546878504,-1.81698650922
3,35,-5.92266210673,14.7968292044,-4.59764038185
3,36,-5.32998761483,17.3253617224,-7.42684951058
3,37,-1.56274836624,17.0734525212,-2.44071583112
3,38,0.586978631535,13.4131915607,-2.5803788955
3,39,-1.56790595719,9.65417307781,-8.34974653012
3,40,-3.94862783183,8.30373148756,-6.34206664281
3,41,-5.09319900195,8.19039800033,0.0602272373388
3,42,-5.56213629479,8.51159575069,2.6454492954
3,43,-3.94228484835,7.06480783649,-0.419468697504
3,44,-3.09876932899,6.10177503772,-0.709617082176
3,45,-3.17757250958,6.65654524757,-0.206266768438
3,46,-2.80141742094,7.1319796407,-0.908484856797
3,47,-1.60796419301,6.58856211575,-2.54374315024
3,48,-0.840118039432,6.06548393083,-3.02912140455
3,49,-0.591574588195,6.10558163876,-2.36093505731
3,50,-0.204162438896,6.58451285718,-1.87038403737
3,51,0.178929472007,7.52493034244,-1.39764086622
3,52,0.609750471188,8.76077796272,-0.921804314728
3,53,0.639700872521,11.7956951183,-1.2844924864
3,54,0.102662254464,17.5918478023,-2.16950316628
3,55,0.468294160338,20.4250466418,-2.24378181822
3,56,1.60256440054,16.5768037346,-1.32848742379
3,57,2.06640207275,12.1598185706,0.0908651217896
3,58,2.21571991805,9.82765398972,1.58415957464
3,59,2.59728554505,8.98915963539,2.42389015455
3,60,3.00501743285,8.53481087117,2.64196903389
3,61,3.3239419095,8.49232136522,3.14453023664
3,62,3.80514851915,8.401667147,7.31690595825
3,63,3.56650105268,9.29570594324,9.46247378202
3,64,3.39409867888,9.11522604526,4.2617565166
3,65,3.61430100584,7.84301896207,0.625380232564
3,66,4.28426913991,6.64395607416,-1.00536272487
3,67,4.50484150734,6.54185552508,-1.74738724413
3,68,2.83237722525,7.51280039918,-1.42957779746
3,69,0.758637166424,8.51037444352,-0.904241410972
3,70,-0.208945474488,9.41449352661,-0.396593549974
3,71,-0.686592568197,10.1344811884,-0.198509601704
3,72,-1.39813621106,10.5533047934,-0.0682878813092
3,73,-2.06582182519,10.8049061096,0.304441038337
3,74,-2.2250753151,11.0773766179,1.11729316754
3,75,-2.13824725071,11.2077981437,3.79684482242
3,76,-2.89258125745,11.1591466317,10.6988109487
3,77,-2.25195460872,11.4452882125,9.40142750386
3,78,-0.424861929886,10.2582878417,0.819386480363
3,79,0.504491514154,9.64608750082,-4.03690678867
3,80,1.13456018106,10.5343309339,-2.84160668221
3,81,1.53619234415,11.5352649109,-1.12629618476
3,82,1.78349077283,11.9528020211,-7.79149391682
3,83,1.36959562255,13.3017107561,-7.28209636425
3,84,2.54348510886,14.8096046831,0.270428041698
3,85,4.31792820966,14.5470883982,3.53809250405
3,86,1.4755382587,15.351233671,-0.141855193212
3,87,0.019948007988,17.1345788996,2.75933621818
3,88,-0.599846255232,17.6397373941,0.870320475958
3,89,-0.0946228259925,15.6420316436,-2.24833889377
3,90,-0.568535011045,13.1983741864,1.2883140925
3,91,-1.88967354641,12.8380699095,3.13147714795
3,92,-1.59730537686,12.4699902796,-0.0172897713528
3,93,-0.663619807665,10.6764609139,-4.94225558358
3,94,-0.591925260903,8.53339242487,-8.32844061451
3,95,-1.4196918528,8.38629636103,-8.7004659016
3,96,-2.02576385766,10.2148045577,-6.50942914324
3,97,-2.69636654876,12.9988917108,-4.04438235984
3,98,-3.21990753821,17.0641173224,-1.79174377196
3,99,-2.52011037989,18.6333612218,6.01388904536
4,0,-2.52011037989,18.6333612218,6.01388904536
4,1,-4.59598256433,18.0142867093,9.663018393
4,2,-7.93347641153,18.0867027844,4.80304296596
4,3,-7.46667911039,14.9549352095,0.132196925828
4,4,-5.59388386308,12.367963423,-3.33107833386
4,5,-3.26207557339,10.3861722607,-4.47641033676
4,6,-1.49322082329,8.61968598832,-4.78023845731
4,7,-0.234929161134,7.61281420674,-4.5602991764
4,8,0.906594609981,6.79756765577,-5.21449636433
4,9,0.880824689355,5.98807402629,-5.90732949965
4,10,0.0342449714601,5.36536547723,-4.72154944976
4,11,-0.800688763854,4.82387153133,-2.09495504641
4,12,-0.0869928401674,4.12834046519,-0.578818034621
4,13,0.630822235944,3.45963949823,0.062730830793
4,14,0.297358594907,3.27564947246,-0.0984248066779
4,15,-0.533828455584,2.96409054835,-0.58393424447
4,16,-1.06188758786,2.76677254168,-1.18072361659
4,17,-1.25023286659,2.61297908849,-1.57435051842
4,18,-1.87684951996,2.37355738948,-1.19167600579
4,19,-2.70918298561,2.1885836748,-0.542924004325
4,20,-3.41507941358,2.17043253715,0.209265880893
4,21,-3.30684587694,2.43607111407,-0.247318506949
4,22,-2.49389387129,2.53760714386,-1.63875182697
4,23,-1.77369694454,2.94175940087,-2.46065123325
4,24,-1.26234483318,3.28082052055,-2.074322583
4,25,-0.972146543045,4.10232627395,0.644044624988
4,26,1.19601131418,6.54707608952,5.37273043363
4,27,10.1315791561,12.9329141872,11.0233656195
4,28,18.3864357415,4.85366131815,25.1705733996
4,29,21.3715511759,4.32608862078,21.8283998439
4,30,15.5195679065,3.22858173136,13.4939868071
4,31,6.62858476825,0.98302331334,4.18290102533
4,32,1.2378531063,3.99935606366,-3.95626834304
4,33,-0.859211770283,4.3263630277,-2.95395516945
4,34,-2.20026094463,5.64378389376,-0.87426841719
4,35,-2.5284448189,5.60089927955,-0.757378217553
4,36,-1.4035715827,4.13030930962,-3.76867289082
4,37,-4.31475208984,5.67158903716,-9.14943172243
4,38,-6.60205803054,10.9016136756,-6.67437819024
4,39,-6.53372939739,12.8913734244,-1.33128135453
4,40,-5.76114716669,14.1700359938,1.90756080838
4,41,-4.80550915303,15.5157966838,1.85224972396
4,42,-3.1725265924,14.0039783398,-2.54267883486
4,43,-1.14488247003,11.4990188382,-2.82049590757
4,44,-0.247463960703,9.74683077078,-1.53196672991
4,45,-0.634052478116,9.18343902653,-0.411252205309
4,46,-1.24447615845,9.35845538447,-0.0661350874237
4,47,-1.03546106673,8.96601342132,-0.486063723629
4,48,-0.637057899203,7.93319197064,-1.09784656361
4,49,-0.33361930809,7.2443439486,-1.46373875197
4,50,0.306507151198,7.32918968977,-1.88637078853
4,51,0.941186070149,8.04205213845,-2.62331907192
4,52,0.98520232143,9.77698722392,-2.95396370726
4,53,0.559984659502,11.9919532446,-2.68068580469
4,54,0.367134861815,13.5020686788,-1.88899298656
4,55,0.505702566955,13.3521172238,-0.605347959572
4,56,0.698163413624,12.1508364951,0.961699531414
4,57,0.948295327559,11.2739253718,2.14311179662
4,58,1.28563534974,10.5311366877,3.07401893463
4,59,1.94245805873,8.91738414589,5.19807759646
4,60,2.16994979359,8.14551271797,4.75748513206
4,61,1.54081097389,8.68019767637,2.01171825074
4,62,1.29318447771,9.34872495774,-1.13220921318
4,63,1.83251803856,8.50713671702,-2.98463375744
4,64,1.57358016197,7.6521206722,-3.33606722325
4,65,0.486993169386,7.11177469611,-2.81947951339
4,66,0.156568517867,7.29298100214,-1.3400600609
4,67,0.43850401673,7.85798349619,0.404521461975
4,68,0.938897410076,8.3437030592,1.40695431287
4,69,0.961700847909,8.69370884042,1.93245342554
4,70,0.325185558155,8.85678684331,2.27000480847
4,71,-0.432443388602,8.90778626557,2.62683852088
4,72,-0.565850808302,9.1749677319,2.6485810824
4,73,-0.0181202197169,9.8023564653,1.79076796633
4,74,0.670760859737,10.8192300224,0.623804711478
4,75,1.16811987155,11.5192006174,0.0324512386162
4,76,1.3745561328,11.5651001383,0.115261834431
4,77,1.35080031551,11.3865387555,0.349271693786
4,78,1.14863218042,11.3673727668,0.493329586171
4,79,0.69919080076,11.7318555014,0.829113922581
4,80,0.520275583006,11.9947564325,3.02275558356
4,81,1.09633534234,11.6634049009,9.78884605437
4,82,1.48310861247,12.1359929543,10.0037400534
4,83,1.50679726635,13.2625110391,2.12041782843
4,84,1.93534005836,14.8839149508,-1.1783748357
4,85,2.26696645992,15.8082304539,-7.40502133978
4,86,2.76912259814,14.2569732906,-6.41254723526
4,87,0.992682512824,14.7070645176,4.16134525036
4,88,0.913549458938,16.3453115867,2.52958689655
4,89,2.03748527076,16.0840859545,-1.4077378331
4,90,1.88599537865,16.1241642303,-0.963720174163
4,91,1.23867637594,14.6705921643,-2.93424610305
4,92,0.313201371454,12.0106293066,-3.18510289928
4,93,-1.04411916593,11.7157907385,-2.73427417171
4,94,-1.1341900534,11.936622673,-4.59599748446
4,95,-0.3732328086,10.4642028531,-6.88163419169
4,96,-1.46374176813,9.66261428199,-6.83534633548
4,97,-3.28844176058,11.0272758658,-5.67766943378
4,98,-4.74576695105,14.3832037108,-4.85990323144
4,99,-4.9742198405,19.2012458958,-1.1331042478
5,0,-4.9742198405,19.2012458958,-1.1331042478
5,1,-3.12137240662,18.2933202838,7.58708109071
5,2,-6.42440495274,17.4378135906,8.13557368917
5,3,-8.80259970834,14.9655821023,1.83110311502
5,4,-8.50504351579,12.3785755809,-4.70566914055
5,5,-4.91023716945,10.8305590957,-6.25117601095
5,6,-1.29922454186,9.24889857313,-4.65141016362
5,7,-0.610154617708,8.54603792371,-3.27978400651
5,8,-1.35862346008,7.54277995112,-2.34146990808
5,9,-2.45654634126,6.82663869527,-2.06150320329
5,10,-1.09878940458,5.51967770337,-4.463818906
5,11,-0.0075354691446,4.06882369032,-4.00385531586
5,12,-0.602221648685,4.00661069865,-1.90680865396
5,13,-0.623208940057,4.51186232724,-1.06937452299
5,14,-0.329323880538,4.37972944649,-0.610245579934
5,15,-0.375268603498,4.18456203023,-0.37673416662
5,16,-0.636083268014,3.90892853165,-0.380472975158
5,17,-1.06996674342,3.75985976902,-0.87182560821
5,18,-1.51652350316,3.53123211365,-0.916434164107
5,19,-2.71647137268,3.37246370721,0.175555766817
5,20,-3.50975072,3.56704015208,0.152035641685
5,21,-4.06031493117,3.51046186971,0.211977634394
5,22,-3.77006901466,3.31045884308,-0.182966703477
5,23,-3.05832437088,3.65306930251,-1.29090532325
5,24,-2.08634598063,4.09695343229,-1.7249886139
5,25,-0.708346150902,4.16404065531,-0.386326374598
5,26,1.34785986589,4.14440413832,3.49335794149
5,27,7.00911928711,7.90879440263,10.5686462006
5,28,15.8121118034,9.60239857526,20.5117082216
5,29,23.0292607768,4.6317107682,23.175851879
5,30,18.8609176332,4.72246110446,16.8861204449
5,31,8.82917558027,5.1396031849,4.82370529087
5,32,2.17174588737,6.20993607867,-2.16566620564
5,33,0.366424330441,5.42203210238,-0.747140187704
5,34,-1.4490724538,6.35464558856,-0.50753656034
5,35,-3.78292753732,8.28503509306,-5.99052783723
5,36,-7.45602581044,13.007065716,-13.6638330467
5,37,-6.94588232936,15.8021203908,-9.44107178053
5,38,-4.79662598456,13.6344368777,-0.967028236917
5,39,-4.00862779299,12.0629144631,1.32665526443
5,40,-5.36704196721,12.1379937496,-0.103942748466
5,41,-5.25110401497,11.2916619327,-1.76317501991
5,42,-2.97228959044,9.39116157348,-3.45583223685
5,43,-1.74144504,7.20576086142,-3.04047656519
5,44,-1.681316587,8.33799739988,-2.5336691125
5,45,-1.57127207381,9.96379515839,-2.60804960443
5,46,-1.68628865338,10.4761511167,-2.86006039021
5,47,-1.10870016212,9.12468910989,-2.41115531239
5,48,-0.475585798608,7.53594051048,-1.23010270038
5,49,-0.0160111152686,7.17819619068,-0.74617551132
5,50,0.144069199065,7.836324,-0.769360737903
5,51,0.26245769923,8.70156008732,-0.549855964611
5,52,0.690981948196,9.80956253731,-0.559024902211
5,53,0.4781131497,12.4717804406,-0.857488896977
5,54,0.228453170534,15.8262912264,-0.61812843676
5,55,1.17073205992,14.9607134429,-0.121807913366
5,56,1.97316687922,11.387848425,0.741175930954
5,57,2.27089824651,9.66955730857,1.80531641659
5,58,2.5880010813,9.62166018639,1.13214147537
5,59,3.03793880106,9.29648201598,0.166357700579
5,60,3.24467034844,8.63064431519,-0.48043526512
5,61,2.50167195356,8.65483149545,-1.00795346341
5,62,1.76120845322,8.46424595338,-0.675148841003
5,63,1.46631177475,7.79468201948,0.377274457447
5,64,1.150198515,7.75332118724,1.23433123509
5,65,0.962143993308,8.37863209308,0.95161839629
5,66,1.07003529036,9.04735445089,0.719003139322
5,67,1.17916288941,9.41813816311,1.13773576352
5,68,1.08742338511,9.39595584494,1.85863626594
5,69,0.919964134647,9.35214127051,2.24308929214
5,70,0.796263739526,9.37799429915,2.19619129517
5,71,0.61733592618,9.60706505023,1.95538056667
5,72,0.474322257466,10.0646409818,1.59123693891
5,73,0.520489747212,10.4149026078,1.2496132934
5,74,0.619214387498,10.6170920665,1.22041435383
5,75,0.50801026641,10.6240229318,1.61651536919
5,76,-0.145816057663,10.7738721469,3.13052148954
5,77,-1.41647398727,11.2126443082,7.88585435486
5,78,-1.66181300829,11.5485050497,8.50783868594
5,79,-0.166632868754,11.0063034862,1.81215089216
5,80,1.43012676869,11.0110754257,-2.96558865561
5,81,2.07810725331,12.7204028772,-2.68488254362
5,82,2.05960598296,14.9888168875,-5.22778527673
5,83,3.0101396959,15.7753053289,-7.92967715932
5,84,4.79819762019,15.0565905095,-1.2290679283
5,85,4.24223700111,15.2898768144,2.17312852937
5,86,2.56275976213,16.5693477535,2.83027325131
5,87,1.37561449189,18.1766969804,0.989437179058
5,88,-0.366056941723,18.0981196356,-2.19337956246
5,89,-1.48581686441,15.1637692489,-2.40681779675
5,90,-3.09924047376,13.456344028,-0.523354630565
5,91,-4.23448688268,12.4764083543,-0.93108955109
5,92,-2.77371088718,11.0538902729,-4.26839768171
5,93,-1.37703301241,9.16740782366,-7.6011069284
5,94,-2.68704735502,7.83469594009,-6.07530433618
5,95,-3.76385221338,9.97420219908,-4.75841626092
5,96,-4.63323616958,14.9194478529,-3.32873515229
5,97,-4.45721636579,18.1888162098,3.33359400875
5,98,-6.24612416532,18.167048442,7.43493308977
5,99,-9.42773149159,18.637273217,5.61504211422
6,0,-9.42773149159,18.637273217,5.61504211422
6,1,-9.04354236885,15.5300849679,1.2324207388
6,2,-7.7627249813,12.6029174267,-2.54318669194
6,3,-5.0953794793,11.2484823815,-4.53649123208
6,4,-1.97363492244,9.85807684495,-4.45507642705
6,5,0.446195636051,8.22392054165,-3.90160985709
6,6,1.34610904193,7.30909324167,-2.87527735503
6,7,0.945426906507,6.89638273369,-1.96095158244
6,8,0.591977622679,6.40074169963,-2.65489683513
6,9,1.11162408097,5.6935875851,-4.62578907159
6,10,1.55459466645,5.8145024707,-6.26824466509
6,11,0.882512098969,5.53155188812,-3.57066439811
6,12,0.272911204804,4.73246367179,-0.893977297922
6,13,-0.159064993626,4.19722171838,-0.19168157373
6,14,-0.473199642345,3.66861189399,-0.45698455099
6,15,-1.29374265656,2.75601063212,0.07076225896
6,16,-1.99786352124,2.45222802884,-0.184966138636
6,17,-2.27541294648,2.60178030878,-1.33086080222
6,18,-2.70013910902,2.79645793577,-1.38909178811
6,19,-3.27598988721,2.82939810492,-0.849642399653
6,20,-3.3699785255,2.74832824609,-0.699713063201
6,21,-2.84633348023,2.67056006791,-0.81159785119
6,22,-1.97760750786,2.72371908726,-1.10196795957
6,23,-1.14846383954,2.85092727021,-0.814723951429
6,24,-0.0775634924498,3.72585918019,0.809082554464
6,25,2.31830254339,6.74308736238,4.06866628193
6,26,9.10723069924,13.0495444273,8.4197432594
6,27,19.9165828236,7.99782064999,23.0866694887
6,28,21.8757288639,6.32671931569,24.6124788604
6,29,13.3792751743,7.88152262597,15.5916916032
6,30,5.93704051446,-0.134241956809,3.69595344988
6,31,-0.104906872505,2.56808427576,-4.86192842867
6,32,-0.471324500121,2.60856653237,-1.4156825502
6,33,-1.7460749197,3.15181479456,-0.18708455913
6,34,-3.89182860631,5.15556904394,-2.51303122727
6,35,-6.88950786001,10.1484844168,-7.83267067536
6,36,-8.44460221895,16.0723674193,-8.95270839222
6,37,-6.32271299604,17.0009891027,-3.84458469494
6,38,-3.33838300823,14.4280010475,2.19001132476
6,39,-2.87163066453,13.4875826672,1.26731526085
6,40,-2.80991578371,11.5304607237,-2.39214050831
6,41,-1.46986187649,10.1072674903,-1.0446252384
6,42,-0.778862488404,8.50712399102,-1.9936749509
6,43,-1.13125063323,6.73818149725,-1.67283922123
6,44,-1.47801567715,7.25488986099,-1.04604424412
6,45,-1.59173122088,8.8846717417,-2.75091931423
6,46,-1.14623503215,9.41114099696,-3.78613236578
6,47,-0.435933877441,8.06776189959,-2.55731987752
6,48,0.0620795913892,7.87275670967,-1.80774872088
6,49,0.55713384361,8.54434530582,-1.15634461537
6,50,0.865388354476,9.48046463683,-0.673640138762
6,51,1.2110329545,10.3272082793,-0.651002080596
6,52,1.20987533945,12.3543529503,-0.380470127807
6,53,0.840387292278,15.0966967218,0.382144161464
6,54,0.832243127576,15.3259501306,0.478391920794
6,55,1.40591811274,13.0088734695,0.630303919523
6,56,1.9489108721,11.1614037537,1.30876382845
6,57,2.31465532578,10.5961848525,0.509690001266
6,58,2.87320537047,10.1238540854,-0.500769924025
6,59,3.28203603639,9.659836061,-0.570081567343
6,60,3.14911705891,9.67501574672,-0.434431473429
6,61,2.58391876919,9.33336980715,-0.264904414015
6,62,2.34021515711,7.8160983026,0.150343228751
6,63,2.1956142658,6.5652295352,0.678376653614
6,64,1.27657367529,6.36380129931,1.20286345926
6,65,0.126647857931,6.95220195249,1.43131983509
6,66,-0.121207175967,7.79664408722,1.7958925855
6,67,0.322059749866,8.60716966366,2.10307331323
6,68,0.8037136396,9.53208770026,2.33039035613
6,69,1.08954975948,10.2899155396,2.62411162955
6,70,1.05254312919,10.3616854677,2.85625293124
6,71,0.682988914096,10.0625432606,2.8095576736
6,72,0.224924681869,9.94916166102,2.48209267736
6,73,-0.0563404420542,10.3774411348,2.28124764317
6,74,-0.370707386731,11.0307287213,3.02748524841
6,75,-0.91814877356,11.3111627861,5.23824534279
6,76,-1.12842159295,11.1413212425,5.99058072126
6,77,-0.732146728639,10.6815223396,3.14595899252
6,78,-0.289740335118,10.1987073031,-0.680145177764
6,79,-0.157322086934,10.1549312857,-2.26816612432
6,80,0.0379082035647,10.3222725592,-1.9069745289
6,81,0.581502546201,10.8616459294,-3.25660437128
6,82,1.41503964917,12.5823930951,-6.86746999058
6,83,2.64692230068,14.9359290497,-6.4465142475
6,84,4.56329559354,16.0573581375,-0.332441536221
6,85,5.15036318721,15.7785607782,2.37105247557
6,86,3.95013050196,15.1501182674,1.62445568807
6,87,2.19182375723,15.7040219141,1.6664276655
6,88,0.875637588416,17.4975790229,2.51250902013
6,89,0.0534775928259,16.9340081401,-0.821838031465
6,90,-0.41236016529,14.5571885117,-3.15752354779
6,91,-1.18096080851,12.8978534274,-0.0381476079408
6,92,-2.22524118476,12.4978324632,2.26595828029
6,93,-2.22521192223,12.0537985371,-1.07725828343
6,94,-1.06459780658,11.198012861,-7.13805908357
6,95,-0.998203011412,9.42286458133,-8.76236001323
6,96,-2.45138149464,8.83535756771,-7.15674161363
6,97,-3.80636030521,10.1886367495,-5.39904114573
6,98,-4.50501666573,12.9883613236,-4.27219031669
6,99,-3.05758763527,19.1306511418,3.1755183741
7,0,-3.05758763527,19.1306511418,3.1755183741
7,1,-5.5287660882,17.36643606,10.9441814297
7,2,-8.62572127141,17.1465743815,7.54518207855
7,3,-9.26168532852,13.997225544,0.0436099760667
7,4,-7.7987248933,11.7934141617,-4.08812685864
7,5,-3.8186719106,9.68270947931,-5.10879679212
7,6,-1.19931604788,8.28760307785,-5.16527579624
7,7,-0.590698529614,7.41114446403,-4.50472179014
7,8,-0.890280323348,6.65547611113,-3.24650190581
7,9,-0.333621045684,5.96092290386,-2.95457156788
7,10,0.0937457971601,4.79165341976,-3.30822986989
7,11,-0.00824139532978,4.82534503601,-2.70390847342
7,12,-0.10728196566,4.99463080181,-0.673123076365
7,13,0.722842547163,4.33160591525,0.753879977885
7,14,1.13378330089,4.34579402968,-0.677367391553
7,15,0.597830981366,4.56640170727,-1.5750854599
7,16,-0.000777763023668,4.10470162328,-1.29295215479
7,17,-1.18470260929,3.35547674921,-0.692605289144
7,18,-2.5686212008,2.78398231289,-0.217234702876
7,19,-3.41436832331,2.34464010859,-0.250757787599
7,20,-3.84130131715,2.27330828903,-0.342854382133
7,21,-3.74150163474,2.72542664145,-0.60600151092
7,22,-2.86221987291,3.17938694393,-1.3430589318
7,23,-1.97325702383,3.55622045434,-1.58327670851
7,24,-1.08098773539,4.2689213307,-0.478025726674
7,25,0.0205580709579,4.99407853265,2.44882092268
7,26,2.80159284336,7.51736171569,5.96111255228
7,27,10.5401589005,11.455717474,10.9364096196
7,28,20.9157185811,12.6177660666,19.7184113774
7,29,22.8528311001,12.0230080988,20.3028079721
7,30,14.9906452374,10.7424049313,11.6116654662
7,31,7.09476021003,-0.878949530911,5.45526154116
7,32,0.623522155567,5.65433775131,-4.27939723341
7,33,-0.248104795932,5.62034595978,-2.67055643725
7,34,-3.72682814207,7.75276244972,-4.48504867229
7,35,-6.70755808435,11.6431047976,-9.44141711415
7,36,-7.50158255841,14.6640163336,-10.6296500194
7,37,-4.78242987155,13.6624456954,-5.10448147982
7,38,-3.19772576358,11.3689609358,-1.13772738574
7,39,-3.65204736007,10.7225541232,1.01736958451
7,40,-4.23425572345,9.44389384753,-2.75744247433
7,41,-3.95574610406,8.27748199946,-1.11957035758
7,42,-2.97540980816,7.78403356657,-1.11498929248
7,43,-2.22572990183,7.40464999015,-1.30436812227
7,44,-2.34537521306,7.90397038362,0.315701473494
7,45,-2.4047102758,9.309442753,0.266089781623
7,46,-2.01022346799,10.3534035705,-1.7881185525
7,47,-1.39874375826,9.75905511828,-3.12443467848
7,48,-0.954957750225,8.32582885668,-3.18726659833
7,49,-0.394988306271,7.31804063243,-2.7178484392
7,50,0.0900130236413,7.52951532323,-1.84913157063
7,51,0.716553536622,9.42094029153,-2.2165757582
7,52,1.37528739384,10.1564659239,-2.15812744185
7,53,1.52137930085,12.0092883068,-2.20569129645
7,54,1.30641639589,14.4709013458,-2.19473560695
7,55,0.922510825651,14.5189855092,-1.10888038842
7,56,0.572865596982,12.1425726586,0.899445536763
7,57,0.716534961459,10.1772806821,2.05843450089
7,58,1.47603448274,8.49785768871,4.17862868831
7,59,2.43657393402,6.67646299861,10.067626988
7,60,1.70066036331,9.4626472335,6.07904924077
7,61,2.26350106671,10.826504788,0.797139876905
7,62,3.33000844256,9.8320263164,-1.80004957857
7,63,4.29028946496,8.77079272501,-3.29184981375
7,64,4.48916307719,8.74066182247,-3.34035849774
7,65,3.73871516877,9.41897065334,-1.87118758024
7,66,2.66042788162,10.06351358,0.280261233842
7,67,1.92014237514,9.86804985949,1.82780829435
7,68,1.34171072192,9.57511914139,2.26726300171
7,69,0.838721553458,9.58577522315,2.2638688204
7,70,0.4558696332,9.70257651422,2.54925648394
7,71,-0.176743784029,9.55543822821,3.39877714177
7,72,-1.60559055701,9.50795982249,6.08706850627
7,73,-2.90101026102,9.94162369568,8.8170468061
7,74,-2.02825241534,10.5031105819,6.84647705657
7,75,0.0673499708126,10.3472959696,1.77326364218
7,76,1.14143690037,10.1625670056,-2.07897577904
7,77,-0.0147997765787,10.4208788972,-2.2767007344
7,78,-2.11496925349,10.7853826338,-0.439634484914
7,79,-2.51232374193,10.8189169842,-0.194172828005
7,80,-0.891597702542,10.3951079902,-2.10623887472
7,81,1.23512194938,10.536145523,-5.51200448896
7,82,2.45098546337,12.423809494,-5.11437715055
7,83,3.05568835586,14.7241722475,0.353805204066
7,84,4.10428393738,15.7529446014,3.79876776841
7,85,4.52347057762,15.846402996,1.66418176086
7,86,3.24885032508,15.2759919904,-0.8020650885
7,87,1.23112146362,15.171972555,-0.497811627995
7,88,-0.0552339199552,15.9892494617,-0.141020212071
7,89,-0.2018144001,14.8544393957,-3.29871167714
7,90,-0.19806507215,12.9701975473,-3.4003635052
7,91,-0.475001787946,12.2094588535,-2.80877882485
7,92,0.339671302322,11.1523979185,-4.04052497124
7,93,0.940678998058,10.4895818437,-5.92492677715
7,94,-0.0749327475316,10.2118882552,-5.68224215327
7,95,-2.05081364487,9.50246527322,-4.15180739787
7,96,-3.42174540642,9.88280658213,-3.26703737701
7,97,-4.72529680064,12.1511521369,-3.02041075798
7,98,-6.08652803629,17.4916100092,-1.90930702896
7,99,-3.26131367542,18.5161518196,5.65062780352
8,0,-3.26131367542,18.5161518196,5.65062780352
8,1,-2.52313897531,18.0186274009,9.25711017989
8,2,-6.45757171635,17.9731640557,4.74352040668
8,3,-8.70826288639,15.2172310837,0.292473424728
8,4,-7.7512710218,12.6366244492,-2.12570369435
8,5,-4.29068418271,11.5886734232,-3.42223098301
8,6,-2.58402050964,9.32855479556,-3.36966178287
8,7,-2.89337857349,7.30116128622,-2.60073931559
8,8,-3.38120034427,5.77615994123,-2.13663391541
8,9,-1.14602151026,6.04902878609,-6.31599276815
8,10,-0.453595726037,6.17592718582,-5.27767128188
8,11,-0.319888371656,5.06723522235,-1.95161552548
8,12,-0.137588918395,3.849528968,0.454196182804
8,13,0.112861352971,3.59903568665,0.493961886753
8,14,-0.634433848119,3.89623390007,-0.262407687138
8,15,-1.1772167409,4.08521656149,-1.78542461092
8,16,-1.41645910373,3.88343018908,-1.51007426535
8,17,-1.92688628218,2.88546718447,-0.197461577101
8,18,-2.86570851806,2.16710292205,0.387423877352
8,19,-3.76220393406,2.03201576366,0.443086912641
8,20,-3.91015878926,2.19018943522,-0.0381381148608
8,21,-3.35232500785,2.30682200881,-0.88283786086
8,22,-2.49064696944,2.55979144414,-1.83293226968
8,23,-1.41390566236,2.59545990222,-2.03485163972
8,24,-0.143441551612,2.92438145089,-0.988137879901
8,25,1.90208816565,3.96095025871,1.65313515196
8,26,7.36173681877,9.23584262392,6.38442299587
8,27,13.3365811596,5.83406753035,21.6806486669
8,28,20.8462759137,-1.41567342034,25.7634669251
8,29,20.6124158952,-1.5822405237,19.4303474854
8,30,13.8803999769,-4.11380443755,8.60684596015
8,31,3.31314718688,3.16069102201,-1.10387962946
8,32,-1.4768186634,5.46583509085,-2.21458022092
8,33,-5.78424665819,8.32574256887,-5.5197908011
8,34,-11.3244962278,13.6872367328,-11.1142869841
8,35,-10.6849829863,16.3478983454,-5.49049401434
8,36,-3.13367566736,17.5149260548,2.70208483476
8,37,2.92998656289,11.7146170875,-2.48290373724
8,38,1.02154943919,6.05251080818,-9.56963843151
8,39,-1.85489899249,3.93986545374,-6.10139510169
8,40,-3.34113568851,2.71487529344,-1.33089323713
8,41,-3.68609922978,2.23661981462,2.17296221804
8,42,-3.79173978058,2.71275046971,2.082958471
8,43,-5.14891993158,5.32611949472,0.75886793729
8,44,-5.08613396189,9.17622226053,-0.948425746295
8,45,-2.66259461495,11.080200687,-2.11007171767
8,46,-0.921352949971,10.7921544293,-2.98015187875
8,47,-0.923967561554,10.0036812255,-3.26088696864
8,48,-1.07135545246,9.99488797618,-3.13617435665
8,49,-1.11439708411,10.1875217767,-2.34339620839
8,50,-1.01221436393,9.99440028151,-1.58100327846
8,51,-0.314696392392,10.144823919,-1.83913819475
8,52,0.649044133043,10.8213579079,-2.51768813081
8,53,1.52104757056,11.6980316262,-2.49681895864
8,54,1.63096481077,11.5018554632,-1.27494591821
8,55,0.858564466559,10.1939298539,0.241955194131
8,56,0.0436332262561,9.11684128799,1.78645765742
8,57,-0.0695708574234,9.22149989994,2.69332519165
8,58,0.756838706883,8.19669807853,6.17730751818
8,59,1.5021520968,7.21973494643,7.79269379937
8,60,1.21028544559,8.9318848162,2.82911597551
8,61,2.25846629699,10.4627750464,-0.714157611136
8,62,3.89448014148,10.7165897798,-2.96370789588
8,63,4.51664926119,9.94087870448,-2.88036398522
8,64,4.27919317136,9.57278801719,0.0519864387989
8,65,3.34163345885,9.7048888675,2.11173028934
8,66,2.65866871106,9.53123271515,1.90929618765
8,67,2.31043174581,9.52845191399,1.58236169844
8,68,2.07253274181,9.90926939179,1.59732868885
8,69,1.60727739983,10.7794915066,1.56329042548
8,70,0.784768627017,11.8552551569,3.42751334072
8,71,-0.595223956561,12.2743637676,10.1825832157
8,72,-1.95122432831,12.401635803,12.0678813609
8,73,-0.81412261091,11.3260902142,4.09230839455
8,74,1.38220250017,9.68489185133,-3.46462664204
8,75,1.28766345636,9.79253257597,-6.14808401093
8,76,0.135733719289,10.6655168311,-3.70109903371
8,77,0.0622347699142,10.3498300676,0.356958066765
8,78,0.623479938685,10.4751195643,-2.06107688059
8,79,0.936149315512,12.0161858476,-6.77245070639
8,80,1.195330604,13.8398522778,-3.63394024327
8,81,2.40262008628,14.8486499659,1.16694057179
8,82,3.75126226219,15.021321842,1.17656661527
8,83,2.62860297962,14.8485200934,0.302675982489
8,84,1.19731603711,14.5386675892,-1.05669224221
8,85,-0.193230106298,15.417772088,0.272527815609
8,86,-2.45717875992,16.7231452144,1.49632310429
8,87,-3.87253061589,16.3832156165,0.532093046373
8,88,-3.3868842098,14.5041344944,1.17554004519
8,89,-2.49207458493,12.4084844019,1.77505864574
8,90,-2.05308746378,11.3752829894,0.874465034827
8,91,-1.73344643551,11.4277177602,-1.17075569984
8,92,-1.67515277626,11.1423923173,-3.60323244446
8,93,-1.7806873484,10.0211778333,-5.5959223279
8,94,-2.06621772393,9.30937003818,-5.94818935302
8,95,-2.76916008717,9.97364702499,-5.05492371038
8,96,-3.92025916616,12.7301632666,-3.59989346311
8,97,-4.53450762749,17.5591598527,0.768891337833
8,98,-3.19532286161,18.4771138137,7.88857050642
8,99,-2.90923902646,19.272438517,4.59646276625
9,0,-2.90923902646,19.272438517,4.59646276625
9,1,-3.08339321867,16.0973493971,0.711862833729
9,2,-3.01769974082,12.0850048265,-1.90168716445
9,3,-2.43730911825,10.2740386758,-3.97599741154
9,4,-0.720695171307,9.54870601672,-4.48796947506
9,5,0.447672717333,8.11526197017,-3.62003755731
9,6,-0.503118693406,7.52795619394,-4.24520831076
9,7,-1.40283827274,6.62392799208,-4.56357148253
9,8,-1.19578254537,5.35498985814,-4.11704765972
9,9,-0.497878832018,4.74505898619,-2.46144755232
9,10,-0.462146828614,4.49355830851,-0.331271969782
9,11,-0.825449556415,4.2226758684,0.432698414443
9,12,-1.04981025469,4.40283423068,-0.197163535709
9,13,-0.925750536274,4.20947275593,-0.771393661222
9,14,-1.16599366129,3.5489639612,-0.648164358376
9,15,-1.27697069975,3.20316644166,-1.05221211277
9,16,-2.26686855694,3.29117888722,-0.47169254069
9,17,-2.81218246839,3.47883087044,-0.616740855067
9,18,-3.18022725283,3.48947686785,-0.610445082054
9,19,-3.42136393693,3.29879670419,-0.26481302524
9,20,-3.0927083814,3.05497904514,-0.421951182886
9,21,-2.40256784293,3.00272652996,-0.96811496745
9,22,-1.44458560066,3.02756021646,-1.1736888715
9,23,-0.433526958508,3.22829214653,0.483982673675
9,24,1.7603716944,5.47319494382,3.9133314876
9,25,6.56709811544,10.6794657722,10.6104821467
9,26,15.8380314432,7.23589162865,20.7344965425
9,27,22.1687520235,1.61298332071,24.285034757
9,28,22.1736612166,3.8080767573,16.7916080047
9,29,14.1740927135,2.62351111181,7.2658286291
9,30,4.74842755492,5.26999169797,-1.03717172112
9,31,0.540879187098,6.77871533688,-2.31003889777
9,32,-2.98229298622,8.33595975268,-0.873184565186
9,33,-8.98220919626,13.8675093734,-6.52489109034
9,34,-10.5662063464,15.7130048054,-8.58993881882
9,35,-7.22185481384,17.2419412624,-3.43350848136
9,36,-0.558697654711,13.3327239754,-1.22625061567
9,37,0.396623212547,7.79183474389,-6.95081746175
9,38,-2.20695510495,5.72050550244,-6.61158033507
9,39,-3.16668791305,4.7416906319,-1.50198355723
9,40,-3.87606945437,4.38971089795,2.26724200679
9,41,-3.97297784053,4.39916173511,1.08507111192
9,42,-3.5415452771,5.13405075708,-0.325351527976
9,43,-3.28128986992,7.20092742855,-1.10859873307
9,44,-2.63690251081,9.30459753479,-2.34077083466
9,45,-1.67116884917,10.2273555463,-3.10939058417
9,46,-0.895014695865,10.1700961584,-2.78860507182
9,47,-0.608715361415,9.63575768181,-2.5598281912
9,48,-0.676005940289,9.57436930943,-2.35337734734
9,49,-0.877507958574,9.72261146345,-1.64271272841
9,50,-0.817308073525,9.84348496318,-1.38176391714
9,51,-0.499817261232,10.0350215884,-1.92499713204
9,52,-0.101350174682,10.4690818191,-2.38034313302
9,53,0.101821706306,11.4786829437,-2.60503113648
9,54,0.381490566975,12.7505646578,-2.83423421343
9,55,0.598690217229,12.8439793842,-2.38204119183
9,56,0.277579800763,11.5438465621,-0.883109341023
9,57,-0.348146098409,9.80399613671,3.65900351578
9,58,0.454776180982,9.6616509442,6.24468084672
9,59,2.11353760138,10.5691940124,3.67398368813
9,60,3.14059834891,9.86648143062,1.79760702237
9,61,3.82603738532,8.7670547823,0.657655701209
9,62,3.92606046826,8.30292764261,-0.0412666182148
9,63,3.81463941409,8.41524411237,-0.339401641735
9,64,3.98003206607,8.04991067002,0.205759703158
9,65,2.70532766436,7.73334285285,0.682109201167
9,66,1.780929115,8.3116059757,1.64113736681
9,67,1.12538994608,9.19863568954,2.40228186451
9,68,0.925782140856,9.39904110562,2.77081019057
9,69,1.17885118725,9.40534335256,3.2730289753
9,70,1.52960284538,9.585764067,3.6190934563
9,71,1.37197594506,9.86349547224,3.92587360844
9,72,0.361834491814,10.2209892343,4.69052336211
9,73,-0.925503221212,10.807290856,5.34620752963
9,74,-1.02131326731,11.4338098459,4.23475546688
9,75,-0.0665534567731,11.5873030314,1.84931642544
9,76,0.938698204186,11.3438042022,-0.205648743405
9,77,1.07824174818,11.0726116822,-1.203833673
9,78,0.114176530969,11.0909945038,-0.467833452993
9,79,-0.737704520523,11.1204520353,0.948889685971
9,80,-0.883301082128,11.1385794066,0.73434489095
9,81,-0.553024697201,11.5963928537,-1.26282324739
9,82,0.423486915715,13.1796596499,-4.72261415498
9,83,2.31138136821,15.6080361007,-6.61256599053
9,84,5.1845636201,16.164165754,-3.00952397445
9,85,5.71686770328,15.9622520888,-0.105683934946
9,86,4.61375429707,15.8672804363,0.931455417797
9,87,3.09581318559,16.5859956965,2.13504416206
9,88,1.28208726357,17.7487246351,1.80639127245
9,89,-0.420908103888,16.690717758,-1.56817919164
9,90,-1.02176756404,14.3818197398,-2.5974382345
9,91,-1.98939045183,12.6695018838,-0.16125785468
9,92,-3.58522315081,12.0148159156,0.881228773946
9,93,-3.92948387138,11.670863146,-2.81071874327
9,94,-2.25170065148,10.7702291445,-7.31393321113
9,95,-1.40960273414,9.1978365808,-7.76157424862
9,96,-1.96024515242,8.63191631901,-6.05474255361
9,97,-3.51075556943,9.92930305665,-4.80496534523
9,98,-4.86146051518,13.2822279616,-4.44374489187
9,99,-3.97938717421,18.7062072362,-0.502656837528
10,0,-3.97938717421,18.7062072362,-0.502656837528
10,1,-2.23446894755,17.9687294517,9.15091118371
10,2,-6.19177879553,17.7833004488,9.78670287125
10,3,-9.09414178754,17.0857808872,3.96845490982
10,4,-9.57618243911,14.2773862365,-1.81087618384
10,5,-6.43304389182,12.0857710509,-4.90105338855
10,6,-2.70020422773,10.0776713907,-5.60770940041
10,7,-1.18424733219,8.8538491435,-5.05447262765
10,8,-0.524391498359,7.17188284235,-3.52670246327
10,9,-0.845212873818,5.90289288064,-1.78004376312
10,10,0.366975184307,5.72776924608,-3.48062712857
10,11,1.90003387314,5.30488484795,-4.26774038205
10,12,1.97919158188,4.87799793032,-2.07604400483
10,13,0.581697240433,4.7464128114,0.478591265376
10,14,-0.331020957031,4.61520922978,-0.0619676285889
10,15,-0.937918044745,4.29416022006,-0.966048075659
10,16,-1.46933548766,3.82855578729,-0.873091261893
10,17,-2.29815227373,3.43648840051,-0.290211656689
10,18,-2.73474184493,3.11155115429,-0.401580011259
10,19,-3.35300378861,2.71813681599,-0.201464566671
10,20,-3.70491981926,2.67752135225,-0.344523718929
10,21,-3.37262646141,2.83171127269,-0.891260644614
10,22,-2.85185536917,3.05267814637,-1.00360968463
10,23,-2.21246954814,3.28914309568,-0.751504954745
10,24,-1.16273355162,3.71947317058,0.377913901112
10,25,0.495124645923,4.33665544009,3.13396387876
10,26,5.01421586006,8.47026554043,5.97057465222
10,27,12.6711193987,10.9810608575,15.737920407
10,28,22.2560350778,6.05473764248,22.749743322
10,29,22.9488745513,5.8701023096,19.4158492534
10,30,14.3940753751,7.31931238379,11.7190853113
10,31,4.41821680958,8.37309622838,-0.313340997268
10,32,0.955803249724,7.16680476814,-3.73683287996
10,33,-0.233286329407,6.47855885038,-0.534220294983
10,34,-3.1164596646,6.75721123339,-1.38249036647
10,35,-5.54715626627,8.87003845894,-5.46524753599
10,36,-8.66624001339,13.9020799282,-8.39850063475
10,37,-8.12312276288,15.9498051431,-5.6317751794
10,38,-4.5505747064,13.0940957538,-1.93722013917
10,39,-3.50198139683,12.2031362329,-0.484691027212
10,40,-4.72586393735,10.2128895465,-4.15963935501
10,41,-3.91799493623,9.75891034745,-2.44330041147
10,42,-2.28223251623,9.21299753795,-1.57372744026
10,43,-1.5957692929,8.15769382246,-1.65123610229
10,44,-1.62463984168,8.28202073776,-1.37029600503
10,45,-1.8104974155,9.52322222144,-1.81490364303
10,46,-1.62257417515,10.5047240408,-2.73331055924
10,47,-1.34112221777,10.0930600019,-3.19567657977
10,48,-0.812872835198,8.80527112574,-3.12067155479
10,49,-0.027804726466,7.69768317349,-2.52791037219
10,50,0.515411118295,7.30488248265,-1.78209590921
10,51,0.622389324091,7.9349847297,-1.75673312848
10,52,0.778676557547,9.04320020434,-2.00858886778
10,53,1.09335615493,10.6649511716,-1.68267510049
10,54,1.14524947562,13.8933216206,-1.7501514976
10,55,0.892937747479,16.4678724548,-1.59412847797
10,56,0.553259161038,15.7123097392,-0.239321667796
10,57,0.434762170889,12.6006136149,2.77634318792
10,58,0.854582594651,10.0871623009,4.13709416418
10,59,1.98560060525,8.92801574362,3.65193724485
10,60,3.21676169368,7.80912909097,2.48788660838
10,61,4.13623621662,7.10531602653,1.95802405622
10,62,4.27033269031,7.21175829124,0.940933604028
10,63,3.01805234186,8.10653053599,-0.873138787479
10,64,1.71094272098,8.90314705622,-1.00109302651
10,65,1.20505571487,9.35879335744,-0.469855960458
10,66,1.00686807185,9.66121071489,-0.859576274535
10,67,1.70965597468,9.7598955471,-0.925016395317
10,68,1.55277544189,9.57308247079,0.382221045934
10,69,0.795479400961,9.3378824767,1.48044031838
10,70,0.778323853923,9.188985509,1.72708640629
10,71,0.903823357893,9.05855544711,1.73159973103
10,72,0.859478911945,9.04481845042,1.91334628596
10,73,0.699477626915,9.12770452183,2.23581870875
10,74,0.613548355495,9.30878500181,3.08873045715
10,75,0.256726912466,9.48334426542,6.75158059289
10,76,-0.922983358309,10.2051465494,11.2735937328
10,77,-1.6081676256,11.3833223913,7.72450637638
10,78,-0.721668940319,11.3974962207,-0.0421245601822
10,79,0.683633194983,11.2918034756,-4.41480003662
10,80,1.06626408556,12.3879934297,-3.00140549477
10,81,0.353781010553,14.2548246609,0.591637087471
10,82,0.862316662601,15.8540180717,-4.81094498378
10,83,2.91174206554,15.6577399531,-8.92844999682
10,84,4.79635920515,15.3627525514,-2.02361365398
10,85,5.2193298252,15.3349489732,2.2392818728
10,86,3.48246786233,15.6721124433,3.26793777061
10,87,1.90723559905,16.9068099678,2.23663791909
10,88,-0.0899026421496,17.6072441023,0.0346014356649
10,89,-0.950710006233,15.9081513936,-3.15706149151
10,90,-0.737519351517,12.9818449024,-1.43719661585
10,91,-1.33937789546,11.9072101826,-1.073296809
10,92,-2.11647975983,10.8199905382,-2.67370528085
10,93,-2.44071561596,9.78953612937,-5.60329527798
10,94,-2.65887890996,9.3782012897,-7.96733696272
10,95,-2.67258947049,8.98665671802,-7.49057416713
10,96,-2.97723591408,9.30526308401,-4.85104994112
10,97,-3.34017845717,10.500771999,-2.70614427955
10,98,-3.51664831543,13.2647913199,-2.10715732436
10,99,-4.46311100598,18.6952083064,-0.34823300733
11,0,-4.46311100598,18.6952083064,-0.34823300733
11,1,-3.86660391423,17.9933880287,7.88538758389
11,2,-5.74308693578,18.2351769628,6.44256081389
11,3,-6.85878301616,17.1327862487,1.01688998708
11,4,-5.833105426,12.8898997721,-1.90391522922
11,5,-5.05769326404,10.863960542,-3.22341940877
11,6,-4.71030581219,10.5328197793,-2.9141301285
11,7,-3.27307732322,9.7772549805,-1.71737832647
11,8,-0.617517109199,8.1414786931,-1.89190984108
11,9,0.606249209691,6.85991370121,-3.00876260479
11,10,0.523349357374,6.4843369142,-2.76951354501
11,11,-0.298721233595,6.64189168413,-3.15539029148
11,12,0.923097506394,6.04742854975,-3.20897200962
11,13,1.09987452354,4.79475428143,-0.862023647237
11,14,0.722768465137,4.70192558686,-0.777399801524
11,15,-0.231140090048,4.25892133775,-0.679210384712
11,16,-1.4478495357,3.22957893789,-0.337658952664
11,17,-2.35035362258,2.68414563822,-0.188932203853
11,18,-3.19473575588,2.62345031877,-0.117462473146
11,19,-3.50413771543,2.66135643053,-0.558380783819
11,20,-3.50929382452,2.54771000114,-0.968864493157
11,21,-3.25284752979,2.31575549342,-1.19113523849
11,22,-2.71134743486,2.66801253267,-1.46656437455
11,23,-1.65604524624,3.38875349482,-1.21627604612
11,24,-0.326438382596,4.48585098522,0.92541655055
11,25,2.19279824828,6.90885174406,4.98094869567
11,26,8.46148572441,10.6434851156,12.2706656581
11,27,17.6030825721,5.78884199186,22.3481424072
11,28,21.0357554694,2.65513158977,24.0689690028
11,29,18.510681689,6.65541975799,15.0885655535
11,30,8.83141934899,0.117867114425,6.21893320991
11,31,2.70868531632,5.39385144133,-2.16107649937
11,32,-0.512024202385,6.06397202693,-1.23937830391
11,33,-2.25602214669,5.79016605427,0.519363862962
11,34,-3.83397837469,6.59459422565,-1.29956656683
11,35,-4.79878642133,9.46854834429,-4.92383962178
11,36,-6.32917368437,13.5139260859,-8.04873196365
11,37,-5.51240589143,14.1059059174,-6.69576026855
11,38,-3.95015249946,12.4056987778,-3.27992211039
11,39,-3.3790117584,12.3043921513,-1.74809251612
11,40,-3.49520968389,11.7749072744,-4.20319330619
11,41,-2.5630089737,11.1842096251,-3.05561416361
11,42,-2.21983274255,10.0784901028,-1.82178332308
11,43,-1.85083759982,8.28912331378,-1.16782912617
11,44,-1.5272759411,7.41733058289,0.188115253083
11,45,-1.70721208315,8.04246651821,0.389442232792
11,46,-1.85908079339,9.24244257643,-0.217789447496
11,47,-1.58474940499,9.56234600394,-1.20567749041
11,48,-1.53939828436,8.85168619394,-1.74048538424
11,49,-1.26094625191,7.91585731476,-1.89443878156
11,50,-0.30108963867,7.24262743265,-2.19732952702
11,51,0.390194530009,7.75574337038,-2.73505244591
11,52,0.467620656742,9.81700344538,-2.77955558132
11,53,0.725732979025,13.0042790874,-3.38566917638
11,54,1.27649831811,14.9335171446,-3.77997241084
11,55,1.51485278845,13.9785882169,-2.58871275622
11,56,1.45876657085,11.7454500988,-0.149238266773
11,57,1.47046744315,10.5026359648,2.17294517903
11,58,1.78883955132,9.65260607208,6.44329112491
11,59,2.96153167761,9.03289475076,7.8458388549
11,60,4.15496354266,8.5722974894,5.10702698546
11,61,4.56931261348,8.13482683565,3.31049458742
11,62,3.89422938804,8.56182818449,0.916638820751
11,63,3.71442025304,8.44966994144,-1.48372934945
11,64,4.0202938752,7.68890798551,-2.97012232804
11,65,2.60629585851,7.43977454821,-2.61230589331
11,66,0.686575278836,8.38656435833,-1.47203262505
11,67,0.12750687567,9.58068984107,-0.345286893233
11,68,-0.155455582785,10.2688527791,0.465132901084
11,69,-0.324128932429,10.4110955485,1.11672861352
11,70,-0.738925843301,10.0447076933,1.61890173092
11,71,-1.31528156949,9.6700079503,1.80118192338
11,72,-1.63136496218,9.98287738859,1.80577051333
11,73,-1.38502770314,10.6727839338,1.79416780317
11,74,-0.707380977932,11.1389315666,1.95627289284
11,75,-0.088564087919,11.2762743911,3.60092994361
11,76,-1.14480279872,11.491945013,12.2918844312
11,77,-2.21166772576,12.6797851305,13.1564707281
11,78,-0.564157030774,11.7682013239,2.16438001257
11,79,1.47532233923,10.9702735351,-3.40835644917
11,80,2.18422115521,12.2452355264,-1.57631740137
11,81,2.41074872563,11.5791932465,-12.3262523608
11,82,3.48721224081,11.7044583288,-10.3419986189
11,83,5.05256978167,13.3981341051,0.431227976094
11,84,4.94067671883,15.4517301246,4.19319090183
11,85,3.91404505314,16.0176185286,2.94060970048
11,86,2.34927099173,15.7381669691,2.03989881741
11,87,0.129847640151,16.3173396924,0.658168251527
11,88,-0.967095918554,15.7491179202,-2.87294935451
11,89,-0.559411490901,13.051458541,-1.64661164718
11,90,-0.325995456207,12.1559515993,-0.188196227344
11,91,-0.912417318687,12.3462335969,-1.19225242818
11,92,-0.647441225847,11.3600318006,-4.280664689
11,93,0.511544325959,10.5660231953,-8.66571569183
11,94,0.021126476898,9.68431860076,-8.74039765188
11,95,-1.72382860873,8.6271425539,-6.16383556741
11,96,-2.96605113154,9.0506549799,-4.0897033694
11,97,-3.92359400543,11.400487975,-2.75441863622
11,98,-5.14710831351,17.4428709152,-2.1584280589
11,99,-2.08866911621,19.6114851973,2.38064737711
12,0,-2.08866911621,19.6114851973,2.38064737711
12,1,-3.63250447494,17.9302187101,8.04726984014
12,2,-8.88031613358,16.97050212,5.46367786419
12,3,-9.85862450362,14.0064693422,1.00142288236
12,4,-8.17754795981,11.9279396383,-1.55897850435
12,5,-4.67075723474,10.2946945525,-2.33439711433
12,6,-2.70641782782,9.62684525502,-2.6312874071
12,7,-1.73774496545,8.65380846177,-3.17840527859
12,8,-1.08329726036,7.21297225041,-3.20799433852
12,9,-0.754759902404,6.1266632213,-2.41481048552
12,10,-0.663830250254,5.51039437368,-1.10079267984
12,11,-0.630251991244,5.38151588179,-1.58342254936
12,12,-0.190814970014,5.18012400113,-1.52525850358
12,13,0.216994699732,4.77297029043,-0.663160045921
12,14,0.0858241960634,4.17026390214,-0.281083346433
12,15,-0.748300012239,3.83676258451,-0.305445748786
12,16,-1.33724908342,3.67419931279,-0.810827793781
12,17,-2.19923898837,3.36886583394,-1.77683242757
12,18,-3.31062104112,2.48005946703,-0.263512511902
12,19,-4.09922301234,2.15702712073,0.525207794033
12,20,-3.65513601747,2.16747378325,-0.344907616778
12,21,-2.95987230406,2.57339353841,-1.05683155936
12,22,-2.00726798643,3.4772555228,-1.01909107711
12,23,-0.456855661375,4.55833582126,0.426182657255
12,24,1.97632210292,5.8770524773,3.28764337824
12,25,7.33764437887,10.6324793828,5.61650601846
12,26,16.2253754144,10.0859569179,19.673603897
12,27,23.4593478545,6.15002888647,23.6989624588
12,28,18.7823791117,8.0934583794,18.779819601
12,29,10.9103056384,7.04354295932,7.38995294253
12,30,3.19715589303,5.48211000267,0.6448480238
12,31,-0.761631942603,4.96298484165,-3.36328961635
12,32,-1.52011594328,4.4810466209,-0.139062631609
12,33,-2.80490108246,5.29011175243,-0.577556817909
12,34,-3.01868892869,6.67975787176,-3.34575235637
12,35,-4.98375952795,11.6111777566,-8.05681296761
12,36,-6.48471142777,17.1692733316,-9.26793300116
12,37,-4.79525423239,18.4291607658,-3.32787089233
12,38,-2.05930539432,16.3822498216,-0.083377291443
12,39,-1.78242742312,12.7521057438,-3.18447753564
12,40,-2.4475436145,9.95553863588,-4.10074098038
12,41,-2.07315224719,7.77056389147,-1.86198104557
12,42,-2.16519750796,5.90646534962,-1.79557024499
12,43,-2.41830272043,5.32532147903,-0.737076864956
12,44,-2.82340563763,6.5935262792,-0.0858859583947
12,45,-2.89926805623,9.33527993249,-1.67256875101
12,46,-1.81302337521,10.4180254452,-1.99853733548
12,47,-0.745582447543,9.68619636111,-1.64992312704
12,48,-0.0917102317208,8.7782176777,-1.72249515792
12,49,0.540156081269,8.24449068171,-2.06805431075
12,50,0.775434478352,8.51245438498,-2.10920410102
12,51,0.333586345983,10.2864815047,-2.18396192998
12,52,-0.0795259215847,13.2785851457,-2.93720683868
12,53,0.0416803675169,15.181921328,-3.45292552224
12,54,0.783384812457,13.8407574229,-2.60167745688
12,55,1.12013549532,11.1019571349,-0.719420905247
12,56,1.00434475457,9.30999389354,0.968127293457
12,57,0.762666840965,8.93964107369,2.207416593
12,58,0.886817087395,8.9956583223,3.77050639918
12,59,1.46152656133,8.57395254257,5.91939491349
12,60,2.11247183993,8.27897634572,5.53509891917
12,61,2.48799637261,8.26884179513,4.57604773836
12,62,2.24568258822,8.53238987368,1.8368846384
12,63,2.69417412746,7.57189558648,-0.0436133014679
12,64,2.92229386905,6.60203887237,-1.5259649942
12,65,2.58332002009,6.78748434446,-2.60930736019
12,66,1.94442305512,7.99412951668,-2.1116053839
12,67,1.01547503204,8.79682072237,-0.611574652329
12,68,0.446449118359,9.14555049825,0.469635104572
12,69,-0.183747650376,9.41274431048,0.947960979706
12,70,-0.669626298596,9.90087765337,0.896241855682
12,71,-0.457711478505,10.5599282806,0.459855035683
12,72,0.104404263965,11.2812604724,0.197039315938
12,73,0.500146322197,11.9246703992,0.370004313893
12,74,0.735778142789,12.477221341,0.857712821282
12,75,0.756105627703,12.7846798954,1.64675688222
12,76,0.473960492715,12.5541546415,3.20763746563
12,77,-0.888703063037,11.6046757224,10.994631454
12,78,-2.38884743587,11.4487043886,14.4466293069
12,79,-1.2741803387,10.5643978531,4.31163286379
12,80,1.11198853464,9.75471754824,-3.06019830752
12,81,2.92690470926,12.0550030878,-5.82064253471
12,82,3.24021976539,14.5327477382,-11.7493393371
12,83,4.41671203297,14.6394504935,-1.46205735908
12,84,5.09056668117,14.8629765463,4.04142720266
12,85,3.13789918157,14.6975160716,0.750473759203
12,86,0.187520148597,15.4453723495,-1.79459290067
12,87,-0.42689312521,16.2759217573,-1.05942381479
12,88,-0.613900858668,16.0612068979,0.660359247136
12,89,-0.505763380982,15.137281194,1.2454063146
12,90,0.704406207369,14.1104232433,-0.819129491125
12,91,0.260268558778,13.0239975976,-2.04346415776
12,92,-1.48010639823,11.5202838008,-2.75609063693
12,93,-1.76888396987,9.71397534589,-5.54643628892
12,94,-1.39701256109,8.7828883823,-7.56084733531
12,95,-1.73663805182,8.56557913826,-6.90436945401
12,96,-3.09346331775,10.3219043491,-5.21972151002
12,97,-4.3804487976,13.2495049285,-4.09264613213
12,98,-4.32879491128,18.2110309843,-2.32141042545
12,99,-1.58160285432,18.8040583174,5.63229076562
13,0,-1.58160285432,18.8040583174,5.63229076562
13,1,-4.68643798043,17.757653729,9.76848007043
13,2,-8.84923026559,17.2431297994,6.11802221024
13,3,-9.40061337923,14.143159229,-0.503601087758
13,4,-7.45027453046,12.2066827343,-3.69390219652
13,5,-4.42144345009,10.3781363576,-4.11372998959
13,6,-1.95200748095,9.11893219,-4.30947875626
13,7,-0.487473046262,8.43002178237,-3.45338137249
13,8,-0.691641348912,7.39030281704,-2.7262040702
13,9,-0.930817931847,6.39526047595,-3.08253199866
13,10,1.0543615444,6.14690329194,-6.36169114264
13,11,0.083897674099,6.32960018164,-4.14817815271
13,12,0.293868108505,5.16916102378,-0.922094198075
13,13,0.935059378187,4.61139301511,0.318243018657
13,14,0.999732616588,4.56038890257,-0.176474572283
13,15,0.408827841859,4.36524799466,-0.630090244459
13,16,-0.323341079735,3.93013618347,-0.539142572209
13,17,-0.975162486469,3.42155469346,-0.944291510776
13,18,-1.57880934865,2.4265168052,-1.10220283886
13,19,-2.73993414885,1.86317235715,-0.208911809237
13,20,-3.22865606423,1.67310974703,-0.488501410852
13,21,-3.03991291846,1.5618249634,-1.14661560464
13,22,-2.54468735991,1.84493841808,-1.56579764536
13,23,-1.66054130773,2.36021232542,-1.66206291091
13,24,-0.454520883627,2.89364193095,-0.615134911501
13,25,0.726864916424,3.8184319878,2.72520979806
13,26,3.99149243968,9.80367726633,6.07624963332
13,27,11.1896565377,10.2893597945,18.4513999656
13,28,20.4352505899,5.2534307994,24.7377945811
13,29,18.7878520104,5.80350417553,22.6561735749
13,30,12.4157234468,8.46993019353,13.4838458767
13,31,2.35010253656,8.48444329716,-1.89536834179
13,32,0.353826683353,5.32995684701,-1.25685712103
13,33,-2.78995785821,4.95538272342,0.745584176265
13,34,-4.96158698904,5.52700956485,-0.730291651224
13,35,-6.96532349442,10.128423838,-4.27853212629
13,36,-8.54249465718,15.5238758786,-7.42925665794
13,37,-7.92717337497,17.2831623722,-6.23084383415
13,38,-2.00193303524,16.0927760842,-1.37736704259
13,39,1.2257652431,12.0928373902,-5.1104059309
13,40,-0.0807498026043,9.1122059238,-9.29558517411
13,41,-1.22967937581,6.98423766458,-5.93693098154
13,42,-1.58914539402,4.64749460052,-2.12403690819
13,43,-1.60956340692,3.99736477956,-0.384958409642
13,44,-1.619366965,4.78449504781,0.127099524431
13,45,-1.46214507571,6.24056735051,0.0953077448442
13,46,-1.35768821387,7.56347977913,-1.22154644394
13,47,-1.33423722812,8.53510556461,-2.75008309523
13,48,-0.94668392199,8.90373434563,-2.93232724938
13,49,-0.31832337924,8.84556326038,-2.16834306638
13,50,0.391621451339,8.99624120198,-1.67386287106
13,51,0.798909094332,9.8140039739,-1.6083118941
13,52,0.55871407771,12.2872381295,-2.16036243938
13,53,0.194260633905,15.4558841902,-2.44443047159
13,54,0.336352736006,16.054527556,-2.19130541571
13,55,0.593447677059,13.7353499522,-1.15201612216
13,56,0.739378260729,10.9909968503,0.223856045512
13,57,0.706345351074,9.51510635558,2.01205548456
13,58,0.609323194905,8.58446107636,5.70935661824
13,59,0.932768311608,8.90729612807,5.66740855155
13,60,1.34340872538,9.34187272093,2.81857233465
13,61,2.1252508833,9.3222137192,0.680021144287
13,62,2.56028484644,10.04597263,-1.35191008607
13,63,3.07946447842,9.54968791904,-2.23184946657
13,64,3.43113240556,8.77155056802,-2.57233541956
13,65,3.58161589558,8.47788718053,-2.32125966575
13,66,2.77375879633,8.60774829621,0.158713402158
13,67,1.57439962984,8.44359800525,3.01063594382
13,68,0.748652531374,7.95774154786,3.1660803498
13,69,0.820414700215,7.99447547835,2.83197202974
13,70,0.956106426841,8.37359153764,2.69730054101
13,71,0.660731650144,9.10503074384,2.26272459258
13,72,0.0693830254122,9.93480477976,1.7352593594
13,73,-0.625869728784,10.9708133628,2.10343742663
13,74,-1.78923174876,11.9732362819,6.06508913775
13,75,-2.81690771202,12.564341161,11.0065696461
13,76,-1.53242774885,12.3231952239,7.08874900541
13,77,0.563318523576,11.1749282579,-1.15918363075
13,78,0.953307018444,11.0679148042,-5.34126631867
13,79,0.348417279846,11.3613453369,-2.32340669235
13,80,-0.0215909702122,11.1429583435,-0.14089829401
13,81,0.685111925293,11.1341364456,-7.10926466764
13,82,1.56131085744,12.6351360362,-5.64610571338
13,83,3.20810046443,14.6574318769,0.348234293204
13,84,5.27667117902,15.1188626243,2.09012170256
13,85,4.59650550601,15.2512579168,0.00361302182297
13,86,2.14850836067,15.0608323989,-0.321847998262
13,87,0.412486411855,14.8787939844,1.8342262996
13,88,-0.966806049664,15.3943151525,0.799078203401
13,89,-0.754156358188,14.3707160546,-0.870493111129
13,90,-0.387961926133,13.8116707018,0.682333494505
13,91,-0.599626809991,13.788646858,0.843187910999
13,92,-0.811552811389,12.9024554658,-0.684089206456
13,93,-0.629603976245,11.0981880141,-4.22327669015
13,94,-0.882813581158,9.71279116112,-7.21035324421
13,95,-1.78361668487,8.84615890729,-7.25348786295
13,96,-3.1119528135,9.64365234355,-6.1542733677
13,97,-4.5904832343,12.1924557917,-5.17488048657
13,98,-4.83302423445,16.9655882733,-4.28461126227
13,99,-1.78153392422,19.5715570592,2.20375144956
14,0,-1.78153392422,19.5715570592,2.20375144956
14,1,-1.94126967269,17.8699172924,10.2020700875
14,2,-7.73903290237,17.1916008429,11.0089488618
14,3,-11.2007794217,15.4685294428,3.98271482003
14,4,-8.89617923021,13.6872994675,-2.60308043847
14,5,-4.78379827923,11.6685415216,-5.30209316063
14,6,-2.41375177498,9.94706024007,-6.36514472733
14,7,-1.85758516665,8.09111766275,-6.73265730441
14,8,-1.53866483934,6.06556823412,-4.16952633222
14,9,-0.220198029499,4.61407009846,-3.1306798681
14,10,0.08033082447,5.28277243325,-5.43804112961
14,11,0.105899812478,6.0108496738,-4.41187809289
14,12,0.404319233121,4.86910219862,0.519564424487
14,13,1.22068975763,4.48814337867,1.45593516916
14,14,0.836598342262,4.45625612383,0.664352938889
14,15,-0.131029262363,4.52876367149,-0.468856864135
14,16,-0.698374858033,4.38897566935,-1.1421660459
14,17,-1.09546854202,3.94179532201,-1.25312524719
14,18,-1.40676099368,3.31866096051,-1.19013263842
14,19,-2.83720095338,2.65381307999,-0.0937388778583
14,20,-3.43552898607,2.09867649517,-0.295086039559
14,21,-3.00284362816,2.09381355921,-0.843363478662
14,22,-2.2380870687,2.19297373743,-1.47621422995
14,23,-1.56056417139,2.1492743373,-1.82035315762
14,24,-0.805583813696,2.37316510466,-0.960017880078
14,25,0.139505367308,2.92607482239,1.9159069906
14,26,3.59684414651,8.36185661446,4.95540849453
14,27,11.7036917606,9.0244971036,18.219441692
14,28,20.9484599691,3.79156844891,24.9566902668
14,29,19.1629153583,4.36979298905,23.1300575619
14,30,12.2914402749,4.87187754651,13.4730455136
14,31,3.79681350075,7.77082131082,-2.66761964368
14,32,0.901463902242,5.35825919878,-2.41216832642
14,33,-2.2110339264,5.20096018463,0.261068920837
14,34,-5.01693310288,6.58769940987,-1.59284410686
14,35,-7.0434909657,10.8697197325,-6.37710078976
14,36,-7.92459534855,15.7625973853,-8.47600976935
14,37,-5.25034592929,16.9826978232,-3.94562165315
14,38,-2.28127358102,15.1035117248,-1.29482946764
14,39,-2.20679052079,11.6812892755,-4.92278750553
14,40,-2.83997147943,9.26996841742,-5.68845165347
14,41,-3.0799637807,7.91871781897,-2.91997578325
14,42,-2.94067995141,7.41576180929,-1.34000575394
14,43,-2.61049155434,6.67476512881,-0.924413252962
14,44,-2.96170249355,6.98208736254,-0.489606927013
14,45,-3.29948721136,8.31401141301,-0.759483931381
14,46,-2.77740169972,9.11586826942,-1.96947355108
14,47,-1.79195590674,8.77718301368,-2.84509208346
14,48,-0.672478330577,7.66217827436,-3.09933282548
14,49,-0.0393289374634,6.96414729568,-2.75668677408
14,50,0.183589772449,7.14630426649,-2.03534034589
14,51,0.537827031498,7.5884120467,-1.82148285384
14,52,0.899905470729,8.2196681749,-1.76180590828
14,53,1.15641757393,10.5060129157,-2.41953214497
14,54,1.06615059339,14.7835913232,-3.30280639025
14,55,0.851381832921,17.1435915912,-3.15194288099
14,56,0.681424272125,15.1975005501,-1.32561136046
14,57,0.44536168881,11.8703944279,1.00454913862
14,58,0.527741912115,9.95869290051,2.77732063175
14,59,1.17006745488,8.14177585782,6.67466235428
14,60,1.89831250927,6.65131705538,10.8858411034
14,61,1.88497293762,9.43298127193,4.93536981476
14,62,3.05842937827,10.6863992506,0.0638294997129
14,63,4.21374124004,9.39368779642,-1.95990895194
14,64,4.7693703902,8.36279099823,-3.16380829555
14,65,4.58834958952,8.10171447697,-2.93787310467
14,66,2.82986311712,8.42254861015,-1.20352893387
14,67,1.21238401457,8.81038000766,0.706241131715
14,68,0.727226275767,9.14172152076,2.20315154041
14,69,0.749740317412,9.4261470413,2.96882951949
14,70,0.604759526124,9.14769055692,3.35363797816
14,71,0.309120707585,9.23498599575,2.93788297052
14,72,-0.0375647952246,9.61453322837,2.40243927554
14,73,-0.541255623215,10.2093167881,2.81802608332
14,74,-1.42725945567,10.9703215007,5.71317763692
14,75,-1.87994849107,11.7235868813,7.95669464535
14,76,-0.937491369645,12.0572884494,5.18671738556
14,77,0.456798505112,11.6239490263,0.0446767941898
14,78,0.481717884952,11.4491470497,-1.85259832935
14,79,-0.494657008889,11.903811976,0.951249465207
14,80,0.0794508477518,11.9662287762,-0.577138534339
14,81,1.84455024405,11.0931392845,-9.16868668537
14,82,2.88233985587,12.3118844095,-6.86185288042
14,83,3.78903339637,14.7025261718,-0.284859259901
14,84,5.13000211231,16.0103716556,3.48934237481
14,85,4.62909689493,16.2089253016,1.36802638022
14,86,2.0681090926,15.7554120423,-1.28605789967
14,87,-0.276694459778,16.0705495197,0.950934984872
14,88,-1.63827462419,16.5090334084,2.9222952645
14,89,-1.912523621,15.2683531646,0.852698422662
14,90,-1.59969005272,13.3214461324,-2.25155963914
14,91,-0.572242116901,12.6172294451,-3.73610064259
14,92,-0.49697036536,11.8910406367,-2.88251604166
14,93,-0.863086247228,10.8182700058,-3.73228133798
14,94,-0.96025486448,10.6633378597,-5.90493913722
14,95,-1.2386957585,9.8752438628,-6.15418581591
14,96,-2.40362130786,9.55494423064,-5.09834769252
14,97,-3.83129979977,10.6130767807,-4.04115014565
14,98,-5.15862930274,14.3102425937,-3.13012120684
14,99,-5.4866467172,18.9240173759,1.92728983789
15,0,-5.4866467172,18.9240173759,1.92728983789
15,1,-2.49924386621,18.2255121988,8.29811884344
15,2,-4.02587473893,18.4010282687,6.47878284709
15,3,-6.55314612056,16.347237599,2.97951269535
15,4,-7.0816996685,13.0763461269,-1.25155401023
15,5,-5.25227831237,11.5779079838,-4.02409439225
15,6,-2.88898172582,10.6460199155,-5.18793716156
15,7,-1.52250374647,9.02048852555,-4.35830685133
15,8,-1.43174259809,7.08339689635,-3.7219956322
15,9,-1.66708641314,5.66557963074,-2.80551580977
15,10,-1.04914288199,5.04313827046,-3.99540715143
15,11,-0.153600406998,5.44195848846,-5.12384041391
15,12,0.109482386534,4.99353173829,-1.34900304791
15,13,0.903027292274,4.12242575063,0.666736837535
15,14,1.27490111584,4.2536153169,0.27368348529
15,15,0.552757108035,4.18028359657,0.21923136496
15,16,-0.553859730704,3.85861023907,0.0820856598111
15,17,-1.33896185647,3.80745076889,-0.584755544512
15,18,-1.88254430599,3.80120884027,-1.25053933049
15,19,-1.98788853046,3.57479966735,-1.37066584381
15,20,-2.74249950679,2.95066222182,-0.483382657669
15,21,-3.45018602203,2.84886383462,-0.50771799877
15,22,-2.92876507086,2.5532420762,-1.51841562074
15,23,-2.21471632454,2.86931191215,-1.98774280612
15,24,-1.23495897284,3.5353162045,-1.27204007654
15,25,0.293996352186,4.30152802899,1.82115335717
15,26,4.93624846953,10.4975028057,4.01389099331
15,27,10.0919856181,10.0865826275,17.6227053745
15,28,19.5669639478,3.62368225301,25.3105989382
15,29,20.6005860307,3.8086747944,22.6350807243
15,30,15.7227449534,7.28359326889,11.8996704597
15,31,4.75974416858,8.30118689094,-0.0117265783269
15,32,0.41493534487,6.07245019838,-2.73570148707
15,33,-2.13378339885,6.06447461899,-0.23633515338
15,34,-4.80058410097,7.53529177761,-1.31638034232
15,35,-7.60705708311,12.0435750378,-5.47521227657
15,36,-8.64083182821,16.308683952,-6.97177947604
15,37,-5.02143426446,15.2300082704,-3.25745647998
15,38,-0.52269677962,11.67110636,-1.9997643431
15,39,-1.07035091109,9.00172960441,-6.48403936824
15,40,-2.10980576502,7.76382179699,-7.10857692619
15,41,-2.75368701594,7.14999839692,-3.86831754978
15,42,-2.38444099065,6.6492859802,-0.178980882695
15,43,-2.12384109268,6.88291470314,1.08678579263
15,44,-2.5477400532,7.68217037683,1.14781708848
15,45,-2.68274627793,9.00981158542,0.723850172942
15,46,-2.40078441508,10.2898895334,-0.513808104255
15,47,-1.64648746615,10.231708881,-1.97947597276
15,48,-1.17221559135,9.37749649129,-2.75608899398
15,49,-0.540152285436,8.46230228766,-2.7157496335
15,50,0.115838598639,7.9188307651,-2.48861019603
15,51,0.146394536104,8.15936274311,-1.98431282495
15,52,0.122972521179,9.18627776894,-1.50655967612
15,53,0.251943766665,11.4744922198,-1.65438425598
15,54,0.424915487388,14.0291030727,-2.09922791358
15,55,0.580502457321,14.6852020043,-1.69492508346
15,56,0.79573549419,13.0118763169,-0.516126556343
15,57,1.06737906753,10.7027260055,0.77109278125
15,58,1.28225314995,9.58886580791,1.95907594797
15,59,1.53016192022,9.53974552628,2.4712235884
15,60,1.87720539039,9.49993910023,2.21513595232
15,61,2.42512250157,9.13211512176,2.43873422774
15,62,3.35157902835,8.44917768883,5.08320671748
15,63,3.72212347126,8.31173262967,8.46834288794
15,64,3.00208748126,9.13029193005,3.59533631095
15,65,3.2568250076,8.47844650174,-0.0148886539989
15,66,3.66617416325,8.26757784056,-0.544852755506
15,67,2.95277019214,8.55515576402,-1.24573118885
15,68,1.40144578621,9.0832051274,-1.31559659851
15,69,0.388195970167,9.66032060022,-0.555279750916
15,70,0.248099128275,9.41031219625,-0.161086132204
15,71,0.150859638837,8.88688877712,-0.0444419810114
15,72,-0.128898075127,9.26286190993,0.0692672037666
15,73,-0.119253557982,10.1733031859,0.646173918071
15,74,-0.800581470858,11.0760065688,4.35806209644
15,75,-2.22102256305,11.8064623663,11.515690007
15,76,-1.82383744161,12.0298235172,9.99982605702
15,77,-0.159745158191,10.7979935448,1.33890212804
15,78,0.583773447606,9.54466728493,-4.26971962481
15,79,0.10398112908,9.51706505475,-4.10084910294
15,80,-0.253000657268,10.1219913415,-0.236065169161
15,81,0.370231878707,11.4581479933,-2.76427646933
15,82,1.86923727378,13.2630930812,-8.25925882372
15,83,3.32078000157,15.2888724257,-2.44330857201
15,84,4.90292702838,15.9493922848,2.87740824139
15,85,5.04705946768,15.3224946361,1.61043800303
15,86,2.77557075027,14.5973729643,-0.430392988944
15,87,0.730734444727,15.3728134053,0.333395162123
15,88,-0.972109589311,16.1314625771,0.696240023839
15,89,-2.08286936247,16.1591645785,-2.0008822887
15,90,-1.02874145112,13.9621051637,-0.0736351685121
15,91,-1.37746367541,13.2583800554,0.575328697502
15,92,-1.72339709484,11.939418917,-2.37715667943
15,93,-1.4900333432,10.1872845502,-7.06533406432
15,94,-1.72895382576,8.94668690747,-8.52669554826
15,95,-2.25844230674,8.35017844698,-6.44485450641
15,96,-2.90526426352,8.80861424457,-3.9433448613
15,97,-3.23556948699,10.1690812151,-2.38685380447
15,98,-3.81331349004,14.0887349352,-1.53567511379
15,99,-3.04264809159,19.0893315033,2.67548002326
16,0,-3.04264809159,19.0893315033,2.67548002326
16,1,-0.919287097361,17.6874313822,12.3023967441
16,2,-5.12938201501,18.3394893677,6.35951794908
16,3,-7.78397426818,15.9993229095,0.398205677733
16,4,-7.73353508237,12.6131725708,-2.0938570551
16,5,-5.69544930434,11.4475904664,-3.1414397828
16,6,-3.34366413692,10.1944052758,-4.22310344825
16,7,-2.00549125902,8.78282220667,-4.29897996253
16,8,-1.54055825621,7.3128532823,-3.53082601113
16,9,-1.30610771486,5.81739493092,-1.80804145896
16,10,-0.281148153217,5.47033886282,-2.7602474772
16,11,0.0399768463205,5.5090780627,-3.74860084006
16,12,0.67737413597,5.42121077669,-3.14992637101
16,13,0.442816642373,5.0376705945,-0.760965752658
16,14,0.0799753444253,4.77188846401,0.218511598093
16,15,-0.0577429108436,4.87814652544,-0.829401608203
16,16,-0.400487994349,4.89792608067,-1.86462016137
16,17,-0.882787470623,4.20704283462,-1.3445132734
16,18,-1.50183985961,3.32676947324,-0.821415512049
16,19,-1.70052930366,2.78277265954,-1.1483815135
16,20,-3.00259450635,2.60443442281,-0.102317271675
16,21,-3.17141887435,2.13852996421,-0.629848187007
16,22,-2.81678965992,1.96612705141,-2.25796917388
16,23,-1.71520550716,1.87120417828,-2.44673877058
16,24,-0.432561258192,2.56195189922,-0.8329514568
16,25,1.14565283424,3.25419946421,2.65600472535
16,26,5.16475357318,9.17537532512,4.66577068843
16,27,13.0853705639,9.06542143935,18.7523734721
16,28,20.6811861067,4.8812442048,25.4047961113
16,29,20.3265606252,6.28229165416,20.7785945695
16,30,12.3461821527,1.7379130269,8.59614784888
16,31,3.16354283869,6.58159522574,-0.849936701289
16,32,0.17112880557,4.83838743433,-2.52034063444
16,33,-1.41231234368,4.68682134843,-1.43611033437
16,34,-5.83301999742,8.11957463853,-5.23935966326
16,35,-10.168119654,13.8026963476,-7.3304213973
16,36,-10.239398824,16.8965871531,-4.36005150321
16,37,-4.53781785264,17.1425466647,2.67719948445
16,38,-0.628435950966,13.5417951758,0.206906443152
16,39,-2.30224004886,9.43281190993,-5.50275331175
16,40,-4.15600991016,7.55543104844,-4.86890048804
16,41,-4.74301403831,6.96033317466,-1.46210132502
16,42,-3.69457395186,6.29830081664,-1.70766085656
16,43,-2.99019901326,6.28752437207,-1.36240009537
16,44,-3.08788347511,7.67090314201,-0.6216889315
16,45,-2.80001025821,9.31237371336,-0.696372788953
16,46,-2.09739047405,10.0399823897,-1.90794177302
16,47,-1.49233172304,9.59388539155,-3.11761400144
16,48,-0.717987739227,8.37264675285,-3.4599150011
16,49,-0.251949531735,7.49612541414,-2.49078574939
16,50,-0.127597011241,7.58993692722,-1.47666912163
16,51,0.198466554136,7.68007072975,-0.687501670575
16,52,0.801253859762,7.92706810167,-1.45343782189
16,53,1.09997512016,9.99151759243,-3.12160222268
16,54,1.09443526685,14.1993352827,-4.12190051966
16,55,1.29292709965,16.5931091496,-3.67304593607
16,56,1.1376534181,14.81992761,-1.35687353373
16,57,0.766353108572,11.5690377961,0.889864127442
16,58,0.759332397455,9.55608812892,2.38607700889
16,59,1.24203691938,8.93910282794,3.32875176984
16,60,2.06399640931,7.36317812612,9.0366900701
16,61,3.12608938976,7.99332651321,8.98616139035
16,62,3.38568645617,9.34881285716,4.41267108937
16,63,3.69709055275,8.87578323208,0.814031410188
16,64,4.29732960306,7.48652075872,-1.46124300501
16,65,4.79571792667,6.99624676979,-2.62834421854
16,66,4.44440203177,7.75616300563,-3.26814362485
16,67,3.29112285784,8.91833658185,-1.89464075711
16,68,1.628925347,9.50151372252,-0.083492691474
16,69,0.346678299295,9.84276622217,1.06642850888
16,70,-0.00331378491336,10.2385331664,1.7239089731
16,71,-0.397404316619,10.556590393,2.09972557347
16,72,-1.01988460954,10.792332578,2.53781827035
16,73,-1.36869044175,11.2260023092,4.02481139262
16,74,-1.98635335614,11.6714914128,9.81253716198
16,75,-2.39626175702,11.9401903731,12.2464040915
16,76,-0.701409749131,11.2791012016,4.46402058548
16,77,0.936895429957,10.2701264779,-3.2871751397
16,78,0.590994020618,10.3499034165,-3.73603277045
16,79,-0.865091939018,11.0966307156,3.05722956431
16,80,0.114327254268,11.2719157001,-5.06636079537
16,81,1.8987510458,10.5765039593,-8.73028049859
16,82,2.80770200773,12.649958814,-3.22613007054
16,83,3.65564106733,15.2856593107,1.91793073583
16,84,4.13254085127,16.961885954,1.88595509193
16,85,3.34841398408,16.9182469743,-1.47815023817
16,86,1.40399473372,15.2076363118,-1.70456409337
16,87,-1.08074981349,14.2730991635,0.953594479142
16,88,-2.9074062556,14.9915494727,2.16459767455
16,89,-2.27865261678,15.086947981,0.160407344581
16,90,-0.928279712463,13.5193267581,-0.362070423979
16,91,-0.282998982581,12.6323517449,-1.00952982561
16,92,0.261099563557,11.2440410968,-2.9667546408
16,93,0.0846392235739,9.9894572732,-6.34662711994
16,94,-1.14040550995,9.57283510853,-6.91731326723
16,95,-2.15271413936,9.08737095747,-5.54149719223
16,96,-2.63994449266,9.25079482244,-4.20245010575
16,97,-3.26598077795,10.7193801704,-3.26117158114
16,98,-4.48150076591,15.2753323172,-2.89137866073
16,99,-3.95533319295,19.2857450082,1.85872825959
17,0,-3.95533319295,19.2857450082,1.85872825959
17,1,-1.69399106967,17.8870284823,10.4515399755
17,2,-5.48451560063,18.2915996744,4.33321481212
17,3,-6.82159403442,15.5976358796,-0.461793730163
17,4,-6.38215989269,12.5388018966,-2.80337845422
17,5,-4.56315495863,11.5506120574,-3.52335328814
17,6,-2.14269304566,10.3964739953,-3.47572655371
17,7,-1.13334620121,9.1061476356,-3.24859561738
17,8,-1.19731700443,7.80662701063,-2.67436900311
17,9,-1.65428514612,6.81518311768,-2.50640726689
17,10,-0.398963320111,6.27150669942,-4.42370890733
17,11,-0.555470112347,6.40652559549,-3.60689364766
17,12,-0.350669868627,6.62454843806,-2.37784112356
17,13,0.382385317936,6.0742659233,-1.01587162916
17,14,0.78957649304,5.11691270549,-0.0593270007982
17,15,0.162855946747,4.5434564968,-0.423443666069
17,16,-1.08310121441,4.24299996333,-0.873991058194
17,17,-1.88106257027,4.03610647261,-1.28821785805
17,18,-2.99832178226,2.8016579709,0.0312529004952
17,19,-3.33641623901,2.11784948421,-0.273180403919
17,20,-3.64381348687,1.90139531587,-0.872099692225
17,21,-3.66328192221,1.56824941062,-0.839828674481
17,22,-3.35018045914,1.43643814067,-1.2861836308
17,23,-2.83553519273,1.53477001422,-1.82639598067
17,24,-1.99643718907,1.92377215194,-1.36484125902
17,25,0.287135081438,3.46596995743,2.85130212005
17,26,5.25056428418,8.35347413731,5.25969007651
17,27,12.5599851952,8.87787388133,19.5657714126
17,28,22.1519305108,0.424683837189,25.2506591913
17,29,21.2678771733,1.71391925172,20.664799738
17,30,14.9584498622,4.98093314362,9.07121735166
17,31,6.08630653667,3.84863816614,1.2582047391
17,32,0.548548578419,4.79696133996,-0.409413579089
17,33,-2.20191751511,4.4203682797,1.66245812239
17,34,-3.59669349831,4.28852166212,0.998635353508
17,35,-4.13866832073,5.18677118424,-2.7643790169
17,36,-5.63418726905,9.66239333864,-7.93536408679
17,37,-6.21997405326,15.5405458049,-8.55957039753
17,38,-6.23272950553,17.5487288909,-4.49649263332
17,39,-3.01833896421,17.5244000993,-0.353846233699
17,40,-1.57146929095,15.3425156499,-1.73633361285
17,41,-1.61417928474,11.7480967355,-4.39380048086
17,42,-1.45008484881,9.30893543488,-3.3031232246
17,43,-1.65388478934,7.43952296535,-2.60218727032
17,44,-1.9139663494,6.16066255949,-1.23895195774
17,45,-2.2577231827,6.47295326584,0.0801438053824
17,46,-2.73888520479,8.18867233651,0.106410676934
17,47,-2.74638365961,9.28220397892,-1.10212961049
17,48,-1.75880837235,8.56182716756,-1.80196773966
17,49,-0.688216006096,7.42136004463,-1.93475929154
17,50,0.457707797276,6.8458623376,-1.28135924472
17,51,1.36205880568,6.78627816635,-0.789484056495
17,52,1.52789892326,7.62273394493,-1.12122511786
17,53,0.543750410679,11.3997925579,-2.38989939178
17,54,-0.624911213006,18.2150510618,-4.34394706273
17,55,-0.103164558078,19.6443809429,-4.86893209287
17,56,0.964220769685,14.7983844134,-2.37270986687
17,57,1.21769840802,10.6043864711,0.414845369289
17,58,1.15503145761,9.15019563471,1.84500960134
17,59,1.07259499977,8.63267534842,2.34395180565
17,60,1.13852243681,8.03927122834,3.26541682246
17,61,1.84714964779,6.72690135882,8.18524433979
17,62,2.34530102044,6.86917854078,11.2653555979
17,63,2.1298485634,8.65705789203,4.09711120905
17,64,3.34217512716,7.83811029987,0.642462021598
17,65,4.59673431106,6.3667402879,-1.09329345418
17,66,3.66833023793,6.70157958368,-2.63376458476
17,67,1.15068293512,8.35335100335,-3.17282650614
17,68,-0.234518442983,9.37901801,-2.37125556353
17,69,-0.093330517771,9.15122779397,-1.019502602
17,70,0.0710056236023,8.52992926405,-0.0784998278437
17,71,-0.376974789379,8.45809152964,0.329866148461
17,72,-0.717673324074,8.61549045107,0.241744078034
17,73,-0.671223189982,9.2823270198,-0.0749881078048
17,74,-0.176768573625,10.3708926744,0.0779138930223
17,75,0.718918638493,11.7566748421,0.78796421494
17,76,0.885046147795,12.2054807732,1.50038195742
17,77,0.54007279143,12.3819615673,2.99951492615
17,78,-0.957085199565,12.0320320888,12.2524093102
17,79,-2.1618894066,12.3130676678,14.3185240667
17,80,-0.592142075668,11.1911488252,3.25629224553
17,81,1.51783520663,11.0574387619,-4.2170704431
17,82,2.38131530045,13.2998416877,-13.7700576614
17,83,3.49698171948,14.2197000706,-9.16791043225
17,84,5.25223392563,13.9918716333,2.43148447668
17,85,4.88705625033,14.7437409843,4.28058426858
17,86,2.20640182506,15.1956064059,2.35689215333
17,87,0.70494943615,15.9830360928,0.51372616984
17,88,-0.334400991428,17.0942033856,-0.454881156753
17,89,-0.680358420834,15.8234676735,-1.43320797113
17,90,-0.231068607848,13.2696000259,-0.567505113918
17,91,-0.282599523271,13.0503078123,-1.92777581434
17,92,-0.675469557054,11.8725943179,-3.28311018789
17,93,-0.529846580084,10.1822227519,-5.26546620111
17,94,-0.289348971779,9.78163420586,-6.82994845083
17,95,-1.23387231441,9.65883871869,-5.52001863145
17,96,-2.70744565034,10.1133717965,-3.13483886256
17,97,-3.9731613345,12.0554828951,-2.08435829547
17,98,-5.06568794831,16.1909366614,-1.73383905082
17,99,-4.79325170803,19.2058811676,0.946262916073
18,0,-4.79325170803,19.2058811676,0.946262916073
18,1,-4.44822238459,18.5247568725,5.73947421099
18,2,-7.48482746414,17.9033967071,4.87145361865
18,3,-9.0043436193,15.4763645502,3.02945605065
18,4,-8.72064442246,14.0976607044,0.220213352444
18,5,-6.11551487522,12.5165375943,-2.81982654245
18,6,-2.34074440422,10.1880295048,-4.72400168409
18,7,0.355722381358,9.10843790598,-4.19577052581
18,8,1.53541748919,8.62687956182,-4.26792567135
18,9,1.95976410677,7.88608209769,-4.91124895191
18,10,1.54104178834,7.70727483761,-5.60936680462
18,11,1.20257531879,7.24804578353,-3.78535290008
18,12,1.25588153113,5.70157897528,-0.407847511501
18,13,0.624313532381,4.51092842416,0.400811451276
18,14,-0.392721561187,4.26279608521,-0.5759609072
18,15,-0.740474810954,4.22597509867,-1.34509347909
18,16,-0.726142539215,3.71470894719,-1.26853766679
18,17,-0.900943782442,3.00407330357,-1.2951709823
18,18,-1.10139692687,2.08288531524,-1.40417570276
18,19,-1.75550712367,1.01647148818,-0.762554518236
18,20,-2.77269924744,0.562641505567,-0.105109651853
18,21,-3.01401752115,0.659606149535,-0.431193953993
18,22,-2.67073854478,0.910302206578,-1.16443745761
18,23,-2.10348615547,1.17022922504,-1.54610027899
18,24,-1.30236833915,1.47528355391,-1.93977878069
18,25,-0.703923262429,1.53979648643,-1.46044554835
18,26,0.141387511602,1.85979975632,2.0608386662
18,27,5.38932499793,7.79524678014,10.5478423588
18,28,15.8021574229,11.6789467979,20.0371926403
18,29,18.9675683783,11.0720557866,21.8260062085
18,30,16.0719405597,12.1264648061,13.8401451533
18,31,9.5769709648,4.41240136673,3.73857053672
18,32,2.24677629448,4.20989517878,-4.64827121225
18,33,-1.37293646564,4.7883414683,-0.598415880239
18,34,-3.69450864503,5.43772337931,1.39048251025
18,35,-5.89333921091,9.40645453742,-0.973481398377
18,36,-8.13176906184,14.7564578158,-7.73589165541
18,37,-8.81941150888,16.6690017597,-8.72012775237
18,38,-2.39535361256,14.3737045169,-3.06248308444
18,39,-0.0678242378836,11.1263027614,-5.33526251051
18,40,-2.33626027749,9.05994000653,-6.44719994118
18,41,-2.9055438612,6.88838842975,-2.10507087557
18,42,-2.64085512527,5.43993428669,0.425850286696
18,43,-1.95366314888,4.52586356376,-0.153580816169
18,44,-1.70152007488,5.12680058635,-0.340224321915
18,45,-2.04995463286,7.86315910073,-2.3187831017
18,46,-2.90456387292,11.2103537727,-3.9766265037
18,47,-2.93884449908,12.3447635593,-3.67861040602
18,48,-2.01781485513,11.0799861459,-2.28305726453
18,49,-1.0799964612,9.25571310058,-1.22246475182
18,50,-0.513221858541,8.23871590632,-0.799294088528
18,51,-0.105194039376,8.29824051759,-1.01853613189
18,52,0.496299877964,9.01585645168,-1.9890212705
18,53,1.11315056256,9.90528513727,-1.97489902403
18,54,1.15407229258,12.3341020266,-1.38297894509
18,55,0.608778003278,15.9329214019,-0.160817047224
18,56,0.506510450795,16.460331412,0.700772979677
18,57,0.891490413174,13.3120325295,1.38663103227
18,58,1.47077061453,10.0600684796,1.984211355
18,59,2.22461472425,8.19612455608,2.2282978942
18,60,3.10452281481,7.42869495311,2.04482220197
18,61,3.65390602357,7.28682539598,1.95760847229
18,62,4.08094689535,7.98369919914,3.10356466833
18,63,4.37603528138,7.86654175588,8.84149881915
18,64,3.75671842279,8.85015831493,7.37071268383
18,65,3.78283385232,9.09153975995,1.49222110061
18,66,3.33483506803,8.70967502011,-0.461251547832
18,67,2.32876636605,8.84596815246,-1.52916956813
18,68,1.58361689522,9.48681464793,-1.31984566365
18,69,1.31961291237,9.64240611457,-0.731393181682
18,70,1.04498066763,9.18910005898,-0.556622092204
18,71,0.634285198308,9.09479959168,-0.437688441705
18,72,0.550490823341,9.39634653115,0.0655189622116
18,73,0.569653611606,9.92734058412,0.93778197914
18,74,0.327702777751,10.9384262178,2.35297064738
18,75,-1.23272129039,11.8651367508,11.0749890576
18,76,-0.590989930753,11.1548013083,3.71267100139
18,77,0.627968422127,10.2981660138,-3.63085858123
18,78,0.0684534048211,10.4900835083,-4.14784124066
18,79,-0.942745186418,11.0590555843,0.981959751177
18,80,-0.662280657953,11.277808906,-1.61896119685
18,81,-0.422568589648,12.7010202744,-7.06503058513
18,82,-0.00606198551213,15.0023009728,-1.23907817621
18,83,3.11685018068,15.4397784904,4.08347778162
18,84,4.18055022585,15.0203585144,0.404806270505
18,85,0.567864968631,13.7049192227,-2.02363179887
18,86,-0.546658896507,12.3659366155,-0.56844858939
18,87,-0.827861130325,13.4187515974,1.44534481208
18,88,-0.970549131109,15.2438758977,-0.243543922121
18,89,-0.18564849727,14.9974486993,-0.715261393256
18,90,0.611241739042,13.822528016,0.279338988373
18,91,0.897249229565,12.4469663606,0.352153578998
18,92,0.293259993387,11.8867853778,-0.0787460967716
18,93,-0.579443217998,11.7837971012,-1.50606380981
18,94,-1.5571222891,11.550261408,-3.75719640166
18,95,-2.90428137554,10.4180373563,-5.37828388976
18,96,-4.14714972391,10.5333109987,-5.65295900739
18,97,-4.99022775012,11.7877123764,-5.15047356662
18,98,-5.47785276769,16.4110928541,-3.56399531268
18,99,-3.3094050464,18.768290402,4.93619052719
19,0,-3.3094050464,18.768290402,4.93619052719
19,1,-2.68116808065,18.2222508869,9.32305781496
19,2,-5.3346287739,17.887853252,6.82252154063
19,3,-6.65195445845,14.1598832061,1.47655651376
19,4,-6.24150254005,12.4030217371,-3.6348533918
19,5,-3.27754399966,11.2761370707,-6.20623581912
19,6,-0.686267477317,9.92620364079,-6.00435178325
19,7,-0.0123772529064,7.9422794789,-4.72976000343
19,8,-0.144811066721,6.46271070735,-4.67853865725
19,9,-0.321263205883,5.97427853014,-5.74655680674
19,10,-0.0755765023709,5.88391222192,-5.91873750666
19,11,0.376987474401,5.07428429527,-3.41437107175
19,12,0.385307599766,4.48991415083,-0.425903942446
19,13,0.169576018756,4.02996263027,1.21367387792
19,14,-0.189434052263,4.51727993246,0.452137085568
19,15,-0.693768992031,4.73266435039,-0.670323971321
19,16,-1.37979276829,4.24766691804,-0.330766487736
19,17,-2.11024954287,3.71736658113,-0.0848912880276
19,18,-2.61957454241,3.26064082135,-0.359751891174
19,19,-3.21135227127,2.85566129569,-0.395600620598
19,20,-3.61204387483,2.4617456454,-0.333791713392
19,21,-3.58238832176,2.02328481369,-0.424148893239
19,22,-3.1879529478,2.1193544863,-0.823740400417
19,23,-2.26967405684,2.07298070126,-1.49743168465
19,24,-1.44911845485,2.20146850796,-1.2272944663
19,25,-0.665925425906,2.18017183482,0.927242285604
19,26,1.8690555324,4.89943331197,4.46751429565
19,27,8.98857058127,8.64720094613,14.2179707266
19,28,19.1806284837,5.35564002832,20.4714842635
19,29,22.1321348793,4.87564254631,12.2493386033
19,30,12.7980909215,3.59554120163,4.85185296051
19,31,3.21624219801,5.07826721404,0.0804431246713
19,32,-0.612195530116,5.57191211916,1.15865716364
19,33,-2.58225061294,5.43842433056,2.74019030281
19,34,-5.34901991257,7.7041269349,-0.746707077278
19,35,-8.62925494625,14.0710847282,-7.1991390924
19,36,-7.53115271038,16.5272229232,-7.41451995935
19,37,-4.85111138941,12.8531994756,-3.93211720087
19,38,-2.32667136497,10.1338083787,-2.85147876455
19,39,-1.73867128317,10.1978917442,-3.39999535212
19,40,-2.06340635198,9.66010654435,-2.94190262886
19,41,-2.07219822026,9.04517148769,-1.45760956882
19,42,-1.33166394494,8.51035782086,-1.49529636905
19,43,-0.176309241382,7.723337394,-0.292811871203
19,44,0.0205702815018,8.19087592463,0.726557087941
19,45,-0.769790850844,10.1591996398,-0.922378124711
19,46,-1.67070423842,11.1132736289,-2.61457380617
19,47,-2.01734065648,10.4307377984,-2.45409027108
19,48,-1.59195140198,8.97045718912,-1.53148919357
19,49,-0.784591817008,7.90107296519,-0.754717499872
19,50,0.158090943745,7.4866721011,-0.462105605135
19,51,0.848035711758,7.79065222375,-0.506285781061
19,52,0.826361492316,10.0226775287,-1.01668420814
19,53,0.370201883481,15.2891606766,-2.4753250521
19,54,0.470434517008,18.5590024938,-3.41138333914
19,55,1.03281969827,15.6460025198,-2.41254479345
19,56,1.15770561487,11.4979360127,-0.298475451739
19,57,1.32507210004,9.51473684825,1.36570466904
19,58,1.74512872443,8.7320093527,2.28718377753
19,59,2.29420484244,8.40300766165,2.64023928223
19,60,2.8278821687,7.53673505767,4.65931714715
19,61,3.06832769534,6.84189514096,10.3957499293
19,62,2.47679001856,8.37435364223,8.14429654455
19,63,2.61867552719,8.51828225449,1.36804605086
19,64,3.67331393135,7.19459876882,-2.00881504897
19,65,4.70718904491,6.55673551538,-3.81408925747
19,66,4.41426106146,7.50139915601,-4.04817348534
19,67,2.11244690622,8.82300135837,-3.24822406404
19,68,0.13303148884,9.68525289556,-1.6726765992
19,69,-0.366733997048,9.73144254609,-0.132160545752
19,70,-0.336351819706,9.27315672178,0.739409391209
19,71,-0.371353497966,8.85709701152,1.25595859503
19,72,-0.608690795738,9.12450266264,1.47893948499
19,73,-0.918530535171,9.98921274456,1.47195521886
19,74,-1.00176616423,10.9569687682,1.77059290965
19,75,-0.723514953338,11.5353522773,2.59347365649
19,76,-1.32895362181,11.3635443248,8.36728948666
19,77,-2.93471511348,11.3803070456,16.8770613088
19,78,-1.82405661513,11.6868405719,7.09940971646
19,79,0.222068628331,10.484994417,-2.20686880672
19,80,2.42966964552,11.806395166,-6.85993251488
19,81,3.25818533831,12.2184879811,-12.2641064372
19,82,4.21777931928,14.2900365218,-3.15763716516
19,83,5.05597659453,16.6808432192,4.77289318208
19,84,5.08878678638,17.6841257055,3.87541071493
19,85,3.63555160317,16.4367885501,0.87259104267
19,86,0.860454054996,15.3626854226,-0.172934558086
19,87,-0.999369002477,15.5207854422,-1.40578144931
19,88,-0.936237675097,14.5352505255,-0.559782754697
19,89,-0.012063678637,13.0181047814,-0.352377904925
19,90,0.598291092344,12.5688242582,-1.44906675412
19,91,-0.0815488445262,12.4445270329,-2.10045587621
19,92,-0.981222790898,12.2033197653,-4.77619447166
19,93,-1.26494476747,11.6641372988,-8.49293485493
19,94,-1.35999281092,10.3377618257,-8.78596238907
19,95,-2.11923826148,8.84545314247,-6.20395204464
19,96,-3.06700746413,8.63982351301,-3.72215915024
19,97,-3.89336900386,10.7359153811,-2.27593916083
19,98,-4.82502069819,15.8602554248,-2.0861708783
19,99,-3.82633648127,19.0849938983,2.87370663015
20,0,-3.82633648127,19.0849938983,2.87370663015
20,1,-4.43472306422,17.5733100074,9.9259196144
20,2,-8.41589369313,17.484090066,5.29815266318
20,3,-9.21311371249,14.1593481224,0.263839555012
20,4,-8.34229554559,11.9310149179,-2.43381528491
20,5,-5.74204133161,10.4710777885,-3.22577687532
20,6,-3.00309384019,9.53900767115,-3.18962645735
20,7,-1.17711547165,8.60182484214,-1.931092255
20,8,-0.448279825281,7.84678735469,-1.49432884796
20,9,0.90314738723,7.38360777685,-3.92636380574
20,10,0.795332534183,5.90849232292,-3.99157289876
20,11,0.773306611257,5.47594050222,-3.53564246828
20,12,1.01672155865,4.98333311772,-0.809710231764
20,13,1.06952007078,4.42304786796,0.666857726485
20,14,0.538080680011,4.53584411845,-0.458193353931
20,15,-0.10371447974,4.6397467351,-1.35604347815
20,16,-0.596040423536,4.36853547795,-1.258316526
20,17,-1.17378175836,3.54819977006,-0.736905196387
20,18,-1.99203383749,2.85989050663,-0.548090954378
20,19,-2.82078996563,2.65270673331,-0.582337167189
20,20,-3.45225063825,2.86016590798,-0.688188063967
20,21,-3.22688969321,2.92635023034,-0.67920344935
20,22,-2.55570025413,2.93992303297,-0.693214692706
20,23,-1.83436449071,3.44165529677,-0.971001044644
20,24,-0.996385991984,3.90124358881,-0.787370584415
20,25,-0.0264361415904,4.02886263552,1.54808960729
20,26,1.8187746887,5.12832989951,5.74423773724
20,27,7.11743517254,11.6876460774,7.39669414326
20,28,13.8805255063,13.3316101931,18.23152533
20,29,19.8865058816,10.8081724826,22.384584651
20,30,17.3037777412,11.8388269933,18.0086322461
20,31,10.6424313788,7.59042733982,10.0771726475
20,32,-0.813147348051,5.05652999985,-4.48674976999
20,33,-2.01874444285,4.57926818077,-1.93523641805
20,34,-3.51137706878,5.93329205581,-4.40053994172
20,35,-5.40987307212,9.91280553471,-8.52726390185
20,36,-6.53695875578,14.5596366903,-7.67835828896
20,37,-4.87774691051,15.3264505869,-2.16331665751
20,38,-2.225020321,14.09304632,-1.52284598943
20,39,-0.682284342032,13.0261795972,-4.33658551866
20,40,-0.620997987692,10.7193495892,-4.35312477878
20,41,-1.42581154183,8.70100075577,-0.550202465265
20,42,-1.58743714856,6.67847422579,0.541830703054
20,43,-1.43078605972,5.1481536314,-1.41637325056
20,44,-1.48649141766,5.29790787273,-1.74469436298
20,45,-1.85225712247,6.76315739803,-2.4208645786
20,46,-2.15097432765,8.47455748587,-3.32728826427
20,47,-1.96053080124,9.24894171963,-3.27991645227
20,48,-1.22014567449,8.93669538268,-2.45248562365
20,49,-0.318206358756,8.6645145702,-1.91877582922
20,50,0.539410903514,8.84791733935,-1.0933777759
20,51,0.670974924764,9.73363702487,-0.677010907004
20,52,0.290342105718,12.9439289395,-1.43456633199
20,53,-0.36208824778,17.7716023655,-2.40895929598
20,54,-0.243033669527,18.4330823444,-2.31223228898
20,55,0.415018279172,14.3124358483,-1.02915723448
20,56,0.92289810161,10.3219078652,0.593934523414
20,57,1.40210564646,8.41028510042,1.92976377189
20,58,1.91132235002,7.90605970694,2.59564273342
20,59,2.1219715735,8.16908577328,2.82879592822
20,60,2.42216228601,8.65383034781,3.97994986176
20,61,2.43190755063,8.01367034039,9.51010264812
20,62,1.87970277624,9.48333475459,6.61618027719
20,63,2.75447303147,9.10498893946,0.778877029624
20,64,3.91096738732,7.39416511361,-1.97506167498
20,65,4.1425053455,6.69339741061,-3.42657995651
20,66,3.17084822511,7.35511633707,-3.25636217252
20,67,1.67724350059,8.33515478956,-1.89288773527
20,68,0.808021557772,8.99378093414,-0.469354719333
20,69,0.458036018701,9.14805557676,0.457023275406
20,70,0.0463126492407,8.83679738088,0.753326424336
20,71,-0.456192263477,8.80099395104,0.839209263295
20,72,-0.693948885337,9.12677254956,0.633333858518
20,73,-0.79723638478,9.76076733125,0.43027416546
20,74,-0.678735959802,10.6801142867,0.853270950328
20,75,-0.379855000334,11.533335939,1.97742659369
20,76,-0.540085836379,12.1354710108,4.45356602798
20,77,-1.88997093805,12.413206804,11.8573201609
20,78,-2.29735466841,12.6388857045,10.788761075
20,79,-0.698027018567,11.3402745179,1.77782219669
20,80,0.975801302529,10.7741713654,-1.74574002952
20,81,2.29959118109,11.1759994364,-5.8551693534
20,82,3.53830094176,12.0009274179,-10.0654886316
20,83,5.21154566084,15.2271849396,2.36564509589
20,84,4.53277301875,16.2061061355,2.40255404439
20,85,2.51248724757,15.0330715417,-2.09435268315
20,86,1.13025198404,14.0345164167,-2.66570341536
20,87,-0.321038411292,14.6822781516,-0.909212096577
20,88,-1.36824302905,15.4274969748,-0.0121243573968
20,89,-1.00876600781,15.4692105791,1.39528832316
20,90,-0.843312386595,14.885222978,1.03014971034
20,91,-1.46806110252,13.9391900718,0.182182742996
20,92,-2.15044623898,13.1953458272,-0.447560758052
20,93,-1.56872945114,12.0351113635,-2.90223971409
20,94,-0.742682907654,10.2576161758,-6.08865365947
20,95,-1.3956112019,8.72547852414,-7.29281417851
20,96,-2.43340509144,8.86119692437,-7.20395331076
20,97,-3.54275554114,11.2030666146,-6.77616711649
20,98,-3.38703368996,16.3937817625,-4.97506876635
20,99,-0.805766401563,19.7052836562,1.94355174004
21,0,-0.805766401563,19.7052836562,1.94355174004
21,1,-3.75261689002,17.8205640472,9.49762524396
21,2,-9.07856144948,16.778221424,9.80844542475
21,3,-10.3041441643,14.3158130005,3.04450390767
21,4,-6.01526088119,12.7741230012,-3.57053554205
21,5,-1.48242311337,10.1443703751,-6.30118306416
21,6,0.043157922407,9.29381388676,-6.23382967477
21,7,0.0700908638449,8.57793773097,-5.12076946574
21,8,0.201431441206,7.58328863322,-4.35168601737
21,9,1.38207494115,6.61732895498,-5.8297827304
21,10,0.561131392781,6.14678539685,-4.26439306426
21,11,0.181267224782,5.08189631184,-1.0270613717
21,12,0.0231076195909,4.65627483812,0.429830690781
21,13,-0.25102268941,4.68212156907,0.504140799878
21,14,-0.445415007513,4.36599706934,-0.0366826781857
21,15,-0.567442833231,3.8165883404,-0.416679215851
21,16,-0.813263247472,3.25142709394,-0.389761531193
21,17,-1.00769978587,2.72445027048,-0.598897296681
21,18,-1.38648670391,2.8179915988,-1.01912047706
21,19,-2.44870471987,2.66651015986,-0.13488122818
21,20,-3.54879376685,2.8729299312,0.00987494805564
21,21,-3.74032296158,3.13288010586,-0.654661026875
21,22,-3.5441612923,2.73043603847,-0.587763451622
21,23,-3.16046765293,2.47994935427,-0.545652990576
21,24,-2.60882109537,2.72031446463,-0.540314694296
21,25,-1.87667050806,3.28451149535,-0.107491231287
21,26,-1.03815448235,3.89197287379,1.70351269296
21,27,4.71489501491,8.55978090566,0.611246954907
21,28,12.5286974145,7.53985917553,16.4919769209
21,29,19.8029618965,-0.27442029578,25.6206609155
21,30,21.0946152226,0.306826059176,21.6696601131
21,31,15.5577633384,2.37443362128,10.8924356551
21,32,6.43592815946,3.00574671234,-0.480604552718
21,33,-0.784867561931,2.68291100107,-5.49620336683
21,34,-1.84087917402,1.61664033946,-2.00914487374
21,35,-6.3838825404,7.67431381108,-6.18183656447
21,36,-10.9403349053,15.4662232136,-6.1464543529
21,37,-12.2028137306,16.0941935221,-1.27682502383
21,38,-6.27739649108,17.0985818036,2.86989661369
21,39,-2.01274701041,13.1957541776,-0.504720723387
21,40,-1.46210673997,9.12904183702,-8.00993160439
21,41,-0.78087807973,7.73894286132,-7.34399570691
21,42,-0.630064218009,6.40870680613,-3.00483100123
21,43,-0.85102302347,5.05095917447,-0.285385002872
21,44,-1.13354995424,5.4712002302,0.117260021259
21,45,-1.68051058649,7.52636102968,-0.63487260465
21,46,-2.40763124637,9.32961541233,-1.60879822888
21,47,-2.61929239067,9.6219819046,-1.72546780117
21,48,-2.15617387176,9.21795510873,-1.28904746086
21,49,-1.0727323018,8.93875825398,-0.247778234936
21,50,-0.00232389090511,8.7414792172,0.532402850592
21,51,0.519835081553,9.23958327886,-0.140062867311
21,52,0.396327307757,12.3002494962,-1.72306515103
21,53,0.173569505203,16.3448286475,-2.51558374269
21,54,0.759341735737,16.5980014284,-2.07935372223
21,55,1.57768440205,13.5743878159,-1.48724321613
21,56,2.04023104067,10.5469739362,-0.323388478487
21,57,2.32646490136,8.83605516073,1.65225999095
21,58,2.89772695499,8.3526757999,2.16702259912
21,59,3.82155053586,8.06175224735,0.292842470921
21,60,4.3687168905,7.89916880348,-1.87696806637
21,61,4.47774913883,7.97941009199,-1.80472559129
21,62,4.3272618296,7.95228662928,-1.55424005107
21,63,3.37932254836,8.02420669632,-0.832082410623
21,64,1.51308942766,9.04308316044,0.447026112939
21,65,0.771053548382,10.1052396597,1.3826929887
21,66,0.987394749294,10.387832679,2.30886154627
21,67,0.750349400941,10.077021228,2.73542267337
21,68,0.277770387698,9.45395761662,3.14119009765
21,69,-0.0142761508424,8.74311833962,3.50117480019
21,70,-0.0931344764136,8.54261298578,3.25882315949
21,71,0.00402053207796,8.90600932958,3.00960909982
21,72,0.0399484785322,9.58589533453,5.17476817061
21,73,0.195988430421,10.3070076151,10.1807696502
21,74,0.160414901636,11.1140597625,8.33520794393
21,75,0.0988669890363,11.0625387177,1.51269078999
21,76,0.386709879255,10.8845239047,-2.20202659049
21,77,0.242659702195,11.5306543541,-0.146444596085
21,78,-1.03878300508,12.5077060347,5.41197189931
21,79,-1.73077374497,12.5732047999,-0.468169178797
21,80,-0.282692536183,10.6683258102,-11.2981509599
21,81,1.70556629114,11.3824598374,-10.1510768695
21,82,3.35621595359,13.4082042775,-5.4912614019
21,83,3.86450385157,15.2464140229,1.0927967381
21,84,4.33858264145,15.8443150781,3.6418020721
21,85,3.5586550485,15.4737472761,0.0767987086176
21,86,0.81124888598,14.9287582293,0.102028503815
21,87,-1.78939717718,15.2742585185,1.13661499159
21,88,-2.69749360616,15.5736227727,1.68413940352
21,89,-1.56428260799,14.835734585,3.3948253489
21,90,-0.104178166587,13.6833370915,0.610269027088
21,91,-0.0253227165746,12.8481082931,-1.41914414964
21,92,-0.754342475378,11.9940229015,-1.71452950507
21,93,-0.591301230173,10.4292764519,-3.6481822932
21,94,-1.08103300752,9.63924905088,-6.5744565907
21,95,-1.88088972299,9.22063931585,-7.25891659565
21,96,-2.49110991388,9.41766929089,-6.13885336117
21,97,-3.49901061039,11.2853556236,-4.49600040693
21,98,-4.53103343242,15.5402815466,-2.6411685799
21,99,-4.14457628364,19.1340425478,2.44729231372
22,0,-4.14457628364,19.1340425478,2.44729231372
22,1,-3.30018377795,18.2038191544,8.02322204472
22,2,-6.39427090916,18.2289064901,4.99209700365
22,3,-7.43322274913,15.851148705,0.881331416015
22,4,-6.50512195063,13.0118102369,-2.06563314611
22,5,-3.64578214537,11.606452383,-3.40350894446
22,6,-1.07641580069,10.4434667752,-3.69842378674
22,7,-0.161218948273,8.6701221745,-3.48332589661
22,8,-0.0546929330415,6.88696132549,-3.25807333068
22,9,0.177782380589,5.59638147144,-3.78995901135
22,10,0.187968532697,6.2478868592,-5.95662428652
22,11,0.0529106973682,6.48075364395,-4.1178859139
22,12,0.100003786007,4.90486745979,0.131173351461
22,13,0.481063658337,4.15752317282,1.12156624786
22,14,0.400871468455,4.23194993737,-0.248279056548
22,15,-0.259565184246,4.41022697783,-1.61513615469
22,16,-0.88172802481,3.95864680033,-0.83988424471
22,17,-1.01065478481,3.26947820655,-0.668968468188
22,18,-1.52068198744,2.95299004921,-1.15681931989
22,19,-2.50066855023,2.42039145936,-0.592622207846
22,20,-3.32500132434,2.46398099084,-0.506318828568
22,21,-3.54639737117,2.58398149301,-0.670688687624
22,22,-3.15880689691,2.41336071784,-0.684640799874
22,23,-2.43631834261,2.25146384863,-1.11003659888
22,24,-1.63686532457,2.23478466717,-1.61750202641
22,25,-0.808587653601,2.51893663999,-0.376126352799
22,26,0.204792326811,3.33614370183,3.99030635749
22,27,6.4365346948,12.226820463,3.66602438558
22,28,13.5531517459,8.27561087993,21.277367675
22,29,19.0871142887,4.1623690058,25.4725932415
22,30,16.933642362,7.44595639314,18.4491637543
22,31,12.099004696,5.36776340039,10.2420848482
22,32,4.69298639347,5.42163742287,-1.28765207623
22,33,-0.033404225019,3.37374354649,-2.30011210952
22,34,-2.69546287856,3.69387297556,0.237183181776
22,35,-5.37156633885,7.04876827664,-2.82601799212
22,36,-8.1426207875,13.4100359925,-8.16398886516
22,37,-8.53224192555,17.2581512869,-7.46306042885
22,38,0.609167612684,14.9309350087,-0.946975244981
22,39,-1.27794484229,10.9105638035,-7.83087564688
22,40,-2.11038878844,8.03146385174,-5.6854236331
22,41,-2.73463322148,5.94192622844,-1.45181110395
22,42,-2.45618830613,5.11357575707,-0.0627786593173
22,43,-1.81076249062,4.93860317279,-0.325229278278
22,44,-2.32146039215,6.62565109325,-1.31373910712
22,45,-3.0854077122,8.96195356328,-2.03753332868
22,46,-3.45209866479,10.389924767,-2.15882771642
22,47,-3.09679494334,10.156049089,-1.98744828323
22,48,-2.07545753699,8.7077321885,-1.59990863154
22,49,-0.794387460251,7.26250122028,-1.40252762321
22,50,0.0342680787176,6.80995749383,-0.668568784086
22,51,0.46386344735,7.02600248103,-0.427282019351
22,52,0.842751540307,8.31752286313,-1.0617064213
22,53,0.717441171285,12.565859428,-2.49288998796
22,54,0.574390318344,17.7280620519,-4.08931258474
22,55,0.794800433187,17.9016572867,-3.34845029512
22,56,0.873251103977,13.9144322136,-0.605178093861
22,57,0.935666687343,10.5004255328,1.67161345062
22,58,1.29303185444,9.00385624898,3.40075999883
22,59,2.26984822628,7.23513113351,8.99801713647
22,60,3.1332918558,7.3423617186,8.71157730586
22,61,4.02815600457,9.77573115644,0.908295052295
22,62,5.29112107978,9.82803415963,-2.3902981232
22,63,5.2272504864,9.12736718965,-3.46753209313
22,64,3.95847628992,8.6622717964,-2.97532438755
22,65,1.78483808704,8.66183111533,-0.972555979084
22,66,0.716924313852,8.64028227706,0.93363838848
22,67,0.556072922564,8.5273171009,2.07849317086
22,68,0.589090007689,8.63162703971,2.87826442385
22,69,0.668608827581,8.99742708838,3.49755602135
22,70,0.574552503989,9.00192174827,3.48676627902
22,71,-0.117500118148,9.16553950677,4.00050183878
22,72,-1.07582777288,9.62975920624,5.25113641601
22,73,-0.71644444934,9.8050342001,4.16465085002
22,74,0.109948480199,9.98242027923,1.95961940273
22,75,0.402348684949,10.5784306213,0.798511676158
22,76,0.0761820769557,11.3355570167,1.42163147194
22,77,-0.655745419287,11.8420662227,2.68136739401
22,78,-0.920722939978,11.9387966165,2.66437287163
22,79,-0.6136398398,11.8022015265,0.392291666505
22,80,0.0685758021135,11.0406642542,-7.75537285865
22,81,0.513547352956,10.8709702792,-7.43756435729
22,82,2.17699356641,11.9722293086,-2.48929212676
22,83,3.81127663406,14.3897248881,1.75880635675
22,84,4.23390787467,16.5076981515,3.06202612636
22,85,3.97976907435,16.3711533481,-0.455085549592
22,86,3.0797364906,15.7843478692,-3.07960205011
22,87,1.18480609749,14.6457543193,-0.250247948581
22,88,-1.07552603208,14.5001190825,2.56380415448
22,89,-0.743404909959,13.8737934478,1.61941816998
22,90,0.552569379245,13.2398155919,0.746734595585
22,91,1.25009458409,13.0024369355,-2.55874673162
22,92,0.902469495712,12.3634966535,-4.21053707641
22,93,0.262249448107,10.8395410538,-5.42283672405
22,94,-1.05212504916,9.9964493052,-5.69392684507
22,95,-2.29015117836,9.62138108332,-4.62250756905
22,96,-3.02027175483,9.27102556144,-3.86184971664
22,97,-3.86329408532,10.170479061,-3.90492405132
22,98,-5.16350296902,13.9505667367,-4.64691646517
22,99,-5.18489938907,19.5966891324,-1.13786078003
23,0,-5.18489938907,19.5966891324,-1.13786078003
23,1,-2.38066472919,18.3314222535,7.09633193488
23,2,-5.78553624587,17.7634740168,8.70701181936
23,3,-8.75655720145,17.0363071556,5.24994319282
23,4,-8.74509475978,14.390116413,0.153401702577
23,5,-6.20518970438,13.3642511901,-3.14659906178
23,6,-3.25226478181,12.1102419626,-4.23025333528
23,7,-1.28938110584,9.57607744641,-4.42092959704
23,8,-0.952962673884,7.41958403186,-3.83118429155
23,9,-1.43757852003,5.92708055094,-3.42892881041
23,10,-0.670169270017,5.56039148769,-5.25210066954
23,11,0.173454211662,6.62745300377,-7.20609781318
23,12,0.0825572462459,6.48604247019,-3.5818565277
23,13,0.658680427565,4.65629779157,-0.114732036487
23,14,1.27290487599,3.53246314164,0.929447984826
23,15,0.6812688715,3.62494587441,0.26941404309
23,16,-0.745052991528,3.76864560687,-0.565425479548
23,17,-1.40881994533,3.35087156859,-1.24424106559
23,18,-2.52477675135,2.55120898898,-0.172256927542
23,19,-2.86804348384,2.01521879768,-0.54453730559
23,20,-3.76178993835,1.6217844853,-0.197665291015
23,21,-3.96288256283,1.90625310023,0.0501882197131
23,22,-3.48145621933,2.48059671484,-0.200924790352
23,23,-2.63383395652,3.00442955576,-1.05243654797
23,24,-1.64218302212,3.39137713747,-1.55851302152
23,25,-0.401736779768,3.94564146362,-1.14057894662
23,26,0.818550664959,4.47855776091,0.840919485038
23,27,2.84223029948,6.06365524812,4.60807066072
23,28,9.13029003852,10.4678945484,13.4828811077
23,29,17.217578554,9.39427600988,23.2623206641
23,30,18.4603403399,8.72550595581,20.7407306047
23,31,16.1006802595,9.93390877635,11.0283027469
23,32,9.01144056599,9.82928401837,1.49366049869
23,33,2.61511733377,9.73696052798,-1.41349268668
23,34,-0.491437360755,9.8501669174,0.0779350910772
23,35,-2.60914792672,10.1418986588,-0.552860732096
23,36,-2.44019129155,9.14710404865,-3.38839470802
23,37,-3.89443330948,12.0022421759,-8.40032338433
23,38,-5.40123527409,15.6348316812,-8.43736799117
23,39,-5.62166241269,15.0277074452,-3.99273541374
23,40,-5.10328781213,12.4069735143,-3.10707625403
23,41,-4.27842525107,10.5326720146,-1.51251260204
23,42,-3.69958817773,9.45566614755,-0.184418587753
23,43,-3.11993066745,8.15160247321,-1.59160472558
23,44,-2.43537189677,6.99651648027,-0.848819569121
23,45,-2.3420350152,7.17277116019,-0.437914991573
23,46,-1.87093974804,8.01569900265,-0.999911837191
23,47,-2.32519716052,8.76867352791,-2.55637516607
23,48,-2.48237963026,8.65931941112,-3.33949345588
23,49,-1.49852317785,7.72139192691,-2.99916079185
23,50,-0.391173335063,6.91698663754,-2.03990431721
23,51,0.236880746362,6.73164806653,-1.17096871316
23,52,0.480613440929,7.55128305147,-0.929037487248
23,53,0.271033308919,10.4827398706,-1.58110373758
23,54,-0.15370088475,15.9078282773,-3.45477845496
23,55,0.345991282456,17.5528108206,-4.26676351163
23,56,0.939544859869,13.8609450076,-2.67374607379
23,57,1.0456777664,10.2727106358,-0.46088534299
23,58,1.18781500949,8.87086573658,1.4160667526
23,59,1.57823870045,8.52106283294,2.93485599072
23,60,1.60824836214,7.17670766909,7.33693939878
23,61,0.50855930567,7.50320338169,8.01902782939
23,62,0.80855545862,9.52125980649,1.11676357892
23,63,2.69735943516,9.60720922375,-3.3612315439
23,64,3.54592494391,9.09199003686,-4.21407708067
23,65,3.0950493875,9.05866109862,-3.36213106494
23,66,1.86413396843,9.15603704354,-1.61892456624
23,67,1.00020197079,9.12566767351,0.966825606773
23,68,0.816195867451,8.90828851777,2.55345380743
23,69,0.94914688243,8.81501287567,2.80318233167
23,70,1.13389131786,8.95922432269,2.48404880825
23,71,1.16753005588,9.03339125017,2.10654941028
23,72,0.940479517515,9.2423227836,1.89595929612
23,73,0.678356671731,9.71968333554,1.56334221042
23,74,0.557194690793,10.0552897379,1.20366583547
23,75,0.439152111737,10.4364178368,1.03411820692
23,76,0.291202011131,11.1505193984,1.40536616518
23,77,0.11999665851,11.70738492,4.59379559106
23,78,-0.501235619525,11.7888459823,11.9786020788
23,79,-0.91731406942,12.1709349837,8.65751357481
23,80,-0.418920593401,11.4338149905,-0.445739210608
23,81,0.59482340617,11.0525048645,-3.11554578862
23,82,1.38924190641,12.057159408,-5.23103010271
23,83,2.27683796251,13.3182728533,-9.89987342002
23,84,4.59388173618,13.776388834,-3.88860820249
23,85,5.62136576185,14.5048187781,0.498275532376
23,86,4.21743891344,15.4523147505,2.11111413699
23,87,2.59151781068,16.0684709261,2.58798012818
23,88,1.63082761912,16.4357207874,-0.274414004768
23,89,-0.864140438458,17.0453814768,-1.64414461542
23,90,-2.20204078768,16.530257249,-0.53343829035
23,91,-2.07905193667,14.4096120114,0.343417558995
23,92,-3.26234128024,12.1444862811,-0.820438645449
23,93,-2.61878121762,11.6433312626,-3.1009641902
23,94,-1.48808035626,11.0122778878,-6.10984424699
23,95,-1.26890772571,9.80570987331,-7.25702936267
23,96,-2.0456519975,9.11883015118,-6.52182064412
23,97,-3.17987244836,9.71196407984,-5.59007576905
23,98,-4.2400433448,12.2766375974,-4.96778223573
23,99,-4.07649097269,18.095564177,-1.47229434217
24,0,-4.07649097269,18.095564177,-1.47229434217
24,1,-3.06536606726,17.5703394165,9.56176491383
24,2,-6.33297618639,17.6078414098,9.25064784762
24,3,-8.14538327791,16.7651039023,4.42529642163
24,4,-7.8756856357,14.2663842695,-0.554084437146
24,5,-6.41054184094,12.6163353451,-3.51738202038
24,6,-3.61492066558,11.0271808826,-4.79419809451
24,7,-1.19362393305,9.66588063341,-4.15033651415
24,8,-0.541556750886,7.99419462513,-2.62528518784
24,9,-1.42054298721,7.18252410896,-2.15617666423
24,10,-0.985427847396,6.23575456883,-5.15315457058
24,11,0.991652520072,6.25494871357,-7.47694216934
24,12,1.49268605584,5.99533633029,-4.57459077316
24,13,0.861395700382,5.16355530492,-0.567570188355
24,14,0.488824359968,4.1852764234,1.05389808671
24,15,-0.245513822338,3.14908744678,1.44655170149
24,16,-1.39769563268,3.01006096942,0.40452795944
24,17,-2.11813732104,3.10417606757,-0.946024019819
24,18,-2.21704920598,3.11836210302,-1.77093125788
24,19,-2.21628520565,2.78769529105,-1.47912454938
24,20,-2.32752152396,2.01533399207,-0.755097978962
24,21,-2.54093456477,1.33575846565,-0.347468739461
24,22,-2.37681028298,1.70144177204,-0.739200968695
24,23,-1.92590165219,2.27915757715,-1.29825247566
24,24,-1.34050182381,2.74555691516,-1.55529419059
24,25,-0.479447206168,3.25161336042,-0.986985947411
24,26,0.198477287587,3.57368389725,1.86050269783
24,27,2.99312529545,8.75538428196,4.98869029344
24,28,10.5093740184,8.32511929462,19.7738189866
24,29,19.4125470792,-0.853807387161,26.1998274181
24,30,18.7836333718,0.576018829608,21.9653361475
24,31,14.2000683218,2.4906246306,10.7060108423
24,32,5.9855120681,3.36956616771,0.835231090492
24,33,0.710683955475,4.98647365672,-0.177362753738
24,34,-1.96883607927,4.55755969908,1.51685978967
24,35,-3.28945674522,4.07476413762,0.789279442494
24,36,-4.01897912045,5.78069351462,-4.69042809409
24,37,-6.53297359158,10.7241185308,-10.7021401474
24,38,-7.26859144851,13.1303218586,-9.65124401067
24,39,-5.46112664334,13.7332149489,-4.1769451606
24,40,-3.23734480955,14.5542973676,0.340465202191
24,41,-2.50485959263,13.7009993516,-0.816573940786
24,42,-2.09470909314,10.8378682127,-1.74041092734
24,43,-1.58496143758,6.90432968825,-1.91019451218
24,44,-1.25663057505,5.96461458712,-2.54156854121
24,45,-0.821357521261,7.55410026101,-3.04445545846
