index,i,acc_x,acc_y,acc_z
0,0,8.07193693044,21.0991897813,4.62544051788
0,1,10.6462924292,19.62701529,3.12133641596
0,2,10.7586626613,16.3956730817,1.58930965701
0,3,5.05697358849,14.0441696188,-0.22147828833
0,4,2.4421830327,11.8714112929,0.0846026139496
0,5,2.00870009359,10.7861435275,2.06627755189
0,6,1.281865129,9.8305702013,3.5659732535
0,7,0.0715188151672,9.3012564966,3.0648996577
0,8,-0.181617566995,8.733160049,2.87305351679
0,9,-0.784117683476,7.93369340385,4.44310451696
0,10,-1.69206804113,7.13390019033,5.11150639049
0,11,-2.03411870413,7.09631007002,4.20577412156
0,12,-1.41413403997,7.10031026637,1.4821734441
0,13,0.113474102066,6.64667505079,-1.70414394371
0,14,1.24903291065,6.25172997126,-3.5665550712
0,15,1.23404464885,6.25990231467,-2.83327808117
0,16,1.32830955786,6.71612872272,-0.699638529146
0,17,1.10619759996,6.79681548527,0.455695295651
0,18,0.789044208361,6.28044993905,1.27791933006
0,19,0.628019282302,5.74003094679,1.99370481578
0,20,0.554662025816,5.18618322204,2.60319013984
0,21,0.463568904084,4.57914643129,2.88127900291
0,22,0.741204423114,3.99505235411,2.86078517049
0,23,1.62431036552,3.7997737408,2.5409247743
0,24,2.44497482484,4.17490752254,1.85148907692
0,25,2.97849663157,4.6479869918,0.122546164612
0,26,3.283208291,5.23112466767,-2.6032063216
0,27,2.55569826183,6.24664037479,-6.94150361259
0,28,-2.82917120301,9.02865154901,-14.1634682524
0,29,-11.9958096962,15.9583481379,-12.5748711002
0,30,-13.1259932531,16.6803265991,-6.60964583328
0,31,-10.9233793915,15.6532654484,-8.40266772541
0,32,-2.06175534907,14.9743366663,-4.57082500444
0,33,-1.41541794796,12.9687589625,-2.37166945591
0,34,-0.464218320155,11.8828592363,-1.18839417664
0,35,2.2285364927,9.12606326427,-0.0921126832776
0,36,4.02007227394,7.7076254528,3.7844347227
0,37,5.23229925092,10.5894234135,6.5041641475
0,38,6.11276207702,12.1528755007,8.15940618907
0,39,4.4010680257,13.3331597933,7.70276107206
0,40,2.13363327566,16.899378437,3.21812505155
0,41,2.91367965374,17.0538632917,1.6476966378
0,42,3.36922960907,14.0894169689,3.23080724606
0,43,2.3797886653,11.2542147668,3.8640093348
0,44,1.94510216501,9.50465200158,3.24381658722
0,45,1.61038485001,8.54574588686,2.44491932869
0,46,1.15331447999,7.82246839007,1.7101720396
0,47,0.791797509774,7.18196339053,1.44480263934
0,48,0.599529481317,6.69596533411,1.34983557434
0,49,0.39474696374,6.7782516407,1.11043899867
0,50,0.271940664171,7.34787980189,0.747548401636
0,51,-0.0458535392814,8.12257943022,0.35181304848
0,52,-0.824341771886,8.89646344642,0.234647120534
0,53,-1.39213914055,9.90474210401,-0.218579197866
0,54,-1.90508248046,11.0281515078,-1.28807819567
0,55,-2.79098476621,11.9414029455,-2.4735469754
0,56,-2.86562670326,12.0672628035,-2.91929732164
0,57,-1.19973436752,11.4706897936,-1.33294033426
0,58,-0.570931745943,10.8994320939,0.525497840687
0,59,-1.04587121537,9.86619571484,1.58849331821
0,60,-0.881572623323,9.26479056944,2.87950844543
0,61,-1.84474239259,8.62865480388,3.20947208797
0,62,-2.17237211968,8.69489288065,2.79954248967
0,63,-1.5619846502,9.37978307555,2.37347086568
0,64,-1.39572129604,9.85906021263,2.07124217192
0,65,-1.43653816309,9.93029142444,1.65146004489
0,66,-1.11337606756,10.0285198673,1.22574635195
0,67,-0.567124354124,10.2528221448,0.221043701502
0,68,-0.658400598728,10.190734627,-1.25484282972
0,69,-0.633709450441,10.1676582005,-2.21595645442
0,70,-0.531423415997,10.2909324288,-2.90563866249
0,71,-0.968150159124,10.8036844119,-3.24009149381
0,72,-1.18378363556,11.2575630771,-3.21195866296
0,73,-1.09657250413,11.7675592344,-2.77874183942
0,74,-1.10838592975,12.0390999626,-2.43697044789
0,75,-1.28841373501,12.0973568782,-1.39784480014
0,76,-1.0769394701,12.1828696837,0.676063019471
0,77,-0.10426621931,12.5950265388,-1.15691520656
0,78,1.1793098309,12.5370293674,-7.6365819236
0,79,1.44218891495,12.5966905206,-14.8873450657
0,80,0.0231904724461,14.0249866961,-14.1558908525
0,81,-0.406190288502,14.467288711,-5.42977191633
0,82,0.658235217511,13.6934792524,4.09455600302
0,83,-0.584874078335,13.7606804538,6.10483174063
0,84,-2.47560181171,13.8985484422,2.4269942763
0,85,-2.94117498811,12.7931497889,2.44251942752
0,86,-3.32407609814,12.9107589515,5.78113676058
0,87,-1.66559292847,15.5780839876,-0.466614604531
0,88,-0.374383622326,16.1344787833,-4.03239700696
0,89,0.0721649783585,15.2625758235,-4.71169775704
0,90,1.33599752434,14.4573231231,-5.52356716919
0,91,2.04027375748,12.79929914,-2.13827154524
0,92,2.18532447876,11.7953341736,1.99569186612
0,93,2.09985135709,10.9261076514,4.99212827588
0,94,1.93456112708,10.3626510687,5.69314883846
0,95,1.44937190371,10.1002370862,5.18907474783
0,96,1.60242374908,11.6280893075,5.37370231474
0,97,2.9914565193,14.4916596055,5.68862688732
0,98,5.56573623266,18.0094814846,5.00889099244
0,99,8.06210347586,21.2229664197,3.33884034078
1,0,8.06210347586,21.2229664197,3.33884034078
1,1,9.94044235083,20.0076317245,2.9402929282
1,2,10.2605160509,17.4207130668,3.46772728431
1,3,4.90608872102,15.0461418126,3.19728038046
1,4,2.29086796256,11.7677988994,2.95045826174
1,5,1.06261406944,9.77494539952,2.94186141023
1,6,0.175106889432,8.7262988618,3.33529002751
1,7,-0.59015171877,8.22502806039,3.22553839005
1,8,-1.65727895366,8.65376352811,3.38307084846
1,9,-3.37093624375,8.4295379339,3.60590584147
1,10,-4.01755839796,8.09429665277,4.54581146772
1,11,-1.76015346633,6.71261145682,-0.287712227464
1,12,0.541646158981,5.82478374865,-1.60914183954
1,13,1.556657259,5.7772906275,-1.68627992164
1,14,2.05191664161,5.80618042314,-0.945852651703
1,15,2.07354102878,5.89153232174,0.104941800856
1,16,1.84764985828,5.95893870055,0.951252178406
1,17,1.53565464266,5.97685581062,1.48717741176
1,18,1.26411851059,5.87726437065,1.85616945279
1,19,0.948062630799,5.42876880216,2.07871772939
1,20,0.879974691364,4.92679440611,2.2033043287
1,21,1.02366722799,4.890296761,2.5943618525
1,22,0.873092891136,4.86800572503,2.967258435
1,23,0.71451651765,4.63282029048,2.75321437755
1,24,0.952436719564,4.69107944066,1.74408998968
1,25,1.78596683577,5.10378683303,-0.693206573725
1,26,3.51490651726,5.27491386286,-5.44474536755
1,27,3.34634210862,6.28737402967,-14.215506071
1,28,-8.44363694628,13.3281888773,-22.4931017904
1,29,-8.26554053104,16.324093483,-18.9557964707
1,30,-8.864820443,15.9993985253,-14.8125521898
1,31,-6.78067710187,11.5973784615,-14.1936953006
1,32,-0.904862760551,9.77127790675,-6.30153292184
1,33,-0.338889436746,12.7820131414,-1.79011770777
1,34,1.27401987569,13.6440019633,-1.83437987961
1,35,4.52050000219,12.4473713833,2.55790422891
1,36,5.65660864838,15.4057751651,6.77819280667
1,37,3.423083322,16.7072638424,4.54160451345
1,38,1.03575898743,14.2117883257,2.85706470889
1,39,2.88425079811,10.8939088707,4.69547926805
1,40,5.35493220012,8.18386860379,7.3777343045
1,41,5.39113178846,6.86775362221,7.68143929557
1,42,3.46778751242,6.8078833293,7.11917296944
1,43,2.29927452032,6.86020008458,5.14221986116
1,44,2.51021313753,7.27833471675,3.41440967041
1,45,2.36762621344,8.23149133813,2.40319662927
1,46,1.78298782567,9.07629591889,2.01221320481
1,47,1.24425082355,9.32797506894,2.02450834714
1,48,0.818224863321,9.30863712496,1.59345583373
1,49,0.500287268466,9.46495247711,0.954335642922
1,50,0.272823781849,9.73832099426,0.212490616488
1,51,-0.20034206969,9.65991533058,-0.616005262775
1,52,-1.15667596118,9.40448878416,-1.78730774136
1,53,-1.85238068929,9.90479130334,-2.42819532002
1,54,-2.46775518703,11.1155379844,-3.02776385764
1,55,-3.11220523677,12.079402711,-3.20659973863
1,56,-2.75618159348,12.0129750613,-2.11384223181
1,57,-1.45126099656,11.4723119984,-0.287431464311
1,58,-1.91320563354,10.6810668274,0.297419389009
1,59,-2.73995432206,10.1767964271,0.407139169048
1,60,-3.23026290321,9.67594876655,0.644132431189
1,61,-3.67466710379,9.38340625456,1.28593967412
1,62,-3.52349424433,9.37124470762,2.05918127725
1,63,-2.47523668966,9.78976063712,2.68186401005
1,64,-1.61395229753,10.4624658084,3.54322392721
1,65,-1.43747488003,10.6755281377,4.29078069881
1,66,-1.26588472514,10.4740744281,2.07598394044
1,67,-0.814776551253,10.0227314224,-0.828429837414
1,68,-0.0105125114896,9.97330725616,-2.08410240162
1,69,0.619551996849,10.3787495212,-2.5343070062
1,70,0.799628531937,10.6986284343,-2.84892448255
1,71,0.642472327995,10.6748419138,-2.94793236906
1,72,0.0237381807637,10.4269906273,-2.68072281075
1,73,-0.218836306813,10.4147931083,-1.87779340051
1,74,-0.169682186756,10.7077574558,-1.12680376107
1,75,-0.197726101434,11.0431570126,-0.180682082166
1,76,-0.210230530087,11.6127970826,1.28920506493
1,77,0.257388501022,12.6502641136,0.920794822331
1,78,1.03978621226,13.5585362914,-2.86016514082
1,79,1.52882877936,13.1287673971,-9.64787868031
1,80,1.28499111444,13.0593240032,-16.2682447369
1,81,-0.310163370183,14.6037950937,-14.4039931946
1,82,-0.847627772106,14.7840666539,-3.69446912322
1,83,-0.599464935926,13.8444605575,5.11031172268
1,84,-2.3044947465,13.6282681352,5.76945520737
1,85,-3.60525983384,12.8709225407,5.50144098561
1,86,-3.72051573831,13.1015043965,4.47026362646
1,87,-2.64672350718,15.0669607741,-0.259537283458
1,88,-1.1826504656,15.5454049713,-2.64372962592
1,89,-0.320829857581,15.0102290976,-3.48926899726
1,90,0.509426120641,14.6384785735,-5.18950505514
1,91,1.35788419844,13.427375987,-3.02868076907
1,92,1.49195754444,12.3498155248,1.72567396685
1,93,1.76649901465,10.9337919751,5.19794572072
1,94,1.4684641623,10.3337079605,5.06652522928
1,95,1.18549766714,10.1407014275,4.78921302054
1,96,1.68465742946,11.3639016255,4.8637972944
1,97,3.23878474027,13.6867969135,5.04158212768
1,98,5.46598158822,17.3837280471,4.75689526547
1,99,7.77058781797,21.3490409267,3.97030205235
2,0,7.77058781797,21.3490409267,3.97030205235
2,1,9.75934118036,20.7972779308,4.13558453889
2,2,11.4657827524,17.5945612943,4.95838748091
2,3,8.42062200989,14.2461814382,5.08335613512
2,4,2.25947686881,11.8965091134,3.30266335096
2,5,0.706397180152,10.087970856,2.69109434742
2,6,-0.399587668644,9.37794368555,2.48203045491
2,7,-0.801711064384,9.30252943215,2.14855065571
2,8,-0.437880800179,9.38220857192,2.98295224201
2,9,-1.50389562799,8.82754361626,5.63391552506
2,10,-2.45013177703,8.04042831601,6.017430705
2,11,-2.28612931811,7.2663565449,4.09223772413
2,12,-0.198652798827,6.02611022903,0.66833583002
2,13,1.94604290161,5.05164484323,-2.06195717788
2,14,2.49330195485,4.96264046556,-2.09191329154
2,15,2.17384190739,5.29709117965,-0.795239073629
2,16,1.61831030664,5.16121717745,0.511856757962
2,17,1.37743963435,4.84373707561,1.71795344393
2,18,1.43006679968,4.65636737578,2.54769654589
2,19,1.26815655333,4.14782376844,2.86055889022
2,20,1.1395817907,3.90550903167,3.19222096482
2,21,0.855694882367,4.10517052474,3.47180637188
2,22,0.573994953551,4.31784746703,3.15742506797
2,23,0.776592251584,4.6560423956,1.93927871081
2,24,1.32168739633,4.7425454029,-0.085902969726
2,25,2.96449424041,4.22581455907,-3.44224773052
2,26,4.50604152773,3.91315279088,-9.57075283983
2,27,-3.03386822133,7.06764876997,-17.8840093822
2,28,-13.2405761868,16.6101202894,-11.1448430409
2,29,-10.3232044449,20.0348917347,-9.67298436404
2,30,-10.9920754604,18.0709789926,-9.68510703558
2,31,-7.39123302893,16.2393990281,-5.28595709646
2,32,-1.84844108737,15.0244410434,-2.38388567236
2,33,-0.445409178608,14.5091589581,-3.88649069572
2,34,3.25600375553,10.1605713591,-0.383483592763
2,35,5.36949869195,10.1776452114,2.63971967792
2,36,5.57738541214,14.0562116559,4.99711972561
2,37,3.94943482388,14.9833834813,5.55914726034
2,38,1.50778614041,15.096691455,3.89952197116
2,39,1.69590376119,13.6391458952,3.01705574974
2,40,3.67179256271,10.1444997995,5.35926576987
2,41,4.8272281137,8.172088662,6.86660023825
2,42,3.92475936188,8.61326157531,7.21931763468
2,43,2.73526857016,8.44652650716,5.16609470728
2,44,2.63890756261,7.81844522648,2.93109110376
2,45,2.48718455906,7.86535475218,1.69765253505
2,46,1.77572963334,8.39803250086,1.12753369834
2,47,1.11416952322,8.4918163729,1.16382744189
2,48,0.683416017638,8.26206261009,1.22542335221
2,49,0.623340127439,8.37244097966,1.03471328731
2,50,0.676846887006,8.81979527501,0.64950851589
2,51,0.526187991278,9.21046001906,0.0679801841067
2,52,0.0236296145633,9.27538326526,-0.632395788213
2,53,-0.47695016542,9.40084847973,-1.29469210688
2,54,-0.846715398102,9.77867226867,-1.81852401267
2,55,-1.68962682763,10.4057549959,-1.98453104005
2,56,-2.42938691799,11.0523181715,-2.04737242888
2,57,-1.95220796418,11.2892942852,-1.13216362304
2,58,-1.5236044886,11.4022822406,0.210194279281
2,59,-1.64975761196,11.0391510731,1.14358128177
2,60,-1.99985769158,10.931243562,0.969837522514
2,61,-3.38258656259,10.1878980788,0.44310344719
2,62,-5.24254213863,8.92523121182,1.66125783828
2,63,-5.72994416495,9.27273902053,3.22585478625
2,64,-4.16733434229,10.7795072482,3.59835445408
2,65,-3.10547199962,11.585172343,5.12863362953
2,66,-2.19981177139,11.5511598055,3.49249190561
2,67,-1.22746453746,10.9098191079,-0.745932477849
2,68,-0.187765072678,10.657447904,-2.32289570538
2,69,0.608688001288,10.8096670292,-2.661564769
2,70,0.797129755248,10.8861605469,-2.80589816582
2,71,0.633690225235,10.6282650241,-2.92000229024
2,72,0.262184540569,10.5716944035,-2.69304082872
2,73,0.0953332147981,10.8001662584,-2.23426699512
2,74,0.0663426795547,11.3011697384,-1.13026197186
2,75,0.465058659115,12.1961906073,0.565046037832
2,76,1.49324318241,12.5258377503,-3.53851927748
2,77,2.04468984726,12.251588593,-11.8480928118
2,78,0.782132678033,13.3652210166,-16.8436858522
2,79,0.37844850261,12.8347390475,-13.9765840324
2,80,-0.374379325605,13.483286782,-3.444143176
2,81,0.427535933528,12.7205820979,4.63110583221
2,82,-0.803358971373,13.3667446478,7.10515585468
2,83,-2.20698173751,15.0140559978,2.84224921947
2,84,-3.13716006622,14.1699909888,2.20083868164
2,85,-3.25501900964,13.804263601,4.54703138302
2,86,-1.83729590563,16.0129250601,-1.16736032036
2,87,-0.215189755216,17.0469406346,-4.44720596455
2,88,-0.366619802915,16.0446275563,-4.71881628018
2,89,-0.297507174978,14.6090875588,-3.26769243812
2,90,0.520580864097,13.6434424529,-1.28962476956
2,91,0.801202870696,13.3646242688,-0.478320631868
2,92,1.77905796599,12.6141001182,1.99229189531
2,93,2.59587667226,11.976631969,4.86601685513
2,94,1.70017451952,10.7049809267,6.24704882025
2,95,0.759568373194,10.100613534,6.58441134821
2,96,1.01173259509,11.1312934982,7.10339628775
2,97,2.64629115391,13.2908880403,6.82558986909
2,98,5.44345273512,17.0853802977,5.51224215054
2,99,8.28023851158,21.5273255245,4.12211924095
3,0,8.28023851158,21.5273255245,4.12211924095
3,1,10.3366036313,20.5061257421,4.32114041119
3,2,11.8635971893,16.9131844287,5.04561540094
3,3,7.67693253402,13.4168022934,4.11837802171
3,4,2.49951550528,11.5094439249,2.01567558835
3,5,1.33656895559,9.93238271577,1.92633552171
3,6,-0.0400072068664,9.25157233644,1.58470299094
3,7,-0.150608385757,9.37898598584,2.23305099011
3,8,0.358792255769,9.35852508399,3.94359680481
3,9,-0.582541188451,8.20664616482,5.78619124183
3,10,-2.21645763512,6.78249379279,5.47354957353
3,11,-1.06541575797,5.44451496214,0.741263380927
3,12,1.44691324255,4.61855888768,-3.32507866869
3,13,2.54230597041,5.29797130401,-2.99980099306
3,14,2.48875224396,5.94827794236,-0.718525930464
3,15,1.81311461876,5.77670675515,0.800674422869
3,16,1.01748131999,5.67922039746,2.15609252432
3,17,0.541377471772,5.4786960998,3.09425349701
3,18,0.729250963831,4.89758065273,2.84970110304
3,19,1.33971032026,4.49019636854,2.91205607757
3,20,1.63197095706,4.32331309339,3.16497264011
3,21,1.95089792555,4.59983098656,3.26424887203
3,22,2.01189739052,5.02760268916,3.0300222131
3,23,2.05961137298,5.25489871471,2.34384887917
3,24,2.40290310621,5.59700593595,0.984462030292
3,25,3.18415032931,5.77363474251,-2.42753796751
3,26,3.72942221334,5.88695086108,-9.47655621093
3,27,-3.42239756766,8.90304876524,-18.9315722679
3,28,-10.7416695502,13.5284045761,-20.1616804296
3,29,-11.3355653406,13.615844701,-15.1987899889
3,30,-11.1157574389,10.3374553422,-14.1557380812
3,31,-2.50077462144,11.121759267,-6.76633958772
3,32,-0.785096758906,11.5059388757,-3.03439879603
3,33,-1.42439942997,13.7792875259,-3.76476045847
3,34,2.47141764838,9.26156250066,0.872655308138
3,35,3.98186484795,7.64271621034,2.92734443291
3,36,6.02338436694,10.1094701766,4.69602023916
3,37,6.981224626,11.8638331531,7.03150728834
3,38,5.24756186813,12.214696187,7.42502126829
3,39,2.1192337487,13.1196048774,4.19493346765
3,40,2.61571325906,12.5636643733,1.98640691946
3,41,4.61221733995,11.3800990728,3.24374086037
3,42,3.83718502521,11.3590827324,4.6995451476
3,43,2.1238302441,10.8314582992,4.4151345799
3,44,1.21840085682,9.76735292641,3.19091873793
3,45,0.805452608203,9.45916212845,2.34297751054
3,46,0.280217562797,9.07304438722,1.51389881874
3,47,-0.471748833064,8.01562392766,0.970727429914
3,48,-0.336171532484,7.79452133297,1.05645060963
3,49,0.148206771776,8.12247958933,0.788722592839
3,50,0.179854413232,8.45228248191,0.348754612122
3,51,-0.303778486471,8.65824622592,-0.15538656925
3,52,-1.05163407247,8.59226245262,-0.857471438519
3,53,-1.7027269222,8.71248361387,-1.24796484345
3,54,-2.38732552934,9.48822357606,-1.45485114583
3,55,-3.17053068689,10.7487638435,-1.80454728458
3,56,-2.86533154916,11.23264116,-2.12825830454
3,57,-0.810090533079,11.3715644377,-0.892788523895
3,58,-0.474927452663,11.4338787479,0.341128180635
3,59,-0.835472520519,10.5912560465,1.56033556831
3,60,-1.72622193346,9.50155410289,1.86033778574
3,61,-3.93513116111,8.3812288878,2.74940133056
3,62,-4.09776981736,8.65233340762,3.70644048515
3,63,-2.83343080203,10.2349107011,4.21541110315
3,64,-2.30341035311,11.6052788799,6.0133035133
3,65,-1.29687138978,10.8651051302,1.90071489394
3,66,-0.131958797209,10.6429711417,-0.703319157456
3,67,-0.278064342711,10.2594709697,-1.66655396318
3,68,0.0996186307908,9.92243924839,-2.47192126797
3,69,0.304530290873,10.2071602717,-2.91492548184
3,70,-0.165823872439,10.2553608381,-3.06566885542
3,71,-0.633133278196,10.2832939025,-2.94957298723
3,72,-0.909211891694,10.637203137,-2.54895894283
3,73,-0.932888681387,11.1352855497,-2.07018970424
3,74,-0.807955179018,11.5602945926,-1.45135453248
3,75,-0.836129669718,11.9453233505,0.215849049791
3,76,-0.926738098758,12.6031817455,3.33940142875
3,77,-0.00346192525625,13.9494833336,2.02887542285
3,78,0.904524051468,14.6060179139,-4.85777874441
3,79,1.45714197265,14.1307028598,-15.9233310116
3,80,0.586004984656,14.4057313187,-21.0398496401
3,81,1.09528581449,13.1523936194,-16.9720641687
3,82,0.4946815613,14.4213724128,-2.50246261348
3,83,-1.31908811142,15.2602004889,5.28037225448
3,84,-2.35825585953,14.7569283843,1.99937187651
3,85,-3.10961353172,13.9943554038,2.9504757131
3,86,-2.6681956155,17.68752139,-3.8136982834
3,87,-1.92582336715,19.0988430774,-6.99562431592
3,88,-1.75343573481,17.2236021935,-3.85072646868
3,89,-0.183476370064,14.3670213476,0.865545941362
3,90,-0.977396117428,12.6922845469,4.28753819376
3,91,-0.917897925884,12.1951938593,4.39988885155
3,92,0.422204728415,11.4480264067,4.24894642004
3,93,1.11301853633,11.1059150824,6.01890917881
3,94,1.1377932879,10.9215205553,6.45671940984
3,95,1.03277891427,11.0564518106,5.9241681933
3,96,1.97673078719,12.4455928784,5.85745571714
3,97,4.18329716962,15.3290879649,5.47102863038
3,98,6.75754716656,19.5900067883,4.58787286403
3,99,8.92838779859,23.4878750343,3.49871226088
4,0,8.92838779859,23.4878750343,3.49871226088
4,1,12.9072290818,16.9023756094,6.8300164577
4,2,10.5221898667,12.716838825,6.94514741374
4,3,4.46827058236,10.7739473967,3.91821556469
4,4,3.220685313,9.11861876836,2.39431301394
4,5,2.66059306079,8.66914015809,1.75822943886
4,6,2.09045031821,8.47977583357,2.66368798771
4,7,0.740791367286,7.68576087078,4.59467168457
4,8,-1.11693164664,6.61682530469,4.78760280677
4,9,-1.30229744622,5.86086128364,3.04135493769
4,10,0.223947470965,5.0791932498,-0.352268069519
4,11,1.26108955749,4.70802302494,-2.91439371433
4,12,0.315232433795,5.44142374856,-2.16009650557
4,13,-0.404305834108,6.19579490595,-0.169615364655
4,14,0.00974758969014,6.5488896926,1.57579757156
4,15,0.492885490174,6.31639037347,2.34200159316
4,16,0.898804002065,5.8670416701,2.73265603535
4,17,1.18728260964,5.65386858337,3.22732166857
4,18,1.77275673385,5.40244449378,3.77930753322
4,19,2.26658202595,5.04152348688,4.25512819976
4,20,2.35369466015,4.94705507474,4.47626378374
4,21,2.27193104407,5.06873174018,4.10037191966
4,22,1.94254250501,4.82962028053,3.33941663046
4,23,1.79997829674,4.60320999483,1.89989901277
4,24,2.46031748818,4.24096410318,-1.07499905554
4,25,4.38739966456,3.66312594003,-5.7707344138
4,26,3.45845373317,5.14894250721,-13.4242821056
4,27,-6.85115628314,10.4285456719,-18.168013433
4,28,-13.7150099926,16.8088159554,-12.5198383746
4,29,-13.2266572328,16.5894091097,-9.8376489737
4,30,-11.95564606,13.6948594674,-7.82835129602
4,31,-3.16128801286,12.7729696048,-3.72430466635
4,32,-3.12680139545,14.6034374952,-5.07165843917
4,33,-0.12915584176,14.4188083591,-3.43220435296
4,34,3.42205390194,12.7573886514,0.820934404248
4,35,6.76426841286,14.3938928616,4.46345849068
4,36,6.63742804264,16.9423912356,4.15388432214
4,37,3.62926986461,14.6771585082,1.68277173266
4,38,1.97037274405,12.003048936,1.69175693273
4,39,3.76495559092,9.13841021075,5.62567230252
4,40,4.3691917705,6.84145757882,7.9764740041
4,41,3.66670558388,5.99531109802,8.20043429231
4,42,2.32598436796,6.97250984166,5.71821954718
4,43,3.25307917632,7.49734585875,3.52672563128
4,44,3.10261330009,8.83940848609,2.23399771144
4,45,2.22104943132,9.78602444887,1.72171244669
4,46,0.976376047243,9.69001221393,1.89315580303
4,47,0.212457702545,9.31084854823,1.85409706821
4,48,-0.210939631832,9.27416967693,1.26186542513
4,49,-0.364431543888,9.47211572243,0.476181100434
4,50,-0.50640903468,9.70314071064,-0.125601767479
4,51,-0.756787636966,9.86499941682,-0.519000924254
4,52,-1.21598812026,10.0930727748,-0.818302940863
4,53,-2.15537436213,10.61866004,-1.27148871071
4,54,-3.13260925479,11.5465928322,-1.96730154481
4,55,-3.68299990291,12.3215345865,-2.32939577215
4,56,-2.66748103115,11.7578481453,-1.43363041988
4,57,-1.62692985723,10.8701745381,-0.421731044964
4,58,-1.90100280234,9.74330053055,-0.0887304493776
4,59,-2.05878080114,9.41390640404,0.245438934226
4,60,-2.25989980587,9.12427297134,0.410777629521
4,61,-2.62514715169,9.02494957924,0.879051761828
4,62,-2.81576611646,9.29865235435,1.61810748616
4,63,-1.95199225217,9.68548285056,2.77332731898
4,64,-0.686482579888,10.1915118182,4.85140513793
4,65,-0.548138633915,10.8271553638,7.11831887703
4,66,-0.811090844438,9.90223310102,1.19544693087
4,67,-0.285303556388,9.47068358475,-0.92933925664
4,68,0.348136677533,9.77240479802,-1.64228214247
4,69,0.640044586453,10.0678815612,-2.24360895432
4,70,0.275824711813,10.1178117222,-2.64300273169
4,71,-0.222705173636,10.2583696998,-2.76490666345
4,72,-0.555377020111,10.6195408653,-2.55970376272
4,73,-0.680502157679,10.9378609674,-2.1381391766
4,74,-0.701082482327,11.1753586313,-1.64117164029
4,75,-0.871973915982,11.4838572128,-0.482995439536
4,76,-1.30477823412,12.2229851728,2.79857881713
4,77,-0.711284650079,13.6758700111,2.77762776041
4,78,0.551187555883,14.6753501631,-2.98277547301
4,79,1.18061140261,14.1867696805,-11.4916278513
4,80,1.79029350544,12.4223333993,-20.1942953595
4,81,2.40303464347,10.6610771619,-19.0816405541
4,82,1.21231034748,12.5394834755,-6.58559804737
4,83,-0.331695961537,14.7506889764,4.37160453667
4,84,-1.81455972881,12.7837016781,6.36335371299
4,85,-2.47413577896,12.7030798714,5.55071825801
4,86,-1.6742945284,16.3797417348,-1.7353902108
4,87,-0.527194320742,17.5257750077,-3.86386697757
4,88,-1.7653936126,15.7235865469,-2.33875808328
4,89,-1.04311492784,14.2837103599,-0.955392885612
4,90,0.428255946196,13.3861850644,0.538210054276
4,91,1.25954030183,12.7196120958,1.54670631369
4,92,1.93965426304,11.540318477,3.44756113711
4,93,1.78699727384,10.3186960742,5.2303741017
4,94,1.18233547953,9.3186615529,5.63247473722
4,95,1.18048610699,10.1691828036,5.35266675461
4,96,2.14208513277,12.3661045164,5.31679725094
4,97,3.87029700132,15.2189140153,4.64622671685
4,98,6.03959149773,19.0270710412,3.66786719542
4,99,8.09222584014,22.2013626761,3.40724492969
5,0,8.09222584014,22.2013626761,3.40724492969
5,1,10.0129781035,20.7231784265,4.37118769148
5,2,11.7836772066,17.1862027678,5.65127981256
5,3,8.1168581781,13.4482263851,6.02211441445
5,4,1.53936106173,11.629029866,3.55491562947
5,5,0.4506996278,9.94388112492,2.63631043905
5,6,-0.350461977137,9.33324767566,2.63874947947
5,7,-0.196571309595,9.53969628648,3.16197387029
5,8,0.492403126744,9.27660655251,4.27337005385
5,9,0.0228769820096,8.15903983513,4.78635835084
5,10,-0.644302265927,7.02840171941,3.7565412992
5,11,0.624640817203,5.94810520554,0.0750672913546
5,12,1.96798822737,5.16357838095,-3.13646658685
5,13,2.43439335886,5.46199463743,-2.3624216684
5,14,2.20563543958,5.70572747573,-0.0468633157753
5,15,1.67431044564,5.54156509256,1.17974038266
5,16,1.14904288061,5.39273811451,1.77101435924
5,17,0.881376109379,5.42162228684,2.40441104959
5,18,0.847605861707,5.18693885677,3.10768810702
5,19,0.985107292058,4.75164036928,3.61541999351
5,20,1.34872047081,4.48055107246,3.72961404522
5,21,1.39489513498,4.49238749382,3.91137822701
5,22,0.962483590481,4.59112328556,3.75877194626
5,23,0.820960804114,4.75515700823,2.77167544793
5,24,0.918969357714,4.3436145105,0.984320327184
5,25,2.12355322012,3.80179722428,-1.87213992097
5,26,4.02604768394,2.9488194056,-8.37773210908
5,27,2.0735107376,2.58932727542,-26.7743085725
5,28,2.65318568794,8.94719506454,-24.0650863823
5,29,0.963641162249,9.43474685096,-21.6292154338
5,30,-1.60465670632,8.50420901531,-14.0127482255
5,31,-1.07828303089,10.8879961739,-4.50315781108
5,32,-0.392071995744,11.0916588731,-3.51883387972
5,33,1.27331759827,11.1317711315,-0.627741340258
5,34,4.23183334177,11.2925862146,2.72503406195
5,35,6.38302635248,16.291446945,5.3500513284
5,36,5.57153068091,17.0415892964,5.47985919752
5,37,1.93101893556,13.5272341538,3.9393766065
5,38,2.95471944482,11.1141066352,3.96210816493
5,39,3.83808544076,9.31716965432,5.54472337741
5,40,4.1191924423,7.6226364387,5.62800892631
5,41,3.60308483706,7.52871422969,5.9811990247
5,42,2.93206134725,7.78828449073,5.37968208913
5,43,2.92681566771,8.09847491844,4.07263271758
5,44,2.5819184685,8.81378857506,2.92109018411
5,45,1.74745538879,9.76808705093,2.26102922853
5,46,0.806792029615,10.3145984554,2.08964999637
5,47,0.0739096135441,10.260225462,1.94560159183
5,48,-0.156724165056,10.0456861067,1.23887055525
5,49,-0.0659976824093,9.89255428825,0.0954083132656
5,50,-0.364815748535,9.71255669797,-0.594255052988
5,51,-0.749338189265,9.49271923657,-0.885492536823
5,52,-1.05526505279,9.63427822777,-0.95032746927
5,53,-1.57059302036,10.3475510251,-1.11636551018
5,54,-2.52989791544,11.214217253,-1.78992758529
5,55,-3.456297256,11.8538545905,-3.02580386997
5,56,-3.5708012622,11.9610563258,-3.75967065442
5,57,-2.30061107469,11.3385641258,-2.35719540378
5,58,-1.7839821297,10.038759151,-0.00634707170463
5,59,-1.43166362442,9.25774053157,1.39158177489
5,60,-1.8921070497,9.19621600988,1.78303061233
5,61,-3.38612660557,9.02541266179,1.86957923941
5,62,-3.60867281905,9.10201026913,1.83710141353
5,63,-2.51454827435,9.62353819009,1.91215345751
5,64,-1.46158594292,9.92305548841,2.10471812606
5,65,-1.21393006264,9.85346209443,2.13741825956
5,66,-0.868295093752,9.736685848,1.72280012011
5,67,-0.374078456461,9.6901937029,0.646980343097
5,68,0.0334737381357,9.87103991148,-1.01815263097
5,69,0.0088047518811,10.4149072229,-2.38415406751
5,70,-0.324691154684,10.9157734383,-2.86646379717
5,71,-0.656320140328,11.2509488516,-2.83995609329
5,72,-1.00216068034,11.4978020788,-2.67111442137
5,73,-1.11741505043,11.6041925495,-2.37727843895
5,74,-0.883364436344,11.5633515422,-1.7780695139
5,75,-0.807829144232,11.5370528191,-0.137679005793
5,76,-0.728925197047,11.7965382744,1.77824962035
5,77,0.00251393249354,12.8319265675,-0.651200755361
5,78,1.18771321171,13.5586689555,-7.57057155275
5,79,0.793082387136,13.7268728775,-14.9980257618
5,80,0.191048119489,13.5082311346,-16.7205492939
5,81,-0.122737876715,14.4196736705,-8.66703024133
5,82,-0.563285094943,15.6060868401,1.59737410507
5,83,-2.55663647509,16.4256271372,1.1843225734
5,84,-3.95958401797,17.3829728752,-4.50182305583
5,85,-3.04420652779,13.3986053063,3.04889335254
5,86,-2.9006990008,13.2109687803,4.36303572611
5,87,-0.588632984472,17.103865948,-4.57443479398
5,88,-0.821361573005,16.3740020219,-2.5246665177
5,89,-1.33255732236,14.401525311,0.344871947214
5,90,-0.201464396893,13.4398532975,4.1343423521
5,91,0.474758857819,12.3414335502,4.91755626258
5,92,1.40355505864,11.4404857688,3.55309202599
5,93,1.9602910669,11.0167440713,4.43389943326
5,94,1.93531752493,10.7198348807,5.76670594464
5,95,1.7846709476,11.2544627084,5.73002004731
5,96,2.10471190667,13.1639741246,4.92069121773
5,97,3.7263907649,16.0826006391,4.41673673348
5,98,6.36354863415,20.3624518178,3.50521314713
5,99,8.62220482948,23.4534633234,1.69453819467
6,0,8.62220482948,23.4534633234,1.69453819467
6,1,10.3989532694,21.7031964306,2.43013216619
6,2,12.6534659938,18.1352140693,4.32501981886
6,3,12.049787121,15.0077877261,6.67938331209
6,4,5.30051196534,13.6127208183,6.28291440039
6,5,3.56953260669,10.0418225448,5.60887232274
6,6,1.66052033613,8.05560008194,4.47438057699
6,7,0.466012338433,7.71705911088,3.36964488384
6,8,0.207646725226,8.04764618597,4.38156974986
6,9,-0.286278514198,7.60047681663,5.06192528475
6,10,-1.78668921029,6.72112186482,3.88043073006
6,11,-0.43828588316,4.40633745001,-3.78010004768
6,12,0.45087142878,5.15965859092,-2.96348276735
6,13,-0.046799092228,5.64623094261,-0.659375992291
6,14,-0.491622049104,5.90032199276,0.721254800627
6,15,-0.232591033202,6.04393480455,1.65617801031
6,16,0.494941157191,5.94945127466,2.50704876401
6,17,0.95865130606,5.35107283683,3.03073205741
6,18,1.36288966913,4.63648438927,3.50891872879
6,19,1.77933179996,4.17750717535,3.9661408906
6,20,2.04424930217,4.20004610698,4.19706061819
6,21,1.95969822345,4.40236799242,3.86965359945
6,22,1.81847992493,4.35827938203,3.11104548099
6,23,1.56315634633,4.29711795789,2.31534219565
6,24,1.54828523157,3.92789703218,1.01595792254
6,25,2.48455526765,3.21402528422,-1.80623816151
6,26,3.59845745462,3.52432145156,-6.0270220548
6,27,1.29680727845,6.36126531661,-13.1779361871
6,28,-7.42756044604,12.5921695842,-18.2369349707
6,29,-10.8363916696,19.1436756323,-14.4917540026
6,30,-11.289895129,17.6674783295,-11.5974695976
6,31,-10.6215690191,13.862847294,-10.2840745147
6,32,-3.18590552526,14.0266301197,-4.81206181348
6,33,-1.91194052241,13.4198308099,-4.50144848726
6,34,1.250867991,13.3350746986,-3.69371261163
6,35,4.37184978134,9.30661556659,0.4074137656
6,36,5.30545980224,8.16845805165,2.52742685047
6,37,5.89001053968,9.42411041921,5.78794958597
6,38,6.04991117461,9.62874188442,7.94087630564
6,39,4.10656045502,9.6182168943,7.34819311659
6,40,1.6926989209,11.6588182479,5.56229225272
6,41,1.69583784788,14.1035900875,4.79497263449
6,42,2.75155187211,14.0861919322,4.16982324958
6,43,2.41318044911,12.8171106856,3.14738829761
6,44,2.47358648916,11.0458323411,2.16715397993
6,45,2.25469258644,9.87164936671,1.68628522396
6,46,1.9428449263,9.53883516111,1.34505161361
6,47,1.36312873625,8.83398348886,1.35360017774
6,48,0.426811468409,7.85712317637,1.24078844779
6,49,-0.146393507877,7.38330517409,0.964974079467
6,50,-0.264367298363,7.73131110602,0.544692863349
6,51,-0.500803510749,8.35770553306,0.351927182951
6,52,-0.846324972018,8.73689692256,0.183286889924
6,53,-1.56814305814,9.27828920247,-0.229629010063
6,54,-2.42213883894,10.1016583719,-0.750855260239
6,55,-3.20426179595,10.8050063184,-1.68597496746
6,56,-2.17634770374,11.6321206372,-0.856893867735
6,57,-1.16875590009,11.8819073688,-0.290712702718
6,58,-0.879374942137,11.367420322,-0.201110619009
6,59,-1.24855806789,10.716940878,-0.15901288909
6,60,-1.97817668375,9.42740479163,1.22736063682
6,61,-3.57884069382,8.61481880946,3.45361432033
6,62,-4.46958017752,9.24201676101,4.33696586057
6,63,-3.97802636843,10.2769550049,4.31786550769
6,64,-3.31445715041,11.116315848,5.36456855267
6,65,-1.9312736817,10.5399009153,1.90430274304
6,66,-0.917636809767,10.2959665278,-0.466459376399
6,67,-1.14493399927,10.035057174,-1.17051151739
6,68,-1.07096236728,9.46811916259,-1.71980478691
6,69,-0.312900158597,9.31119397296,-2.04546623873
6,70,0.29633724711,9.72257617287,-2.25480790817
6,71,0.568340627221,10.3717658118,-2.29887149422
6,72,0.614094540046,11.1505142837,-2.17877877395
6,73,0.603877397069,11.7954853124,-2.02951345813
6,74,0.673589433388,12.0174058493,-1.77903229427
6,75,0.633735913525,11.8716932803,-1.35807744065
6,76,0.401597584919,12.0156206663,0.0623178957848
6,77,0.573512751843,12.5692187442,0.349154407237
6,78,2.02037068691,12.5688672219,-6.80523936453
6,79,2.18584363857,12.6967821405,-17.7974383059
6,80,-0.060842525518,13.9957724672,-18.7172239565
6,81,-0.175463899287,13.4458213996,-10.6155632064
6,82,-0.279563989682,14.1180646623,1.35575634312
6,83,-1.00486626799,13.9678000457,5.39672979891
6,84,-2.78584643537,14.9688868142,3.3265963311
6,85,-3.75559035246,13.6624836493,4.84646178341
6,86,-3.84425910203,13.0975366909,7.73453832787
6,87,-2.93381432706,15.7418175155,0.149682317185
6,88,-1.57772463741,16.9968133971,-3.39161277542
6,89,-1.38406387472,16.5623709107,-7.41825024526
6,90,-0.0252436456913,15.8252163085,-5.28744814353
6,91,1.09242392087,14.3261150405,-2.09743684198
6,92,1.90421909919,13.2420738096,0.513130103175
6,93,2.67677195014,12.1687154529,3.19208271941
6,94,2.72495390475,11.4735182069,5.16283898704
6,95,2.04633626267,11.0755931251,5.5727714987
6,96,2.25111666032,11.9058690288,5.88334333518
6,97,3.77720273394,14.1108599528,6.26284714833
6,98,6.27893208765,18.0051725878,5.65626277931
6,99,8.58032565997,22.169793985,3.6898915113
7,0,8.58032565997,22.169793985,3.6898915113
7,1,10.2625015726,20.7139663075,4.05249893008
7,2,12.204728361,16.946263691,5.34720904579
7,3,9.04742289283,13.4576807388,5.21960669098
7,4,3.07248829426,11.408153787,3.10245442546
7,5,1.9944613536,9.82838824872,2.72120164766
7,6,1.60948172854,9.43177282688,2.76654411029
7,7,1.28130168431,9.37785430648,4.9764581502
7,8,-0.46336849301,8.72099570269,7.38583507809
7,9,-2.54455240067,7.92003468159,6.94856751398
7,10,-2.54274649055,6.76359627766,3.01037715607
7,11,-0.128919939724,4.62099448433,-3.05008530737
7,12,1.19880716861,4.62208902779,-3.755470558
7,13,1.30080524108,5.32824797036,-1.61067472034
7,14,0.389848899181,5.27401248326,0.225533112106
7,15,0.280442937165,5.27082151918,1.60398765452
7,16,0.822069412531,4.96172090104,2.54466544098
7,17,1.20688716534,4.46870535416,3.57778747234
7,18,1.23997374495,4.00153241854,4.18505835209
7,19,1.15388309271,3.6347657276,4.15334002847
7,20,1.26031489852,3.96759476465,4.06567247373
7,21,1.14802200788,4.87714456968,4.02643315098
7,22,0.595500384888,5.5146441403,3.92403380919
7,23,-0.112685624418,5.38973926673,3.37838377288
7,24,0.220059844887,4.77477396523,2.03526614427
7,25,1.87274680992,3.73159708254,-0.733729034094
7,26,4.2819591894,2.44997104082,-6.03702396386
7,27,2.62596992727,2.50887204466,-16.3898384042
7,28,0.888943222614,4.9284797496,-25.4225734652
7,29,3.24426742961,12.3585202033,-24.0237870379
7,30,0.257306889017,12.0350874588,-20.8394548469
7,31,2.80739421178,5.86599032116,-14.6463485865
7,32,-0.123180569192,9.71909584933,-7.18972484684
7,33,-0.605610235775,11.5767188247,-4.37494856041
7,34,2.53573922515,10.4280252618,1.70336573614
7,35,6.29658734233,13.7796753468,6.78624674148
7,36,6.93727347935,19.6756405196,7.10809325367
7,37,4.74206900703,15.2761113078,5.71682940435
7,38,4.67877627478,8.96035934117,7.16014891412
7,39,4.53392597058,7.24538941174,7.55011088948
7,40,3.45109056407,6.32305760058,6.82114482297
7,41,3.04064169139,5.82209139728,5.39232242336
7,42,4.15733120007,5.94376388031,3.84178603679
7,43,4.32683839353,6.68372627105,2.94647073931
7,44,3.44629703122,8.16727814244,2.41052381519
7,45,2.41416994659,9.92036966833,2.30548181076
7,46,1.17074686181,10.7808153701,2.38539510692
7,47,0.124889109304,11.0671523653,2.06201828757
7,48,-0.571252682488,11.1352796836,1.13121806914
7,49,-1.17410552358,11.0305691428,0.158013776766
7,50,-1.83112778915,10.7839353934,-0.674070313033
7,51,-2.28568849902,10.6642075258,-1.28539524557
7,52,-2.7173914887,11.2357963253,-1.6779937593
7,53,-3.45819557462,12.4062989911,-2.42846410727
7,54,-4.4672443579,13.4319281679,-3.85253930094
7,55,-4.17050515527,13.433449045,-5.11093444417
7,56,-2.24122694877,11.8731932119,-4.37261754464
7,57,-1.42766785809,10.4535840422,-1.80655610103
7,58,-2.62437161067,9.09803371798,0.0241949886079
7,59,-3.01842286339,8.21868500067,1.11108649684
7,60,-2.96828269882,8.27252089314,1.37170881099
7,61,-3.15162139448,8.91568998794,1.13906702383
7,62,-3.03850454055,9.66106804409,1.26783222806
7,63,-2.364837819,9.9900353349,1.93248184443
7,64,-1.29621540206,10.017060023,2.84840257127
7,65,-0.482305555542,9.89449947317,3.406683494
7,66,0.0381013230473,10.2911873998,3.79910968783
7,67,-0.303833817702,10.5197752872,1.08469800601
7,68,-0.592933542219,10.492801808,-1.46712647396
7,69,-0.352510991476,10.7547963585,-2.57233325684
7,70,-0.22608050967,10.621018421,-3.34664818901
7,71,-0.535492147679,10.4254358914,-3.6549527609
7,72,-1.00363362639,10.5439773291,-3.22506090082
7,73,-1.18769445386,10.673169836,-2.11422914997
7,74,-1.11325047639,10.5964694001,0.103151489116
7,75,-0.75964805091,10.670603782,1.90026842261
7,76,-0.3809333979,11.7002954604,-0.219693740999
7,77,0.509375807766,13.1144472741,-5.00505401705
7,78,1.07148463048,13.2003341712,-11.3083384292
7,79,0.568059418851,12.9754158525,-12.3601602873
7,80,0.220281642822,13.4868153471,-3.13892040985
7,81,-0.436167313077,14.3355915457,2.41914588506
7,82,-1.59217093219,15.489580549,-0.0480328640177
7,83,-3.01107982393,15.2639822362,-2.33594906777
7,84,-3.6610372604,13.3903273081,3.53085607014
7,85,-1.92146225878,14.2840711168,0.975049833726
7,86,0.274035930864,15.8704855009,-3.88448297123
7,87,0.334547537402,15.5861586453,-2.99192181844
7,88,-0.202967901655,15.1713045612,-1.66200133727
7,89,0.352923991982,14.4340525869,-1.22332003314
7,90,0.981999184358,13.1958787102,1.41600006931
7,91,0.716552539199,12.2800124408,1.34712591143
7,92,0.687772502028,11.6652325629,2.60048343585
7,93,0.775725232988,11.1100424876,4.80335952155
7,94,0.772872760723,10.4473330751,5.05668332821
7,95,0.89703071289,10.5360697964,4.93840887285
7,96,2.07770380865,12.1801681491,4.74001610559
7,97,4.03604484658,15.4643767078,4.00568316534
7,98,6.54302667834,20.0247056117,2.64229577803
7,99,8.25532032016,23.0726093157,1.54778713393
8,0,8.25532032016,23.0726093157,1.54778713393
8,1,10.1126182159,21.0070037653,2.53024051066
8,2,11.5423399589,17.7111864963,3.59494273047
8,3,6.74982994865,15.8038628823,4.81885130088
8,4,2.39947889056,11.1589958448,4.43476255865
8,5,0.715965914637,9.13550345747,2.89999344368
8,6,-0.599237487785,8.65105423508,1.66080859808
8,7,-0.24095015275,9.35451554355,2.69945646525
8,8,-0.442344928569,9.6481439666,6.1218118343
8,9,-2.61055200819,7.52697203708,6.51825596202
8,10,-3.20440355569,5.63639364935,4.36770187986
8,11,-1.54146335391,4.48066444176,-0.266455485804
8,12,0.417220131093,4.01567462284,-3.57315536999
8,13,1.19826765653,4.61863465888,-2.96861178086
8,14,1.46194633576,5.16144293135,-0.629195176264
8,15,1.53727616652,5.3704047029,1.01791419748
8,16,1.56713184627,5.52955942371,2.04528499478
8,17,1.51821331917,5.46223104673,2.61524734016
8,18,1.48946182912,5.376473706,3.26031339472
8,19,1.60906623512,4.8425110077,3.49816478909
8,20,2.01400784572,4.4426446737,3.4014161906
8,21,1.99748937883,4.43798199475,3.78664494819
8,22,2.14620769841,4.08867196657,2.95817536817
8,23,2.28779314195,4.47836181263,1.55906874065
8,24,3.02568494252,4.42291215402,-1.40224901356
8,25,4.33117875121,4.71656923032,-6.68093499319
8,26,0.189214879824,6.50924843791,-18.2294114245
8,27,-5.31322359946,10.0264330258,-21.6879097629
8,28,-5.37854742168,13.7202783433,-19.7448865308
8,29,-6.47145847937,10.2404771747,-19.5374561457
8,30,-4.34583838739,6.78902703453,-15.5674081651
8,31,-2.01744784857,12.2037799874,-4.18505093042
8,32,-2.05925156159,12.939815824,-3.78395032717
8,33,1.00957692112,10.7347932694,0.00754376803724
8,34,3.79744780942,7.51727325886,3.3349639579
8,35,5.79976666873,10.1442893891,4.20894950083
8,36,6.25890390089,13.3165685635,5.90556724923
8,37,4.51288479643,12.7051898383,7.34881363683
8,38,2.04784974922,12.5877105222,5.5763616809
8,39,2.15396158473,13.5558794494,3.90626152653
8,40,3.4984861372,12.7537708121,4.86183255195
8,41,3.14829437462,11.8767887371,5.29371206607
8,42,1.80082539085,10.8042914235,4.63001820742
8,43,1.11071078141,9.46532515584,3.04759554262
8,44,1.03715134998,8.56771343743,1.57628017695
8,45,0.95180907699,8.33479248807,0.846999981159
8,46,0.739030525198,7.88941150499,0.73480287365
8,47,0.463855086785,7.0985112473,0.805666119313
8,48,0.496688986131,6.84863004416,0.815279170505
8,49,0.638562113653,7.39793843847,0.854059235572
8,50,0.73887336167,8.41317984403,0.506620859578
8,51,0.455184757192,8.95498302928,0.166644531324
8,52,-0.155572447819,9.14598276427,0.0782643966689
8,53,-0.608606115496,9.7454221116,0.230518756826
8,54,-1.13955688877,10.5847813778,0.181827628386
8,55,-1.45989747498,11.3731017947,-0.19924886717
8,56,-1.16683065295,11.64484172,-0.380747420992
8,57,-0.899958669531,11.5088727358,-0.730266651847
8,58,-0.440311226804,10.660237366,-0.501636498709
8,59,-0.335586041721,9.64687905123,0.649379315903
8,60,-2.59902259039,8.37869711105,0.43925885886
8,61,-4.25256637398,8.00735011372,0.809068455415
8,62,-3.73234662812,8.77901256278,0.85394912302
8,63,-2.66192751338,9.64121963822,0.934877538674
8,64,-2.43376753272,10.3021063412,1.34568264412
8,65,-2.95918764123,10.5958503056,0.982128709704
8,66,-3.10228441012,11.1881095791,0.261805280358
8,67,-2.71487904163,12.304800973,-0.0653595834535
8,68,-1.61478574106,13.2067316064,-0.842078991407
8,69,-1.10459545743,13.1441181567,-1.76496972452
8,70,-1.2123091372,12.7524322307,-2.36126434844
8,71,-1.12907976909,12.511870158,-2.52774116612
8,72,-0.810413600709,12.2478669092,-1.14837372458
8,73,-0.167891709295,12.2935106056,1.31348016626
8,74,1.3285245332,12.4968379372,-1.2513766064
8,75,3.58195723695,11.0269877377,-12.0036681229
8,76,3.35112097208,11.4545813382,-19.4246498698
8,77,2.28866849019,10.8837350723,-18.3108090512
8,78,-0.102303659736,12.4125667788,-5.29170482176
8,79,0.806775061417,11.1026125793,3.61623001553
8,80,-0.138377787512,11.7457189321,6.79002509677
8,81,-1.8238746085,14.0645059366,3.52510588782
8,82,-2.37750413672,14.6848330108,1.07233076577
8,83,-4.15136453713,13.3492937982,3.98315695969
8,84,-2.40809951189,14.015416462,3.06641293302
8,85,0.239017092642,15.7265769873,-3.39439783503
8,86,1.64194002875,16.3961307715,-4.2877465391
8,87,-0.0983395826038,16.3575533988,-4.02506454279
8,88,-0.986054380045,16.1261127733,-2.27141515722
8,89,-1.12822952535,15.0480408111,1.66775131603
8,90,-1.82211694597,13.822121465,2.16150135177
8,91,-1.07584319699,13.0143281179,2.54442676684
8,92,0.367315729655,12.8368559113,4.21808182758
8,93,1.18238844128,12.2934021821,5.63344935534
8,94,1.6822905437,11.6674206002,5.41607665217
8,95,2.30447141509,11.8740886143,5.41073816061
8,96,3.44795162559,13.7482563399,5.28524212653
8,97,5.17340148444,17.3305030646,4.45272425783
8,98,7.22286749822,21.6085551564,3.46441952442
8,99,9.90762719837,23.0440681408,4.00358757541
9,0,9.90762719837,23.0440681408,4.00358757541
9,1,12.1190322961,19.4903536845,5.66911461182
9,2,13.095928069,14.4240710302,7.56232794275
9,3,7.48802077451,10.4244205083,6.49469723413
9,4,2.08236137761,10.2513942136,3.11132209415
9,5,1.33738478016,9.72946773825,2.08299253849
9,6,1.15787331767,8.97626291589,4.59154128086
9,7,0.00301375089444,6.78106927542,5.82101916804
9,8,-0.203449497006,4.6656948489,2.99340217388
9,9,1.12688950013,3.51227495513,-0.965735484478
9,10,2.03831669981,3.70164202912,-3.2110242105
9,11,1.26903379736,4.69496972326,-1.49482631517
9,12,0.492733461969,5.19037675889,0.820846401185
9,13,-0.218666869582,5.04116580108,1.93099323027
9,14,-0.0890587132906,4.7703051377,2.39493828524
9,15,0.532316718529,4.21333445701,2.63403045119
9,16,1.24066215019,3.76037275319,3.24567481794
9,17,1.90441266765,3.64711773681,4.23764572832
9,18,2.34883625961,3.82381307322,4.87457173222
9,19,2.60655358923,4.51315342496,4.92118670894
9,20,2.2056358653,5.60566423167,4.72852304214
9,21,0.666437303632,6.06058689777,3.99537759995
9,22,-0.170447742808,5.61357140077,1.83648633979
9,23,1.02183169255,4.34953943962,-1.64234931279
9,24,3.67892841776,2.88219574107,-6.81455013649
9,25,2.801279138,4.54892142015,-16.2875885999
9,26,-2.37057547463,7.49325119735,-25.1610374648
9,27,-3.86169560378,9.31892551614,-21.7348500532
9,28,-4.53838815152,9.95117336443,-18.801991114
9,29,-2.21617515941,11.0637815408,-9.97055117538
9,30,-0.565370832141,11.6315693275,-5.92347056591
9,31,-0.769627516661,12.6664636195,-5.36597589515
9,32,1.24528593227,11.2744366905,-0.557397932163
9,33,5.2813441399,10.3987167837,4.18142996512
9,34,9.24122521128,16.3589618055,5.15865216238
9,35,6.35552026794,18.8035529031,2.47759165406
9,36,1.75919432467,14.0757335062,0.780605762457
9,37,2.47218039944,10.6681488167,5.36503208585
9,38,4.17064965991,7.89108885578,9.63365115107
9,39,3.23979610858,6.6978074213,8.86460096016
9,40,1.76795870052,6.34472306566,7.67946473188
9,41,1.48871134412,6.5785269298,5.96309555692
9,42,2.43503665389,7.98955754551,4.06930550196
9,43,2.88473458436,9.48896523552,2.74791169511
9,44,2.61774210973,10.5166628323,1.79165032781
9,45,1.36106524596,11.2716984317,1.47305057238
9,46,0.149642330575,11.2046030341,1.58705533373
9,47,-0.344085525947,10.4102483107,1.01217726862
9,48,-0.269337873516,9.45240308732,-0.360393399835
9,49,-0.34938415619,9.19630854962,-0.648661858637
9,50,-0.645444787211,9.33567292873,-0.699055108872
9,51,-1.52866979119,9.85121816182,-0.920682621884
9,52,-2.78334746504,10.9923074232,-1.69268268167
9,53,-4.09255884887,12.7699403366,-3.13546928892
9,54,-4.80306373615,14.1204222485,-4.52163168559
9,55,-4.36767201203,13.455003447,-4.26014637259
9,56,-2.85709351402,11.1635545691,-1.83019544031
9,57,-1.19042995447,9.11897856249,0.0343150040867
9,58,-1.42379985274,8.21118326975,0.0133836656542
9,59,-1.9714838897,8.41066810771,0.0749282478917
9,60,-2.77054914604,9.10607388658,-0.0600905468618
9,61,-3.51879392363,9.55661825292,-0.116259810433
9,62,-3.56133888438,9.72486463275,0.368421783526
9,63,-2.50185256936,9.67101414831,1.56929983801
9,64,-1.10314909021,9.17846892147,2.87493147206
9,65,-0.0835706537808,8.63672075768,3.42991554539
9,66,0.191693869621,8.8901371495,3.01879749894
9,67,0.402961497469,9.71975418384,2.02479910586
9,68,1.03220028084,10.5565739303,0.368994626665
9,69,1.25495317747,11.0860602546,-1.19715532611
9,70,0.803253418165,11.0391155673,-2.4617465313
9,71,0.18409373404,11.0406690868,-3.2097500915
9,72,-0.0969107548492,11.2343785838,-3.33760268448
9,73,0.121996463494,11.3492397497,-2.71106980858
9,74,0.449418170766,11.1813253421,-1.57040650625
9,75,0.656201857035,11.0802478138,-0.901865076195
9,76,0.598523223708,11.2613361294,-2.32866194869
9,77,0.816032019693,11.6096660311,-6.524326387
9,78,0.789730463103,12.2565166632,-10.6692623071
9,79,-0.503750275845,13.154365753,-9.14485800291
9,80,-1.43690959484,13.2588598708,-2.70539411962
9,81,-1.86503543874,13.5684668967,3.26449450581
9,82,-3.1685837718,14.4284406989,5.25866021795
9,83,-4.60029404771,14.5741135687,3.99164953783
9,84,-4.47447783071,14.4219420645,4.6747375618
9,85,-2.48858404487,15.7084630509,2.92141460554
9,86,-0.324107530055,16.9028080606,-3.16139515301
9,87,0.888312351583,17.8959050408,-7.16882881463
9,88,1.07471019568,18.6070412632,-8.5513258861
9,89,1.17164136105,16.896398173,-6.27354102866
9,90,1.83556141967,12.8538496708,0.756821279913
9,91,0.800322268768,11.5727929294,1.44249147729
9,92,0.881553503202,11.4086461145,3.57530472331
9,93,1.00722810013,10.9357778184,5.94168562033
9,94,0.367357026393,10.3454619647,5.83873622358
9,95,-0.210300684162,10.5963130815,5.82287603487
9,96,0.765427669073,11.9918718684,6.25610008149
9,97,3.14252292249,15.0415056656,5.92136333278
9,98,6.26790312599,19.604934566,4.58043796931
9,99,8.58157500716,23.4625837458,3.05853266088
10,0,8.58157500716,23.4625837458,3.05853266088
10,1,10.6157303279,21.2320960282,5.39537212248
10,2,11.6145576232,16.8542944462,7.87152139655
10,3,6.74617596802,11.8896732241,7.08271257545
10,4,2.26420014409,10.523477202,4.53480674079
10,5,1.51831665251,9.09188212743,2.65827582244
10,6,2.01755100576,8.95537280532,1.94313969861
10,7,2.47416302778,9.08983215104,3.29121128192
10,8,1.09618940855,7.92406198978,4.28040063546
10,9,-0.32433763254,5.85176561776,2.74527911094
10,10,0.454264702692,4.03212151214,-1.40486701046
10,11,1.47503820711,3.81023276926,-3.56644789867
10,12,0.909607923951,4.84908284674,-2.04672181731
10,13,0.384112864531,5.33111550481,-0.254468780108
10,14,-0.0603648675919,5.31798112709,1.17862146016
10,15,0.214023690381,5.13168000908,1.88338870017
10,16,0.831106105141,4.66753744768,2.07685440304
10,17,1.45313556503,4.32905568929,2.2995849761
10,18,2.07803336595,4.08811164549,2.73653594733
10,19,2.47507348458,4.18803735329,3.4923302221
10,20,2.19252070934,4.47408647194,4.15092281757
10,21,1.60971260181,4.93648685624,4.48204770144
10,22,1.0510830707,5.47427821058,4.41637211831
10,23,0.584989417741,5.44628988518,2.89687107172
10,24,0.966287644917,4.70728691801,-0.0935353443896
10,25,2.4212248516,3.8735574062,-4.49522112886
10,26,3.65673673838,4.32515570728,-12.8161153989
10,27,-4.04399340705,8.23903484638,-20.7734258881
10,28,-12.1949028351,13.9465460891,-16.4101969198
10,29,-11.1241810812,15.1670215593,-13.1480977059
10,30,-8.07832515414,12.4892839743,-12.4656322235
10,31,-1.4991766314,12.3533232948,-6.77637605395
10,32,-0.247333574396,13.0292503029,-3.1937553977
10,33,3.16690225378,10.9230997767,1.95688953861
10,34,6.75559660479,14.2791552242,4.42968197918
10,35,5.51232942246,18.3802115946,4.52924152939
10,36,2.03971159798,15.7610139727,2.62985357323
10,37,2.0069878652,12.3208299802,3.69079861286
10,38,4.14137732168,8.97684110576,7.84336342361
10,39,4.59015936621,6.9658013265,8.41846004646
10,40,3.60096187662,6.5822408799,8.45182331675
10,41,2.30890197557,6.67222118167,6.65426883875
10,42,2.97315062692,7.25627060499,3.7176465908
10,43,4.25002026501,8.73365611528,1.89616178854
10,44,3.91763786783,10.312147053,0.977827514645
10,45,2.52126200554,11.5125378665,1.45185097123
10,46,1.253077602,11.6160421784,2.07159938551
10,47,0.489366008248,11.1342570154,1.9549388256
10,48,0.0292764579195,10.5752898253,1.06387765924
10,49,-0.486066288205,10.1138140351,-0.0883259217352
10,50,-1.24676742011,9.60300207741,-0.572146307892
10,51,-1.87025370872,9.33138630319,-0.650154835929
10,52,-2.10738658977,9.80762335181,-0.774148293376
10,53,-2.41487559786,10.7074369541,-1.14530122749
10,54,-2.42069736733,11.3667942714,-2.27815326698
10,55,-2.00448710589,11.2566434773,-3.72421183914
10,56,-1.05937735445,10.6461577832,-3.39148969698
10,57,-0.604799708498,9.7995391769,-1.70575120477
10,58,-2.37102341605,8.70084676177,0.227306824941
10,59,-3.7039059283,8.28688793499,0.966536126893
10,60,-4.4309592131,8.825950731,1.0906692544
10,61,-3.85317131304,9.95070163728,1.12790509134
10,62,-2.94451479822,10.915124547,1.58984502227
10,63,-2.33648403403,11.090942214,2.4407083452
10,64,-1.54354474685,11.4980523105,5.38632581139
10,65,-1.19152526308,11.173502794,4.83181408473
10,66,-1.72977819037,10.1015899088,0.013521733464
10,67,-1.47310428802,10.1642878872,-1.59895598039
10,68,-0.626002333582,10.3684306228,-2.65021332018
10,69,-0.10335656541,10.6110889803,-3.18093752851
10,70,-0.291627871252,10.8172871544,-3.20729910213
10,71,-0.899816253373,10.9868264525,-3.00149267303
10,72,-1.24082810918,11.2672631763,-2.22706369394
10,73,-1.00823060282,11.7113727899,-0.712130298927
10,74,0.11153275625,12.6732070271,-1.9649718058
10,75,0.521935882389,12.9771210583,-5.38124987231
10,76,0.369137003138,12.456922713,-9.72567652313
10,77,0.491353637727,12.5021679996,-13.9774746612
10,78,0.399993483304,13.8837426655,-11.6618282832
10,79,0.0975772376365,13.8008073121,-3.88021439368
10,80,0.121063146435,13.6525384819,2.05392112166
10,81,-0.305118573608,15.1616428274,1.43328665057
10,82,-0.638231771264,17.0297809572,-1.49744317258
10,83,-2.17684597876,14.8995267872,2.03910889754
10,84,-3.89361643069,11.4289456723,8.69668112711
10,85,-2.50241894841,13.9287594593,2.74223525919
10,86,0.168700370469,16.6573024281,-3.20182663213
10,87,0.987150821344,16.7126891161,-2.76843171711
10,88,0.568103230929,15.8524538205,-1.89058649196
10,89,1.99645778059,14.5410422306,-1.71263569216
10,90,2.85951485945,13.7274489583,-0.621737991526
10,91,2.51098381514,12.5785309942,0.995615352888
10,92,2.19759586338,11.9986023337,3.58578145025
10,93,1.86412266411,11.5084010302,5.12134190977
10,94,1.60865205115,11.0938282907,4.80771181812
10,95,1.75451890571,11.2261690503,4.38283027725
10,96,2.65456197545,12.6472444626,4.29885482916
10,97,4.17635168446,15.4493927057,4.0290101523
10,98,6.19150345183,19.0567505457,3.17864716837
10,99,7.63481031632,22.3730188948,2.57716220114
11,0,7.63481031632,22.3730188948,2.57716220114
11,1,9.29207971541,20.9292054189,4.44959100369
11,2,10.8373940189,17.0638989003,6.736668552
11,3,5.76548476029,11.9840019789,6.75877169114
11,4,1.5061815022,10.1925327828,4.61166389079
11,5,1.13974389111,8.80905418799,3.85245520275
11,6,1.00745061719,8.65241007482,3.60038289533
11,7,0.576474205342,9.06771915223,4.77012057122
11,8,-0.915244927702,8.25181850023,5.81213790778
11,9,-2.71633626631,7.09079980125,5.30031017425
11,10,-2.53460585589,5.85254095229,2.13258841527
11,11,-0.703469070669,4.38087592589,-2.65075892394
11,12,0.276047047401,3.99691551912,-4.79931465008
11,13,0.617160587293,5.00159103277,-2.96261602448
11,14,1.02911084185,5.83827157379,-0.337207086837
11,15,1.06593426716,5.7378485816,1.3628696153
11,16,1.40585525673,5.04516361624,1.80539542192
11,17,1.74861531922,4.4307970844,2.87072116425
11,18,2.22534760922,3.34970569713,4.368735695
11,19,2.05592659818,3.54230521162,5.10096561151
11,20,1.61537752683,3.87213683577,5.24038410615
11,21,1.09597722515,4.53673923702,5.01882574428
11,22,0.534561708349,5.17434260142,4.35371042831
11,23,0.38398107058,5.41912975422,3.19720554582
11,24,1.04339268205,5.26679927923,1.06350616635
11,25,2.67132710672,5.04424459164,-2.7853830521
11,26,6.74088312144,5.2175833058,-12.5987586736
11,27,0.39450335398,9.17812006045,-22.5911984076
11,28,-7.15952749729,14.3835326708,-16.9603207186
11,29,-7.36544057226,12.6070732744,-16.540214467
11,30,-3.77056102721,6.56869926361,-16.5066070255
11,31,0.529124296149,9.64605119357,-9.76420489167
11,32,-1.63376391938,12.0922691087,-5.98954262993
11,33,1.16837817377,12.6737812752,-1.85436939436
11,34,5.46438449569,11.3341639609,3.04146256956
11,35,7.32991790377,14.1268951581,4.72159834695
11,36,5.88048940271,12.9438884672,4.99465881871
11,37,3.17809463634,10.8942254942,4.44558397478
11,38,1.50642592821,10.8530141824,4.35373572011
11,39,1.95736940014,10.9080004713,5.6456208341
11,40,2.70798285972,9.51775176044,6.27225571657
11,41,2.53139442903,9.19061725185,6.36452035982
11,42,1.92405985844,9.56412472865,4.87487107302
11,43,1.89671288095,9.55301304842,2.70269963473
11,44,1.9667810326,9.76456014436,1.35786299968
11,45,1.48986575086,10.4619319468,0.708618905364
11,46,0.643030752266,10.7101231184,0.638889041374
11,47,0.0188447580983,10.3649801447,0.66538753425
11,48,-0.340820848418,10.0515163392,0.479564187328
11,49,-0.536810906061,10.0783532124,0.0830458416073
11,50,-0.763611404227,10.0455055778,-0.296830588924
11,51,-1.72507118718,9.70824298111,-0.0296163424657
11,52,-2.58868049836,9.35000147762,-0.253610095308
11,53,-2.78861435801,9.51198668758,-0.879840971203
11,54,-2.62122177608,9.69918236519,-1.58051091802
11,55,-2.21813645103,9.67477493082,-2.3265738807
11,56,-2.02994513188,9.55710138929,-2.40004181986
11,57,-2.26915395819,9.72103096227,-1.22348996267
11,58,-1.84547530518,10.2436440039,0.353741208461
11,59,-0.674616258343,10.507296579,1.4923797633
11,60,-0.684601489655,9.88845296252,3.06548358809
11,61,-1.77158888278,10.3196877851,4.1902894616
11,62,-2.70209063353,11.0447213477,6.00858189032
11,63,-2.87794488074,10.6852481934,4.13372028109
11,64,-1.62988808643,9.51222235408,0.0689753149239
11,65,-1.10627955537,9.04054487877,-1.18201486997
11,66,-0.844001561632,9.07010743671,-1.60110491588
11,67,-0.731936471451,9.11154877078,-2.01484934657
11,68,-0.494420395077,9.1594939605,-2.4930438054
11,69,-0.427779944962,9.00679501437,-2.78524121933
11,70,-0.66251745918,8.9354010555,-2.6553955451
11,71,-1.04665227032,9.23425778009,-2.00729501068
11,72,-1.35267272821,9.8955651086,-1.4813589186
11,73,-1.40614732239,10.8680991933,-1.11424828704
11,74,-1.36086745979,12.0416280621,0.653047131461
11,75,-0.813295723578,13.1928659586,2.75433165739
11,76,0.93216792448,14.2861031853,0.41909133793
11,77,1.86839503216,14.9317394871,-5.68280541896
11,78,1.26530017624,14.5006526189,-12.8061333032
11,79,0.225283336826,14.2756514919,-18.2353482891
11,80,0.735178622212,12.4748123737,-17.3045843251
11,81,-0.996019752364,15.0915210343,-3.93016054296
11,82,-1.77821688881,14.8860720041,5.91951797971
11,83,-3.48765585491,16.4471981434,4.52287217351
11,84,-3.3378358515,17.4348971559,0.0281751828135
11,85,-2.57653346716,14.2315380676,4.38116718346
11,86,-2.21096394968,15.8575453378,0.0482417853347
11,87,-1.21252019983,18.3237662456,-6.23316763364
11,88,-1.3318342745,16.8621342602,-4.31084557673
11,89,-1.02446049112,13.9555727603,0.66823292253
11,90,-0.174183225084,12.2989469708,4.22016338701
11,91,0.161259370146,11.9017019794,4.6060871234
11,92,1.01817626825,11.5658659282,4.58992375302
11,93,2.0049574662,11.7435533404,5.3727135913
11,94,2.58761910462,11.6038839608,5.85183935096
11,95,2.64259815533,11.6062066212,5.17856678345
11,96,2.71110366738,12.7189258182,3.92166337171
11,97,3.9474303066,15.1970339145,2.93204518606
11,98,6.03228236673,19.1574478477,2.47552675682
11,99,8.26585068397,22.4384081214,1.63029562291
12,0,8.26585068397,22.4384081214,1.63029562291
12,1,10.4920336745,21.908960644,2.36504014671
12,2,12.3993241527,19.0751618809,4.33054375745
12,3,13.6264517845,14.8273115576,7.49310992206
12,4,8.65015159554,10.9589330395,6.83872082942
12,5,2.27637513707,9.23491703423,3.23479721596
12,6,2.32314177381,9.58540709894,3.30397929144
12,7,2.36188710711,9.92531521211,5.54020625186
12,8,0.490155353563,8.28490072018,7.22479663463
12,9,-0.577288369341,6.55920836475,5.1256726811
12,10,0.168499637925,5.88488824488,0.260251152006
12,11,1.18212911138,6.08503857591,-2.88526698979
12,12,1.4240261061,6.36006929843,-2.4076837988
12,13,0.46178981021,6.51589809731,-0.295473278829
12,14,-1.00165370203,6.32589378172,0.281176229933
12,15,-0.886622628969,6.0909467276,0.811333907172
12,16,0.605372601774,5.45001507603,2.65327981967
12,17,1.72302602924,3.97335228661,4.32469153467
12,18,2.23402421801,2.75190839882,4.90252328218
12,19,2.45378351279,2.57405914084,5.12328795626
12,20,2.18744278752,3.3802466219,5.42261349844
12,21,1.74740778032,4.60431770311,5.21995841484
12,22,1.25703633359,5.39603737607,4.52868372213
12,23,0.652385914756,5.79416120308,3.84828263021
12,24,0.324911719257,5.58113982018,2.89180425781
12,25,0.448642586071,5.14815896534,1.34023014353
12,26,1.61530990073,4.35699370552,-1.14814745614
12,27,2.95646135341,3.46162502734,-6.45892703314
12,28,8.54566329245,-1.64668922093,-22.9553978666
12,29,5.64371316667,0.301893957403,-22.9845057686
12,30,-2.19338438803,10.1063574016,-17.2133893191
12,31,-7.67877493189,16.1239411986,-6.6547622903
12,32,1.68482147562,8.23725148958,-8.21614941514
12,33,3.36928555714,7.76912733935,-4.59519492134
12,34,-0.00464500244865,10.4940641066,-2.09210486098
12,35,4.17279343484,14.8661783311,1.10739221945
12,36,7.29320384714,20.1154424614,4.39613011335
12,37,8.52308203524,17.8329698009,3.57998362979
12,38,4.60038325245,13.5742005478,0.631350274441
12,39,2.4515778664,11.676890596,4.03339885494
12,40,3.10914169448,9.04939560021,5.91149901688
12,41,2.14300671122,7.26695592528,5.5788255205
12,42,1.55459790379,6.94583777415,5.53742709936
12,43,1.23544598479,7.46790610244,4.72004196577
12,44,0.974237001301,8.58614339373,3.47937478429
12,45,1.15727687402,10.0223618985,2.67277700809
12,46,0.590773875485,10.8145146312,1.9393817159
12,47,-0.373016488326,10.1277062045,1.05938957883
12,48,-0.696124572,9.98430938758,0.674145997291
12,49,-1.0642464206,10.1797728032,0.203791715154
12,50,-1.61430762017,10.2954022906,-0.00786051797847
12,51,-2.30510951781,10.4203084505,-0.0729604089354
12,52,-2.96083861237,10.9062870889,-0.191721464837
12,53,-3.49264838229,11.762687213,-0.436393846261
12,54,-3.86537067598,12.2393314565,-1.16483525845
12,55,-3.97330867842,11.5747669805,-2.16135114512
12,56,-2.74625238856,10.2502647512,-1.77822509164
12,57,-2.02884999915,9.54265486101,-1.31211148805
12,58,-0.188254263129,9.02709315807,0.321036781444
12,59,-0.0981971698692,8.48856022058,1.42489642552
12,60,-1.51307553028,7.99597056685,0.960371528025
12,61,-2.06723864698,8.12312462593,0.670402998667
12,62,-1.51623979591,8.22438020195,0.612463138674
12,63,-0.955972274583,8.32441970458,0.647947798365
12,64,-0.107312315442,8.65346859874,1.1773943851
12,65,0.912427851784,9.28301483363,2.64441451364
12,66,0.723467159077,9.47243654292,1.56429229735
12,67,0.0107013072228,9.70961798701,-0.45034404156
12,68,-0.572894733908,10.260965914,-1.52821897444
12,69,-1.17350277547,10.7523055739,-2.1473299074
12,70,-1.75220673344,11.0004664464,-2.44351090887
12,71,-2.1349679758,11.0527150431,-2.70683192264
12,72,-2.1828167224,11.3829534739,-2.4266294072
12,73,-1.98776825752,11.780841587,-1.903127192
12,74,-1.77244075311,12.3745768944,0.227571579883
12,75,-1.11139185731,12.9946722739,2.1990581455
12,76,0.189751148554,13.8128292906,-0.650967339582
12,77,1.06253849789,14.0490588653,-7.64862219451
12,78,1.00503777968,13.4077261768,-16.1521878566
12,79,1.63355247221,11.6363464459,-20.6681414636
12,80,2.27419111848,10.1750694315,-16.0907355684
12,81,0.510121203732,12.267072226,-2.29505892703
12,82,-0.924380850855,12.7071793884,6.51469558155
12,83,-1.70594254737,14.1651325424,7.37392765439
12,84,-1.20958673253,15.3440864643,5.8414518027
12,85,-3.20233977663,13.8789022128,7.77626473554
12,86,-2.53134942856,15.8602500224,-0.663746063301
12,87,-1.1005931276,17.1093640377,-4.05364654941
12,88,0.112955412258,17.0040448966,-5.08394241921
12,89,0.548099558058,15.0409124532,-1.56111972754
12,90,0.93121419159,13.9589479227,-0.0383421775247
12,91,1.04564459551,12.6333160784,1.02089206904
12,92,1.83589208917,11.7840743493,2.78921685061
12,93,2.73997477259,11.5103477684,5.07213108789
12,94,2.72979545006,11.3040883503,5.4879592595
12,95,2.22463927369,11.4767175766,5.07060814789
12,96,2.41449188399,12.4870525482,4.892990067
12,97,3.58564806752,14.9421909812,4.83130348318
12,98,5.65070309301,18.7985105757,4.65259242644
12,99,7.42397305961,23.6012825283,4.04237622627
13,0,7.42397305961,23.6012825283,4.04237622627
13,1,9.15624011115,22.8774396456,5.41845491619
13,2,11.26863367,18.2298856504,6.73091256017
13,3,7.07330449248,13.3641895924,5.34738096473
13,4,1.97545897701,10.5447857791,1.93825545968
13,5,1.64237329306,9.11318914697,1.10415175964
13,6,1.35159759459,9.54698585487,3.55569108001
13,7,0.552343646528,9.50904512241,7.8084079707
13,8,-1.06264277059,7.86866924496,8.86012993784
13,9,-1.90152698244,5.13054496719,4.74374079258
13,10,-0.849907518274,3.09452009102,-1.42166771488
13,11,0.179577204908,3.23772328996,-3.64845181223
13,12,-0.326978664906,4.28316315031,-1.85646922397
13,13,-0.642071614569,4.97346191381,-0.0900172062677
13,14,-0.262120447308,5.18438404423,0.071059101689
13,15,0.571763059923,4.93064955867,0.707577150622
13,16,1.91822352095,4.69979503717,2.04739191302
13,17,2.34061811689,4.23125383136,3.16969893172
13,18,2.21687243301,4.01325661911,3.86195692306
13,19,2.11225614105,4.30339483612,4.42685755288
13,20,1.80369541702,5.0515410264,4.94124370154
13,21,1.34620345534,5.69378816128,4.72389237072
13,22,0.987155151199,6.12970617686,4.25972521523
13,23,0.840049523441,6.18230724797,3.60684444593
13,24,0.847509570996,5.26846954289,2.1177797383
13,25,1.72451065484,4.07237684504,-0.425659404579
13,26,3.73597680572,3.38615917964,-4.99325051179
13,27,4.09662360955,4.26278387403,-14.4998290972
13,28,0.0167728308552,5.79119582319,-25.766145049
13,29,-1.4288106519,11.3257821353,-20.579846603
13,30,-0.894589885691,10.7551911266,-19.7072303648
13,31,-0.591293967722,9.42127009415,-12.3230506058
13,32,0.421941508744,11.3412419619,-4.64100408378
13,33,2.95122177721,15.4679115396,0.697826373689
13,34,5.98211629721,21.9470277371,6.96562061238
13,35,5.58768313527,20.8955344927,3.49005211534
13,36,-2.86075416211,17.4951173362,-10.5783429516
13,37,-1.23707354985,9.75397564978,2.42927092874
13,38,6.16962664644,4.34501970476,10.8863634693
13,39,5.19833294635,4.270837812,10.4350419143
13,40,3.11035458339,4.21061486978,9.08117042429
13,41,1.94084775156,4.67544022805,6.01651638463
13,42,2.45744831782,6.2486738177,3.09727780214
13,43,3.18914512079,8.43529753962,2.02614377735
13,44,3.1662513341,10.5206824169,1.94838388208
13,45,2.45505918288,12.0028357321,2.40994566408
13,46,1.46424034286,12.538717119,2.60531719062
13,47,0.31746575054,12.1146654233,2.0305265941
13,48,-0.87719412387,11.1262104729,1.07659636297
13,49,-1.55578667981,10.1769256806,0.220303401771
13,50,-1.7072366031,9.37409460965,-0.506357775053
13,51,-1.42016741185,9.1149817473,-0.985493306382
13,52,-1.07026650909,9.7032539319,-1.15970255886
13,53,-1.04350048172,10.5253983016,-1.47007079908
13,54,-1.24367921905,10.971180398,-1.90458951731
13,55,-1.68530825941,10.6372665619,-2.00010436542
13,56,-2.1476355335,10.2075680331,-1.31197959108
13,57,-2.0793152954,10.4125158749,-0.452417966888
13,58,-1.78458798073,10.7437503348,0.577520895471
13,59,-2.36246336069,10.9267781006,1.3598810845
13,60,-3.36572762681,10.9609968256,1.26578260057
13,61,-3.44068576871,10.7311543358,0.57775181801
13,62,-3.00052856655,10.3306517088,0.47517592397
13,63,-2.15829947313,10.1726997348,0.674216782861
13,64,-1.25306127467,10.0259522998,0.252562356647
13,65,-0.936810817393,10.0615203997,-0.298391111246
13,66,-1.19735760029,10.045509548,-1.08761164422
13,67,-1.45464861244,9.82122697534,-1.68853719472
13,68,-1.69655635183,9.63876518809,-2.06370092581
13,69,-1.95323143432,9.56303025472,-2.44762321305
13,70,-2.0841923153,9.63935422864,-2.66745565399
13,71,-2.18492523221,9.89879885547,-2.7296071554
13,72,-2.0618967352,10.4266857037,-2.77386164091
13,73,-1.81034148265,11.3411369765,-2.3803329277
13,74,-0.947076549775,12.9246170226,-1.21213705958
13,75,-0.218787436366,13.4495345975,-1.89910279484
13,76,0.548468981894,13.5886808698,-5.38397880583
13,77,1.19295910349,13.3345540966,-11.6970653307
13,78,0.441138663427,14.1883391164,-14.2973717343
13,79,-0.702786297574,14.7451959657,-9.1238808361
13,80,-1.22126302862,13.7958484554,-1.97510958546
13,81,-1.40573225366,13.5726225582,2.90454409273
13,82,-0.914700876157,14.6950040244,5.12981237326
13,83,-2.0034445411,13.856297117,8.87954877666
13,84,-1.87218680415,14.3134920627,4.41232156484
13,85,-0.674491956445,15.7844657817,-1.09841103501
13,86,1.11159753843,16.3706218094,-2.51536043077
13,87,2.17902920173,17.1837143744,-4.16107045509
13,88,1.64629174151,16.8712094802,-4.54190053878
13,89,0.810919494697,15.2353033219,-0.232033099506
13,90,0.746950983922,13.9149957321,3.35970962545
13,91,0.333036946268,12.1794713874,4.90925776061
13,92,0.793075769849,10.8786641522,4.67072070818
13,93,1.38961817835,10.4109766823,4.42704242482
13,94,1.27936829737,10.2524016247,4.39678222526
13,95,1.08501618299,10.5688456366,4.62284847546
13,96,1.49276386836,11.7139721527,4.84273358835
13,97,2.99965361688,14.5618981609,4.25367247038
13,98,4.89616883975,19.0772786331,3.50191080666
13,99,7.58895369779,23.012117167,2.91388880048
14,0,7.58895369779,23.012117167,2.91388880048
14,1,10.2575445717,22.2118387119,2.86672845679
14,2,11.9283158157,18.9982795283,3.59199381305
14,3,9.33040628311,15.4301120543,5.7560248874
14,4,2.43253404438,12.7111977579,4.53115666944
14,5,1.12965879048,10.4139312158,3.50726496715
14,6,1.019604152,9.73651242553,2.87916941679
14,7,2.28236369983,10.2654203382,4.05536911139
14,8,1.30430368983,9.50582036254,6.60759793853
14,9,-0.0521116942347,6.80877238176,5.45342765349
14,10,0.510192602278,4.64782431004,2.38887044021
14,11,1.65160351466,3.67131494322,-1.43590911805
14,12,2.43321565618,3.93111482455,-3.70350739219
14,13,0.851607078616,4.71410676124,-1.39627971284
14,14,-0.247646528001,5.05691432295,0.946870790362
14,15,-0.734329449975,4.99300167595,1.50998679103
14,16,-0.410422896403,5.07787515201,2.69606276067
14,17,0.909279272561,4.86521493406,4.27703033596
14,18,2.76560019298,4.65888588058,3.7496822536
14,19,3.40863625909,5.16394468446,3.52570420385
14,20,2.83324639858,5.69632637215,4.0287264138
14,21,2.33905854156,5.88773161825,4.1376196126
14,22,2.34966714146,5.94045501439,3.61637944011
14,23,2.00446116205,5.78126416451,2.45086525964
14,24,1.83622979074,5.37839533977,0.359758526116
14,25,1.90759469167,4.80582767209,-3.68919839793
14,26,1.02841178414,2.44475605364,-14.1731290481
14,27,3.1577040272,0.929398531388,-26.1168931946
14,28,2.04020247143,8.63901111417,-22.5878333855
14,29,-0.107537540138,7.59240614565,-20.5741647245
14,30,-1.36763908026,8.90040117519,-10.0994306871
14,31,1.87012266467,8.13994721871,-3.88250839393
14,32,-1.3126481241,10.8365017405,-2.74347195069
14,33,1.22808335439,9.35199824323,0.787013534925
14,34,3.45976701451,10.8659131373,2.06394557943
14,35,6.12875273726,14.5089466757,4.36610271429
14,36,6.18971085999,14.7798463771,6.94056836008
14,37,3.55991275854,14.0004929686,5.07762130895
14,38,2.32972285976,13.4260513085,3.52630848605
14,39,2.81064958325,10.6391790684,5.22631653774
14,40,2.19396317014,8.61351228025,5.60286096031
14,41,0.87964309079,7.92791875943,5.55603301608
14,42,0.457992831401,7.61678366242,3.96608486422
14,43,0.987161911773,7.72008610916,1.93735986398
14,44,1.62620166818,8.60810484324,0.84311866624
14,45,1.5083752914,9.57564327907,0.567117123476
14,46,0.674511808594,10.0655523727,0.606559908582
14,47,-0.117474432894,10.1280417325,0.752570095534
14,48,-0.591366150586,10.2317286143,0.92358476261
14,49,-0.896865859791,10.1342516685,0.71630341586
14,50,-1.32538557054,9.6548646041,0.326754450795
14,51,-1.89556637358,9.41034782252,-0.00875232839186
14,52,-2.58898298991,9.83288807479,-0.538982746427
14,53,-3.37701346229,10.7510648014,-1.51979548462
14,54,-3.50981942036,11.3237173194,-2.48797452329
14,55,-2.5231919918,10.7236294778,-1.93002605402
14,56,-1.82867980689,10.3021173563,-1.28475050808
14,57,-1.18919746104,9.90741082759,-0.614808553131
14,58,-1.04814049796,9.17478284233,1.15662563524
14,59,-0.829303380003,8.6222894301,4.12511967155
14,60,-1.06120007857,9.15777979933,5.76414700303
14,61,-1.34222164535,10.4663002636,7.22605614485
14,62,-1.07552129278,9.78733870031,3.13534028144
14,63,-0.32295752583,9.04345044556,-0.78450067644
14,64,0.344215549069,9.46701526515,-1.45666945132
14,65,0.921976598917,10.1633665731,-1.74395646079
14,66,1.18622894324,10.8440562282,-2.37835003651
14,67,0.905515640927,11.373167032,-2.97533147767
14,68,0.264390365243,11.6367626505,-3.32131498582
14,69,-0.529977257879,11.3579304509,-3.30588621614
14,70,-1.05637916462,10.957963095,-3.02544028518
14,71,-1.20946414801,11.146338185,-2.56175289263
14,72,-1.70211830251,11.9113726916,-0.719012761598
14,73,-1.92057882434,12.7135522532,1.72387748613
14,74,-0.961114158473,13.2694507876,-0.893996556542
14,75,0.109665668265,13.3576227254,-8.06021490186
14,76,-0.129218766567,12.7598168878,-15.29153419
14,77,-1.25171031062,13.0796156539,-17.0134131752
14,78,-1.32215606878,13.7853253433,-9.76758764931
14,79,-0.392978376717,12.7028775178,-0.897069874799
14,80,-0.373681238316,11.6906948507,4.44784065607
14,81,-1.49290870838,12.7285668891,4.9402773721
14,82,-1.63985960773,15.1712832785,2.10393051298
14,83,-1.93700374602,14.9408924068,4.17982797878
14,84,-3.01165725191,13.0589661063,6.10853227112
14,85,-2.07823712079,14.1994814342,-0.84245039719
14,86,-0.601459366489,15.7685499884,-3.16761638546
14,87,-0.516102246753,15.8675712595,-1.87156674858
14,88,-1.54837001102,15.0420623286,-2.07704567753
14,89,-0.978589441444,14.5239849445,-0.850872687324
14,90,-0.0670203236433,13.4471828174,1.25535816352
14,91,1.02920173618,12.6757641975,0.406510000565
14,92,2.87174206504,12.5611629493,1.0433105597
14,93,3.41213981423,12.1549182807,4.42229272372
14,94,2.76052222747,11.2593659525,6.24088176932
14,95,2.56628945628,11.214630359,6.11819313624
14,96,3.36878039226,12.6951803098,6.07471006038
14,97,5.0746223646,16.1622875114,5.23277802666
14,98,7.56266254021,21.3868290284,3.28468001134
14,99,9.56072487327,22.8988582622,3.38014960377
15,0,9.56072487327,22.8988582622,3.38014960377
15,1,11.0130718248,19.8838278075,4.20055331921
15,2,7.38379681556,11.6352153929,3.91195711593
15,3,2.20546817209,9.95770743556,2.97078119385
15,4,0.675992953737,9.03555396614,3.33364329732
15,5,-0.0591765455872,9.50399602811,2.77966562918
15,6,0.557208233769,9.76035615425,4.05430154281
15,7,-0.455440565654,8.39649662059,6.44372485055
15,8,-1.92801037454,6.24811194791,5.9082228453
15,9,-2.03949244269,5.00090797898,3.80191724316
15,10,-0.598979321335,4.38941574694,0.728917867242
15,11,0.562279253453,4.26478633348,-1.41363087422
15,12,1.13944031429,4.4953040643,-1.56779416345
15,13,1.93821247758,4.5704275847,-0.464025755073
15,14,2.14194567098,4.60006626733,0.6937712505
15,15,2.13965659306,4.54246779256,1.30855512745
15,16,2.14044418379,4.35227388823,1.53211751498
15,17,2.26514672209,4.24098409781,1.78031689064
15,18,2.07804013681,4.27259270399,2.41047618879
15,19,1.60925208886,4.58841632971,3.49889704818
15,20,0.681069796137,4.8692370571,4.08064798059
15,21,-0.0948524680257,4.82652665079,3.126460151
15,22,0.192091301771,4.47840890888,0.84541986318
15,23,1.82118648398,3.69041192225,-2.4777103373
15,24,2.70914515384,2.96292984998,-7.58635299862
15,25,-1.91437736413,3.3987795,-20.6163432105
15,26,-12.6904536818,14.2952858706,-18.5887113504
15,27,-7.76347147839,19.9566189345,-10.6870720117
15,28,-8.83901491164,16.807746627,-10.2821457108
15,29,-5.7498115754,13.1132662026,-6.65451977681
15,30,-1.59129546959,11.8115566617,-2.45837656039
15,31,-1.33599934352,12.4486533612,-2.56236530807
15,32,0.635203510189,12.3788039774,-1.08807256231
15,33,2.82699794757,10.4284944552,1.54031804721
15,34,5.08760041936,13.2491059653,3.15495000893
15,35,3.69838469838,18.535404147,3.52332728186
15,36,1.44606112986,16.5367085741,4.25187316133
15,37,2.34995624423,12.357642642,5.74129032978
15,38,4.4470236514,9.33927584253,8.33839143367
15,39,4.31404627058,7.37193048296,7.78020664482
15,40,3.67200886116,6.71890729675,6.5654532944
15,41,4.63588767174,6.60453808149,3.36197112109
15,42,6.21963982051,6.69910992772,1.66246907996
15,43,4.97430693162,7.95143176909,1.66979781961
15,44,2.92502318979,9.59895884975,2.30446984098
15,45,1.82280238088,11.1136627558,3.0634572914
15,46,0.810716364241,11.9869724439,3.08311375054
15,47,-0.267099271775,11.6510498723,2.12743865969
15,48,-1.08503176487,10.8052666263,0.787882060078
15,49,-1.45179952315,10.2203290473,-0.468632766256
15,50,-1.40359948687,9.97422549711,-1.39628281547
15,51,-1.14417015169,10.1671895159,-2.23407543144
15,52,-1.37372034704,10.9204014247,-3.02391511115
15,53,-2.16752756855,11.8498223767,-3.35905173802
15,54,-2.74273970697,12.2833537838,-3.07607472612
15,55,-2.45596891072,11.5938946563,-1.82958423307
15,56,-1.80433276838,10.7898687173,0.267173447953
15,57,-1.54173559581,10.4404518724,1.56052308618
15,58,-1.88421261781,10.125037897,1.74162683353
15,59,-2.49244221662,9.9506620834,1.61273250319
15,60,-3.17433206331,9.68459031176,1.90807729118
15,61,-3.72585722267,9.71670130265,2.58207443699
15,62,-2.97046986358,10.1051984922,2.1600984689
15,63,-2.3694147573,10.1227600203,2.26106774235
15,64,-2.12812564428,10.1935152562,2.83548413694
15,65,-1.65492859269,9.89817263555,2.12054831352
15,66,-1.36646680336,9.18542976462,0.026650807356
15,67,-1.11301681751,9.15537745619,-0.845225942959
15,68,-0.796690473456,9.65541378968,-1.64276304477
15,69,-0.302645652474,10.3979264232,-2.36237854951
15,70,0.165853623126,10.8664050203,-2.95172892917
15,71,0.264027639193,10.9410316202,-3.19470355565
15,72,0.05849786052,11.0667629948,-2.92390677789
15,73,-0.175021998103,11.3232463283,-2.33531845226
15,74,-0.297248549493,11.5112201782,-1.00640846171
15,75,-0.153393162182,11.6484842833,0.824487851048
15,76,0.609626675463,12.3050236797,0.0460932854188
15,77,0.762516224758,13.3311744702,-3.54449824216
15,78,0.22953879999,13.7011353697,-7.03999028035
15,79,0.192073344906,13.086349099,-9.69843886584
15,80,0.565344597452,12.6651084152,-10.8604289553
15,81,0.630193729015,13.6146469448,-8.15852632736
15,82,0.552291249975,15.0903294724,-2.23963941822
15,83,-0.334500585967,15.9011931306,1.55594548391
15,84,-2.22726998643,15.7240519681,2.2159801777
15,85,-2.70229549335,12.7905130228,7.7801381242
15,86,-3.87682915801,14.8083252182,2.7092059645
15,87,-1.02236837859,18.2966253402,-6.94424891588
15,88,-0.311977101076,18.2710091187,-4.78003585031
15,89,-0.198988330314,15.9500463474,-2.56666884541
15,90,1.69953995501,14.1892648074,-0.437405829462
15,91,2.29204296711,12.4237683666,1.88344809602
15,92,2.20215248156,11.4953775851,3.05073968536
15,93,1.41049868088,10.8598251909,4.51364982415
15,94,1.04987468706,10.1363080707,4.99429019681
15,95,1.27245752595,10.2977514244,5.10449702203
15,96,1.93281958812,11.9383105877,5.70707831697
15,97,3.48406125704,15.438005981,5.83916601104
15,98,5.32770269893,20.0232246096,5.10497967193
15,99,7.79109163584,23.8250744883,4.07408440295
16,0,7.79109163584,23.8250744883,4.07408440295
16,1,10.0622326411,21.6380939167,5.10267867539
16,2,11.8129348255,16.5966726555,6.45504375976
16,3,7.49873615883,11.1220704616,6.02269429664
16,4,3.30661544671,9.63494147499,4.17620393203
16,5,1.90835804134,8.77364687298,3.67107711585
16,6,0.276367192939,8.73081561483,2.87754854003
16,7,-0.508237114518,8.80032593695,3.50227147539
16,8,-0.619694421206,8.17918503749,4.30695271623
16,9,-0.726261682237,6.93452871178,2.74960282441
16,10,-0.180605042877,5.93977535529,0.500726451946
16,11,1.03998948373,4.77042605115,-2.46583449456
16,12,1.2589463531,4.59752776334,-2.80807157054
16,13,0.822283097,5.13096977463,-1.03042599045
16,14,-0.141269745839,5.34496718392,0.836060560475
16,15,-0.12034775339,5.21490658785,1.94686783198
16,16,0.561201995663,5.02170811532,2.73856245374
16,17,1.3522119027,4.57030567117,3.27226111319
16,18,1.78712626709,4.43037750124,3.25914446027
16,19,1.80391848603,4.89685613679,3.11781917146
16,20,1.57883207095,5.45844696846,3.045897089
16,21,0.971135909799,5.56427458798,3.11005339921
16,22,0.206164245804,5.4163159256,3.12442151674
16,23,-0.355290669151,5.02933790542,2.14973719206
16,24,-0.039073837659,4.65259266065,0.0980744469322
16,25,1.14188845977,4.45278448206,-2.81307459169
16,26,2.38650749837,4.24764301404,-9.55283888861
16,27,0.262348300691,3.23605215194,-24.4776607417
16,28,-2.60560645238,3.64372472504,-24.9602945202
16,29,-1.22349073367,10.3929932346,-18.5266545406
16,30,1.91640967076,9.69038517143,-11.7040317998
16,31,1.96839084126,12.2093924238,-4.43617106733
16,32,1.51090926932,11.8514631263,-2.90186406022
16,33,4.61923629011,10.6119233391,0.703332635892
16,34,8.50486730284,14.663863186,4.6270252607
16,35,9.9776295537,17.7482485212,6.34356869562
16,36,5.83546140564,15.0618724391,1.6608064084
16,37,-0.989291021256,13.250198318,-1.64971012534
16,38,1.29014368566,11.528895684,4.29308713571
16,39,2.84585273327,8.58132570126,6.58893584056
16,40,2.56656749086,8.04643785017,7.68648253784
16,41,2.3123510302,8.94341621888,7.08925524889
16,42,2.09386062707,9.50060844553,4.6390788643
16,43,1.74322700619,9.73289191375,2.54200778643
16,44,1.21759723311,10.1831842529,1.47814763991
16,45,0.564088406023,10.2985813317,1.30061666037
16,46,-0.218075900139,9.73551709716,1.17033290283
16,47,-1.08752821982,9.14116400658,0.593868179803
16,48,-1.5048674606,9.4036291699,0.282852205818
16,49,-1.89609229301,9.88802089355,0.0929527663805
16,50,-2.07484180787,9.73208670568,-0.335884992513
16,51,-2.03762032636,9.41502636411,-0.600927862239
16,52,-2.15404198349,9.47210944809,-0.622923752891
16,53,-2.56781256454,9.78325361648,-1.11891755592
16,54,-3.57730391751,9.91634221173,-1.98012833592
16,55,-4.30686013459,9.66750706833,-2.11239953159
16,56,-4.19717430545,9.40484168751,-1.16111561085
16,57,-2.58485310994,9.91074417406,0.514701784336
16,58,-0.8625006028,10.7309934421,1.4986839111
16,59,-1.70203149973,10.4882581509,1.15778745461
16,60,-2.92098116725,9.70158628569,1.16199018174
16,61,-2.7220316541,9.38928406843,1.58329640321
16,62,-1.44758674865,9.55900152887,2.13089676646
16,63,-0.48903465147,9.86407850558,2.43657646495
16,64,-0.175945499335,10.4678490044,2.14727642289
16,65,-0.0466807381368,11.3203582829,1.05966761249
16,66,-0.09878973824,11.5844397961,-1.0878256602
16,67,0.0234758516577,11.6829680735,-1.92683263555
16,68,-0.243780725204,11.6359037023,-2.48177163622
16,69,-0.708616953115,11.4055784792,-2.83274863158
16,70,-1.08669887533,10.9400827919,-3.01111032736
16,71,-1.21527350389,10.7967398475,-2.08185649093
16,72,-0.936918928321,11.2446677757,0.521686781094
16,73,-0.105391685666,12.0117143199,0.839380362091
16,74,1.08666463628,12.3172578827,-4.51610006142
16,75,2.0734453935,11.4566300252,-14.1814623752
16,76,1.63189077371,12.2633303941,-19.875589234
16,77,1.7983234485,11.6418227082,-15.4132385562
16,78,0.136753320353,13.419739074,-2.23113837796
16,79,0.373125543187,12.0814563315,4.62262498543
16,80,-0.0343109608646,12.5258661802,6.4528156688
16,81,-0.510680212243,13.8690777768,6.30141740037
16,82,-2.00663283978,13.9760510406,6.06584570177
16,83,-2.4814407176,14.6520767398,-0.369578877236
16,84,-1.01739106705,15.3692471787,-3.52054007194
16,85,-0.241130420317,16.1811752281,-4.7029411022
16,86,-0.502015990026,16.3685650528,-3.79619396171
16,87,-0.705768655053,15.057809573,-0.862074147073
16,88,-0.742300482736,13.6720882909,1.13445480111
16,89,-1.22614198022,13.5620693888,1.97092306778
16,90,-1.21903534764,12.9001880285,2.82120666814
16,91,-0.129496674094,12.3108303082,3.28131184204
16,92,1.15920669548,11.8910911888,4.044527067
16,93,1.65259527739,11.1398490577,4.42244919537
16,94,2.19799761269,10.7748905712,4.21956358405
16,95,2.78268455186,11.6547926048,3.97234422143
16,96,3.67643646603,14.0333768923,3.54942938378
16,97,4.84161919901,18.2070018549,3.25436297472
16,98,6.9725317555,22.9358393913,3.08167009393
16,99,9.28355494302,23.6944729953,5.23094390322
17,0,9.28355494302,23.6944729953,5.23094390322
17,1,11.8486760078,19.340237933,8.08755156921
17,2,10.4286712606,14.0087868041,7.70362549942
17,3,1.8295686068,11.4058010931,3.122743558
17,4,-0.0787803085679,9.74973607271,1.0859723363
17,5,-0.174791314656,10.2476801261,2.4503096301
17,6,0.381245578118,10.5838248558,5.42559985465
17,7,-0.226138198737,8.79554360836,6.2047967156
17,8,-0.600333420565,6.54371689623,4.40565151901
17,9,0.338067811753,4.93768887292,1.28540135752
17,10,1.41259108846,4.11050043399,-1.49866738898
17,11,1.46179328432,4.48788756625,-1.88397405984
17,12,0.892465874135,5.16218463332,-0.584033396272
17,13,0.337997518613,5.50178643858,0.876287624711
17,14,0.608230506064,5.3716528328,2.97521697949
17,15,0.493919226472,4.82429680913,3.83430642217
17,16,1.07347497629,3.86001916038,3.63730940822
17,17,2.48683342633,3.29357365768,3.50012685027
17,18,2.94138373342,3.62594803456,3.88605202935
17,19,2.74248491686,4.38607261471,4.23007632471
17,20,2.1689815286,4.75549274018,4.19932608896
17,21,1.66028738071,5.09275789167,3.86340857751
17,22,1.50651105718,5.43312967109,3.21339047058
17,23,1.70883670034,5.40588562406,1.73764742018
17,24,2.66891209466,4.83258655516,-1.02477312741
17,25,3.29945731194,5.00183438465,-5.30251149031
17,26,3.67249676661,4.88026258404,-17.3047586539
17,27,3.34754638741,3.77889426833,-25.0114866256
17,28,2.44292804873,8.1773325932,-22.7646749198
17,29,0.569186140316,7.31196818154,-20.8470902469
17,30,-3.91521466788,11.640672597,-8.15695602097
17,31,-2.91012502642,11.1843448925,-6.46357156415
17,32,-2.89682859094,12.1785194961,-5.06944446837
17,33,0.337595894915,9.98611908238,0.253333814979
17,34,4.89696984405,10.6937972084,3.46441684764
17,35,7.39055324276,14.7205991852,6.31302340391
17,36,6.84579469727,13.590441713,8.68807094967
17,37,3.87343183883,11.0940334386,6.3331487484
17,38,2.62384835105,11.7745904585,3.00836858278
17,39,3.05989676427,12.3925375144,3.37486140093
17,40,3.29897617827,11.2743490306,4.0095218921
17,41,3.14128307361,10.561362366,4.26486401176
17,42,2.80223092625,9.76677386674,3.74661796204
17,43,2.24592607232,8.97829753958,2.88487615887
17,44,1.85390925553,9.19274629187,2.21554889626
17,45,1.7372821502,9.86047832252,1.93337654512
17,46,1.20043723515,9.72902460561,1.82378263186
17,47,0.391457691016,9.01907291558,1.88866608267
17,48,-0.165570755698,8.56235661796,1.92081791037
17,49,-0.866116563957,8.25787294398,1.42896566923
17,50,-1.23968961075,8.15326708712,0.75698035433
17,51,-1.33857950444,8.04102385335,0.233089671556
17,52,-1.30178418761,8.20421094694,0.0757345974206
17,53,-1.12529882574,9.15388189209,-0.12649677593
17,54,-1.05835792209,10.3174769956,-0.608536043156
17,55,-1.54992215923,10.8078578161,-1.01229421303
17,56,-2.46718860464,10.7897310781,-0.328363466333
17,57,-2.83802421822,11.3341553632,0.399415145166
17,58,-2.06389264623,11.1786924448,-0.0627475299247
17,59,-2.03286738366,10.0256523377,0.455032494084
17,60,-3.02816317574,9.43194775544,0.783233331233
17,61,-3.44464115662,9.5610963957,1.03775689189
17,62,-2.81286279424,9.91963623821,1.29466154153
17,63,-1.86881630534,10.3541964228,1.0953744238
17,64,-1.59355379149,10.8595942079,0.803731082582
17,65,-1.89298201532,10.9337803424,-0.459655298671
17,66,-2.08384263661,10.8176804197,-0.996091494981
17,67,-1.77238315223,10.5781178962,-1.23799653749
17,68,-1.3871389642,10.4636375592,-1.6950415019
17,69,-1.12579624284,10.6027307659,-2.1012080478
17,70,-1.72139410264,10.7175912193,-2.48870613334
17,71,-2.08849860213,10.9134701351,-2.70319251088
17,72,-2.01042508202,11.627241719,-1.57113840747
17,73,-1.74135673639,12.9545434841,1.27391790032
17,74,-0.753994235375,14.1461683442,0.498871406825
17,75,0.853542157452,14.2268471617,-6.73375791685
17,76,2.1560841856,13.3122473827,-16.8614361176
17,77,3.77619726461,11.0040633215,-21.4990808037
17,78,4.36431767346,9.0103985251,-16.8930050152
17,79,1.93017739419,11.4061029878,-2.17057411336
17,80,1.02107843243,11.1494115584,5.78416948977
17,81,0.360127591076,12.6142868006,6.34299895184
17,82,-2.86725071377,13.2386650882,8.73294200031
17,83,-5.44224073537,14.6119471426,1.95585656648
17,84,-2.44728225417,16.2661877768,-1.86798319182
17,85,0.0536044472012,15.1928934981,-1.56919357703
17,86,0.654043963168,14.7485557946,-2.33521324673
17,87,0.75729694087,15.1828472579,-3.41480315302
17,88,0.757358787074,15.2315307379,-3.08147269864
17,89,0.544882433443,14.9139660354,-1.03923000437
17,90,-0.723601986669,13.5997428046,2.29980463502
17,91,-1.94282818065,12.1953953158,4.9744594146
17,92,-1.9472687163,11.6858374363,5.67371178769
17,93,-0.778778811388,11.5140393701,5.6386096457
17,94,0.706251556641,10.9157314056,5.38273238914
17,95,1.63310274467,10.3342208911,5.10204463214
17,96,2.46593032471,10.9411434309,4.54344951372
17,97,3.67395253505,13.2880795676,3.97925070666
17,98,5.44541206012,17.9594415954,3.64052115578
17,99,7.65853687613,24.2925828158,2.53048222202
18,0,7.65853687613,24.2925828158,2.53048222202
18,1,11.9452999871,20.7713379438,4.40695328332
18,2,13.5002467283,15.0114289781,5.87889551213
18,3,8.51999073444,10.1696298313,4.11392612282
18,4,3.65663472741,10.0125782384,1.43471002789
18,5,2.10886674826,9.55065403511,1.56357955078
18,6,1.69594978818,9.62555165817,2.45496245453
18,7,1.45112888274,9.53516396036,4.65508657329
18,8,0.111455099966,7.66305549988,6.21303958629
18,9,-0.235088689556,5.41603746597,4.28614256973
18,10,0.651281937972,4.75879787672,2.08347023217
18,11,1.44793829712,4.8060411045,-0.441827240106
18,12,1.18442573603,5.10968821888,-1.77835036333
18,13,0.372051800751,5.29014028886,-1.56620993036
18,14,-0.518909545783,5.45515531905,-0.155253245689
18,15,-0.0412186420114,5.56659231808,1.17053906083
18,16,1.0799258528,5.44975527625,2.34413632711
18,17,2.01206682232,5.15596450903,3.30268966061
18,18,2.22249470313,4.88473875694,4.22727591166
18,19,2.13445362283,4.48534390826,4.52706736364
18,20,2.15637169462,4.16696099529,4.52130742979
18,21,1.97581093327,4.37918301198,4.43054097819
18,22,0.923189063804,4.7308456178,3.56748597078
18,23,0.0835342008267,4.66685477017,1.65080029976
18,24,0.609951258146,4.10314042687,-0.866924594089
18,25,1.69484844063,3.11131947522,-4.19169940086
18,26,1.7872193972,3.0684352106,-10.2808157002
18,27,-0.625735114575,3.55477782109,-23.6359538002
18,28,-1.4600330158,4.98151901423,-24.5837424669
18,29,-0.893905216875,9.84853198035,-21.4746931284
18,30,-1.36494818488,6.30789320578,-18.2965460673
18,31,-0.464489024868,6.45791023653,-9.09861725238
18,32,-1.12676040182,10.8953943214,-4.18805500356
18,33,0.0770453182511,12.1142682792,-2.43987766608
18,34,1.87692930723,9.01842296108,1.87999113602
18,35,3.77475969822,6.85172076509,2.79557076387
18,36,6.04980588376,10.6140425106,3.01439429876
18,37,7.81331235915,13.7423756255,7.69584286455
18,38,7.22923138001,13.0567709475,9.15162337327
18,39,3.85763281408,13.787438741,4.2065965065
18,40,1.81062172033,14.1235981328,0.890999753594
18,41,2.55375561146,11.7961118215,3.37776763573
18,42,2.259500428,11.2866188432,4.956673167
18,43,1.7096685991,10.4096645434,3.88338082913
18,44,1.51861529123,9.93802635026,2.44536737976
18,45,1.38786145521,10.5133014761,1.64918589894
18,46,0.904453416319,10.4400512222,1.16755873095
18,47,0.291045990397,9.53980633762,0.723212261728
18,48,-0.318417160927,8.60567733445,0.483316412574
18,49,-0.582376507584,8.2407903459,0.562414372951
18,50,-0.768945311318,8.14796413203,0.749904927702
18,51,-1.37064114406,7.78774472372,0.550999543361
18,52,-1.87714379238,7.56606894586,0.575723310452
18,53,-1.83383430883,8.03868828809,0.852082748796
18,54,-1.96661368047,9.19243242513,0.646666857392
18,55,-2.54110341074,10.3564998376,0.0925570763946
18,56,-2.48667937983,10.7155224553,-0.446475182066
18,57,-1.75623118729,10.611388078,-0.842425081862
18,58,-0.994244955505,10.2524906343,-1.09085315878
18,59,-0.476645928935,9.42874274873,0.15594516386
18,60,-0.315940089589,8.83496545613,1.88217148158
18,61,-0.881143616622,8.97416411665,2.49249124494
18,62,-1.22004003579,9.50421465903,2.36287905094
18,63,-0.724016857327,9.80919832868,2.29957010839
18,64,-0.157409929019,10.2482789011,2.76400638078
18,65,-0.198497325139,10.8233178932,2.78481298645
18,66,-1.14589130902,10.5455807433,0.0544848535202
18,67,-1.39689596087,10.7467879685,-1.0089831318
18,68,-1.32531276866,11.0130949311,-1.58506531993
18,69,-1.47033646357,11.3653210988,-1.97064431914
18,70,-1.7370405348,11.9159443114,-2.35081981286
18,71,-1.87460013027,12.4747111299,-2.73312328209
18,72,-2.06299906305,12.6716191989,-3.07316706373
18,73,-1.89532183677,12.6922713547,-3.21803521861
18,74,-1.51680790793,12.6732926184,-3.13439980546
18,75,-1.72359702431,12.7392883974,-0.382331967527
18,76,-1.87153817832,13.3063075977,4.95409269253
18,77,0.0247149698438,14.0192687268,-2.49388788582
18,78,0.926448135187,13.6409844617,-15.0289505082
18,79,1.01309909247,11.8370465636,-21.8561646599
18,80,1.86510473933,8.93053841136,-19.846544115
18,81,1.09673355722,10.5056048882,-6.12549240547
18,82,-0.0412310347699,12.7528934471,6.96366240824
18,83,-0.183999229112,14.4766346952,7.29890144944
18,84,-0.518426588051,14.0588460636,8.15787102637
18,85,-1.93713024455,15.7224015135,-1.97819374213
18,86,-0.0292882834117,18.3476327381,-4.9479875429
18,87,0.0189048371386,18.5452787409,-5.47646323839
18,88,0.130176389148,17.540020373,-3.18138224208
18,89,1.59233683413,15.8391042192,-0.772388766952
18,90,1.83080990511,14.0577306384,0.326969000719
18,91,1.63642482769,12.0970323575,0.986159825898
18,92,1.97358510034,10.6113381933,3.45929360875
18,93,1.94527563959,10.0893718028,5.91521647018
18,94,1.45551458022,9.64658595377,6.17972886036
18,95,1.21438963915,9.77145406717,5.42593280594
18,96,1.72149373136,11.1632817894,5.50396261518
18,97,2.85853963341,14.3812225237,5.26306228828
18,98,4.92818713512,19.6563117648,3.94656668179
18,99,7.4495896328,24.3279802167,2.40930486462
19,0,7.4495896328,24.3279802167,2.40930486462
19,1,9.35904762328,23.4804272235,2.98598960822
19,2,11.748303172,18.720211193,5.56489710642
19,3,9.07501041559,13.6748917616,7.04137736912
19,4,2.37208683729,10.6490254395,5.47432055198
19,5,1.24305922624,9.02444268799,4.88404708783
19,6,0.492333188141,8.82435730329,3.92832731584
19,7,0.982768448806,8.90368226268,4.00863107761
19,8,0.540635615643,7.98094589371,4.80876547332
19,9,-1.36410068423,5.9185160623,4.4138235746
19,10,-0.998202336073,4.14650413593,1.39007564514
19,11,0.759286745795,3.21985661226,-2.53482696709
19,12,1.06251839874,3.96010461058,-2.57512297913
19,13,0.348948679489,4.93112834376,-0.782496826606
19,14,-0.372691486315,5.316849409,0.654429620077
19,15,-0.547094504413,5.21818421841,1.3281495129
19,16,0.159255389785,4.94670305641,1.59514479995
19,17,1.30275347312,4.92823680617,2.07867356285
19,18,2.08473158361,4.90293218004,2.6714656415
19,19,2.43705818528,4.6338676723,3.33788765081
19,20,2.49734158115,4.75941536898,4.27729920243
19,21,1.8030246772,5.01314792903,4.80298242058
19,22,0.940338063831,5.36478791376,4.39364188757
19,23,0.267161294575,5.35286340844,2.67235930546
19,24,0.395189940115,4.75548953229,-0.307221981061
19,25,2.06321954438,3.6062405914,-4.88997121047
19,26,3.14115630868,3.7749913599,-12.9170184634
19,27,-2.00644550852,6.61201028342,-24.395870137
19,28,-5.29762047105,9.12204480285,-19.8315662484
19,29,-2.88637309222,8.29526595064,-18.1565446994
19,30,-0.920118944468,7.46699641416,-10.7434691252
19,31,-1.24841253099,10.8847265071,-4.85761098107
19,32,0.669047377623,12.0519298988,-1.82847252035
19,33,3.89954379673,13.7956520675,2.24147368517
19,34,6.70698336053,19.5467400947,4.81078513824
19,35,5.86770489924,19.5057985923,3.08093671949
19,36,1.66938622545,14.7036270483,-0.475762251635
19,37,4.11424293449,8.98499840388,5.90347084483
19,38,5.59057393126,6.41249241449,9.07432505932
19,39,4.7041985783,6.1222813332,8.34296362752
19,40,3.21094954842,6.95371750758,8.04546878378
19,41,2.68018138023,7.55879126314,5.19810671934
19,42,3.35249245009,8.55622751108,2.98399567983
19,43,3.0968625467,9.66108700871,2.04497321866
19,44,1.8475092175,10.6655472103,1.88080067934
19,45,0.832561656179,11.288230185,1.97229116911
19,46,0.364922274309,11.3285122795,1.9137248313
19,47,-0.175204255908,11.0683826652,1.39595335653
19,48,-1.04057039063,10.5938115108,0.733956756407
19,49,-1.83552655496,10.2173881117,0.3425050036
19,50,-2.20864031642,9.90835142158,0.0460028208772
19,51,-1.95839666611,9.72987361002,-0.312574798389
19,52,-1.43695391093,10.151833098,-0.712994614405
19,53,-1.03864137291,10.7968971168,-1.40507342754
19,54,-1.05505953897,11.1703610534,-2.22747517508
19,55,-1.79737868502,11.1059094594,-2.73790692695
19,56,-3.1507499958,10.2338514248,-2.28663694463
19,57,-3.99503345247,9.60009287996,-1.42297430748
19,58,-2.94321737811,9.88463835292,-1.21370537084
19,59,-1.83612426544,10.1764338573,-0.664576036617
19,60,-2.68297459764,10.1466117138,-0.315775077064
19,61,-3.58115647664,10.2910507603,-0.408629672376
19,62,-3.56927792114,10.5376768021,-0.0197352865381
19,63,-3.03343689109,10.5313531104,1.0290330713
19,64,-2.07152050403,9.9389854827,1.94689047908
19,65,-1.1305246299,9.6623426684,1.88122810764
19,66,-0.888285138272,10.4362091661,0.991591638842
19,67,-1.02515571756,11.197332546,-0.507751720525
19,68,-1.13247431572,11.3708593785,-1.73087936822
19,69,-1.00989551177,11.2382934844,-2.74630468091
19,70,-0.986210784131,11.2662536635,-2.6160030521
19,71,-0.874014944999,11.3973535359,-1.64941485023
19,72,-0.340380873194,11.4613668347,-1.253000603
19,73,0.434942900182,11.7429216196,-2.63698755911
19,74,0.699478569544,12.4625143183,-5.34010856224
19,75,-0.0775885810194,12.7514849348,-8.24020317545
19,76,-0.0873679341048,12.457495545,-11.4101900908
19,77,0.644640959663,13.2477492387,-12.2360096208
19,78,1.03579838777,14.0728066372,-7.80461306038
19,79,0.854609125443,13.5757984414,-1.2144993436
19,80,0.434540581212,13.5565137884,2.97274971886
19,81,-0.217815183701,15.0625735425,4.42997387376
19,82,-3.67062970715,14.6218066719,7.33729007565
19,83,-5.1634089028,13.9849049117,4.7478150191
19,84,-2.38071249776,15.1873772001,-1.47462552097
19,85,-0.622264314512,15.7367166532,-2.01882398971
19,86,0.0886045867396,16.6775744154,-4.39704573252
19,87,0.568124442151,16.0794411929,-3.55609428479
19,88,1.4768089613,14.6318116497,-0.976981823221
19,89,1.10218941314,13.7179901915,-0.0970825358978
19,90,0.166431728133,12.4835014641,1.26991192039
19,91,0.174255266434,11.0339425677,3.63104374812
19,92,0.806049993901,10.5947517593,5.57399995918
19,93,1.17352026112,10.2032866751,5.91652019709
19,94,1.3490334685,9.85806624493,5.33661331569
19,95,2.29168384296,10.6911462288,4.82569527093
19,96,3.65251351479,13.4856383686,4.04344819084
19,97,5.41071372408,18.0740984009,2.38323221228
19,98,7.74552581191,23.1341407477,1.1733012024
19,99,9.65057172535,24.1862626911,3.42668533232
20,0,9.65057172535,24.1862626911,3.42668533232
20,1,11.8021046773,20.7030599807,5.88740111178
20,2,12.7836572067,14.7643793021,8.81196540099
20,3,7.0266786705,9.89418394774,7.43408427135
20,4,1.05520015407,9.9886686606,4.01400062586
20,5,0.172332171476,9.31123814747,2.63269879957
20,6,0.76385314455,9.79423951414,3.60243476687
20,7,0.885390028432,9.43539557379,4.94896846853
20,8,-0.74834770561,7.60050906557,3.94728576799
20,9,-1.54140131389,5.48927732945,0.705269073249
20,10,0.298137372424,4.34942056985,-2.6502341437
20,11,1.80900496196,4.68719187103,-2.75896494092
20,12,1.51238929178,5.42406050156,-0.36187424202
20,13,0.530541840692,5.06244107163,2.16778004207
20,14,0.131040042034,4.61908072911,3.11084401772
20,15,0.26184247145,4.53913632326,3.70347023874
20,16,0.494059084005,4.5014148443,4.02874535159
20,17,0.906918020356,3.88398437525,3.4160598912
20,18,2.06906836281,3.50377830937,3.49446695146
20,19,2.82981034809,3.95917301261,4.0536797089
20,20,2.50775511972,5.01473116234,4.49060652625
20,21,1.5014445931,5.91168302166,4.02045988334
20,22,0.539542640962,5.70904499125,2.14811707742
20,23,0.229276861268,4.69633944388,-0.37876820453
20,24,0.75925870844,3.93354165932,-3.33347665903
20,25,1.21434497,3.79653610875,-9.27695885317
20,26,-2.4287792977,4.06577475091,-21.0718828705
20,27,-3.78771451748,7.13504520132,-24.7827511184
20,28,-4.32127020421,10.395443742,-20.0254390728
20,29,-4.4565443315,8.82946850837,-19.1119667324
20,30,-0.696473072252,11.5831929031,-7.9187122366
20,31,-0.618551881383,11.2149019876,-5.96959399168
20,32,0.969985515092,12.5011158249,-2.17873678208
20,33,4.91999176119,11.3924971382,2.42747761692
20,34,9.47562157501,16.0196287336,5.29353963731
20,35,10.8458172655,18.4437873908,6.93072752696
20,36,8.7057743102,13.0963682378,3.63462572518
20,37,4.13036583813,11.0331419888,1.8981344597
20,38,4.18977957626,9.44515350222,5.49905824448
20,39,3.84244942647,7.54107545545,6.79912005584
20,40,2.06109615062,6.29700275506,6.42278964702
20,41,1.39596031952,5.82873524511,5.09354065285
20,42,1.62367598958,6.21617635686,3.39578045515
20,43,1.7654377625,7.51294662643,2.3011860337
20,44,1.57337682835,9.46653297357,1.73270077346
20,45,0.976105364197,11.2392056465,1.69515536142
20,46,0.116900921945,11.8196313123,1.65529664119
20,47,-0.391327805119,11.7497920487,1.58748327135
20,48,-0.844088565606,11.3059112694,1.17196049331
20,49,-1.28279411927,10.7799772998,0.529100505203
20,50,-1.55678847343,10.3897695982,-0.00318294871922
20,51,-1.94009772692,9.92654528259,-0.381627637599
20,52,-2.68822620354,9.85872362807,-0.680988565967
20,53,-3.53486280054,10.7068698033,-1.1597809717
20,54,-3.46836626224,11.4592748979,-2.09066428031
20,55,-2.06117545548,10.5815358216,-2.79765237747
20,56,-1.36837007531,8.65600916848,-1.95074004041
20,57,-2.31116924261,8.35826188616,-0.979473752757
20,58,-2.30062498656,8.56325221864,-0.169449277968
20,59,-1.91372853368,8.88772502904,1.23127858068
20,60,-2.13313463748,9.16950747551,1.74079472778
20,61,-2.29327140875,9.46674388169,1.53832923689
20,62,-2.08634962159,9.8583571,1.80157856877
20,63,-1.63622506074,10.3488864161,1.96088475544
20,64,-1.13691206343,10.7021043335,1.85623546494
20,65,-0.784836888036,10.8760030955,1.30580158809
20,66,-0.629228367283,11.0511964352,-0.233151238304
20,67,-0.852870935566,11.3653843359,-1.6969768841
20,68,-0.954842169163,11.52488846,-2.62946347912
20,69,-0.646077085317,11.4599703644,-3.19423905017
20,70,-0.652608145849,11.4822319151,-3.29704928142
20,71,-0.829835533884,11.3815121681,-3.17145333609
20,72,-0.979339714477,11.2281681889,-2.45299527701
20,73,-1.00431151193,11.1961914206,-1.54916642528
20,74,-0.728548749378,11.5915746825,-1.84036377882
20,75,-0.368881772488,12.3291440214,-4.19888358853
20,76,-0.111012722198,12.7874261796,-7.74749847065
20,77,0.261291186626,12.8261098136,-11.379553065
20,78,0.652573812748,13.3935355922,-12.9087702252
20,79,0.774747124491,14.1468694893,-9.41079319545
20,80,0.857892020172,13.7350113674,-2.72027748045
20,81,0.883644095875,13.2797222038,2.88798623843
20,82,0.0646661873326,14.4689558426,5.74592536269
20,83,-1.49322977033,15.7156348263,8.65682591317
20,84,-5.59023803305,14.7390326744,10.2487517606
20,85,-5.51140894012,17.1762556219,-2.32867711796
20,86,-3.58299141812,18.6182802285,-5.21227193683
20,87,-2.46229118593,18.3134977861,-6.2085587116
20,88,-0.419413692116,17.2885913695,-5.61796529605
20,89,1.34186354815,15.2481849148,-0.669166111968
20,90,1.69807484018,13.6297749859,2.33570338682
20,91,1.58126721079,13.0329241485,2.70660528195
20,92,2.08494685955,12.7524985417,4.22921806271
20,93,2.41987223602,11.7531947769,6.7832985961
20,94,1.66287256262,10.5017226802,7.3067112509
20,95,1.00169004008,10.0516545764,6.75765731355
20,96,1.59832373131,10.6431661783,6.41678705959
20,97,3.3936220728,13.0631625457,6.11561570107
20,98,9.52160216156,19.3734883864,4.25595419422
20,99,10.8189558957,24.5394985335,5.60933868728
21,0,10.8189558957,24.5394985335,5.60933868728
21,1,13.0076634109,19.3967157816,8.78914558728
21,2,11.0022697024,12.6269630077,8.59458593611
21,3,4.60493243958,10.7394348962,4.38994603223
21,4,2.96550602393,9.12015374492,2.15506294974
21,5,1.67993944027,9.02315977448,1.92027089618
21,6,1.20017390484,8.85014106418,3.57825537118
21,7,0.408695493952,7.65753168963,4.05312006097
21,8,-1.13667786416,5.59818851593,2.45116687165
21,9,-0.861532715984,3.8685066061,-0.108542176617
21,10,0.832308716254,3.45827626854,-2.19159309043
21,11,0.943757687653,4.62558403829,-1.53098741884
21,12,-0.68631021315,4.92565391565,-0.189114253208
21,13,-0.972291752177,4.73500740849,1.21259309035
21,14,-0.0949803176716,4.48354726684,2.01711892575
21,15,0.766710894394,4.33038940595,2.46459056527
21,16,1.30081726934,4.34338125084,2.9065741938
21,17,1.74910907894,4.49328076046,3.16527061202
21,18,1.97393462998,4.50773771425,3.24130885513
21,19,1.83999703124,4.78883214752,3.65297820974
21,20,1.45116009425,5.39833738146,4.1485648102
21,21,0.750559696045,5.80866532656,4.10061808077
21,22,0.519348970505,6.06183767055,2.83626580679
21,23,1.04860373483,5.65326051606,-0.298206790336
21,24,2.55150315964,4.9559156456,-5.04308380444
21,25,3.59825353948,5.51708256568,-14.059718041
21,26,1.78143723687,6.73083427447,-25.0698010961
21,27,-0.305614072647,8.11127951246,-23.7227760634
21,28,-1.75413109094,9.52435350366,-20.7575833083
21,29,-0.628683004887,6.60436860515,-17.1441220896
21,30,-0.518360343126,9.65217428155,-8.15820062408
21,31,-2.4857869793,12.3538663326,-5.14592981562
21,32,0.118627656334,13.0287951757,-1.93738143043
21,33,2.74879322454,10.1739622948,1.03387758864
21,34,4.31077045145,8.35697469222,3.05254189026
21,35,3.78722192432,11.5810460932,4.59408218454
21,36,3.4179668453,13.2395561253,7.28074711628
21,37,2.98330326418,13.1516847133,6.97558162089
21,38,2.41573577457,13.2787290553,5.66745660036
21,39,3.08241787567,12.6601429632,6.0317511855
21,40,3.42578460793,11.2985324361,6.43866867836
21,41,2.27524600534,9.37441113061,4.51355113197
21,42,2.36930916097,7.70673823221,1.86996000116
21,43,2.72690666234,7.65885624868,0.752159544222
21,44,2.72200506724,8.67681255672,0.749335428245
21,45,2.10006782345,9.33185723593,1.13099340441
21,46,1.35634022599,9.20920230838,1.61918301543
21,47,0.819274434542,8.85218338752,2.00007802048
21,48,0.337236266717,8.81865847842,1.99782073067
21,49,-0.160434394318,8.82101181843,1.50802120469
21,50,-0.85316532276,8.67353054203,0.966950565852
21,51,-1.43446074313,8.91797342654,0.528014582763
21,52,-1.37477626164,9.62866111906,-0.220432956287
21,53,-1.19701735456,10.5021391512,-1.31328994561
21,54,-1.52964850712,11.3541082756,-2.70269936906
21,55,-1.94250917879,11.7492723666,-3.81772557105
21,56,-1.64044829318,11.2551897065,-2.3306383708
21,57,-2.03026233077,10.2844499029,-0.277941926555
21,58,-2.38363614077,9.19112507703,1.20819036588
21,59,-2.52878887245,8.98234705345,1.68845563394
21,60,-2.85700405553,9.2344505279,2.06487516542
21,61,-2.8784787146,9.97911096241,2.15958661285
21,62,-2.52580620395,10.6424141224,2.12490871582
21,63,-2.21680276924,11.0449914498,2.31249727957
21,64,-2.10611498808,11.4057533798,3.55382478354
21,65,-2.04701742975,11.4053821696,3.40566801013
21,66,-2.00143976252,10.6993179007,-0.131177990459
21,67,-1.560972226,10.6343676927,-1.44695776528
21,68,-0.987208077586,10.8725590639,-2.39415212732
21,69,-0.524246109767,11.0870483426,-2.65076132301
21,70,-0.198070744422,11.1627041388,-2.80424609611
21,71,-0.426819730519,11.1455674776,-3.01514346327
21,72,-0.959513171531,11.234692629,-2.93779274097
21,73,-0.674268414122,11.0136961463,-2.05501436523
21,74,0.540055718112,10.9286046838,-2.00377497962
21,75,0.649075177059,12.2546968149,-3.46701536211
21,76,-0.265059374471,13.2379011382,-4.95150610569
21,77,-1.18825147558,12.7856478141,-5.29357168225
21,78,-0.921218739139,11.9836226024,-5.62424892401
21,79,0.644541439001,11.987594063,-8.0249060678
21,80,1.81432118603,13.3272468174,-10.8555443411
21,81,1.70770026544,14.9717253318,-7.89492121614
21,82,0.54253457944,15.1683533807,0.891828334938
21,83,-2.89452652246,13.1579831409,8.36067461981
21,84,-5.08880343017,11.314858356,9.71066727399
21,85,-2.75318180052,13.5618455943,1.59817069885
21,86,0.112157443866,15.5755270067,-2.35380798693
21,87,1.02277042181,16.3364344555,-2.30889871664
21,88,1.48514566653,17.1266145562,-2.72800965927
21,89,2.23412767435,15.5823353892,-4.04454252308
21,90,2.33441498851,12.9869307843,-0.0289292424709
21,91,1.59019895725,11.8295493441,2.30004651648
21,92,0.697131778076,11.2962069905,3.96199186103
21,93,0.098383676487,10.763754845,5.36844065001
21,94,-0.101133158956,10.22391045,5.54532459813
21,95,0.144151544222,10.3505534722,5.53283749969
21,96,1.0915471294,11.5928660974,5.4208715328
21,97,2.71724944998,13.8787038324,4.81338803151
21,98,4.35511631147,18.0200152585,2.89938542526
21,99,6.49592976536,22.6607669347,0.536268711575
22,0,6.49592976536,22.6607669347,0.536268711575
22,1,10.8597073611,22.1707515587,2.21056327688
22,2,12.7984375819,18.1669901436,4.44732430022
22,3,10.0967785635,14.2345354268,6.45796776537
22,4,3.56057876195,11.8939247637,5.02149733927
22,5,1.98394041448,9.98499665246,3.50141833318
22,6,1.16041318546,9.24975566603,2.5878924338
22,7,1.78245634294,9.2789093448,2.90577068416
22,8,2.06474686965,8.91184877363,4.27775915958
22,9,0.0776860141632,6.66355598728,4.26877602747
22,10,-0.8802212978,4.95825204273,1.74173558518
22,11,0.444911151676,4.15385896512,-2.06271698011
22,12,0.827365931626,4.71806621521,-3.22614143952
22,13,-0.0495375468511,5.4475222548,-1.66017781966
22,14,-0.483077953844,5.75947393886,0.129603578917
22,15,-0.161337706396,5.85568877455,1.47017378491
22,16,0.24524656054,5.68703039161,2.08724438711
22,17,0.471352346514,5.00334781009,1.94819364945
22,18,1.50694032485,4.2945040794,2.26712812324
22,19,2.47592143982,3.95722646005,3.21802772294
22,20,2.78778349619,4.44715635539,4.08389015872
22,21,2.99711651097,5.23105195215,4.44885798098
22,22,2.34702146569,5.69274599079,4.51985569827
22,23,0.911440888521,5.54771051911,3.66602300764
22,24,0.316416839112,4.73098236259,-0.149414652869
22,25,0.823471429868,4.45833152789,-6.51491589579
22,26,0.567629349845,4.58722868934,-18.8853037259
22,27,-0.899380629666,2.6785717373,-26.0359484818
22,28,-1.02362404797,6.09914940512,-23.5372677114
22,29,-3.17390365407,5.87511776075,-21.1398596277
22,30,-0.9983079445,2.88129473961,-15.5608952488
22,31,0.00205494602411,10.978745658,-4.0330199436
22,32,0.0143980367133,13.2343514057,-3.19691208698
22,33,3.14863021198,11.9287669872,0.152771034222
22,34,4.81331568642,9.69171982614,2.53682810003
22,35,5.8408793165,11.1597579814,4.70442025137
22,36,6.44608474447,11.7764639386,7.63498236276
22,37,5.38806737078,10.5315586624,8.32197378418
22,38,3.09224533398,11.4761310639,6.11786833841
22,39,1.46765329567,12.7172343052,3.22737921438
22,40,2.39342921528,11.446699174,2.33429733125
22,41,2.53211085117,11.1107926371,3.14409453961
22,42,1.92566639181,10.6340282713,3.05778518493
22,43,1.68706718061,9.58291327955,2.06651022828
22,44,1.61869329568,8.88540111302,1.24603424857
22,45,1.26284971431,8.69307947138,1.03569326519
22,46,0.664619084835,8.24935719098,1.11560164725
22,47,0.293001014296,7.6708960621,1.19597054078
22,48,0.276247292303,7.44567395489,0.948113617139
22,49,0.382779569965,7.96846996436,0.568903035393
22,50,-0.152704919058,8.697728573,0.874793869577
22,51,-1.25470097716,9.28327391436,0.955034419425
22,52,-2.24938296622,9.76393303714,0.343305560225
22,53,-2.66289208546,10.171435184,-0.69086506494
22,54,-2.70717145549,10.5288539805,-1.69087134021
22,55,-2.61334275263,11.0869489683,-1.93378213984
22,56,-2.53011589393,11.4816627241,-1.47908849527
22,57,-2.24848491492,11.1812534077,-0.528860176249
22,58,-1.74263679238,10.1624495319,0.732988152686
22,59,-1.27641147263,8.83741352288,2.20189927382
22,60,-1.62803610533,8.88563236661,3.01458321074
22,61,-1.49404593714,9.69756064417,3.3720114736
22,62,-1.0840364228,10.3270418433,4.82057065367
22,63,-1.3115847199,10.3383165975,5.73323887762
22,64,-1.16377956216,9.21780451038,1.01485587475
22,65,-0.0671339036974,9.55539126634,-1.22925676986
22,66,0.909432071868,10.0016385425,-1.99901002844
22,67,1.00851255455,9.9336335952,-2.41992004607
22,68,0.670006571832,9.93004002252,-2.66937525418
22,69,0.0714173241516,10.0842027665,-2.87421956542
22,70,-0.425715908979,10.2180287539,-2.85399119566
22,71,-0.724996960117,10.2519354894,-2.44868829087
22,72,-0.944762930362,10.4773477898,-2.05360220706
22,73,-1.23414851714,11.2642156195,-0.256674495566
22,74,-1.41028127391,12.35845074,2.60490785211
22,75,-1.01919979514,13.4492074932,0.169038112376
22,76,-0.988406697535,14.3929543301,-6.55975551607
22,77,-0.755580436532,14.1854302197,-14.0973472216
22,78,0.00065491328369,13.9978446021,-18.2904494396
22,79,1.68527885985,11.57858739,-16.1908856332
22,80,0.690632233495,14.0050874478,-3.05314823928
22,81,1.13349885883,13.6182296265,4.36938169492
22,82,0.0712911043794,14.8332729205,4.92264201099
22,83,-2.01882304709,13.7124802162,7.38331930562
22,84,-4.27970137374,11.3544135855,9.06828623516
22,85,-2.76239679986,13.7595213507,-0.268088811026
22,86,-0.770658343892,16.6964085351,-4.62784760867
22,87,-0.26013134717,17.4636865288,-1.90598699378
22,88,-0.0628949530209,16.867784456,-1.09847420519
22,89,1.9168719594,15.1850840406,-2.88214020358
22,90,2.05301752465,12.9694455364,0.813395680605
22,91,1.5865209955,11.5868110093,3.67246763944
22,92,0.745517591103,10.5002288502,5.68923169044
22,93,0.367095282506,10.0443591738,5.95268318103
22,94,0.566523632145,10.1645184122,5.69247234022
22,95,1.40005597797,11.1375122996,5.58090360114
22,96,2.63902258424,13.0749797506,5.0881108507
22,97,4.17343392566,16.6322848228,3.53895508677
22,98,6.22642970541,21.1027082726,1.74565959726
22,99,10.2052525306,23.1233593009,2.12052920748
23,0,10.2052525306,23.1233593009,2.12052920748
23,1,12.293083715,20.1112646484,2.93038573176
23,2,13.3496415176,15.5762852451,4.82620784883
23,3,8.07820403403,10.8301783239,4.30134031689
23,4,1.91497474851,10.145487583,2.43576836782
23,5,0.850495646304,8.94229137981,1.41256861821
23,6,0.887911510372,8.75292397492,1.62377382165
23,7,1.38748081787,8.2067398022,4.28078596567
23,8,0.400845832055,6.01121260841,5.58994123018
23,9,-0.570714202097,4.47083982532,3.33700361743
23,10,-0.259563716819,4.07308362733,-0.235071861821
23,11,0.520298866859,4.36324993744,-2.33522391352
23,12,0.970618226276,4.75930259923,-1.22740928911
23,13,0.577924437688,4.79166532657,0.765650404885
23,14,-0.0742477944639,4.85674024235,1.50284944046
23,15,-0.129627887367,4.98276797547,1.65559338432
23,16,0.329317169702,4.95527913248,1.92136298901
23,17,0.917940643802,4.9770997419,2.64218655765
23,18,1.77126511269,4.94332338902,3.20839137852
23,19,2.14502346183,4.77213853127,3.18500431088
23,20,1.90882936278,4.93791593802,3.22207077913
23,21,0.812912212741,4.99769273964,3.01061327491
23,22,-0.305909786885,4.79157040112,2.01246622826
23,23,-0.618886242237,4.47071539417,0.119129279883
23,24,-0.070190332501,4.23657581134,-2.79888651701
23,25,-0.396433691236,4.87688341014,-7.23011785128
23,26,-3.03300138958,5.2583881714,-21.2123921398
23,27,-3.09959872593,4.89748072778,-26.3072490469
23,28,-1.7824642472,11.5219946057,-20.5165888101
23,29,-3.71664432586,10.5938167058,-18.0106321462
23,30,-1.54640283004,13.7813888704,-3.82817308365
23,31,2.22347018135,10.8477597295,-3.53551740946
23,32,-0.633223454006,13.1268106152,-2.70227401603
23,33,2.36380382844,11.3981631079,-0.432505625529
23,34,5.45139426265,11.8597670218,1.7338772702
23,35,5.97221962989,15.0057876467,3.62858935476
23,36,4.31553924203,14.9153750532,4.67301640884
23,37,2.77378369794,12.1234355673,4.77819895388
23,38,3.23799001007,10.0327329583,5.7204698478
23,39,4.04702095625,9.14543392929,6.5841888305
23,40,4.36706149974,8.46550840221,6.36314939434
23,41,3.45698598276,8.76188637908,5.71917917081
23,42,2.64613507741,8.84797734737,4.02203776487
23,43,2.53970819501,8.50602118292,2.24184971286
23,44,2.25639735368,8.88886383911,1.33882057449
23,45,2.0262053012,9.23525990306,1.3054740192
23,46,1.26966130378,8.831581099,1.6035421545
23,47,0.370859632478,8.53356628831,1.93366141372
23,48,0.134739239416,8.96839595652,2.01003172116
23,49,-0.472191661942,9.75753398832,1.22025222901
23,50,-1.39441243851,10.0251211807,0.24978136062
23,51,-1.72749608209,9.82207063334,-0.359399681789
23,52,-1.70625346131,10.1032746891,-0.705573315776
23,53,-1.79704655266,11.1148705472,-1.10645720278
23,54,-1.99410824273,12.020488113,-1.92148025147
23,55,-1.90201720698,11.83379986,-2.03993327933
23,56,-2.47750007085,11.4596661801,-0.939855030541
23,57,-2.55656264882,10.8136963523,-0.662548132393
23,58,-2.48530954481,10.3275262459,-0.589249593814
23,59,-2.98715969231,9.45909423502,-0.0503352536808
23,60,-3.0841011018,9.29591537769,0.86879691346
23,61,-2.64344897388,9.74075327895,1.74527073685
23,62,-2.29049668857,9.69496643798,2.4933906417
23,63,-1.93647259829,9.82117505386,4.01235209142
23,64,-1.67947867245,10.1259098733,3.77536885043
23,65,-1.53327459842,9.85831792075,0.377001777117
23,66,-1.22431444734,10.1195732936,-1.24066651816
23,67,-1.06322941992,10.7429853353,-1.61020274008
23,68,-1.02480322244,10.9641013488,-1.9203089552
23,69,-0.978657147604,10.813964985,-2.16081737564
23,70,-0.689350359987,10.6833531395,-2.47729059075
23,71,-0.382866728559,10.4913961281,-2.50821436723
23,72,-0.625147388939,10.2399080025,-1.99719450297
23,73,-0.824459571325,10.4395927313,-0.179925944928
23,74,-0.679813458916,11.4564397382,1.87213533144
23,75,0.169704679743,13.1876264915,-0.301399984324
23,76,1.78672720255,13.8047034877,-8.1312294763
23,77,2.82547259578,13.3779429503,-17.4263857759
23,78,2.91641233795,11.8985644579,-20.362763162
23,79,2.11367482002,9.93527230961,-14.6546856475
23,80,0.703358388677,10.7005459805,-0.473489135756
23,81,0.456680693113,11.109859223,10.8206546228
23,82,-3.17850859318,11.7968373313,13.8435879759
23,83,-4.89875778938,14.5384170403,1.24410480955
23,84,-2.38515788402,15.964452309,-3.72949275872
23,85,0.121115996766,15.0799512436,-2.46306694288
23,86,1.09099230632,15.2720121596,-1.34636630767
23,87,0.431266039284,16.1571349069,-2.22050777719
23,88,-0.373538383612,15.4523617372,-1.89296383693
23,89,-0.113125777499,14.2833272481,-0.13736454909
23,90,-0.102976214737,13.2716670459,1.50326984068
23,91,-0.154376369643,11.9859512981,3.74713915487
23,92,0.251424408805,11.0890269605,4.84799397414
23,93,0.530347512098,10.2066665274,5.3824200291
23,94,1.25418690515,10.0150078513,5.57010682464
23,95,2.73440642987,11.3173494076,5.26424933134
23,96,4.39067002393,14.1177160636,4.19129313853
23,97,5.85950064677,18.5508434211,2.02906162292
23,98,7.85030937015,24.1865285835,0.248276880948
23,99,9.42308561945,25.3053071409,2.2615205294
24,0,9.42308561945,25.3053071409,2.2615205294
24,1,11.4094726479,21.4915630659,6.39969125832
24,2,10.2148494189,15.3381172078,6.29130751138
24,3,3.53511503807,12.0706522568,2.75364687574
24,4,1.32188981379,10.9545187872,2.54964638725
24,5,0.870973663643,11.1432729184,3.59168459811
24,6,0.591786371302,10.1054601973,5.17962496966
24,7,-0.841163901388,7.82240804623,5.61560630142
24,8,-1.29875931629,6.19577719327,2.68220998373
24,9,0.0397616219269,5.18794606292,-1.50131718548
24,10,1.20721666868,5.17123056354,-2.91739329628
24,11,0.536153566594,5.33582374664,-1.46574187252
24,12,-0.199091828712,5.12664505831,0.160683477857
24,13,-0.256967956116,4.63889896026,1.08589051386
24,14,0.340806038719,4.16540579788,1.62227330089
24,15,1.09007419156,3.76952026104,2.30961804021
24,16,1.50567982733,3.57610858997,3.33269991328
24,17,1.16395191626,3.45889089882,4.0228813647
24,18,0.688472226242,3.04732029162,4.12092948915
24,19,0.922797633502,2.64821301617,3.79135398106
24,20,1.79903360661,3.10673903958,3.78443719557
24,21,2.1369394544,4.21182442513,4.1599815628
24,22,1.71552135515,4.88714795593,3.92914547563
24,23,1.09275989986,4.38425054341,2.51617440906
24,24,1.34052073664,3.65260382291,0.0969397852538
24,25,3.18909135776,3.02987750172,-3.9425720254
24,26,4.12077923325,3.68664135234,-13.9800464783
24,27,2.39190935643,5.03348574599,-24.6725935534
24,28,1.03671753764,10.2178851953,-21.9240887364
24,29,0.824145009273,10.4907250359,-20.3286915613
24,30,1.70547669332,5.25014112118,-14.0301547705
24,31,-1.18808260448,8.01589663543,-6.53454353749
24,32,-1.7893553093,10.8838160378,-5.9220073751
24,33,1.08765751156,9.92060351018,-1.25460355981
24,34,6.25568219438,13.5398898349,2.62693460446
24,35,5.36837024248,15.9746682153,7.31525134685
24,36,2.15250571844,14.400209489,8.71062233807
24,37,-1.14142474919,13.8031348254,4.48756549984
24,38,0.145904766579,11.3125065711,4.70827942966
24,39,2.78183661536,9.28329333549,8.12844362946
24,40,2.37113711619,9.09514920652,8.93103271639
24,41,1.55607545925,8.83018408711,7.21564950095
24,42,2.30824957848,8.52946652594,4.35762607984
24,43,3.20064506477,8.85426496212,2.19197767206
24,44,3.03909620127,9.27783471106,0.682731581362
24,45,2.11431832957,9.64059131084,0.523471045334
24,46,1.30125852774,9.76981455894,1.19028166998
24,47,0.864635661561,9.46222235346,1.2972954883
24,48,0.537209662438,9.39774345183,0.86310326167
24,49,0.0654331948785,9.6587843559,0.494958466037
24,50,-0.529758981164,9.93035068852,0.343819935051
24,51,-1.12531192564,10.1250295285,0.255724566184
24,52,-1.8659805581,10.7572464998,0.0141152037717
24,53,-3.03375111859,12.0431038499,-1.01345088294
24,54,-4.29647730522,13.0015403794,-3.1003717225
24,55,-4.24251192929,12.4805028893,-4.8633602323
24,56,-2.06476847415,11.2331786304,-3.62805699124
24,57,-0.966264783182,9.99772518734,-2.09559233947
24,58,-0.795428859182,9.15647014694,-1.02197432638
24,59,-1.1926254116,8.7076398386,-0.21767472019
24,60,-2.05552270052,8.4924539365,0.628973706249
24,61,-3.0253097754,8.47064049823,1.37510076589
24,62,-2.97105311196,8.71447021484,1.90615372051
24,63,-1.79703278029,8.94819133582,2.17151906498
24,64,-0.383913603881,9.21378859528,2.41441357586
24,65,-0.254029918109,10.5134500872,5.03475100905
24,66,-1.19598478268,10.2981772344,2.69652813781
24,67,-0.515722054591,9.75923581443,0.101410515626
24,68,-0.248678575742,10.0862936461,-0.749990192914
24,69,-0.483981543253,10.0669448803,-1.41785916875
24,70,-0.870141318616,9.76308287744,-1.92497276527
24,71,-1.23822990962,9.52675378049,-2.304365607
