time,acc_x,acc_y,acc_z,gravity_x,gravity_y,gravity_z1405456835830,-0.95229375,8.209718,0.12749124,0.8083815,9.760391,0.501665351405456835831,-1.2030864,8.045714,0.23403321,0.75578505,9.764057,0.51221711405456835832,-1.292869,7.869741,0.2088941,0.70139235,9.767214,0.529127961405456835834,-1.2264298,7.589619,-0.08499416,0.6403677,9.770811,0.539987151405456835876,-1.1192893,7.711724,-0.4333505,0.57017714,9.775354,0.53638771405456835877,-1.0546459,8.094796,-0.7062895,0.49285513,9.780645,0.51622171405456835878,-0.8295909,8.511986,-0.80924016,0.41103727,9.786154,0.482325851405456835878,-0.374094,8.798093,-0.7906851,0.3291627,9.791052,0.44426181405456835883,0.029927522,9.027337,-0.63087213,0.24909343,9.794961,0.408741561405456835915,0.57999533,9.118318,-0.3854665,0.17293109,9.797598,0.384142521405456835916,0.8595184,9.061455,-0.17537527,0.10401333,9.798886,0.37605041405456835916,0.95947635,8.862138,-0.0700304,0.039801557,9.799013,0.38492931405456835957,0.93373865,8.644265,0.09816227,-0.024127018,9.798191,0.406522131405456835958,0.6572084,8.576031,0.18555063,-0.090425245,9.796458,0.4377731405456835959,0.4985925,8.612542,0.09876082,-0.15965866,9.793971,0.472290781405456835960,0.6560113,8.636484,-0.01616086,-0.23155805,9.790712,0.508634571405456835963,0.96187055,8.815451,-0.19093758,-0.30120122,9.786957,0.54328451405456835997,1.2354081,9.263765,-0.40761283,-0.36279726,9.783102,0.574196341405456835997,1.228824,9.548077,-0.3716998,-0.41379678,9.779431,0.60158821405456835998,0.9708488,9.681553,0.01316811,-0.45879912,9.775504,0.63200611405456836023,0.83856916,9.737218,0.45010993,-0.50396746,9.770845,0.66855161405456836024,0.85532856,9.606135,1.0133458,-0.5464716,9.765194,0.716069161405456836025,0.7260417,9.498397,0.90261406,-0.58290744,9.758768,0.77269061405456836032,0.3489549,9.561244,0.75237787,-0.61508775,9.75232,0.827224731405456836059,0.23403321,9.554062,0.7637503,-0.6471493,9.745906,0.87688511405456836059,0.6314707,9.313444,0.50038815,-0.68008566,9.739293,0.92415371405456836063,1.3281834,8.884883,0.17657238,-0.7108938,9.733082,0.96548461405456836086,2.1865046,8.728063,0.13946225,-0.7370067,9.7276325,1.00020641405456836087,2.3050177,8.933964,0.33638534,-0.7548072,9.723794,1.02395781405456836092,1.9117701,9.264363,0.64823014,-0.7682459,9.720741,1.04277831405456836136,1.377863,9.662399,0.9379285,-0.7816227,9.717121,1.06631531405456836137,0.98102415,10.038289,1.0145429,-0.7966715,9.712605,1.09590841405456836137,0.6548142,10.299856,1.0163386,-0.8113512,9.708505,1.12117331405456836138,0.56922144,10.527305,1.2234371,-0.8263915,9.705122,1.1393461405456836144,0.4878186,10.5291,1.4903905,-0.8376675,9.70438,1.13742531405456836176,-0.04070143,10.2657385,1.2318168,-0.8430159,9.706535,1.11484811405456836177,-0.5482722,10.0664215,0.7098808,-0.8416037,9.711042,1.07599561405456836178,-0.6356605,9.992201,0.86729956,-0.8302254,9.7173395,1.02684491405456836184,-1.2551602,9.569624,0.83018947,-0.808615,9.724563,0.974369941405456836207,-1.8255788,8.810662,0.14305355,-0.7854735,9.732107,0.91624861405456836207,-2.4797945,7.9331875,-0.39983168,-0.7639605,9.739951,0.84859431405456836216,-3.6337996,7.3765354,-0.6374562,-0.7345596,9.749018,0.76646141405456836246,-4.1138372,7.451354,-1.2138603,-0.701827,9.758364,0.672434571405456836247,-4.380192,8.709507,-1.5119383,-0.6641966,9.767304,0.573576151405456836248,-4.982932,11.440693,-1.1575965,-0.6191537,9.775213,0.48196111405456836290,-5.122993,15.449185,-0.50757074,-0.5753385,9.7808895,0.41665131405456836291,-3.6631286,19.13027,-0.36152446,-0.5394009,9.784696,0.37302961405456836292,-3.4386723,19.321207,-1.721431,-0.47759795,9.788268,0.363442271405456836293,-4.8883615,16.594212,-2.0189106,-0.41196197,9.791789,0.348624651405456836294,-4.0001125,13.600862,-1.0450691,-0.38584816,9.793174,0.339559881405456836318,-3.7337575,11.195287,0.91099375,-0.35604572,9.793275,0.367982831405456836318,-3.4141316,9.400833,2.4109612,-0.31378043,9.791536,0.44468031405456836324,-2.9801826,8.039131,3.2267854,-0.2586147,9.788272,0.541510461405456836362,-2.3493104,7.7943234,3.5350387,-0.1922171,9.783941,0.63872111405456836364,-1.520318,7.788338,3.6870706,-0.104886025,9.779658,0.71948331405456836364,-0.41060558,8.101978,3.6032736,0.006698913,9.775781,0.77746671405456836365,0.32441434,8.098388,3.0460231,0.13943624,9.772049,0.811177851405456836390,0.85293436,7.704541,2.2852654,0.2813868,9.76837,0.818634031405456836391,1.3186066,7.5046253,1.4024036,0.41820642,9.764791,0.802733841405456836393,1.7890673,7.9068513,0.682946,0.55099136,9.760361,0.77599551405456836426,1.9267339,8.324639,0.093373865,0.6770368,9.755099,0.741660651405456836426,1.8411411,8.294113,-0.17238252,0.7944971,9.748692,0.70866561405456836427,1.6130934,7.945757,-0.14425065,0.8972405,9.741283,0.687589471405456836433,1.2665327,7.382521,0.051475335,0.9808897,9.733276,0.686738971405456836461,1.2330139,6.735488,0.35673606,1.0440351,9.725257,0.7069361405456836462,1.1001357,6.042965,0.5746084,1.0914961,9.717276,0.744026241405456836463,1.0761937,5.405509,0.7026982,1.1313251,9.709267,0.787812771405456836482,1.4263457,5.295376,0.9876082,1.1596739,9.701744,0.8376931405456836500,1.5185224,5.3396683,1.2030864,1.1817361,9.694563,0.88845341405456836500,1.1659763,5.4767365,1.3545196,1.1989795,9.688161,0.93401981405456836504,0.79128367,5.5264163,1.4454993,1.209757,9.6834,0.96883391405456836512,0.59735334,5.7359085,1.3605051,1.2164327,9.680482,0.989434841405456836532,0.8230068,6.0226145,1.299453,1.221431,9.67867,1.00092951405456836534,1.1049241,6.4104753,1.2425907,1.227584,9.678637,0.993709441405456836553,1.4413095,6.96593,1.3090298,1.2325381,9.68058,0.968307851405456836554,1.780089,7.674015,1.567005,1.233123,9.68423,0.93032681405456836564,2.1877017,8.480263,1.804031,1.2255349,9.689043,0.889338971405456836591,2.7222073,9.52593,1.9117701,1.2082187,9.694531,0.85244511405456836592,3.2992098,10.636241,1.6849195,1.1825147,9.700203,0.82347971405456836593,3.5745432,11.566388,1.5406688,1.1573148,9.705522,0.79617031405456836623,2.8790276,11.757326,1.7393875,1.1272335,9.710912,0.77325471405456836624,1.903989,11.416751,2.1493945,1.0857681,9.716871,0.757586541405456836625,0.4381389,12.082339,2.747945,1.0346444,9.722842,0.752480751405456836634,-0.47105917,12.639589,2.3415294,0.9713184,9.72887,0.75898121405456836680,0.020949265,12.793417,0.89543146,0.9070462,9.734605,0.764927571405456836681,1.3317747,12.552201,-0.5506664,0.8560946,9.73987,0.75658821405456836683,3.2626984,11.4915695,-1.4161704,0.84638184,9.742639,0.731457231405456836685,5.047576,9.665392,-0.9187749,0.8915543,9.740891,0.700394031405456836723,6.1249666,7.7973166,1.1420342,0.9840052,9.732624,0.69150051405456836725,7.20535,7.8912888,3.8965633,1.1112176,9.716792,0.72080261405456836726,6.968324,10.705673,6.845621,1.277233,9.69159,0.782383741405456836727,4.537611,15.431827,7.504027,1.4629201,9.657318,0.87548111405456836728,2.1254525,17.321451,3.1352072,1.612403,9.6253395,0.960944651405456836789,-0.58777654,15.341446,0.20171149,1.6973002,9.610496,0.96330091405456836792,-2.771887,13.777433,0.22565351,1.723545,9.609222,0.9287721405456836794,-3.1376014,12.411542,1.0283096,1.7146503,9.612996,0.905918961405456836795,-3.0801406,12.394184,0.9008184,1.6928847,9.613908,0.936650751405456836797,-3.6673183,13.098678,-0.62488663,1.6426647,9.61448,1.01677181405456836798,-3.9193082,12.319365,-2.9131448,1.565113,9.619954,1.08503691405456836800,-4.209605,10.022727,-3.347094,1.4622774,9.634912,1.09572841405456836823,-3.9995139,8.249821,-1.7082629,1.3505203,9.654107,1.06992471405456836824,-3.1148565,8.310274,-0.29987377,1.245012,9.66992,1.0549961405456836829,-1.751957,8.522161,0.3878607,1.1535598,9.680766,1.05947461405456836857,-0.3669114,7.9732904,0.97144735,1.0856036,9.687955,1.06555191405456836858,0.31783026,7.012018,0.9552865,1.0398233,9.692722,1.06784441405456836858,0.5093664,6.5948286,0.86729956,1.0013342,9.698128,1.05547421405456836871,0.39205053,6.945579,1.0977415,0.96220666,9.704464,1.03340721405456836907,0.2705448,7.7063365,1.5143325,0.91672087,9.711082,1.01238141405456836907,0.3776853,8.34499,1.7950528,0.8663421,9.717159,0.99832891405456836908,0.4321534,8.627506,1.3628993,0.8157003,9.722824,0.985751405456836908,0.45968673,8.934562,0.50996494,0.7667931,9.72974,0.95634621405456836913,0.27832595,9.232041,-0.30047232,0.7185013,9.738147,0.90699971405456836930,-0.21188685,9.272144,-0.88405895,0.66854954,9.749462,0.819423741405456836968,-0.6147113,9.287707,-1.2791022,0.6148536,9.761544,0.710362431405456836969,-0.8607155,9.205107,-1.4945804,0.5618825,9.771966,0.6027871405456836970,-1.0289081,9.340978,-1.4077905,0.5166113,9.779792,0.50911451405456836970,-0.82360536,9.357738,-1.1611878,0.48177493,9.785104,0.435892581405456836975,-0.25378537,9.478644,-0.6326678,0.45835695,9.788724,0.375772181405456837005,0.093972415,9.191938,0.025139118,0.44253656,9.790585,0.344962031405456837005,0.4189853,8.789713,0.45010993,0.43127954,9.790852,0.351584081405456837006,0.48003745,8.277952,0.34476504,0.41638798,9.789935,0.392687081405456837013,0.45429978,7.9732904,0.13347675,0.38849196,9.788866,0.444509631405456837041,0.2208651,8.27496,0.02633622,0.34405544,9.78884,0.48023441405456837042,-0.37828386,8.382699,-0.10115502,0.2800877,9.790361,0.490652351405456837044,-0.49200845,8.048708,-0.30346507,0.20292993,9.792261,0.490745871405456837067,-0.013766659,8.025364,-0.41838676,0.1069377,9.794204,0.482228821405456837068,0.6667852,8.225879,-0.3184288,0.003078092,9.795087,0.476097171405456837073,1.1378443,8.443152,-0.047884032,-0.09617519,9.794345,0.48163551405456837102,1.0899603,8.262989,0.22565351,-0.1859934,9.791652,0.50929451405456837103,0.85054016,7.958925,0.545878,-0.27156156,9.786552,0.56571611405456837105,0.6536171,7.685986,0.7577648,-0.3575661,9.779409,0.63693191405456837113,0.3172317,7.543531,0.9163807,-0.44366294,9.769743,0.725049141405456837137,0.089782566,7.373543,0.7493851,-0.52859014,9.758504,0.81398651405456837138,0.10474633,7.418434,0.52253455,-0.61103725,9.747025,0.890258431405456837144,0.27234045,7.797915,0.39264908,-0.68831635,9.736428,0.947938441405456837173,0.2753332,8.382699,0.45429978,-0.75484717,9.727438,0.98870011405456837174,0.12330139,8.886678,1.1486182,-0.80847126,9.719753,1.02136151405456837175,0.047285482,9.185953,1.6753427,-0.8563126,9.711622,1.05901461405456837208,-0.3321955,9.185953,1.7902644,-0.8970386,9.702697,1.10606381405456837209,-0.43634325,9.184157,1.4921862,-0.9384791,9.692584,1.15908361405456837210,0.076015905,9.258977,0.94211835,-0.98172206,9.682787,1.20426821405456837234,1.0061632,9.3421755,0.27114335,-1.0204157,9.675289,1.23203361405456837234,2.0260932,9.449914,0.044891283,-1.04612,9.671561,1.23972941405456837235,2.3020248,9.674969,0.40102878,-1.0592171,9.670237,1.23893981405456837244,1.7459716,9.679757,1.1294646,-1.0640333,9.670365,1.23378781405456837272,0.93732995,9.8042555,1.7369933,-1.0714526,9.669242,1.23619081405456837273,0.3513491,10.063428,2.1188686,-1.083608,9.666805,1.24461421405456837275,-0.31304187,10.123882,2.319383,-1.0965424,9.665133,1.24626491405456837306,-0.7739257,10.014946,2.071583,-1.1073127,9.666253,1.22792671405456837307,-0.8194155,9.838972,1.4431051,-1.1085627,9.671131,1.18773731405456837307,-0.5554548,10.499173,1.638831,-1.1017218,9.678192,1.13543081405456837313,0.29747957,10.787674,1.3664906,-1.0736659,9.6888,1.06996681405456837329,-0.27712885,10.241198,0.53330845,-1.023763,9.703719,0.97986971405456837347,-1.4903905,9.282919,-0.4950012,-0.9645587,9.720889,0.862757271405456837347,-2.8299465,8.625112,-1.364695,-0.90289724,9.737843,0.727745531405456837375,-3.7630866,8.738836,-1.9075803,-0.8443831,9.752978,0.5803731405456837375,-4.3795934,9.988609,-2.0482395,-0.7929247,9.765225,0.426669421405456837376,-5.01705,12.536638,-2.0458453,-0.7485937,9.774101,0.277414681405456837407,-6.071097,15.537172,-2.4887726,-0.71595573,9.779303,0.151750651405456837408,-5.117606,19.05545,-2.689287,-0.7035937,9.781209,0.0572106651405456837408,-4.907515,19.608511,-3.1381998,-0.6755504,9.783352,-0.0082400051405456837413,-6.257246,18.644846,-2.4229321,-0.63333184,9.785989,-0.061018241405456837428,-4.502895,15.251663,0.017357962,-0.61658496,9.786943,-0.07723581405456837446,-3.393781,11.758523,2.779668,-0.5683368,9.790114,-0.032314711405456837446,-2.5959132,9.6923275,4.209007,-0.49858433,9.7935295,0.0928320141405456837463,-2.3301568,8.905831,4.4927197,-0.4134449,9.7945795,0.256278371405456837478,-2.4067712,7.804499,4.358644,-0.32639527,9.792765,0.406983321405456837479,-2.6270378,6.3272767,4.4340615,-0.2435843,9.789903,0.518531141405456837495,-1.5059528,6.3907228,4.0934863,-0.16250995,9.787538,0.58997961405456837496,0.2220622,6.964134,3.4524388,-0.069530636,9.785501,0.63996031405456837515,1.2156559,7.270592,2.280477,0.05518033,9.784757,0.652612271405456837515,1.9632454,7.349002,0.88405895,0.20139673,9.784538,0.626603361405456837524,2.2750902,7.3765354,-0.320823,0.34794804,9.78385,0.570649451405456837548,2.3127987,7.756615,-1.0007763,0.48260847,9.781747,0.504878461405456837548,2.2786815,8.114548,-1.0959458,0.60303164,9.77766,0.451782821405456837553,2.0488381,8.310873,-0.75477207,0.70995593,9.771656,0.425579281405456837587,1.6418238,8.024766,-0.37110126,0.8074457,9.764447,0.417125341405456837588,1.2348095,7.302315,-0.0688333,0.8847189,9.756788,0.43905311405456837588,0.81402856,6.3979053,0.19273324,0.939609,9.749551,0.48352881405456837593,0.7625532,5.7616463,0.56323594,0.97579765,9.742975,0.540954531405456837625,0.7721301,5.3354783,0.8403648,1.0015736,9.736786,0.60186761405456837626,0.8631097,5.192425,1.1803415,1.0222896,9.730934,0.65898361405456837626,0.8583213,5.1439424,1.5251064,1.0419266,9.7250595,0.712744951405456837656,0.8643068,5.073313,1.6705543,1.059268,9.719896,0.75627841405456837657,0.94092125,5.155315,1.5969325,1.0738796,9.715987,0.785350741405456837658,1.1468226,5.4384294,1.3162124,1.0840902,9.713858,0.79755791405456837684,1.3682863,5.7790046,1.1546037,1.0886261,9.713873,0.79119661405456837684,1.7531542,6.2566476,1.2443863,1.0864707,9.715944,0.768383861405456837685,2.3241713,6.9078703,1.3796587,1.0772759,9.719498,0.73568281405456837694,2.7287915,7.6602483,1.4305356,1.0670983,9.723228,0.70038991405456837719,2.9059622,8.497022,1.5119383,1.0475916,9.727987,0.66271161405456837720,3.0921116,9.479243,1.7184383,1.015214,9.733786,0.627047061405456837725,2.9843724,10.302849,2.3289597,0.9740052,9.739757,0.599048441405456837758,2.5432408,10.5680065,3.0550013,0.9272613,9.7451,0.586170261405456837758,2.3385365,10.371083,2.89459,0.87839615,9.749458,0.588956061405456837759,0.866701,11.223419,2.4540567,0.83150023,9.75343,0.591271941405456837776,0.10414778,12.968792,2.1679497,0.7800436,9.757848,0.588502471405456837777,1.1575965,13.353062,1.2970588,0.7299413,9.761861,0.58623631405456837793,2.4271219,14.079701,0.42437226,0.7135063,9.762922,0.58878191405456837794,4.2640734,13.58051,-0.28491,0.7424577,9.760369,0.59529931405456837813,5.485116,11.789049,0.06584055,0.8221625,9.753352,0.605444851405456837815,6.217742,9.675568,1.4694413,0.9377818,9.741178,0.63277831405456837825,6.296152,9.345766,3.66253,1.0681331,9.724713,0.677802261405456837845,5.489306,12.254123,6.518214,1.2150016,9.702382,0.74697691405456837846,2.9999347,15.861587,7.191583,1.3597181,9.6746235,0.85042731405456837871,0.99179804,16.133926,3.145981,1.4486481,9.649932,0.974992451405456837872,-1.1767502,13.965379,0.50278234,1.4835023,9.637154,1.04635621405456837874,-2.5797524,12.223597,0.61530983,1.4856033,9.631961,1.0902831405456837899,-3.1184478,11.19828,1.5245079,1.4727322,9.626936,1.15046881405456837900,-3.0131028,11.567586,0.47465047,1.4442142,9.618483,1.2527761405456837905,-3.1364043,11.065402,-1.2042835,1.3916909,9.613336,1.34809461405456837928,-3.590704,9.737817,-1.8752584,1.314761,9.618585,1.38730251405456837928,-3.6541502,8.762179,-0.9648633,1.21773,9.632221,1.3812581405456837945,-3.0011318,8.385692,-0.05207389,1.1149919,9.646683,1.36700151405456837959,-2.3157916,8.280945,0.24779987,1.0231252,9.658426,1.35587981405456837960,-1.5478514,8.523358,0.41838676,0.94500446,9.667903,1.34500181405456837977,-0.8050503,8.653842,0.7308301,0.8799755,9.676657,1.32603931405456837977,-0.08439561,8.32045,0.4345476,0.8270538,9.685712,1.29359841405456837992,0.2621651,8.038532,-0.11911154,0.7822993,9.695235,1.24933721405456837995,0.492607,8.410232,-0.008978256,0.7370967,9.705055,1.19958511405456838010,0.53450555,9.157822,0.47046062,0.68802845,9.714158,1.15418761405456838027,0.3345897,9.714474,0.5279215,0.63597447,9.722223,1.11548291405456838027,0.15203181,9.469068,0.2777274,0.58109426,9.729482,1.08161911405456838043,-0.007182605,9.458294,0.001795651,0.5222671,9.737203,1.04141405456838059,-0.17657238,9.364322,-0.2136825,0.457078,9.746377,0.98469611405456838060,-0.5363012,9.127894,-0.5057751,0.3854013,9.756219,0.91545831405456838074,-0.98341835,8.817246,-0.7769185,0.30741674,9.76539,0.844414351405456838074,-1.1127052,8.322844,-0.9451111,0.22528876,9.773293,0.77615331405456838090,-1.2629414,8.207323,-0.7445967,0.14447248,9.779208,0.71875151405456838094,-1.3748703,8.13849,-0.2777274,0.07121231,9.783164,0.67453421405456838108,-1.2617443,7.887099,0.1945289,0.009325462,9.785188,0.648399061405456838123,-1.0217255,7.711125,0.4333505,-0.04192308,9.785403,0.643849131405456838125,-0.82121116,7.342418,0.3549404,-0.08613602,9.78433,0.65564361405456838140,-0.39983168,7.2843585,0.23762453,-0.12978052,9.7828,0.67112351405456838164,-0.02932897,7.689577,0.05805939,-0.17450814,9.781278,0.68305361405456838165,0.075417355,8.267777,-0.15741876,-0.22805853,9.780288,0.681449651405456838166,0.10534488,8.729858,-0.44232875,-0.2908587,9.779793,0.664429551405456838176,0.37229836,8.986636,-0.7009025,-0.3633581,9.779238,0.636316361405456838195,0.60214174,9.003395,-0.7721301,-0.4433441,9.777899,0.605414451405456838213,1.1366472,9.189545,-0.43873745,-0.52559185,9.775234,0.582200171405456838214,1.6370354,9.248801,-0.049081136,-0.60177755,9.771573,0.569773851405456838214,1.7441759,9.072228,0.3274071,-0.6707868,9.766314,0.58272451405456838226,1.7316064,8.866926,0.6027403,-0.73167413,9.759379,0.62414081405456838270,1.4856021,8.430583,0.8762778,-0.78743637,9.750647,0.689380471405456838270,1.2276269,7.9708962,0.8026561,-0.8424685,9.740005,0.7700171405456838271,1.103727,7.687782,0.6584055,-0.8979379,9.728034,0.8540731405456838273,1.2437878,7.6602483,0.7218518,-0.95407504,9.715446,0.932849051405456838274,1.5532384,7.8853035,0.9223662,-1.0094576,9.702414,1.00725461405456838298,1.7537527,8.177396,1.122282,-1.0596193,9.68981,1.07478851405456838298,1.7184383,8.4234,1.6460136,-1.1053461,9.677628,1.13672211405456838305,1.3820529,8.656237,1.9877859,-1.1469053,9.665309,1.19866161405456838335,0.87089086,8.867524,2.0536265,-1.1857085,9.652606,1.26161861405456838335,0.4417302,9.0237465,2.0482395,-1.2227439,9.639901,1.3219741405456838336,0.4405331,9.105747,1.785476,-1.260556,9.627061,1.37880121405456838366,0.6051345,9.227253,1.073201,-1.2975551,9.615577,1.42388551405456838366,1.1761516,9.527725,0.4985925,-1.3360437,9.606071,1.45216991405456838367,1.7381904,10.031705,0.50038815,-1.3717855,9.599627,1.46142751405456838374,1.3856442,10.306439,0.76554596,-1.4010007,9.596077,1.45701431405456838400,0.6781576,10.429741,1.1145009,-1.4315058,9.592518,1.4507881405456838400,0.12928689,10.38066,1.2934675,-1.4676158,9.587039,1.45092251405456838406,-0.0712275,10.238804,1.6555905,-1.5070611,9.580577,1.45316171405456838438,-0.78888947,10.755951,2.059612,-1.5412451,9.575624,1.44995331405456838438,-0.6871359,10.805631,1.869273,-1.5684973,9.574192,1.43005221405456838439,-0.59376204,10.7194395,1.3940239,-1.5786078,9.578147,1.3919461405456838464,-0.19632454,10.654796,1.4341269,-1.565535,9.587515,1.34128371405456838464,-0.40402153,10.068815,0.99538934,-1.5307077,9.601191,1.28236631405456838467,-1.0271125,9.088389,-0.027533319,-1.4957018,9.615768,1.2125411405456838476,-2.3636756,7.99005,-0.89782566,-1.4590491,9.632472,1.1211821405456838502,-3.4632127,7.3687544,-1.5652094,-1.4245602,9.650591,1.00355341405456838502,-4.197634,7.526173,-1.9458874,-1.3845181,9.670247,0.860128641405456838506,-5.031415,8.990826,-1.9512744,-1.3353195,9.689616,0.706169071405456838537,-5.514445,12.214619,-1.6178818,-1.2797318,9.706379,0.56468731405456838538,-5.251083,16.529568,-1.2132617,-1.2187582,9.719905,0.456578221405456838539,-4.4723687,19.457678,-1.3461399,-1.1504656,9.7319,0.37005321405456838567,-4.7656584,19.454086,-1.7591397,-1.0600138,9.744015,0.317756031405456838568,-4.76506,17.046118,-1.1839328,-0.97435474,9.75393,0.28612521405456838569,-3.9085343,13.640366,0.30346507,-0.90432584,9.760645,0.287019551405456838574,-3.6493618,10.8469305,2.112883,-0.83897215,9.764723,0.341619131405456838607,-3.394978,9.570822,3.0921116,-0.7764199,9.765662,0.446558361405456838608,-2.9484594,8.966884,3.0951042,-0.71150225,9.764425,0.565842331405456838609,-2.5701754,8.329428,2.9670146,-0.6392226,9.762583,0.673601271405456838640,-2.0404584,7.868544,3.0573955,-0.55160075,9.762365,0.749904751405456838640,-1.2174516,7.7440453,3.1992521,-0.44534752,9.764112,0.79633511405456838641,-0.08798691,7.225701,2.9131448,-0.31972238,9.766963,0.82132341405456838672,1.1288661,7.340024,2.2894554,-0.17899024,9.770285,0.82454881405456838672,1.6693572,7.393295,1.3748703,-0.03239742,9.773365,0.806646051405456838673,1.6932992,7.5566993,0.6242881,0.11268472,9.7751875,0.7767841405456838674,1.7489643,7.6764092,-0.006584055,0.24622838,9.775784,0.73745621405456838694,1.6244658,7.6548615,-0.21068975,0.3604846,9.774872,0.70167241405456838716,1.4742297,7.482479,-0.15562311,0.45354253,9.772462,0.680962741405456838717,1.0163386,6.8085113,0.005985504,0.5275255,9.7687,0.681615651405456838717,0.7870938,6.0890536,0.3764882,0.5836492,9.763929,0.70386081405456838726,0.8535329,5.5162406,0.84575176,0.6316893,9.758501,0.736919051405456838757,0.8900445,5.097854,1.1587936,0.6706655,9.752196,0.784414951405456838757,0.9068039,4.997896,1.4209588,0.704156,9.745304,0.83881761405456838758,0.9307459,5.1840453,1.6166847,0.73262715,9.738327,0.89367321405456838783,0.8122329,5.45459,1.6998832,0.757275,9.731734,0.94353761405456838783,0.6278794,5.580884,1.5801731,0.77838767,9.72616,0.983009761405456838786,0.55485624,5.6335564,1.3413515,0.79382926,9.722453,1.00703881405456838811,0.6937199,5.7365074,1.0522517,0.8062524,9.719997,1.02079381405456838812,0.92895025,5.993285,0.9139865,0.813397,9.720051,1.01457631405456838814,1.2659341,6.47033,1.0761937,0.8165341,9.722375,0.98948511405456838848,1.602918,7.0664864,1.4041992,0.8142323,9.726318,0.951926051405456838854,2.0093338,7.820061,1.8321629,0.8022624,9.73131,0.910145041405456838856,2.569577,8.98484,2.1948843,0.7778765,9.736877,0.87092651405456838857,3.2213984,10.43034,2.15957,0.75107646,9.742073,0.835639541405456838897,3.6792896,11.7303915,2.184709,0.71729225,9.74743,0.80217211405456838897,3.3243492,12.286445,2.416348,0.68150955,9.752441,0.771906731405456838898,2.6731262,11.990162,2.421735,0.64175886,9.756975,0.748316651405456838899,1.3425486,11.587936,2.0649989,0.5995149,9.761246,0.727353931405456838906,0.15741876,13.062764,1.9213469,0.55146253,9.765791,0.704000531405456838933,0.17537527,13.681665,0.973243,0.49889383,9.769489,0.69179221405456838934,0.7721301,13.833697,-0.18614918,0.45306116,9.772499,0.68071381405456838935,2.4594438,12.604275,-1.5676036,0.44285044,9.773416,0.6742391405456838974,4.1317935,10.758944,-1.086369,0.48554626,9.771773,0.66863521405456838975,4.8656163,9.846154,2.6725276,0.57759064,9.765106,0.692470851405456838976,3.7403417,12.603676,7.0503254,0.70972914,9.750301,0.77349721405456838976,2.8844144,18.422783,5.00867,0.86470634,9.72609,0.908761441405456838999,1.1031284,18.751389,0.2136825,1.0169605,9.70204,1.00330261405456839000,-1.2330139,15.139734,-0.82899237,1.1465737,9.690243,0.97722421405456839008,-2.4600422,12.39957,-0.108936176,1.2403247,9.683196,0.931511041405456839027,-1.6244658,10.539276,1.1911154,1.2935683,9.673119,0.96325061405456839027,-2.1200657,9.110536,3.493739,1.3142139,9.65661,1.09230081405456839034,-2.554613,9.6923275,3.027468,1.2911437,9.64006,1.25401751405456839072,-2.758719,9.890448,0.8643068,1.2285657,9.633787,1.36057471405456839073,-2.9783869,8.567651,0.08319851,1.1565508,9.634863,1.41498371405456839073,-2.8149827,7.7799582,0.46327803,1.0771552,9.643053,1.42185471405456839077,-2.7940333,8.079233,0.57041854,1.0046964,9.651616,1.41678521405456839101,-2.2008698,9.173983,0.1592144,0.9360984,9.660308,1.40449041405456839101,-1.1593921,9.863512,-0.34835634,0.871808,9.671776,1.36642281405456839107,-0.44113165,9.697714,-1.0151415,0.81630325,9.686473,1.29471841405456839132,-0.32022446,9.632472,-1.6340426,0.7651935,9.701857,1.2078351405456839134,-0.60693014,9.830592,-1.46585,0.70601624,9.718212,1.10827461405456839136,-0.7577648,9.734824,-0.7637503,0.63095605,9.732619,1.02391581405456839176,-0.6398504,9.3260145,-0.095169514,0.54502106,9.74279,0.97537771405456839177,-0.54767364,9.02614,0.32561144,0.45587856,9.749499,0.953853251405456839178,-0.7062895,8.721478,0.54168814,0.36723465,9.755111,0.93453071405456839178,-0.8158242,8.344392,0.6266823,0.27771863,9.760192,0.912083271405456839207,-0.8026561,8.021772,0.4818331,0.1880442,9.76507,0.882300141405456839208,-0.8726865,7.7548194,0.15981296,0.10301176,9.769189,0.850142661405456839210,-0.76554596,7.4507556,-0.24061728,0.025441607,9.772592,0.816211761405456839242,-0.54288524,7.29214,-0.36511576,-0.04154957,9.775555,0.779230831405456839244,-0.45429978,7.475895,-0.16400282,-0.096172266,9.777816,0.745302261405456839245,-0.6194997,7.683592,0.23642741,-0.1419488,9.778821,0.72450261405456839265,-0.842759,7.723695,0.6584055,-0.18645635,9.778749,0.71532271405456839265,-0.9487024,7.551911,0.6925228,-0.23536009,9.776706,0.72872231405456839267,-1.4275428,7.5016327,-0.18854338,-0.29488632,9.7733135,0.75219081405456839287,-1.3413515,7.6668324,-0.46387658,-0.37193656,9.77009,0.75988081405456839288,-1.1893197,7.8637557,-0.7158663,-0.46235478,9.767434,0.74422791405456839308,-0.7128736,8.175002,-0.90261406,-0.5586109,9.765242,0.705954551405456839309,0.090381116,8.290522,-0.91578215,-0.65085226,9.763201,0.653227751405456839327,0.9343372,8.2516165,-0.6751649,-0.73438776,9.760727,0.599397961405456839328,1.477821,8.401254,-0.18375498,-0.8039631,9.757912,0.554251851405456839335,1.7890673,8.683171,0.36870706,-0.85810417,9.754536,0.532068671405456839364,2.022502,8.890269,0.7350199,-0.89805186,9.750538,0.539350031405456839364,2.0871453,8.722675,0.83378077,-0.9278087,9.745753,0.57433311405456839369,2.042254,8.486248,0.7553706,-0.9535692,9.73995,0.62806531405456839397,1.9800048,8.44375,0.57400984,-0.97949475,9.733447,0.68630471405456839399,1.8351556,8.636484,0.40043023,-1.0053058,9.726311,0.747416441405456839400,2.0566192,9.131485,0.16460137,-1.032427,9.718881,0.80489721405456839407,1.9165585,9.922171,0.4381389,-1.0557508,9.712009,0.855966871405456839422,1.9752164,9.998785,0.878672,-1.075836,9.705232,0.906345071405456839439,1.5532384,9.700109,1.3072342,-1.0943974,9.69779,0.962051151405456839440,0.7248446,9.60015,1.7286136,-1.1187384,9.688772,1.02298461405456839455,-0.13587095,9.395446,1.8016368,-1.1519214,9.67748,1.09081261405456839456,-0.12749124,9.123704,1.3754689,-1.1964927,9.663982,1.16027371405456839473,0.6183026,8.920197,0.6135142,-1.2447479,9.649889,1.22499841405456839486,1.8189948,8.903438,0.3369839,-1.2876962,9.637598,1.27629181405456839486,2.8820202,9.089587,0.66379243,-1.3180977,9.628884,1.3105661405456839503,2.8161798,9.307459,1.2491747,-1.3357415,9.623531,1.33186351405456839506,1.9692309,9.546281,1.608305,-1.3521131,9.618331,1.35273741405456839520,0.91697925,9.682152,1.7046716,-1.3738004,9.612202,1.37428281405456839536,0.16340427,10.026319,1.6591818,-1.4008771,9.605232,1.39551571405456839536,-0.12569559,10.5291,1.851915,-1.4259859,9.600146,1.40503511405456839554,-0.27473465,10.81461,1.6915035,-1.439846,9.599859,1.39281871405456839557,-0.18016368,10.856507,1.186327,-1.4373946,9.606008,1.35238151405456839569,0.19393034,10.963648,0.9343372,-1.4244851,9.61565,1.29633571405456839587,0.08738836,10.588956,1.0103531,-1.384332,9.630779,1.22560041405456839587,-0.35793316,9.65821,0.48123455,-1.3271943,9.648491,1.14698281405456839604,-1.7292122,8.465299,0.004189853,-1.2642397,9.667416,1.05505911405456839610,-3.2160115,7.4854717,-0.59735334,-1.2011756,9.686415,0.94917651405456839634,-4.0462008,7.301717,-1.050456,-1.1332264,9.705614,0.82900521405456839635,-4.827309,8.325238,-1.210269,-1.0586407,9.723878,0.70419751405456839635,-5.7041855,11.02889,-1.033098,-0.98795015,9.739432,0.581227541405456839654,-5.966949,15.410878,-0.7846996,-0.9241411,9.751225,0.479512541405456839655,-5.312135,19.313427,-1.1378443,-0.8699188,9.759328,0.411280721405456839670,-5.5126495,19.608511,-2.1859062,-0.8118071,9.766127,0.36624741405456839686,-6.3368535,18.546085,-2.160767,-0.76131755,9.771828,0.319652831405456839687,-5.1762643,15.011644,-0.6721721,-0.73777884,9.774825,0.280855181405456839701,-4.426879,12.108076,1.6496049,-0.69730747,9.777779,0.28144321405456839707,-3.3854012,10.593744,2.919729,-0.6534645,9.7788,0.344171405456839721,-2.4660277,9.645041,2.9987376,-0.59374535,9.77825,0.45132281405456839738,-1.9111716,8.352173,2.837129,-0.51822716,9.777229,0.55463471405456839738,-1.8668787,6.599617,3.0400376,-0.43007892,9.777327,0.6239521405456839754,-0.3489549,6.8067155,3.3734303,-0.33766136,9.778672,0.65875151405456839756,1.471237,7.8266454,3.2668881,-0.22739042,9.780917,0.672570171405456839769,2.191293,7.8428063,2.5486276,-0.09602789,9.7826805,0.678466861405456839786,2.2152352,7.271789,1.5239093,0.058558572,9.78399,0.663701241405456839787,2.3870192,7.20954,0.7823054,0.2049743,9.784437,0.62701841405456839801,2.3654714,7.5884223,0.40701428,0.329993,9.783914,0.580120441405456839819,2.2397757,8.144476,0.18255788,0.43695906,9.7819805,0.54069451405456839819,1.87047,8.037335,0.11671733,0.5271014,9.778615,0.52080841405456839835,1.2126632,7.1425023,0.18315643,0.6051535,9.774479,0.513542231405456839836,0.7835025,6.215946,0.37349546,0.6614932,9.769933,0.530323271405456839856,0.8218097,5.6485205,0.49440265,0.6983099,9.765337,0.56650171405456839857,0.89423436,5.4204726,0.6314707,0.7237723,9.760611,0.614036741405456839873,0.87448215,5.071518,0.6859388,0.74566406,9.755446,0.667579531405456839888,0.7733272,4.96737,0.85891986,0.7639035,9.750039,0.7236061405456839889,0.6823475,4.943428,1.1264719,0.7759338,9.744933,0.7775551405456839907,0.5494693,4.8386817,1.3323733,0.7846435,9.740002,0.82891641405456839918,0.51116204,4.8979383,1.3856442,0.78755325,9.736259,0.86914551405456839919,0.62009823,5.1379566,1.3874398,0.7852619,9.734246,0.89343411405456839933,0.7769185,5.483919,1.3281834,0.77868897,9.734361,0.897914471405456839936,0.9708488,5.9986725,1.4024036,0.76697487,9.736855,0.880805551405456839953,1.2114661,6.667253,1.6065093,0.74708736,9.741476,0.846114161405456839956,1.5376761,7.6015906,1.7555484,0.7233254,9.746698,0.80565181405456839968,1.9428947,8.819042,1.7070658,0.68899757,9.753052,0.757408861405456839984,2.3439236,10.048465,1.7112557,0.645451,9.759947,0.70513331405456840025,2.3828292,10.976217,1.9829975,0.3840113,9.78548,0.51702131405456840026,1.8776526,11.163564,2.2942438,0.3840113,9.78548,0.51702131405456840028,1.2258313,11.067796,2.2170308,0.3840113,9.78548,0.51702131405456840028,-0.11552023,12.391789,2.0410569,0.3840113,9.78548,0.51702131405456840029,-0.93014735,14.513651,1.7190368,0.3840113,9.78548,0.51702131405456840036,-0.34476504,15.398308,0.6607997,0.32022914,9.788999,0.49328211405456840051,0.8924387,16.129139,-0.44711718,0.2807219,9.79101,0.477215951405456840056,2.6515784,14.558542,-1.4059949,0.28792644,9.791356,0.46565411405456840071,4.2538977,11.572374,-1.0708067,0.34985858,9.789512,0.462004361405456840095,5.5312047,9.098565,0.6206968,0.45169574,9.784,0.489610171405456840096,6.4990606,8.252214,3.371036,0.5731293,9.774694,0.545199331405456840096,7.0515227,9.812037,6.10282,0.73123485,9.758621,0.63640521405456840150,5.1481323,13.186665,8.422203,0.92833126,9.734155,0.744875551405456840151,2.955642,15.412673,6.2482677,1.1088701,9.70573,0.85998891405456840151,0.9708488,14.657303,1.3215994,1.2241995,9.685984,0.923818771405456840152,-2.0189106,13.353062,-0.32621,1.2822762,9.679283,0.9152281405456840153,-2.9430726,12.822745,0.31064767,1.2905966,9.679684,0.89914491405456840158,-2.9765913,11.654974,-0.23942018,1.2769971,9.680073,0.914253061405456840179,-3.7313633,11.058818,-0.110133275,1.2375852,9.679311,0.97453131405456840181,-4.111443,11.206659,-1.1468226,1.1509362,9.682741,1.04416011405456840188,-4.1186256,10.758346,-2.7934349,1.0207614,9.695174,1.0639661405456840208,-3.8881836,9.449316,-2.5755625,0.87210256,9.712912,1.03402161405456840208,-3.4979286,8.624513,-0.9127894,0.7340622,9.727401,1.00460091405456840216,-2.6318262,8.693945,0.033518825,0.6120824,9.736954,0.99371941405456840236,-1.5903485,8.418014,0.50637364,0.51303256,9.742508,0.995362461405456840237,-0.6745663,7.5046253,0.75836337,0.4421572,9.746522,0.9900621405456840255,-0.061650693,6.5487404,0.59256494,0.3931287,9.750439,0.9719981405456840275,0.14544775,6.413468,0.5410896,0.35474107,9.754474,0.94595051405456840276,0.22266077,7.204153,0.8206126,0.3201555,9.757898,0.92265671405456840276,0.27234045,8.41921,1.2629414,0.28564298,9.760235,0.9092011405456840287,0.11552023,9.350554,1.489792,0.24977994,9.7618265,0.90263391405456840307,0.020949265,9.784504,1.1079168,0.21001375,9.763009,0.89997141405456840308,-0.27473465,10.003573,0.24001873,0.16690409,9.765609,0.88060151405456840316,-1.0324994,9.737218,-0.53929394,0.11917437,9.771207,0.824455861405456840337,-1.560421,9.440337,-1.021127,0.060437225,9.778518,0.739814161405456840338,-1.738789,9.264363,-1.4155718,-0.006488485,9.785013,0.65105861405456840353,-1.797447,9.105149,-1.5711949,-0.0734481,9.790069,0.565296951405456840386,-1.7483658,9.01417,-1.388637,-0.13153496,9.793338,0.493550421405456840386,-1.5747862,8.978256,-1.0456676,-0.17818916,9.795148,0.44013271405456840388,-1.1971009,8.870518,-0.43754035,-0.2148495,9.795675,0.41106271405456840388,-0.87927055,8.5143795,0.2825158,-0.24309652,9.794815,0.415815441405456840410,-0.6931214,8.144476,0.6242881,-0.2680898,9.792434,0.454742851405456840411,-0.8355764,7.924209,0.40043023,-0.30034664,9.78906,0.50448861405456840416,-0.7942764,7.739856,0.22505496,-0.34085166,9.785267,0.55024381405456840435,-0.41299978,7.7973166,0.12090719,-0.3966063,9.781708,0.575592161405456840436,-0.13227965,7.8422074,-0.08259996,-0.46204674,9.778425,0.582534551405456840453,0.08140286,7.5644803,-0.20949265,-0.53521544,9.774798,0.58073771405456840468,0.3890578,7.65965,-0.055066638,-0.6155638,9.7702675,0.57737141405456840468,0.8738836,7.85358,0.05267244,-0.69668174,9.764704,0.57929741405456840486,1.0989386,7.969699,0.22804771,-0.77345836,9.758436,0.587431671405456840487,1.1192893,7.9062524,0.56323594,-0.84567374,9.750928,0.612068651405456840502,1.0534488,7.8948803,0.80325466,-0.9161393,9.741591,0.657640931405456840518,0.8834604,7.8972745,0.7930793,-0.98655224,9.730352,0.71927641405456840518,0.79367787,7.799112,0.545878,-1.0567691,9.7179985,0.783669651405456840534,0.961272,7.902063,0.15263036,-1.1253402,9.705814,0.83736971405456840536,1.3042414,8.230667,-0.13227965,-1.188345,9.69443,0.88106861405456840554,1.7848774,8.860941,-0.17357962,-1.2451077,9.684638,0.909871461405456840574,2.315193,9.67018,0.31663316,-1.28983,9.676671,0.93208331405456840575,2.5192988,10.1382475,0.7930793,-1.3194051,9.6700115,0.95940791405456840578,2.3630772,10.332776,1.6334441,-1.3393668,9.663268,0.99886551405456840588,1.8148049,10.023924,2.391209,-1.3558824,9.654798,1.05682371405456840606,0.90141696,9.603143,2.6659436,-1.3757362,9.643378,1.13269131405456840609,0.48722005,9.51755,2.4762032,-1.4046731,9.629327,1.21382371405456840617,0.45968673,9.048286,1.751957,-1.4366163,9.613934,1.29569571405456840640,1.0660183,8.91481,0.9540894,-1.4696271,9.599581,1.36331671405456840640,2.2158337,9.2494,1.2312182,-1.4991347,9.588853,1.40602421405456840648,1.4401124,9.232041,1.7699136,-1.5172975,9.582403,1.43030551405456840674,0.7332243,9.252991,2.0159178,-1.5408599,9.575865,1.44878021405456840675,0.18255788,9.392453,2.4827871,-1.566695,9.569277,1.46451061405456840677,-0.45190558,9.434352,2.7299886,-1.5925361,9.562762,1.47911721405456840729,-0.9163807,9.416395,1.9883845,-1.6120789,9.560026,1.4756371405456840730,-0.8487445,9.736021,1.5328877,-1.6178596,9.564181,1.44200351405456840731,-0.2633622,10.114903,1.6801311,-1.59779,9.575821,1.3860351405456840732,-0.095169514,9.877279,0.92296475,-1.5483129,9.59391,1.31530281405456840733,-0.8511387,8.933964,0.92296475,-1.4830668,9.616618,1.22128491405456840737,-2.3774424,7.80809,-0.81522566,-1.42126,9.638455,1.11829451405456840771,-2.9352913,7.4327993,-1.5999253,-1.3563585,9.661555,0.992497741405456840774,-3.5434184,8.276156,-2.1206641,-1.2817826,9.685289,0.85004831405456840775,-4.23235,10.933122,-2.0638018,-1.2008597,9.708353,0.69006671405456840808,-4.1539397,15.765819,-1.7615339,-1.1165953,9.728676,0.525819841405456840810,-3.9211037,19.521124,-2.2541409,-1.0230945,9.745598,0.383377971405456840811,-4.581305,19.608511,-3.247136,-0.9202561,9.760164,0.250445131405456840811,-5.6910176,19.498379,-3.107674,-0.8253727,9.770772,0.145563781405456840817,-5.7395,16.36317,-0.96306765,-0.7610811,9.776785,0.075147891405456840834,-4.799177,12.778453,1.8608932,-0.7183713,9.780032,0.072918521405456840837,-3.9336734,10.134656,3.2429461,-0.68077105,9.781814,0.151842431405456840858,-3.4847605,8.566454,3.1902738,-0.63919866,9.781704,0.28300971405456840859,-3.1555579,7.7973166,2.9694088,-0.59068626,9.780139,0.412757221405456840868,-2.508525,7.1245456,3.1723173,-0.537052,9.777896,0.52414431405456840894,-1.1246762,7.299921,3.2836475,-0.47231358,9.776989,0.59816991405456840895,0.05207389,7.199963,2.9993362,-0.38671413,9.778195,0.63855921405456840897,1.5047557,7.3567834,2.475006,-0.272403,9.781209,0.651259661405456840939,2.5600002,7.9086466,1.6041151,-0.13132425,9.784778,0.64130941405456840940,2.9364884,8.257003,0.6985083,0.022244858,9.787581,0.61085171405456840940,2.6856956,8.680777,0.21428105,0.17546646,9.788544,0.56921681405456840941,2.556409,8.759786,0.03172317,0.31170624,9.787764,0.522426371405456840949,1.6645688,8.030751,-0.055066638,0.42244887,9.785335,0.489066541405456840987,0.8984242,7.1113777,0.13108255,0.5029022,9.781848,0.48261811405456840992,0.5033809,6.097433,0.44711718,0.5565677,9.777806,0.50512281405456840999,0.5267244,5.233126,0.65421563,0.5908105,9.773338,0.550657031405456841039,0.6757634,4.8602295,0.8972271,0.615316,9.768287,0.610205771405456841040,0.7763199,4.594473,1.1109096,0.63756084,9.762603,0.67490891405456841041,0.7565677,4.624999,1.3431472,0.6578443,9.756207,0.74434831405456841042,0.66498953,4.796783,1.5664065,0.6752961,9.749485,0.81358431405456841043,0.62967503,4.869208,1.6298528,0.6886545,9.743258,0.8746711405456841045,0.705691,4.8548427,1.525705,0.6974822,9.738376,0.920847061405456841049,0.8230068,4.995502,1.3389573,0.7002704,9.735692,0.94674021405456841069,0.9935937,5.2995653,1.192911,0.70077336,9.73437,0.95986561405456841070,1.2395979,5.807735,1.1510124,0.6949287,9.735901,0.948515951405456841085,1.590947,6.4026937,1.3431472,0.68236005,9.739921,0.915810761405456841105,1.9967642,7.2550297,1.5915456,0.6617861,9.745595,0.86938451405456841105,2.4157495,8.473679,1.8016368,0.63244975,9.751938,0.818602441405456841108,2.7401638,9.861118,2.0733786,0.59542763,9.758069,0.771970451405456841117,2.6749218,11.074979,2.498948,0.5536708,9.763349,0.735433761405456841143,2.3253684,11.453861,2.9041667,0.51104313,9.767733,0.70755031405456841143,1.4407109,10.885238,2.7485435,0.46598932,9.771181,0.69085461405456841148,-0.19812019,11.969213,2.1547816,0.42222354,9.77429,0.67483521405456841178,-1.1354501,14.083892,2.058415,0.3755489,9.777845,0.650474671405456841178,-0.85652566,14.574703,1.062427,0.32524347,9.781095,0.628334761405456841179,0.39085343,15.371373,-0.38187516,0.2884119,9.783005,0.61643971405456841215,2.4127567,14.570513,-1.5131354,0.27504706,9.784524,0.59820731405456841215,4.2263646,12.337321,-1.204882,0.3161983,9.784185,0.58320561405456841216,5.1780596,9.54209,0.96187055,0.40390143,9.780127,0.596971041405456841218,5.7885814,8.396465,4.4520183,0.5196803,9.770474,0.66196581405456841240,5.8454432,10.404602,7.6841903,0.66458124,9.753426,0.774210931405456841241,4.257489,14.977528,7.587225,0.8398735,9.72761,0.91576991405456841248,2.005144,16.71093,3.4823663,1.0024366,9.700959,1.02806011405456841281,-0.70509243,14.275428,0.62129533,1.1228514,9.684195,1.06112351405456841282,-2.475006,11.852495,-0.016759412,1.1923008,9.677638,1.04506091405456841282,-2.6372132,10.6398325,0.27712885,1.2351745,9.673307,1.03530931405456841309,-2.463035,9.822811,1.2084733,1.2599198,9.665803,1.07482591405456841309,-2.5103204,9.700109,1.198298,1.2516893,9.655938,1.16897831405456841310,-2.6013002,10.113108,-0.3657143,1.2027494,9.651627,1.25295021405456841317,-2.7611132,9.802461,-1.4867992,1.136018,9.653597,1.29919351405456841340,-2.7024553,8.911219,-1.4754268,1.044939,9.664858,1.29190331405456841340,-2.4480712,8.776545,-0.7978677,0.95122844,9.677979,1.2658051405456841350,-1.9506758,9.112331,-0.25917232,0.86617965,9.6891985,1.24078861405456841373,-1.079785,9.060856,0.15203181,0.79509825,9.69882,1.21288991405456841373,-0.046088383,8.533533,0.12988544,0.7425585,9.707574,1.17558521405456841377,0.58657944,7.9104424,-0.22266077,0.70519906,9.716083,1.12729731405456841415,0.78769237,7.868544,-0.14065935,0.6723998,9.724266,1.07560561405456841415,1.0175357,8.594585,0.60453594,0.63848585,9.73181,1.02696351405456841416,1.002572,9.443929,1.2240356,0.5991139,9.737711,0.994210961405456841444,0.75836337,9.742605,1.4024036,0.55250853,9.742107,0.9779871405456841445,0.54887074,9.79827,1.1839328,0.49955317,9.7462845,0.964776751405456841446,0.13946225,9.874885,0.57281274,0.44148064,9.752171,0.933086341405456841449,-0.41718966,9.745,0.05686229,0.37791386,9.759329,0.884928761405456841472,-0.8475474,9.506777,-0.2885013,0.3061895,9.767907,0.815253731405456841472,-1.021127,9.149442,-0.6841431,0.2298001,9.775814,0.74231831405456841480,-0.75118077,8.822035,-0.98102415,0.1572402,9.782133,0.67493751405456841524,-0.7469909,8.5622635,-1.0552444,0.09703531,9.786798,0.616098941405456841525,-0.96546185,8.517372,-0.79607207,0.046696287,9.789913,0.57079441405456841526,-1.1905168,8.549096,-0.20290859,-0.001105915,9.791295,0.548583751405456841527,-1.1492168,8.347982,0.39145198,-0.050827395,9.791401,0.54431441405456841531,-0.9528923,8.070854,0.36631286,-0.10391016,9.789437,0.57140581405456841578,-0.82599956,7.8368206,-0.04189853,-0.16174598,9.786439,0.60813721405456841579,-0.6991069,8.033145,-0.36511576,-0.22999476,9.783931,0.62625031405456841580,-0.8948329,8.093599,-0.56203884,-0.31231648,9.782337,0.61541151405456841581,-0.9672575,7.9206176,-0.6925228,-0.40959173,9.780648,0.58444651405456841582,-0.51714754,7.926005,-0.62728083,-0.5133593,9.777783,0.549383941405456841612,0.06823475,8.078635,-0.55006784,-0.62293875,9.773196,0.51670621405456841612,0.7763199,8.311471,-0.32022446,-0.7285101,9.766935,0.496646641405456841612,1.365892,8.561666,0.0724246,-0.82244426,9.759358,0.498903751405456841644,1.6136919,8.700529,0.5847838,-0.90371996,9.750528,0.529972851405456841644,1.5113398,8.540117,0.76315176,-0.9779273,9.73997,0.589094341405456841645,1.3401544,8.303091,0.62728083,-1.0508558,9.727928,0.658412461405456841651,1.2473791,8.076839,0.30705637,-1.1240002,9.714237,0.73527451405456841674,1.0301052,7.872135,0.0724246,-1.1940368,9.7000885,0.80805391405456841674,1.2276269,7.994838,-0.25617957,-1.2613196,9.686181,0.87026721405456841677,1.5412674,8.39467,-0.23582886,-1.3221076,9.67349,0.91979171405456841708,1.8722657,8.834604,0.36272156,-1.3726871,9.662496,0.960354861405456841709,1.9746178,9.246407,1.2318168,-1.4113681,9.652751,1.00140461405456841711,1.6753427,9.547478,2.0093338,-1.4431045,9.642898,1.04993221405456841744,1.0360907,9.560047,2.4079683,-1.4697216,9.632101,1.11037211405456841744,0.5919664,9.696517,2.4019828,-1.4966152,9.619462,1.18173411405456841745,0.8170213,9.233239,1.8207904,-1.523314,9.605331,1.25997521405456841749,1.4580688,8.771158,1.2270284,-1.5481937,9.591521,1.33274011405456841767,2.1811178,8.711902,1.2144588,-1.5716712,9.579846,1.38808521405456841779,1.9309237,8.764574,1.4191631,-1.5943948,9.56962,1.43202081405456841780,0.6973112,8.771756,1.7196354,-1.6230084,9.560123,1.46296331405456841800,-0.17597382,9.007586,1.8902222,-1.663417,9.549011,1.48990751405456841800,-0.9247604,9.312247,2.4343045,-1.7064238,9.538863,1.50619321405456841816,-1.7597382,9.609727,2.5797524,-1.7429686,9.532673,1.50352741405456841818,-1.8375498,9.91439,2.0290859,-1.76672,9.532382,1.4774271405456841833,-1.22224,10.254965,1.2449849,-1.7650495,9.540145,1.42851251405456841851,-0.5781997,10.732009,0.7763199,-1.7450589,9.553409,1.36292771405456841851,-0.53091425,10.632649,-0.13587095,-1.6987518,9.574572,1.26973861405456841861,-0.9516952,9.776124,-0.7308301,-1.6420047,9.600152,1.14512341405456841878,-1.7860745,8.624513,-0.78410107,-1.5810362,9.626538,1.00024321405456841878,-2.505532,8.037335,-1.1653777,-1.5120053,9.6523485,0.846402051405456841896,-3.2543187,8.835801,-1.4095862,-1.4318253,9.676851,0.69197811405456841901,-4.1826706,11.544841,-1.1629834,-1.3443615,9.6989765,0.54123251405456841922,-4.7375264,15.718533,-0.60094464,-1.2617165,9.716101,0.419372261405456841923,-4.8763905,19.226637,-0.5967548,-1.1812433,9.729236,0.34206981405456841930,-4.611831,19.608511,-1.4999673,-1.1024776,9.739779,0.30272651405456841967,-5.216367,19.067423,-1.780089,-1.0275079,9.748869,0.27235681405456841970,-4.771644,15.31092,-0.39863458,-0.9832886,9.753819,0.257983121405456841971,-4.3742065,11.750143,1.5855601,-0.9492995,9.755742,0.30778851405456842003,-3.7253778,9.658808,2.9233203,-0.91143245,9.755931,0.401869031405456842004,-3.5284548,8.189965,3.292626,-0.86541915,9.754166,0.526959661405456842004,-3.2680852,7.511808,3.3255463,-0.8090648,9.75253,0.63557171405456842004,-2.1894975,7.0407486,3.37762,-0.74427027,9.752725,0.70768681405456842010,-0.94930094,6.894104,3.0585926,-0.6624504,9.755893,0.744387151405456842030,0.05207389,7.1305313,2.4468741,-0.5552809,9.762124,0.75033791405456842031,0.81283146,7.405266,1.6256629,-0.43406743,9.769047,0.74006671405456842055,1.2413936,7.6291237,0.7332243,-0.2977844,9.77671,0.705468241405456842056,1.4838065,8.110358,0.10235212,-0.161632,9.783322,0.65640291405456842058,1.6328455,8.350377,-0.18734628,-0.033482585,9.787948,0.60445061405456842089,1.4616601,7.989451,-0.26156655,0.08163024,9.790183,0.56219841405456842090,0.9935937,7.00723,-0.12928689,0.17665596,9.790187,0.539867941405456842091,0.717662,5.8963203,0.23463176,0.24551791,9.788542,0.5427281405456842098,0.70509243,5.0763063,0.7236475,0.3010583,9.786034,0.55971891405456842124,0.7350199,4.5663414,1.1318588,0.33856064,9.782534,0.59815121405456842124,0.7846996,4.5076833,1.4161704,0.3673124,9.778165,0.650340261405456842130,0.9151836,4.693234,1.5849615,0.3944944,9.77297,0.70982881405456842154,0.94570965,4.8255134,1.5717934,0.42374477,9.767173,0.77018771405456842155,0.83258367,4.936844,1.448492,0.45464054,9.76148,0.82291861405456842182,0.78170687,5.09546,1.2922704,0.48490065,9.756035,0.86894211405456842182,0.9139865,5.233725,1.1569979,0.51224226,9.751908,0.89906071405456842183,0.99538934,5.433042,1.1210849,0.53506786,9.749496,0.911805031405456842197,1.1270704,5.995081,1.1587936,0.55159783,9.748819,0.909205141405456842199,1.4077905,6.8719573,1.4047978,0.561018,9.749636,0.89458741405456842218,1.769315,7.9170265,1.8166006,0.5625325,9.751424,0.873890641405456842219,2.219425,8.982447,2.2415714,0.5545149,9.753632,0.85416891405456842230,2.610877,9.827001,2.5677812,0.54470927,9.755558,0.838323061405456842256,2.814384,10.503962,3.080739,0.5252847,9.757556,0.827398961405456842257,2.5863364,10.709863,3.4326868,0.4984563,9.759434,0.821820261405456842259,2.4744074,10.421362,3.1184478,0.4674939,9.761447,0.81609721405456842284,1.6316484,10.7751045,2.504335,0.44385818,9.763808,0.8009091405456842285,0.032920275,13.609839,2.6013002,0.4274673,9.767072,0.769410851405456842305,0.29508537,14.975133,1.4885949,0.39982936,9.770839,0.735706151405456842306,1.7609353,15.853207,-0.272939,0.38865972,9.773793,0.7016251405456842310,3.5727475,14.592061,-1.2755109,0.4009861,9.77633,0.658005651405456842331,5.1397524,11.717223,-0.7691373,0.45997167,9.775868,0.62547471405456842332,5.6910176,9.442732,1.1665748,0.55802405,9.770564,0.62856561405456842346,5.309142,9.688137,5.4342394,0.6788173,9.759382,0.68122521405456842386,3.3273418,13.924079,9.269152,0.81856126,9.740052,0.79481651405456842391,1.1569979,18.987217,5.5982423,0.94986624,9.711938,0.97283791405456842392,-1.2797008,16.803705,0.3788824,1.0504531,9.68976,1.08419811405456842393,-3.6355953,13.257892,-0.9498995,1.120427,9.680266,1.09885261405456842394,-3.9456444,11.187506,0.03232172,1.1599437,9.67582,1.09701551405456842399,-3.4967315,10.156802,1.0672154,1.1827111,9.667828,1.14223871405456842430,-3.6409822,10.170568,0.8230068,1.1793603,9.654253,1.25495741405456842431,-3.7469256,10.266336,-0.7026982,1.1522411,9.64109,1.37554661405456842432,-3.655946,9.536704,-2.255338,1.082093,9.638792,1.44677231405456842459,-3.6056678,8.868722,-2.005144,0.9882439,9.648712,1.44780811405456842460,-3.1358056,9.0237465,-1.0522517,0.8920701,9.662501,1.41797471405456842461,-2.6599581,9.285912,-0.35673606,0.8066379,9.674885,1.38430861405456842483,-1.839944,9.685144,0.1340753,0.7330597,9.685505,1.35055541405456842485,-0.7733272,9.411008,0.16699557,0.6724305,9.695913,1.30670921405456842505,-0.11851298,9.044696,-0.22385786,0.62376785,9.705901,1.25571731405456842505,0.10055647,9.128492,-0.30526072,0.5865832,9.71673,1.18804961405456842509,0.2705448,9.519944,0.17058687,0.55034435,9.7272835,1.11690331405456842529,0.47165772,9.630077,0.7577648,0.50908786,9.735984,1.05917181405456842529,0.47165772,9.329605,1.1947067,0.4615996,9.742147,1.02365341405456842548,0.039504327,8.941146,1.1180922,0.40762833,9.746848,1.00159411405456842565,-0.24600422,8.850765,0.9403227,0.3480372,9.75155,0.978022041405456842565,-0.64463884,8.718486,0.6805518,0.28290626,9.757312,0.94087391405456842584,-0.83976626,8.352771,0.18974048,0.21467502,9.763601,0.89243171405456842585,-0.9020155,8.058883,-0.35793316,0.14931816,9.769126,0.84396491405456842590,-0.9331401,8.040926,-0.6266823,0.08905893,9.773539,0.80027651405456842598,-0.85532856,7.799112,-0.65660983,0.032368775,9.777141,0.75952371405456842619,-0.7368156,7.8027034,-0.43634325,-0.020015491,9.779934,0.72311911405456842621,-0.5494693,7.9691005,-0.0796072,-0.06932137,9.781951,0.69211191405456842630,-0.3842694,7.8948803,0.27832595,-0.11591566,9.782565,0.67703591405456842662,-0.3357868,8.079233,0.35075054,-0.16532676,9.781501,0.68213791405456842664,-0.427365,8.042124,0.10055647,-0.22517303,9.779259,0.696999131405456842665,-0.45489833,7.8637557,-0.19572599,-0.29996845,9.776626,0.70570531405456842692,-0.40761283,7.9128366,-0.33279404,-0.38938832,9.773913,0.69958011405456842694,-0.28790274,8.06427,-0.427365,-0.4840461,9.77062,0.68636841405456842695,-0.01616086,8.193557,-0.39504328,-0.58271194,9.76669,0.66528591405456842715,0.6596026,8.387487,-0.19991584,-0.67888564,9.761702,0.647066061405456842715,1.4478935,8.708909,0.15622166,-0.76725954,9.755446,0.642635051405456842729,1.8010383,8.93576,0.58538234,-0.84264004,9.748037,0.66037711405456842730,1.9482816,8.940548,0.9271546,-0.90568805,9.739323,0.704078261405456842747,1.8668787,8.682572,1.0899603,-0.96020466,9.729085,0.77026661405456842750,1.5999253,8.249821,1.0726024,-1.0129265,9.717595,0.84422821405456842765,1.4431051,7.890092,0.95468795,-1.0645392,9.704901,0.92308111405456842782,1.5245079,7.887099,0.7158663,-1.1161274,9.691762,0.99720661405456842783,1.8231846,8.1558485,0.8726865,-1.1658974,9.679027,1.06184771405456842794,1.9578584,8.485051,1.1683705,-1.2088637,9.667176,1.12015781405456842819,1.8459295,8.720282,1.6831238,-1.245155,9.65555,1.17912131405456842819,1.4383167,9.108741,2.1529858,-1.2796035,9.643102,1.24242061405456842820,0.75237787,8.945336,2.2254105,-1.3143075,9.629273,1.31152271405456842830,0.14305355,9.052477,2.255338,-1.3553473,9.613755,1.38171061405456842854,0.13587095,9.171588,1.8088194,-1.403374,9.597096,1.44798761405456842854,0.83138657,9.072228,0.93134445,-1.4534997,9.581494,1.50090551405456842860,1.9913772,8.992023,0.28072014,-1.4980618,9.569688,1.53208421405456842876,2.8766334,9.175778,0.42796355,-1.5305461,9.561873,1.54867211405456842878,2.7377696,9.564238,0.8714894,-1.5528766,9.558286,1.54859881405456842896,1.8183962,9.837176,1.3437457,-1.5704627,9.55594,1.54533731405456842898,0.87927055,9.961675,1.5448587,-1.5918738,9.552,1.54778951405456842916,0.049679685,10.101735,1.654992,-1.6163843,9.547622,1.54939951405456842921,-0.4213795,10.308235,1.9285295,-1.6394984,9.545697,1.536911405456842930,-0.86729956,10.196905,1.8189948,-1.6549274,9.54817,1.50467131405456842948,-1.2826935,9.395446,0.736217,-1.6674405,9.552589,1.46222451405456842964,-1.4137762,8.494029,0.635062,-1.6641883,9.562519,1.39967721405456842964,-1.1534066,7.776367,0.878672,-1.641805,9.577573,1.32097361405456842980,-1.7950528,6.703166,0.7320272,-1.601455,9.597536,1.22190711405456842980,-3.0532057,5.8322754,-0.010175358,-1.5463723,9.620878,1.10354381405456842997,-3.8468835,6.0704985,-0.8870517,-1.477162,9.645933,0.97177151405456843011,-4.9027267,7.964312,-1.1887212,-1.3941092,9.671343,0.831854761405456843012,-6.187216,11.771092,-0.76195467,-1.314483,9.693536,0.691299441405456843028,-5.999271,17.235859,0.075417355,-1.2439494,9.710493,0.573848251405456843030,-4.8386817,19.608511,-0.49440265,-1.1720593,9.723469,0.500833871405456843045,-4.8506527,19.608511,-2.2212207,-1.0790876,9.737008,0.44345721405456843062,-5.727529,19.583971,-3.064578,-0.99493665,9.749448,0.358832151405456843062,-5.4432178,17.034147,-1.525705,-0.94574004,9.757163,0.27150021405456843077,-4.923676,13.259089,1.1115081,-0.8966934,9.762617,0.240054091405456843078,-3.1387985,11.209054,2.6060886,-0.84387136,9.765632,0.301233351405456843094,-2.6928782,9.7563715,2.9939492,-0.76907706,9.767997,0.406408431405456843110,-2.734777,8.360553,3.210026,-0.6829212,9.770138,0.498430881405456843110,-2.1649568,7.700351,3.6212301,-0.5960148,9.772669,0.55685471405456843127,-0.973243,7.77936,3.5757403,-0.4980556,9.776113,0.591552261405456843130,0.22625206,7.7159133,2.871845,-0.37572134,9.780146,0.614800451405456843144,1.1707647,7.595605,2.0153193,-0.2395891,9.784482,0.61394351405456843159,1.8441339,7.735666,1.0749966,-0.09848931,9.788336,0.5909231405456843159,2.0380642,8.062474,0.3657143,0.033868954,9.790855,0.55533321405456843174,2.0632033,8.5383215,0.11372458,0.14912762,9.791603,0.522186161405456843178,1.903989,8.732252,0.11192893,0.24506402,9.790505,0.50632281405456843193,1.5460558,8.3629465,0.14844051,0.3190499,9.787941,0.51461371405456843215,0.89662856,7.342418,0.22565351,0.37908086,9.78471,0.53491941405456843216,0.19871874,6.0878563,0.44951138,0.41339025,9.781069,0.574605461405456843220,0.03232172,5.2486887,0.83018947,0.42891982,9.777038,0.62926411405456843230,0.15442601,4.739322,1.0773908,0.43726066,9.772263,0.694331941405456843251,0.27952304,4.359243,1.1384429,0.4461568,9.766804,0.7621541405456843262,0.41479546,4.2161894,1.1456255,0.4578639,9.761066,0.82602881405456843263,0.56323594,4.372411,1.234211,0.47158614,9.755129,0.886277261405456843282,0.89303726,4.4999022,1.3359646,0.48930123,9.749448,0.93768541405456843283,1.1067197,4.538808,1.3742718,0.5110554,9.744529,0.97641231405456843290,1.1845313,4.6662993,1.3916297,0.53124857,9.741312,0.99749361405456843320,1.3299791,5.032612,1.5801731,0.54402274,9.740522,0.99832421405456843320,1.5879543,5.6161985,1.6956934,0.5467165,9.742039,0.98192551405456843321,1.8818425,6.4068837,1.7405846,0.5380857,9.745499,0.95188751405456843354,2.3666685,8.437167,1.8872294,0.52489805,9.749626,0.916325151405456843355,2.496554,9.426571,2.6318262,0.50037646,9.754804,0.873964851405456843355,2.2463598,10.056246,3.799598,0.46241644,9.75997,0.836397051405456843358,1.5376761,10.28549,4.1946416,0.41328213,9.764103,0.8135681405456843381,0.6356605,10.575189,3.301604,0.3571949,9.767573,0.79833421405456843381,-0.45130703,12.6767,2.6527755,0.3001964,9.77149,0.773489651405456843395,0.050876785,14.721947,1.5831659,0.23742403,9.775542,0.743525861405456843414,1.2635399,15.705963,-0.19931729,0.1965525,9.778918,0.71030751405456843415,3.0280666,14.970943,-1.5167267,0.19414574,9.780937,0.682628631405456843418,4.6124296,11.667543,-1.8860323,0.24231969,9.781192,0.66327341405456843443,5.498883,8.799889,-0.44592008,0.3323726,9.778579,0.66282621405456843444,5.9627595,8.475474,2.9221232,0.45313364,9.77118,0.699381651405456843472,5.17387,11.312603,7.937976,0.6033762,9.756883,0.78075291405456843473,2.100912,16.446968,9.494206,0.7682342,9.732277,0.92897361405456843473,-0.29209262,17.453133,3.164536,0.89415836,9.702632,1.10896721405456843479,-2.6120741,13.758879,-0.2741361,0.9664228,9.687833,1.1757151405456843504,-3.6984432,11.128249,0.037708677,0.99512863,9.682521,1.19537941405456843504,-3.4973302,10.15381,2.2888567,1.0107877,9.679625,1.20563261405456843512,-4.1132383,10.65719,3.5673606,1.0187486,9.671683,1.26139071405456843535,-4.3161473,12.468404,1.8962077,1.0006412,9.661082,1.35373221405456843535,-3.7912183,12.334329,-1.1384429,0.9314979,9.655631,1.43926421405456843539,-3.1705215,10.546458,-2.4355016,0.8320275,9.663991,1.44409231405456843571,-2.504335,9.506178,-1.4496891,0.7309262,9.679657,1.39298581405456843571,-1.6430209,9.2907,-0.5482722,0.64413995,9.692518,1.34557181405456843572,-1.0169371,9.350554,-0.059855044,0.5768676,9.699855,1.32304371405456843580,-0.22984336,9.235633,0.66618663,0.5243407,9.704763,1.30881521405456843599,0.5931635,8.829816,0.9032126,0.48162413,9.709138,1.29270231405456843603,0.97862995,8.6712,0.4878186,0.4509832,9.715421,1.25603641405456843610,1.06123,9.011177,0.3585317,0.42518854,9.723271,1.20316231405456843632,0.973243,9.559449,0.741604,0.3965759,9.730813,1.15082371405456843632,0.6811504,9.983223,0.9756372,0.36294982,9.736295,1.11499481405456843640,0.30346507,10.222044,0.830788,0.32391807,9.739533,1.09862651405456843665,-0.16579847,10.338163,0.47884035,0.28049892,9.742279,1.08614221405456843666,-0.7266402,9.938332,0.095169514,0.2313108,9.746004,1.06409811405456843671,-1.4431051,9.108741,-0.24361002,0.17320085,9.75196,1.01963771405456843679,-1.6771383,9.005191,-0.6398504,0.10393705,9.758772,0.962282061405456843698,-1.9255368,8.831013,-0.95827925,0.02904577,9.764682,0.90584941405456843701,-1.8387469,8.510789,-1.1091139,-0.046637833,9.76899,0.85735331405456843711,-1.9027919,8.264186,-1.1498153,-0.11772797,9.771823,0.81730891405456843727,-1.9740193,7.9236107,-0.8391677,-0.1857821,9.773687,0.781601371405456843745,-1.887828,7.724293,-0.374094,-0.24735944,9.77404,0.7598251405456843745,-1.6944963,7.7733746,0.002992752,-0.30301556,9.772596,0.75824531405456843763,-1.2940661,8.0924015,0.18974048,-0.35600218,9.769475,0.77526571405456843764,-1.0989386,8.093,0.03172317,-0.40943977,9.765428,0.799479541405456843777,-0.93254155,8.075643,-0.12689269,-0.4708812,9.7612705,0.816253841405456843779,-0.7679402,8.027759,-0.3716998,-0.53846097,9.756941,0.826170861405456843794,-0.5351041,8.024766,-0.6242881,-0.62165713,9.752332,0.822182951405456843811,-0.08259996,7.923012,-0.6835446,-0.7171514,9.746914,0.80855191405456843812,0.6871359,7.97748,-0.24121583,-0.81887454,9.74003,0.79478291405456843823,1.3018472,7.820061,0.17118542,-0.9194319,9.731209,0.7928681405456843841,1.685518,7.555502,0.48602295,-1.0155139,9.720192,0.81056791405456843842,1.7998412,7.225102,0.74399817,-1.1074115,9.70676,0.850208461405456843861,1.6190789,6.8282633,0.93613285,-1.1975831,9.69147,0.90089441405456843862,1.3718776,6.545149,1.0444705,-1.2881513,9.673642,0.96524121405456843873,1.1055226,6.5523314,1.0749966,-1.3771892,9.654308,1.03349351405456843891,0.9660604,6.779182,0.92416185,-1.4628412,9.634769,1.09622911405456843891,0.9504981,7.3484035,0.96905315,-1.5419016,9.616556,1.14663791405456843907,0.8846575,8.01459,1.1043255,-1.6120301,9.600228,1.1863291405456843911,0.82240826,8.665813,1.3772645,-1.6762062,9.584668,1.22264621405456843924,0.4441244,9.273342,1.6364368,-1.731291,9.570227,1.25849261405456843941,0.18435353,9.516354,1.8070238,-1.7807556,9.555687,1.29928781405456843941,-0.044891283,9.593566,1.8608932,-1.8255736,9.540521,1.34763481405456843965,0.2124854,9.575011,1.6316484,-1.8673444,9.524603,1.40191611405456843965,0.9283517,9.363124,1.2707225,-1.905509,9.509152,1.45445681405456843971,1.7788919,9.298481,1.2635399,-1.9369916,9.496455,1.49525641405456843996,2.1392193,9.6049385,1.5460558,-1.9600738,9.48659,1.52744841405456843997,1.6154876,10.09994,2.0111294,-1.9714568,9.481096,1.54680071405456844000,0.7757214,10.473435,2.1918917,-1.9772257,9.477344,1.56234791405456844011,0.093972415,10.8385515,2.408567,-1.9809985,9.474181,1.5766851405456844034,-0.41479546,10.85531,2.7605145,-1.981135,9.473039,1.5833551405456844035,-0.6997054,10.600926,2.6581624,-1.9753082,9.475844,1.5738241405456844039,-0.5410896,10.548254,2.119467,-1.9667826,9.4811325,1.55250481405456844068,-0.045489833,10.785878,2.0332758,-1.9378953,9.493758,1.51112351405456844068,0.36870706,10.667366,1.3676877,-1.8826433,9.513388,1.45653831405456844071,0.020350715,9.82341,-0.11372458,-1.8111444,9.538459,1.38129391405456844102,-1.0606314,8.423999,-1.2563573,-1.7384096,9.566891,1.27394091405456844102,-2.0913353,7.3849154,-2.0308816,-1.668626,9.596471,1.13745831405456844103,-2.7024553,7.4004774,-2.484583,-1.5950115,9.625754,0.98548841405456844112,-3.2549171,8.704719,-2.4067712,-1.5189018,9.653843,0.81646721405456844134,-3.7469256,11.8261595,-1.7848774,-1.4340175,9.679561,0.648156761405456844135,-4.0557775,16.247652,-1.3036429,-1.3421965,9.701023,0.5089591405456844140,-3.7343562,19.503166,-1.5065514,-1.2413112,9.718727,0.419335131405456844166,-4.8739963,19.608511,-2.15957,-1.1235981,9.734849,0.374976631405456844166,-6.0411696,18.873491,-1.3838485,-1.027169,9.746347,0.352158371405456844171,-5.065532,15.155895,0.6476316,-0.9601576,9.753052,0.35560121405456844197,-4.5382094,11.387422,2.669535,-0.901587,9.756237,0.416369261405456844198,-3.478775,9.378687,3.4033577,-0.84746087,9.755076,0.5391511405456844200,-2.7246015,8.793902,3.1160536,-0.78651893,9.751143,0.683373631405456844211,-2.6437972,8.406641,2.992752,-0.71643853,9.747456,0.80263981405456844235,-2.4774003,7.5890207,3.3704374,-0.64236504,9.745524,0.88460021405456844236,-1.5251064,7.211934,3.5924997,-0.56239104,9.744163,0.95152161405456844240,-0.24001873,7.249643,3.2040405,-0.47042438,9.744746,0.99449041405456844271,0.79607207,7.351995,2.392406,-0.3511717,9.748138,1.010381405456844271,1.6112977,7.803302,1.4981717,-0.21046822,9.75389,0.993845341405456844272,1.8872294,8.298902,0.7781156,-0.06377397,9.760293,0.95026541405456844298,2.0081367,8.804078,0.3633201,0.074390054,9.765357,0.895915451405456844299,1.8752584,8.918402,0.18435353,0.19637452,9.767609,0.8518461405456844300,1.8249803,8.680777,0.260968,0.3073422,9.767589,0.818620561405456844311,1.2802993,7.61416,0.37588966,0.39639264,9.764901,0.812390151405456844325,0.83856916,6.38773,0.45070848,0.45813978,9.76076,0.829482731405456844343,0.6943185,5.382764,0.6476316,0.49526775,9.756208,0.86110421405456844343,0.7553706,4.859032,0.87448215,0.5166624,9.751464,0.901338041405456844358,0.919972,4.882974,1.0767922,0.53160924,9.74628,0.947526931405456844360,0.997185,5.0439844,1.4347254,0.5458701,9.740601,0.996545551405456844376,0.8535329,4.876989,1.5382746,0.5596251,9.734452,1.04767431405456844392,0.9343372,4.9200845,1.6705543,0.56830406,9.728856,1.0939761405456844392,1.1402385,4.9901147,1.6011224,0.5702312,9.724557,1.13058521405456844406,1.4544775,5.2480903,1.3694834,0.56700116,9.721961,1.154281405456844423,1.5855601,5.580884,1.2659341,0.55960196,9.7213545,1.16297471405456844423,1.7603368,6.0986304,1.4389153,0.5461676,9.722653,1.15848551405456844437,1.8764555,6.747459,1.6136919,0.5300208,9.724617,1.1494711405456844440,2.0452468,7.5171947,1.8776526,0.50267744,9.72793,1.1336161405456844464,2.3475149,8.522759,1.9626468,0.46354166,9.732091,1.11440561405456844464,2.586935,9.558251,2.315193,0.41658437,9.736441,1.09480311405456844471,2.1404164,10.113108,3.1920695,0.37036067,9.739941,1.08017311405456844496,1.2282255,9.931747,3.328539,0.32832333,9.742179,1.07357561405456844497,0.107739076,10.227431,2.6880898,0.28478375,9.744373,1.06605281405456844500,-1.38325,12.653356,2.801216,0.24539895,9.747704,1.04519361405456844511,-0.9498995,14.091673,1.9991584,0.20316403,9.750614,1.02695581405456844523,0.44472298,14.574703,0.39743748,0.17760493,9.751208,1.02605391405456844540,2.3397336,13.907319,-0.6183026,0.19195494,9.7508,1.02735041405456844541,3.7469256,12.008718,0.1400608,0.2585498,9.749198,1.0279531405456844561,3.66672,11.739369,4.3239284,0.36336774,9.742411,1.06009591405456844562,1.858499,16.324266,7.7733746,0.4805489,9.727485,1.14696411405456844577,0.46387658,19.608511,2.7551277,0.59634095,9.702234,1.29669931405456844597,-1.2000936,18.063055,-2.4343045,0.70610714,9.688736,1.34172381405456844598,-1.6466122,13.444639,-3.2429461,0.8000898,9.690169,1.27705931405456844600,-0.53091425,10.534488,-1.8291701,0.88528997,9.687584,1.23990891405456844621,-0.7469909,8.274361,1.6370354,0.9473621,9.672815,1.30750121405456844622,-1.3808558,6.743868,4.5872903,0.98462945,9.650265,1.43989071405456844639,-1.6561891,7.21373,4.6255975,0.97479725,9.625988,1.60016141405456844640,-1.797447,7.802105,3.34051,0.93880063,9.611657,1.70443431405456844660,-1.8207904,7.8469963,2.304419,0.8931755,9.6101265,1.73726931405456844661,-1.7411832,8.07265,2.1098902,0.84660923,9.615861,1.72883571405456844673,-1.4873978,8.446145,1.5059528,0.8059113,9.623657,1.70473181405456844687,-0.038905777,10.961852,-0.8038532,0.7699837,9.634422,1.65995741405456844692,0.4985925,11.808802,-1.8806454,0.7394702,9.650473,1.5785921405456844709,0.427365,11.663354,-2.7090392,0.70901513,9.672772,1.45092651405456844724,0.14604631,11.52868,-2.6258407,0.6703969,9.69744,1.29639241405456844724,0.045489833,11.008539,-1.5693992,0.61785454,9.719056,1.15265121405456844742,-0.10115502,10.336966,-0.39983168,0.5519693,9.733692,1.05876211405456844743,-0.15562311,10.013748,0.39683893,0.47317836,9.741991,1.01986561405456844756,-0.20590134,9.882068,0.86729956,0.38965136,9.74741,1.0032881405456844760,-0.30705637,9.5809965,0.8295909,0.30010378,9.750676,1.00232291405456844774,-0.47405192,9.148245,0.4369418,0.20915976,9.753717,0.995815461405456844797,-0.8170213,8.905831,0.073621705,0.11733488,9.75711,0.9774651405456844797,-1.2258313,8.4826565,-0.2896984,0.023979427,9.76037,0.95132341405456844800,-1.5981296,7.893683,-0.5919664,-0.07111673,9.7627535,0.924117741405456844835,-1.654992,7.40766,-0.53929394,-0.16696283,9.763768,0.90076841405456844836,-1.6519991,7.2699933,-0.17717093,-0.26146394,9.763447,0.88156631405456844836,-1.7058687,7.093421,0.14903906,-0.35231152,9.761355,0.87304691405456844841,-1.6944963,7.2029557,0.1592144,-0.43722034,9.757593,0.876714771405456844875,-1.7286136,7.2262993,-0.05327099,-0.5175044,9.752755,0.88675831405456844876,-1.8369513,7.2490444,-0.27832595,-0.5988012,9.747655,0.8916491405456844879,-1.9177556,7.1580644,-0.52073884,-0.6856106,9.742872,0.881348551405456844906,-1.6956934,7.1861963,-0.5722142,-0.7754244,9.737875,0.861921671405456844907,-1.2090719,7.4812818,-0.39624038,-0.8679922,9.732972,0.8283921405456844908,-0.7104794,7.651869,-0.13227965,-0.9587442,9.727845,0.787567851405456844947,0.24061728,7.9607205,0.089782566,-1.0446663,9.72197,0.749924361405456844948,1.2264298,8.197746,0.33279404,-1.1215719,9.715269,0.7252711405456844949,1.8489223,8.137892,0.5955577,-1.1870778,9.70786,0.72020931405456844950,2.0159178,7.9708962,0.86251116,-1.2443434,9.699459,0.736556051405456844954,1.9949685,7.968502,1.0205284,-1.2998952,9.690053,0.76388421405456844993,1.7280151,8.218098,1.1073183,-1.3578029,9.678639,0.80665221405456844996,1.3102269,8.4664955,1.0534488,-1.4193902,9.665425,0.857481661405456844997,0.7787141,8.526351,0.8924387,-1.4839921,9.6510105,0.908927441405456844998,0.53211135,8.732252,0.46387658,-1.5518641,9.635717,0.95658881405456845019,0.36870706,9.020155,0.09816227,-1.6203458,9.620412,0.99626411405456845020,0.16340427,9.161413,0.26276365,-1.6879694,9.605295,1.02929951405456845023,0.15203181,9.306262,0.9103952,-1.7508421,9.590304,1.06348261405456845048,-0.11552023,9.354146,1.1857284,-1.8076679,9.574319,1.11137431405456845049,-0.5081693,9.322423,1.4628572,-1.8638799,9.555912,1.17511121405456845052,-0.52732295,8.92738,1.3748703,-1.9213741,9.535017,1.24986481405456845079,0.18435353,8.392874,0.58119243,-1.975969,9.513741,1.32464441405456845080,1.3790601,8.037335,0.34476504,-2.0194213,9.495655,1.38740421405456845083,2.2301989,8.072051,0.8631097,-2.0508091,9.480553,1.44349991405456845092,1.9369092,8.523358,1.3174095,-2.0683,9.469889,1.48786871405456845114,1.1294646,9.222465,1.5658079,-2.079533,9.461489,1.52517751405456845115,0.1328782,9.80665,1.5927427,-2.0863209,9.454302,1.56007871405456845121,-0.5823896,10.44231,1.721431,-2.0905273,9.448604,1.58869661405456845154,-0.4177882,10.881647,2.2164323,-2.0897224,9.446255,1.60366241405456845155,-0.090979666,10.760141,2.2242134,-2.0800455,9.446776,1.6131391405456845162,0.29867667,10.553641,1.7082629,-2.055479,9.454845,1.5972851405456845192,0.7206547,10.375872,1.5131354,-2.010518,9.471928,1.55267231405456845196,1.1294646,9.950901,0.99658644,-1.9396079,9.497279,1.48660051405456845196,0.79367787,9.129091,-0.007182605,-1.8485681,9.528804,1.39824331405456845197,-0.56682724,8.048109,-0.37588966,-1.7538197,9.562208,1.28789641405456845217,-1.7034745,7.4788876,-0.52133745,-1.6646681,9.593897,1.16465821405456845218,-2.60549,8.2037325,-0.7110779,-1.5809029,9.622944,1.03445321405456845222,-3.4985273,10.49199,-0.40102878,-1.4940515,9.650548,0.89727241405456845243,-4.2957964,14.354436,0.14903906,-1.4059441,9.674829,0.769047861405456845243,-4.2610803,18.346767,0.02932897,-1.3168486,9.694208,0.677211405456845253,-4.047398,19.608511,-1.3611037,-1.2192577,9.710447,0.62532711405456845287,-5.228338,19.397224,-2.409764,-1.1223145,9.72541,0.5719881405456845287,-5.6778493,17.377115,-1.7244238,-1.0553782,9.736804,0.501193341405456845288,-5.5192337,14.466964,0.07062895,-1.0198244,9.743514,0.440802281405456845294,-5.478532,11.838729,1.8680758,-0.99777275,9.745966,0.43699881405456845318,-5.109226,10.356718,2.6120741,-0.9756784,9.745105,0.501375141405456845319,-4.5100775,9.566631,2.4181437,-0.9458216,9.742748,0.5955391405456845321,-4.033033,8.7849245,2.1865046,-0.89881057,9.741815,0.677915931405456845353,-3.4674027,8.249222,2.3756466,-0.83369714,9.742647,0.745766041405456845354,-2.4037786,8.2169,2.6240451,-0.7578759,9.7451315,0.792730331405456845355,-1.5747862,7.7051396,2.2697031,-0.6607249,9.7494135,0.8263121405456845383,-0.7457938,7.5968018,1.7292122,-0.54304016,9.755299,0.84240421405456845383,0.108936176,7.7907324,1.3281834,-0.41294163,9.761933,0.839366141405456845384,0.75357497,8.091205,1.1168951,-0.279917,9.7681675,0.82153761405456845416,1.1282675,8.2276745,0.95947635,-0.15321021,9.772894,0.79842011405456845416,1.2144588,7.993641,0.7823054,-0.032064825,9.775804,0.77652861405456845417,1.049259,7.3460093,0.6386533,0.068316,9.776632,0.76367411405456845421,0.44771573,6.4020953,0.62847793,0.14406537,9.775804,0.76375121405456845446,0.12749124,5.7347116,0.7457938,0.19406946,9.774046,0.775095641405456845447,0.035913024,5.2301335,0.8655039,0.22562867,9.771849,0.79403121405456845452,0.055066638,4.75668,0.93134445,0.24779315,9.769332,0.81800651405456845477,0.11432313,4.429273,0.94451255,0.2666478,9.766628,0.84396551405456845477,0.19871874,4.4244847,0.86610246,0.2847966,9.763682,0.871666551405456845481,0.22864626,4.6399627,0.8678981,0.3032266,9.760692,0.89851511405456845515,0.16998832,4.7925935,0.80325466,0.3236331,9.757773,0.92277191405456845516,0.2184709,4.936844,0.76075757,0.34389117,9.75518,0.942637151405456845517,0.25378537,5.063138,0.87807345,0.36077392,9.7532835,0.95587891405456845521,0.37349546,5.213374,1.050456,0.3728513,9.752458,0.959670961405456845554,0.5434838,5.524022,1.3814543,0.38300183,9.752194,0.95834671405456845555,0.741604,6.0106435,1.8183962,0.3871496,9.7531395,0.94698861405456845555,1.1109096,6.8947024,2.168548,0.38369069,9.755122,0.927772761405456845586,1.7226281,8.219295,2.3882163,0.3719865,9.757968,0.902262451405456845587,2.4624364,9.8276,2.332551,0.35387072,9.7614565,0.87128251405456845588,2.9370868,11.261726,2.3918076,0.3327955,9.765315,0.83563481405456845614,3.1004913,12.063186,2.6797101,0.31157824,9.7689085,0.80108931405456845614,2.6198552,12.005126,2.8125885,0.29265785,9.771435,0.77705321405456845615,2.2870612,11.75972,2.517503,0.27063277,9.772739,0.768580561405456845621,1.7645266,13.135189,2.183512,0.25424305,9.773114,0.769411151405456845641,1.4664485,14.252683,1.3700819,0.24878158,9.772961,0.77313451405456845642,1.863886,14.310143,0.5518635,0.25634092,9.773053,0.769475761405456845656,3.1465795,13.957598,0.018555064,0.28628802,9.773097,0.75827811405456845676,4.509479,12.585121,-0.16101007,0.3393582,9.772328,0.7462151405456845676,5.4264584,11.097723,0.91817635,0.42846274,9.768391,0.75191351405456845681,5.7945666,10.735002,3.8325183,0.5445874,9.759208,0.79478871405456845715,4.7626657,13.012486,8.376713,0.6859572,9.742265,0.887759271405456845715,2.9981391,17.787722,7.2729864,0.8380162,9.714388,1.04821731405456845716,-0.26396075,18.178576,1.745373,0.96382105,9.688046,1.17609311405456845721,-3.2202013,14.762648,-2.1440077,1.0372943,9.678246,1.19414441405456845751,-3.8127663,12.51569,-2.5767596,1.0728499,9.681861,1.13179161405456845754,-2.747945,10.903793,-0.65182143,1.0973902,9.68423,1.0871121405456845754,-2.8886044,9.330204,0.85772276,1.1074405,9.676425,1.1448931405456845777,-3.0801406,8.89805,1.8441339,1.0744331,9.665495,1.26260291405456845778,-3.1310172,8.380903,1.1210849,1.0032774,9.659687,1.36172441405456845781,-2.961029,7.805696,0.78050977,0.9184844,9.66122,1.40983821405456845811,-2.393603,7.465719,1.1713632,0.8403624,9.664577,1.43531451405456845813,-1.9997569,7.709928,1.3964181,0.7723598,9.669393,1.44107331405456845813,-1.4820108,8.470087,1.1288661,0.71647394,9.675368,1.42979371405456845821,-0.7386112,9.177573,0.7517793,0.66821635,9.683918,1.39484631405456845846,0.01616086,9.596559,0.16998832,0.62684625,9.69538,1.33306061405456845847,0.33159694,9.956287,-0.53330845,0.5902657,9.709206,1.24631581405456845855,0.2777274,10.47164,-1.1629834,0.5524273,9.723552,1.14793491405456845877,0.10474633,11.177929,-1.34195,0.5062582,9.7382345,1.0396571405456845878,-0.22146365,11.168951,-1.163582,0.4475734,9.751046,0.94192141405456845881,-0.53809685,10.5207205,-0.74519527,0.37715837,9.760742,0.869542361405456845913,-0.6278794,9.853337,-0.08080431,0.29765055,9.767764,0.820102331405456845914,-0.51235914,9.3260145,0.6775591,0.21295126,9.772903,0.784490351405456845915,-0.3752911,8.826224,0.8798691,0.12832038,9.7763605,0.75942841405456845924,-0.2681506,8.277952,0.75237787,0.046433542,9.778732,0.7379871405456845944,-0.22385786,7.851186,0.4357447,-0.026653614,9.78037,0.71697691405456845945,-0.2789245,7.373543,0.12808979,-0.08993366,9.781678,0.69357091405456845954,-0.3752911,7.131728,-0.008978256,-0.14569034,9.782489,0.672382531405456845973,-0.50397944,7.133524,0.21906945,-0.19622838,9.782412,0.66054631405456845973,-0.7278373,7.1065893,0.5943606,-0.24678515,9.7809305,0.66550391405456845986,-1.0175357,6.8827314,0.7392098,-0.30082595,9.778315,0.681521831405456846006,-1.1001357,7.0287776,0.53450555,-0.36532182,9.773948,0.71196431405456846006,-1.4341269,6.921637,0.002992752,-0.44211397,9.7688465,0.737935251405456846025,-1.6525977,6.9569516,-0.3645172,-0.5334975,9.764258,0.73825351405456846025,-1.6214731,7.4082584,-0.46267948,-0.63944095,9.759928,0.710852561405456846035,-1.4323312,7.740454,-0.6039374,-0.75075495,9.755155,0.66612121405456846064,-0.19931729,8.090606,-0.46567222,-0.8595751,9.749484,0.61571351405456846065,0.825401,8.289325,-0.24839842,-0.9574302,9.743148,0.56991121405456846065,1.4933833,8.532336,0.17597382,-1.0425407,9.736068,0.54082861405456846074,1.7166426,8.762179,0.6985083,-1.1118828,9.728547,0.53801881405456846103,1.650802,8.978256,1.1348516,-1.1685809,9.72032,0.5658591405456846103,1.3706805,9.000402,1.2862848,-1.2198834,9.710519,0.622998651405456846104,0.8846575,8.75799,1.1713632,-1.2731901,9.698463,0.69940881405456846122,0.5793968,8.736442,0.76315176,-1.3322052,9.684513,0.77836051405456846122,0.57760113,9.037513,0.48602295,-1.3954954,9.669157,0.85463711405456846137,0.53211135,9.238028,0.49799395,-1.4569279,9.653919,0.921733741405456846157,0.4770447,9.416994,1.2156559,-1.5105435,9.639745,0.981810331405456846158,0.31902736,9.301474,1.6819267,-1.5535166,9.626343,1.04427871405456846163,-0.05805939,8.890269,1.6448165,-1.5914696,9.612784,1.10996681405456846173,-0.22505496,8.55987,1.7435774,-1.6300966,9.598732,1.17368381405456846189,0.30406362,8.365341,1.1641805,-1.6684821,9.584245,1.23644911405456846204,1.3012487,8.336611,0.3561375,-1.699147,9.571848,1.28958391405456846204,2.0033484,8.631097,0.12988544,-1.7175595,9.562998,1.33021871405456846222,2.059612,9.229648,0.56084174,-1.7249651,9.558105,1.3555481405456846224,0.9588778,9.584588,1.0259154,-1.7265043,9.555882,1.36919431405456846238,-0.32202014,9.903615,1.4173675,-1.7333714,9.553141,1.37960271405456846255,-0.97264445,10.304046,2.2547395,-1.7488863,9.548581,1.39154211405456846255,-1.5035586,10.364499,2.858677,-1.7640976,9.543215,1.40904641405456846272,-1.7633295,10.149619,2.15957,-1.7753202,9.539326,1.42123751405456846286,-1.1312603,10.107122,1.4137762,-1.7737164,9.541374,1.40943781405456846286,-0.36631286,10.3639,1.3802572,-1.7429476,9.552872,1.3693681405456846305,0.107739076,10.453085,0.8110358,-1.6802742,9.5734625,1.30227361405456846305,-0.3333926,9.841366,-0.20590134,-1.5974858,9.600283,1.20540671405456846318,-1.2719196,8.854955,-0.8182184,-1.5171622,9.627238,1.08853471405456846323,-2.1284454,8.098388,-1.3377602,-1.433265,9.654104,0.956259131405456846338,-2.7216089,8.483255,-1.6962919,-1.3459616,9.679963,0.81060911405456846357,-3.3560722,10.575189,-1.3329718,-1.255037,9.70381,0.65678341405456846357,-4.4298716,14.295179,-0.41240123,-1.1657687,9.723507,0.51454761405456846361,-5.134964,18.655022,-0.062249243,-1.0877383,9.737293,0.415149361405456846388,-5.228338,19.608511,-1.0450691,-1.0221102,9.74715,0.344595821405456846388,-5.4743423,19.521723,-1.7196354,-0.9599454,9.754768,0.305599751405456846414,-4.9123034,16.743849,-0.55964464,-0.9063272,9.760591,0.282540651405456846415,-4.4502225,12.788629,1.6077064,-0.8529592,9.765014,0.29553311405456846416,-4.031237,10.110714,3.1280246,-0.80275375,9.766743,0.369778481405456846422,-3.5212722,8.886678,3.4584243,-0.75038147,9.765405,0.494131451405456846445,-2.8520927,8.311471,3.4243069,-0.688539,9.762717,0.62101421405456846445,-2.8119898,7.3352356,3.5583823,-0.61571985,9.759857,0.732451561405456846453,-2.3714569,6.4661403,3.6170402,-0.5302707,9.758922,0.8078661405456846475,-1.2018893,6.6163764,3.393781,-0.43292993,9.760035,0.85127841405456846475,-0.20709845,6.931214,2.7114334,-0.32065353,9.762693,0.87027771405456846482,0.8098387,7.307702,1.9009962,-0.19189824,9.766609,0.864253641405456846511,1.5334862,7.651869,1.0600328,-0.05538988,9.770687,0.8372681405456846512,1.6885108,8.028955,0.47405192,0.08114947,9.773609,0.800220431405456846514,1.6651673,8.179192,0.23044191,0.20451018,9.775177,0.75794781405456846523,1.484405,7.827244,0.21068975,0.30924335,9.774941,0.72475861405456846558,1.1498153,7.0982094,0.2801216,0.39272186,9.772973,0.71072311405456846559,0.7248446,6.260239,0.45729253,0.45576897,9.769705,0.718022051405456846561,0.62129533,5.5826797,0.748188,0.5016712,9.765619,0.742568431405456846562,0.641646,4.9105077,0.89603,0.5363319,9.761297,0.774471041405456846587,0.7505822,4.629189,1.0001777,0.56707627,9.756278,0.81476331405456846588,0.9636662,4.618415,1.1043255,0.594165,9.750816,0.859625941405456846607,0.98222125,4.6830587,1.2689269,0.61916506,9.745188,0.90462071405456846608,0.7942764,4.7321396,1.4227544,0.6405603,9.739913,0.945592161405456846614,0.7146692,4.8494554,1.4664485,0.6558178,9.735705,0.97790631405456846622,0.8451532,5.1481323,1.5095441,0.6634365,9.733168,0.997844931405456846638,1.0450691,5.7215433,1.5861586,0.6679288,9.731522,1.01081551405456846660,1.228824,6.4032927,1.7944542,0.66584,9.731765,1.0098651405456846661,1.4981717,7.192182,2.007538,0.65765727,9.733647,0.996997951405456846664,1.8956091,8.076839,2.0572178,0.64180887,9.736919,0.975132171405456846691,2.3397336,9.077017,2.0709844,0.61685646,9.741453,0.945500971405456846692,2.5965118,10.245986,2.486977,0.58232176,9.74692,0.9104111405456846694,2.2631192,11.233594,3.3183637,0.5413202,9.752265,0.877892851405456846702,1.845331,11.580155,3.5972881,0.49672642,9.756519,0.856741371405456846723,1.3664906,11.258135,3.2626984,0.4484037,9.75948,0.84963421405456846724,0.1400608,12.21402,2.542642,0.40433222,9.761708,0.846156841405456846735,-0.260968,14.671069,1.8950106,0.36106706,9.764444,0.834051971405456846758,0.2813187,14.955381,0.4357447,0.32248366,9.767087,0.818787161405456846758,2.268506,14.616601,-1.0845734,0.30776072,9.768524,0.80720721405456846762,4.298789,12.957419,-1.6226702,0.330242,9.769279,0.78900931405456846795,5.450999,10.3932295,-0.06823475,0.41133332,9.766447,0.78594231405456846796,5.5084596,9.333796,4.1922474,0.53083706,9.75729,0.82698161405456846796,4.228759,11.975199,8.262989,0.67466074,9.739682,0.92402921405456846803,2.8125885,17.951126,5.514445,0.83221567,9.713522,1.06079511405456846831,0.4381389,18.40722,1.471237,0.98047763,9.693108,1.11925361405456846832,-2.3906105,14.6363535,-0.08200141,1.0863749,9.684744,1.09358081405456846834,-3.3632548,12.167932,0.38965634,1.1540374,9.6813545,1.05354521405456846863,-2.5187001,9.96766,1.8231846,1.1873308,9.6742935,1.08105681405456846863,-2.6725276,8.11395,2.861071,1.1891338,9.659333,1.20566761405456846864,-2.8904,8.245032,2.7210102,1.1489681,9.6438465,1.35885381405456846897,-3.0334535,8.546701,0.6512229,1.0686253,9.638703,1.45733581405456846898,-3.0903158,8.14268,-0.36391866,0.967147,9.647864,1.46755561405456846898,-3.0472202,8.258201,-0.049081136,0.8684274,9.661284,1.44076531405456846903,-2.861071,9.511565,0.014963761,0.77591074,9.676675,1.38935591405456846925,-1.9578584,10.856507,-0.50996494,0.6942308,9.690698,1.33372351405456846925,-0.985214,11.228806,-1.0289081,0.6262132,9.704581,1.26465281405456846936,-0.39863458,10.9426985,-1.5041572,0.57197833,9.719558,1.17194471405456846962,-0.3298013,10.623073,-1.6717514,0.52151453,9.735146,1.06082191405456846963,-0.40402153,10.594941,-0.8912416,0.46675098,9.749296,0.95066061405456846963,-0.12808979,10.305841,0.26755205,0.39943507,9.759932,0.86865391405456846996,-0.045489833,9.194932,0.95708215,0.32392976,9.765425,0.837817431405456846996,-0.13826515,8.289325,1.3299791,0.24519524,9.766941,0.84683661405456846997,-0.4309563,7.5788455,1.2719196,0.16515462,9.767199,0.86309281405456847003,-0.60453594,6.929418,1.0684125,0.08166619,9.768458,0.86079091405456847020,-0.6937199,6.658275,0.87328506,-0.002178805,9.770698,0.83895081405456847045,-0.7278373,6.3739634,0.6404489,-0.084684074,9.772705,0.810845261405456847046,-0.6859388,6.0627174,0.34955344,-0.16074704,9.774479,0.777244031405456847046,-0.66259533,6.10282,0.26396075,-0.22894262,9.776084,0.739021541405456847054,-0.6548142,6.301539,0.19812019,-0.28792584,9.777659,0.696343841405456847066,-0.55006784,6.867169,0.2657564,-0.337116,9.779052,0.653372171405456847084,-0.39264908,7.5333557,0.6290765,-0.37714112,9.779847,0.618660331405456847084,-0.16879122,8.227076,0.8535329,-0.41277272,9.7799225,0.59424071405456847103,0.089782566,8.607754,0.57760113,-0.4440794,9.778739,0.591153861405456847103,0.038307227,8.623915,-0.12389994,-0.4782678,9.776889,0.595059631405456847116,-0.19812019,8.689157,-0.74878657,-0.52535194,9.77529,0.581470671405456847136,-0.44711718,8.719683,-1.1097125,-0.5908868,9.773975,0.5391321405456847136,-0.51954174,8.858546,-1.316811,-0.67362463,9.771936,0.475263061405456847173,-0.22266077,8.971074,-1.1234791,-0.7643986,9.76833,0.407188481405456847174,0.5093664,9.270349,-0.6715736,-0.8520713,9.763365,0.34792791405456847175,1.2743138,9.617508,-0.1436521,-0.9261393,9.757613,0.318835651405456847176,1.7106571,9.7719345,0.42916065,-0.98078537,9.751851,0.33145141405456847183,1.91596,9.632472,0.83378077,-1.0228785,9.74557,0.384677951405456847216,1.7417817,9.266758,0.9032126,-1.0616578,9.737823,0.467020721405456847217,1.4053963,9.012972,0.8074445,-1.1060522,9.727829,0.562477231405456847217,1.2114661,9.048286,0.6631939,-1.1564184,9.716077,0.65645141405456847244,1.0546459,9.035717,0.4297592,-1.210517,9.703145,0.74431971405456847244,1.0618285,8.865729,0.3854665,-1.2658616,9.69001,0.81958271405456847245,1.1336545,8.709507,0.5554548,-1.3218416,9.676964,0.88289871405456847287,1.1061212,8.5299425,1.2449849,-1.3755844,9.664377,0.93698861405456847288,0.64463884,8.274361,1.7381904,-1.4251833,9.651791,0.991057461405456847288,-0.14844051,8.001422,1.9165585,-1.4728677,9.638647,1.04764621405456847289,-0.6817489,7.848193,1.927931,-1.5229574,9.624431,1.10514391405456847313,-0.47524905,7.86196,1.4850036,-1.5706588,9.610339,1.15965521405456847313,0.29987377,8.188768,0.7110779,-1.6107091,9.597792,1.20765551405456847314,1.2814964,8.664616,0.4417302,-1.6398683,9.5883875,1.24259651405456847339,1.8070238,8.968679,0.74519527,-1.658257,9.582501,1.26342771405456847339,0.9792285,9.023148,1.1234791,-1.6720296,9.578317,1.27693311405456847342,-0.018555064,9.222465,1.3700819,-1.6929368,9.572795,1.29071781405456847380,-0.8900445,9.498397,1.9075803,-1.7182313,9.566978,1.30039061405456847381,-1.3862427,9.961675,2.4570496,-1.7390257,9.563179,1.30068861405456847382,-1.5269021,10.2974615,1.9961656,-1.7438173,9.564111,1.28736151405456847383,-0.65900403,10.6877165,1.1875241,-1.7213327,9.572888,1.25188981405456847409,0.40162733,11.184513,1.4275428,-1.6614344,9.591196,1.19120881405456847410,0.62249243,10.676344,0.17357962,-1.5696834,9.615751,1.11525961405456847414,-0.37828386,9.69532,-0.4429273,-1.4739795,9.641657,1.0179631405456847433,-1.6370354,8.967483,-0.7038953,-1.3776649,9.667089,0.90543841405456847434,-2.8191724,9.240421,-0.8295909,-1.2824214,9.691019,0.78098091405456847450,-3.9935284,11.24377,-0.55365914,-1.1866179,9.712325,0.65809161405456847468,-5.354632,15.17445,-0.110133275,-1.097821,9.729282,0.553420661405456847469,-5.689222,19.232023,-0.6943185,-1.0281695,9.740954,0.476512761405456847493,-5.6221843,19.608511,-2.1051018,-0.9672696,9.750484,0.403532861405456847494,-6.6804214,19.482218,-1.9865888,-0.9012067,9.759233,0.33997021405456847495,-5.8358665,16.20695,0.17357962,-0.8511875,9.765107,0.297566651405456847506,-4.741118,12.249334,2.5438392,-0.7982592,9.769166,0.31075171405456847535,-3.7882257,9.835381,3.6607344,-0.7512904,9.769799,0.39622461405456847539,-3.019687,8.566454,3.6164417,-0.7047952,9.766742,0.533325971405456847540,-2.2469583,7.892486,3.4332852,-0.6550962,9.761979,0.6670921405456847567,-1.1587936,7.1221514,3.6487634,-0.5987528,9.75696,0.78333181405456847568,-0.14604631,6.7803793,3.5051112,-0.5295092,9.75386,0.86729371405456847568,0.8607155,6.407482,2.8089972,-0.44262847,9.753294,0.920720761405456847585,2.1152773,6.7546415,2.1511903,-0.335765,9.755893,0.93819211405456847586,2.7162218,7.2101383,1.4389153,-0.2112085,9.761048,0.920703231405456847600,2.6737247,7.3244615,0.736217,-0.08329583,9.767185,0.87494341405456847618,2.5091233,7.289746,0.31483752,0.03922405,9.772458,0.817241671405456847618,2.4115596,7.4735007,0.30765492,0.14667423,9.7763405,0.7563381405456847660,2.1493945,7.349601,0.23942018,0.23840807,9.777787,0.71303081405456847661,1.5735891,6.4062853,0.060453594,0.3142695,9.776762,0.697548571405456847664,1.1665748,5.2223525,0.207697,0.36958677,9.77388,0.710667551405456847666,0.8230068,4.2066126,0.49200845,0.40486762,9.769675,0.7482781405456847667,0.842759,3.9665937,0.7823054,0.42878655,9.764158,0.80483521405456847708,0.84934306,3.970185,1.0253168,0.45088178,9.757685,0.86871471405456847709,0.6847417,4.0156746,1.1965023,0.4747373,9.750078,0.93861241405456847709,0.45370123,4.0545807,1.3838485,0.5007169,9.74236,1.00304891405456847710,0.22625206,4.158728,1.7357962,0.5236153,9.735635,1.05528821405456847714,0.12689269,4.4077253,1.8854338,0.5397405,9.730501,1.09381061405456847735,0.3333926,4.856638,1.7034745,0.5496064,9.727303,1.1170911405456847736,0.7009025,5.583278,1.5628152,0.55843645,9.725274,1.13031161405456847764,1.1079168,6.4745197,1.6460136,0.5638827,9.725748,1.12350671405456847764,1.4838065,7.264008,1.8339585,0.565609,9.728448,1.09900341405456847765,1.8968062,8.046912,1.9901801,0.5599106,9.732812,1.06267491405456847787,2.3092074,8.932767,2.2278047,0.5437392,9.7383375,1.01957981405456847787,2.6994624,9.885659,2.7371712,0.5161282,9.744574,0.973292651405456847794,2.6473885,10.7912655,3.5793316,0.48118603,9.750512,0.93077631405456847829,1.6418238,11.536461,4.098873,0.44502664,9.755271,0.89834761405456847830,0.78529817,12.269685,3.5751417,0.39782122,9.75929,0.876601041405456847830,-0.3465607,13.490728,3.032855,0.34600717,9.7633295,0.853264031405456847864,-0.9876082,15.235502,2.7952304,0.29130322,9.767021,0.83117791405456847864,0.2681506,15.028404,1.3605051,0.24176235,9.768709,0.827201961405456847865,1.9524715,14.337677,-0.51355624,0.22791064,9.767907,0.84049811405456847865,3.9576154,12.357672,-1.7669208,0.24536067,9.766911,0.84712361405456847882,4.9266686,9.723452,-0.035913024,0.31607378,9.76373,0.86027651405456847883,4.581305,8.66282,4.336498,0.42307782,9.754787,0.91406481405456847904,2.9239187,12.971785,8.21271,0.5577295,9.737289,1.02203941405456847915,1.3156139,19.257761,5.5467668,0.7063412,9.709688,1.18043611405456847916,-1.0402806,18.48204,2.3451207,0.83114135,9.687414,1.27812611405456847945,-3.570952,14.220361,-0.5279215,0.90315765,9.676839,1.30900811405456847945,-3.3985693,12.28405,0.034117375,0.944964,9.675181,1.29163031405456847946,-2.8179753,10.800244,3.1896753,0.9643314,9.672749,1.2955251405456847968,-3.6182373,9.871294,4.0144777,0.9492351,9.660388,1.39508131405456847969,-3.6481647,9.88506,2.2505496,0.8836187,9.645236,1.53592361405456847984,-3.2124202,9.750985,0.44711718,0.78573525,9.642755,1.60321441405456847985,-3.2860417,9.348759,0.6548142,0.67855144,9.654672,1.58027891405456847998,-2.9095535,9.114726,1.0169371,0.5737642,9.6683445,1.53762641405456848013,-1.881244,9.6528225,0.7009025,0.47304365,9.680227,1.49659531405456848016,-1.0666169,10.301651,0.35793316,0.38602734,9.688674,1.4666281405456848031,-0.22325931,10.064027,0.053869538,0.3153437,9.697638,1.42365161405456848035,0.5243302,9.396643,-0.30526072,0.26417089,9.709362,1.35237151405456848051,0.5255273,9.213487,-0.4429273,0.22602585,9.722599,1.26110421405456848064,0.16220717,9.457695,-0.094570965,0.18511692,9.735065,1.16816351405456848064,0.05207389,9.631873,0.33279404,0.13647358,9.744912,1.09016251405456848079,-0.17956513,9.5971575,0.56802434,0.076614164,9.7504,1.04605341405456848084,-0.47046062,9.1350765,0.38965634,0.008742986,9.751996,1.03386961405456848095,-0.7727286,8.503007,0.107739076,-0.0646642,9.752453,1.02756321405456848121,-1.0283096,8.290522,-0.22026655,-0.14382659,9.754145,1.00317931405456848122,-1.3084313,8.121132,-0.4950012,-0.22917321,9.757365,0.95482881405456848123,-1.5915456,7.9990277,-0.7918822,-0.31907764,9.760318,0.89710261405456848135,-1.6633717,8.169615,-0.7906851,-0.4128379,9.762545,0.832277951405456848147,-1.8243817,8.174403,-0.88286185,-0.50582683,9.763181,0.7712481405456848170,-1.8596961,8.021772,-0.88944596,-0.59456486,9.762177,0.718901751405456848171,-1.8596961,7.677606,-0.61052144,-0.67632633,9.759534,0.68153381405456848175,-1.8082209,7.167641,-0.010773907,-0.74960494,9.755112,0.668039561405456848183,-1.6843209,6.5750766,0.3537433,-0.8177336,9.749385,0.671720271405456848205,-1.726818,6.523601,0.29269117,-0.8808538,9.742139,0.696573561405456848205,-1.7962499,6.6109896,0.01616086,-0.9457991,9.73398,0.72490481405456848215,-1.5879543,6.7025676,-0.26874915,-1.0186253,9.725502,0.739873771405456848237,-1.2210429,6.6654577,-0.44831428,-1.1016517,9.716701,0.736526851405456848237,-0.82719666,6.8402343,-0.45310268,-1.1903745,9.707617,0.71802961405456848244,-0.2837129,7.3364325,-0.33518824,-1.2784616,9.698362,0.69115861405456848273,0.6326678,7.997831,-0.1376666,-1.3607397,9.688985,0.665093541405456848274,1.5508442,8.414422,0.003591303,-1.4293644,9.680484,0.64463471405456848276,1.9949685,8.476671,0.108337626,-1.479419,9.67343,0.6375381405456848284,2.2254105,8.453327,0.22146365,-1.517204,9.66698,0.64653621405456848312,2.415151,8.374918,0.42437226,-1.5495021,9.660048,0.67301151405456848313,2.5498247,8.592192,0.51714754,-1.5797043,9.652061,0.715990251405456848315,2.610877,8.817844,0.4961983,-1.6074495,9.643816,0.763742151405456848346,2.5187001,8.993818,0.7577648,-1.633123,9.635179,0.81647251405456848347,2.2547395,9.331401,1.0360907,-1.657648,9.62628,0.870253151405456848348,2.0709844,9.8276,1.7208325,-1.6828598,9.6168995,0.92392861405456848375,1.7944542,9.827001,2.1649568,-1.7076128,9.606474,0.984932241405456848375,1.3215994,9.821015,2.304419,-1.732498,9.594239,1.05801741405456848377,0.5279215,9.774328,2.3301568,-1.7576215,9.580188,1.14068161405456848404,0.08080431,9.454104,1.9393034,-1.7873993,9.564247,1.22506381405456848405,0.48722005,8.954314,1.5496471,-1.8143767,9.547651,1.31178581405456848405,1.4790181,8.917204,1.6226702,-1.8339267,9.531483,1.39927291405456848415,1.8016368,9.113529,1.8405426,-1.8415546,9.517741,1.4804351405456848440,1.4221559,9.485229,1.7298107,-1.8427109,9.506766,1.54796891405456848441,0.52133745,9.781511,1.4826094,-1.8419391,9.498417,1.59929231405456848445,-0.38845924,10.248381,1.3335704,-1.8453962,9.490879,1.63955531405456848471,-0.6919243,10.735002,2.0745757,-1.8466579,9.487711,1.65637961405456848472,-0.22804771,10.879851,2.533664,-1.8388901,9.490407,1.64955641405456848476,0.15622166,10.509348,1.5921441,-1.8111204,9.500324,1.62298641405456848512,0.39564183,10.113707,1.0995371,-1.758187,9.518033,1.57677231405456848513,0.4973954,9.363723,1.3581109,-1.6831723,9.54128,1.51701021405456848514,-0.13946225,8.128315,0.51834464,-1.597892,9.566729,1.44735741405456848516,-0.94211835,7.038953,-0.58897364,-1.519731,9.591812,1.36306881405456848549,-1.6603789,6.880337,-0.99060094,-1.4391733,9.618593,1.25771581405456848550,-2.4432828,8.072051,-1.1001357,-1.353421,9.645838,1.13863411405456848553,-3.5619736,10.842741,-0.79726917,-1.2640984,9.670845,1.02332431405456848572,-4.368221,15.451579,-0.19991584,-1.1776232,9.6907215,0.93461661405456848573,-4.1814733,19.394232,-0.28311434,-1.0921671,9.704942,0.889763361405456848575,-4.5621514,19.608511,-1.5041572,-0.99866354,9.717832,0.858373341405456848584,-6.209362,18.642452,-1.8118122,-0.91387486,9.729025,0.82539991405456848601,-5.9238534,15.935208,-0.7356185,-0.8795972,9.735312,0.78765261405456848604,-5.3199162,13.441049,1.174356,-0.85808456,9.7371025,0.78925891405456848615,-4.7578773,11.455058,2.5366566,-0.82220864,9.735213,0.848520041405456848632,-3.9372647,10.56681,2.8137856,-0.77035546,9.731617,0.93412271405456848648,-2.7736826,9.491214,2.7024553,-0.70169836,9.729922,1.00329391405456848648,-2.0524294,7.6363063,2.7299886,-0.6164444,9.730163,1.05563311405456848675,-1.2449849,6.7145386,3.0137014,-0.5161144,9.733024,1.08270291405456848675,-0.094570965,7.289147,3.4356794,-0.40109542,9.736818,1.09722591405456848676,0.5189432,7.413047,3.1992521,-0.26478463,9.740525,1.10564061405456848706,0.9139865,7.569867,2.6491842,-0.11789953,9.744001,1.1004291405456848707,1.376666,7.6584525,2.0769699,0.024083178,9.747179,1.07811441405456848707,1.8746599,7.789535,1.6478093,0.16214521,9.749108,1.04833131405456848716,1.9339164,7.730279,1.1893197,0.29131284,9.749281,1.01835811405456848740,1.8531121,7.36217,0.8122329,0.4053519,9.747095,1.00009481405456848741,1.258153,5.9968767,0.60094464,0.4987775,9.742955,0.99821961405456848745,1.3138182,5.5192337,0.66618663,0.5672309,9.73769,1.01293911405456848780,1.264737,4.9464207,0.6404489,0.61994714,9.731658,1.0396611405456848781,1.1887212,4.4418426,0.57281274,0.6632073,9.725201,1.07285951405456848781,1.1887212,4.3448777,0.60812724,0.70231825,9.718493,1.10815821405456848807,1.2216414,4.43466,0.6607997,0.73415893,9.711736,1.14611241405456848807,1.1953052,4.7620673,0.7218518,0.7603847,9.705276,1.18314891405456848808,1.0223241,5.1481323,0.7727286,0.7818305,9.699483,1.21620251405456848815,0.86490536,5.459977,0.789488,0.7968208,9.695214,1.24028361405456848834,0.91219085,5.7724204,0.8511387,0.8023212,9.693566,1.24957861405456848835,1.0271125,6.261436,1.1204864,0.80203825,9.693476,1.25046541405456848844,1.163582,6.882133,1.6112977,0.7878338,9.696513,1.23586571405456848875,1.3156139,7.6333137,2.1051018,0.7591759,9.7021055,1.20962721405456848875,1.6567876,8.627506,2.4678235,0.7157871,9.709434,1.17684021405456848876,2.1739352,9.941324,2.654571,0.65817225,9.717721,1.1415311405456848913,2.4953568,11.15279,2.9538465,0.5897551,9.726252,1.10570911405456848914,2.3786395,11.582549,2.8898015,0.5166916,9.734055,1.07313011405456848915,2.1206641,11.140221,2.1871033,0.44278878,9.74115,1.04131941405456848942,0.8158242,11.644798,2.106299,0.37040597,9.747402,1.0106191405456848942,-0.5105635,13.557766,1.7932571,0.29824644,9.75228,0.987141405456848943,-0.41180268,13.560759,0.20410569,0.23038112,9.756135,0.967031841405456848945,1.4814123,13.663111,-1.1653777,0.18708588,9.759663,0.94041331405456848977,3.4093432,12.4785795,-1.3838485,0.19548838,9.762746,0.906084951405456848977,4.565144,10.257359,-0.3669114,0.2405939,9.764368,0.87728141405456848978,5.442619,8.291719,2.4947581,0.32856268,9.7615795,0.87977681405456849007,5.317522,8.519767,7.712322,0.4475313,9.752035,0.93162271405456849008,2.4797945,13.74571,11.492766,0.59666824,9.731918,1.05078911405456849008,0.5835867,19.46845,5.6826377,0.7315008,9.702036,1.22711431405456849016,-1.7136499,18.406025,-0.45370123,0.8255048,9.687888,1.27820151405456849038,-4.619014,14.642938,-2.847903,0.8803297,9.689939,1.22495271405456849039,-4.8656163,13.240534,-1.6304513,0.91052496,9.697766,1.13783731405456849045,-4.204817,11.158177,-1.2054806,0.94961077,9.700381,1.08223181405456849073,-3.9965212,10.675745,0.22266077,0.9669062,9.693996,1.12335111405456849074,-3.7738605,10.712257,-0.66379243,0.9212331,9.684662,1.23655431405456849076,-3.4195185,9.52593,-1.7711107,0.8295491,9.683206,1.3106321405456849103,-2.690484,8.489241,-0.27353755,0.7273042,9.688259,1.33381641405456849104,-2.082357,8.327632,1.4808137,0.6368688,9.691202,1.35845291405456849105,-1.3174095,7.86196,1.9656396,0.55708385,9.691127,1.39359381405456849116,-0.6386533,6.9371996,1.9925743,0.4999287,9.688698,1.43163791405456849130,-0.23163901,6.682217,1.8800468,0.46045274,9.687378,1.45363931405456849148,0.18255788,7.2460513,1.6741456,0.42909724,9.689695,1.44777771405456849149,0.4842273,8.476072,1.1552023,0.40378073,9.69552,1.41570511405456849177,0.6404489,10.324396,0.8170213,0.38181028,9.703004,1.36979781405456849178,0.3878607,11.289858,0.7236475,0.35945874,9.712973,1.30358271405456849179,0.24600422,11.338341,0.42556936,0.33148003,9.723487,1.23057761405456849207,0.073023155,11.102511,-0.08678981,0.2975424,9.733295,1.15968321405456849208,0.2908955,11.478401,-0.48602295,0.25957566,9.743321,1.08197691405456849208,0.3842694,11.21085,-0.75237787,0.22252545,9.754067,0.98945761405456849216,0.3417723,10.589554,-0.9103952,0.18424861,9.763832,0.896674161405456849228,0.18016368,9.959281,-0.9271546,0.1436112,9.77212,0.809600231405456849241,-0.3441665,9.273342,-0.89423436,0.10157588,9.778452,0.73619541405456849244,-0.5847838,8.631696,-0.7086837,0.055919748,9.782851,0.68051911405456849263,-0.49919105,8.119336,-0.17537527,0.009020926,9.785105,0.6496471405456849264,-0.48243165,7.5028296,0.6099229,-0.036098905,9.7848425,0.65264681405456849280,-0.5979519,6.928221,1.0588357,-0.080918,9.78149,0.69737261405456849296,-0.8026561,6.9820905,0.98581254,-0.13014,9.776188,0.7613241405456849316,-0.84335756,7.4465656,0.7691373,-0.18412673,9.769084,0.83754741405456849328,-0.89543146,7.543531,0.49081135,-0.24957214,9.762616,0.89411921405456849328,-1.1216835,7.339425,0.27114335,-0.331402,9.757862,0.91907651405456849328,-1.0163386,7.0940194,-0.038307227,-0.4350775,9.753549,0.92162331405456849344,-0.32142156,6.9796963,-0.20231004,-0.5568673,9.748089,0.91380181405456849345,0.6817489,7.055114,-0.26755205,-0.68235946,9.741035,0.90390531405456849361,1.5035586,7.1550717,-0.18195933,-0.79887104,9.732932,0.895679831405456849380,1.702876,7.0832458,0.08738836,-0.8977681,9.724034,0.898657441405456849380,1.7531542,6.928221,0.40581718,-0.9822046,9.713438,0.924554651405456849395,1.7884687,6.791153,0.62488663,-1.0604446,9.700106,0.9766251405456849396,1.6412252,6.8079123,0.75237787,-1.1354533,9.684306,1.04659881405456849410,1.4508862,7.0383544,0.8194155,-1.206882,9.6673975,1.12037541405456849427,1.3742718,7.4028716,0.8643068,-1.2762884,9.65001,1.19113411405456849427,1.4957775,7.6985555,1.1282675,-1.3399361,9.633669,1.251961405456849443,1.4119805,8.050503,1.4879963,-1.395916,9.61911,1.30174541405456849444,1.0217255,8.711303,1.845331,-1.4447815,9.60611,1.34374451405456849472,0.3369839,9.426571,2.0171149,-1.4872444,9.594304,1.38124691405456849472,-0.20649989,9.951499,2.1332338,-1.5250492,9.582374,1.42223421405456849476,0.032920275,10.144233,1.7615339,-1.5609076,9.568791,1.47383511405456849505,0.6727707,9.90601,0.84694886,-1.5945647,9.555104,1.52569451405456849506,1.5286977,9.811439,0.5494693,-1.6260949,9.542416,1.57115161405456849506,2.0787656,9.990405,0.89603,-1.6534482,9.5329275,1.599941405456849537,1.7555484,10.073005,1.2455834,-1.6749954,9.526721,1.61442351405456849537,0.89064306,9.995792,1.7375919,-1.6979911,9.520262,1.62844241405456849538,0.40701428,9.916783,2.0632033,-1.7241058,9.511815,1.65022581405456849545,0.15143326,9.959281,2.3265655,-1.749254,9.503071,1.67396461405456849576,0.095768064,10.096349,2.441487,-1.7616663,9.498808,1.68511241405456849577,0.31483752,10.047267,2.0644004,-1.7543144,9.503135,1.66829921405456849578,0.6745663,9.85214,1.271321,-1.7209569,9.517247,1.62195161405456849604,1.3449428,9.6049385,1.0199299,-1.6582518,9.540202,1.55084561405456849604,1.0965444,9.044097,0.9516952,-1.5677562,9.569871,1.45948041405456849606,0.3286042,7.837419,0.39205053,-1.467451,9.602095,1.34787271405456849628,-0.85532856,6.545149,-0.107140526,-1.3730352,9.632603,1.22398391405456849628,-2.1110873,6.18123,-0.55365914,-1.276293,9.661736,1.09194421405456849649,-3.482965,7.340024,-0.55485624,-1.1764088,9.688005,0.96384941405456849650,-4.6830587,10.398617,0.2861071,-1.0796213,9.709804,0.851189551405456849657,-4.8500543,15.734694,1.4251486,-0.9938424,9.725455,0.7734491405456849681,-3.4075475,19.545065,1.2276269,-0.91049135,9.735763,0.745865171405456849681,-3.1381998,19.608511,-0.3573346,-0.8008181,9.746591,0.73012131405456849685,-4.696825,19.608511,-1.1935096,-0.6832497,9.757953,0.69707921405456849697,-5.307347,18.104954,-0.30286652,-0.60947484,9.766856,0.638314841405456849716,-5.2678423,14.514848,1.5610195,-0.5738795,9.770854,0.60950091405456849717,-4.1317935,12.277467,2.8981812,-0.5519687,9.769762,0.64613111405456849728,-3.0705638,10.951677,2.9011738,-0.51893884,9.766683,0.716245651405456849758,-2.36188,9.4217825,2.4672248,-0.46626055,9.765169,0.771003661405456849759,-1.7651252,7.9966335,2.5839422,-0.40253657,9.765121,0.806710361405456849760,-1.0181342,7.9930425,2.9682117,-0.32910717,9.766692,0.82086691405456849788,-0.41180268,7.6704235,2.8868086,-0.23918636,9.768706,0.827991071405456849789,0.64823014,7.4986396,2.4833858,-0.12650457,9.771208,0.8233331405456849790,1.590947,7.5243773,1.9668367,0.003851415,9.773829,0.801635561405456849815,2.2122424,7.6482773,1.4616601,0.13939561,9.775792,0.764769731405456849816,2.6378117,8.1756,1.0456676,0.2737319,9.776179,0.72236091405456849820,2.6366146,8.294712,0.6787562,0.39486998,9.774896,0.682556151405456849826,2.3391352,7.61835,0.20410569,0.49294075,9.771947,0.66064891405456849848,1.7274165,6.830059,-0.011372458,0.5622633,9.767879,0.66543611405456849851,1.5227122,6.2674217,0.050278235,0.6053952,9.76299,0.69850661405456849857,1.3682863,5.6521115,0.1412579,0.6330638,9.757155,0.753347041405456849887,1.1264719,5.068525,0.20649989,0.6528905,9.750464,0.82012981405456849887,0.91219085,4.683657,0.41958386,0.66936964,9.743316,0.88890521405456849888,0.7691373,4.5058875,0.7541735,0.6812743,9.736056,0.95679691405456849920,0.7134721,4.4436383,1.0247183,0.69096655,9.72929,1.0167941405456849921,0.79008657,4.459201,1.1025299,0.6985779,9.72371,1.06388011405456849921,0.89303726,4.5112743,1.021127,0.7019483,9.72009,1.09430861405456849926,1.06123,4.613028,1.0301052,0.69843554,9.718921,1.10686991405456849952,1.3018472,4.799177,1.2312182,0.69102734,9.719042,1.11044671405456849953,1.602918,5.0822916,1.4838065,0.6721046,9.721892,1.09702961405456849957,2.0967221,5.7766104,1.7250223,0.6392814,9.727279,1.06854161405456849990,2.5647886,6.869563,2.0500352,0.59291273,9.734484,1.02891521405456849991,2.8993783,8.202535,2.2212207,0.53483343,9.742376,0.98511991405456849992,2.9765913,9.648034,2.8125885,0.4674635,9.74984,0.944732961405456850019,2.4115596,10.59135,3.4099417,0.39617315,9.755699,0.916404661405456850020,1.5023615,10.833763,2.8820202,0.18228082,9.770315,0.82347971405456850020,-0.053869538,11.295245,1.9847932,0.18228082,9.770315,0.82347971405456850026,-1.7322049,14.69561,2.2888567,0.18228082,9.770315,0.82347971405456850048,-1.869273,16.139912,1.2509704,0.119923726,9.773939,0.79128831405456850049,-0.48362875,16.369158,-0.5057751,0.07818302,9.774973,0.783700941405456850057,1.4508862,14.894329,-1.4951789,0.085237026,9.774709,0.78627521405456850079,3.7499185,9.611523,2.2655134,0.13222177,9.773538,0.794278741405456850080,4.365228,9.713875,6.5984197,0.22432664,9.764467,0.880484941405456850096,3.3093853,13.6972275,8.379107,0.34953943,9.745296,1.03799461405456850113,1.9877859,18.249802,4.1521444,0.49897185,9.718048,1.21693461405456850113,-1.163582,15.450981,1.8435353,0.6499027,9.700032,1.28739491405456850126,-3.1501708,11.538856,0.8391677,0.7548513,9.692072,1.29008421405456850126,-2.4199393,10.676943,-0.30825347,0.8305124,9.686687,1.28401981405456850141,-2.1829133,9.221268,0.87089086,0.90202165,9.680648,1.28132641405456850146,-2.5605986,8.614936,2.4277205,0.9470845,9.669849,1.32944421405456850159,-2.6162639,9.991004,1.0702082,0.93948334,9.658295,1.41601661405456850174,-2.753332,10.225037,-0.6655881,0.878338,9.657561,1.4596091405456850191,-2.1140802,9.543886,-0.92895025,0.7940505,9.670457,1.42203071405456850191,-1.4670471,9.240421,-0.02873042,0.71963066,9.687105,1.3463061405456850213,-1.0390835,9.285912,0.27353755,0.65770024,9.700886,1.27696061405456850214,-0.40940848,9.617508,0.2172738,0.60746527,9.710449,1.22822671405456850217,0.44891283,9.739014,-0.15382746,0.5677037,9.717695,1.1893391405456850226,0.8367735,9.688137,-0.91697925,0.5347367,9.725855,1.1367511405456850250,0.9498995,9.925761,-1.3186066,0.50287706,9.7361965,1.06017481405456850251,1.074398,10.542868,-0.7230489,0.46687344,9.74705,0.97337661405456850257,1.0217255,10.727221,0.004788403,0.42395842,9.756384,0.896442061405456850285,0.6356605,10.363302,0.24241292,0.37570876,9.762146,0.85423931405456850286,0.2160767,10.086772,0.2172738,0.31749535,9.764434,0.851719141405456850286,-0.11671733,9.677961,0.29987377,0.25085548,9.765428,0.862494771405456850313,-0.37349546,9.097966,0.39863458,0.17927112,9.767752,0.85398561405456850314,-0.6356605,8.277354,0.30406362,0.103663206,9.771392,0.824349461405456850318,-0.90979666,7.5680714,0.035314474,0.024050739,9.774714,0.79042061405456850326,-1.3036429,7.2514386,-0.43155485,-0.057421092,9.777224,0.756953241405456850346,-1.6346412,6.8049197,-0.6823475,-0.13908173,9.778941,0.72342771405456850347,-1.532289,6.83365,-0.52732295,-0.21712036,9.780108,0.68756611405456850360,-0.97623575,7.3831196,-0.21667525,-0.2851172,9.780768,0.65241941405456850380,-0.42556936,8.260594,0.3489549,-0.33612114,9.78077,0.627662241405456850380,-0.3657143,8.461109,0.60333884,-0.37006286,9.779498,0.628395561405456850386,-0.6907272,7.9355817,0.16519992,-0.40008652,9.777168,0.64600721405456850417,-0.7882909,7.8428063,-0.46926352,-0.43695644,9.772979,0.68436351405456850418,-0.74998367,7.711125,-0.7086837,-0.49393943,9.767989,0.71611211405456850419,-0.8738836,7.7464395,-0.52133745,-0.56984955,9.763305,0.7235441405456850427,-0.8738836,7.9505453,-0.31184477,-0.66073155,9.758622,0.7093221405456850457,-0.41838676,8.139688,-0.19572599,-0.7627698,9.752699,0.688070241405456850458,0.32680854,8.285135,-0.02633622,-0.8673279,9.74464,0.678311651405456850459,0.9032126,8.388684,0.25977087,-0.9660116,9.735183,0.680762231405456850486,1.1366472,8.50181,0.6853402,-1.0560695,9.723522,0.71290371405456850487,0.8888474,8.301894,1.1611878,-1.1385975,9.70903,0.78021051405456850488,0.47764325,7.957728,1.4407109,-1.2211194,9.690362,0.880985261405456850512,0.17357962,7.8469963,1.4437037,-1.306832,9.66758,1.00023831405456850512,0.14664486,7.7494326,1.459266,-1.3939918,9.642692,1.11610831405456850517,0.54767364,7.8332295,1.3449428,-1.4771497,9.617196,1.2239161405456850525,0.86490536,8.192958,1.6849195,-1.5535636,9.593347,1.31321761405456850542,1.0235212,8.470686,2.1571758,-1.6183085,9.572047,1.38830231405456850569,0.91937345,8.583213,2.28347,-1.6717653,9.552939,1.45497991405456850569,0.7068881,8.744224,2.2589293,-1.7160519,9.535588,1.5159521405456850570,0.7667431,8.78672,1.9764135,-1.7526311,9.519863,1.57190181405456850577,1.1216835,8.640674,1.5269021,-1.7830116,9.506039,1.62064721405456850598,2.0338743,8.6299,1.3251907,-1.8100685,9.493619,1.66290811405456850598,2.421735,8.780735,1.4867992,-1.8281387,9.484569,1.6944811405456850608,1.7076644,9.006389,1.7112557,-1.840281,9.478913,1.71288681405456850623,0.56922144,9.1272955,2.0260932,-1.85452,9.474395,1.72248711405456850625,-0.34835634,9.399636,1.9901801,-1.8732901,9.469372,1.72979721405456850641,-1.0893618,9.8198185,2.030283,-1.8914593,9.466343,1.72660031405456850669,-1.4012065,10.274118,2.3600843,-1.9082384,9.465377,1.71337851405456850669,-1.6496049,10.363302,1.5514427,-1.9122155,9.472245,1.67044691405456850670,-1.1791444,10.174759,0.3812766,-1.8983953,9.488935,1.58952081405456850708,-0.91697925,10.473435,-0.065242,-1.8555727,9.51517,1.4794571405456850708,-0.55246204,10.662578,-0.8098387,-1.7895346,9.547158,1.34898151405456850709,-1.0779893,9.874885,-1.2449849,-1.7133199,9.581452,1.19612131405456850709,-2.0141222,8.867524,-1.3880384,-1.6375989,9.613974,1.02964631405456850726,-2.5354595,8.62152,-1.714847,-1.5658059,9.64254,0.860268651405456850727,-2.8754363,9.685144,-1.6986861,-1.4833722,9.669484,0.68635031405456850743,-3.2615013,12.149377,-0.89543146,-1.389099,9.693791,0.52076241405456850760,-3.413533,15.833454,0.2705448,-1.2859534,9.7139635,0.394496471405456850760,-3.5122938,19.038094,0.56443304,-1.1753935,9.730083,0.338084251405456850775,-4.138976,19.608511,0.06344634,-1.0609459,9.743046,0.34330551405456850793,-4.768651,19.15122,0.5494693,-0.9602739,9.752876,0.36007251405456850794,-4.8189297,15.931018,1.9536686,-0.8814716,9.75886,0.397548821405456850809,-4.425083,12.268488,3.6110547,-0.8171096,9.761588,0.46273851405456850810,-3.8786068,10.184934,4.2598834,-0.76400083,9.760369,0.567362671405456850824,-3.4422636,9.4972,3.681085,-0.7169073,9.756104,0.689104861405456850826,-3.0400376,8.48146,3.044826,-0.6604861,9.752598,0.788025861405456850840,-2.2942438,7.41185,2.7569232,-0.5888605,9.752214,0.847326161405456850860,-1.0773908,6.973711,2.7036524,-0.50643736,9.753306,0.887096461405456850860,-0.32800564,6.8563952,2.5001452,-0.4022145,9.756862,0.901258231405456850872,0.58657944,7.339425,2.2212207,-0.27809125,9.761805,0.894564871405456850889,1.5951369,8.301894,1.9027919,-0.14119506,9.767004,0.86953621405456850889,1.8028339,8.690952,1.2366052,7.02E-04,9.771321,0.83164781405456850904,1.6238673,8.915408,0.4997896,0.1310203,9.773813,0.791069151405456850907,1.2868834,8.772954,0.12330139,0.24981326,9.774621,0.751530351405456850922,0.91937345,8.129512,0.022146367,0.34449676,9.773353,0.73027481405456850926,0.74758947,7.065289,0.020949265,0.41848058,9.770079,0.73542731405456850941,0.83138657,6.1644707,0.109534726,0.47765055,9.765094,0.764972571405456850958,0.90859956,5.3995233,0.350152,0.52837944,9.758685,0.81196171405456850959,1.0977415,4.9781437,0.79966336,0.5745175,9.751064,0.870098231405456850974,1.1767502,4.8997335,1.2078748,0.61863136,9.742384,0.934675041405456850991,1.0791864,5.092467,1.5646108,0.66164285,9.732953,1.00113061405456850992,0.90620536,5.1223946,1.7441759,0.70099694,9.723514,1.064081405456851006,0.74639237,5.017648,1.6424223,0.7321233,9.715431,1.11570791405456851006,0.6991069,5.116409,1.3449428,0.75043344,9.709969,1.15054191405456851021,0.75956047,5.3115363,1.1749545,0.75504595,9.707814,1.16560691405456851027,0.87567925,5.450999,1.1252748,0.74710226,9.708697,1.16336871405456851038,1.1019313,5.6886234,1.1145009,0.73379624,9.710852,1.15382461405456851063,1.5310919,6.1716533,1.3479356,0.70893097,9.71512,1.13325181405456851063,2.0027497,6.9246297,1.9512744,0.6747487,9.72068,1.10612361405456851066,2.2451627,7.787141,2.585738,0.63328654,9.726579,1.07841541405456851101,2.2439656,8.683769,3.3153708,0.5864602,9.732172,1.05418111405456851101,1.858499,9.153631,3.9001546,0.5371645,9.736909,1.03654551405456851102,1.1731589,9.385271,3.1202433,0.4880942,9.7410145,1.02215871405456851106,0.6871359,10.576386,2.144606,0.4374109,9.7462435,0.9948821405456851134,-0.18794483,12.777256,2.4887726,0.3910548,9.753338,0.94334121405456851135,0.7625532,15.377359,2.0853498,0.34596857,9.759146,0.899856271405456851138,2.2583308,16.43799,0.7374141,0.329469,9.760295,0.89359371405456851168,3.139397,15.1696615,-0.41120413,0.36961278,9.757782,0.90525431405456851169,3.9624038,11.950658,-0.78769237,0.45800623,9.752772,0.918736931405456851170,5.405509,9.619903,0.6290765,0.56162035,9.745032,0.943058851405456851196,6.133945,8.989629,4.0557775,0.6888693,9.731163,1.00015151405456851196,4.84347,12.049418,8.875306,0.8408032,9.709189,1.09319851405456851198,1.8962077,17.630302,8.24563,1.0003978,9.676813,1.23647431405456851207,0.20290859,17.687164,2.0632033,1.0988301,9.649282,1.36172331405456851225,-1.4383167,14.6124115,0.24660277,1.143867,9.640422,1.3871711405456851241,-2.4959552,12.955624,0.47046062,1.1584923,9.635775,1.40718451405456851242,-3.2854433,12.355278,1.0959458,1.1575453,9.629415,1.45080851405456851257,-4.383185,11.914744,0.641646,1.1250457,9.619563,1.53905671405456851271,-4.64535,11.736976,-0.1328782,1.0356907,9.616319,1.61992761405456851271,-4.6525326,10.512939,-1.4227544,0.9080621,9.625408,1.64235341405456851290,-4.370615,9.181165,-1.2808979,0.77614105,9.640782,1.61966511405456851290,-3.7223852,8.24204,-0.25737667,0.6627263,9.652448,1.60045841405456851303,-2.9879637,8.296508,0.20829555,0.5703031,9.659257,1.59497031405456851306,-2.1206641,8.863934,0.65242,0.49412647,9.663669,1.59365571405456851323,-1.2389994,9.010578,0.9636662,0.436395,9.669412,1.57558051405456851338,-0.11911154,8.672996,0.83018947,0.39366087,9.677581,1.53618091405456851339,0.48602295,8.336012,0.3286042,0.36073214,9.687018,1.48390411405456851360,0.65182143,8.526351,0.427365,0.32831278,9.695892,1.43258131405456851361,0.76554596,8.605359,0.6015432,0.29079175,9.70196,1.3992211405456851367,0.70509243,8.541314,0.59855044,0.24963322,9.706265,1.37713541405456851388,0.47165772,9.012374,0.7158663,0.20196868,9.70935,1.36313081405456851389,-0.053869538,9.314043,0.59376204,0.1451739,9.714641,1.33232761405456851405,-0.7284359,9.2494,0.207697,0.07632892,9.723543,1.27172471405456851407,-1.2072762,8.716091,-0.5434838,-0.00335574,9.733938,1.19198451405456851426,-1.3904326,8.454525,-0.64703304,-0.08657909,9.743018,1.11198391405456851427,-1.6873137,8.20433,-0.8158242,-0.16836978,9.750059,1.03845311405456851440,-1.632247,8.274361,-0.712275,-0.25035685,9.754662,0.9768791405456851466,-1.4544775,8.182783,-0.3298013,-0.329068,9.757489,0.92388161405456851467,-1.168969,7.876325,0.076614454,-0.3995742,9.758542,0.88407011405456851467,-0.79966336,7.8158712,0.51475334,-0.45939273,9.757503,0.86631931405456851494,-0.65780693,7.799112,0.5482722,-0.51248544,9.754179,0.873922771405456851495,-0.5129577,8.094197,0.23163901,-0.5659765,9.749679,0.89097711405456851499,-0.55365914,7.9673047,-0.18614918,-0.6210367,9.744356,0.91225311405456851528,-0.44232875,7.820061,-0.46447513,-0.68642247,9.738994,0.922616661405456851529,-0.28491,7.9266033,-0.45789108,-0.76403207,9.7338915,0.915446341405456851530,0.14724341,8.209119,-0.23163901,-0.8506103,9.728706,0.893932161405456851539,0.60693014,8.276755,0.017357962,-0.9378107,9.722916,0.86937021405456851570,1.1264719,8.2276745,0.21188685,-1.0177768,9.7162285,0.854052541405456851571,1.5981296,8.14268,0.47405192,-1.0898267,9.708998,0.84737561405456851572,2.0201077,8.108562,0.7966706,-1.1512395,9.700917,0.85863611405456851596,2.1583729,8.070854,1.079785,-1.2013185,9.69175,0.892882651405456851597,2.166154,7.917625,1.3120226,-1.2444988,9.680922,0.949395661405456851599,2.1086931,7.74225,1.2401965,-1.285503,9.668272,1.02097181405456851607,1.977012,7.699154,1.1150994,-1.3270532,9.654418,1.09614251405456851622,2.0925324,7.9786773,1.1522095,-1.367847,9.640275,1.16810071405456851639,2.107496,8.191162,1.1444284,-1.4050047,9.626513,1.23556771405456851640,1.9566613,8.613739,1.2497733,-1.4369287,9.613424,1.29911421405456851662,1.6609775,9.001001,1.7196354,-1.4650095,9.600371,1.36271631405456851663,1.0845734,9.355343,1.8716671,-1.4906881,9.586546,1.43050921405456851667,0.3298013,9.679757,2.0685902,-1.5160704,9.571452,1.5030771405456851698,-0.29688102,9.805453,1.9303252,-1.5439675,9.554683,1.57942821405456851698,-0.16819267,9.9473095,1.1755531,-1.5772446,9.53674,1.65326791405456851699,0.7350199,9.985018,0.3764882,-1.6129023,9.520089,1.71372381405456851707,1.7944542,10.1143055,0.28790274,-1.6470275,9.507628,1.75005011405456851722,2.3535004,10.501567,0.6727707,-1.6736253,9.500804,1.7618511405456851738,1.8207904,10.646417,1.340753,-1.6921251,9.498124,1.75862061405456851739,0.92416185,10.502166,1.8986019,-1.712148,9.494681,1.75784211405456851759,0.21068975,10.29387,2.3319526,-1.7366239,9.4890375,1.76428781405456851759,-0.14664486,10.188525,2.7377696,-1.7642689,9.481588,1.77686151405456851767,-0.31184477,10.157401,2.6886885,-1.7834722,9.47667,1.78390621405456851790,-0.13227965,10.020931,2.1637597,-1.7861949,9.478376,1.77208631405456851791,0.27952304,10.056845,1.775899,-1.7632246,9.489286,1.73634221405456851803,0.58298814,9.934141,1.246182,-1.7103648,9.509641,1.67684281405456851825,0.13946225,9.213487,0.37469256,-1.6366973,9.537591,1.58933931405456851826,-1.234211,8.030751,-0.18016368,-1.564992,9.56685,1.48209041405456851844,-2.5306711,7.2191167,-0.6596026,-1.4917423,9.59737,1.35483381405456851845,-3.5224693,7.389105,-1.0474633,-1.4138179,9.6282215,1.211971405456851847,-4.549582,9.210494,-0.9427169,-1.326898,9.658073,1.06364451405456851872,-5.486912,13.330915,-0.44472298,-1.2371262,9.684177,0.92553311405456851872,-5.547964,18.634071,-0.88645315,-1.153162,9.704403,0.815573451405456851888,-5.4102974,19.608511,-2.6767175,-1.0703338,9.7221575,0.71023331405456851890,-6.7767878,19.608511,-3.2507274,-0.9810624,9.738062,0.61485241405456851927,-6.692991,17.780539,-1.7345991,-0.9213392,9.7487755,0.53188921405456851927,-6.078878,13.8959465,0.7541735,-0.8776795,9.754522,0.499364641405456851928,-4.7830167,10.899603,2.5635915,-0.83681965,9.755265,0.552207471405456851928,-3.539827,9.293693,