time,acc_x,acc_y,acc_z,gravity_x,gravity_y,gravity_z
1409350851273,0.40521863,9.7324295,2.1625626,0.48554072,9.559602,2.1327624
1409350851286,0.3812766,9.728839,2.1404164,0.48618075,9.55916,2.1345954
1409350851306,0.3357868,9.704298,2.1589713,0.48576772,9.558807,2.136259
1409350851308,0.3184288,9.671378,2.2188265,0.48371825,9.558577,2.137763
1409350851310,0.2885013,9.603143,2.243367,0.48002627,9.557956,2.1413643
1409350851322,0.29149407,9.534309,2.2625206,0.4751165,9.556986,2.1467779
1409350851338,0.2861071,9.506777,2.2762873,0.46960628,9.555615,2.1540802
1409350851342,0.2765303,9.433155,2.2810757,0.46384722,9.55404,2.1623013
1409350851350,0.23104046,9.396643,2.295441,0.457342,9.552496,2.1704936
1409350851371,0.18016368,9.370307,2.3145945,0.44998255,9.551216,2.1776526
1409350851372,0.10175357,9.394848,2.3110032,0.4427646,9.5501375,2.1838548
1409350851382,0.0796072,9.403826,2.2900538,0.4357008,9.549202,2.1893568
1409350851412,0.11492168,9.390657,2.2373815,0.42903146,9.548743,2.1926775
1409350851414,0.130484,9.397242,2.171541,0.42441398,9.548861,2.1930609
1409350851415,0.20171149,9.450513,2.111686,0.4215437,9.549412,2.191219
1409350851449,0.19752164,9.513959,1.988983,0.4210274,9.550351,2.1872215
1409350851450,0.18974048,9.660604,1.9075803,0.4218757,9.551929,2.1801543
1409350851451,0.3513491,9.561244,1.899799,0.42320883,9.553997,2.170816
1409350851452,0.5105635,9.601946,1.8130093,0.42561793,9.556261,2.1603537
1409350851472,0.5823896,9.674371,1.9111716,0.42906544,9.558703,2.1488388
1409350851474,0.65780693,9.737817,1.9662381,0.43388185,9.560983,2.1376963
1409350851484,0.66020113,10.00896,2.0560207,0.43938446,9.563446,2.1255205
1409350851513,0.5650316,10.013748,2.043451,0.44492894,9.566004,2.1128201
1409350851515,0.504578,9.671378,1.9590555,0.448755,9.56886,2.0990305
1409350851516,0.46567222,9.573814,2.0386627,0.45036763,9.571986,2.0843785
1409350851542,0.59735334,9.614515,2.03567,0.4484612,9.574643,2.0725496
1409350851547,0.7266402,9.619903,1.9321208,0.4473062,9.576546,2.063992
1409350851548,0.74998367,9.568427,1.9512744,0.44921744,9.578374,2.0550842
1409350851550,0.688333,9.647436,2.0189106,0.4525042,9.580176,2.0459447
1409350851565,0.6159084,9.494805,1.9393034,0.4557963,9.581626,2.038403
1409350851570,0.57520694,9.412206,2.0027497,0.45973223,9.582579,2.0330343
1409350851584,0.5291186,9.580399,2.0446482,0.4645734,9.58298,2.030037
1409350851601,0.5129577,9.707291,1.9614497,0.47030187,9.583127,2.0280216
1409350851604,0.4770447,9.682152,1.9297266,0.4763831,9.583437,2.0251384
1409350851617,0.41180268,9.655815,1.9219455,0.48291722,9.583826,2.0217395
1409350851631,0.3764882,9.648633,1.9351135,0.48913786,9.58415,2.0187113
1409350851632,0.35194764,9.616311,1.9297266,0.49458495,9.584347,2.0164504
1409350851649,0.338181,9.556456,1.9488802,0.4993366,9.584569,2.0142198
1409350851650,0.35553896,9.515755,1.9440918,0.5034255,9.584816,2.0120301
1409350851666,0.3633201,9.450513,1.9602526,0.5068821,9.585269,2.0090053
1409350851680,0.40462008,9.427768,2.0165164,0.5097212,9.585816,2.0056663
1409350851701,0.45729253,9.46847,2.0428526,0.51252353,9.586352,2.0023901
1409350851702,0.4997896,9.512163,1.9865888,0.5159227,9.586972,1.9985459
1409350851704,0.5895722,9.516952,1.9680338,0.5201904,9.5877285,1.9938012
1409350851716,0.7062895,9.516952,1.9572599,0.52536684,9.588716,1.9876869
1409350851734,0.80086046,9.516354,1.9488802,0.53144795,9.58984,1.980635
1409350851736,0.88645315,9.553463,1.9722236,0.53877544,9.5910015,1.9730201
1409350851755,0.96785605,9.624691,2.0201077,0.5472915,9.592199,1.964835
1409350851756,1.0324994,9.746795,2.0171149,0.55636287,9.5933895,1.9564561
1409350851762,1.0648212,9.829395,2.0368671,0.56549007,9.594664,1.947573
1409350851784,1.0905589,9.883265,2.0482395,0.57415265,9.595923,1.9388087
1409350851785,1.1941081,9.938332,2.0494366,0.58173835,9.597203,1.9301913
1409350851813,1.3174095,9.965266,2.078167,0.5888808,9.598613,1.9209995
1409350851814,1.3700819,9.997588,2.0452468,0.59559107,9.5999975,1.9119891
1409350851816,1.377863,10.000581,1.9895816,0.60146517,9.601437,1.9029104
1409350851853,1.3401544,10.007763,1.8842367,0.60560405,9.603042,1.8934668
1409350851855,1.198298,9.892841,1.827973,0.6080235,9.604781,1.8838457
1409350851857,1.1611878,9.801862,1.8435353,0.6082711,9.606424,1.8753701
1409350851859,1.1216835,9.752781,1.8471266,0.6073466,9.607681,1.8692157
1409350851863,1.0929531,9.705495,1.834557,0.605702,9.608399,1.8660561
1409350851897,1.067814,9.646837,1.8579005,0.6032982,9.608548,1.8660687
1409350851898,1.0205284,9.630676,1.8429368,0.60078126,9.608211,1.8686206
1409350851900,0.98222125,9.583391,1.8513165,0.59834504,9.607613,1.8724712
1409350851925,1.003769,9.589376,1.8734628,0.596692,9.6066,1.878188
1409350851927,0.9816227,9.648034,1.9512744,0.59701145,9.605255,1.8849481
1409350851929,0.9355343,9.715671,1.9069817,0.5977985,9.603697,1.8926258
1409350851932,0.94810385,9.723452,1.882441,0.59889823,9.6020155,1.9007933
1409350851956,0.9235633,9.72824,1.9261353,0.6008587,9.600077,1.9099481
1409350851957,0.8948329,9.720459,1.941099,0.60328364,9.597852,1.9203336
1409350851965,0.8870517,9.718064,1.9794062,0.60602033,9.5955105,1.931138
1409350851984,0.83497787,9.718663,1.988983,0.60923254,9.592958,1.942777
1409350851985,0.78769237,9.704298,2.0141222,0.6120075,9.5903225,1.9548804
1409350852001,0.7326257,9.712079,2.0045455,0.6142372,9.587618,1.9674113
1409350852003,0.682946,9.694122,1.970428,0.61644834,9.584782,1.9804899
1409350852017,0.5494693,9.642049,1.8608932,0.61849606,9.581885,1.9938236
1409350852036,0.4950012,9.572617,1.7753005,0.61929446,9.57915,2.0066748
1409350852037,0.44592008,9.444528,1.6879122,0.6199134,9.576353,2.0197902
1409350852043,0.4189853,9.351752,1.7076644,0.6211969,9.573451,2.0331118
1409350852051,0.38367084,9.346365,1.7609353,0.62255776,9.570349,2.0472512
1409350852066,0.36272156,9.424775,1.8118122,0.62328935,9.567184,2.0617695
1409350852083,0.32441434,9.503185,1.8471266,0.62393796,9.564284,2.0749857
1409350852086,0.31244332,9.534908,1.9315223,0.6242249,9.561965,2.0855625
1409350852099,0.25857377,9.5570545,1.9967642,0.6244195,9.559827,2.0952828
1409350852104,0.23163901,9.590573,2.0392613,0.6248274,9.557729,2.1047113
1409350852123,0.23642741,9.606734,2.0721815,0.6260301,9.55564,2.1138196
1409350852124,0.2184709,9.619304,2.023699,0.6281109,9.55348,2.1229432
1409350852131,0.24241292,9.575011,1.9608512,0.6303894,9.551437,2.131445
1409350852152,0.23762453,9.522937,1.9524715,0.63341707,9.549598,2.1387696
1409350852155,0.2681506,9.510367,1.9626468,0.63670456,9.547853,2.1455722
1409350852172,0.30047232,9.474455,1.9847932,0.63980764,9.546289,2.1516075
1409350852174,0.33159694,9.452309,2.0566192,0.64260674,9.545136,2.1558814
1409350852183,0.3369839,9.496002,2.1374235,0.64495635,9.544378,2.1585274
1409350852204,0.3196259,9.583391,2.1362264,0.6468113,9.543788,2.1605902
1409350852205,0.2621651,9.731233,2.1769278,0.6484007,9.543534,2.161226
1409350852213,0.24899697,9.761759,2.1906946,0.64982957,9.543531,2.1608152
1409350852247,0.2088941,9.791088,2.1948843,0.6511401,9.543653,2.1598892
1409350852250,0.17178397,9.782708,2.148796,0.6513815,9.544001,2.158274
1409350852252,0.11971009,9.753978,2.0871453,0.65098596,9.544525,2.1560736
1409350852254,0.108936176,9.70789,2.0632033,0.6494392,9.545157,2.1537335
1409350852277,0.08439561,9.670779,2.0213048,0.6471408,9.545762,2.1517487
1409350852279,0.0664391,9.630676,1.9949685,0.6440939,9.546488,2.1494417
1409350852284,0.05686229,9.57561,1.977012,0.6405721,9.5473175,2.1468146
1409350852304,0.06464344,9.527127,1.9746178,0.63683707,9.548066,2.1445882
1409350852306,0.12988544,9.496601,1.9578584,0.63320845,9.548832,2.1422546
1409350852311,0.10474633,9.474455,1.9764135,0.6300335,9.549715,2.1392543
1409350852334,0.12689269,9.545682,2.0266917,0.6266628,9.550732,2.1357036
1409350852337,0.14664486,9.507375,2.0338743,0.6229399,9.551851,2.1317792
1409350852358,0.1945289,9.527127,2.0231004,0.6195211,9.553033,2.1274781
1409350852359,0.25079262,9.507375,2.0380642,0.61717576,9.554528,2.121436
1409350852363,0.3357868,9.478046,2.0416555,0.61600536,9.556208,2.1141975
1409350852388,0.3465607,9.448717,2.0111294,0.6159352,9.558014,2.1060338
1409350852389,0.39504328,9.421184,2.0009542,0.6162384,9.5601,2.096455
1409350852393,0.35673606,9.6049385,1.9722236,0.61695594,9.562506,2.0852478
1409350852426,0.3549404,9.589376,1.9243397,0.61701816,9.565461,2.071627
1409350852428,0.3693056,9.695918,1.9422961,0.6168118,9.568819,2.0561228
1409350852429,0.42916065,9.753379,1.9309237,0.6162377,9.572447,2.0393372
1409350852432,0.4961983,9.721656,1.9674352,0.6154399,9.576219,2.021802
1409350852465,0.6039374,9.64564,2.0548236,0.6150545,9.579836,2.0047088
1409350852466,0.76195467,9.545084,2.1212628,0.61597043,9.583151,1.9885107
1409350852470,0.8367735,9.56723,2.1703439,0.6179827,9.586014,1.9740319
1409350852492,0.88645315,9.664195,2.1386206,0.6208494,9.588612,1.9604794
1409350852494,0.87927055,9.822212,2.148796,0.62362087,9.591393,1.9459382
1409350852496,0.8798691,9.835381,2.1763294,0.6252309,9.594728,1.9289037
1409350852524,0.8822633,9.807847,2.2122424,0.62637895,9.59809,1.9117314
1409350852526,0.89543146,9.794679,2.2230163,0.6277752,9.600733,1.897953
1409350852528,0.9720459,9.762358,2.2373815,0.6289894,9.60294,1.8863486
1409350852532,1.0229226,9.705495,2.2547395,0.6298685,9.605115,1.8749514
1409350852555,1.0845734,9.540894,2.2427685,0.6305913,9.6070795,1.8646134
1409350852556,1.0869676,9.449316,2.2080526,0.6317019,9.608516,1.8568155
1409350852565,1.0875661,9.437943,2.1769278,0.6326171,9.609817,1.8497584
1409350852585,1.0384849,9.600749,2.058415,0.6336694,9.611304,1.8416523
1409350852586,1.0079589,9.638457,1.9602526,0.6341066,9.613347,1.8308069
1409350852603,0.9379285,9.626487,1.9668367,0.6343521,9.615704,1.8183031
1409350852604,0.52073884,9.981427,2.0907366,0.6333677,9.6179695,1.8066286
1409350852611,0.76554596,9.894038,1.8124107,0.6257938,9.619762,1.7997098
1409350852633,0.8888474,9.479841,1.8261774,0.61751825,9.621063,1.7956026
1409350852635,0.84216046,9.661801,1.9776106,0.61188865,9.6216955,1.7941488
1409350852649,1.0869676,9.487623,1.9219455,0.60739595,9.621553,1.7964306
1409350852669,1.3634979,9.1590185,1.8447324,0.60271025,9.620837,1.8018351
1409350852670,1.436521,9.226056,1.9829975,0.60005134,9.620082,1.8067507
1409350852672,0.96067345,9.64564,2.1894975,0.5979542,9.619789,1.8090005
1409350852700,0.35434186,10.168773,2.1374235,0.5886697,9.620477,1.8083968
1409350852703,0.40162733,10.144831,1.6723499,0.570622,9.622765,1.8019959
1409350852728,0.7374141,9.837775,1.4772224,0.5550362,9.626495,1.7868732
1409350852730,0.98222125,9.661202,1.5532384,0.5490397,9.629974,1.769897
1409350852732,0.83737206,9.767744,1.7375919,0.5497151,9.631591,1.7608758
1409350852733,0.44711718,9.907805,1.8303672,0.5490831,9.6314125,1.7620428
1409350852757,-0.26036942,10.271724,1.8752584,0.54321337,9.630945,1.7664138
1409350852760,-0.41958386,10.492589,1.5951369,0.5307276,9.631449,1.7674642
1409350852763,-0.14065935,10.227431,1.4012065,0.5200975,9.632827,1.7631041
1409350852787,0.22505496,9.922171,1.5448587,0.51449084,9.634021,1.7582183
1409350852789,0.28191724,9.7863,1.7633295,0.5156477,9.6334305,1.7611125
1409350852791,0.31184477,9.647436,1.8986019,0.51643085,9.630688,1.7758219
1409350852815,0.53091425,9.490616,1.9021933,0.5158138,9.62671,1.7974286
1409350852816,0.6123171,9.528923,2.0135236,0.5157646,9.622749,1.8185339
1409350852833,0.7116765,9.504382,2.0362685,0.51654685,9.619502,1.8354164
1409350852835,0.7068881,9.409213,2.0446482,0.51751024,9.617116,1.8476118
1409350852849,0.57400984,9.461287,2.0649989,0.5164318,9.615332,1.8571784
1409350852852,0.4890157,9.473258,1.9967642,0.51171803,9.6139965,1.8653666
1409350852869,0.4854244,9.510367,1.9249382,0.50426084,9.613212,1.8714381
1409350852871,0.6027403,9.476849,1.7992426,0.49635598,9.612953,1.8748683
1409350852883,1.0959458,8.974665,1.8046296,0.4893171,9.613013,1.8764209
1409350852905,0.1364695,10.052056,2.2266076,0.48768753,9.612763,1.878121
1409350852907,0.27593175,9.740809,1.7812861,0.47722355,9.612495,1.8821813
1409350852912,0.37588966,9.791088,1.7884687,0.46809945,9.613082,1.8814664
1409350852945,0.50278234,9.688736,1.8632874,0.46347684,9.613788,1.8790128
1409350852946,0.9235633,9.40203,1.8339585,0.46112823,9.613477,1.8811733
1409350852947,1.2419921,9.172785,1.9381063,0.4615178,9.612152,1.8878303
1409350852966,0.641646,9.39365,1.9764135,0.46389404,9.610473,1.8957838
1409350852969,0.3854665,9.807249,1.863886,0.4585966,9.609622,1.9013771
1409350852982,0.5327099,9.859921,1.6849195,0.44657898,9.610126,1.9017025
1409350852997,0.6811504,9.797073,1.7232267,0.4333421,9.611407,1.898271
1409350852998,0.7026982,9.706094,1.857302,0.42282248,9.613393,1.890574
1409350853017,0.7194576,9.53012,1.9249382,0.41541526,9.614971,1.8841845
1409350853019,0.7272388,9.428965,1.9722236,0.41060033,9.615377,1.8831644
1409350853023,0.75477207,9.436148,1.9710265,0.40784386,9.614798,1.8867253
1409350853032,0.9115923,9.415198,1.8950106,0.40699545,9.614111,1.8904016
1409350853053,0.90021986,9.475652,1.9285295,0.40922537,9.614004,1.8904597
1409350853055,0.6991069,9.677363,1.958457,0.4129162,9.6141205,1.8890688
1409350853064,0.43993455,9.887454,1.8740613,0.41493216,9.61426,1.8879154
1409350853089,0.27473465,10.036493,1.7411832,0.41416958,9.614926,1.8846855
1409350853092,0.2088941,10.138845,1.6693572,0.41235164,9.61611,1.8790385
1409350853095,-0.10594343,10.228628,1.6514006,0.41017196,9.617358,1.8731143
1409350853117,0.10534488,9.880871,1.5376761,0.40626764,9.618118,1.8700615
1409350853118,0.077213004,9.783905,1.697489,0.4048507,9.618106,1.8704313
1409350853124,0.15622166,9.742006,1.7603368,0.4030114,9.617399,1.874463
1409350853132,0.29149407,9.555259,1.8974048,0.40228274,9.615893,1.8823211
1409350853154,0.3788824,9.511565,1.9668367,0.40382308,9.613541,1.8939759
1409350853156,0.25318682,9.552865,1.9476831,0.40551397,9.611139,1.905767
1409350853189,0.13108255,9.544485,1.9093759,0.4042948,9.609391,1.9148198
1409350853193,0.110133275,9.486425,1.8914193,0.40044945,9.608423,1.9204727
1409350853196,0.25198972,9.46847,1.8261774,0.39608762,9.607754,1.9247314
1409350853197,0.37349546,9.498397,1.8142064,0.39450216,9.607084,1.9283924
1409350853219,0.45190558,9.492412,1.9069817,0.39489546,9.6064625,1.9314033
1409350853220,0.37110126,9.573814,2.0458453,0.39764515,9.6058035,1.9341158
1409350853226,0.22744916,9.656414,2.0841527,0.40031758,9.604835,1.9383711
1409350853232,0.1340753,9.770737,2.0135236,0.40169075,9.603883,1.9427966
1409350853257,0.16639702,9.789292,1.9213469,0.4016898,9.603722,1.9435986
1409350853258,0.25139117,9.83957,1.8836381,0.40138745,9.604219,1.9411968
1409350853264,0.3842694,9.770737,1.8381484,0.40119955,9.604518,1.9397557
1409350853291,0.5374983,9.562442,1.8154035,0.4014392,9.604029,1.9421293
1409350853295,0.6063316,9.451111,1.9656396,0.40227082,9.602969,1.947192
1409350853296,1.1091139,8.965088,1.9686323,0.40281785,9.601699,1.9533353
1409350853315,1.2611457,8.941745,2.1817162,0.40727967,9.600287,1.9593338
1409350853316,0.1376666,10.469844,2.4510639,0.41105443,9.598798,1.9658325
1409350853337,-0.40222588,10.447099,1.6938977,0.39392838,9.597288,1.9766799
1409350853338,-0.08738836,9.994595,1.3036429,0.35669148,9.596442,1.9878242
1409350853348,0.37948096,9.886856,1.5699978,0.33532187,9.596682,1.9903909
1409350853367,0.7290344,9.428367,2.0177135,0.3507214,9.598099,1.9808788
1409350853368,0.7278373,9.155427,2.3995886,0.38288113,9.597685,1.9769279
1409350853372,0.66738373,9.300875,2.496554,0.4092834,9.594347,1.9878083
1409350853400,0.7374141,9.462483,2.3702598,0.42328578,9.590065,2.005461
1409350853402,0.7649474,9.5809965,2.2876596,0.4281479,9.586565,2.0211043
1409350853406,0.79726917,9.459491,2.1739352,0.42925015,9.584349,2.0313516
1409350853412,0.6362591,9.55885,2.1697452,0.42956004,9.582705,2.0390258
1409350853434,0.4914099,9.615712,2.267309,0.42761797,9.581647,2.044405
1409350853435,0.18974048,9.660006,2.3529017,0.4213168,9.580569,2.0507514
1409350853446,-0.075417355,9.697116,2.3181858,0.4097587,9.579047,2.0601819
1409350853472,0.11133038,9.479841,2.1799207,0.39497736,9.577073,2.0722067
1409350853473,-0.033518825,9.450513,2.191293,0.38023493,9.575037,2.0843437
1409350853475,0.23044191,9.380483,2.195483,0.3611074,9.573304,2.0956736
1409350853503,0.3309984,9.141661,2.2493525,0.34047583,9.571739,2.1062486
1409350853504,0.28191724,8.890868,2.4145525,0.32315528,9.570113,2.1163418
1409350853505,0.207697,9.235035,2.5013423,0.30952954,9.568677,2.1248507
1409350853512,-0.037708677,9.487623,2.2110453,0.29769042,9.567727,2.1308165
1409350853531,-0.026934769,10.068815,2.0817583,0.2853804,9.569275,2.1255412
1409350853548,-0.019153614,10.469844,1.929128,0.2748243,9.573115,2.1095808
1409350853549,0.049679685,10.245986,1.87047,0.2680505,9.577849,2.0888627
1409350853562,0.11432313,9.814431,1.8968062,0.26353762,9.581937,2.0706072
1409350853586,0.1412579,9.474455,1.9506758,0.23816673,9.585138,2.0588353
1409350853587,0.17058687,9.491214,2.2343888,0.23816673,9.585138,2.0588353
1409350853588,0.4189853,9.290101,1.8986019,0.23816673,9.585138,2.0588353
1409350853592,0.5710171,9.633669,1.8626889,0.23173393,9.585955,2.0557635
1409350853610,0.26874915,10.393828,2.3343468,0.22838257,9.589122,2.041314
1409350853612,0.23882163,9.928755,2.166154,0.22244537,9.592108,2.0279021
1409350853629,-0.032920275,9.583391,1.9877859,0.21697475,9.593923,2.0198884
1409350853633,0.107140526,9.621698,1.4939818,0.21267457,9.593813,2.0208678
1409350853650,0.6715736,9.965266,1.376666,0.21088257,9.594137,2.0195227
1409350853652,1.2156559,9.998785,1.6687586,0.21284926,9.5941305,2.0193427
1409350853664,1.2012907,9.788693,2.2541409,0.22151458,9.591668,2.0300794
1409350853680,0.85413146,9.612122,2.475006,0.2312623,9.584854,2.0609455
1409350853701,0.7248446,9.355942,2.356493,0.23777036,9.575972,2.1011024
1409350853702,0.6997054,9.31943,2.3050177,0.24374036,9.569061,2.1316803
1409350853709,1.6986861,8.167819,2.2373815,0.2508068,9.565512,2.1467323
1409350853713,-1.2743138,11.255741,3.8426938,0.2645288,9.5642395,2.1507542
1409350853740,0.623091,9.450513,1.0702082,0.24193771,9.563785,2.1554344
1409350853742,1.654992,8.123527,1.365892,0.23632307,9.56908,2.1324313
1409350853746,-0.023942016,10.06283,2.2529438,0.24847953,9.575898,2.1001947
1409350853786,0.1376666,10.25676,2.2511482,0.25618082,9.580576,2.0778213
1409350853789,0.58298814,9.809045,1.8776526,0.2472171,9.582039,2.0721514
1409350853794,0.7074866,9.292496,1.881244,0.24264951,9.58335,2.066624
1409350853797,1.027711,9.072827,2.212841,0.24954621,9.584184,2.0619316
1409350853799,0.8391677,9.609727,2.2343888,0.25879225,9.582848,2.0669975
1409350853818,0.62728083,9.235633,2.160767,0.259199,9.582509,2.0685072
1409350853819,0.33279404,9.074024,2.168548,0.25308454,9.583231,2.0659237
1409350853826,1.1875241,8.942942,1.9620483,0.24279323,9.584474,2.0613792
1409350853854,-0.36990416,9.115324,2.2140381,0.23717831,9.586223,2.0538895
1409350853862,-0.16460137,10.384252,2.088941,0.21777986,9.58912,2.042485
1409350853866,-0.623091,9.712079,1.8543092,0.19889586,9.594245,2.0202198
1409350853868,-0.8511387,9.449316,1.5502456,0.18191549,9.600461,1.9920945
1409350853900,-0.2873042,10.308235,1.536479,0.17616767,9.606264,1.9644537
1409350853902,0.08080431,10.978013,1.6651673,0.18216355,9.610834,1.9414132
1409350853904,0.7152678,9.81503,1.7220296,0.19259126,9.614933,1.9199877
1409350853925,0.5410896,9.505579,1.95307,0.2126737,9.6180935,1.901953
1409350853926,0.17477672,9.048885,2.0799627,0.2366982,9.620833,1.8851869
1409350853927,-0.06703765,9.088389,2.022502,0.26029497,9.624086,1.8653742
1409350853950,-0.5979519,7.4202294,1.4520833,0.28060445,9.628558,1.8391643
1409350853953,-1.3227965,9.342773,2.2577322,0.29684535,9.633705,1.8094165
1409350853954,0.49679685,10.89661,1.2593501,0.29984158,9.638475,1.783331
1409350853966,0.0688333,10.575788,1.5334862,0.30562687,9.644788,1.7478713
1409350853995,0.4225766,10.666767,1.0720038,0.30032545,9.6499815,1.7199026
1409350853996,0.78769237,9.937134,1.0205284,0.30595857,9.654329,1.6943237
1409350853999,0.54408234,10.195109,1.5280992,0.313024,9.6578245,1.6729685
1409350854015,0.55365914,9.796474,1.7830818,0.31828198,9.660384,1.657127
1409350854017,0.350152,9.606734,1.9015948,0.3227862,9.662177,1.6457682
1409350854024,0.38965634,9.664794,1.8626889,0.32669944,9.66354,1.63696
1409350854051,0.21906945,9.8916445,1.8339585,0.33196965,9.664096,1.63261
1409350854052,0.36391866,10.011354,1.8195933,0.33359432,9.663586,1.6353011
1409350854053,0.50996494,9.704298,1.9087774,0.3343655,9.662191,1.6433631
1409350854085,0.7062895,9.522339,1.8082209,0.33522224,9.657686,1.6694694
1409350854086,0.9744401,9.837775,1.4598645,0.33769384,9.652025,1.7014064
1409350854087,1.0133458,9.854534,1.5586253,0.34344694,9.649282,1.715743
1409350854095,0.94211835,9.528324,1.6059108,0.34904963,9.649292,1.714555
1409350854123,0.6063316,9.193136,1.7932571,0.3547672,9.651215,1.7025203
1409350854125,0.18914193,9.593566,1.7980455,0.35911927,9.653076,1.6910197
1409350854128,-0.11432313,9.801862,1.6364368,0.35765234,9.653988,1.68612
1409350854155,-0.18674773,9.982624,1.4359225,0.34935275,9.654144,1.6869599
1409350854156,-0.38606504,10.00896,1.4502877,0.33869606,9.654151,1.6890966
1409350854157,-0.34596214,9.790489,1.4407109,0.3255872,9.654047,1.6922654
1409350854178,-0.065242,9.68694,1.3281834,0.31291685,9.653653,1.6969007
1409350854179,0.13946225,9.551069,1.3581109,0.3046674,9.653205,1.7009443
1409350854195,0.59376204,9.393052,1.3192052,0.3047903,9.652923,1.7025195
1409350854195,0.7661445,9.297284,1.5801731,0.31826913,9.6532955,1.6979306
1409350854213,0.50757074,9.31524,1.9572599,0.34069294,9.654208,1.6883667
1409350854214,0.3345897,9.475053,1.8986019,0.36336315,9.655982,1.6734262
1409350854229,0.38067806,9.707291,1.6436194,0.38396123,9.659425,1.6487849
1409350854249,0.39324763,9.992201,1.6178818,0.403103,9.664108,1.6164473
1409350854250,0.26156655,10.320207,1.6490064,0.4192744,9.668901,1.5833441
1409350854253,0.60932434,10.692505,1.4047978,0.43284914,9.674038,1.5479113
1409350854276,0.94451255,11.223419,1.5173253,0.44978952,9.679677,1.5072882
1409350854277,1.1444284,11.416751,1.4628572,0.47159848,9.685715,1.461136
1409350854298,0.7170634,11.125855,1.661576,0.4952506,9.69195,1.4111085
1409350854300,0.19632454,10.177153,1.7890673,0.51585907,9.698244,1.3595405
1409350854307,0.7314286,10.1460285,1.1755531,0.5387523,9.704563,1.3044515
1409350854314,1.1617863,10.509348,0.7679402,0.5734144,9.711152,1.2390034
1409350854339,1.0127473,10.127473,0.60932434,0.62174994,9.717839,1.1607782
1409350854342,1.1043255,9.880272,0.57760113,0.68237454,9.724374,1.0683259
1409350854346,1.3150153,9.853935,0.6266823,0.74692756,9.730178,0.96752954
1409350854362,1.0606314,10.162787,0.3441665,0.80513275,9.734734,0.8701348
1409350854378,1.049259,10.327988,-0.17178397,0.848351,9.73833,0.7846362
1409350854379,0.7667431,10.41777,-0.0023942017,0.88390374,9.741335,0.7039219
1409350854394,0.533907,10.870275,0.10055647,0.90171957,9.743711,0.6460645
1409350854399,0.56802434,11.525088,-0.012569559,0.9013024,9.746072,0.6100317
1409350854415,0.85652566,12.227188,-0.26036942,0.8893237,9.748709,0.58495873
1409350854416,1.033098,12.776059,-0.3345897,0.87170553,9.751689,0.5613058
1409350854427,0.61411273,11.889007,-0.20410569,0.84929484,9.754759,0.54203415
1409350854452,0.374094,11.054627,-0.08259996,0.82266885,9.757531,0.5330938
1409350854454,0.427365,10.650007,-0.0664391,0.8052311,9.759125,0.5305255
1409350854456,0.2645593,9.370906,0.3537433,0.8030033,9.759042,0.5354545
1409350854488,0.3298013,8.3312235,0.5835867,0.8052702,9.757501,0.55956006
1409350854490,0.439336,8.261791,0.8738836,0.80909127,9.755246,0.5924133
1409350854494,-0.16819267,7.5932107,1.0815806,0.8130659,9.752216,0.63528025
1409350854495,-0.39564183,7.2687964,1.2336124,0.8118688,9.749156,0.6820664
1409350854515,-0.19033903,7.5531077,0.9355343,0.8077194,9.746077,0.7293791
1409350854516,-0.1592144,8.18398,1.0133458,0.80554664,9.74281,0.7740534
1409350854525,-0.26156655,8.459313,1.5640123,0.80482507,9.739044,0.8207742
1409350854548,-0.24361002,7.9008656,1.7717092,0.79602486,9.734544,0.8805577
1409350854549,-0.13706805,7.441179,1.8668787,0.7763562,9.729455,0.9515113
1409350854554,-0.272939,7.854179,1.8447324,0.7464884,9.724862,1.0199002
1409350854587,-0.01616086,7.827842,2.1374235,0.7033294,9.722014,1.0761712
1409350854589,0.073023155,8.355764,2.3211784,0.65539134,9.720521,1.1190692
1409350854593,0.089782566,8.613141,2.508525,0.60885435,9.719523,1.1534958
1409350854594,-0.12569559,8.54311,2.2571337,0.5645432,9.720453,1.1681018
1409350854618,-0.19273324,8.789713,1.7896658,0.5173837,9.724103,1.1595384
1409350854619,-0.34237084,8.831612,1.2773066,0.46908584,9.730384,1.1269461
1409350854625,-0.28550854,8.707113,0.8451532,0.42351535,9.738307,1.0753666
1409350854653,-0.073023155,8.81964,0.4830302,0.3827703,9.746592,1.013834
1409350854654,0.80804306,9.713276,0.54168814,0.3470926,9.754138,0.95220846
1409350854655,0.78888947,10.241198,0.41000703,0.32576472,9.759859,0.8996682
1409350854679,0.84455466,10.309433,0.521936,0.31447548,9.7640085,0.8576981
1409350854680,0.6985083,10.180744,0.6997054,0.30891472,9.766601,0.8297281
1409350854685,0.52612585,10.031705,0.8122329,0.3000296,9.767817,0.81863207
1409350854695,0.33039984,9.910798,0.8984242,0.28755963,9.768393,0.8162004
1409350854714,0.3477578,9.6528225,0.98700964,0.26823068,9.767976,0.8276942
1409350854716,0.36391866,9.4217825,1.0271125,0.24272798,9.76675,0.84974474
1409350854728,-0.39863458,9.32781,0.7715315,0.20986031,9.764741,0.8810215
1409350854753,-0.11731588,9.305663,1.0564415,0.16039164,9.762089,0.91993445
1409350854754,0.34835634,9.551667,1.0444705,0.101479284,9.757976,0.9705667
1409350854755,0.43754035,9.919776,1.0947487,0.041512597,9.752623,1.0271462
1409350854779,0.3812766,9.9951935,2.047641,-0.008046528,9.746422,1.085166
1409350854780,-0.11312603,8.675988,3.6876693,-0.040347207,9.738895,1.1500686
1409350854789,0.64942724,8.877101,2.4384944,-0.05596315,9.729996,1.2224665
1409350854796,0.80564886,10.245986,0.43275195,-0.044025604,9.722819,1.2787611
1409350854820,1.632247,11.015722,0.82599956,-0.020935968,9.7196865,1.3029286
1409350854823,1.484405,11.283274,1.3790601,0.020013446,9.717603,1.3184122
1409350854826,0.7374141,10.684724,1.0737995,0.053596567,9.715069,1.3360217
1409350854853,0.43634325,10.460866,1.1366472,0.071400374,9.712183,1.3560189
1409350854854,0.0724246,10.345944,1.5269021,0.08114896,9.708551,1.3812438
1409350854856,0.04249708,10.21127,1.774702,0.0821932,9.703642,1.4152613
1409350854877,-0.01316811,10.164583,1.9027919,0.0816583,9.697268,1.4583263
1409350854878,0.21188685,9.60853,1.7657237,0.08312705,9.689564,1.5085896
1409350854898,0.4914099,9.396643,1.7256209,0.0913542,9.681991,1.5559906
1409350854900,0.2873042,9.293094,2.0153193,0.1046813,9.675105,1.5974271
1409350854908,0.18734628,9.364322,2.3463178,0.11477599,9.667928,1.6396321
1409350854937,0.20470424,9.51755,2.2505496,0.11719686,9.660779,1.6810786
1409350854939,-0.029927522,9.619304,2.219425,0.11309907,9.655136,1.7134585
1409350854940,-0.36511576,9.500193,2.0057425,0.103155695,9.651582,1.733991
1409350854952,-1.073201,9.7402115,1.8830396,0.08623327,9.649972,1.743843
1409350854975,-1.5125369,9.837775,1.7459716,0.059648413,9.649302,1.7486572
1409350854985,1.5628152,10.329783,0.9283517,0.030150224,9.649313,1.7493614
1409350854987,0.21188685,10.09156,1.5598224,0.03559636,9.650469,1.7428676
1409350855007,-0.57281274,10.456078,1.8561049,0.02801197,9.6504,1.7433848
1409350855009,-0.18195933,10.263344,1.6531962,0.0059388154,9.650838,1.7411734
1409350855010,-0.05327099,9.983223,1.352724,-0.003476517,9.652029,1.7345629
1409350855037,0.25019407,9.66659,2.095525,-0.0073500704,9.653752,1.7249284
1409350855038,0.19752164,9.261371,2.0530279,-0.00422339,9.652784,1.7303531
1409350855040,0.31304187,9.091981,1.666963,0.0020320173,9.649038,1.7511263
1409350855057,0.5674258,9.651027,1.4766239,0.0082566645,9.645865,1.7685001
1409350855058,0.30047232,9.934141,1.9991584,0.008796689,9.644177,1.7776804
1409350855075,0.35913026,9.737218,2.268506,-7.609744E-4,9.6425495,1.786513
1409350855076,0.39983168,9.284714,1.7836803,-0.011878727,9.641131,1.7941115
1409350855092,0.24480712,9.276933,1.6747441,-0.018021248,9.641725,1.7908704
1409350855094,-0.18794483,9.597756,2.1942859,-0.019371055,9.645708,1.7692682
1409350855106,-0.22685061,9.669582,2.166154,-0.024102103,9.64974,1.747089
1409350855123,-0.44532153,9.68275,1.6370354,-0.029771747,9.652765,1.7302139
1409350855126,-0.49919105,9.845556,1.6071079,-0.03441475,9.6554365,1.7151519
1409350855140,-0.46806642,9.835381,1.7776948,-0.03467771,9.65859,1.6972977
1409350855156,-0.7218518,9.814431,1.7567455,-0.03436762,9.66024,1.6878873
1409350855157,-0.88166475,9.750386,1.7687165,-0.03638064,9.66055,1.686076
1409350855172,-0.60812724,9.603143,1.6537948,-0.038927257,9.660782,1.6846849
1409350855174,-0.3645172,9.845556,1.4065934,-0.035149347,9.661672,1.6796616
1409350855190,-0.35434186,9.4062195,1.5251064,-0.024833558,9.663114,1.6715257
1409350855195,0.017357962,9.520543,1.7112557,-0.013980303,9.66386,1.6673299
1409350855208,0.094570965,9.75697,1.858499,-0.0014359511,9.663866,1.6673554
1409350855225,0.109534726,9.672575,1.7393875,0.011511209,9.663857,1.6673553
1409350855226,0.27712885,9.645041,1.8201919,0.023202011,9.664336,1.6644751
1409350855238,0.4441244,9.64145,1.8142064,0.03039492,9.665478,1.6577128
1409350855255,0.5351041,9.653421,1.7435774,0.036193963,9.667066,1.648315
1409350855256,0.45729253,9.606734,1.6885108,0.040734526,9.66902,1.6367021
1409350855270,0.3657143,9.564836,1.7603368,0.042011634,9.671343,1.6228831
1409350855274,0.25677812,9.570223,1.9033904,0.04006839,9.673478,1.6101608
1409350855289,0.17238252,9.639654,1.9542671,0.03615845,9.674732,1.6026981
1409350855313,0.06404489,9.782109,1.8177977,0.031316858,9.675364,1.5989816
1409350855315,0.05267244,9.923966,1.6603789,0.025702963,9.676149,1.594325
1409350855317,0.09696517,9.986814,1.5472529,0.021113735,9.677439,1.5865493
1409350855348,0.15203181,9.9550905,1.477821,0.018438451,9.678922,1.5775107
1409350855349,0.18375498,9.824008,1.423353,0.016552929,9.680315,1.5689491
1409350855350,0.21787235,9.737817,1.5280992,0.015584742,9.681468,1.5618324
1409350855354,0.18854338,9.653421,1.6112977,0.014681291,9.682123,1.5577784
1409350855378,0.12689269,9.636064,1.6885108,0.012950521,9.682366,1.5562836
1409350855379,0.05327099,9.758766,1.678934,0.010393457,9.682195,1.5573636
1409350855388,-0.06344634,9.813234,1.5448587,0.0076489076,9.681906,1.5591829
1409350855396,-0.23642741,9.846753,1.4676456,0.004703575,9.6819515,1.5589088
1409350855423,-0.25677812,9.76954,1.3718776,8.5179455E-4,9.682268,1.5569425
1409350855426,-0.23882163,9.737218,1.3814543,-0.002298267,9.682587,1.5549515
1409350855431,-0.16460137,9.724648,1.4024036,-0.0046398616,9.682632,1.5546685
1409350855451,-0.078410104,9.725846,1.3946224,-0.0058459495,9.682532,1.5552852
1409350855453,-0.06284779,9.747394,1.4502877,-0.0050719697,9.682261,1.5569742
1409350855454,-0.050278235,9.6767645,1.4903905,-0.0034883537,9.6818075,1.5597987
1409350855478,-0.12449849,9.731832,1.5029601,-0.0017187867,9.681169,1.563756
1409350855479,-0.12389994,9.773131,1.484405,-5.939473E-4,9.680497,1.56792
1409350855486,-0.10295067,9.797672,1.4694413,3.3624622E-4,9.679993,1.5710306
1409350855516,-0.061052144,9.801862,1.477821,7.090251E-4,9.679609,1.5733937
1409350855521,-0.0023942017,9.771336,1.4281414,0.0013187545,9.679344,1.5750232
1409350855524,0.016759412,9.75697,1.4550761,0.002205328,9.679289,1.5753553
1409350855529,0.02633622,9.72824,1.5197195,0.0023866028,9.679377,1.5748246
1409350855558,0.04070143,9.702502,1.5658079,0.002011632,9.679445,1.5744023
1409350855559,0.05805939,9.668385,1.6400281,0.0015760171,9.679482,1.5741652
1409350855563,0.11492168,9.671976,1.6843209,4.6695993E-4,9.679514,1.5739696
1409350855583,0.0053869537,9.632472,1.7555484,-2.4900632E-4,9.679505,1.5740236
1409350855584,0.11312603,9.689933,1.6729485,-0.0015023674,9.679353,1.5749633
1409350855586,0.2136825,9.718663,1.5693992,-0.0017719051,9.679354,1.5749582
1409350855610,0.22266077,9.673772,1.5215151,5.9328973E-5,9.679628,1.5732737
1409350855611,-0.13706805,9.552266,1.7830818,0.0023392567,9.680008,1.5709422
1409350855615,-0.08259996,9.613917,1.8118122,3.9024145E-4,9.68011,1.5703168
1409350855639,-0.05207389,9.693524,1.7866731,-0.0019015959,9.680186,1.5698417
1409350855640,-0.053869538,9.6845455,1.8369513,-0.0034738136,9.680535,1.5676718
1409350855666,0.06943185,9.610924,1.7896658,-0.0041365884,9.680979,1.5649351
1409350855668,0.18614918,9.603742,1.7292122,-0.0035594462,9.681607,1.5610448
1409350855669,0.19093758,9.546281,1.7088615,-0.0017379298,9.68255,1.5551909
1409350855675,0.18076223,9.540894,1.7010803,-2.1897652E-4,9.683847,1.547088
1409350855701,0.11552023,9.606734,1.6903064,5.891981E-4,9.685233,1.5383896
1409350855703,0.16699557,9.668983,1.6879122,-2.2109541E-4,9.686553,1.5300542
1409350855707,0.26515785,9.715671,1.6238673,-0.0011688246,9.68785,1.5218344
1409350855737,0.27234045,9.776124,1.6621746,-0.0015538784,9.689193,1.5132544
1409350855740,0.23223756,9.79827,1.7980455,-0.0017879794,9.690514,1.5047745
1409350855743,0.28909984,9.806051,1.7860745,-0.0028030747,9.691505,1.498374
1409350855778,0.27952304,9.74859,1.7992426,-0.0036790539,9.692493,1.4919657
1409350855781,0.25438392,9.721656,1.8555063,-0.004593027,9.693467,1.4856135
1409350855783,0.30885202,9.730036,1.910573,-0.00606478,9.694161,1.4810706
1409350855787,0.26396075,9.762956,1.8555063,-0.0074818805,9.6945,1.4788578
1409350855790,0.2789245,9.742006,1.7956513,-0.009615093,9.694784,1.4769794
1409350855806,0.29328972,9.750386,1.7741034,-0.012431685,9.695044,1.4752508
1409350855808,0.35434186,9.81084,1.6938977,-0.015155557,9.695403,1.4728539
1409350855822,0.47105917,9.7958765,1.7232267,-0.017759968,9.695893,1.4695959
1409350855826,0.51834464,9.77792,1.7411832,-0.019828007,9.696154,1.4678619
1409350855837,0.5315128,9.747394,1.673547,-0.022092225,9.6961,1.4681803
1409350855854,0.55126494,9.725846,1.6023195,-0.025498454,9.695889,1.4695004
1409350855855,0.49200845,9.759365,1.6184803,-0.029779565,9.695634,1.4711162
1409350855871,0.39683893,9.766547,1.5855601,-0.035090603,9.695326,1.4730191
1409350855875,0.362123,9.680356,1.4856021,-0.04185155,9.695059,1.4746177
1409350855887,0.27353755,9.68694,1.3257892,-0.049850438,9.694793,1.4761045
1409350855904,0.12330139,9.643845,1.270124,-0.0600133,9.694743,1.4760646
1409350855906,0.019752163,9.583989,1.216853,-0.073086426,9.694866,1.4746665
1409350855922,-0.025737667,9.570822,1.2808979,-0.08822759,9.695137,1.4720498
1409350855937,-0.037110128,9.569026,1.3060371,-0.10392361,9.695442,1.469005
1409350855938,-0.012569559,9.580399,1.2479776,-0.119653895,9.695937,1.464534
1409350855952,-0.0017956513,9.578004,1.2156559,-0.13543525,9.696823,1.4572784
1409350855955,-0.11552023,9.638457,1.1456255,-0.15112981,9.698049,1.4475511
1409350855970,-0.18914193,9.698911,1.1360487,-0.16746794,9.699407,1.4366144
1409350855975,-0.2657564,9.797672,1.021127,-0.18422143,9.70091,1.4243557
1409350855989,-0.32022446,9.920375,0.84934306,-0.20063962,9.702784,1.4092987
1409350856002,-0.3842694,10.008362,0.8062474,-0.21668307,9.704874,1.392432
1409350856006,-0.41299978,10.058042,0.842759,-0.23160526,9.706777,1.3766696
1409350856020,-0.39803603,10.053253,0.90141696,-0.24488962,9.708329,1.3633671
1409350856036,-0.35913026,10.055049,0.931943,-0.25643092,9.709561,1.35242
1409350856037,-0.31244332,10.067019,0.89303726,-0.26679355,9.710596,1.3429582
1409350856061,-0.29747957,10.093954,0.95827925,-0.2767194,9.711661,1.3332083
1409350856063,-0.27114335,10.063428,1.0139444,-0.28672165,9.712666,1.3237437
1409350856067,-0.19632454,10.031107,1.086369,-0.29638043,9.713565,1.3150038
1409350856078,-0.14185645,10.041282,1.1258733,-0.3050969,9.714378,1.3069645
1409350856106,-0.1400608,10.051457,1.13964,-0.31328708,9.715061,1.29993
1409350856110,-0.18734628,10.097546,1.1845313,-0.321581,9.715444,1.2950394
1409350856112,-0.23463176,10.126875,1.2892777,-0.33028877,9.715318,1.2937977
1409350856135,-0.28191724,10.0987425,1.38325,-0.3390921,9.714459,1.2979524
1409350856137,-0.3226187,10.079589,1.4131776,-0.34782186,9.712761,1.3083068
1409350856139,-0.3238158,10.014946,1.6346412,-0.35666358,9.71054,1.322347
1409350856153,-0.24301147,9.733627,1.8231846,-0.36547443,9.707621,1.3412349
1409350856155,-0.207697,9.619903,1.927931,-0.3733882,9.703968,1.3652693
1409350856171,-0.2208651,9.499594,1.8561049,-0.38041946,9.699895,1.3920231
1409350856176,-0.23582886,9.441534,1.7363948,-0.38735196,9.695729,1.418876
1409350856188,-0.24839842,9.396643,1.620276,-0.394699,9.69167,1.4443426
1409350856207,-0.26515785,9.386468,1.4891934,-0.40251672,9.687783,1.4680682
1409350856209,-0.25498247,9.412206,1.3347675,-0.41210592,9.684117,1.4894371
1409350856225,-0.31364042,9.4535055,1.1737574,-0.4232085,9.680827,1.5076061
1409350856231,-0.42556936,9.524135,1.0516531,-0.4363639,9.678034,1.5217183
1409350856235,-0.5895722,9.618706,0.9044097,-0.45243073,9.675626,1.532318
1409350856254,-0.7212533,9.671976,0.79008657,-0.47110793,9.673642,1.5391892
1409350856256,-0.78769237,9.751583,0.66379243,-0.49163237,9.672075,1.5426085
1409350856272,-0.80205756,9.83957,0.6488287,-0.5129732,9.671165,1.5413705
1409350856275,-0.81881696,9.884461,0.789488,-0.5339398,9.670779,1.5366638
1409350856289,-0.83976626,9.948506,0.9696517,-0.5541924,9.670359,1.5321251
1409350856312,-0.85173726,9.9790325,1.0887632,-0.5741985,9.669835,1.5280716
1409350856314,-0.82121116,9.931149,1.1839328,-0.5929964,9.6692095,1.5248429
1409350856316,-0.7942764,9.857527,1.3204023,-0.6096647,9.668408,1.5233488
1409350856346,-0.7110779,9.584588,1.7064673,-0.6240308,9.667315,1.5244739
1409350856348,-0.6805518,9.463681,1.9315223,-0.6360158,9.665578,1.530514
1409350856350,-0.64823014,9.38168,2.0242975,-0.645413,9.663447,1.5400032
1409350856356,-0.58538234,9.343372,1.9937714,-0.6519367,9.661186,1.5514088
1409350856385,-0.5129577,9.337387,1.9363106,-0.65605265,9.6590605,1.5628676
1409350856387,-0.44232875,9.405622,1.8483237,-0.6582067,9.6571045,1.5740001
1409350856389,-0.3633201,9.537302,1.6418238,-0.65859777,9.6554365,1.5840394
1409350856415,-0.3196259,9.642648,1.4754268,-0.65816516,9.654202,1.5917188
1409350856416,-0.35434186,9.715671,1.3736732,-0.6565538,9.653478,1.596776
1409350856418,-0.43035775,9.761759,1.2946646,-0.6549779,9.653118,1.5995905
1409350856447,-0.55365914,9.797073,1.1593921,-0.6535598,9.653043,1.6006274
1409350856448,-0.6733692,9.777321,1.1139023,-0.65266234,9.65321,1.5999908
1409350856449,-0.81761986,9.707291,1.1552023,-0.6528332,9.653275,1.5995252
1409350856455,-0.9636662,9.6528225,1.2808979,-0.65462464,9.653002,1.6004461
1409350856471,-1.1139023,9.64145,1.3748703,-0.6582155,9.652527,1.6018373
1409350856488,-1.2497733,9.619903,1.4574703,-0.66398823,9.652204,1.601391
1409350856489,-1.2886791,9.609727,1.5520413,-0.6721029,9.652104,1.598606
1409350856505,-1.2677298,9.594764,1.6304513,-0.6812462,9.651946,1.5956928
1409350856508,-1.228824,9.6049385,1.6861166,-0.6898546,9.651605,1.5940655
1409350856522,-1.0121487,9.676167,1.6699557,-0.6980498,9.650998,1.5941657
1409350856537,-0.90141696,9.7162695,1.6005238,-0.70368195,9.650396,1.5953335
1409350856538,-0.81522566,9.745598,1.5436616,-0.70748806,9.649745,1.5975863
1409350856557,-0.7146692,9.73662,1.4921862,-0.7095724,9.648876,1.6018926
1409350856558,-0.6171055,9.715072,1.5107412,-0.71014035,9.647715,1.6086297
1409350856571,-0.533907,9.658808,1.4879963,-0.70984167,9.646148,1.6181339
1409350856584,-0.5255273,9.610924,1.5879543,-0.7094422,9.644439,1.6284677
1409350856592,-0.5710171,9.576807,1.6741456,-0.70958465,9.642647,1.6389816
1409350856607,-0.64823014,9.562442,1.7304093,-0.7109977,9.640901,1.6486068
1409350856608,-0.7380127,9.544485,1.7238252,-0.71369267,9.63916,1.6575911
1409350856617,-0.82001406,9.533711,1.6585833,-0.7169947,9.637865,1.6636894
1409350856643,-0.8690952,9.54209,1.6262615,-0.7216567,9.637027,1.6665299
1409350856644,-0.86729956,9.576807,1.5646108,-0.72749966,9.636597,1.6664764
1409350856649,-0.830788,9.624691,1.5771804,-0.7338758,9.636529,1.6640732
1409350856655,-0.7625532,9.670779,1.5795746,-0.74023986,9.6366,1.6608325
1409350856669,-0.6679823,9.687539,1.5993267,-0.74618894,9.636838,1.6567829
1409350856685,-0.58538234,9.671976,1.6478093,-0.75145113,9.637107,1.6528383
1409350856687,-0.5638345,9.67018,1.7154455,-0.7559254,9.637159,1.650494
1409350856711,-0.5518635,9.657611,1.7459716,-0.7602616,9.636901,1.650014
1409350856714,-0.55605334,9.672575,1.5849615,-0.76471204,9.636516,1.6501993
1409350856716,-0.5955577,9.662998,1.5580268,-0.7693648,9.636356,1.6489736
1409350856743,-0.56323594,9.6288805,1.536479,-0.7747641,9.636196,1.6473794
1409350856745,-0.5835867,9.647436,1.5502456,-0.78022736,9.636011,1.64589
1409350856748,-0.6434417,9.662399,1.5693992,-0.7867836,9.635724,1.6444328
1409350856756,-0.7158663,9.61272,1.596334,-0.795023,9.635479,1.6419061
1409350856775,-0.76075757,9.5798,1.6525977,-0.8045803,9.635346,1.6380316
1409350856795,-0.7673417,9.507974,1.6927006,-0.81447893,9.635273,1.633558
1409350856796,-0.7942764,9.467272,1.6687586,-0.8240301,9.635167,1.62939
1409350856797,-0.79248077,9.449914,1.6196774,-0.83311313,9.635176,1.6247138
1409350856807,-0.83138657,9.424775,1.644218,-0.8415261,9.635354,1.6193143
1409350856820,-0.8451532,9.394249,1.5951369,-0.8495852,9.635546,1.6139628
1409350856834,-0.8559271,9.346365,1.5969325,-0.8573787,9.635901,1.6076941
1409350856836,-0.87328506,9.293094,1.6639702,-0.8644307,9.636538,1.600089
1409350856860,-0.8403648,9.263765,1.7046716,-0.87024605,9.637367,1.5919291
1409350856862,-0.7673417,9.260772,1.7154455,-0.8735037,9.638403,1.5838435
1409350856868,-0.6721721,9.267955,1.7471687,-0.8740399,9.6397085,1.57559
1409350856892,-0.59615624,9.283517,1.83336,-0.87197596,9.641243,1.567323
1409350856895,-0.5446809,9.281123,1.905186,-0.8668841,9.642939,1.5596843
1409350856896,-0.52133745,9.335591,2.0608091,-0.85859704,9.644823,1.5526001
1409350856918,-0.5105635,9.38168,2.2361844,-0.8479327,9.646743,1.5465271
1409350856919,-0.48123455,9.461287,2.2224178,-0.8354173,9.6483965,1.5430164
1409350856938,-0.4297592,9.522937,2.1452048,-0.82204926,9.649977,1.5403188
1409350856940,-0.4213795,9.557653,2.0829554,-0.8074008,9.651567,1.5380938
1409350856955,-0.46627077,9.564836,1.9596541,-0.7923479,9.653222,1.5355366
1409350856957,-0.54647654,9.613917,1.757344,-0.7778564,9.654931,1.5322042
1409350856969,-0.56802434,9.693524,1.5041572,-0.76522297,9.6567955,1.52681
1409350856988,-0.5009867,9.793482,1.2509704,-0.7548658,9.659105,1.5173085
1409350856992,-0.38187516,9.892242,0.9720459,-0.74707943,9.66181,1.5038838
1409350857013,-0.23343466,10.072407,0.6967127,-0.74240506,9.664811,1.4868295
1409350857014,-0.074818805,10.23222,0.49559975,-0.74070615,9.668152,1.4658055
1409350857016,0.11312603,10.346542,0.41359833,-0.7423681,9.671524,1.4425323
1409350857047,0.23104046,10.450092,0.47884035,-0.74717134,9.674638,1.418977
1409350857048,0.27952304,10.497976,0.5506664,-0.7530162,9.677451,1.3965199
1409350857049,0.18315643,10.485406,0.7266402,-0.7629384,9.679495,1.3768373
1409350857056,-0.049679685,10.401609,0.91697925,-0.7769104,9.680282,1.3634275
1409350857070,-0.2873042,10.257359,1.074398,-0.79431,9.67971,1.357443
1409350857087,-0.57760113,9.937134,1.2844892,-0.8136431,9.678053,1.3578062
1409350857088,-0.5626374,9.338584,1.4311341,-0.8347347,9.675351,1.3642665
1409350857116,-0.32022446,9.524733,1.6448165,-0.8549772,9.672082,1.3748661
1409350857118,-0.24899697,9.636064,1.6418238,-0.8710917,9.668874,1.3872445
1409350857121,-0.2705448,9.474455,1.5191209,-0.8846478,9.666162,1.3975426
1409350857144,-0.24121583,9.093178,1.435324,-0.89836186,9.664193,1.4024093
1409350857146,-0.19153613,8.8328085,1.3515269,-0.91334915,9.662847,1.4020009
1409350857147,-0.2100912,8.7849245,1.2437878,-0.92792743,9.661815,1.399523
1409350857159,-0.25019407,8.90643,1.1827357,-0.9412074,9.661509,1.3927537
1409350857173,-0.24301147,9.08001,1.1450269,-0.9528915,9.662213,1.3798723
1409350857176,-0.16280572,9.3260145,1.1210849,-0.9632075,9.664126,1.3591506
1409350857211,0.046088383,9.58818,1.0737995,-0.9720589,9.667198,1.330706
1409350857212,0.21906945,9.784504,0.9068039,-0.9794103,9.671314,1.2949251
1409350857214,0.3405752,9.842564,0.79128367,-0.98675394,9.676041,1.25337
1409350857216,0.4225766,9.887454,0.8002619,-0.9964892,9.680582,1.2098484
1409350857247,0.36511576,10.002377,0.9175778,-1.0095627,9.684284,1.1686809
1409350857248,0.26635495,10.113108,0.88765025,-1.027029,9.686696,1.1329284
1409350857250,0.11611878,10.1621895,0.91099375,-1.0472592,9.688291,1.1003115
1409350857256,-0.011372458,10.087969,0.85173726,-1.0727135,9.688192,1.0763795
1409350857272,0.010175358,9.936536,0.8882488,-1.1011075,9.686626,1.0617056
1409350857276,0.091578215,9.884461,1.0001777,-1.1298057,9.684047,1.0550573
1409350857288,0.19153613,9.896433,1.1091139,-1.1572983,9.680689,1.0560744
1409350857319,0.18854338,9.870695,1.1031284,-1.1831354,9.676664,1.0643103
1409350857324,0.079008654,9.794081,1.033098,-1.2081974,9.672138,1.0772219
1409350857328,-0.17357962,9.662998,0.96546185,-1.2336059,9.667204,1.0925971
1409350857351,-0.4177882,9.643845,1.0450691,-1.2603731,9.6619835,1.1081159
1409350857353,-0.6266823,9.606135,1.1013328,-1.2885182,9.656458,1.1238028
1409350857355,-0.7781156,9.546879,1.122282,-1.3171781,9.650723,1.1397243
1409350857367,-0.9415198,9.527725,1.1318588,-1.3465488,9.644831,1.1551797
1409350857370,-1.1575965,9.595961,1.1546037,-1.376125,9.639084,1.1682184
1409350857388,-1.328782,9.788095,1.1007342,-1.4064323,9.633537,1.1778324
1409350857389,-1.4305356,10.005369,0.9564836,-1.4361776,9.628338,1.1844336
1409350857398,-1.3676877,10.244789,0.9068039,-1.4642286,9.623585,1.1887186
1409350857417,-1.1264719,10.411784,0.6560113,-1.4893411,9.61919,1.193079
1409350857418,-0.8050503,10.412982,0.54647654,-1.5109632,9.615276,1.1974331
1409350857436,-0.51116204,10.455479,0.7697359,-1.529193,9.6117735,1.2024088
1409350857437,-0.27952304,10.597934,0.8822633,-1.5444232,9.608377,1.210052
1409350857451,-0.073621705,10.676943,0.8194155,-1.5565407,9.605137,1.220209
1409350857465,0.075417355,10.818799,0.84335756,-1.5663518,9.602069,1.231747
1409350857468,0.18255788,11.048044,0.80325466,-1.5741355,9.59897,1.2458893
1409350857485,0.3854665,11.362283,0.58657944,-1.5807441,9.595798,1.2618734
1409350857509,0.61770403,11.609484,0.4441244,-1.584934,9.593172,1.2764877
1409350857511,0.8655039,11.793838,0.5805939,-1.5866185,9.591148,1.2895486
1409350857512,1.1611878,11.884218,0.7302315,-1.5854884,9.589392,1.3039083
1409350857517,1.5532384,11.746552,0.8475474,-1.5812258,9.587786,1.3207798
1409350857542,1.8962077,11.555016,0.9379285,-1.5734999,9.586147,1.3417361
1409350857545,2.1188686,11.44189,1.0600328,-1.5634676,9.584016,1.3684343
1409350857550,2.4067712,11.296442,1.389834,-1.5527393,9.580804,1.4027045
1409350857568,2.4768016,11.109096,1.7513585,-1.5416994,9.575972,1.4471762
1409350857569,2.3175871,10.86369,2.1811178,-1.531717,9.569885,1.49717
1409350857583,1.8728642,10.506954,2.6940753,-1.5255917,9.561805,1.5539782
1409350857589,1.0845734,10.155006,3.1992521,-1.5255085,9.55168,1.6151252
1409350857608,0.30705637,9.752781,3.7283707,-1.5331088,9.539204,1.6803514
1409350857610,-0.97982705,9.294889,3.9097314,-1.5456064,9.524872,1.7488041
1409350857617,-1.9261353,8.958505,3.78643,-1.5670012,9.508895,1.8154374
1409350857643,-2.6539726,8.604761,3.1663318,-1.5948309,9.493179,1.8725595
1409350857645,-2.9245174,8.219893,1.5933412,-1.6232743,9.481288,1.9080281
1409350857648,-2.4833858,7.707534,1.0187328,-1.6433842,9.477501,1.9096164
1409350857673,-2.3714569,7.241263,0.5410896,-1.6467317,9.481743,1.885524
1409350857674,-2.6737247,6.930017,0.17238252,-1.6358212,9.492668,1.8394915
1409350857676,-2.7551277,7.2634096,0.007182605,-1.6222221,9.505875,1.782453
1409350857688,-3.0561984,8.213309,0.15562311,-1.598483,9.522488,1.7139146
1409350857717,-3.2668881,9.648633,0.41718966,-1.5651903,9.540657,1.6420807
1409350857726,-3.2722752,11.332953,0.49440265,-1.5168924,9.559621,1.5757807
1409350857730,-3.1358056,12.805986,0.44651863,-1.4496199,9.579221,1.5190555
1409350857761,-2.5504234,13.860632,0.37828386,-1.3621695,9.599523,1.4710659
1409350857763,-2.670732,14.067132,0.8475474,-1.2506974,9.621153,1.4281274
1409350857764,-3.193865,13.687651,1.8926164,-1.130932,9.640339,1.3982998
1409350857766,-3.4847605,12.755708,3.0358477,-1.0208397,9.652999,1.3956746
1409350857769,-3.6864722,11.588534,3.82773,-0.92563,9.658199,1.4257541
1409350857792,-3.7816415,10.320805,4.2185836,-0.84198415,9.658727,1.4732475
1409350857795,-3.9977183,9.36911,4.1419687,-0.7618422,9.65649,1.5304154
1409350857796,-3.9863458,8.688558,3.57993,-0.68739,9.654033,1.5803596
1409350857817,-3.4404678,8.812458,2.9634233,-0.60959184,9.654584,1.6086615
1409350857818,-2.5354595,9.07582,2.3403323,-0.51708204,9.659814,1.6096644
1409350857833,-0.6985083,8.887277,1.3802572,-0.40171438,9.669137,1.5864459
1409350857837,0.23343466,8.760384,1.1174936,-0.2584755,9.680445,1.5467983
1409350857852,0.99778354,8.916606,0.9127894,-0.105447,9.689926,1.5048534
1409350857871,1.6466122,9.651626,0.95468795,0.049597085,9.696411,1.4654417
1409350857872,1.7549498,9.461885,0.7733272,0.2009864,9.699281,1.4331546
1409350857877,1.2479776,8.319851,0.59376204,0.33916298,9.698651,1.4112239
1409350857906,0.6338649,7.15986,0.7649474,0.46350002,9.695462,1.3977075
1409350857908,0.2801216,6.5631056,1.2419921,0.5657834,9.689002,1.404815
1409350857910,-0.011372458,6.362591,1.6364368,0.6536666,9.679056,1.4349163
1409350857923,-0.12389994,6.105214,1.7914615,0.7386128,9.665336,1.4853007
1409350857945,-0.11372458,6.0369797,1.9602526,0.8273091,9.648528,1.5465679
1409350857947,-0.077811554,6.2045736,2.107496,0.920394,9.629865,1.6090219
1409350857949,-0.011372458,6.341642,2.1350293,1.0153605,9.610608,1.6660197
1409350857972,0.17477672,6.4727244,2.1140802,1.1087834,9.592049,1.712777
1409350857974,0.49320555,6.7600284,2.1697452,1.1968547,9.575476,1.7459145
1409350857977,0.8559271,7.0581064,2.0757728,1.2778966,9.561368,1.7656809
1409350858010,1.1785458,7.37055,1.8698715,1.3499352,9.550442,1.771203
1409350858011,1.4867992,7.5985975,1.6609775,1.4173144,9.541127,1.7687627
1409350858013,1.9333179,7.9146323,1.5310919,1.4712503,9.535527,1.7548579
1409350858017,2.753332,8.572439,1.2731167,1.5105344,9.532624,1.7371727
1409350858043,3.0478187,8.750209,1.4287399,1.5352424,9.531569,1.7212297
1409350858044,3.309984,8.96449,1.9907787,1.5387409,9.532237,1.7143906
1409350858048,3.4356794,9.308058,2.7096379,1.520588,9.533755,1.7221266
1409350858066,3.5392287,9.650429,3.0340521,1.4822841,9.535933,1.7433327
1409350858068,3.401562,9.93893,3.2016463,1.4267832,9.539659,1.7690642
1409350858083,2.8814218,9.986814,3.2878375,1.355306,9.545224,1.7950509
1409350858105,1.9698294,10.292673,3.5655649,1.2733823,9.5514765,1.8215903
1409350858107,0.748188,11.732785,3.9151182,1.1906245,9.556786,1.8494993
1409350858108,-0.1316811,12.447454,3.2603042,1.1042992,9.561651,1.8776928
1409350858117,0.009576807,11.731588,1.7423803,1.0325776,9.566854,1.891954
1409350858149,1.2659341,10.780492,0.7990648,1.0018632,9.572461,1.8800682
1409350858151,2.7862523,9.911995,0.4345476,1.028639,9.574978,1.8525971
1409350858153,4.226963,8.90643,0.99778354,1.1080897,9.570998,1.8271692
1409350858175,5.089474,8.152855,2.31639,1.2266822,9.559097,1.8136494
1409350858177,5.281609,8.346786,4.3742065,1.3700249,9.541325,1.8045871
1409350858179,4.4915223,11.006743,6.7767878,1.5259786,9.518981,1.7974452
1409350858209,2.907758,15.497667,7.017405,1.671327,9.492639,1.8074491
1409350858211,1.7836803,18.283321,3.7002387,1.7701463,9.469769,1.833154
1409350858213,-2.247557,14.164097,2.2900538,1.8300524,9.461321,1.8178856
1409350858217,-3.0693667,12.937069,1.3676877,1.8311925,9.462509,1.810539
1409350858242,-3.5182793,12.563574,1.8339585,1.7996976,9.4689045,1.8086857
1409350858253,-3.9294837,12.901155,2.1086931,1.7339711,9.47777,1.8263625
1409350858266,-3.9857473,12.656947,0.32800564,1.6353301,9.491691,1.8449609
1409350858284,-3.441665,11.368268,-0.41120413,1.5262338,9.512927,1.8290006
1409350858285,-2.8083985,10.081385,0.26515785,1.4313012,9.533906,1.7962168
1409350858287,-2.4612393,9.077616,0.21667525,1.3575705,9.547543,1.7809646
1409350858304,-2.0506337,8.603564,-0.06284779,1.3019525,9.554294,1.7862719
1409350858306,-1.0570401,8.246229,0.2885013,1.2516799,9.559193,1.7959782
1409350858309,0.06404489,7.884106,0.9020155,1.1983316,9.5641365,1.8060198
1409350858318,0.52971715,7.89907,1.198298,1.1442183,9.567854,1.8213555
1409350858346,0.58538234,8.183381,1.3994108,1.080741,9.572039,1.8380585
1409350858347,0.65780693,8.627506,1.7681179,1.0048646,9.577529,1.8524566
1409350858349,0.80564886,9.123704,1.7489643,0.91881704,9.585311,1.8568772
1409350858369,0.62608373,9.527127,1.2012907,0.82679623,9.597101,1.8391477
1409350858371,0.4345476,9.933543,0.92416185,0.73039037,9.614239,1.7897818
1409350858377,0.0023942017,9.973047,0.7152678,0.6297456,9.634478,1.7177473
1409350858407,-1.1294646,8.622718,0.019752163,0.5242003,9.653789,1.6431603
1409350858408,-1.4269443,7.767389,0.01616086,0.41209218,9.669939,1.5788789
1409350858410,-1.6208745,7.498041,0.31064767,0.3075626,9.680994,1.5343276
1409350858418,-1.7052702,7.760206,0.7966706,0.21676783,9.688604,1.501445
1409350858445,-1.7753005,8.328231,1.0893618,0.13414124,9.691979,1.4892768
1409350858446,-1.7770962,9.085996,1.0953473,0.0674504,9.691872,1.4944776
1409350858451,-1.6412252,8.809465,0.8619126,0.010856617,9.688914,1.5150081
1409350858466,-1.8435353,8.316259,0.6027403,-0.04308847,9.683274,1.5500809
1409350858470,-2.0416555,8.1402855,0.5446809,-0.105763614,9.675885,1.592623
1409350858484,-2.1266496,8.117541,0.7260417,-0.18461737,9.66855,1.6295625
1409350858501,-1.8746599,8.416816,1.0636241,-0.2785823,9.662717,1.6506631
1409350858502,-1.6478093,8.441357,0.8487445,-0.3797068,9.658054,1.6577649
1409350858517,-1.1779473,8.3551655,0.4973954,-0.4828733,9.6531925,1.6592488
1409350858519,-0.32441434,8.603564,0.50517654,-0.5843369,9.64694,1.6629735
1409350858537,0.34356794,8.924985,0.7769185,-0.676001,9.63998,1.6685927
1409350858538,0.7344214,9.446322,1.2623428,-0.7489605,9.632553,1.6802915
1409350858549,1.0498575,9.613318,1.6867151,-0.7995439,9.623181,1.7104139
1409350858566,1.3862427,9.414599,1.9093759,-0.8353087,9.608928,1.7723316
1409350858584,1.5197195,9.247005,2.0003555,-0.8653657,9.589658,1.860111
1409350858585,1.477821,9.0315275,1.5592239,-0.89784926,9.567714,1.9552797
1409350858597,1.6944963,9.15423,1.4508862,-0.9366912,9.54636,2.0396097
1409350858598,2.0308816,9.506777,1.6711528,-0.97928995,9.526888,2.109458
1409350858615,2.2852654,9.960478,2.0518308,-1.018698,9.510256,2.1651
1409350858617,2.295441,10.201095,2.191293,-1.0493628,9.496348,2.211013
1409350858631,2.0213048,10.228628,2.690484,-1.0717046,9.483903,2.2533162
1409350858648,1.4766239,10.180744,3.1932666,-1.0919725,9.47012,2.3010468
1409350858649,0.6925228,9.97185,2.9388826,-1.1139951,9.453373,2.3586354
1409350858665,0.11731588,9.471462,2.4732103,-1.146465,9.43391,2.4201946
1409350858681,0.26515785,9.111135,1.8980033,-1.19023,9.413976,2.4760456
1409350858682,0.8655039,8.980052,1.3868413,-1.2380564,9.396786,2.5175428
1409350858697,1.4359225,8.666411,1.5185224,-1.2832602,9.383295,2.5450733
1409350858698,1.3437457,8.485649,1.8525136,-1.3240843,9.371924,2.5659719
1409350858715,0.80684596,8.896255,1.9452889,-1.3636723,9.362,2.581425
1409350858717,-0.33758244,9.500791,1.9662381,-1.4014598,9.3539505,2.5903533
1409350858731,-1.0779893,10.177752,2.1140802,-1.4379586,9.34795,2.592009
1409350858749,-1.0761937,10.5285015,2.5731683,-1.4660773,9.344606,2.5883074
1409350858763,-0.8367735,10.21546,3.032855,-1.4840809,9.345721,2.573981
1409350858764,-0.7505822,9.988011,3.1070752,-1.4770725,9.353609,2.5492418
1409350858786,-0.16998832,9.326612,3.2172086,-1.4386199,9.367956,2.518365
1409350858787,-0.49679685,8.638878,2.2218192,-1.3657099,9.387437,2.4862156
1409350858789,-1.1923125,8.054094,1.3066356,-1.2840166,9.411528,2.4382083
1409350858798,-2.207454,7.2729864,1.3006501,-1.2093105,9.439507,2.367202
1409350858815,-2.907758,7.079654,0.89303726,-1.1427414,9.469323,2.2795737
1409350858819,-3.7870286,8.351574,0.50637364,-1.0779082,9.501833,2.1734037
1409350858833,-4.2981906,11.238981,1.06123,-1.0160031,9.537617,2.0425494
1409350858852,-4.8704047,15.5599165,1.3251907,-0.9545445,9.573404,1.8997823
1409350858853,-5.4593782,19.333776,0.587178,-0.8963779,9.606699,1.7544916
1409350858858,-5.6736593,19.608511,-0.3890578,-0.8414099,9.636864,1.6103685
1409350858887,-5.4581814,19.608511,-0.21667525,-0.78158396,9.662868,1.4793676
1409350858889,-4.52145,17.779343,0.9451111,-0.7226614,9.683252,1.372151
1409350858891,-3.9097314,13.484742,2.693477,-0.65795785,9.693842,1.3292639
1409350858898,-2.9400797,10.651803,4.9667716,-0.59084195,9.691391,1.3777658
1409350858920,-3.436278,7.674015,6.506243,-0.526911,9.677656,1.4952343
1409350858922,-4.2179847,7.4268136,7.1844006,-0.4754518,9.659645,1.6234492
1409350858932,-4.0336313,8.834005,6.5565214,-0.4257705,9.646128,1.7150319
1409350858958,-2.5025394,9.303269,5.3833623,-0.3442787,9.645215,1.7383121
1409350858960,-1.3634979,8.267777,2.5905263,-0.21301556,9.656802,1.6944584
1409350858962,0.7182605,8.758589,2.059612,-0.0635701,9.673426,1.60972
1409350858992,1.7992426,9.440337,1.620276,0.1054745,9.689716,1.5062045
1409350858994,2.131438,9.727641,1.1935096,0.27881905,9.701784,1.4028627
1409350858995,2.0099323,9.202114,0.7278373,0.44911054,9.707669,1.3152388
1409350858998,1.5915456,8.2833395,0.44113165,0.6034271,9.707695,1.2517743
1409350859021,1.1228806,7.3992805,0.4225766,0.73260903,9.702919,1.2194467
1409350859023,0.5434838,6.190807,0.40521863,0.8400287,9.693838,1.2223934
1409350859030,0.033518825,5.2265425,0.31184477,0.93290836,9.680668,1.2588629
1409350859055,-0.19991584,4.8841715,0.42078096,1.0179938,9.66402,1.3193938
1409350859056,-0.20231004,5.1882353,0.5907693,1.0999401,9.644745,1.3926299
1409350859058,-0.07062895,5.234922,0.60094464,1.1808338,9.623797,1.4692091
1409350859079,-0.15442601,5.0583496,0.6655881,1.2601885,9.601729,1.5456712
1409350859081,-0.12449849,5.0403934,1.0510546,1.331267,9.580366,1.6170014
1409350859098,0.020949265,5.127183,1.5442601,1.3889991,9.561196,1.680645
1409350859099,0.29568392,5.0918684,1.8992004,1.4347054,9.545196,1.7324092
1409350859121,0.59495914,5.2205567,1.9782091,1.4703109,9.533669,1.7657027
1409350859123,1.0642227,5.5365915,1.9746178,1.4962524,9.527756,1.7758112
1409350859130,1.5903485,5.9130797,2.0171149,1.5118603,9.527512,1.7638507
1409350859155,2.4474726,6.87914,1.7908629,1.514076,9.532046,1.7372541
1409350859156,3.0005333,7.800309,1.6992847,1.4997847,9.540707,1.7017554
1409350859158,3.4919431,8.808268,1.958457,1.4654914,9.552611,1.6644274
1409350859183,3.6469676,9.616311,2.4426842,1.4235245,9.564653,1.6313773
1409350859184,3.265691,9.954493,3.193865,1.3626752,9.57714,1.6099352
1409350859208,2.7204118,9.687539,3.323152,1.282576,9.589714,1.6008751
1409350859210,2.3678656,10.001179,3.5757403,1.1885829,9.6036415,1.5898824
1409350859211,2.12246,12.047623,4.678869,1.0899774,9.617836,1.5746671
1409350859240,2.0428526,14.836269,4.8189297,0.9944475,9.628064,1.5753976
1409350859244,1.5520413,15.737686,3.390788,0.92095464,9.631575,1.5984442
1409350859245,1.4903905,14.802152,1.9285295,0.8902885,9.63213,1.6124038
1409350859250,2.4809916,12.673707,1.311424,0.9167904,9.630512,1.6072161
1409350859265,4.5406036,11.030685,1.3425486,0.9932208,9.620906,1.6192845
1409350859282,5.7161565,10.392033,3.359065,1.1168225,9.600773,1.6577947
1409350859283,4.6441526,12.569559,8.372523,1.268205,9.571981,1.7144165
1409350859302,2.4121583,18.27913,7.891887,1.43101,9.531266,1.8104001
1409350859303,1.2611457,19.608511,3.0220811,1.5525928,9.498672,1.880189
1409350859310,-1.5640123,17.387291,2.6761189,1.6336598,9.485895,1.875988
1409350859334,-4.437054,13.186066,1.6980876,1.6483992,9.478882,1.898409
1409350859335,-3.5871127,9.100959,1.4969746,1.6122736,9.473969,1.9531672
1409350859364,-2.9059622,8.77834,3.2004492,1.5762185,9.4645605,2.0268283
1409350859368,-2.4911668,9.251195,2.542642,1.5224376,9.45916,2.0920992
1409350859370,-2.0691888,9.314043,1.5119383,1.4582533,9.465147,2.1106567
1409350859392,-1.6873137,9.621698,1.2192472,1.3970435,9.480419,2.0833414
1409350859393,-1.875857,9.914988,0.96785605,1.343964,9.497375,2.040594
1409350859395,-1.87047,10.497377,0.5614403,1.2930311,9.514498,1.9931952
1409350859398,-1.3365631,10.94629,0.62488663,1.2435105,9.531376,1.9434402
1409350859413,-0.15741876,10.772112,0.8499416,1.1884717,9.548848,1.8914086
1409350859431,0.3309984,10.722432,0.6356605,1.1286137,9.565936,1.8410584
1409350859434,0.19692309,10.8948145,0.5434838,1.0588095,9.58244,1.7961551
1409350859452,0.017357962,10.412383,0.6254852,0.97706497,9.5967455,1.765845
1409350859454,-0.18435353,9.601946,0.42317516,0.88509476,9.607548,1.7555687
1409350859459,-0.46088383,8.935161,0.16519992,0.78151125,9.61748,1.7503457
1409350859482,-0.6937199,8.568848,0.46208093,0.6650963,9.6297245,1.7310183
1409350859485,-0.9756372,8.523358,0.89662856,0.53643876,9.64366,1.6977876
1409350859501,-1.2802993,8.444948,1.0767922,0.40105084,9.656271,1.6631262
1409350859502,-1.5915456,8.14687,0.91458505,0.26112482,9.667343,1.6262507
1409350859510,-1.7423803,7.7159133,0.39264908,0.122317635,9.675659,1.5928105
1409350859530,-1.7064673,7.2610154,0.038905777,-0.009327764,9.680888,1.5654778
1409350859531,-1.9967642,7.4693108,0.44592008,-0.12601116,9.683039,1.5470299
1409350859547,-2.235586,7.978079,0.91099375,-0.22609471,9.682392,1.5396641
1409350859569,-2.2170308,8.4647,1.021127,-0.30930626,9.6792345,1.54504
1409350859570,-1.9847932,8.6712,0.7433996,-0.37921104,9.673491,1.5653067
1409350859572,-1.6849195,8.582615,0.42197806,-0.4417266,9.665339,1.5989009
1409350859579,-1.5143325,8.353969,0.26036942,-0.50458056,9.655474,1.6393884
1409350859601,-1.2886791,8.113351,0.41359833,-0.57694364,9.644515,1.6795428
1409350859602,-0.9151836,8.152257,0.8122329,-0.65547925,9.632982,1.7165043
1409350859610,-0.22505496,8.102577,1.055843,-0.7450673,9.620698,1.7485496
1409350859630,0.43394905,8.5700445,1.1354501,-0.8354797,9.608038,1.7770642
1409350859631,1.2018893,9.340978,1.2689269,-0.9152817,9.595873,1.8032933
1409350859647,1.520318,9.772532,1.8231846,-0.977751,9.584598,1.8302646
1409350859663,1.7435774,9.52593,2.0482395,-1.0240421,9.571825,1.8713416
1409350859664,1.8375498,9.314642,1.9195513,-1.0588533,9.555867,1.9325212
1409350859680,1.6591818,9.100959,1.8590976,-1.0877035,9.53714,2.0075514
1409350859681,1.3700819,8.868722,1.934515,-1.1187378,9.514727,2.0949416
1409350859695,1.1192893,8.507795,1.8555063,-1.1585655,9.488655,2.1894135
1409350859699,1.0911574,8.100781,1.1300632,-1.2075351,9.461002,2.2807186
1409350859712,1.4586674,7.7254906,0.9864111,-1.2637382,9.435272,2.3556316
1409350859736,1.5783775,7.755418,1.2773066,-1.323419,9.412894,2.411714
1409350859737,1.4999673,8.040926,1.7357962,-1.3788085,9.393558,2.4556785
1409350859738,1.2569559,8.219893,2.4474726,-1.4250019,9.375288,2.4987504
1409350859768,0.8972271,8.244433,2.8311436,-1.4619629,9.355355,2.551547
1409350859770,0.13227965,8.431181,3.0131028,-1.4942685,9.332955,2.614093
1409350859773,-0.7356185,8.891466,3.1142578,-1.5269872,9.309369,2.6784961
1409350859779,-0.8062474,9.278131,2.516306,-1.5631312,9.287013,2.7346685
1409350859808,0.036511578,9.478644,1.2904748,-1.6002359,9.269061,2.7738335
1409350859811,0.9427169,9.941922,0.84096336,-1.6339018,9.258061,2.7908902
1409350859813,1.5011644,10.496181,1.5275006,-1.6605332,9.2519455,2.7954485
1409350859846,1.2138603,10.94629,2.0290859,-1.6803435,9.250032,2.7899354
1409350859848,0.39324763,10.96664,2.0326772,-1.695946,9.249421,2.7825146
1409350859850,-0.4141969,10.976816,2.0428526,-1.7114687,9.247984,2.7777774
1409350859864,-0.682946,10.62846,2.8383262,-1.7252585,9.247047,2.7723625
1409350859871,-0.51355624,10.001179,3.3704374,-1.7294567,9.248112,2.7661874
1409350859884,-0.40521863,9.7324295,2.955642,-1.712881,9.254948,2.7536104
1409350859885,-0.061052144,9.6049385,2.6581624,-1.6671412,9.271195,2.7268963
1409350859893,0.51355624,9.215881,2.771887,-1.5939778,9.295039,2.689215
1409350859910,-0.338181,8.376713,1.7615339,-1.5064912,9.323693,2.6400034
1409350859911,-1.6136919,7.2592196,1.496376,-1.426661,9.354799,2.5734737
1409350859939,-2.7497406,6.7001734,1.3275849,-1.3597747,9.389256,2.4825969
1409350859940,-3.9109285,7.253234,1.0911574,-1.2900057,9.428645,2.3678982
1409350859943,-5.21517,9.093178,1.4826094,-1.2188989,9.471059,2.2324238
1409350859992,-6.25964,12.546814,2.0290859,-1.155724,9.511147,2.091123
1409350859994,-7.1065893,17.37951,1.7417817,-1.1072963,9.545427,1.9568095
1409350859995,-6.9916677,19.608511,0.7673417,-1.0727236,9.575502,1.8246644
1409350859996,-6.0639143,19.608511,0.57400984,-1.024969,9.605027,1.6921344
1409350859999,-4.4873323,19.608511,1.6394296,-0.9504509,9.631933,1.5788933
1409350860030,-3.6768951,17.246033,2.7898436,-0.8548681,9.650083,1.5216708
1409350860038,-2.4013844,13.286622,4.051588,-0.76512045,9.653317,1.5486939
1409350860039,-1.7537527,10.306439,5.2397103,-0.6699634,9.648136,1.6232666
1409350860042,-2.8263552,8.054693,5.7299232,-0.5953973,9.63308,1.7377207
1409350860062,-4.1946416,7.3507977,5.5922565,-0.5447492,9.616327,1.8438784
1409350860063,-3.7696705,9.2494,4.970961,-0.51110977,9.606484,1.9038391
1409350860066,-2.224812,9.466674,3.614646,-0.45418888,9.609924,1.9009061
1409350860083,-0.9463082,8.16363,2.3247697,-0.3402575,9.627098,1.836741
1409350860084,1.0259154,8.67539,2.184709,-0.19157895,9.649743,1.7366984
1409350860090,1.7088615,9.196728,2.0913353,-0.031466313,9.669202,1.6358302
1409350860116,1.9141643,9.226056,1.5239093,0.12717068,9.681968,1.5536134
1409350860117,1.9267339,8.534132,0.7230489,0.27202728,9.688536,1.4928768
1409350860119,1.8800468,7.753622,0.3728969,0.39258024,9.690903,1.4500579
1409350860132,1.5532384,6.811504,0.33399114,0.49954042,9.69074,1.4178948
1409350860155,1.2898762,5.9142766,0.45489833,0.5881122,9.686701,1.4115101
1409350860156,0.8146271,4.7141833,0.5626374,0.66839373,9.678113,1.4344972
1409350860159,0.7332243,4.335301,0.7811083,0.7439298,9.665164,1.483762
1409350860180,0.90381116,4.3861775,0.85772276,0.8178423,9.648694,1.5505525
1409350860183,0.96187055,4.459201,0.7637503,0.8919917,9.629816,1.6252209
1409350860201,0.84096336,4.5178585,0.7769185,0.9627467,9.610141,1.6996193
1409350860202,0.6075287,4.6297874,1.0241197,1.0234112,9.5912695,1.7693477
1409350860210,0.4429273,4.811148,1.365892,1.0702511,9.574535,1.8311808
1409350860225,0.4261679,5.0463786,1.5352819,1.1059825,9.56055,1.8823018
1409350860232,0.64463884,5.3157263,1.5622166,1.1316437,9.548903,1.9256685
1409350860246,1.0486604,5.6407394,1.7160441,1.1536338,9.540914,1.9520475
1409350860276,1.3718776,6.015432,1.9075803,1.1631454,9.5379,1.9611101
1409350860278,1.5424645,6.4302273,2.3666685,1.1571019,9.539922,1.9548367
1409350860279,2.1039047,7.917625,2.6204538,1.1312234,9.546172,1.9394121
1409350860283,2.6671407,9.317036,2.9095535,1.0861415,9.555503,1.9191271
1409350860303,3.0011318,10.922348,3.3584664,1.0230227,9.566607,1.8983759
1409350860304,2.9825768,11.944074,3.942053,0.9446094,9.578358,1.879675
1409350860311,2.6803088,11.100717,3.7804444,0.85557246,9.589548,1.8651989
1409350860329,1.3341689,10.214862,3.6834793,0.7621562,9.601231,1.8454973
1409350860332,-1.3317747,13.974357,4.829105,0.66342556,9.613874,1.8175969
1409350860351,-2.7766755,16.546328,4.1557355,0.53648055,9.62543,1.7982497
1409350860353,-1.8950106,15.188815,1.869273,0.3997875,9.635866,1.7778157
1409350860359,0.42317516,13.965379,-0.44472298,0.3211376,9.643549,1.7519138
1409350860382,3.7487214,12.450447,-1.347337,0.33028993,9.649602,1.7165352
1409350860383,6.0663085,10.068216,0.050278235,0.41829497,9.649942,1.6952928
1409350860390,6.941389,8.790312,4.6722846,0.5539567,9.639226,1.7172128
1409350860419,6.381745,10.851719,9.297284,0.72958153,9.615417,1.7837853
1409350860421,4.3179426,16.203358,8.121731,0.93609494,9.580827,1.8713251
1409350860423,2.3708582,19.608511,4.7339354,1.1184491,9.55705,1.8926849
1409350860463,-0.7553706,17.30529,4.659715,1.2416289,9.550395,1.8489733
1409350860466,-3.084929,13.597869,3.525462,1.2841523,9.542064,1.8628893
1409350860468,-2.5737667,9.648034,0.6871359,1.2893773,9.532304,1.9086881
1409350860470,-2.2002714,9.509171,2.1284454,1.2901523,9.517762,1.9794222
1409350860489,-1.977012,10.301053,1.8662802,1.2608137,9.504728,2.059342
1409350860490,-1.8902222,10.19092,0.8415619,1.1988178,9.50241,2.106525
1409350860493,-1.7591397,10.0341,0.78529817,1.1215423,9.513258,2.1001153
1409350860515,-1.8764555,10.028113,0.44592008,1.0438695,9.531501,2.0569906
1409350860516,-1.9931729,10.052654,-0.15741876,0.972648,9.549706,2.0068483
1409350860519,-1.9027919,9.882068,-0.43394905,0.90875393,9.564404,1.9664018
1409350860552,-1.2503718,9.603742,-0.16220717,0.8463313,9.577058,1.9323802
1409350860554,-0.5781997,9.528923,0.11971009,0.78141123,9.588498,1.9027599
1409350860555,-0.47105917,10.109517,0.57640404,0.7111328,9.598887,1.8777788
1409350860560,-0.5033809,9.998186,1.0582372,0.6358869,9.607069,1.8628652
1409350860583,-0.4429273,9.446322,1.2659341,0.55143845,9.610913,1.8699343
1409350860585,-0.3633201,8.846576,0.8810662,0.4566151,9.610884,1.8954699
1409350860592,-0.32022446,8.628104,0.7769185,0.35161301,9.61175,1.9133866
1409350860618,-0.38606504,8.804677,1.1079168,0.23919648,9.617386,1.9023844
1409350860620,-0.7134721,8.947132,1.3018472,0.121818386,9.62664,1.8663725
1409350860622,-0.9959879,8.759786,1.2264298,-0.0013867051,9.635816,1.822489
1409350860651,-1.1881226,8.367735,0.8643068,-0.12543884,9.642318,1.7833562
1409350860652,-1.4682442,7.748235,0.29927522,-0.24303241,9.645925,1.7514216
1409350860653,-1.8124107,7.9834657,0.6991069,-0.34600994,9.647591,1.7247292
1409350860660,-2.0769699,8.420407,1.1593921,-0.43978727,9.647382,1.7044091
1409350860679,-2.123657,8.628104,1.2910733,-0.5153311,9.644341,1.7004458
1409350860681,-1.894412,8.401853,1.2970588,-0.57460225,9.637342,1.7210052
1409350860691,-1.804031,8.100183,0.9672575,-0.6238198,9.625516,1.7693769
1409350860715,-1.6729485,7.845799,0.79487497,-0.6751134,9.609909,1.8341935
1409350860717,-1.6370354,7.778163,0.8738836,-0.7378484,9.5934725,1.8950613
1409350860720,-1.4161704,7.9451585,1.0324994,-0.8163512,9.57865,1.9373822
1409350860746,-0.9151836,8.878897,0.8810662,-0.90523905,9.565938,1.960556
1409350860748,-0.2621651,9.129091,0.58657944,-0.9948262,9.555763,1.9667493
1409350860751,0.521936,8.738237,0.44711718,-1.0767775,9.547862,1.9619582
1409350860760,1.2366052,8.617331,0.89662856,-1.1477436,9.540702,1.9565412
1409350860782,1.7351977,8.770559,1.8513165,-1.2075922,9.532656,1.959742
1409350860783,1.8596961,8.97287,2.545635,-1.2519064,9.5201645,1.9923838
1409350860794,1.8794483,8.944139,2.634819,-1.2829499,9.499761,2.0685692
1409350860814,1.91596,8.545505,2.4265234,-1.3101469,9.471085,2.1800132
1409350860816,1.757344,8.028955,2.0727801,-1.3420653,9.437623,2.3022892
1409350860820,1.541866,7.97748,1.6675615,-1.3853974,9.403388,2.4139977
1409350860848,1.8273745,8.953716,1.7543513,-1.4399289,9.3717375,2.5035028
1409350860849,1.9183542,9.346964,2.1260512,-1.4919856,9.34494,2.5722451
1409350860854,1.6537948,9.391256,2.7096379,-1.5358471,9.321663,2.6302416
1409350860860,1.1270704,9.097966,3.4302924,-1.5758464,9.298146,2.6891618
1409350860881,0.29029694,8.614338,3.7936125,-1.6198604,9.271285,2.7549427
1409350860882,-0.6452374,8.066664,3.4901476,-1.672785,9.24003,2.8273711
1409350860892,-1.2575544,7.7865424,2.5893292,-1.7389376,9.205818,2.8981726
1409350860918,-1.3138182,7.9565306,1.3108255,-1.8167683,9.173832,2.9513671
1409350860920,-0.5919664,8.562862,0.3878607,-1.9002019,9.150197,2.9721272
1409350860922,0.11552023,9.402629,0.6943185,-1.9785959,9.137749,2.95924
1409350860951,0.047884032,10.211869,1.5508442,-2.0435612,9.13428,2.925608
1409350860952,-0.31663316,10.726623,1.6867151,-2.0984328,9.133562,2.8887765
1409350860959,-0.545878,11.170747,1.7202339,-2.1440718,9.133214,2.856178
1409350860960,-0.58418524,11.151593,2.5366566,-2.1746776,9.135654,2.8250625
1409350860982,-0.54887074,10.67395,3.132813,-2.1839404,9.14202,2.7971878
1409350860984,-0.29328972,10.280702,2.873042,-2.179569,9.149945,2.7745929
1409350860992,0.14963761,10.572196,2.861071,-2.1473374,9.166182,2.7459877
1409350861009,0.80445176,11.114483,3.7415388,-2.0831752,9.191181,2.711635
1409350861011,-0.36870706,10.684724,2.2331917,-1.9929467,9.222013,2.674514
1409350861026,-1.3557167,9.251794,1.3503298,-1.9091696,9.258159,2.6099749
1409350861043,-2.1739352,7.5764513,1.0905589,-1.8324969,9.297483,2.523718
1409350861044,-2.9299042,6.83784,0.7433996,-1.7539214,9.339614,2.4219315
1409350861059,-3.9312792,7.7584105,0.9331401,-1.6705663,9.385187,2.3017082
1409350861060,-4.983531,10.637438,1.6154876,-1.5872734,9.433108,2.1604183
1409350861076,-6.0130377,15.498266,1.970428,-1.5086329,9.478688,2.0121856
1409350861095,-6.282984,19.447502,1.8722657,-1.4327137,9.518609,1.8745108
1409350861096,-5.257068,19.608511,1.6466122,-1.3506087,9.555326,1.7441273
1409350861099,-3.9719806,19.156008,1.7561469,-1.2418207,9.586257,1.6528584
1409350861111,-3.2213984,15.662868,2.4372973,-1.1174997,9.608436,1.6123155
1409350861125,-2.569577,11.988366,3.3237505,-1.0068249,9.6152315,1.6443911
1409350861147,-1.738789,9.788095,4.5040917,-0.9216681,9.606182,1.744186
1409350861149,-1.3868413,8.009802,5.2564697,-0.851486,9.586509,1.8826106
1409350861152,-2.3930047,6.38354,5.4162827,-0.783102,9.565803,2.0130978
1409350861160,-3.3512838,8.6496525,5.823297,-0.7181387,9.552627,2.0981
1409350861183,-2.8149827,10.468647,5.0308166,-0.65021586,9.549925,2.1322587
1409350861184,-1.8848352,9.085397,3.376423,-0.5493487,9.561442,2.1088912
1409350861194,-1.0043676,8.101978,2.3277626,-0.42817873,9.580013,2.0519283
1409350861208,0.25198972,8.110957,1.4808137,-0.28783485,9.603409,1.9652121
1409350861212,0.11731588,8.2516165,1.3060371,-0.14433567,9.624905,1.8737084
1409350861229,0.14185645,7.8547773,0.9828198,-0.011474857,9.640414,1.7979691
1409350861231,0.3298013,6.8372416,0.60693014,0.11016919,9.649855,1.7431436
1409350861240,0.53450555,6.5936313,0.6793547,0.21776345,9.654236,1.7084246
1409350861258,0.3716998,6.1123967,0.8523358,0.31670475,9.653615,1.696407
1409350861260,0.3345897,5.3701944,0.9032126,0.40881863,9.647949,1.7089019
1409350861275,0.36870706,5.0661306,0.95827925,0.49495202,9.63833,1.7401154
1409350861293,0.39683893,5.0583496,0.9720459,0.5759973,9.626296,1.781309
1409350861294,0.49679685,5.0493712,0.88525605,0.6524595,9.612863,1.8268931
1409350861306,0.56922144,5.029619,0.8110358,0.7257073,9.598592,1.8737092
1409350861312,0.56563014,5.1409497,1.009156,0.7893469,9.584426,1.9199268
1409350861329,0.6027403,5.3408656,1.459266,0.84079075,9.571141,1.9638555
1409350861332,0.7368156,5.566519,1.7956513,0.8807643,9.559198,2.0040948
1409350861340,0.7248446,5.8149176,1.8441339,0.90970826,9.5495825,2.0367343
1409350861363,0.80445176,6.199187,2.1308396,0.92534053,9.543733,2.0570223
1409350861365,0.93613285,6.571485,2.610877,0.9259226,9.542166,2.064014
1409350861372,1.2360066,6.8827314,2.8886044,0.910104,9.544911,2.0583427
1409350861398,1.654992,7.1329255,2.991555,0.87714005,9.552128,2.0390842
1409350861400,2.4594438,9.19553,3.0903158,0.82615,9.563546,2.0066051
1409350861401,2.7928362,10.745776,3.2692823,0.7614302,9.577899,1.9632721
1409350861432,3.165733,11.670536,3.5380316,0.692605,9.592699,1.9159334
1409350861433,3.430891,11.42932,3.6936548,0.61436844,9.6082945,1.8637714
1409350861435,3.5350387,10.652402,3.5051112,0.5361693,9.623186,1.8103014
1409350861440,1.9973627,12.488754,4.172495,0.46892306,9.637414,1.7523562
1409350861469,-0.47046062,16.860567,4.1425676,0.40617892,9.649722,1.6994917
1409350861472,-1.0384849,16.557701,2.179322,0.3238464,9.659963,1.6585006
1409350861473,-0.29508537,14.126389,-0.08499416,0.2557,9.6678095,1.6243297
1409350861505,1.6729485,12.08174,-1.6095021,0.24116842,9.672758,1.5968621
1409350861506,3.911527,11.277887,-0.49919105,0.2886036,9.673545,1.5841764
1409350861507,5.498883,10.75655,3.457826,0.3864234,9.665701,1.6109928
1409350861534,5.366603,12.063784,8.048708,0.5191245,9.64692,1.6845825
1409350861537,3.3758245,16.880919,7.4268136,0.6894814,9.613436,1.8102152
1409350861540,1.5520413,19.589357,3.41892,0.85990083,9.586029,1.8812257
1409350861542,-1.5197195,17.331627,3.8881836,0.99583197,9.582515,1.8314278
1409350861569,-3.716998,14.311939,4.234744,1.0590456,9.582275,1.7968962
1409350861571,-3.650559,12.100894,1.3497312,1.0648433,9.571993,1.847557
1409350861573,-2.9281087,7.7548194,1.4939818,1.0499543,9.554214,1.9455082
1409350861598,-2.586935,7.8667483,1.9806033,1.0230699,9.531702,2.066493
1409350861600,-2.284667,7.7829514,1.0636241,0.9672058,9.517991,2.1547031
1409350861601,-2.2290018,7.7614036,0.8218097,0.89877653,9.51854,2.181736
1409350861625,-2.3636756,8.0367365,0.961272,0.83019733,9.528928,2.1634898
1409350861626,-2.4426842,8.355764,0.7404069,0.7690765,9.540974,2.1327765
1409350861640,-1.8842367,8.585608,0.5781997,0.71400326,9.552599,2.0996306
1409350861641,-0.76434886,8.975264,0.8750807,0.6690333,9.562695,2.0682495
1409350861655,-0.048482586,9.285313,0.85173726,0.6267321,9.573251,2.0323508
1409350861661,0.02873042,9.761759,0.90859956,0.57821167,9.585727,1.9874402
1409350861672,-0.13706805,10.310031,1.5711949,0.5166581,9.5989895,1.9398115
1409350861688,-0.28491,10.552444,1.6190789,0.43949217,9.609785,1.9050634
1409350861695,-0.52852005,10.001778,0.88166475,0.34858102,9.617729,1.883662
1409350861715,-0.8690952,9.442133,0.44592008,0.24647269,9.626032,1.8571894
1409350861716,-1.3862427,9.276933,0.61411273,0.13683829,9.636925,1.8114562
1409350861721,-1.6903064,9.147048,0.8391677,0.01783992,9.647765,1.7580386
1409350861748,-1.7776948,8.93576,0.78050977,-0.105887674,9.657732,1.6992347
1409350861750,-1.7669208,8.564658,0.5805939,-0.22914952,9.664414,1.6483312
1409350861755,-1.6214731,8.1797905,0.27353755,-0.34253195,9.667613,1.6094457
1409350861761,-1.8351556,8.203134,0.87567925,-0.43800944,9.668559,1.580358
1409350861779,-1.9207484,8.180388,1.3078327,-0.5135314,9.667,1.5670965
1409350861782,-1.8555063,8.39048,1.377863,-0.56988573,9.662549,1.5750446
1409350861795,-1.6160861,8.3408,1.2605472,-0.61426926,9.65487,1.6051668
1409350861814,-1.5077485,8.076241,1.0618285,-0.65570694,9.6442175,1.6521199
1409350861817,-1.3024458,7.94037,1.0779893,-0.70506674,9.631738,1.7037936
1409350861821,-1.0761937,8.039131,1.2174516,-0.77031,9.618804,1.7480365
1409350861854,-0.64942724,8.462905,1.0923545,-0.84327745,9.605742,1.7857724
1409350861855,-0.047285482,8.698134,0.7152678,-0.9265318,9.593557,1.809855
1409350861856,0.56982,8.8328085,0.5422867,-1.0134478,9.582832,1.820069
1409350861861,1.2611457,9.4535055,0.81761986,-1.0982075,9.573218,1.8214926
1409350861877,1.4550761,9.782708,1.3706805,-1.1699641,9.56344,1.8281592
1409350861880,1.6232687,9.648633,1.780089,-1.2268701,9.549576,1.8629981
1409350861917,1.7531542,9.613917,2.1942859,-1.2708285,9.528836,1.9382111
1409350861918,1.447295,9.333197,2.3265655,-1.3068564,9.499979,2.0525405
1409350861920,1.0510546,8.933964,2.3481133,-1.3462349,9.464246,2.187718
1409350861922,0.88765025,8.381501,1.9195513,-1.3989879,9.424818,2.3207824
1409350861947,0.9516952,8.145074,1.5598224,-1.4671558,9.386818,2.430126
1409350861948,1.3551182,8.373122,1.6418238,-1.5426846,9.350679,2.520978
1409350861952,1.483208,9.118916,2.4139538,-1.6130253,9.322253,2.5815015
1409350861960,1.163582,9.169194,2.8269536,-1.6696267,9.300275,2.6244264
1409350861974,1.1162965,8.823831,3.4171243,-1.7173169,9.279198,2.667902
1409350861988,0.89303726,8.38629,3.2932243,-1.7601811,9.253155,2.7297053
1409350862010,0.54408234,8.185776,2.8335378,-1.8043662,9.222132,2.8048027
1409350862012,0.21308395,8.284536,2.0679917,-1.8547757,9.191098,2.872963
1409350862013,0.16400282,8.69155,1.1893197,-1.9084909,9.167675,2.9123526
1409350862021,0.50278234,9.3421755,1.0378864,-1.965938,9.154853,2.914471
1409350862053,0.53330845,10.210073,1.7711107,-2.0161726,9.150581,2.8934932
1409350862054,0.2148796,11.009138,2.3648727,-2.0560555,9.149263,2.869495
1409350862055,-0.09935937,11.416751,2.5264814,-2.0905912,9.149226,2.8445542
1409350862073,-0.5566519,11.572374,2.5510218,-2.117244,9.149082,2.8252351
1409350862075,-0.676362,11.138425,3.0909145,-2.1373572,9.148403,2.8122582
1409350862092,-1.134253,10.263943,3.693056,-2.1482499,9.14843,2.8038623
1409350862093,-1.3790601,9.690532,3.3039982,-2.1492515,9.151309,2.7936785
1409350862106,-1.1402385,9.913791,2.7868507,-2.130539,9.162398,2.7715797
1409350862118,-0.1316811,10.163386,3.2483332,-2.0834048,9.183881,2.7360828
1409350862121,0.24600422,9.556456,2.9466639,-2.0103743,9.213224,2.691703
1409350862147,-0.2885013,8.619724,1.1959038,-1.9324975,9.248844,2.6257799
1409350862148,-2.8083985,6.4068837,0.89423436,-1.8608547,9.291941,2.5233808
1409350862153,-3.9641995,6.215348,0.74639237,-1.8083155,9.332504,2.409302
1409350862181,-5.0613422,7.766192,1.0426749,-1.751412,9.37681,2.2756002
1409350862182,-6.0303955,11.325172,1.2665327,-1.6933705,9.423706,2.120533
1409350862184,-7.0024414,16.843807,1.5263035,-1.6351418,9.471959,1.9438919
1409350862213,-7.0730705,19.608511,0.89303726,-1.5758567,9.51775,1.7605456
1409350862215,-5.6640825,19.608511,-0.30286652,-1.4931717,9.560552,1.5926969
1409350862216,-4.3885717,19.41099,0.06943185,-1.3684222,9.600763,1.4571035
1409350862222,-3.5104983,16.047136,1.6023195,-1.2315229,9.630493,1.3810744
1409350862259,-2.2002714,11.641806,3.318962,-1.1181931,9.641284,1.4020191
1409350862262,-0.93613285,8.522161,5.221155,-1.0256578,9.634733,1.5133888
1409350862264,-1.7088615,5.7400985,6.277597,-0.9416905,9.617192,1.6712911
1409350862266,-3.05141,5.8226986,6.6367273,-0.86717045,9.595489,1.8289319
1409350862274,-2.9640217,8.634688,6.0208187,-0.80292356,9.578315,1.9446322
1409350862315,-1.7220296,8.652046,4.235343,-0.720878,9.576417,1.9856952
1409350862319,-0.8912416,7.627927,2.8634653,-0.59162265,9.594385,1.9411718
1409350862323,0.41240123,8.182184,2.3582888,-0.4342944,9.621567,1.8458682
1409350862326,1.3042414,8.347384,2.0350714,-0.2665969,9.646475,1.7449496
1409350862330,1.459266,8.5060005,1.2300211,-0.098332874,9.664362,1.661577
1409350862356,1.1827357,8.209718,0.78290397,0.055154044,9.675201,1.5993222
1409350862357,1.0061632,7.6524673,0.48722005,0.18705526,9.679853,1.5607171
1409350862358,0.6332663,6.843227,0.43634325,0.3010004,9.679177,1.54704
1409350862373,0.31064767,6.033987,0.6817489,0.4016106,9.675256,1.5487124
1409350862374,0.12270284,5.559336,0.78290397,0.4952951,9.665779,1.5804429
1409350862387,0.0700304,5.3755813,0.81343,0.58053917,9.652061,1.634347
1409350862403,0.20111294,5.3282957,0.8206126,0.66189253,9.635691,1.6987537
1409350862404,0.31244332,5.5503583,0.9540894,0.7402694,9.617814,1.7663642
1409350862419,0.45968673,5.834071,1.1294646,0.8108309,9.599614,1.8331281
1409350862421,0.5805939,6.1249666,1.2264298,0.87148285,9.582169,1.8955133
1409350862434,0.7679402,6.3901243,1.3892355,0.9218777,9.566782,1.9486498
1409350862443,1.0295067,6.7684083,1.4891934,0.9615166,9.55457,1.9889894
1409350862463,1.4999673,7.1466923,1.5454572,0.9887036,9.546491,2.0142977
1409350862464,1.9901801,7.489063,1.650802,1.0030879,9.542688,2.025164
1409350862496,2.1930888,7.627927,1.8722657,1.0125663,9.54077,2.0294852
1409350862497,2.2691047,7.541735,2.3690627,1.0032597,9.542546,2.0257528
1409350862498,2.4355016,7.6003933,3.0945058,0.9737768,9.546865,2.019779
1409350862501,2.7030537,8.194156,3.834314,0.9242014,9.552847,2.0147886
1409350862522,3.1465795,9.797073,4.689044,0.857849,9.560099,2.0097325
1409350862523,3.447052,9.727043,3.9522285,0.78329134,9.567569,2.0046155
1409350862539,3.1956608,8.678383,3.1364043,0.70719725,9.578026,1.9828469
1409350862573,1.2252327,10.007165,4.2461166,0.63071615,9.591369,1.9437755
1409350862575,-1.0217255,14.7159605,5.1475334,0.5454025,9.603343,1.9101669
1409350862576,-0.9528923,15.020623,3.376423,0.43777487,9.610158,1.9035757
1409350862578,0.36152446,13.6170225,1.0989386,0.36073425,9.612674,1.9070317
1409350862593,2.3253684,12.031462,-0.25198972,0.3267245,9.615533,1.8987244
1409350862595,4.1138372,10.358514,0.7493851,0.37232503,9.615916,1.8883641
1409350862601,4.9362454,9.228451,4.324527,0.46671766,9.6086445,1.9043386
1409350862623,3.5763388,11.543644,8.500014,0.58618164,9.589412,1.9672247
1409350862624,1.4664485,17.732655,7.0610995,0.7183592,9.559561,2.0661907
1409350862637,-0.39624038,19.608511,3.630807,0.83630484,9.541076,2.1068635
1409350862669,-2.8640637,17.46271,2.6384103,0.92584413,9.541531,2.0669734
1409350862671,-4.4879313,13.057976,1.2850877,0.96489424,9.542566,2.0442054
1409350862673,-4.5262384,10.269928,0.6793547,0.96220756,9.532775,2.0906289
1409350862676,-3.5942953,9.007586,2.570774,0.9331411,9.513268,2.1902847
1409350862696,-2.6581624,9.433753,3.1962593,0.8894419,9.489584,2.3080463
1409350862698,-2.2577322,9.901221,1.939902,0.8464685,9.4725895,2.392476
1409350862702,-1.3856442,10.386645,1.5532384,0.7925791,9.473919,2.4056308
1409350862727,-1.0498575,10.324995,0.8415619,0.7444274,9.487149,2.3685908
1409350862729,-0.5446809,9.93893,0.6967127,0.7051608,9.502998,2.3164947
1409350862734,0.24899697,9.2907,1.1779473,0.6736327,9.51652,2.269903
1409350862760,0.60333884,9.036316,1.1833342,0.64101464,9.528722,2.227771
1409350862762,0.5231331,9.260772,0.8242039,0.59779936,9.541548,2.184467
1409350862763,0.54168814,9.874885,1.1450269,0.54040205,9.555065,2.1398804
1409350862795,0.5291186,10.00477,1.508347,0.47324637,9.56607,2.1063595
1409350862797,0.41240123,9.700109,1.3174095,0.39994505,9.57175,2.0957243
1409350862798,0.2160767,9.325416,1.0271125,0.32271013,9.575146,2.09352
1409350862802,-0.26036942,9.097368,1.043872,0.23875162,9.578359,2.090075
1409350862817,-0.99419224,9.176975,1.1683705,0.14193055,9.585534,2.065857
1409350862822,-1.8112136,9.141062,1.186327,0.029143129,9.596193,2.0205488
1409350862836,-2.510919,8.714894,0.65182143,-0.094096795,9.606787,1.9675388
1409350862868,-2.7611132,8.200739,-0.023343466,-0.22022891,9.614851,1.9174336
1409350862871,-2.8161798,7.934983,-0.2681506,-0.3408037,9.61948,1.876124
1409350862876,-3.1292217,8.08881,-0.14544775,-0.4502637,9.6212845,1.8435098
1409350862879,-3.0053217,8.418612,0.57999533,-0.5438352,9.620624,1.8216088
1409350862906,-2.9418752,8.605958,1.0217255,-0.6170418,9.615746,1.8240266
1409350862908,-2.2409728,8.091804,0.75477207,-0.67715347,9.605208,1.8579116
1409350862909,-1.6777369,8.149862,0.6147113,-0.7282929,9.592166,1.9053487
1409350862922,-1.204882,8.096592,0.7374141,-0.7804121,9.575342,1.9682966
1409350862925,-0.94211835,8.153454,0.99299514,-0.8418367,9.557607,2.0282621
1409350862944,-0.52732295,8.20433,0.88944596,-0.9162409,9.542035,2.0689228
1409350862945,0.38965634,8.890269,0.7044938,-1.0012388,9.529933,2.085258
1409350862954,1.1881226,9.180567,0.64583594,-1.0864608,9.520837,2.0841424
1409350862970,1.7417817,9.112331,1.0594343,-1.1654,9.51161,2.083633
1409350862972,2.2499511,9.290101,1.6358383,-1.2355311,9.498984,2.100748
1409350862987,2.5504234,9.293693,1.9728222,-1.2923973,9.481831,2.1435924
1409350863016,2.6168625,9.053674,2.1751323,-1.3359065,9.4592905,2.2153068
1409350863017,2.3056161,8.589797,2.1697452,-1.3734988,9.433525,2.3005433
1409350863019,1.9303252,8.224682,2.0895395,-1.4134939,9.402416,2.4014595
1409350863021,1.7884687,8.170214,2.0320787,-1.4581552,9.369176,2.5025406
1409350863046,1.7100586,8.286332,2.1703439,-1.505926,9.337514,2.5910249
1409350863047,1.6699557,8.379706,2.4139538,-1.5547423,9.308583,2.6652286
1409350863052,1.4425066,8.441956,2.6856956,-1.6019027,9.281904,2.7295702
1409350863068,0.9744401,8.343194,2.9867666,-1.6488588,9.255457,2.7907324
1409350863086,0.51235914,8.143877,3.3734303,-1.6990099,9.227254,2.853336
1409350863087,-0.9295488,8.292916,2.9191303,-1.7522932,9.196801,2.9186788
1409350863114,-1.0767922,8.672996,2.1721394,-1.8140928,9.167422,2.9728463
1409350863115,-0.54288524,9.040505,0.9576807,-1.875781,9.143688,3.007459
1409350863116,0.4794389,9.382876,0.39384618,-1.9325682,9.125869,3.0255766
1409350863121,1.0510546,9.880871,1.1737574,-1.9816334,9.115823,3.024117
1409350863146,0.78888947,10.512939,2.0560207,-2.022993,9.109729,3.0150814
1409350863147,0.34715924,10.827179,2.4504654,-2.0617323,9.103767,3.006836
1409350863153,0.025737667,10.991181,2.6013002,-2.0987434,9.095749,3.0054939
1409350863175,-0.17537527,10.762535,3.110068,-2.1307113,9.086969,3.0095599
1409350863176,-0.54767364,10.155605,3.527856,-2.153292,9.0802765,3.0136838
1409350863182,-0.6973112,9.648633,3.4793737,-2.1634114,9.079068,3.010079
1409350863208,-0.8535329,9.567828,3.1160536,-2.1522934,9.086906,2.9943578
1409350863211,-0.40222588,9.822212,3.8265328,-2.1163568,9.105146,2.964413
1409350863214,-0.089782566,9.982624,4.0701427,-2.0557222,9.131473,2.9258516
1409350863224,-0.6039374,9.774328,2.9771898,-1.9907043,9.161532,2.8764265
1409350863242,-1.7316064,9.011177,1.7543513,-1.9224516,9.200734,2.7966213
1409350863244,-2.735974,7.7201033,1.246182,-1.8613936,9.2467165,2.6840003
1409350863256,-3.4691982,6.7630215,0.6745663,-1.801716,9.296059,2.5509872
1409350863272,-4.976947,9.088389,0.7302315,-1.7365327,9.349313,2.396912
1409350863285,-5.929839,12.886192,1.1605892,-1.6744232,9.404852,2.217085
1409350863287,-6.6229606,18.224064,1.6370354,-1.6103935,9.459117,2.0253725
1409350863304,-5.8909335,19.608511,1.335366,-1.5396389,9.507571,1.8455333
1409350863305,-4.4723687,19.608511,0.9127894,-1.4352336,9.550194,1.7041913
1409350863315,-3.4985273,18.769344,1.4999673,-1.2960607,9.586551,1.6089402
1409350863323,-2.6330233,14.838065,2.6264393,-1.158219,9.612864,1.5562085
1409350863339,-1.5927427,11.489176,4.207211,-1.0315782,9.622184,1.5873933
1409350863354,-0.9816227,9.090185,5.4282537,-0.93369365,9.6132765,1.6981008
1409350863356,-1.7298107,6.835446,6.0010667,-0.8567645,9.592209,1.8509151
1409350863374,-3.204639,6.4625487,5.873575,-0.7939073,9.568873,1.9941798
1409350863375,-3.2261868,8.59279,5.227141,-0.74308866,9.553872,2.0836804
1409350863382,-2.0949266,8.696938,3.7720647,-0.6800007,9.555151,2.0992997
1409350863407,-1.1629834,7.656657,2.741361,-0.57149994,9.574135,2.044438
1409350863409,-0.08439561,8.038532,2.4768016,-0.42833793,9.600443,1.9540725
1409350863414,0.6859388,8.362348,2.167351,-0.27360883,9.623779,1.8650494
1409350863423,0.961272,8.763975,1.9369092,-0.121485405,9.640472,1.7935835
1409350863445,0.7787141,8.625112,1.3826514,0.022464337,9.65244,1.7321407
1409350863448,0.49799395,7.5800424,0.6560113,0.14655969,9.659069,1.6885723
1409350863455,0.8702923,6.707356,0.46986207,0.24720462,9.661447,1.6630534
1409350863483,0.61890113,5.919065,0.66618663,0.3365292,9.659024,1.6614344
1409350863485,0.41359833,5.5982423,0.9540894,0.4195912,9.651108,1.6883272
1409350863488,0.3357868,5.4887075,1.091756,0.49666142,9.638385,1.7393203
1409350863502,0.26036942,5.5120506,1.067814,0.56976527,9.622465,1.803866
1409350863504,0.33159694,5.6682725,1.0815806,0.6416423,9.604761,1.8727627
1409350863517,0.40043023,5.93343,1.2234371,0.70927346,9.586647,1.9399853
1409350863524,0.42078096,6.109404,1.4077905,0.7689782,9.569041,2.00313
1409350863538,0.50757074,6.1926026,1.6053122,0.8189004,9.553106,2.0586264
1409350863556,0.7356185,6.3769565,1.7615339,0.8657485,9.538015,2.1088207
1409350863558,0.93134445,6.6247563,1.87047,0.9025078,9.526112,2.1468792
1409350863562,1.1294646,6.88333,2.042254,0.92910606,9.518034,2.1712146
1409350863598,1.3742718,7.021595,2.2200236,0.91473585,9.520795,2.1652014
1409350863600,1.6160861,7.1885905,2.5169046,0.91473585,9.520795,2.1652014
1409350863602,1.9387048,7.5225816,2.9472623,0.91473585,9.520795,2.1652014
1409350863608,2.36188,8.209119,3.401562,0.8744496,9.529017,2.145589
1409350863634,2.7257986,9.252991,3.9234982,0.81795925,9.539192,2.12253
1409350863636,2.973,10.396821,4.305373,0.7488144,9.55002,2.0992384
1409350863637,3.3482912,10.6117,3.8672342,0.6753165,9.560546,2.076131
1409350863662,2.6324248,8.954314,3.1352072,0.6080173,9.571512,2.0461876
1409350863663,0.1448492,13.0202675,5.04997,0.53578687,9.583796,2.0085273
1409350863664,-0.56563014,15.069105,4.3358994,0.44659552,9.592695,1.9877543
1409350863686,0.12509704,14.027029,2.1942859,0.35801739,9.600352,1.9686201
1409350863687,2.15957,13.561955,0.61770403,0.31559923,9.607885,1.9388965
1409350863702,4.3544545,12.167333,0.8002619,0.35225287,9.614473,1.8995264
1409350863703,5.8759694,9.612122,2.3971944,0.45191255,9.612311,1.8893478
1409350863717,6.0507464,8.587403,5.9531827,0.5826074,9.597206,1.929918
1409350863735,4.5567646,10.926538,8.959702,0.7355674,9.570859,2.0069852
1409350863736,2.3870192,16.861166,7.138911,0.89450365,9.540682,2.0846238
1409350863749,0.3274071,18.748394,3.6882677,1.0244918,9.525562,2.0939112
1409350863754,-2.1200657,16.16565,3.6828809,1.1130853,9.526771,2.0425653
1409350863766,-3.5715504,13.381792,3.1238346,1.1544551,9.525865,2.0237417
1409350863781,-3.5464113,11.13603,1.0636241,1.1536268,9.514724,2.0759468
1409350863782,-3.3752258,9.896433,2.0530279,1.1311927,9.497168,2.1667047
1409350863802,-3.0597897,9.9233675,1.9656396,1.0834519,9.480516,2.2619298
1409350863803,-2.9987376,10.09994,0.20410569,1.0104223,9.47667,2.3113136
1409350863816,-3.1441853,9.669582,-0.4830302,0.92407435,9.491294,2.2873201
1409350863832,-3.0963013,9.413403,0.14903906,0.84007984,9.5144825,2.2224534
1409350863834,-2.2254105,10.266935,0.025737667,0.7700988,9.533906,2.1637914
1409350863849,-1.590947,10.296863,0.30526072,0.715913,9.5498085,2.1116335
1409350863864,-0.5386954,10.029909,0.87687635,0.6666232,9.564088,2.0625856
1409350863865,0.4417302,10.034698,1.0480618,0.6194902,9.577132,2.016224
1409350863882,0.51954174,10.280702,1.122282,0.5665402,9.59007,1.9697661
1409350863883,0.21188685,10.061034,1.246182,0.49937513,9.602354,1.9276491
1409350863899,0.107739076,9.434352,1.0348936,0.4188586,9.610806,1.9045558
1409350863902,0.08738836,8.839393,0.79008657,0.3289402,9.614816,1.9019794
1409350863916,-0.007182605,8.627506,0.89603,0.23260972,9.618378,1.8981847
1409350863933,-0.32561144,8.800487,1.0929531,0.12873384,9.625545,1.8715522
1409350863934,-0.7278373,8.831013,1.2773066,0.016135745,9.635675,1.8231539
1409350863948,-1.1785458,8.3868885,0.9840169,-0.10303925,9.644829,1.7711678
1409350863955,-1.4095862,7.727885,0.3645172,-0.22326066,9.650478,1.7288225
1409350863969,-1.4395138,7.192182,-0.14903906,-0.34137943,9.65367,1.6913017
1409350863984,-1.690905,7.135918,0.002992752,-0.44710118,9.653937,1.6649262
1409350863985,-2.166154,7.5920134,0.9792285,-0.5359185,9.652412,1.647461
1409350864000,-2.574964,8.358757,1.6196774,-0.60807365,9.648491,1.6453792
1409350864003,-2.397793,9.041702,1.4251486,-0.6707867,9.641305,1.6630259
1409350864017,-2.0021513,8.768166,0.12270284,-0.728609,9.631422,1.6956486
1409350864033,-2.0039468,7.93618,-0.08379706,-0.79013157,9.620625,1.7290689
1409350864037,-1.763928,7.8625584,0.18674773,-0.868887,9.608783,1.7569116
1409350864055,-1.050456,8.073847,0.32321724,-0.962802,9.5975485,1.7693101
1409350864056,0.013766659,8.424597,0.21667525,-1.0555019,9.588902,1.7633066
1409350864062,0.89303726,9.017162,0.47046062,-1.1361797,9.582539,1.7477
1409350864085,1.6370354,9.63726,1.0319009,-1.205267,9.576586,1.7339892
1409350864086,1.9177556,9.653421,1.7764976,-1.2630498,9.569741,1.730653
1409350864107,1.9213469,9.862315,2.5151088,-1.3119925,9.559905,1.7485158
1409350864109,1.7669208,9.848549,2.8161798,-1.3520277,9.545378,1.7967187
1409350864114,1.3090298,9.496601,2.6246436,-1.3856026,9.524566,1.8796657
1409350864144,0.8182184,9.090784,2.2655134,-1.4223204,9.497277,1.9872417
1409350864146,0.4842273,9.036316,1.9057846,-1.4696087,9.466568,2.0963624
1409350864147,0.6063316,9.196129,1.7423803,-1.5271149,9.436647,2.1881483
1409350864183,1.1492168,9.178771,1.774702,-1.5854423,9.410039,2.2600682
1409350864185,1.5544355,8.780136,1.9243397,-1.6357229,9.38645,2.321504
1409350864187,1.6723499,8.480861,2.6809072,-1.6772891,9.363983,2.3817933
1409350864189,1.5508442,8.432379,3.2040405,-1.7146624,9.340176,2.4477422
1409350864215,0.85891986,8.429385,3.0412347,-1.7468183,9.315491,2.5180645
1409350864217,0.035314474,8.793304,1.9231426,-1.7790525,9.291815,2.58216
1409350864219,0.51595044,9.431359,0.96187055,-1.8148142,9.272311,2.6269927
1409350864245,1.596334,9.928755,1.1085154,-1.8468951,9.2578745,2.6553955
1409350864246,1.9099745,9.97185,1.9069817,-1.8693953,9.246586,2.6788871
1409350864247,1.0773908,10.253767,2.3265655,-1.8872216,9.235117,2.7058065
1409350864267,0.24839842,10.487801,2.4331074,-1.908353,9.222409,2.7341857
1409350864268,-0.516549,10.755951,2.3732524,-1.9310522,9.209414,2.7619076
1409350864285,-0.7128736,10.750565,2.6210523,-1.94949,9.199403,2.7822444
1409350864287,-0.4381389,10.368091,3.0556,-1.9622692,9.191508,2.7992945
1409350864302,-0.40940848,9.849147,2.871845,-1.9577382,9.191172,2.8035724
1409350864305,-0.581791,9.664794,1.8309658,-1.9335463,9.201215,2.7873714
1409350864316,0.3429694,9.4972,2.2050598,-1.8883373,9.222299,2.7484124
1409350864333,0.6039374,9.268554,2.871845,-1.8169942,9.250854,2.7001195
1409350864350,-0.034715924,8.645462,1.9207484,-1.7353134,9.28338,2.641575
1409350864351,-1.4628572,7.2765775,1.1198878,-1.659464,9.320418,2.5585842
1409350864364,-2.5246856,6.1357403,0.9223662,-1.5907322,9.360359,2.4543068
1409350864365,-3.5883098,6.151303,0.7158663,-1.5175928,9.403647,2.3321056
1409350864383,-4.9775453,7.7081323,1.003769,-1.4395981,9.448582,2.1959565
1409350864384,-6.279991,11.3323555,1.7124528,-1.3645498,9.490067,2.0608354
1409350864399,-6.949769,19.605518,1.1049241,-1.3013968,9.525552,1.9340624
1409350864404,-5.651513,19.608511,0.11192893,-1.2435569,9.560429,1.7950432
1409350864416,-4.224569,19.585768,0.90859956,-1.1413,9.594927,1.6748705
1409350864430,-3.394978,17.213114,2.4223335,-1.0054442,9.624006,1.5931088
1409350864434,-2.397793,13.7445135,3.9600096,-0.87535983,9.638476,1.5823714
1409350864449,-1.5586253,11.170747,5.2606597,-0.76744187,9.635262,1.656249
1409350864464,-1.917157,8.46889,5.81372,-0.67942005,9.6185875,1.7864863
1409350864465,-2.932897,6.742072,5.6126075,-0.6109362,9.597476,1.9197978
1409350864480,-3.520075,7.2843585,5.037999,-0.5609479,9.582069,2.0098932
1409350864483,-3.3393128,8.805874,4.2479124,-0.51408774,9.578758,2.0380142
1409350864495,-2.445677,8.44016,3.1866825,-0.44142103,9.583521,2.0326436
1409350864503,-1.7238252,6.8504095,2.428319,-0.34511656,9.597873,1.9829623
1409350864518,-0.54647654,7.281366,2.6677392,-0.2157105,9.614799,1.9182004
1409350864537,0.47884035,8.048109,2.7323828,-0.07250563,9.628115,1.8613302
1409350864538,0.96905315,8.174403,2.3995886,0.07605609,9.636035,1.8197414
1409350864545,0.84335756,7.518392,1.7405846,0.21694311,9.639501,1.7897948
1409350864569,0.93852705,6.8444242,1.377863,0.33316264,9.640591,1.7659124
1409350864571,1.3718776,6.6786256,1.2773066,0.42953283,9.639582,1.7505231
1409350864575,1.328782,6.187216,1.246182,0.5205274,9.635422,1.7487379
1409350864583,1.0127473,5.5419784,1.2737153,0.6095286,9.627626,1.7628627
1409350864607,0.931943,5.547964,1.2258313,0.69348073,9.617138,1.7888973
1409350864608,0.91578215,5.469554,1.0019734,0.7755415,9.605299,1.81856
1409350864615,0.9552865,5.5641246,0.94690675,0.8524413,9.592466,1.8515803
1409350864638,1.1186907,5.7748146,1.1210849,0.91974103,9.579632,1.885504
1409350864640,1.2814964,5.8364654,1.3365631,0.9747248,9.567801,1.9176803
1409350864645,1.3263878,5.977723,1.4927847,1.0167532,9.55772,1.9459211
1409350864666,1.3946224,6.2985463,1.5346833,1.0442127,9.550586,1.9662992
1409350864667,1.5664065,6.6965823,1.7010803,1.0570644,9.547304,1.9753475
1409350864683,1.6448165,6.9318123,2.0512323,1.0550357,9.548122,1.9724793
1409350864684,1.6065093,7.0874357,2.4343045,1.0363964,9.552886,1.959253
1409350864701,1.6310499,7.302315,2.730587,0.99974775,9.56106,1.9383044
1409350864718,1.8435353,7.784148,3.064578,0.9436016,9.572226,1.9111493
1409350864719,2.2505496,8.777742,3.4320881,0.87866354,9.583766,1.8840812
1409350864735,2.5486276,10.192117,3.8193502,0.7984092,9.596136,1.8566403
1409350864736,2.542642,11.218631,3.834314,0.70605963,9.60804,1.8323283
1409350864751,2.6509798,10.745177,3.3279405,0.60643125,9.619078,1.8099661
1409350864772,2.1655555,9.39365,3.2495303,0.51111215,9.629028,1.7863239
1409350864774,-1.685518,14.987104,4.109049,0.42217106,9.6365,1.7691933
1409350864775,-1.2689269,14.96017,2.391209,0.30250925,9.640746,1.7705636
1409350864783,0.3298013,13.257892,0.107739076,0.21907903,9.644175,1.7641697
1409350864798,3.2998085,12.084134,-1.0654198,0.21298286,9.648712,1.7399372
1409350864815,5.81791,10.243592,-0.2088941,0.2937357,9.651069,1.7149311
1409350864817,6.9581485,8.574235,2.9843724,0.4268121,9.646374,1.7133839
1409350864836,6.457162,8.834604,8.402451,0.58247465,9.629642,1.7609981
1409350864837,5.055357,13.299191,10.00477,0.7590841,9.59962,1.8551302
1409350864843,4.771045,19.239805,5.901707,0.9389175,9.569786,1.9256215
1409350864866,3.1974564,19.574394,3.5727475,1.1050631,9.560555,1.882813
1409350864867,-0.9552865,16.728886,4.56694,1.214968,9.560791,1.812599
1409350864883,-3.394978,14.162302,1.7429788,1.2307,9.555543,1.8295777
1409350864884,-4.0665517,12.068572,0.10474633,1.1911347,9.548927,1.8893355
1409350864896,-4.298789,10.061633,1.6238673,1.1239319,9.541826,1.9648753
1409350864913,-3.83192,9.945514,1.5771804,1.0345266,9.533753,2.0512686
1409350864915,-3.5583823,9.185953,0.33039984,0.9329789,9.53161,2.109112
1409350864933,-3.3159695,8.048109,-0.015562311,0.8365872,9.533784,2.1395068
1409350864951,-3.1800983,7.745841,0.3812766,0.74570084,9.540703,2.1422691
1409350864953,-3.0184898,8.193557,0.4938041,0.6685866,9.547305,2.1383054
1409350864965,-1.6705543,9.780912,0.81343,0.60566294,9.553945,2.127374
1409350864966,-0.3842694,9.762358,1.2557588,0.55339813,9.562849,2.1014423
1409350864983,0.4249708,9.613318,1.5586253,0.5048642,9.572696,2.0685785
1409350864984,0.3465607,9.786898,1.8058267,0.4498438,9.581765,2.0390794
1409350864996,0.20290859,9.912594,2.046444,0.38018376,9.588662,2.0207498
1409350865028,-0.054468088,9.849147,1.7603368,0.2987577,9.592234,2.0174701
1409350865033,-0.5566519,9.792884,1.2204443,0.20945993,9.594122,2.0197434
1409350865038,-1.3557167,9.651626,0.92895025,0.11200115,9.597959,2.009242
1409350865041,-2.1284454,9.270349,0.7104794,0.0055244993,9.603139,1.9874858
1409350865070,-2.558803,8.651448,0.54527944,-0.10985967,9.61041,1.9489335
1409350865073,-2.7060466,8.048708,0.31244332,-0.23303847,9.61586,1.910841
1409350865076,-2.6180596,7.769783,0.15263036,-0.3592381,9.617556,1.8825424
1409350865079,-2.5839422,7.743447,0.30226797,-0.47805193,9.616771,1.8599838
1409350865088,-2.4588451,8.286931,0.6985083,-0.5801849,9.615469,1.8375287
1409350865102,-2.2296004,8.853159,1.1025299,-0.65909106,9.613597,1.8206494
1409350865104,-1.9422961,9.22067,1.0486604,-0.71773005,9.6092615,1.8213617
1409350865117,-1.8016368,9.101558,0.91458505,-0.7650935,9.601102,1.8449538
1409350865136,-1.7962499,8.756194,0.7230489,-0.8134665,9.58858,1.8888643
1409350865137,-1.934515,8.576629,0.587178,-0.87515527,9.573544,1.9369477
1409350865144,-1.9512744,8.197148,0.7906851,-0.9471089,9.558007,1.9793633
1409350865171,-1.5514427,7.9810715,0.8050503,-1.038656,9.543091,2.0052447
1409350865172,-0.6781576,7.9631147,0.7338228,-1.144572,9.528452,2.0171642
1409350865178,0.15562311,8.422802,0.8655039,-1.2538854,9.512501,2.0274372
1409350865184,0.7781156,8.370728,1.0636241,-1.352961,9.495684,2.0425148
1409350865207,1.0947487,8.343194,1.4478935,-1.431865,9.479489,2.0638428
1409350865210,1.1336545,7.9906483,2.0111294,-1.4926054,9.462388,2.0989828
1409350865216,1.5478514,7.788338,2.4881742,-1.5438781,9.439913,2.1621475
1409350865256,1.7357962,7.716512,2.6641479,-1.5912132,9.410137,2.255604
1409350865258,1.7076644,7.7733746,2.48578,-1.6416413,9.37606,2.3590038
1409350865260,1.6196774,7.8835077,2.2212207,-1.6981589,9.340936,2.456336
1409350865263,1.5759833,8.040328,2.0135236,-1.7634168,9.307224,2.5369935
1409350865271,1.2850877,8.143877,2.0242975,-1.836148,9.276288,2.5979693
1409350865276,0.84216046,8.255207,2.2385786,-1.9098166,9.248761,2.642615
1409350865285,0.46986207,8.577228,2.5091233,-1.9787706,9.223702,2.6792107
1409350865330,0.26994625,8.942942,2.9281087,-2.039417,9.199234,2.7175832
1409350865333,-0.17537527,9.295488,2.9867666,-2.091873,9.174049,2.7624772
1409350865335,-0.7613561,9.7084875,2.777274,-2.1407814,9.149628,2.8056645
1409350865337,-0.8888474,10.160992,1.4431051,-2.1896338,9.128149,2.837749
1409350865362,0.98341835,9.993398,1.2521675,-2.2341926,9.113414,2.8503463
1409350865364,1.5795746,9.876082,2.1080947,-2.2572756,9.103778,2.862923
1409350865366,1.352724,9.934141,2.8820202,-2.270089,9.093676,2.8848145
1409350865368,0.7062895,9.850943,3.1112652,-2.2755284,9.082123,2.9167485
1409350865389,0.0700304,9.937134,3.4793737,-2.2793543,9.068875,2.9547305
1409350865393,-0.35314476,9.897031,4.701015,-2.2794452,9.054485,2.998469
1409350865397,-0.96187055,9.3733,5.269039,-2.2707229,9.039893,3.048698
1409350865418,-1.0139444,9.1751795,4.5166616,-2.2522767,9.030492,3.0899646
1409350865420,-0.40462008,9.452309,4.091092,-2.2107685,9.036341,3.102811
1409350865424,-0.07182605,9.840169,3.6343982,-2.137005,9.058907,3.0886607
1409350865453,0.04070143,10.3639,2.2720973,-2.0445306,9.094371,3.0467567
1409350865455,-0.14844051,10.201095,1.0313023,-1.9481467,9.142988,2.963255
1409350865456,-0.93613285,9.139865,0.49679685,-1.8631405,9.196423,2.8504221
1409350865464,-1.7842789,7.8332295,0.07182605,-1.7813185,9.253391,2.7151496
1409350865487,-2.653374,7.315483,-0.4782418,-1.7040373,9.311241,2.5627027
1409350865489,-3.7104142,8.412027,-0.4333505,-1.6243627,9.371043,2.390686
1409350865496,-5.20679,11.328165,0.5057751,-1.5427681,9.429571,2.2075884
1409350865523,-6.8204823,16.180614,1.2575544,-1.465787,9.480219,2.0364916
1409350865525,-7.1305313,19.608511,-0.01316811,-1.4026097,9.520135,1.8894768
1409350865526,-6.311714,19.209278,0.15562311,-1.3363928,9.556745,1.747304
1409350865555,-5.4940944,16.239271,1.8561049,-1.2519724,9.585363,1.6503847
1409350865556,-4.3400893,12.33373,3.5954924,-1.1664333,9.597323,1.6435362
1409350865557,-2.6791117,9.427169,4.9081135,-1.0924813,9.590716,1.7306188
1409350865564,-2.0937295,7.355586,5.9501896,-1.0103812,9.576005,1.8573155
1409350865585,-3.728969,6.4427967,6.4104753,-0.9432069,9.55266,2.0068445
1409350865586,-4.0857053,8.937555,6.054936,-0.8933903,9.530387,2.1316602
1409350865598,-2.5181017,9.193734,4.6220064,-0.84572226,9.520894,2.1926544
1409350865615,-1.1318588,7.739257,3.157952,-0.755535,9.533201,2.1720126
1409350865618,-0.16460137,6.76362,2.2337902,-0.61446434,9.560644,2.0944915
1409350865635,0.89902276,7.215525,2.1505916,-0.4535066,9.589831,1.9999638
1409350865636,2.0518308,8.913613,2.6078842,-0.29149434,9.612903,1.9176884
1409350865644,2.5893292,9.355343,2.2397757,-0.12240873,9.62858,1.8563042
1409350865667,2.2984335,8.7771435,1.3072342,0.041685324,9.638131,1.8097268
1409350865668,1.7729063,7.5525093,0.7116765,0.17800182,9.643233,1.7739128
1409350865676,1.5448587,6.6175733,0.75477207,0.2937853,9.645468,1.7461519
1409350865707,1.2473791,5.6784477,0.9068039,0.38834122,9.642845,1.7421602
1409350865708,1.0342951,5.397129,1.0307038,0.4721906,9.634939,1.7650493
1409350865710,0.30226797,5.020641,0.93613285,0.55222225,9.622413,1.8095918
1409350865735,0.22146365,4.985925,0.75716627,0.62617415,9.607173,1.8656244
1409350865737,0.219668,5.1146135,0.65301853,0.6927692,9.591103,1.9238482
1409350865739,0.22266077,5.3085437,0.8146271,0.74867076,9.575399,1.9803073
1409350865745,0.17896658,5.4007206,1.0468647,0.79429585,9.560368,2.034425
1409350865765,0.3705027,5.6108117,1.3682863,0.8306244,9.546827,2.0829184
1409350865768,0.6380547,5.931635,1.6095021,0.85909784,9.5356455,2.1222177
1409350865785,1.0097545,6.3847375,1.846528,0.8854055,9.525827,2.1552453
1409350865786,1.2808979,6.688801,2.1637597,0.90080565,9.519846,2.1751974
1409350865796,1.377863,6.695385,2.7455509,0.9013938,9.5184965,2.1808524
1409350865812,1.508347,6.697779,3.1974564,0.8807525,9.521862,2.1745844
1409350865817,1.8148049,7.1395097,3.4284968,0.83648854,9.529858,2.1569705
1409350865840,2.2092497,8.319851,3.7361517,0.7707135,9.542296,2.1262562
1409350865842,2.5312698,9.99639,4.1299977,0.6886082,9.557971,2.0836074
1409350865845,2.7096379,11.261127,4.1060557,0.5967567,9.575154,2.0324097
1409350865865,2.9622262,11.191097,3.5936968,0.50595415,9.5929165,1.9723942
1409350865867,2.9520507,10.053253,3.079542,0.42839256,9.610588,1.9035419
1409350865876,1.7908629,12.454638,3.7415388,0.36488634,9.625956,1.837993
1409350865903,0.10654198,16.712725,3.690662,0.29990476,9.637869,1.7866023
1409350865906,0.9343372,13.809755,-0.023343466,0.23134898,9.645586,1.7548649
1409350865909,3.028665,12.424709,-0.29568392,0.21161672,9.654922,1.7053176
1409350865920,4.6938324,11.416152,1.6106992,0.25788298,9.658919,1.6760578
1409350865947,5.2840033,11.709442,6.779781,0.35031107,9.65149,1.7018796
1409350865951,4.1641154,15.24089,9.449914,0.47976163,9.625764,1.8124315
1409350865952,2.7096379,19.53908,5.261258,0.6316232,9.588418,1.957986
1409350865979,-0.5638345,19.608511,2.492364,0.7855732,9.56851,1.9992242
1409350865980,-4.819528,17.736845,2.8772318,0.8983382,9.565343,1.9666253
1409350865984,-5.979519,14.292786,0.8319851,0.9329731,9.564693,1.9536097
1409350866003,-5.4581814,11.047445,-0.11851298,0.9334985,9.557071,1.990323
1409350866004,-4.883573,7.7823524,1.0301052,0.93396896,9.540726,2.067034
1409350866005,-3.9959226,7.083844,2.2379801,0.9169135,9.512495,2.2004793
1409350866027,-3.1627405,6.553529,1.7501614,0.8689605,9.486282,2.3293235
1409350866028,-2.6408045,6.2422824,1.6861166,0.8111241,9.472779,2.4039395
1409350866048,-2.2493525,6.7534447,1.9794062,0.7478294,9.472773,2.4244
1409350866051,-1.9153614,7.7105265,1.6645688,0.70966923,9.480572,2.405313
1409350866069,-1.471237,8.66701,1.0432734,0.6839879,9.4922085,2.3665438
1409350866071,-0.51475334,9.564238,0.6997054,0.6554618,9.508157,2.3099155
1409350866077,0.38606504,10.020931,0.47405192,0.61502457,9.527706,2.2394104
1409350866101,0.4177882,10.820595,0.47644615,0.560776,9.549026,2.1614842
1409350866102,5.985504E-4,11.235989,0.9223662,0.49454403,9.570406,2.0816178
1409350866104,-0.17836803,11.122264,0.9900024,0.411423,9.590257,2.0070152
1409350866133,-0.32022446,10.626664,0.83138657,0.31677157,9.605807,1.948978
1409350866134,-0.54887074,9.936536,0.97503865,0.21439083,9.616475,1.9099306
1409350866138,-0.700304,9.482835,1.2276269,0.1068218,9.624761,1.8769631
1409350866145,-0.7188591,9.044097,1.4275428,-0.0045233043,9.632494,1.8399564
1409350866172,-0.8170213,8.805874,1.2617443,-0.11680399,9.63817,1.8062166
1409350866174,-0.7858967,8.72088,0.86729956,-0.22712658,9.641398,1.778271
1409350866177,-0.57640404,8.526351,0.4213795,-0.32849467,9.643554,1.7505287
1409350866203,-0.6512229,8.282741,0.42078096,-0.41421124,9.64565,1.7205453
1409350866205,-0.8738836,8.255806,0.86251116,-0.48393664,9.646553,1.6971151
1409350866207,-1.1019313,8.251018,1.2779051,-0.5456913,9.645449,1.6846205
1409350866234,-1.3784616,8.300697,1.448492,-0.5948116,9.639817,1.7001487
1409350866236,-1.6573862,8.100781,1.3940239,-0.63851607,9.628536,1.7475598
1409350866237,-1.7190368,7.965509,1.0354922,-0.68862367,9.6127,1.8144364
1409350866246,-1.6597804,7.8290396,0.6171055,-0.7540991,9.595976,1.8758974
1409350866271,-1.6879122,7.6829934,0.51834464,-0.8385346,9.5819235,1.9115355
1409350866273,-1.3922282,7.6428905,0.7200562,-0.9414028,9.57071,1.9198065
1409350866277,-0.55844754,8.008006,0.760159,-1.0546273,9.560394,1.9123281
1409350866301,0.33399114,7.946954,0.89184016,-1.1645726,9.550823,1.896302
1409350866303,0.9828198,8.153454,1.4317327,-1.2586869,9.542108,1.8799701
1409350866305,1.240795,8.555679,2.0829554,-1.3301517,9.534183,1.8709491
1409350866334,1.3940239,9.217078,2.309806,-1.3872397,9.523405,1.8843343
1409350866335,1.6645688,9.789292,2.1260512,-1.4293876,9.507792,1.9310958
1409350866337,1.4024036,9.787497,1.8740613,-1.4627947,9.485648,2.0132291
1409350866345,0.9008184,9.267955,1.5783775,-1.5039686,9.456094,2.1191401
1409350866368,0.6536171,8.918402,1.365892,-1.5636791,9.420615,2.230987
1409350866369,0.7589619,8.689755,1.3605051,-1.6389577,9.382868,2.3336682
1409350866378,1.1121067,8.935161,1.4682442,-1.7178096,9.347456,2.4175656
1409350866393,1.3425486,9.248801,2.0242975,-1.7845501,9.3185215,2.4801033
1409350866396,1.4107834,9.112331,3.0502129,-1.829574,9.295682,2.5324578
1409350866411,1.1540052,8.767567,3.4751837,-1.8577415,9.272774,2.595157
1409350866427,0.6398504,8.334815,3.6864722,-1.881609,9.247552,2.6669712
1409350866428,0.25258827,8.002619,3.0813377,-1.9079415,9.218936,2.7461567
1409350866446,0.53091425,7.7679873,1.6783354,-1.9389209,9.191061,2.816977
1409350866448,1.6873137,7.6746135,0.7918822,-1.9730546,9.169369,2.863585
1409350866459,1.965041,8.370728,2.4073699,-2.0027223,9.156531,2.8839962
1409350866477,0.694917,9.46847,2.677316,-2.0258358,9.14866,2.8928194
1409350866478,-0.6278794,10.532093,2.2535424,-2.0509706,9.145327,2.88564
1409350866501,-1.3126211,11.580753,2.0925324,-2.0753982,9.146935,2.8629832
1409350866502,-1.42455,11.876437,2.6952724,-2.088227,9.154376,2.8296816
1409350866505,-1.5304934,11.287464,3.1621418,-2.0846806,9.16572,2.7953672
1409350866542,-1.5586253,10.510546,2.492364,-2.068471,9.179641,2.7615266
1409350866545,-1.050456,10.571598,2.7665,-2.0462725,9.196509,2.721652
1409350866547,-0.4249708,10.580576,3.846285,-1.9990786,9.219402,2.6789324
1409350866548,-0.42676646,10.006566,3.027468,-1.9287776,9.24529,2.6409922
1409350866571,-1.2443863,9.372701,1.6101006,-1.8522872,9.275451,2.5894887
1409350866572,-2.0560207,8.310873,0.9935937,-1.7789377,9.312021,2.5083942
1409350866577,-3.0681696,7.0844426,0.64583594,-1.7073207,9.353831,2.400272
1409350866603,-4.2622776,7.0664864,0.24121583,-1.6339623,9.399688,2.268577
1409350866604,-5.4563856,9.226056,0.25977087,-1.5584426,9.449102,2.1109507
1409350866605,-6.517616,13.4260845,1.0390835,-1.4826167,9.498893,1.9347565
1409350866630,-7.8547773,18.668787,1.5676036,-1.4087247,9.5422945,1.7693163
1409350866631,-7.5291657,19.608511,0.4345476,-1.3463722,9.578706,1.6143382
1409350866637,-5.9747305,19.608511,-0.79367787,-1.2697291,9.609442,1.4888936
1409350866646,-4.2155905,14.911088,1.8267759,-1.1660076,9.636967,1.3927261
1409350866672,-2.9951463,11.150994,3.7445314,-1.0577749,9.647809,1.4040321
1409350866674,-1.7609353,8.686762,5.333084,-0.9733898,9.641202,1.5066936
1409350866681,-2.7688942,5.557541,6.184223,-0.9035171,9.621239,1.6690708
1409350866706,-4.2538977,6.0321913,6.190807,-0.8475328,9.596213,1.8343254
1409350866708,-3.3746274,8.812458,5.3366756,-0.8036141,9.577203,1.9498161
1409350866710,-1.8848352,8.539519,3.751714,-0.7346232,9.576048,1.9824278
1409350866739,-0.9504981,7.0371575,2.5570073,-0.60637903,9.59444,1.9363463
1409350866742,0.37828386,7.5465236,2.3247697,-0.44240278,9.620379,1.850127
1409350866745,1.2401965,7.8027034,2.3714569,-0.27294528,9.643738,1.7590405
1409350866747,1.6274586,8.528147,2.4001873,-0.099154204,9.660542,1.6836015
1409350866777,1.3269863,8.488044,1.8154035,0.06678662,9.669797,1.6312426
1409350866779,1.122282,7.630321,1.0564415,0.21160416,9.674057,1.5931749
1409350866780,1.3066356,7.171831,0.85652566,0.33207697,9.674987,1.5667652
1409350866807,1.2090719,6.349423,0.85173726,0.43650663,9.672134,1.5587318
1409350866808,0.9151836,5.7083755,0.9696517,0.5312672,9.664753,1.5750324
1409350866809,0.6931214,5.5060654,1.1228806,0.61911196,9.653574,1.6110895
1409350866830,0.49320555,5.1996074,1.073201,0.7023979,9.639969,1.6577222
1409350866831,0.5201403,5.01286,0.6206968,0.7796075,9.625391,1.7071733
1409350866837,0.61052144,4.8997335,0.58298814,0.8459842,9.611245,1.754614
1409350866846,0.7044938,5.0116625,0.599149,0.9054353,9.597143,1.8015007
1409350866868,0.91937345,5.1624975,0.7236475,0.95167005,9.584481,1.8445642
1409350866872,1.2030864,5.3582234,0.98940384,0.98602355,9.573879,1.881214
1409350866877,1.6112977,5.734113,1.6154876,1.0105884,9.565776,1.909199
1409350866901,1.858499,6.1345434,2.321777,1.0250618,9.5605755,1.927436
1409350866903,1.9482816,6.4607534,2.8790276,1.0253935,9.558886,1.9356312
1409350866905,2.2068555,6.989872,3.2363622,1.0067569,9.561326,1.9333622
1409350866927,2.7443538,7.9834657,3.4799721,0.967516,9.568223,1.919216
1409350866928,3.4356794,9.636662,3.752911,0.9098157,9.578992,1.8935559
1409350866946,3.8361096,11.367071,4.035427,0.8397601,9.592213,1.8586679
1409350866947,3.8815994,12.506113,4.009091,0.7626965,9.605968,1.8204573
1409350866957,4.0360255,12.022484,3.5541923,0.6879866,9.620508,1.7728134
1409350866976,3.608062,10.50037,3.4093432,0.61940414,9.634969,1.7187574
1409350866977,1.6316484,13.667899,4.483143,0.5595814,9.64658,1.6735513
1409350866997,-0.4345476,16.180614,4.469376,0.4922456,9.651298,1.6674978
1409350866999,-0.42916065,14.630368,2.3720553,0.41611284,9.650353,1.693496
1409350867006,0.6793547,12.680889,-0.48362875,0.38813284,9.649837,1.7030547
1409350867031,4.173692,11.4377,3.0107086,0.4201786,9.651127,1.6880636
1409350867033,3.5793316,12.385205,7.7614036,0.51641417,9.638944,1.7304575
1409350867040,2.043451,17.707516,6.773795,0.6351526,9.61012,1.8473196
1409350867046,0.22984336,19.608511,4.284424,0.7573609,9.584443,1.9326805
1409350867067,-3.1812954,18.078018,3.6433764,0.86116487,9.571886,1.9513558
1409350867068,-4.5603557,14.29099,2.6090813,0.91911685,9.571365,1.9273318
1409350867077,-4.0934863,10.842142,1.1887212,0.9571269,9.570243,1.9143568
1409350867101,-3.459023,7.8356237,2.520496,0.98435163,9.556837,1.9668081
1409350867102,-3.0591912,7.125743,3.8187518,0.99338454,9.5277,2.0991716
1409350867105,-2.3959973,7.838018,2.5600002,0.97349066,9.495946,2.2471566
1409350867127,-1.9614497,8.2995,0.7870938,0.9342728,9.478917,2.3340237
1409350867129,-1.8501194,8.921992,0.81881696,0.8852258,9.481826,2.341314
1409350867146,-1.9728222,9.69951,0.9175778,0.83572716,9.494633,2.3073537
1409350867147,-2.0284874,10.040684,0.6572084,0.794306,9.507406,2.2690818
1409350867158,-1.4024036,10.063428,0.7613561,0.75663906,9.518623,2.2346573
1409350867173,-0.32920274,9.806051,0.8050503,0.7200679,9.5292635,2.2011447
1409350867177,0.1933318,9.85633,0.6123171,0.6776703,9.5411215,2.162902
1409350867189,0.15562311,10.282497,0.7745243,0.6222392,9.554538,2.1199074
1409350867218,0.046686932,10.552444,1.4730326,0.55048174,9.566868,2.0838466
1409350867220,-0.2172738,9.14585,0.8643068,0.46303275,9.574639,2.0693624
1409350867222,-0.48602295,8.437765,1.0181342,0.36248553,9.580183,2.0637546
1409350867226,-0.79966336,8.344392,1.4131776,0.2530467,9.58713,2.0477526
1409350867253,-1.2186487,8.3868885,1.4784195,0.13903418,9.597098,2.011658
1409350867255,-1.4454993,8.27496,1.0839748,0.018659864,9.608722,1.9602358
1409350867257,-1.4203602,8.081029,0.3788824,-0.104727946,9.619929,1.9016781
1409350867279,-1.2922704,7.9786773,-0.06404489,-0.22385667,9.629798,1.8404464
1409350867280,-1.6406267,8.122928,0.14784196,-0.3362966,9.636898,1.7853539
1409350867285,-2.4265234,8.620323,0.557849,-0.43452075,9.640928,1.741856
1409350867315,-2.6126726,9.0016,1.0456676,-0.51880723,9.642007,1.7125812
1409350867317,-2.8101943,8.826823,1.0067618,-0.5877257,9.639067,1.7068645
1409350867319,-2.5629928,8.108562,0.7308301,-0.6483399,9.630662,1.732162
1409350867326,-1.9776106,7.915829,0.6206968,-0.7068881,9.616255,1.7883909
1409350867347,-1.75076,7.741651,0.664391,-0.77030224,9.597949,1.8591443
1409350867359,-1.4622587,7.805696,0.7410054,-0.84605014,9.579172,1.9219896
1409350867360,-0.8655039,8.081029,0.74878657,-0.93281317,9.563434,1.9598397
1409350867374,-0.11492168,8.382699,0.623091,-1.0231377,9.552236,1.9693617
1409350867377,0.6991069,8.527548,0.6404489,-1.1082904,9.54327,1.9667461
1409350867394,1.5496471,8.825626,1.1204864,-1.1882288,9.536677,1.952
1409350867424,2.0332758,9.714474,2.4594438,-1.257339,9.528677,1.947777
1409350867427,1.8656816,9.637859,2.5779567,-1.3119304,9.515309,1.9768987
1409350867429,1.6753427,9.486425,2.581548,-1.3597777,9.495791,2.037486
1409350867431,1.4287399,9.174581,2.2463598,-1.4067737,9.470328,2.1223245
1409350867453,1.1055226,8.918402,1.6250644,-1.4552865,9.441637,2.2154055
1409350867454,1.2671312,8.790312,1.1348516,-1.5044711,9.413461,2.3008125
1409350867459,1.6747441,8.732851,1.0714053,-1.5498374,9.388075,2.3732796
1409350867475,1.970428,8.817246,1.3760674,-1.5884538,9.364827,2.4386954
1409350867478,2.2050598,8.768166,1.845331,-1.6179382,9.342758,2.5031042
1409350867491,2.3020248,8.613141,2.4720132,-1.6426059,9.32008,2.5706732
1409350867514,2.2637177,8.3072815,3.2878375,-1.6629761,9.2956705,2.6448822
1409350867516,1.525705,8.075044,3.5344403,-1.6845386,9.268325,2.7259624
1409350867520,0.2777274,8.024766,3.5093012,-1.7153034,9.239448,2.8037024
1409350867526,-0.694917,8.3868885,3.1860838,-1.758788,9.210998,2.8695958
1409350867549,-0.89303726,8.933365,1.8614918,-1.8106403,9.185239,2.919482
1409350867550,-0.10175357,9.427169,0.6572084,-1.8648854,9.165567,2.9470232
1409350867558,1.0408791,9.846154,0.92775315,-1.9137303,9.154405,2.950407
