time,acc_x,acc_y,acc_z,gravity_x,gravity_y,gravity_z
1409526651194,1.2802993,9.494805,2.2780828,1.1380558,9.515835,2.0794473
1409526651195,1.287482,9.512762,2.2840683,1.1376593,9.515388,2.0817087
1409526651212,1.3156139,9.4972,2.2864625,1.1372093,9.515099,2.083277
1409526651221,1.3359646,9.512163,2.2930467,1.1367801,9.514979,2.0840602
1409526651237,1.3575124,9.504382,2.321777,1.1363163,9.514953,2.084432
1409526651238,1.389834,9.478046,2.3409307,1.1362923,9.514825,2.0850317
1409526651241,1.4083891,9.489418,2.3654714,1.1368911,9.514495,2.0862095
1409526651257,1.3988123,9.531317,2.4073699,1.1377347,9.513951,2.0882277
1409526651261,1.3904326,9.5253315,2.385822,1.1383497,9.513273,2.0909827
1409526651278,1.365892,9.526528,2.3582888,1.1394749,9.512405,2.094315
1409526651291,1.3682863,9.492412,2.3373394,1.1411242,9.511276,2.0985394
1409526651293,1.3844471,9.432556,2.307412,1.143128,9.510065,2.102931
1409526651307,1.3934253,9.394249,2.3241713,1.1454571,9.508886,2.106991
1409526651313,1.4143747,9.408614,2.3397336,1.1482226,9.507785,2.1104503
1409526651329,1.4065934,9.440337,2.3319526,1.1515446,9.506768,2.1132202
1409526651345,1.401805,9.441534,2.2948422,1.1551002,9.505884,2.115256
1409526651346,1.423353,9.4535055,2.3056161,1.1590239,9.505058,2.1168208
1409526651366,1.4520833,9.478644,2.328361,1.163645,9.504173,2.1182654
1409526651367,1.4598645,9.49301,2.355296,1.1686755,9.503242,2.1196723
1409526651374,1.4610616,9.487623,2.3463178,1.1737331,9.502163,2.1217105
1409526651394,1.4628572,9.489418,2.3588872,1.1786008,9.501205,2.1232967
1409526651396,1.4616601,9.482835,2.360683,1.1833571,9.500274,2.1248255
1409526651418,1.4526819,9.454702,2.3469162,1.1880968,9.499246,2.12677
1409526651419,1.4209588,9.449316,2.327164,1.1924778,9.498207,2.1289568
1409526651422,1.3826514,9.434352,2.3253684,1.1958234,9.497469,2.1303782
1409526651447,1.3299791,9.442732,2.2780828,1.1986171,9.496836,2.1316285
1409526651449,1.2826935,9.431957,2.2798786,1.2009614,9.496424,2.1321418
1409526651453,1.2635399,9.424176,2.2750902,1.2030963,9.496095,2.1324003
1409526651462,1.2395979,9.442732,2.2732944,1.2053204,9.495628,2.1332226
1409526651484,1.2431892,9.458893,2.3247697,1.2074426,9.495169,2.134069
1409526651485,1.2761095,9.51336,2.396596,1.2092313,9.494728,2.135016
1409526651493,1.3251907,9.576208,2.4570496,1.2115233,9.4943,2.1356227
1409526651521,1.3437457,9.591172,2.463035,1.2145334,9.493747,2.136372
1409526651522,1.3275849,9.49301,2.3660698,1.2179109,9.493164,2.1370337
1409526651523,1.3215994,9.446322,2.3523033,1.2208265,9.492718,2.137355
1409526651551,1.3311762,9.403826,2.3918076,1.2237928,9.492279,2.137613
1409526651553,1.3575124,9.385869,2.4378958,1.2268895,9.4918375,2.1377912
1409526651555,1.3640964,9.400234,2.4540567,1.2300857,9.491351,2.1381168
1409526651564,1.3820529,9.443929,2.469619,1.2335379,9.490735,2.1388638
1409526651592,1.3934253,9.51336,2.4929626,1.2369163,9.4900675,2.1398768
1409526651594,1.395221,9.548077,2.480393,1.240172,9.489311,2.141347
1409526651595,1.4221559,9.553463,2.469619,1.2437133,9.488432,2.1431835
1409526651613,1.4143747,9.55885,2.4570496,1.2477833,9.487448,2.1451743
1409526651615,1.3982137,9.569026,2.4648306,1.251616,9.486536,2.14697
1409526651622,1.3916297,9.536704,2.4372973,1.2550611,9.485763,2.1483793
1409526651653,1.3730747,9.504382,2.4420857,1.2579697,9.485126,2.1494882
1409526651655,1.3736732,9.452907,2.4349031,1.2604938,9.484419,2.1511235
1409526651656,1.377863,9.43914,2.4241292,1.2626915,9.483623,2.15335
1409526651664,1.3892355,9.444528,2.4277205,1.2640446,9.482854,2.1559384
1409526651685,1.352724,9.44752,2.4516625,1.2646549,9.482157,2.1586483
1409526651687,1.3215994,9.4696665,2.457648,1.2644905,9.481477,2.1617246
1409526651694,1.2952632,9.4972,2.4666264,1.2638677,9.480806,2.1650236
1409526651714,1.2826935,9.510966,2.456451,1.2627909,9.48034,2.1676953
1409526651716,1.2934675,9.511565,2.4420857,1.2612437,9.4800005,2.170081
1409526651722,1.292869,9.530719,2.4025815,1.2598264,9.479634,2.172505
1409526651746,1.2641385,9.496002,2.4001873,1.2584013,9.479331,2.174653
1409526651748,1.2617443,9.409811,2.4235306,1.2562429,9.47925,2.1762516
1409526651755,1.2677298,9.357139,2.4091654,1.2532003,9.479546,2.1767204
1409526651762,1.2617443,9.378687,2.4079683,1.2490919,9.480401,2.175352
1409526651782,1.270124,9.332,2.4349031,1.2446156,9.48154,2.1729555
1409526651783,1.2635399,9.277532,2.4001873,1.2408673,9.482431,2.1712024
1409526651797,1.2485762,9.424775,2.4187422,1.2385232,9.482866,2.1706455
1409526651832,1.2312182,9.504382,2.4863784,1.2373639,9.483216,2.1697745
1409526651840,1.2258313,9.564836,2.5222914,1.2362047,9.483719,2.1682413
1409526651843,1.2108675,9.507375,2.532467,1.2339734,9.484231,2.1672745
1409526651845,1.2234371,9.510367,2.5372553,1.2310688,9.48483,2.1663048
1409526651847,1.2192472,9.601347,2.496554,1.2276477,9.485762,2.164163
1409526651872,1.1438298,9.64983,2.4426842,1.2253695,9.486842,2.1607184
1409526651874,1.1306617,9.595961,2.391209,1.2244246,9.488004,2.1561463
1409526651875,1.1486182,9.63726,2.3774424,1.224155,9.489041,2.1517274
1409526651894,1.1773487,9.596559,2.3439236,1.2236207,9.489378,2.1505477
1409526651895,1.3389573,9.467871,2.3289597,1.2225409,9.489096,2.152408
1409526651912,1.4449008,9.474455,2.4366987,1.2219733,9.488747,2.1542659
1409526651915,1.5071499,9.491214,2.5342624,1.2208773,9.488631,2.1553924
1409526651922,1.5699978,9.512163,2.5983074,1.2192789,9.488621,2.1563468
1409526651940,1.620276,9.566631,2.6509798,1.2184092,9.488411,2.1577625
1409526651942,1.7208325,9.822811,2.6372132,1.2185832,9.487934,2.1597517
1409526651963,1.6849195,9.676167,2.546832,1.2202963,9.487313,2.161514
1409526651964,1.5580268,9.063849,2.3624785,1.2220566,9.486492,2.164124
1409526651974,1.584363,8.942344,2.3636756,1.2227811,9.485527,2.1679485
1409526651998,1.62686,9.022549,2.7365725,1.2230489,9.48493,2.170407
1409526651999,1.7304093,9.114127,3.0095115,1.2232207,9.485228,2.1690059
1409526652003,1.9554642,9.31524,2.7030537,1.2251194,9.484934,2.169222
1409526652035,2.034473,9.729437,2.6473885,1.2276944,9.484411,2.1700475
1409526652037,2.0177135,9.931149,2.5965118,1.2291644,9.4845915,2.1684318
1409526652038,1.9416976,10.002377,2.48578,1.2322507,9.484729,2.1660728
1409526652042,1.851915,9.918579,2.2523453,1.2361064,9.485072,2.1623716
1409526652066,1.7250223,9.966463,2.1757307,1.2407401,9.486756,2.1523037
1409526652067,1.6280571,10.070611,2.260725,1.2438062,9.489868,2.136763
1409526652074,1.6154876,10.269928,2.2876596,1.2428888,9.492171,2.1270454
1409526652095,1.6502035,10.794258,2.2278047,1.2362137,9.492092,2.1312842
1409526652097,1.6262615,10.899005,2.1894975,1.2238141,9.490572,2.1451592
1409526652103,2.6629508,12.010512,1.9153614,1.2065666,9.488671,2.163266
1409526652136,1.6035166,11.159973,2.4109612,1.1955047,9.486793,2.177595
1409526652138,1.661576,11.097125,2.4366987,1.1669706,9.484503,2.2028987
1409526652140,1.6603789,10.89661,2.5288756,1.1223857,9.4831505,2.2317088
1409526652143,1.4437037,10.430939,2.653374,1.0610555,9.4829235,2.2624564
1409526652171,1.1174936,9.98442,2.7012582,0.9916701,9.482934,2.293678
1409526652173,0.98341835,10.255563,2.7539306,0.9055026,9.485834,2.3171992
1409526652174,0.7751228,10.113707,2.6821043,0.8130789,9.492857,2.322703
1409526652198,0.4321534,9.203311,2.496554,0.7276498,9.503297,2.3083026
1409526652199,0.0688333,8.220491,2.3481133,0.6569899,9.51571,2.278159
1409526652204,-0.24061728,7.9750857,2.1679497,0.60182476,9.52897,2.237623
1409526652222,-0.42197806,8.60117,2.0266917,0.56274366,9.542435,2.189895
1409526652223,-0.18914193,8.955511,1.5388732,0.53948873,9.555943,2.136192
1409526652240,0.05925649,10.180744,1.2719196,0.53456235,9.569712,2.0749147
1409526652242,-0.0011971008,11.327567,1.5233108,0.5466667,9.583311,2.007907
1409526652260,0.12270284,11.616667,1.6729485,0.56852454,9.595254,1.9437755
1409526652273,0.3800795,11.11568,1.5023615,0.59626377,9.602839,1.8974597
1409526652275,1.2108675,9.0081835,1.0594343,0.63995767,9.604926,1.8725024
1409526652291,1.1492168,8.016984,1.2036849,0.7082402,9.602015,1.8628228
1409526652294,1.1522095,8.161834,1.5334862,0.7890847,9.595666,1.8630466
1409526652308,1.6430209,9.31105,1.6142905,0.87234926,9.587316,1.8689007
1409526652322,1.3437457,9.175778,1.8674773,0.95124346,9.578653,1.8748183
1409526652323,1.0600328,9.066243,2.042254,1.0160254,9.570306,1.8834348
1409526652339,1.1893197,9.665991,1.9674352,1.0578345,9.563633,1.8942759
1409526652342,0.9995792,9.645041,2.2451627,1.0724744,9.560707,1.9008062
1409526652364,1.0522517,9.057863,1.8076223,1.054894,9.5618515,1.9048791
1409526652365,0.94451255,8.409035,1.6645688,1.0208427,9.5656,1.9046179
1409526652374,1.1474211,8.073248,1.8656816,0.95353717,9.573406,1.9002771
1409526652399,1.5286977,8.96449,2.5031378,0.8570636,9.583676,1.8944635
1409526652402,1.4622587,8.507197,2.1942859,0.73767143,9.594324,1.8908161
1409526652404,1.1240777,8.336611,1.8124107,0.59919924,9.605782,1.881569
1409526652429,0.878672,8.091205,1.8046296,0.44354603,9.618212,1.8610944
1409526652434,0.33638534,7.5812397,1.3784616,0.2786603,9.630031,1.8317262
1409526652436,0.3866636,8.336611,1.3820529,0.11786256,9.63971,1.797911
1409526652444,0.49440265,9.413403,1.5454572,-0.016098317,9.645548,1.7701772
1409526652469,0.5021838,9.961675,1.5191209,-0.11148645,9.648588,1.7500557
1409526652471,0.2172738,9.922769,1.5179238,-0.17313509,9.650746,1.733066
1409526652474,0.18195933,9.721058,1.6035166,-0.22273031,9.6523485,1.7184172
1409526652494,0.095768064,9.38168,1.6891093,-0.24808747,9.653339,1.7093542
1409526652496,0.050876785,9.233239,1.7968484,-0.25262234,9.653924,1.7053865
1409526652504,0.039504327,9.419987,1.7794905,-0.24231692,9.654355,1.7044325
1409526652523,0.2112883,9.9928,1.5993267,-0.22077757,9.655291,1.70206
1409526652524,0.2705448,10.156802,1.4772224,-0.18509777,9.657696,1.6926521
1409526652539,0.23523031,10.248381,1.5490485,-0.13285145,9.661569,1.6753707
1409526652543,0.034715924,10.407595,1.6561891,-0.06418416,9.665451,1.6569103
1409526652557,-0.21787235,9.862914,1.5975311,0.015877368,9.667896,1.6437563
1409526652571,-0.30705637,9.76116,1.4802152,0.10179405,9.668392,1.6377438
1409526652574,-0.24540567,9.664794,1.4490906,0.18554114,9.66771,1.6344279
1409526652587,-0.015562311,9.31105,1.5646108,0.2652382,9.665102,1.6388527
1409526652607,0.29867667,9.283517,1.822586,0.33442208,9.660355,1.6541169
1409526652608,0.676362,9.052477,1.9847932,0.39251813,9.653739,1.6797762
1409526652622,0.7212533,9.152434,2.067393,0.43758464,9.646425,1.7103777
1409526652623,0.8367735,9.11712,2.0602105,0.46369055,9.640117,1.7388304
1409526652639,0.97144735,8.944737,2.1242554,0.47398663,9.635842,1.7596289
1409526652643,1.0295067,8.763377,2.291251,0.4760751,9.633152,1.7737364
1409526652659,0.9660604,8.698733,2.235586,0.47347295,9.631535,1.7831829
1409526652663,0.87927055,8.750209,2.078167,0.46624857,9.631529,1.7851136
1409526652674,0.80924016,8.8088665,1.9524715,0.45451093,9.633462,1.7776959
1409526652688,0.694917,8.842385,1.9099745,0.4409582,9.636291,1.7657535
1409526652708,0.48722005,8.836999,1.9303252,0.42740387,9.639866,1.7494857
1409526652710,0.3489549,8.801684,1.9255368,0.41446593,9.643233,1.7339772
1409526652729,0.12509704,8.636484,1.9506758,0.4026555,9.646058,1.7210038
1409526652731,-0.11731588,8.517971,2.0518308,0.3927112,9.647759,1.7137358
1409526652735,0.18435353,8.717887,1.8567034,0.3830635,9.647628,1.716669
1409526652764,0.002992752,9.063251,1.9674352,0.37728068,9.64568,1.7288415
1409526652766,-0.11552023,9.46009,1.9189527,0.37503597,9.6421795,1.7487475
1409526652767,0.4213795,9.561843,2.5037365,0.3770441,9.638785,1.7669302
1409526652774,0.81163436,10.713454,1.757344,0.39432433,9.633998,1.789138
1409526652790,0.9259575,10.477027,1.6238673,0.4282434,9.630943,1.797762
1409526652808,1.0301052,12.113463,0.89303726,0.46718848,9.629652,1.7949691
1409526652809,0.7691373,13.285425,0.33518824,0.5175092,9.637149,1.7401036
1409526652824,0.62009823,12.050017,0.7344214,0.5747664,9.651412,1.6402093
1409526652825,0.5931635,10.654198,1.2479776,0.62250704,9.661272,1.5629151
1409526652836,1.2156559,9.816227,1.5394717,0.6504815,9.664083,1.5338702
1409526652855,1.3299791,9.660006,1.8028339,0.6739438,9.66287,1.5313814
1409526652856,1.2952632,9.481039,2.0751743,0.69695175,9.660257,1.5375568
1409526652872,1.1881226,9.335591,2.172738,0.71985656,9.656995,1.5474674
1409526652874,1.0989386,9.295488,2.11827,0.74148107,9.65353,1.5588386
1409526652887,0.98700964,9.338584,2.0201077,0.7606243,9.650108,1.57075
1409526652906,0.9032126,9.436746,2.0213048,0.7764602,9.6470175,1.5819541
1409526652907,0.6667852,9.417592,1.7896658,0.79035264,9.644286,1.5916994
1409526652918,0.5722142,9.580399,1.6693572,0.79969656,9.642497,1.5978572
1409526652923,0.45250413,9.704897,1.5616181,0.80537575,9.641454,1.601289
1409526652937,0.3321955,9.794679,1.4808137,0.8089296,9.640816,1.603343
1409526652952,0.27114335,9.8437605,1.4915876,0.81145656,9.64022,1.6056442
1409526652954,0.25917232,9.844358,1.5454572,0.8128692,9.639835,1.607247
1409526652968,-0.49081135,8.704121,1.4586674,0.8138836,9.639687,1.6076152
1409526652974,0.34955344,9.59177,1.7501614,0.8105187,9.639948,1.6077555
1409526652987,0.45070848,10.277709,1.9297266,0.81793594,9.639193,1.608519
1409526653005,0.34715924,10.248979,1.8435353,0.83595884,9.637195,1.6112176
1409526653006,0.16160862,9.791088,1.839944,0.8555752,9.635231,1.6126714
1409526653021,0.062249243,9.610326,1.6932992,0.86897993,9.634032,1.6126732
1409526653026,0.2861071,9.656414,1.733402,0.87686163,9.6336355,1.6107717
1409526653046,0.3854665,9.689334,1.7770962,0.8857396,9.63292,1.6101866
1409526653046,-0.29029694,8.449138,1.6178818,0.89624614,9.631873,1.6106372
1409526653054,0.43394905,8.735844,1.775899,0.90348077,9.631157,1.6108763
1409526653070,0.95349085,10.007763,1.910573,0.9163031,9.630005,1.6105309
1409526653074,0.94690675,10.144831,1.8806454,0.94050086,9.627986,1.6086481
1409526653088,1.0708067,10.136452,1.8447324,0.9759974,9.625216,1.6040713
1409526653104,1.2988545,10.212467,1.894412,1.0112305,9.622928,1.5959569
1409526653105,1.3072342,9.889849,1.7776948,1.0417312,9.621034,1.5877386
1409526653119,1.3922282,9.727641,1.7579426,1.0690184,9.619439,1.5792408
1409526653123,1.5580268,9.712079,1.79206,1.0903715,9.618361,1.5711762
1409526653136,1.6633717,9.73662,1.8902222,1.1081486,9.61757,1.5635744
1409526653155,1.7292122,9.743204,1.9339164,1.1252664,9.6166,1.5572956
1409526653155,1.7962499,9.663596,1.9135658,1.1425911,9.61527,1.5528859
1409526653169,2.0165164,9.723452,2.0608091,1.1601611,9.613849,1.5486563
1409526653187,1.8501194,9.422979,1.7130513,1.1789651,9.61199,1.5459862
1409526653188,1.6944963,9.108741,1.6328455,1.1951599,9.610906,1.5402853
1409526653202,1.8938135,8.981249,1.6543933,1.2083834,9.61028,1.5338632
1409526653203,1.9327193,8.860342,1.6825253,1.2251482,9.608697,1.5304829
1409526653218,2.248754,10.064626,1.6292542,1.2478698,9.605901,1.5296721
1409526653223,2.1697452,9.950302,1.7423803,1.2754592,9.602329,1.5293502
1409526653238,2.019509,9.980229,1.6813282,1.3032644,9.598305,1.5311627
1409526653254,1.8273745,9.757569,1.6621746,1.3243759,9.595313,1.5317899
1409526653255,1.697489,9.646837,1.620276,1.3368945,9.59389,1.5298336
1409526653268,1.6053122,9.609129,1.5801731,1.3426082,9.593784,1.5254893
1409526653283,1.520318,9.592968,1.5652094,1.3435493,9.59461,1.5194519
1409526653284,1.4269443,9.564238,1.6035166,1.3426915,9.595859,1.5123066
1409526653304,1.364695,9.516354,1.5951369,1.3414857,9.597216,1.504744
1409526653304,1.3012487,9.462483,1.6298528,1.3409573,9.598399,1.4976444
1409526653317,1.2539631,9.441534,1.6106992,1.3412201,9.599132,1.4927263
1409526653325,1.3156139,9.401431,1.5921441,1.3416429,9.599691,1.4887346
1409526653337,1.4065934,9.461287,1.6597804,1.3439714,9.599763,1.4861715
1409526653351,1.8716671,9.801862,1.9021933,1.3484739,9.599361,1.4846857
1409526653358,1.1988965,9.506178,1.5999253,1.3581711,9.597942,1.4850171
1409526653373,1.388637,9.767146,1.7088615,1.3623847,9.597815,1.4819798
1409526653388,1.3611037,9.746795,1.6286557,1.3674481,9.597708,1.478008
1409526653389,0.7781156,8.564658,1.4526819,1.3746125,9.597261,1.4742577
1409526653407,1.4209588,9.317036,1.6729485,1.3803856,9.597033,1.4703292
1409526653408,1.2940661,9.806051,1.5897499,1.3968407,9.595125,1.4672424
1409526653426,1.353921,10.067019,1.5717934,1.4186574,9.5925,1.4634757
1409526653428,1.3461399,10.283695,1.608305,1.4376633,9.59048,1.4581554
1409526653435,1.1055226,9.871294,1.5526398,1.4533784,9.588951,1.452617
1409526653459,1.01574,9.779716,1.4688427,1.4634715,9.58819,1.44751
1409526653460,1.0546459,9.754577,1.5179238,1.4676925,9.588386,1.441922
1409526653463,1.0905589,9.733028,1.5442601,1.4685158,9.588997,1.4370067
1409526653485,1.1246762,9.759365,1.5897499,1.4695674,9.589234,1.4343501
1409526653486,1.2018893,9.758167,1.536479,1.4708194,9.589169,1.4335102
1409526653504,1.228824,9.812037,1.5185224,1.4725639,9.589019,1.4327164
1409526653506,1.2204443,9.825804,1.5358804,1.4740839,9.588875,1.4321144
1409526653526,1.2892777,9.75697,1.5460558,1.4744595,9.5887165,1.4327906
1409526653527,1.264737,9.734225,1.5304934,1.4741318,9.588424,1.435086
1409526653537,1.4341269,9.56723,1.5795746,1.472667,9.58826,1.437686
1409526653559,1.4933833,9.614515,1.7555484,1.4710356,9.588037,1.4408406
1409526653561,1.5873557,9.674371,1.7489643,1.4689585,9.587745,1.4448919
1409526653564,1.7244238,9.512163,1.7597382,1.4671906,9.587548,1.4479817
1409526653596,1.2683283,8.682572,1.7633295,1.4670281,9.587476,1.448633
1409526653598,1.6340426,9.593566,1.7645266,1.4636784,9.58801,1.4484949
1409526653599,1.9369092,10.248979,1.448492,1.4643404,9.588071,1.4474148
1409526653604,1.8393455,9.958682,1.4574703,1.4742303,9.587289,1.442537
1409526653639,1.6310499,9.85214,1.4311341,1.4845605,9.586318,1.4384027
1409526653641,1.5652094,9.859921,1.388637,1.4878064,9.586177,1.4359775
1409526653644,1.5101427,9.803059,1.3856442,1.4843013,9.58687,1.4349808
1409526653664,1.5101427,9.594764,1.4024036,1.4781717,9.587828,1.4348996
1409526653665,1.5658079,9.431359,1.4975731,1.4704723,9.58883,1.4361247
1409526653666,1.4826094,9.464279,1.6316484,1.4628043,9.589595,1.4388392
1409526653686,1.311424,9.7324295,1.6172832,1.4539489,9.590155,1.4440848
1409526653687,1.4167689,9.689334,1.513734,1.4424069,9.591096,1.4493934
1409526653703,1.5071499,9.424775,1.4718355,1.4324322,9.592104,1.4526042
1409526653705,1.5658079,9.4535055,1.4993688,1.426381,9.59267,1.4548283
1409526653723,1.4718355,9.585785,1.541866,1.4215263,9.592997,1.4574246
1409526653725,1.3545196,9.685743,1.536479,1.413964,9.593685,1.4602462
1409526653736,1.3329718,9.712678,1.46585,1.4049553,9.594694,1.4623107
1409526653758,1.3605051,9.679757,1.3682863,1.3965988,9.595724,1.4635552
1409526653760,1.417966,9.509769,1.389834,1.3892218,9.5968275,1.4633366
1409526653776,1.3868413,9.392453,1.4909891,1.3837224,9.597783,1.4622827
1409526653778,1.3617022,9.581595,1.584363,1.3776954,9.5985565,1.4628917
1409526653784,1.3162124,9.622895,1.6915035,1.3702084,9.599396,1.4644232
1409526653816,1.2665327,9.703101,1.673547,1.3624367,9.600249,1.4660739
1409526653818,1.2360066,9.693524,1.608305,1.3537463,9.601321,1.4671097
1409526653821,1.1941081,9.388264,1.4873978,1.3439009,9.602622,1.4676422
1409526653857,0.9247604,8.783129,1.46585,1.3338538,9.603959,1.4680578
1409526653858,1.4879963,9.928156,1.5185224,1.322764,9.605222,1.4698317
1409526653859,1.38325,10.028113,1.5245079,1.318205,9.60564,1.471189
1409526653860,1.234211,9.935937,1.4460979,1.3162848,9.60562,1.4730483
1409526653864,1.2479776,9.897031,1.365892,1.3177706,9.605137,1.4748685
1409526653890,1.477821,9.754577,1.3581109,1.3166537,9.6054125,1.4740537
1409526653891,1.6525977,9.534908,1.4275428,1.3159465,9.605838,1.4719301
1409526653898,1.5879543,9.355942,1.501763,1.3179883,9.605682,1.4711101
1409526653905,1.3090298,8.930372,1.7052702,1.321258,9.605119,1.4718683
1409526653929,1.7447745,10.1621895,1.7585411,1.323903,9.604165,1.4756951
1409526653930,1.702876,9.929353,1.6262615,1.3324729,9.602467,1.479045
1409526653936,1.6286557,9.767146,1.5879543,1.3441474,9.600501,1.4812299
1409526653964,1.6334441,9.707291,1.5113398,1.3514118,9.599209,1.4829929
1409526653965,1.6621746,9.631873,1.400608,1.3542007,9.598653,1.4840584
1409526653966,1.6430209,9.696517,1.4221559,1.3558918,9.598373,1.4843104
1409526653985,1.553837,9.724648,1.5340848,1.356433,9.59825,1.4846079
1409526653986,1.5065514,9.677961,1.5532384,1.3557501,9.597912,1.4874223
1409526654001,1.5167267,9.644443,1.5921441,1.3546649,9.597488,1.4911435
1409526654004,1.5699978,9.646238,1.6747441,1.3538208,9.596969,1.4952468
1409526654018,1.6142905,9.594764,1.702876,1.3533653,9.596189,1.5006565
1409526654035,1.6238673,9.531317,1.7663223,1.3538208,9.595285,1.5060096
1409526654036,1.567005,9.522339,1.8034325,1.3555303,9.59415,1.5116923
1409526654050,1.5101427,9.495404,1.8423382,1.357022,9.593123,1.5168653
1409526654055,1.4568717,9.578004,1.7842789,1.3579347,9.592317,1.5211405
1409526654067,1.4652514,9.637859,1.7178397,1.3583366,9.591713,1.5245932
1409526654085,1.4275428,9.753379,1.6490064,1.3585508,9.591292,1.5270401
1409526654086,1.3413515,9.812037,1.6059108,1.3583224,9.591294,1.527226
1409526654101,1.2862848,9.776124,1.5298948,1.3567414,9.591578,1.5268658
1409526654104,1.2533646,9.73662,1.477821,1.3535811,9.592131,1.5261948
1409526654116,1.252766,9.685144,1.501763,1.3492657,9.592747,1.5261382
1409526654131,1.4945804,9.293693,1.5191209,1.3442814,9.593204,1.5276661
1409526654135,1.4969746,9.354745,1.6328455,1.34087,9.593162,1.5309225
1409526654149,1.3754689,9.380483,1.7196354,1.3361098,9.593264,1.5344418
1409526654167,1.3072342,9.465476,1.644218,1.3285744,9.594058,1.536009
1409526654167,1.0552444,9.934141,1.2384008,1.3175305,9.595976,1.5335447
1409526654184,1.3611037,9.825205,1.1486182,1.3021109,9.599362,1.525504
1409526654185,1.459266,9.914988,1.3012487,1.2883636,9.603026,1.5140736
1409526654202,1.1007342,9.964667,1.3904326,1.276895,9.606115,1.5041602
1409526654204,0.9636662,9.973047,1.4053963,1.2667297,9.608315,1.4986867
1409526654223,1.1192893,9.713875,1.3706805,1.2598308,9.609608,1.4962159
1409526654224,1.3856442,9.548077,1.2773066,1.2545594,9.610501,1.4948896
1409526654235,1.4574703,9.543288,1.3700819,1.2486491,9.611321,1.4945898
1409526654254,1.4347254,9.583391,1.4520833,1.2425857,9.611898,1.4959271
1409526654278,1.3730747,9.625289,1.501763,1.2374475,9.612226,1.4980835
1409526654280,1.3623008,9.685743,1.5101427,1.2328154,9.612415,1.5006788
1409526654281,1.3976152,9.665392,1.5065514,1.2286048,9.612585,1.5030367
1409526654285,1.4155718,9.683349,1.5777789,1.2248858,9.612744,1.5050673
1409526654307,1.4024036,9.679757,1.6160861,1.2212807,9.612761,1.5078894
1409526654308,1.3575124,9.709086,1.6358383,1.2183341,9.612478,1.5120523
1409526654316,1.3581109,9.656414,1.6238673,1.215831,9.612046,1.5168068
1409526654340,1.4149733,9.639654,1.6454151,1.2143267,9.611442,1.5218402
1409526654341,1.4251486,9.615712,1.6825253,1.2140008,9.610682,1.5268992
1409526654344,1.3587095,9.552865,1.7034745,1.2136197,9.609849,1.5324311
1409526654385,1.2521675,9.5809965,1.7124528,1.2120018,9.609065,1.5386072
1409526654389,1.2174516,9.58818,1.7465701,1.2087978,9.608435,1.5450474
1409526654391,1.1372458,9.622296,1.7411832,1.2054223,9.60778,1.5517361
1409526654393,1.0283096,9.621099,1.7226281,1.2019626,9.607019,1.559121
1409526654415,0.9744401,9.701904,1.6819267,1.1977886,9.606305,1.5667204
1409526654416,0.93732995,9.752781,1.6986861,1.1932627,9.605797,1.5732758
1409526654417,0.9564836,9.782109,1.6867151,1.1885262,9.605602,1.5780396
1409526654435,1.0265139,9.727641,1.6490064,1.1842356,9.605591,1.5813328
1409526654437,1.0791864,9.71986,1.6699557,1.1809702,9.605541,1.5840743
1409526654455,1.1288661,9.703101,1.70946,1.1783011,9.605463,1.5865287
1409526654470,1.1468226,9.70789,1.6873137,1.1759068,9.605432,1.5885049
1409526654472,1.1330559,9.693524,1.6675615,1.1733694,9.605463,1.5901749
1409526654489,1.1432313,9.659407,1.7064673,1.1700145,9.605726,1.5910646
1409526654490,1.2850877,9.363723,1.6741456,1.1658225,9.606202,1.5912738
1409526654496,2.2589293,8.373122,1.5005659,1.1629373,9.606569,1.5911604
1409526654505,2.0416555,7.7584105,2.0308816,1.1681302,9.606066,1.5904005
1409526654528,-0.28431144,11.271303,3.0735564,1.1681098,9.605197,1.5956472
1409526654529,-0.37948096,11.982381,1.5640123,1.1261202,9.607052,1.6145542
1409526654536,0.6326678,10.507553,0.40342298,1.0722811,9.613338,1.6138006
1409526654566,1.1384429,9.767744,1.3060371,1.0573645,9.619432,1.5871049
1409526654567,1.323395,9.419388,1.5897499,1.0742209,9.620634,1.5683898
1409526654568,1.3904326,9.124303,1.8082209,1.0976489,9.618328,1.5663042
1409526654585,1.3868413,9.021352,1.9818004,1.1161681,9.614709,1.5754157
1409526654586,1.4221559,9.056666,1.963844,1.1271337,9.611438,1.5875217
1409526654609,1.3820529,9.559449,1.9351135,1.1320256,9.609525,1.5956045
1409526654611,1.2964603,9.881469,1.8674773,1.1335398,9.608695,1.599522
1409526654618,1.1641805,9.991602,1.7591397,1.1298062,9.609798,1.5955285
1409526654640,1.1965023,9.905411,1.8171991,1.12182,9.612244,1.5864117
1409526654642,0.7673417,9.771336,1.5161282,1.1117332,9.6151495,1.5758617
1409526654645,1.0097545,9.504382,1.395221,1.0959426,9.619226,1.5619775
1409526654686,1.003769,9.548077,1.5807717,1.0791211,9.623502,1.5472978
1409526654688,1.0582372,9.6288805,1.763928,1.0607278,9.627414,1.5356266
1409526654690,0.8074445,9.825205,1.4939818,1.0441226,9.630468,1.5278386
1409526654692,0.96785605,9.683349,1.2120646,1.024768,9.634291,1.5168127
1409526654716,1.1456255,9.528923,1.2252327,1.0059086,9.638776,1.5008429
1409526654717,1.1282675,9.544485,1.4203602,0.9905003,9.642875,1.4846857
1409526654717,1.0139444,9.667188,1.5035586,0.9764251,9.646433,1.4708319
1409526654736,0.91817635,9.66659,1.5047557,0.9618425,9.649614,1.4595237
1409526654737,0.86610246,9.766547,1.5233108,0.9469946,9.65277,1.4483254
1409526654745,0.8762778,9.962872,1.541866,0.93240845,9.655848,1.4372358
1409526654793,0.9044097,9.934141,1.46585,0.9187705,9.658737,1.4265602
1409526654799,0.94451255,9.7479925,1.3856442,0.9059848,9.661561,1.4155676
1409526654801,0.9552865,9.668385,1.417966,0.89363825,9.664302,1.4046528
1409526654805,0.92895025,9.668983,1.5131354,0.881657,9.666825,1.3948435
1409526654814,0.91099375,9.681553,1.5388732,0.8704243,9.668795,1.3882302
1409526654837,0.9044097,9.701305,1.5813702,0.86014986,9.670118,1.3854157
1409526654838,0.89423436,9.75697,1.5855601,0.8504688,9.671105,1.384502
1409526654839,0.9175778,9.729437,1.5622166,0.84168434,9.67164,1.3861235
1409526654840,0.8774749,9.800665,1.5807717,0.83374697,9.671819,1.3896792
1409526654845,0.86729956,9.831789,1.54845,0.82574326,9.671742,1.3949691
1409526654874,0.83976626,9.81084,1.513734,0.8184761,9.671438,1.4013492
1409526654876,0.86251116,9.801263,1.4736311,0.81189144,9.670981,1.4083138
1409526654878,0.88645315,9.76116,1.436521,0.80575776,9.670622,1.41429
1409526654885,0.90141696,9.757569,1.407192,0.799486,9.670408,1.4193051
1409526654906,0.8972271,9.717466,1.400608,0.79302776,9.6702795,1.4237919
1409526654907,0.8738836,9.719262,1.4191631,0.7864377,9.670227,1.4278011
1409526654916,0.8619126,9.697714,1.4209588,0.7795472,9.670258,1.431379
1409526654932,0.8499416,9.694721,1.429937,0.77259696,9.670348,1.4345219
1409526654936,0.8463503,9.714474,1.4395138,0.76540804,9.670708,1.4359529
1409526654949,0.83258367,9.706094,1.4185646,0.75771034,9.671309,1.4359797
1409526654974,0.81881696,9.701904,1.417966,0.75008523,9.671987,1.4354198
1409526654976,0.82480246,9.676167,1.3994108,0.7424708,9.672835,1.4336627
1409526654978,0.8702923,9.709685,1.3940239,0.73499876,9.673758,1.4312785
1409526654985,0.9115923,9.802461,1.316811,0.72836924,9.674529,1.4294664
1409526655009,0.919972,9.8754835,1.2910733,0.7223029,9.675368,1.4268571
1409526655010,0.9427169,9.903615,1.2354081,0.71639806,9.676032,1.425345
1409526655016,1.0223241,9.916184,1.1617863,0.7102222,9.676749,1.4235493
1409526655036,1.103727,9.962274,1.1109096,0.7036923,9.677647,1.4206975
1409526655037,1.1719618,9.995792,1.1145009,0.69734865,9.678825,1.415781
1409526655045,1.1875241,9.8916445,1.1575965,0.6903385,9.680234,1.4095716
1409526655076,1.2575544,9.744401,1.2545617,0.6825033,9.681586,1.4040905
1409526655078,1.2395979,9.662998,1.359308,0.6748051,9.6827135,1.4000305
1409526655079,1.1797429,9.674969,1.3078327,0.6672282,9.683535,1.3979894
1409526655085,1.1773487,9.813234,1.2180501,0.65964013,9.684294,1.3963333
1409526655107,1.2324153,9.853337,1.0402806,0.6522728,9.685155,1.3938112
1409526655108,1.5155296,9.718663,1.0013748,0.64472604,9.686321,1.3892063
1409526655116,0.94810385,9.788095,0.9684546,0.63786346,9.68753,1.3839502
1409526655134,1.0289081,9.737817,0.9696517,0.62121016,9.689487,1.3777912
1409526655152,0.95827925,9.683948,0.97384155,0.6044409,9.69148,1.371224
1409526655153,0.9528923,9.66659,0.89603,0.59171665,9.6931925,1.3646564
1409526655168,0.88046765,9.755175,0.87687635,0.58318186,9.694512,1.3589386
1409526655169,0.88286185,9.816826,0.8912416,0.5755816,9.695634,1.3541771
1409526655181,0.84575176,9.828198,0.74639237,0.5699017,9.696331,1.3515935
1409526655185,0.7733272,9.833585,0.66020113,0.565782,9.696732,1.3504449
1409526655201,0.6931214,9.83957,0.61411273,0.56231225,9.696909,1.3506203
1409526655217,0.6404489,9.841366,0.64823014,0.5589172,9.696993,1.3514246
1409526655218,0.5626374,9.801263,0.62728083,0.555293,9.696886,1.3536803
1409526655228,0.5422867,9.787497,0.6464345,0.55102897,9.696649,1.3571278
1409526655249,0.5093664,9.838373,0.64703304,0.5464029,9.696342,1.3611761
1409526655249,0.4782418,9.900622,0.6572084,0.54118484,9.696038,1.3654122
1409526655267,0.6452374,9.9550905,0.6691794,0.5360855,9.695607,1.3704793
1409526655267,0.19871874,9.91439,0.50637364,0.5332538,9.694893,1.3766162
1409526655279,0.15322891,9.978435,0.4261679,0.52627355,9.694431,1.3825469
1409526655285,0.24241292,9.920973,0.45549688,0.5166268,9.69407,1.3887007
1409526655298,0.14185645,9.828796,0.6218939,0.5093363,9.693416,1.39595
1409526655314,0.06823475,9.811439,0.7356185,0.50359935,9.692396,1.4050784
1409526655316,0.04369418,9.82341,0.7978677,0.497479,9.691173,1.4156566
1409526655331,0.019153614,9.816227,0.8571242,0.4915011,9.6898775,1.4265672
1409526655351,-0.17836803,9.751583,0.9044097,0.48622343,9.688579,1.4371564
1409526655352,-0.0023942017,9.868899,0.9427169,0.48038524,9.687291,1.4477602
1409526655367,-0.09995792,9.801862,1.0582372,0.47677115,9.686038,1.4573107
1409526655368,0.14963761,9.7479925,1.2300211,0.473641,9.684719,1.4670547
1409526655384,-0.16101007,9.81503,1.3694834,0.4728712,9.683319,1.4765128
1409526655385,0.04369418,9.889849,1.4646529,0.46774524,9.682335,1.4845874
1409526655405,0.08259996,9.843162,1.5436616,0.4625691,9.681625,1.4908173
1409526655406,0.08379706,9.818622,1.6095021,0.45885217,9.681133,1.4951638
1409526655416,0.13347675,9.799467,1.6490064,0.45701677,9.680923,1.4970827
1409526655431,0.19812019,9.745598,1.6813282,0.4555288,9.681089,1.4964713
1409526655448,0.30107087,9.71986,1.7866731,0.45367324,9.681558,1.4939971
1409526655449,-0.05805939,9.464279,1.8842367,0.45137447,9.682049,1.4915099
1409526655472,0.7685388,9.846154,1.8626889,0.44523492,9.682588,1.4898493
1409526655473,0.57999533,9.589376,1.9710265,0.44510874,9.683087,1.4866432
1409526655477,0.58298814,9.452309,2.107496,0.44276825,9.683675,1.4835154
1409526655486,0.6314707,9.340978,2.1517887,0.43598655,9.684248,1.4817718
1409526655509,0.45370123,9.119514,2.2134395,0.42630255,9.684886,1.4804157
1409526655510,1.1426327,9.5798,2.2379801,0.41438416,9.685754,1.4781308
1409526655534,1.0061632,9.621698,2.3020248,0.4088998,9.686185,1.4768273
1409526655537,0.98820674,9.742605,2.4504654,0.40478784,9.685966,1.4793986
1409526655560,1.0468647,9.865308,2.356493,0.3998818,9.685094,1.4864159
1409526655562,0.9911995,9.915586,2.19249,0.3930359,9.684053,1.4949977
1409526655564,0.8230068,9.798869,2.12246,0.38580814,9.683269,1.501953
1409526655566,0.6242881,9.621099,2.1260512,0.37708575,9.682653,1.5081109
1409526655589,0.41359833,9.409213,2.183512,0.36657503,9.681916,1.5154274
1409526655590,0.24600422,9.218874,2.2421699,0.35383347,9.680911,1.5248452
1409526655597,0.17776948,9.0842,2.3540988,0.33841202,9.679698,1.5360107
1409526655629,0.1316811,8.998009,2.4181437,0.32107115,9.678282,1.5486089
1409526655630,-0.31783026,8.849568,2.4121583,0.30214068,9.676956,1.5606501
1409526655632,-0.026934769,9.010578,2.4570496,0.27810442,9.676145,1.5701146
1409526655658,0.075417355,9.176975,2.3391352,0.25657734,9.67557,1.5773143
1409526655659,-0.24301147,9.149442,2.2457612,0.2373704,9.67543,1.5811738
1409526655661,-0.46567222,9.1829605,2.0620062,0.21429479,9.675986,1.5810739
1409526655670,-0.8415619,9.145252,2.0685902,0.18823607,9.677021,1.5780507
1409526655691,-0.3752911,9.56304,1.8848352,0.16027196,9.678295,1.5733079
1409526655693,-0.13826515,9.859921,1.7806876,0.13927227,9.679886,1.5655122
1409526655699,-0.14544775,9.919178,1.7052702,0.12375892,9.681776,1.555089
1409526655726,-0.1388637,9.965864,1.6472107,0.109004125,9.683955,1.5425626
1409526655727,-0.23223756,9.989806,1.5352819,0.09541151,9.686189,1.5293957
1409526655728,-0.2220622,9.999383,1.3958195,0.08146876,9.688462,1.5157348
1409526655760,-0.19752164,10.078991,1.3742718,0.069083184,9.690725,1.5018226
1409526655761,-0.44532153,9.902418,1.0265139,0.0597282,9.692567,1.4902917
1409526655762,-0.25977087,9.905411,1.1905168,0.051196374,9.693886,1.4820126
1409526655765,-0.020949265,9.830592,2.396596,0.047449734,9.693558,1.484284
1409526655781,0.08080431,9.800665,2.4809916,0.04773776,9.69062,1.5033342
1409526655798,0.17836803,9.800665,2.180519,0.052427083,9.685719,1.5344402
1409526655798,0.18614918,9.741408,2.0470424,0.05728841,9.681822,1.5586686
1409526655815,0.095768064,9.734225,2.0219033,0.06027619,9.68008,1.5693302
1409526655817,0.04249708,9.777321,1.9524715,0.060241997,9.679364,1.5737475
1409526655830,0.035913024,9.831789,1.8124107,0.058394905,9.679156,1.5750983
1409526655848,0.005985504,9.887454,1.6226702,0.05631211,9.679325,1.5741385
1409526655849,0.019153614,9.923966,1.5466543,0.05408406,9.679925,1.5705233
1409526655863,-0.021547815,9.903017,1.4808137,0.05207009,9.68073,1.5656244
1409526655865,-0.044292733,9.897031,1.400608,0.049848028,9.681376,1.5616817
1409526655879,-0.0688333,9.855731,1.4221559,0.047904056,9.681885,1.5585961
1409526655897,-0.092176765,9.81503,1.4742297,0.046372898,9.682311,1.5559839
1409526655899,-0.08738836,9.752781,1.4993688,0.045685794,9.68253,1.5546412
1409526655931,-0.036511578,9.694122,1.5005659,0.04629852,9.682451,1.555114
1409526655933,0.044891283,9.61691,1.5011644,0.04876856,9.682229,1.5564252
1409526655938,0.16400282,9.587581,1.4909891,0.0537218,9.681802,1.55891
1409526655962,0.32621,9.559449,1.5705963,0.061578214,9.681335,1.5615128
1409526655964,0.52612585,9.572019,1.6543933,0.07264204,9.6809,1.5637457
1409526655965,0.700304,9.579201,1.7232267,0.087027125,9.680251,1.5670196
1409526655966,0.79008657,9.584588,1.7411832,0.10495003,9.679257,1.5720553
1409526655985,0.8086416,9.588778,1.6968905,0.12486484,9.678118,1.57761
1409526655986,0.8265981,9.593566,1.6771383,0.14479002,9.677011,1.5826942
1409526655997,0.7930793,9.575011,1.7178397,0.16417672,9.675889,1.5876497
1409526656029,0.75596917,9.596559,1.7890673,0.18289383,9.674705,1.5928122
1409526656031,0.7044938,9.619903,1.9003977,0.20049904,9.673451,1.5982887
1409526656032,0.6584055,9.646238,1.9207484,0.21714988,9.672076,1.6044232
1409526656047,0.59136784,9.679757,1.8782512,0.23318551,9.670769,1.610038
1409526656048,0.52073884,9.702502,1.7513585,0.24855815,9.669512,1.6152818
1409526656066,0.4405331,9.675568,1.5765818,0.26392055,9.668501,1.6189007
1409526656069,0.4405331,9.63726,1.6047137,0.2795851,9.667867,1.620058
1409526656087,0.4866215,9.625289,1.6753427,0.29610783,9.66711,1.6216333
1409526656089,0.56982,9.639654,1.7633295,0.31382734,9.666018,1.624806
1409526656098,0.6344634,9.688736,1.87047,0.33231458,9.66464,1.6293232
1409526656138,0.6985083,9.794081,1.8614918,0.35135084,9.662921,1.6355169
1409526656140,0.81283146,9.892242,1.8698715,0.37000245,9.661225,1.6414064
1409526656142,0.89902276,9.968858,1.8782512,0.3890081,9.659687,1.6460669
1409526656145,1.0073603,10.004171,1.8417397,0.40775844,9.658429,1.6489024
1409526656148,1.1055226,10.01734,1.733402,0.42526373,9.6575165,1.6498271
1409526656168,1.1456255,10.0029745,1.6729485,0.44092825,9.657031,1.6485487
1409526656169,1.1737574,9.946711,1.666963,0.45377386,9.6569805,1.6453514
1409526656177,1.1480197,9.898827,1.7184383,0.46279222,9.657158,1.6417952
1409526656197,1.1001357,9.882666,1.751957,0.46748683,9.657586,1.6379578
1409526656198,1.055843,9.849147,1.8148049,0.4681154,9.658227,1.6339935
1409526656212,1.0336965,9.813234,1.9177556,0.46683866,9.658805,1.6309295
1409526656229,1.0486604,9.796474,1.965041,0.46230158,9.6592865,1.6293682
1409526656230,1.0480618,9.70789,1.9788077,0.45600075,9.659809,1.628042
1409526656247,1.0654198,9.601347,1.9877859,0.44899425,9.66034,1.6268407
1409526656248,0.97743285,9.463082,1.9243397,0.44132832,9.660665,1.6270196
1409526656264,0.9576807,9.456498,1.9440918,0.4318095,9.66079,1.6288205
1409526656267,0.90261406,9.484032,1.9686323,0.42092526,9.660848,1.6313223
1409526656284,0.87208796,9.560646,2.078167,0.40876287,9.6608095,1.6346512
1409526656286,0.85413146,9.67018,2.1643584,0.3951768,9.660561,1.6394612
1409526656297,0.8050503,9.816826,2.2469583,0.38060373,9.660392,1.6438884
1409526656322,0.7954735,9.848549,2.272696,0.36567134,9.660242,1.6481525
1409526656323,0.79128367,9.826403,2.3229742,0.35093987,9.660246,1.6513299
1409526656326,0.7667431,9.833585,2.3110032,0.33626953,9.6602955,1.6540824
1409526656365,0.6907272,9.761759,2.284667,0.3216616,9.660358,1.6566186
1409526656368,0.6751649,9.527725,2.2541409,0.30639827,9.66057,1.6582775
1409526656369,0.7116765,9.26556,2.2667105,0.2906522,9.660966,1.6587995
1409526656372,0.6919243,9.041702,2.2798786,0.27588105,9.66167,1.6572342
1409526656407,0.64463884,8.84478,2.2882583,0.26225933,9.662961,1.6519139
1409526656408,0.6183026,8.672996,2.2990322,0.249148,9.664845,1.6428912
1409526656409,0.66858083,8.578424,2.2176294,0.2363149,9.667172,1.6310534
1409526656409,0.6745663,8.620323,2.1972785,0.22354236,9.669954,1.6162959
1409526656429,0.81343,8.643666,2.2080526,0.21079437,9.67287,1.6004759
1409526656429,1.0067618,8.746018,2.2661119,0.1998723,9.675875,1.5836294
1409526656453,1.0857705,9.075222,2.3133974,0.19167167,9.678783,1.5667776
1409526656454,0.96546185,9.160215,2.31639,0.18525538,9.68185,1.5485014
1409526656458,0.83737206,9.216479,2.1709423,0.1786494,9.685053,1.5291332
1409526656478,0.6715736,9.251794,2.0739772,0.17159502,9.688339,1.5089877
1409526656479,0.47345337,9.119514,2.0919337,0.16365963,9.691784,1.4875977
1409526656495,0.3812766,9.151836,1.9195513,0.15534356,9.695216,1.4659593
1409526656499,0.24480712,9.236232,1.7375919,0.1475871,9.698877,1.4423622
1409526656518,0.18435353,9.406818,1.6693572,0.13983357,9.7029,1.4158213
1409526656519,0.21308395,9.524733,1.4676456,0.13243666,9.706953,1.388492
1409526656526,0.23642741,9.736021,1.2425907,0.12546974,9.711101,1.3598417
1409526656553,0.25917232,9.883265,1.1180922,0.11955124,9.715354,1.3296669
1409526656556,0.32800564,9.96347,1.0259154,0.11472667,9.719793,1.2972581
1409526656558,0.50517654,10.064626,0.8295909,0.11048078,9.724371,1.2628636
1409526656594,0.59974754,10.172364,0.7026982,0.10674254,9.728881,1.2279502
1409526656601,0.51714754,10.199299,0.79966336,0.101992056,9.733112,1.1943694
1409526656602,0.46926352,10.238205,0.7966706,0.09301891,9.736886,1.1639673
1409526656630,0.46866497,10.347141,0.7110779,0.08026706,9.7403965,1.1351649
1409526656633,0.46806642,10.531495,0.58657944,0.06453662,9.744025,1.1046195
1409526656635,0.39324763,10.641029,0.22505496,0.044705622,9.747936,1.070584
1409526656636,0.49320555,10.691308,-0.20530279,0.019266427,9.752127,1.0324966
1409526656660,0.76195467,10.764331,-0.415394,-0.007592574,9.756508,0.9904034
1409526656661,1.002572,10.667964,-0.6739678,-0.035810735,9.760732,0.94724286
1409526656662,1.0630256,10.4405155,-0.8810662,-0.06430712,9.764633,0.9045383
1409526656681,0.88645315,10.113108,-0.8888474,-0.09371421,9.768025,0.86447513
1409526656682,0.5093664,9.89763,-0.6434417,-0.12499789,9.770743,0.8290707
1409526656686,0.0700304,9.841366,-0.30945057,-0.15987405,9.772708,0.7993834
1409526656698,-0.46267948,9.908403,-0.06344634,-0.19873789,9.773878,0.7760247
1409526656719,-0.87567925,9.841366,0.079008654,-0.2415224,9.774357,0.7576286
1409526656721,-1.271321,9.640852,0.1316811,-0.285867,9.774338,0.7423025
1409526656727,-1.6226702,9.504981,0.2220622,-0.33020723,9.774032,0.72777826
1409526656760,-1.7244238,9.539098,0.22146365,-0.37481004,9.77348,0.71345574
1409526656761,-1.4694413,9.610924,0.12389994,-0.41628158,9.773078,0.69577163
1409526656763,-1.1917139,9.533113,0.008379706,-0.45096105,9.773121,0.6731676
1409526656786,-1.4030021,9.394249,-0.02633622,-0.47951758,9.7736635,0.6449632
1409526656787,-0.62847793,9.8677025,-0.25677812,-0.5075535,9.774299,0.61308926
1409526656789,-0.26515785,9.878476,-0.36631286,-0.52621406,9.775576,0.5758575
1409526656800,0.02932897,9.903615,-0.3309984,-0.537479,9.777313,0.5344652
1409526656820,0.6751649,9.848549,-0.18195933,-0.54636693,9.779105,0.49090663
1409526656821,1.4951789,9.939528,-0.037708677,-0.55017626,9.780854,0.45010933
1409526656826,1.8189948,10.046669,0.08319851,-0.5464006,9.782668,0.4138456
1409526656849,1.3215994,9.844957,0.3429694,-0.5400829,9.784261,0.38334525
1409526656852,1.7340006,10.015544,0.15382746,-0.5399559,9.78523,0.35795596
1409526656858,1.7687165,9.950302,0.077213004,-0.53948253,9.786017,0.33648822
1409526656890,1.3820529,9.767744,0.061650693,-0.54222757,9.786494,0.3176672
1409526656891,1.2515689,9.703101,-0.17717093,-0.55161154,9.786505,0.3007038
1409526656893,1.0127473,9.681553,-0.24899697,-0.56987,9.78596,0.28395256
1409526656933,0.97144735,9.679757,-0.33877954,-0.5955498,9.784814,0.27044252
1409526656935,0.85293436,9.551667,-0.45729253,-0.62464803,9.783246,0.26128772
1409526656938,0.7188591,9.356541,-0.52073884,-0.6566405,9.7813425,0.25408232
1409526656940,0.6218939,9.197925,-0.39145198,-0.69144505,9.779124,0.24702714
1409526656943,0.60693014,9.230247,-0.088585466,-0.72810286,9.776578,0.24250294
1409526656949,0.7170634,9.443929,0.05686229,-0.7638392,9.773866,0.24186172
1409526656969,0.7661445,9.740809,-0.035913024,-0.79664505,9.771129,0.24656653
1409526656970,0.75118077,10.014946,-0.18794483,-0.82549953,9.768492,0.2559785
1409526656979,0.7194576,10.156203,-0.2741361,-0.8524829,9.7658615,0.26766893
1409526657011,0.6356605,10.102933,-0.2885013,-0.88053304,9.763007,0.28065762
1409526657013,0.47644615,10.01315,0.10474633,-0.91276544,9.759668,0.2934896
1409526657019,-0.11552023,10.257957,0.272939,-0.9513803,9.7555065,0.30886078
1409526657058,-0.43275195,10.390836,0.31423897,-0.99984044,9.750133,0.32499477
1409526657059,-0.7284359,10.575788,0.25617957,-1.0554191,9.743659,0.3428642
1409526657060,-0.9487024,10.774507,0.09995792,-1.1163405,9.736137,0.36306524
1409526657061,-0.88405895,10.901998,-0.065242,-1.1813651,9.727612,0.38519642
1409526657062,-0.65660983,10.769718,-0.08140286,-1.2455586,9.718672,0.40796414
1409526657081,0.23163901,10.505158,-0.049081136,-1.3075383,9.709351,0.435062
1409526657082,0.9475053,10.075998,0.12150574,-1.3598729,9.700654,0.46740183
1409526657087,1.6627731,9.840768,0.34715924,-1.4023904,9.692764,0.50400984
1409526657126,2.6701334,10.0029745,0.3752911,-1.4325554,9.68629,0.5421809
1409526657128,3.3087866,10.411186,0.55605334,-1.444142,9.682421,0.5792922
1409526657129,3.210026,10.660183,0.58298814,-1.4361545,9.681317,0.61639994
1409526657130,3.3393128,11.266515,0.8026561,-1.4200996,9.681421,0.6510142
1409526657156,3.3620577,11.499949,1.6101006,-1.3902719,9.683516,0.68343645
1409526657157,3.3387144,11.26412,2.4361002,-1.3422325,9.687806,0.71777767
1409526657159,2.9221232,10.505757,2.681506,-1.2780077,9.693723,0.75419575
1409526657203,1.0402806,9.460688,2.653374,-1.2152026,9.69905,0.7887533
1409526657205,1.4945804,9.472659,2.4073699,-1.1603898,9.703457,0.8165829
1409526657206,-1.1252748,9.110536,1.6017209,-1.0876949,9.709998,0.83861476
1409526657207,-1.7082629,8.163031,0.12030864,-1.02746,9.716635,0.8376947
1409526657208,-2.3546975,8.108562,-0.9008184,-0.9725209,9.72494,0.806324
1409526657227,-3.1531637,8.721478,-1.1947067,-0.92076313,9.735319,0.7390029
1409526657228,-3.9205053,9.7863,-1.2635399,-0.86869246,9.747136,0.6396119
1409526657244,-3.803788,11.432313,-1.3718776,-0.8158946,9.758599,0.5239046
1409526657247,-2.8909986,13.425486,-1.7908629,-0.7487684,9.769475,0.40878657
1409526657265,-1.5981296,15.195998,-2.2828712,-0.6496876,9.780476,0.30101708
1409526657267,-0.7823054,16.2692,-2.8550856,-0.5118873,9.791322,0.19594343
1409526657278,-1.5149311,16.364368,-2.7742813,-0.35794646,9.799554,0.10503917
1409526657293,-3.120842,15.808315,-1.5819688,-0.2176216,9.804135,0.044255324
1409526657322,-3.9707835,14.551958,0.18315643,-0.11959113,9.80587,0.031426236
1409526657324,-4.469376,13.009494,1.751957,-0.05427651,9.806232,0.072564885
1409526657325,-5.1116204,11.564592,2.9281087,-0.007380758,9.805384,0.15746962
1409526657327,-5.529409,10.58716,3.2519245,0.026564693,9.8029585,0.2677414
1409526657355,-4.626795,10.462063,2.8562827,0.056490462,9.799226,0.37736267
1409526657356,-3.9893386,9.833585,2.6144683,0.11173742,9.794858,0.46762687
1409526657358,-2.5605986,9.654019,2.2505496,0.19986857,9.789881,0.53729427
1409526657381,-1.1127052,9.579201,1.7591397,0.32603273,9.783575,0.58801967
1409526657382,0.23702596,9.0794115,0.7858967,0.4735596,9.775105,0.6272452
1409526657387,1.3515269,9.00579,0.23163901,0.6426459,9.764287,0.64507604
1409526657418,2.327164,9.998785,0.110133275,0.8172642,9.751058,0.6475877
1409526657420,3.2004492,10.755353,-0.027533319,0.99629074,9.734691,0.64312726
1409526657421,2.5659857,9.988609,-0.24061728,1.1763297,9.714715,0.64107496
1409526657427,1.4616601,8.465898,-0.49919105,1.3360014,9.693443,0.6501263
1409526657453,0.7679402,7.0928226,-0.33877954,1.4641404,9.673384,0.6725585
1409526657454,0.7493851,6.241684,0.08379706,1.5669609,9.654554,0.7103829
1409526657459,0.5117606,5.475539,0.7386112,1.6589199,9.635,0.7649264
1409526657482,0.46686932,4.9099092,1.4431051,1.7453333,9.613684,0.83742523
1409526657484,0.6823475,4.7776294,2.2050598,1.8253418,9.590713,0.92560214
1409526657487,0.82599956,4.7123876,2.5510218,1.9027153,9.565896,1.0216116
1409526657520,0.8810662,4.5657425,2.5611973,1.9757487,9.540037,1.1200486
1409526657521,0.75956047,4.5645456,2.3762453,2.0438135,9.514741,1.2095196
1409526657523,0.736217,4.6782703,2.0362685,2.1050045,9.492029,1.2809113
1409526657527,0.78410107,4.8680105,1.678934,2.159704,9.472799,1.3312217
1409526657554,1.0809821,5.509058,1.614889,2.2091553,9.457266,1.3601942
1409526657555,1.447295,6.1369376,1.5412674,2.255531,9.444686,1.3714561
1409526657559,1.8177977,6.473323,1.3892355,2.2960956,9.435056,1.3704233
1409526657581,2.823961,7.000047,0.9504981,2.3253598,9.429019,1.3626088
1409526657582,3.5577838,7.4872675,0.6925228,2.3440046,9.426072,1.3509926
1409526657587,4.361637,8.182783,0.9415198,2.3512633,9.4261,1.3381395
1409526657621,4.459201,8.697536,1.8010383,2.356981,9.426127,1.327828
1409526657622,4.496909,9.080608,2.7880478,2.3490682,9.427792,1.3300475
1409526657624,4.346673,9.306861,3.7032316,2.3299606,9.429807,1.3492209
1409526657627,4.0982747,9.377489,4.095282,2.3018005,9.432598,1.3777684
1409526657652,4.016872,9.399636,3.8468835,2.2693033,9.437123,1.4004917
1409526657654,3.2154129,10.101735,3.7020345,2.237744,9.4435835,1.4077
1409526657659,1.0462662,12.650962,4.3221326,2.2026796,9.452763,1.4013919
1409526657688,0.23523031,14.733318,3.2321723,2.1455455,9.465953,1.400988
1409526657690,0.87328506,14.645331,0.7212533,2.0840642,9.480237,1.3972008
1409526657691,3.1507695,14.100651,-1.1444284,2.0621767,9.489766,1.3646132
1409526657720,5.2145715,12.53185,-0.93613285,2.085974,9.49191,1.3125346
1409526657721,6.76362,10.614694,1.1210849,2.1695037,9.4787655,1.2714777
1409526657722,6.6624646,10.186729,5.5222263,2.2893243,9.4497385,1.2774416
1409526657737,7.173627,13.9198885,9.465476,2.4218853,9.40707,1.3460698
1409526657775,7.3867106,19.000385,7.089231,2.5676022,9.349322,1.4724002
1409526657779,5.752668,19.608511,1.4000094,2.69781,9.301077,1.5434341
1409526657781,-1.745373,13.086706,-0.094570965,2.779699,9.2826605,1.5086007
1409526657783,-1.1599907,10.338163,-1.2779051,2.771446,9.287211,1.4957261
1409526657808,-0.6745663,9.376292,-0.2136825,2.7443519,9.290985,1.5220132
1409526657809,-1.168969,8.807071,2.3870192,2.6943302,9.2935095,1.5942589
1409526657810,-1.3796587,8.737639,2.066196,2.6207504,9.297219,1.6922663
1409526657811,-1.8064252,8.300697,1.95307,2.5411131,9.303869,1.7751515
1409526657826,-2.1984756,7.6488757,2.0129251,2.4543145,9.317297,1.8261236
1409526657828,-2.1667526,8.067862,1.9099745,2.3774574,9.333671,1.8441023
1409526657846,-1.8124107,8.790312,1.2443863,2.3128045,9.349814,1.8445365
1409526657860,-1.073201,9.351752,0.41000703,2.2590768,9.367115,1.8232156
1409526657862,0.013766659,9.791088,-0.12808979,2.2114546,9.38777,1.7747213
1409526657876,0.9247604,10.056246,-0.29149407,2.1653543,9.411994,1.7017671
1409526657893,1.436521,9.995792,-0.2633622,2.1151786,9.438624,1.6151761
1409526657894,1.4706384,9.780912,-0.27353755,2.056531,9.466003,1.5283442
1409526657920,1.364695,9.352949,-0.13108255,1.9891628,9.492601,1.4505671
1409526657922,1.1845313,9.0081835,0.20590134,1.9163357,9.51785,1.3815145
1409526657923,0.7954735,8.983045,0.57041854,1.8409564,9.541257,1.3212428
1409526657928,0.30645782,9.308058,0.8750807,1.7589322,9.564458,1.2640134
1409526657951,-0.08559271,9.437345,0.78290397,1.6687946,9.587765,1.2084202
1409526657953,-0.75237787,8.944737,-0.22385786,1.5734421,9.6106205,1.1535411
1409526657959,-1.1127052,8.6095495,-0.50757074,1.4769168,9.632801,1.0946487
1409526657979,-1.340753,8.480861,-0.48961425,1.3842695,9.652714,1.0388948
1409526657981,-1.3096284,8.76996,-0.17836803,1.3008444,9.66921,0.99226743
1409526657988,-1.1587936,9.1350765,0.01316811,1.2310547,9.681501,0.9609616
1409526658010,-1.4670471,9.169792,0.02633622,1.1734722,9.6900215,0.9470108
1409526658013,-1.785476,9.000402,-0.17956513,1.1167839,9.696646,0.94777185
1409526658033,-1.9147629,8.988432,-0.50876784,1.0557979,9.703209,0.9504911
1409526658034,-1.9566613,8.944139,-0.7392098,0.9807287,9.711529,0.94592655
1409526658041,-1.751957,9.090784,-0.57400984,0.8900049,9.72256,0.92201316
1409526658068,-1.3814543,9.1590185,-0.50876784,0.78791344,9.735064,0.88212657
1409526658070,-0.7649474,8.863934,-0.44113165,0.6819538,9.7468815,0.8388117
1409526658072,0.21547815,8.99741,0.0676362,0.5795963,9.75623,0.80649465
1409526658101,1.1007342,9.266758,0.7152678,0.49059448,9.76179,0.798243
1409526658102,1.7531542,9.450513,1.1091139,0.4200354,9.76333,0.8193582
1409526658103,2.0099323,9.448717,1.2503718,0.36553764,9.761549,0.8653999
1409526658108,2.1440077,9.414599,1.2683283,0.31846404,9.757421,0.9283032
1409526658132,1.939902,9.223063,1.146224,0.27246028,9.751956,0.99775785
1409526658133,1.7717092,9.116522,0.86251116,0.22274566,9.745989,1.0660669
1409526658140,1.7537527,8.778939,0.023343466,0.16754079,9.740424,1.1253613
1409526658163,2.099715,8.76996,0.018555064,0.107781164,9.736151,1.1688257
1409526658164,2.4474726,8.752603,0.3477578,0.050122023,9.73219,1.2051462
1409526658168,2.9011738,8.65863,0.7541735,-7.5052615E-4,9.727584,1.2427737
1409526658199,3.1052797,8.809465,1.3221979,-0.041511722,9.721665,1.2875907
1409526658201,3.040636,8.759187,1.8423382,-0.07404767,9.714089,1.3421522
1409526658202,2.5061307,8.786121,2.6503813,-0.10125293,9.704934,1.4051304
1409526658208,1.863886,8.926183,2.9604304,-0.13014147,9.694039,1.4761627
1409526658231,1.2306197,8.9842415,2.4319103,-0.16631095,9.682498,1.5466034
1409526658233,1.3431472,9.218275,1.6017209,-0.20951216,9.671642,1.6080565
1409526658240,1.6130934,9.26197,0.8559271,-0.25262737,9.664016,1.6472359
1409526658265,2.0979192,9.715671,0.29568392,-0.29293132,9.659658,1.6660049
1409526658267,2.4139538,10.049662,0.4842273,-0.32869714,9.657665,1.6708833
1409526658268,2.5025394,10.309433,0.87687635,-0.3617571,9.656726,1.6694857
1409526658294,2.2625206,10.387842,1.2509704,-0.39131108,9.656138,1.6662141
1409526658295,1.6017209,10.370484,1.5340848,-0.4176574,9.655119,1.665729
1409526658313,0.78290397,10.335769,1.543063,-0.44427472,9.653794,1.6665146
1409526658318,0.22325931,10.209475,1.8387469,-0.47138697,9.6536875,1.6596681
1409526658320,-0.18195933,10.007165,2.1404164,-0.49241903,9.655963,1.6402152
1409526658346,-0.38307226,9.397242,1.5143325,-0.4988048,9.660955,1.6085745
1409526658348,-0.427365,9.007586,1.5921441,-0.4954795,9.667786,1.5680594
1409526658350,-0.99538934,8.221688,1.2976574,-0.46855932,9.6767,1.5206331
1409526658362,-1.6657659,7.291541,0.7930793,-0.43031257,9.688151,1.4577228
1409526658386,-3.2196028,6.203975,0.64463884,-0.38477302,9.702419,1.3731033
1409526658387,-3.7361517,6.0699,-0.18794483,-0.3362501,9.718029,1.2716981
1409526658388,-4.201824,7.047931,-1.1456255,-0.2759174,9.735057,1.1501853
1409526658421,-4.10845,9.442732,-1.4185646,-0.19983287,9.752789,1.0067583
1409526658423,-4.034828,13.2034235,-1.1552023,-0.10437095,9.768341,0.8596476
1409526658425,-3.4183214,18.05707,-1.0390835,0.0025022835,9.778688,0.7400135
1409526658457,-1.1282675,19.608511,-1.7316064,0.12189225,9.784086,0.65360886
1409526658458,-1.0097545,19.608511,-1.602918,0.2857999,9.785054,0.58431673
1409526658459,-1.5442601,19.524117,-0.65780693,0.44916636,9.782089,0.52856326
1409526658460,-0.80325466,16.505028,0.8451532,0.57934034,9.776253,0.5095786
1409526658476,-0.2885013,12.558785,2.873042,0.6882469,9.766731,0.55469024
1409526658491,-1.7914615,10.600328,4.63278,0.7730529,9.753566,0.66389006
1409526658492,-3.9953241,10.334572,5.351041,0.8140806,9.739924,0.80095166
1409526658506,-3.4889505,11.460445,4.1401734,0.81910324,9.729051,0.9192466
1409526658508,-1.6519991,10.907983,2.3080103,0.8527661,9.7209635,0.9726509
1409526658520,0.05327099,7.543531,2.1260512,0.95586765,9.712681,0.95945644
1409526658538,0.98820674,7.8996687,2.9340942,1.1065509,9.699716,0.9281559
1409526658540,2.5743654,9.299079,2.7521348,1.2654921,9.681712,0.9129127
1409526658557,3.1376014,9.723452,1.863886,1.43271,9.659101,0.9052748
1409526658560,3.128623,9.460688,0.581791,1.6025655,9.633361,0.8947207
1409526658570,2.747945,8.209119,-0.14844051,1.7584859,9.607931,0.8750831
1409526658587,2.5594015,7.026982,-0.45968673,1.8851734,9.585465,0.8575351
1409526658588,1.8974048,6.1261635,-0.16340427,1.9856765,9.565431,0.8544284
1409526658605,1.8872294,5.511452,0.2088941,2.0659475,9.54628,0.8779519
1409526658608,1.6597804,4.92607,0.50397944,2.1382952,9.525393,0.93005615
1409526658620,1.4921862,4.9625816,0.94211835,2.204303,9.502786,1.0042396
1409526658637,1.3413515,5.021838,1.1653777,2.2635694,9.479088,1.0925007
1409526658640,1.2743138,5.1648917,1.3802572,2.315337,9.455431,1.1850995
1409526658659,1.484405,5.360019,1.6472107,2.3590732,9.4330435,1.2739246
1409526658682,1.4173675,5.4683566,1.6819267,2.3986218,9.411246,1.3584785
1409526658684,1.2240356,5.5617304,1.7495629,2.4280505,9.393103,1.4298996
1409526658685,1.1456255,5.777807,1.7357962,2.4474006,9.379717,1.483762
1409526658689,1.4574703,6.1088057,1.763928,2.4574807,9.371547,1.5183214
1409526658711,1.8501194,6.4380083,1.7603368,2.4610128,9.368238,1.5329525
1409526658712,2.6629508,7.113772,2.1140802,2.4574206,9.369631,1.530196
1409526658720,3.0011318,7.4735007,2.087744,2.4462543,9.374579,1.517721
1409526658738,3.520075,8.261193,1.9524715,2.4233925,9.383693,1.4979647
1409526658740,3.755904,9.252991,2.030283,2.3890588,9.396461,1.4728643
1409526658764,4.043208,10.26095,2.0817583,2.3424168,9.412462,1.4453467
1409526658765,4.401141,10.803835,2.6384103,2.2878287,9.430031,1.4180174
1409526658769,3.655946,9.910798,3.8534677,2.2348285,9.446027,1.3958904
1409526658795,3.1124623,9.284714,4.024653,2.1742432,9.460049,1.3966216
1409526658796,1.4796166,11.489176,3.9971197,2.1150606,9.472743,1.4014509
1409526658801,1.347337,14.31134,2.9771898,2.0423968,9.488426,1.403129
1409526658808,1.8195933,14.522031,1.2300211,1.9706565,9.505028,1.3933214
1409526658821,3.0490158,13.876793,-0.57400984,1.9332253,9.515142,1.3766309
1409526658839,5.631761,12.6354,-1.638831,1.9565884,9.514257,1.3494763
1409526658840,6.6534867,9.820416,0.1376666,2.0476282,9.498331,1.3264081
1409526658857,7.216124,7.852383,3.1872811,2.1703422,9.466851,1.3560078
1409526658873,7.5985975,8.137293,7.0970125,2.3143444,9.422259,1.4266222
1409526658874,6.6684504,11.931504,9.682152,2.4812572,9.36491,1.5205928
1409526658889,6.0477533,17.382504,7.551312,2.6422892,9.304814,1.6152824
1409526658894,4.3861775,17.460913,2.4911668,2.762932,9.264324,1.6458809
1409526658915,-1.7465701,12.503718,2.6731262,2.8277795,9.251441,1.6077678
1409526658916,-1.6472107,12.061988,0.5955577,2.813712,9.254471,1.6149901
1409526658920,-1.7477672,12.157756,0.17477672,2.7771976,9.260736,1.64205
1409526658937,-1.9931729,12.863447,-0.9283517,2.7191994,9.270723,1.6822716
1409526658942,-2.5683799,12.604874,-2.7569232,2.6333098,9.292818,1.6969424
1409526658956,-3.2854433,10.630256,-2.9095535,2.5246215,9.328293,1.6672155
1409526658973,-3.2160115,10.053851,-1.9512744,2.4121742,9.364734,1.6289784
1409526658974,-2.8443117,10.225636,-1.4065934,2.3035686,9.396225,1.6046599
1409526658990,-2.0446482,10.052056,-0.7685388,2.2041657,9.423829,1.5822517
1409526658991,-1.198298,9.301474,0.14844051,2.1175544,9.446214,1.5669729
1409526659007,0.12389994,8.559271,0.80086046,2.044266,9.46532,1.5488977
1409526659010,0.7433996,8.006809,1.0546459,1.9796156,9.482455,1.5279227
1409526659022,1.0851719,8.028357,1.4694413,1.9148567,9.498772,1.5089935
1409526659043,1.4377182,8.356961,1.8004397,1.846337,9.513959,1.4986686
1409526659044,1.4329298,8.581417,1.7136499,1.7754972,9.52812,1.4943086
1409526659049,0.94451255,8.713099,1.2677298,1.7006105,9.543702,1.4819098
1409526659079,0.3250129,8.874707,0.9151836,1.6172451,9.563356,1.4481542
1409526659080,-0.20649989,9.117719,0.45669398,1.5241752,9.586793,1.3930846
1409526659081,-0.47524905,9.214684,-0.10534488,1.426084,9.611617,1.3242005
1409526659089,-1.1767502,8.725668,-1.270124,1.3275181,9.63562,1.2501614
1409526659114,-1.4107834,8.42759,-1.5340848,1.2322499,9.657943,1.1730635
1409526659115,-1.1049241,8.644265,-1.2114661,1.1454841,9.67695,1.1022078
1409526659122,-0.801459,9.570223,-0.64703304,1.0736024,9.691806,1.0424404
1409526659147,-0.492607,10.468647,-0.11971009,1.0186399,9.702398,0.99810386
1409526659149,-0.1400608,10.539276,0.22505496,0.9779411,9.709028,0.97405195
1409526659151,-0.019153614,9.948506,0.10055647,0.9413259,9.712832,0.9722142
1409526659182,0.03172317,9.599552,-0.30765492,0.894448,9.716248,0.98229784
1409526659183,0.22146365,9.243414,-0.4770447,0.82922876,9.721732,0.9852315
1409526659184,0.6278794,8.754997,-0.6841431,0.7485637,9.729631,0.9717554
1409526659189,1.0348936,8.328231,-0.6087258,0.6650602,9.737737,0.9510996
1409526659214,1.5717934,8.350377,-0.14664486,0.57595336,9.745556,0.9288918
1409526659215,2.3199813,8.889072,0.52492875,0.48694065,9.751191,0.92062956
1409526659221,2.4588451,8.768764,1.09834,0.4082941,9.753589,0.93338734
1409526659266,2.610877,8.389881,1.541866,0.3385222,9.752799,0.96887076
1409526659268,2.1583729,7.9744873,1.8525136,0.2736451,9.748956,1.0263351
1409526659270,1.757344,7.752425,1.9907787,0.20278351,9.742736,1.0992659
1409526659272,1.395221,7.3340383,1.8219875,0.12155542,9.734974,1.1772376
1409526659276,1.3706805,6.963536,1.5969325,0.029305443,9.72677,1.248786
1409526659313,1.8818425,7.728483,1.0851719,-0.06552235,9.718975,1.3067536
1409526659314,2.0907366,8.497022,1.1761516,-0.14900902,9.712423,1.3479865
1409526659315,2.1218612,9.049484,1.4676456,-0.22257417,9.705965,1.3838737
1409526659317,2.15538,9.523536,1.6238673,-0.28237772,9.699597,1.4171985
1409526659321,2.0410569,9.644443,2.2601264,-0.33215976,9.692319,1.4556875
1409526659356,2.03148,9.901221,2.6378117,-0.3794702,9.682845,1.5062784
1409526659360,1.234211,9.575011,2.44029,-0.4256708,9.672122,1.5618057
1409526659361,1.4520833,9.501988,1.9662381,-0.4796553,9.66153,1.6109482
1409526659382,2.131438,9.533711,1.1647792,-0.52929217,9.652904,1.6467192
1409526659383,3.205836,9.733028,0.5021838,-0.56604296,9.647489,1.6661224
1409526659384,3.9019501,9.81922,1.0935516,-0.5834665,9.645547,1.6713474
1409526659389,3.4422636,10.056845,1.7663223,-0.5871991,9.644682,1.6750288
1409526659413,2.3894134,10.058042,2.0470424,-0.59009415,9.643323,1.6818244
1409526659414,1.7764976,10.4010105,2.1517887,-0.6025675,9.641183,1.6896441
1409526659421,0.92057055,10.312426,2.554613,-0.61257714,9.639937,1.6931506
1409526659455,0.004189853,10.231621,2.4432828,-0.61953557,9.641222,1.68327
1409526659457,-0.48602295,10.148422,1.8992004,-0.6190219,9.646578,1.6524907
1409526659460,-0.5590461,10.045472,1.364695,-0.6039204,9.655646,1.6044203
1409526659489,0.60812724,9.977237,0.8158242,-0.57308674,9.66805,1.5397301
1409526659492,-0.98820674,9.583391,-0.521936,-0.5194872,9.684967,1.4498066
1409526659495,-3.1729157,8.414422,-0.516549,-0.4690482,9.704793,1.3294173
1409526659498,-3.0819361,7.928399,-1.1522095,-0.42568427,9.723649,1.1999241
1409526659529,-3.3812113,7.848193,-2.131438,-0.36561853,9.742452,1.0589234
1409526659530,-3.8588545,9.081805,-2.6629508,-0.29674855,9.760301,0.90491706
1409526659531,-3.9456444,11.871649,-2.1739352,-0.21229357,9.7767935,0.73461545
1409526659532,-4.072537,16.25244,-0.866701,-0.120480396,9.788735,0.58012515
1409526659541,-2.4636335,19.565416,-0.31483752,-0.029966539,9.794606,0.48495153
1409526659569,-1.3162124,19.608511,-0.6847417,0.092157565,9.795727,0.4534832
1409526659572,-1.4885949,19.331982,-0.092176765,0.24249308,9.793057,0.45564243
1409526659574,-0.9816227,16.207548,1.4347254,0.37606844,9.787461,0.48431498
1409526659614,-0.1328782,12.339716,3.0747535,0.48234287,9.778868,0.55808866
1409526659617,-0.45968673,9.7719345,4.6764746,0.56942284,9.766453,0.6800994
1409526659621,-2.32058,9.8276,5.593454,0.6335082,9.751386,0.8243536
1409526659623,-3.8420951,10.5123415,5.4264584,0.6651177,9.737652,0.95190793
1409526659625,-2.2284033,11.6669445,4.0557775,0.67828566,9.726046,1.0556167
1409526659657,-0.92895025,10.21965,2.4947581,0.7284905,9.718851,1.0879332
1409526659658,0.10295067,8.845378,2.0242975,0.8356537,9.713588,1.0574943
1409526659660,1.785476,7.8302364,1.8171991,0.9712085,9.706609,1.0044302
1409526659663,2.7712884,9.276933,1.4688427,1.1175659,9.695502,0.9584803
1409526659669,3.352481,9.887454,0.40102878,1.2672489,9.68044,0.92390114
1409526659691,2.6114755,8.522759,-0.47285482,1.4129779,9.66335,0.8908149
1409526659692,1.8315643,7.2490444,-0.6847417,1.5349207,9.646957,0.86639357
1409526659703,1.4335283,6.071097,-0.581791,1.6266721,9.632201,0.86314887
1409526659725,1.0779893,5.433641,0.011971008,1.6987514,9.6175375,0.8874627
1409526659727,0.7733272,5.3624134,0.7685388,1.763238,9.602051,0.92844933
1409526659730,0.961272,5.2504845,1.1875241,1.823943,9.583896,0.99628484
1409526659766,0.9044097,5.1158104,1.3772645,1.8814094,9.563368,1.0829058
1409526659768,0.96306765,5.033809,1.5245079,1.9359262,9.541253,1.1777526
1409526659771,1.1713632,5.1930237,1.7064673,1.9851128,9.51923,1.2704268
1409526659772,1.3198037,5.3522377,1.809418,2.0285428,9.498423,1.3547634
1409526659803,1.3928268,5.4881086,1.816002,2.065726,9.480132,1.4248756
1409526659805,1.401805,5.768829,1.8555063,2.0952384,9.465777,1.4762907
1409526659806,1.5508442,6.077681,1.9219455,2.1167865,9.455922,1.5083641
1409526659825,1.6915035,6.397307,2.006341,2.1299136,9.450741,1.5222809
1409526659826,1.8950106,6.627749,2.1936872,2.131645,9.4505,1.5213579
1409526659829,2.083554,6.9132576,2.2397757,2.1275628,9.452308,1.515829
1409526659864,3.080739,7.958925,2.1254525,2.1095572,9.458407,1.5028923
1409526659865,3.83192,8.863934,2.1769278,2.08134,9.467679,1.483734
1409526659867,4.177882,9.771336,2.6647465,2.04409,9.4793,1.4611504
1409526659870,4.3819876,10.1699705,2.9071593,1.9977734,9.492136,1.4417508
1409526659895,4.608838,10.077793,2.9759927,1.9448369,9.505155,1.4282933
1409526659896,4.6561236,9.646837,3.264494,1.8882761,9.517205,1.4239316
1409526659901,3.5691562,10.183139,3.8744168,1.8404917,9.52751,1.4175819
1409526659925,2.248754,13.163321,4.526837,1.7925436,9.537355,1.412814
1409526659926,2.2625206,14.676456,2.9442697,1.7390233,9.546948,1.4149101
1409526659930,2.9765913,13.6493435,0.5129577,1.7054902,9.554411,1.4053228
1409526659957,4.5795093,12.075156,-0.8810662,1.699057,9.559996,1.3748083
1409526659959,7.0706763,10.700885,-0.025737667,1.7531885,9.555914,1.3346289
1409526659961,6.3763576,10.062231,4.8919525,1.8652999,9.535586,1.3280268
1409526659970,6.2644286,13.954006,10.008362,1.9912813,9.499087,1.4044752
1409526659996,5.085284,19.37448,6.5427547,2.1323085,9.44294,1.5666906
1409526659997,2.461838,19.608511,1.6208745,2.2495399,9.401717,1.6485353
1409526660003,-0.9504981,18.025944,-0.013766659,2.3155582,9.389759,1.6251187
1409526660025,-1.9339164,14.151527,-1.5370775,2.3168132,9.39359,1.6010084
1409526660029,-1.0965444,10.945692,-0.6895301,2.2952194,9.392569,1.6376883
1409526660030,-1.714847,9.14226,3.103484,2.2592797,9.381139,1.7493623
1409526660063,-1.7477672,8.843582,2.1499932,2.1916547,9.368727,1.8957875
1409526660073,-2.1440077,7.781754,1.6687586,2.1207108,9.364193,1.9962136
1409526660074,-2.4468741,7.3442135,1.7591397,2.040145,9.372505,2.0406718
1409526660075,-2.2691047,8.016386,1.3688848,1.9639488,9.38825,2.0430524
1409526660103,-1.5065514,9.167398,0.61890113,1.8974907,9.406941,2.0197423
1409526660104,-0.47225627,10.283096,0.22924481,1.8425899,9.42803,1.971676
1409526660105,0.6985083,10.896012,-0.11372458,1.7944249,9.452593,1.8970863
1409526660125,1.4634558,10.994174,-0.47165772,1.7474604,9.480426,1.7995279
1409526660126,1.4951789,10.764331,-0.8499416,1.6927514,9.510551,1.689488
1409526660130,1.3790601,10.202292,-0.7344214,1.6218348,9.540924,1.5845482
1409526660162,1.1091139,9.555259,-0.19871874,1.5378797,9.567833,1.503969
1409526660163,0.7505822,9.087791,0.25198972,1.4478803,9.591618,1.4404601
1409526660164,0.4213795,8.838794,0.5446809,1.3508532,9.613162,1.3902175
1409526660170,-0.01616086,8.660426,0.6769605,1.2462542,9.634451,1.3396178
1409526660183,-0.20470424,8.234259,0.581791,1.1367306,9.655024,1.2879292
1409526660204,-0.2633622,7.747637,0.17178397,1.0279975,9.6735325,1.2395027
1409526660205,-0.52073884,7.2849574,-0.20290859,0.9237049,9.689709,1.1944506
1409526660220,-0.8870517,7.0090256,-0.24899697,0.8239937,9.703852,1.151829
1409526660221,-1.0348936,7.707534,0.036511578,0.7332133,9.715499,1.1144016
1409526660236,-1.0486604,8.459313,0.25318682,0.65605307,9.724592,1.082731
1409526660252,-0.92057055,8.652046,0.33758244,0.59223264,9.731687,1.0554256
1409526660253,-0.7739257,8.775947,0.11312603,0.53446066,9.73749,1.032496
1409526660267,-0.9151836,9.181764,-0.35553896,0.47683075,9.742937,1.0090637
1409526660270,-0.7457938,9.212888,-0.8218097,0.40875134,9.748992,0.9800322
1409526660284,-0.45190558,9.062652,-0.97743285,0.32984674,9.756001,0.9391724
1409526660301,0.43275195,9.00579,-1.0247183,0.24052082,9.763314,0.88895667
1409526660302,1.264737,9.120711,-0.94331545,0.14997736,9.769297,0.8418635
1409526660317,2.1392193,9.591172,-0.40641573,0.06597601,9.77269,0.8127467
1409526660321,2.8616695,9.777321,0.4854244,-0.003267185,9.772893,0.8129905
1409526660334,3.3393128,9.906608,1.1240777,-0.05557459,9.769594,0.84991
1409526660354,3.2992098,9.36911,1.4838065,-0.094446026,9.763057,0.9188041
1409526660355,2.979584,8.893861,1.965041,-0.13294104,9.753625,1.009713
1409526660369,2.1428106,8.709507,2.2655134,-0.17994477,9.742034,1.1094044
1409526660370,1.5095441,8.401254,2.1218612,-0.2396157,9.728277,1.2139193
1409526660383,1.560421,8.064868,1.6298528,-0.31546858,9.713739,1.3092507
1409526660399,1.8596961,8.16363,1.2892777,-0.40218365,9.70029,1.3831156
1409526660401,1.9548657,8.279748,1.2473791,-0.48643407,9.688771,1.4357939
1409526660419,2.0248961,8.446145,1.7603368,-0.5599085,9.678263,1.4792367
1409526660421,2.0057425,8.687361,2.2888567,-0.6205977,9.667036,1.5276363
1409526660435,1.8363527,8.711902,2.4271219,-0.67275035,9.654909,1.5813112
1409526660453,1.7238252,8.945336,1.8662802,-0.722262,9.643357,1.6292222
1409526660454,1.661576,9.496601,1.400608,-0.7694762,9.6347,1.6585656
1409526660469,1.721431,10.067618,0.8463503,-0.8103703,9.630097,1.6658086
1409526660470,2.1320367,10.512939,0.7092823,-0.8460884,9.627841,1.6610862
1409526660484,2.469619,10.882844,0.8182184,-0.871016,9.627953,1.6475012
1409526660503,2.3253684,11.120468,1.2593501,-0.88414776,9.62967,1.6303788
1409526660503,1.4191631,10.923545,1.5849615,-0.8893195,9.631633,1.6159055
1409526660517,0.74519527,11.107899,1.8668787,-0.8972848,9.632135,1.6084926
1409526660533,0.1412579,11.001357,2.4768016,-0.9071714,9.632124,1.6030157
1409526660534,-0.6865373,10.609306,2.5103204,-0.91679686,9.63307,1.5918039
1409526660551,-0.90979666,10.129269,1.9183542,-0.9191748,9.637068,1.5660288
1409526660552,-0.12749124,10.010756,1.7818847,-0.8999252,9.645573,1.5242969
1409526660566,0.20829555,9.900622,2.2182279,-0.8499653,9.658679,1.4689672
1409526660570,0.0023942017,9.435549,1.049259,-0.7813586,9.6748705,1.3988334
1409526660584,-1.6567876,8.365939,0.02932897,-0.7129554,9.6925955,1.3098347
1409526660600,-2.1332338,7.641693,-0.6979098,-0.6463143,9.711387,1.2006834
1409526660602,-3.8989575,7.815273,-2.2523453,-0.5715363,9.73048,1.0777093
1409526660616,-3.401562,10.220248,-2.4001873,-0.49435657,9.749777,0.93158585
1409526660632,-3.8001966,14.104242,-1.5011644,-0.39909884,9.767956,0.7734178
1409526660633,-3.578733,18.880075,-0.7212533,-0.29376876,9.781646,0.63519526
1409526660662,-2.6743233,19.608511,-1.4646529,0.08373397,9.794173,0.48738313
1409526660663,-3.8504748,19.59714,-1.7579426,0.08373397,9.794173,0.48738313
1409526660664,-3.6996403,17.864935,-0.21667525,0.08373397,9.794173,0.48738313
1409526660671,-2.2810757,14.153922,2.0949266,0.17258151,9.791162,0.52322835
1409526660686,-0.7781156,10.06283,3.4943373,0.24680352,9.784942,0.60365504
1409526660703,-1.2228385,8.789713,4.3580456,0.32705593,9.774188,0.7271172
1409526660706,-4.408922,9.89344,5.1846437,0.3829522,9.76085,0.8657722
1409526660725,-3.3566709,12.086529,4.19524,0.39519256,9.748383,0.9915935
1409526660726,-0.88046765,10.807426,2.3409307,0.4260665,9.740193,1.057119
1409526660731,0.415394,8.06427,1.6053122,0.5369778,9.736322,1.0421482
1409526660764,1.4371196,7.0730705,1.8381484,0.7017853,9.732305,0.97987676
1409526660766,3.0532057,8.289924,2.1996727,0.8815653,9.724475,0.90986097
1409526660768,4.074931,8.933964,1.9758149,1.0698426,9.710781,0.8523972
1409526660771,4.3023806,9.21229,1.1061212,1.2560544,9.692247,0.80813366
1409526660794,3.9977183,8.546701,-0.5243302,1.419411,9.672411,0.77470255
1409526660795,2.7281928,5.801151,-0.30645782,1.5630944,9.652776,0.74231595
1409526660803,1.7561469,5.0625396,0.3429694,1.6663065,9.635681,0.73991585
1409526660825,1.8860323,4.6040497,0.7380127,1.7405269,9.619905,0.7735428
1409526660826,1.7681179,4.422689,1.1073183,1.8020915,9.602988,0.8399188
1409526660831,1.4215573,4.312556,1.4257472,1.8581837,9.584216,0.9275468
1409526660860,1.1839328,4.2239704,1.5233108,1.9077508,9.564767,1.0228046
1409526660862,1.0378864,4.2598834,1.4850036,1.9471096,9.546611,1.1141659
1409526660863,1.1965023,4.5860934,1.3682863,1.9757875,9.531033,1.1941911
1409526660871,1.7166426,4.9787426,1.3180081,1.9962822,9.518169,1.2608336
1409526660894,1.9997569,5.383961,1.4407109,2.0112395,9.508063,1.3122756
1409526660895,2.1452048,5.6856303,1.584363,2.0191424,9.50135,1.3482541
1409526660903,2.5073278,6.277597,1.8423382,2.0233245,9.496505,1.3758383
1409526660926,2.8233624,6.9210386,2.0213048,2.0162206,9.495634,1.3921926
1409526660928,3.1717186,7.5429325,2.2343888,1.9980652,9.4986105,1.3980601
1409526660932,3.2800562,8.091804,2.7539306,1.9682245,9.504925,1.3974551
1409526660960,3.345897,8.938752,3.165733,1.9252566,9.514172,1.3943917
1409526660962,3.0651767,9.73662,3.7576995,1.8720813,9.525879,1.3868495
1409526660963,2.6210523,9.931747,4.3239284,1.8146368,9.538618,1.3755904
1409526661006,2.1859062,9.279327,3.0101101,1.761322,9.55104,1.3585896
1409526661009,0.088585466,14.265851,3.8385038,1.7198985,9.564626,1.3153929
1409526661012,0.83018947,17.364546,2.3918076,1.6550778,9.580919,1.2795014
1409526661015,2.2062569,16.593613,-0.34835634,1.5949194,9.596892,1.2354262
1409526661017,5.48751,14.700997,-2.331354,1.5667012,9.606958,1.1925457
1409526661041,5.7658362,11.048044,-0.78769237,1.6242282,9.603304,1.1440356
1409526661042,6.2249246,8.733449,2.2296004,1.7116239,9.587704,1.147472
1409526661044,6.105813,9.768942,7.8308353,1.8140898,9.559597,1.2221248
1409526661051,5.1966147,15.204378,11.092337,1.9401443,9.513824,1.3759991
1409526661078,4.8739963,19.598934,5.7257333,2.0773244,9.45551,1.56475
1409526661082,1.7531542,19.422962,1.3269863,2.2100844,9.416117,1.6194717
1409526661084,-3.0693667,16.176424,-0.39264908,2.2855692,9.405538,1.5755788
1409526661116,-2.8508956,11.780071,-2.3864205,2.2859163,9.413007,1.5298008
1409526661118,-2.005144,9.179968,-0.985214,2.2749364,9.415079,1.5334078
1409526661125,-1.745373,8.631696,1.5616181,2.2615478,9.408942,1.5898452
1409526661159,-1.1558008,9.20391,2.267309,2.217007,9.402255,1.6890439
1409526661161,-0.90620536,9.252393,1.6035166,2.1488101,9.403637,1.7676632
1409526661163,-0.6799533,9.345168,1.1803415,2.0794168,9.4151325,1.7893262
1409526661165,-0.6003461,9.768942,0.9283517,2.0193987,9.431793,1.770228
1409526661166,-0.024540568,11.21085,-0.16519992,1.9692112,9.449097,1.7341222
1409526661191,0.7577648,11.584944,-0.46208093,1.9246763,9.4689245,1.6749616
1409526661192,1.5945383,11.513716,-0.7697359,1.8821272,9.491478,1.5936931
1409526661193,1.9045875,11.375451,-0.79607207,1.8359735,9.516426,1.4957325
1409526661203,1.6184803,10.737396,-0.54408234,1.7783718,9.541597,1.4020348
1409526661223,1.5149311,9.931149,-0.009576807,1.7043276,9.564183,1.3386902
1409526661225,1.2114661,9.234436,0.5303157,1.6223738,9.58352,1.3017116
1409526661232,0.777517,9.126697,1.0606314,1.5304251,9.599486,1.2954046
1409526661264,0.31423897,9.282919,1.3215994,1.4293698,9.61483,1.2970506
1409526661266,-0.032920275,9.148245,1.0480618,1.3201052,9.631684,1.2877929
1409526661267,-0.40462008,8.957906,0.59495914,1.2080878,9.649487,1.2642379
1409526661304,-0.6985083,8.728063,0.2148796,1.0965167,9.666984,1.2318635
1409526661305,-0.98102415,8.463503,-0.18914193,0.98596615,9.683038,1.198782
1409526661307,-1.4215573,8.039131,-0.5907693,0.875374,9.697466,1.1676024
1409526661308,-1.8866309,8.028357,-0.770933,0.7685459,9.710035,1.1379641
1409526661311,-1.939902,8.53892,-0.45429978,0.66940457,9.720526,1.1106951
1409526661333,-1.7645266,8.531139,-0.29149407,0.5801197,9.728968,1.0867594
1409526661334,-1.435324,8.34918,-0.2172738,0.4967238,9.735013,1.0738626
1409526661347,-1.1701661,7.994838,-0.28431144,0.41623425,9.738891,1.0729058
1409526661351,-0.44951138,7.9834657,-0.29149407,0.33268633,9.742049,1.0734107
1409526661369,-0.18854338,7.879916,-0.42078096,0.24585254,9.7457,1.0636206
1409526661371,0.7493851,8.070854,-0.49799395,0.1532308,9.749997,1.041383
1409526661383,1.1941081,8.208521,-0.24061728,0.060609076,9.75408,1.0122393
1409526661404,1.9865888,8.465299,0.14724341,-0.028834904,9.756615,0.98895496
1409526661406,2.3600843,8.195353,0.545878,-0.10646774,9.756614,0.9836416
1409526661412,2.6102784,7.98167,1.0115502,-0.17342092,9.753573,1.0040414
1409526661445,2.6868927,7.811083,1.4957775,-0.23161037,9.747521,1.0500422
1409526661447,2.6719291,7.8715367,1.9327193,-0.28685486,9.739509,1.1091034
1409526661448,2.3959973,7.8876977,2.0859482,-0.3390064,9.728776,1.1859167
1409526661453,1.9003977,7.606379,1.6573862,-0.39367354,9.716226,1.2690005
1409526661473,1.6915035,7.542334,1.0390835,-0.45611903,9.703817,1.3410043
1409526661475,1.9183542,7.884106,0.6721721,-0.5251955,9.6932335,1.3913281
1409526661483,2.1877017,8.447941,0.64942724,-0.5913455,9.684976,1.421957
1409526661505,2.3570917,8.977658,0.985214,-0.6477686,9.677882,1.445477
1409526661507,2.4636335,9.378088,1.163582,-0.69472504,9.670312,1.4740409
1409526661512,2.3744495,9.610924,1.7118542,-0.737607,9.661903,1.5079578
1409526661547,2.0440497,9.7563715,2.0392613,-0.7822886,9.652468,1.5454122
1409526661549,1.532289,10.107721,2.0727801,-0.8307147,9.642786,1.5801743
1409526661552,1.5628152,10.38066,1.1857284,-0.8810114,9.633199,1.6111131
1409526661553,2.3211784,10.351331,0.5710171,-0.92520535,9.62613,1.6284978
1409526661576,2.7910407,10.465654,1.1073183,-0.9556034,9.621351,1.6391503
1409526661577,2.7114334,10.668563,1.827973,-0.97676456,9.616942,1.6525054
1409526661583,2.019509,10.498574,2.3493104,-0.9976273,9.61206,1.6683693
1409526661605,0.99179804,10.441712,2.3122003,-1.023817,9.606041,1.68706
1409526661606,0.10594343,10.667366,2.657564,-1.0509347,9.600365,1.7026223
1409526661611,-0.78290397,10.755951,2.7730842,-1.0734081,9.596794,1.7087258
1409526661632,-1.3102269,10.346542,1.8746599,-1.0880343,9.597611,1.6948289
1409526661633,-0.825401,10.207679,1.2671312,-1.0862094,9.604538,1.6563276
1409526661647,0.075417355,10.304046,1.8195933,-1.0572865,9.616176,1.6067735
1409526661652,0.32800564,9.865308,1.4796166,-1.0118414,9.630775,1.5474931
1409526661671,-0.88525605,8.875306,0.29747957,-0.94908655,9.649365,1.4694852
1409526661672,-1.8387469,8.206126,-0.55605334,-0.8837296,9.670733,1.3661493
1409526661683,-2.7497406,7.3472066,-1.0833763,-0.8138818,9.693253,1.2445343
1409526661704,-3.328539,7.321469,-1.7705121,-0.73425215,9.715546,1.1133078
1409526661706,-3.4691982,8.933365,-2.1601684,-0.6430254,9.73722,0.97132224
1409526661713,-3.413533,11.66874,-1.5173253,-0.54051554,9.7567425,0.8271663
1409526661746,-3.493739,15.656882,-0.49559975,-0.42575836,9.771393,0.71346337
1409526661747,-1.4383167,19.608511,-1.364695,-0.30218253,9.7805395,0.64817107
1409526661748,-2.4768016,19.396027,-0.7068881,-0.13912019,9.787415,0.5979501
1409526661752,-1.8543092,16.797121,0.9475053,0.005138313,9.789827,0.5741566
1409526661772,-0.8487445,12.727576,2.5312698,0.13152933,9.7869625,0.60701954
1409526661774,-0.45669398,9.737218,4.0306387,0.23352966,9.779056,0.697085
1409526661783,-2.3535004,9.300875,5.1541176,0.3118524,9.766288,0.83233637
1409526661804,-4.1934443,10.041282,5.0547585,0.3526098,9.750872,0.98314536
1409526661805,-2.6659436,11.401787,3.4075475,0.36289725,9.73765,1.1031232
1409526661811,-0.8762778,10.307637,1.8076223,0.40575904,9.730408,1.15104
1409526661836,-0.40521863,8.038532,1.1911154,0.51514095,9.72777,1.1293805
1409526661837,0.29867667,7.363966,1.8183962,0.65974975,9.725095,1.0759429
1409526661843,1.8136078,8.438962,2.2038627,0.8095739,9.718802,1.029502
1409526661877,2.7168205,9.065046,2.0033484,0.9683569,9.707443,0.9991034
1409526661879,3.2034419,9.176376,0.85891986,1.1311738,9.692323,0.9745313
1409526661881,2.9963434,8.263587,-0.18315643,1.282387,9.675848,0.9507219
1409526661884,2.6324248,6.813898,-0.66858083,1.4043176,9.660898,0.9302368
1409526661908,1.70946,5.5006785,-0.18854338,1.4963357,9.647438,0.92644966
1409526661909,1.5292963,4.9027267,0.39863458,1.5642912,9.634064,0.9530074
1409526661911,1.6298528,4.437054,1.0031705,1.6242417,9.618362,1.009633
1409526661930,1.299453,4.27365,1.6591818,1.6866683,9.599079,1.0877689
1409526661931,1.2144588,4.522647,1.7172412,1.748521,9.577456,1.1770371
1409526661948,1.4329298,4.7884035,1.7274165,1.8055122,9.555757,1.2641426
1409526661974,1.5239093,4.9266686,1.6903064,1.8563524,9.535573,1.3405933
1409526661976,1.6292542,5.1882353,1.6364368,1.8982193,9.517417,1.4092361
1409526661977,1.7178397,5.5168395,1.5741876,1.9349661,9.501908,1.4628859
1409526661984,1.905186,5.977723,1.6609775,1.9608192,9.49076,1.5003561
1409526662011,2.2469583,6.6510925,2.070386,1.976436,9.484001,1.5224434
1409526662012,2.5157075,7.261614,2.441487,1.9822384,9.481181,1.5324218
1409526662013,2.942474,7.748235,2.5061307,1.9763696,9.4821415,1.5340661
1409526662035,3.2603042,8.358158,2.5121162,1.958082,9.486972,1.5276439
1409526662036,3.5859156,9.384672,2.4744074,1.9255426,9.496039,1.5125924
1409526662043,3.8055837,10.512939,2.6330233,1.8811338,9.508252,1.491597
1409526662072,3.715801,10.848726,2.918532,1.8304166,9.52134,1.4710739
1409526662073,3.5793316,10.068216,3.0963013,1.778962,9.53392,1.4526088
1409526662075,3.309984,9.184157,2.7401638,1.73103,9.54589,1.4317443
1409526662084,1.2779051,11.917738,3.5194764,1.6885502,9.558214,1.3999013
1409526662108,0.7942764,15.704167,3.6834793,1.632791,9.5726795,1.3668156
1409526662110,1.4209588,16.395493,1.7238252,1.5699778,9.58509,1.3533757
1409526662112,4.830302,13.08132,-0.7751228,1.5441877,9.590841,1.3422493
1409526662135,7.065888,10.978612,0.43275195,1.6044366,9.583361,1.3249084
1409526662136,5.6161985,10.530297,6.431424,1.7153994,9.560754,1.348983
1409526662144,5.478532,15.14153,9.688736,1.8267071,9.523174,1.4637936
1409526662175,4.5872903,19.524117,5.507861,1.9474568,9.470935,1.6368238
1409526662176,0.95109665,19.323004,1.4496891,2.061848,9.433573,1.7108079
1409526662178,-2.6431987,16.203957,-0.04309563,2.1231594,9.424134,1.6876801
1409526662205,-2.3002293,11.956045,-1.738789,2.1397398,9.425877,1.6567309
1409526662206,-1.067814,9.662399,-0.9151836,2.156487,9.423797,1.6468104
1409526662207,-1.0965444,7.776367,1.54845,2.1583235,9.411696,1.7123078
1409526662212,-1.091756,7.430405,2.6018987,2.1318667,9.395349,1.8311061
1409526662229,-1.127669,7.143699,1.846528,2.0779862,9.386471,1.9355987
1409526662232,-1.1935096,6.6732388,1.9087774,2.0155904,9.390908,1.9795558
1409526662245,-1.1264719,6.885724,1.9315223,1.9586276,9.403782,1.9756156
1409526662268,-0.8834604,8.049306,1.3533225,1.9117438,9.419265,1.9475802
1409526662269,-0.25797522,9.576208,0.6679823,1.8724647,9.437206,1.8982658
1409526662272,0.64583594,11.026496,0.42437226,1.8352294,9.459758,1.8208027
1409526662304,1.614889,11.781268,-0.05686229,1.7953533,9.484654,1.7287054
1409526662305,2.0578163,12.025476,-0.825401,1.7565299,9.512436,1.6120062
1409526662306,1.441908,11.652579,-0.70509243,1.7085996,9.541502,1.4868776
1409526662312,0.89902276,11.163564,-0.46627077,1.6408324,9.568387,1.3871038
1409526662329,0.27353755,10.716447,-0.14784196,1.5540842,9.591642,1.3249966
1409526662332,-0.29508537,10.376471,0.09935937,1.450753,9.613169,1.2855723
1409526662347,-0.6895301,9.863512,0.08020575,1.3361062,9.634658,1.2484447
1409526662371,-0.78649527,9.317036,0.09935937,1.2161679,9.655458,1.2097405
1409526662373,-0.90740246,8.887277,0.038905777,1.0991625,9.6735325,1.1768618
1409526662374,-1.1623849,8.453327,-0.17657238,0.9872232,9.688582,1.1520225
1409526662405,-1.3557167,7.8811135,-0.22445641,0.88156044,9.701164,1.1316689
1409526662406,-1.3970166,7.809886,-0.02873042,0.78121513,9.711924,1.1129513
1409526662407,-1.5927427,8.541314,0.29269117,0.6943863,9.720102,1.0990326
1409526662420,-1.5077485,8.578424,0.521936,0.61899877,9.726109,1.0908903
1409526662441,-1.572392,8.241441,0.2717419,0.5511656,9.730196,1.0908202
1409526662442,-1.2318168,8.124723,-0.108337626,0.48037806,9.73382,1.0919582
1409526662444,-0.7517793,8.289924,-0.43993455,0.40376303,9.738349,1.082548
1409526662473,-0.6428431,8.293514,-0.54887074,0.32247773,9.74438,1.0552024
1409526662475,-0.52852005,8.484452,-0.59017074,0.23490547,9.751235,1.0142174
1409526662476,0.16220717,8.831612,-0.54647654,0.13994105,9.757624,0.9693331
1409526662504,1.5023615,9.03452,-0.18076223,0.046953548,9.762092,0.93260354
1409526662506,2.1763294,8.814254,0.12689269,-0.033212095,9.763672,0.9165058
1409526662507,2.7407625,8.695741,0.6895301,-0.1055827,9.763288,0.91510993
1409526662512,2.9251158,8.556877,1.1869255,-0.16845877,9.759505,0.9455688
1409526662528,2.8245595,8.367735,1.5035586,-0.22305517,9.752118,1.0083857
1409526662532,2.3648727,8.124125,1.6418238,-0.2753067,9.741455,1.0948305
1409526662546,1.9913772,7.845799,1.4443022,-0.3337652,9.7285,1.189654
1409526662572,1.8830396,7.6009917,1.0803835,-0.4027865,9.714663,1.2780875
1409526662574,1.9393034,7.6375036,0.86011696,-0.48101833,9.701652,1.3479567
1409526662575,2.1410148,7.9607205,1.0235212,-0.5627176,9.690185,1.3978847
1409526662604,2.1978772,8.422802,1.3605051,-0.6375083,9.679574,1.4386867
1409526662605,2.0458453,8.678383,1.9027919,-0.7010407,9.668245,1.484585
1409526662606,1.8243817,8.774749,2.6240451,-0.75679606,9.655515,1.5390608
1409526662612,1.1917139,8.690952,2.712032,-0.81109184,9.639872,1.6079146
1409526662627,0.6254852,8.905233,2.1883004,-0.86893153,9.622719,1.6788778
1409526662632,0.60693014,9.287108,1.3467385,-0.9318776,9.606893,1.7348294
1409526662645,1.2599486,9.559449,0.30406362,-0.99293715,9.595274,1.7649925
1409526662668,2.4636335,9.828198,-0.19632454,-1.0447713,9.588716,1.7707074
1409526662670,3.107674,10.3770685,0.61650693,-1.0802667,9.586878,1.7593203
1409526662673,2.1086931,10.600926,2.5408466,-1.1020503,9.5862,1.7494758
1409526662701,1.4341269,10.481216,2.8646624,-1.1243083,9.581147,1.7629298
1409526662702,0.717662,10.415975,3.2106245,-1.1418409,9.575217,1.7837615
1409526662704,-0.31124622,10.320207,2.9879637,-1.1518583,9.571271,1.7984447
1409526662712,-0.6314707,10.117896,2.1583729,-1.1639776,9.56941,1.8005437
1409526662734,-0.39863458,10.171766,1.970428,-1.1594069,9.575041,1.7733552
1409526662736,0.27712885,10.720636,2.7898436,-1.1308326,9.5870075,1.726524
1409526662745,0.40641573,10.757148,2.2493525,-1.0761514,9.60321,1.6705297
1409526662767,0.16460137,10.341156,0.20590134,-1.0098646,9.623604,1.5927457
1409526662768,-2.087744,9.1829605,-0.66738373,-0.9385625,9.648677,1.480722
1409526662773,-1.9698294,8.690353,-1.3874398,-0.87921166,9.673939,1.3462106
1409526662800,-3.4889505,8.072051,-2.178125,-0.81318086,9.699473,1.1955484
1409526662802,-3.4638114,9.035717,-2.7036524,-0.7443414,9.723805,1.0314801
1409526662804,-3.8031895,10.881647,-2.3505075,-0.66034675,9.746413,0.8612743
1409526662812,-3.933075,14.07192,-1.6843209,-0.56431717,9.764269,0.7148323
1409526662835,-3.1800983,18.2097,-1.1713632,-0.46580943,9.777671,0.5920757
1409526662836,-2.5570073,19.608511,-1.1976994,-0.3497085,9.786763,0.51707214
1409526662844,-3.347094,19.591753,-0.48003745,-0.21537922,9.79231,0.48444942
1409526662870,-3.0358477,17.410635,1.073201,-0.10830241,9.79316,0.5026666
1409526662872,-1.0151415,9.655815,4.111443,-0.028110461,9.789207,0.58397245
1409526662874,-1.7812861,9.248202,5.158906,0.052654903,9.779619,0.7257237
1409526662904,-4.455011,9.650429,5.2289367,0.10210487,9.7656975,0.88945526
1409526662906,-4.0402155,10.376471,3.892972,0.10803251,9.751082,1.03687
1409526662907,-2.1739352,10.028113,2.1811178,0.12010931,9.741833,1.1192232
1409526662913,-0.6853402,8.598177,1.2485762,0.19004722,9.740223,1.1235365
1409526662929,-0.026934769,7.5495167,1.513734,0.31796816,9.740053,1.0957435
1409526662932,1.0947487,7.438186,1.7597382,0.46254185,9.740161,1.0419763
1409526662949,2.3493104,8.291121,1.95307,0.6210826,9.7367735,0.9899042
1409526662953,3.8031895,9.462483,1.5316905,0.78898066,9.728825,0.94756377
1409526662969,4.3287168,9.032724,0.3645172,0.9654354,9.716658,0.9082395
1409526662991,3.4404678,7.641693,-0.3309984,1.1296355,9.702587,0.86840785
1409526663000,2.8874073,6.364985,-0.41299978,1.2533507,9.689685,0.8423177
1409526663002,2.3014264,5.385158,-0.010175358,1.340494,9.678057,0.84184074
1409526663025,1.905186,4.9344497,0.6183026,1.4075878,9.665967,0.87073654
1409526663026,1.6759412,4.4460325,1.0133458,1.4690953,9.651715,0.92550975
1409526663028,1.5753847,4.024653,1.3227965,1.5291564,9.63521,0.99739426
1409526663051,1.3808558,4.1401734,1.5143325,1.5873727,9.617361,1.0756413
1409526663052,1.3096284,4.5423994,1.6334441,1.6423573,9.598911,1.1549761
1409526663053,1.151611,5.1020436,1.5209166,1.6918569,9.581375,1.2268828
1409526663064,1.1486182,5.391144,1.4885949,1.7326875,9.566515,1.2845219
1409526663077,1.3748703,5.834071,1.5173253,1.7635585,9.555251,1.3256769
1409526663097,1.7022774,6.381745,1.5969325,1.7846693,9.548038,1.3492045
1409526663099,1.9746178,7.1155677,1.851915,1.7964495,9.544893,1.3557898
1409526663120,2.384625,7.884106,2.2391772,1.7972077,9.545748,1.3487568
1409526663121,2.8191724,8.48984,2.4343045,1.7855226,9.549939,1.3345261
1409526663125,3.2160115,9.107543,2.558803,1.7611381,9.556923,1.3168244
1409526663149,3.7020345,10.035296,2.6755204,1.7244132,9.566361,1.2967379
1409526663152,3.9749734,10.9103775,3.0454245,1.6855725,9.576112,1.27566
1409526663154,4.3819876,11.301829,2.902371,1.638613,9.5867195,1.2570448
1409526663165,4.004901,10.687118,2.9203274,1.5939564,9.597081,1.2352087
1409526663187,3.5553896,11.121665,2.992752,1.549435,9.607644,1.2094629
1409526663188,2.1763294,13.851055,3.554791,1.5065252,9.618272,1.1788287
1409526663193,1.8016368,15.638926,2.7024553,1.453186,9.629354,1.1550808
1409526663218,1.9698294,14.881161,0.9139865,1.4054848,9.639138,1.1322645
1409526663219,2.9873652,12.8209505,-0.49559975,1.3876373,9.644872,1.1051369
1409526663225,4.3957543,10.507553,-0.45370123,1.4139221,9.64231,1.094114
1409526663250,5.969343,9.116522,1.2749124,1.4803416,9.628761,1.1251339
1409526663254,4.4921207,13.36204,9.910798,1.5728413,9.606737,1.1862392
1409526663255,4.7734394,19.302652,6.813898,1.6720585,9.565527,1.3694191
1409526663279,2.0207062,19.608511,2.1296425,1.78222,9.527715,1.4888719
1409526663280,-1.8710686,17.785927,-0.7422025,1.8624725,9.510296,1.5019478
1409526663295,-3.0382419,13.6732855,-3.0065188,1.8922489,9.512728,1.4483827
1409526663296,-1.5993267,10.645219,-1.7848774,1.911078,9.51943,1.377911
1409526663310,-1.6011224,8.646061,1.4796166,1.9258047,9.514886,1.3887509
1409526663313,-1.3964181,8.7951,3.1190462,1.9074858,9.501881,1.4987195
1409526663328,-0.99778354,8.746018,2.4953568,1.8554113,9.49008,1.6328532
1409526663342,-0.9331401,8.063671,1.7244238,1.7925482,9.486917,1.7191812
1409526663344,-1.1180922,8.000225,1.7166426,1.7342072,9.491652,1.7525562
1409526663366,-1.4095862,8.054094,1.4173675,1.6839623,9.498216,1.7659429
1409526663367,-1.3664906,8.506598,0.7224504,1.6408582,9.506012,1.7645687
1409526663373,-0.81283146,9.351752,0.11971009,1.6040945,9.51627,1.7429549
1409526663405,0.22565351,9.986814,-0.094570965,1.5651779,9.531897,1.6922026
1409526663407,1.2737153,10.315418,-0.15083471,1.522575,9.552165,1.6150259
1409526663409,1.6801311,10.821193,-0.11372458,1.4743311,9.574094,1.5275697
1409526663415,1.4383167,10.998364,-0.035913024,1.4140748,9.595028,1.4512837
1409526663433,0.9708488,10.038289,-0.078410104,1.338406,9.6132765,1.4014328
1409526663435,-0.29747957,8.965088,0.093972415,1.250907,9.629403,1.3712059
1409526663449,-0.7074866,8.956709,0.52133745,1.1508301,9.645894,1.342648
1409526663476,-0.9415198,9.14226,0.7290344,1.0446784,9.662832,1.3071821
1409526663478,-1.0319009,9.296086,0.6123171,0.9365451,9.678814,1.2703631
1409526663482,-0.9175778,9.619903,0.32142156,0.83315235,9.69346,1.2300743
1409526663514,-0.7942764,9.7007065,-0.10474633,0.7371089,9.706461,1.1881291
1409526663516,-0.7146692,9.519346,-0.5153519,0.6494636,9.71802,1.1439778
1409526663519,-0.78649527,9.998186,-0.53330845,0.57302,9.727946,1.0996078
1409526663522,-1.122282,10.111911,-0.16460137,0.50786144,9.7358,1.0614613
1409526663526,-1.1384429,9.613318,-0.10654198,0.44960782,9.740893,1.0407927
1409526663557,-0.9648633,8.947132,-0.11851298,0.39021865,9.743841,1.0371652
1409526663558,-0.9475053,8.413823,-0.29688102,0.32225803,9.745866,1.0414708
1409526663559,-0.96905315,8.258201,-0.18375498,0.23966421,9.748475,1.0393192
1409526663591,-0.6841431,8.246828,-0.047285482,0.14941578,9.751091,1.0316548
1409526663593,-0.3842694,8.1642275,0.108337626,0.048310444,9.754251,1.0112714
1409526663594,0.48482585,8.471883,0.09816227,-0.05750848,9.756946,0.98443425
1409526663595,1.1258733,8.587403,0.25917232,-0.15926132,9.758217,0.96033734
1409526663621,1.8076223,8.544906,0.6841431,-0.25219256,9.757003,0.95271343
1409526663622,2.2158337,8.452729,1.1617863,-0.33358985,9.752562,0.97296065
1409526663627,1.7926586,7.8428063,2.2056582,-0.40618148,9.744505,1.0247066
1409526663654,1.5041572,7.40766,2.0015526,-0.483066,9.73202,1.1067197
1409526663655,1.0600328,7.0263834,1.2437878,-0.56805414,9.716834,1.1961738
1409526663657,0.6943185,6.6175733,0.38067806,-0.66438526,9.700953,1.2729876
1409526663687,0.9552865,6.938995,-0.05686229,-0.7712685,9.68606,1.3250592
1409526663689,1.5891514,7.7931266,0.12928689,-0.87923187,9.671716,1.3620805
1409526663691,2.1481974,8.774151,0.5662287,-0.977446,9.6598215,1.3794278
1409526663693,2.4211364,9.193734,0.90500826,-1.0566618,9.649805,1.3910786
1409526663716,2.5809495,9.063251,1.0821792,-1.1193136,9.64006,1.4095296
1409526663717,2.5767596,8.987833,1.3305776,-1.1728146,9.629398,1.4386113
1409526663724,2.2547395,9.17099,2.3199813,-1.2191949,9.617697,1.4777877
1409526663745,1.5316905,9.462483,2.842516,-1.2573893,9.604183,1.5326556
1409526663746,0.9720459,9.4774475,2.855684,-1.2905939,9.588803,1.5998826
1409526663760,0.8858546,9.202114,2.15538,-1.3196189,9.573203,1.6681752
1409526663775,1.2976574,9.140464,1.2749124,-1.3424071,9.560418,1.7224241
1409526663776,2.1745336,9.651626,1.3042414,-1.3569539,9.552225,1.7561616
1409526663793,2.9658175,10.406398,1.7615339,-1.3602688,9.547231,1.7805735
1409526663794,3.0424318,10.521918,2.1308396,-1.3439063,9.546991,1.7942274
1409526663809,2.3971944,10.408792,2.3026235,-1.3151978,9.549159,1.8039386
1409526663822,0.7332243,10.495582,2.9293058,-1.283581,9.552321,1.8099674
1409526663824,-0.3878607,9.86471,2.331354,-1.2562263,9.5559635,1.8099318
1409526663839,-0.98581254,9.300875,0.8912416,-1.225952,9.563863,1.7888498
1409526663844,-0.5482722,9.341577,0.7553706,-1.1818742,9.578351,1.7403392
1409526663856,-0.17238252,9.255983,1.1228806,-1.1124884,9.598732,1.6724575
1409526663873,-0.10654198,8.558074,0.40940848,-1.0235279,9.622933,1.588059
1409526663874,-2.0961237,7.073669,-0.29867667,-0.9241601,9.649795,1.4824896
1409526663889,-2.207454,6.75524,-1.2384008,-0.83525234,9.674879,1.367285
1409526663893,-2.9179332,7.1383123,-1.5149311,-0.73616785,9.700817,1.2339398
1409526663909,-3.2770636,9.108142,-1.0486604,-0.6288266,9.725763,1.0883441
1409526663923,-3.9372647,13.054983,-0.016759412,-0.5106304,9.7470045,0.95160574
1409526663925,-4.0198646,18.425776,-0.049679685,-0.39567178,9.761805,0.84912854
1409526663941,-2.3732524,19.608511,-1.4826094,-0.27845448,9.772298,0.7713895
1409526663946,-2.3062148,19.608511,-2.5378537,-0.122472435,9.781515,0.6909236
1409526663969,-3.9486372,19.608511,-1.1031284,0.031194527,9.788036,0.60315764
1409526663970,-3.2914288,17.669807,1.1587936,0.1199596,9.789501,0.567192
1409526663974,-1.8351556,12.268488,2.9532478,0.17974311,9.7850895,0.6246102
1409526663999,-0.7386112,8.67958,4.2700586,0.24171726,9.775414,0.74378306
1409526664001,-3.5901055,8.781932,5.4061074,0.3079125,9.762781,0.8739017
1409526664005,-0.4818331,12.09012,3.5781345,0.33458552,9.750242,0.99561965
1409526664030,1.365892,9.933543,2.4785974,0.39811397,9.741748,1.053686
1409526664032,2.3187842,8.177995,2.6940753,0.53442466,9.736091,1.0456372
1409526664034,3.2309752,8.323442,3.0879216,0.7194163,9.728261,1.0068542
1409526664047,4.07134,8.772954,2.8263552,0.9138512,9.715681,0.96996677
1409526664066,4.031237,8.939949,1.8830396,1.1059165,9.698662,0.93984574
1409526664067,3.74513,8.714894,0.62129533,1.2801389,9.680338,0.90703714
1409526664074,3.2213984,7.5746555,-0.33039984,1.424894,9.663629,0.8685516
1409526664097,2.461838,6.2219315,-0.62368953,1.5357434,9.649164,0.8399644
1409526664098,2.3002293,5.5683146,-0.5105635,1.6180376,9.635449,0.8428952
1409526664106,1.3299791,4.9799395,0.1340753,1.6900743,9.620839,0.8680472
1409526664132,1.3479356,4.4717703,0.42437226,1.7494165,9.604116,0.93319917
1409526664134,1.3138182,3.9845502,0.6584055,1.8047479,9.584463,1.0253514
1409526664135,1.1617863,4.1066546,0.9127894,1.857166,9.563044,1.1267366
1409526664162,1.0923545,4.553173,1.2533646,1.9049053,9.541445,1.225795
1409526664164,1.1737574,4.666898,1.5514427,1.9465675,9.52098,1.3161393
1409526664170,1.271321,4.7788267,1.8285716,1.9813057,9.5032425,1.3903999
1409526664174,1.3102269,5.0224366,1.9446903,2.0066454,9.4898,1.4448096
1409526664200,1.775899,5.325303,1.702876,2.0213635,9.481614,1.4776545
1409526664202,2.0871453,6.1345434,1.714847,2.0274367,9.478738,1.4877666
1409526664207,2.3864205,6.6103907,1.8746599,2.0295541,9.478508,1.4863358
1409526664225,2.7503393,6.952163,2.0069396,2.018746,9.483734,1.4675878
1409526664226,3.0113072,7.27957,2.1386206,1.9943998,9.493874,1.4349703
1409526664240,3.3758245,8.024766,2.280477,1.9551609,9.508291,1.3928982
1409526664263,3.650559,9.279327,2.8203697,1.902848,9.525574,1.3464801
1409526664265,3.8085763,10.770316,3.4626143,1.8390936,9.543881,1.3047744
1409526664266,3.7612908,11.525088,3.928885,1.7692175,9.560805,1.2772224
1409526664274,3.9606082,10.648212,4.1252093,1.7015985,9.574547,1.2661036
1409526664297,3.4566288,10.065224,3.6643257,1.648576,9.584323,1.2622762
1409526664298,0.84934306,13.374609,4.039018,1.6018082,9.593478,1.252914
1409526664306,0.1412579,15.842433,2.9658175,1.5278143,9.605497,1.2532436
1409526664324,0.37588966,15.353417,0.90979666,1.4410915,9.619623,1.2475866
1409526664325,1.3772645,13.648147,-1.3347675,1.389519,9.62982,1.2272786
1409526664340,3.4045548,11.723208,-1.8860323,1.3956759,9.632871,1.19594
1409526664368,6.251859,10.113707,-0.43035775,1.4532737,9.624549,1.194332
1409526664369,5.357625,9.077616,5.1918263,1.5597547,9.600817,1.2497551
1409526664370,5.0984526,12.325949,10.946889,1.6756257,9.563909,1.3763521
1409526664374,4.2742486,19.453487,2.5983074,1.8076639,9.510724,1.5648913
1409526664395,-0.4405331,16.894085,1.3808558,1.9183174,9.487784,1.572385
1409526664396,-3.4739866,13.455414,0.14724341,1.9488975,9.488568,1.5294647
1409526664406,-2.3229742,11.687296,-1.6178818,1.9347419,9.500483,1.4724101
1409526664420,-2.0123265,10.819398,0.038307227,1.9225454,9.510781,1.4210055
1409526664425,-1.9895816,10.885837,1.6968905,1.9048159,9.511607,1.4392285
1409526664440,-1.5741876,10.884041,0.997185,1.866244,9.508222,1.5103818
1409526664465,-1.417966,9.929952,0.6440403,1.8049809,9.509315,1.5765088
1409526664467,-1.2797008,9.200917,0.35194764,1.7352372,9.515548,1.6166947
1409526664468,-1.2635399,9.239823,0.16340427,1.6675011,9.524292,1.6363732
1409526664474,-1.049259,9.810242,-0.094570965,1.6032842,9.533933,1.64438
1409526664495,-0.5590461,10.375273,-0.130484,1.5434252,9.545243,1.6360289
1409526664496,0.23942018,10.324995,0.020350715,1.4850423,9.56007,1.6031513
1409526664506,0.9900024,9.9550905,0.23283611,1.42627,9.577684,1.550518
1409526664530,1.1522095,9.612122,0.2136825,1.364336,9.595628,1.4942882
1409526664532,1.4311341,9.490017,0.11671733,1.2971988,9.612695,1.4435189
1409526664534,1.4694413,9.294889,0.33159694,1.2228594,9.628622,1.4016536
1409526664566,1.216853,9.050082,0.6584055,1.1405845,9.643386,1.3691508
1409526664568,0.7236475,9.027337,0.96187055,1.0496296,9.658236,1.3368506
1409526664569,-0.24361002,9.136273,0.8714894,0.9499796,9.674143,1.2957132
1409526664574,-0.39384618,8.796297,0.37588966,0.8408099,9.691094,1.2434365
1409526664595,-0.5069722,8.630499,-0.17058687,0.7328756,9.706929,1.1869336
1409526664597,-0.9876082,8.374918,-0.545878,0.6294418,9.720681,1.1324989
1409526664606,-1.5490485,8.352173,-0.59615624,0.52992,9.732288,1.0826509
1409526664639,-1.8076223,8.505402,-0.21547815,0.43460312,9.741688,1.0397364
1409526664641,-1.8722657,8.71669,0.16460137,0.34895694,9.7480955,1.0115666
1409526664644,-1.8608932,8.522161,0.31663316,0.26931322,9.752404,0.99422556
1409526664665,-1.2970588,8.091205,0.21308395,0.19748569,9.753742,0.9979461
1409526664666,-1.049259,7.9708962,0.045489833,0.13084202,9.753058,1.0154467
1409526664667,-0.88405895,8.099585,-0.13347675,0.058676355,9.752041,1.0318209
1409526664674,-0.60932434,8.296508,-0.25737667,-0.026756197,9.75199,1.0336317
1409526664688,-0.5482722,8.463503,-0.23223756,-0.12615794,9.75284,1.0181425
1409526664694,0.94092125,8.820838,-0.46866497,-0.2365962,9.753272,0.9940397
1409526664708,1.429937,8.583213,-0.46746787,-0.33783436,9.752634,0.9707535
1409526664728,2.3110032,8.692748,-0.04249708,-0.42867127,9.7501545,0.95974463
1409526664729,2.779668,8.706514,0.47764325,-0.5027407,9.745647,0.96954995
1409526664734,3.0472202,8.327632,1.0085574,-0.5619016,9.739829,0.99517834
1409526664767,3.2746694,7.757812,1.483208,-0.61424077,9.731052,1.0486802
1409526664768,2.8353333,7.269395,1.6035166,-0.65970385,9.71971,1.1235663
1409526664774,2.669535,6.9946604,1.5239093,-0.7058213,9.706867,1.2037311
1409526664775,2.707842,6.8893156,1.5753847,-0.7546778,9.6938715,1.2766063
1409526664807,2.7814639,7.128137,1.6944963,-0.80699444,9.681305,1.3384739
1409526664808,2.7790697,7.5950065,1.8734628,-0.8590642,9.669481,1.3905057
1409526664810,2.5941176,8.1319065,1.7926586,-0.90533733,9.658849,1.4343588
1409526664829,2.315193,8.869919,1.8734628,-0.9448681,9.64947,1.471507
1409526664830,2.005144,9.418191,2.083554,-0.97845405,9.640499,1.5079174
1409526664834,1.614889,10.008362,2.0147207,-1.0097156,9.630691,1.5494109
1409526664868,1.1073183,10.3639,1.8728642,-1.0423454,9.620505,1.5905256
1409526664870,1.1857284,10.724827,1.2976574,-1.0780054,9.610457,1.6270833
1409526664871,1.5179238,10.476428,0.58119243,-1.1123861,9.602965,1.648039
1409526664875,2.1775265,10.356718,0.7404069,-1.1421144,9.598658,1.6527965
1409526664898,2.629432,10.866683,1.4754268,-1.1650251,9.596149,1.6513685
1409526664899,2.2296004,11.104906,2.179322,-1.1815635,9.593862,1.6529105
1409526664906,1.4568717,11.218631,2.5647886,-1.1973959,9.5901,1.663319
1409526664920,0.6805518,11.180324,2.4121583,-1.2124792,9.58574,1.6774691
1409526664926,-0.076015905,11.168951,2.343325,-1.2227983,9.584315,1.6781156
1409526664940,-0.6907272,11.161768,2.2188265,-1.2250075,9.588155,1.6544015
1409526664955,-0.18076223,11.052833,1.2497733,-1.2134674,9.597411,1.6086013
1409526664956,0.48003745,11.215638,1.6687586,-1.1866726,9.610712,1.5480343
1409526664971,0.27832595,10.596737,1.0773908,-1.1298608,9.627462,1.4851912
1409526664974,-1.2054806,9.110536,0.28909984,-1.0612836,9.646598,1.4096961
1409526664988,-1.4532804,7.463924,-0.374094,-0.99664134,9.666014,1.3210949
1409526665007,-3.1890767,6.411672,-0.81163436,-0.92083853,9.686662,1.2210838
1409526665008,-3.6032736,7.176021,-1.0720038,-0.83638346,9.708128,1.1059458
1409526665024,-3.8175547,9.129091,-0.6087258,-0.7408827,9.729322,0.980698
1409526665026,-4.150947,12.813767,0.4794389,-0.6339365,9.747262,0.8714315
1409526665042,-3.4931402,18.103756,1.0097545,-0.51557106,9.760116,0.8029542
1409526665046,-1.4437037,19.608511,0.089184016,-0.37877396,9.768879,0.771981
1409526665054,-1.8686744,19.608511,-0.26396075,-0.19814743,9.776685,0.7399884
1409526665074,-1.9393034,19.17097,0.1945289,-0.026630042,9.780334,0.71746147
1409526665075,-0.90859956,15.822082,0.94690675,0.11796551,9.779834,0.7150626
1409526665090,0.40701428,11.924321,2.0398598,0.23901868,9.774421,0.7576181
1409526665114,0.038307227,9.72824,3.393781,0.33950415,9.764302,0.8447078
1409526665115,-2.973,8.91062,4.5022964,0.40717316,9.752237,0.94788176
1409526665117,-3.0998926,10.456078,4.285621,0.4335828,9.742358,1.0338538
1409526665146,-1.4173675,11.047445,1.8495208,0.47274238,9.736359,1.0724965
1409526665148,0.47644615,7.571663,1.7992426,0.5788696,9.733863,1.0427088
1409526665149,1.5735891,8.154053,2.5659857,0.7337115,9.728834,0.990885
1409526665155,2.606687,8.700529,2.2744915,0.8942638,9.719438,0.95038056
1409526665172,2.7401638,8.459313,1.3814543,1.055484,9.706385,0.91785485
1409526665174,2.918532,7.9032598,0.04309563,1.2093748,9.69095,0.8906793
1409526665189,2.3942018,6.907272,-0.5590461,1.3431621,9.675704,0.8643203
1409526665208,1.9961656,5.7281275,-0.5386954,1.4446741,9.662529,0.847849
1409526665209,1.6968905,4.7925935,-0.20649989,1.5173174,9.650874,0.8536837
1409526665222,1.447295,4.262876,0.2220622,1.5719173,9.638949,0.88887954
1409526665238,1.3245921,4.100669,0.5883751,1.6208936,9.624887,0.9511282
1409526665239,1.1450269,4.1018662,0.7930793,1.6704102,9.608303,1.0298779
1409526665256,1.0342951,4.2042184,0.9427169,1.7211006,9.590127,1.1125001
1409526665257,1.0408791,4.2598834,1.1569979,1.7704052,9.571853,1.1898288
1409526665269,1.0528502,4.493318,1.4425066,1.8146943,9.555058,1.256258
1409526665276,1.0528502,4.7165775,1.5652094,1.8560712,9.539001,1.3163702
1409526665293,1.1599907,5.119402,1.7250223,1.889299,9.525834,1.3636072
1409526665311,1.6771383,5.8783636,1.8608932,1.9145657,9.516166,1.3955051
1409526665313,1.9075803,6.6415157,1.9446903,1.9315203,9.510512,1.4105881
1409526665315,2.417545,7.2508397,2.4349031,1.9360505,9.509721,1.4097259
1409526665347,2.7575219,7.961319,2.7048495,1.9257772,9.513435,1.3986937
1409526665348,3.1507695,8.399458,2.9454668,1.8978968,9.521643,1.3808371
1409526665353,3.70383,9.5492735,2.980781,1.8556656,9.533257,1.357904
1409526665355,3.9091327,10.8624935,3.2016463,1.8045832,9.547293,1.3277987
1409526665388,3.7606924,11.751939,3.643975,1.7485315,9.562379,1.2938106
1409526665389,3.9228995,11.638813,3.945046,1.6919863,9.576925,1.2609856
1409526665391,3.7343562,10.627861,3.2794578,1.6429111,9.589596,1.229183
1409526665414,1.5807717,13.309966,3.8732197,1.5998483,9.601612,1.191601
1409526665415,1.0881647,15.725117,3.169923,1.5356054,9.614743,1.1700422
1409526665416,1.3730747,15.771205,0.6781576,1.4618837,9.626438,1.1683224
1409526665438,2.961029,14.3496475,-1.6334441,1.4208237,9.633281,1.1625632
1409526665439,5.947197,12.248735,-2.380435,1.4491462,9.631659,1.1408582
1409526665461,5.5138464,9.170391,0.96546185,1.5461179,9.616883,1.1381986
1409526665463,5.187038,8.810063,6.6325374,1.6488813,9.590875,1.2110803
1409526665467,5.5246205,13.374011,10.163984,1.7628589,9.55216,1.3486809
1409526665475,6.139332,19.306244,6.6905966,1.8971812,9.501053,1.5169407
1409526665496,3.1106665,18.933348,2.4103625,2.0343559,9.458213,1.6043758
1409526665497,-1.8058267,15.998055,1.3910311,2.1136546,9.443952,1.5857518
1409526665507,-2.3918076,10.727221,-0.93613285,2.1186461,9.450075,1.5420109
1409526665528,-2.2601264,9.831789,1.1067197,2.1190896,9.453923,1.5176305
1409526665529,-2.079364,9.662399,1.8004397,2.0919588,9.45179,1.5677333
1409526665535,-1.9207484,9.377489,1.062427,2.0339613,9.450638,1.6488872
1409526665559,-1.9590555,8.813056,0.7302315,1.9555138,9.45825,1.6993723
1409526665561,-1.9045875,8.819042,0.7134721,1.8735784,9.473525,1.7065784
1409526665567,-1.7764976,9.8754835,0.4417302,1.800233,9.490404,1.6916817
1409526665576,-1.1851299,11.397597,-0.2669535,1.7359924,9.507065,1.6650621
1409526665594,-0.35254622,12.088325,-0.65541273,1.677467,9.526475,1.6133184
1409526665595,0.62967503,11.834539,-0.50158525,1.6230782,9.547151,1.5452813
1409526665609,1.1935096,11.262923,-0.15981296,1.5697683,9.569292,1.461116
1409526665632,0.95827925,10.608109,0.18614918,1.5084739,9.591195,1.3798072
1409526665633,0.7745243,9.886257,0.3752911,1.4321009,9.611175,1.3209084
1409526665636,0.6512229,9.105747,0.48602295,1.3412381,9.628278,1.2914176
1409526665662,0.09816227,8.526351,0.52852005,1.2397033,9.643689,1.2778099
1409526665664,-0.59017074,8.495825,0.670975,1.1281185,9.659877,1.2587773
1409526665667,-1.0217255,8.395268,0.7721301,1.0089806,9.676938,1.2285178
1409526665694,-1.1432313,7.945757,0.5919664,0.8881904,9.693029,1.1944377
1409526665695,-0.9792285,7.5614877,0.28431144,0.7716417,9.707061,1.1609955
1409526665696,-1.3575124,7.1867948,-0.3597288,0.6625382,9.719141,1.1268238
1409526665707,-1.6101006,7.6213427,-0.439336,0.55639106,9.730215,1.0879916
1409526665722,-1.4634558,8.523358,-0.093972415,0.45848742,9.739866,1.0465117
1409526665736,-1.3000516,9.278131,0.34715924,0.3741215,9.747299,1.0102268
1409526665737,-1.1587936,9.406818,0.35075054,0.30181935,9.752043,0.98842305
1409526665755,-0.8655039,8.9758625,-0.2100912,0.23509368,9.754324,0.98402333
1409526665756,-0.90381116,8.590994,-0.7350199,0.16531025,9.755221,0.98929924
1409526665769,-1.1785458,8.254609,-0.90141696,0.08277868,9.75639,0.9881278
1409526665782,-0.6302736,8.462905,-0.9091981,-0.018510493,9.758468,0.9707547
1409526665788,-0.51954174,8.604761,-0.7918822,-0.12993322,9.760551,0.9408406
1409526665808,1.1013328,8.961497,-0.908001,-0.24552345,9.761175,0.9108219
1409526665810,2.0979192,9.593566,-0.46686932,-0.34716523,9.760585,0.8836399
1409526665815,2.706645,9.68694,0.14065935,-0.42924586,9.75829,0.8728695
1409526665842,2.9622262,9.179968,0.7673417,-0.49049264,9.753879,0.8897499
1409526665843,2.9652188,8.768764,1.3126211,-0.5412677,9.746569,0.9390619
1409526665847,2.8377275,8.343194,1.6783354,-0.5862618,9.736146,1.0169365
1409526665855,2.5360582,7.8691425,1.7310078,-0.6325566,9.722852,1.1119466
1409526665879,2.3852234,7.4842744,1.513734,-0.68922824,9.707678,1.2068015
1409526665880,2.4558525,7.275979,1.3341689,-0.758634,9.692073,1.2878666
1409526665887,2.7581203,7.343615,1.614889,-0.83488274,9.677341,1.3499732
1409526665915,2.6168625,7.6722193,1.8393455,-0.906911,9.663938,1.3986557
1409526665916,2.19668,8.051102,2.1110873,-0.9705166,9.651544,1.4409026
1409526665917,1.9147629,8.353969,2.545635,-1.0306764,9.6386175,1.4849732
1409526665948,1.4203602,8.704121,2.6659436,-1.0844197,9.62469,1.5361487
1409526665949,1.0803835,9.414599,2.5635915,-1.1344433,9.609654,1.5931033
1409526665951,1.158195,10.208278,1.8776526,-1.1790596,9.595332,1.6461598
1409526665958,1.5574282,10.479421,1.0684125,-1.2158126,9.584785,1.6804929
1409526665979,2.3080103,10.813412,0.89603,-1.2430416,9.579182,1.6924855
1409526665980,2.778471,11.526884,1.5191209,-1.2596521,9.577385,1.6903818
1409526665987,2.517503,11.729793,2.3481133,-1.2653854,9.577417,1.6859032
1409526666010,1.678934,11.839926,2.6210523,-1.2665783,9.576442,1.690539
1409526666011,0.7769185,11.500547,2.7748797,-1.2684208,9.574397,1.7007155
1409526666015,-0.18555063,11.124659,2.9777884,-1.271753,9.5723295,1.7098393
1409526666040,-0.7230489,10.335769,2.521693,-1.2805245,9.57162,1.7072622
1409526666042,-0.49679685,9.926959,1.6412252,-1.2782664,9.575828,1.6852205
1409526666047,0.2765303,10.313024,2.2505496,-1.2504668,9.586855,1.6428509
1409526666056,0.36990416,10.010158,2.497751,-1.1941577,9.603141,1.5887294
1409526666073,-0.15382746,9.088988,1.2240356,-1.1265796,9.622929,1.5167257
1409526666095,-2.6102784,6.8360443,-0.664391,-1.0570909,9.646527,1.4133242
1409526666096,-3.560178,7.1221514,-1.4065934,-0.99389416,9.671378,1.2833629
1409526666098,-4.022857,8.74961,-1.7818847,-0.92407,9.696314,1.1392987
1409526666121,-4.192846,11.804013,-1.5915456,-0.84226704,9.720495,0.98639125
1409526666122,-4.173094,16.191387,-1.3509283,-0.745166,9.74236,0.8375842
1409526666136,-2.9700072,19.577387,-1.7902644,-0.64283985,9.760849,0.6949632
1409526666137,-2.633622,19.608511,-1.9393034,-0.5081073,9.776667,0.57357323
1409526666154,-4.3622355,19.608511,-1.0378864,-0.35601866,9.7880745,0.48709437
1409526666157,-3.8546648,17.766174,0.42556936,-0.23934247,9.793338,0.4512778
1409526666174,-2.4654293,13.057378,1.91596,-0.14879012,9.793377,0.48789048
1409526666175,-0.7685388,9.399037,3.3530796,-0.06801344,9.7883625,0.59475744
1409526666187,-2.148796,8.148665,4.4167037,0.006307795,9.778823,0.7382284
1409526666209,-5.151125,8.463503,4.8404775,0.05030644,9.767069,0.8787644
1409526666210,-3.393781,11.071986,3.675698,0.05788977,9.756819,0.9856541
1409526666216,-1.3706805,10.290877,2.0524294,0.110359624,9.751855,1.029349
1409526666241,-0.45190558,7.867945,1.4556746,0.24121542,9.751316,1.0119448
1409526666243,0.12330139,6.782175,1.9716251,0.39611927,9.749807,0.977109
1409526666247,1.6747441,7.739257,2.5198972,0.5652319,9.7453,0.93810326
1409526666256,2.7485435,7.925406,2.3157916,0.74264497,9.735833,0.9123656
1409526666280,2.8491,7.9092455,-0.40821138,0.92045105,9.7221775,0.8957962
1409526666281,2.136825,6.445191,-1.0995371,1.0779929,9.708435,0.86869776
1409526666287,1.6154876,5.3276973,-0.82480246,1.2033576,9.695215,0.8515473
1409526666311,0.9911995,4.44304,0.0724246,1.298856,9.682312,0.8580326
1409526666312,0.9223662,4.19105,0.79846627,1.3723807,9.66856,0.89773154
1409526666315,0.9343372,4.226963,1.3497312,1.4392405,9.652008,0.96835285
1409526666335,0.7691373,4.36044,1.4951789,1.5062023,9.632574,1.0560604
1409526666336,0.62009823,4.5166616,1.489792,1.5727499,9.6115675,1.1465608
1409526666354,0.6835446,4.7387238,1.6591818,1.6363204,9.590342,1.23215
1409526666356,0.7757214,5.267244,1.8387469,1.694061,9.569997,1.3098539
1409526666370,1.1336545,5.787384,1.9734207,1.744832,9.551202,1.3785826
1409526666385,1.6998832,6.554127,2.1051018,1.789666,9.534527,1.4353735
1409526666387,2.2882583,7.2490444,2.0721815,1.8275589,9.521076,1.4763275
1409526666403,2.6042929,7.7350674,1.8854338,1.8558483,9.5123825,1.4969325
1409526666419,2.6916811,7.9050555,1.87047,1.8685156,9.510056,1.4959534
1409526666420,3.1950622,8.22947,2.0272903,1.8609421,9.514014,1.4801486
1409526666433,3.6469676,8.535928,2.2098482,1.8366427,9.522216,1.4575796
1409526666435,4.3089647,9.257181,2.1398177,1.7965924,9.533913,1.4307909
1409526666452,4.5603557,10.414179,2.5731683,1.7542042,9.546456,1.3994004
1409526666456,3.493739,11.249157,4.337695,1.6995842,9.561192,1.3657944
1409526666472,3.2531216,10.300454,4.654927,1.6262212,9.576376,1.3486364
1409526666487,3.3411086,8.578424,3.8139634,1.5548325,9.589838,1.337119
1409526666488,1.2072762,11.293449,4.84766,1.4990307,9.601334,1.3182161
1409526666508,0.6745663,15.07988,4.0701427,1.4368246,9.61102,1.3169056
1409526666510,1.2300211,15.658079,1.127669,1.3698308,9.618217,1.3356127
1409526666516,2.9879637,13.851654,-1.7351977,1.3357439,9.621491,1.3465099
1409526666549,6.196194,11.448474,-2.156577,1.3728912,9.618162,1.3328508
1409526666551,5.8604074,8.392276,1.8369513,1.4841975,9.602092,1.3294249
1409526666553,5.5886655,9.881469,8.053496,1.6069033,9.573184,1.3936971
1409526666581,5.391742,16.454151,9.26197,1.7456377,9.528804,1.5248042
1409526666582,4.734534,19.601929,4.1880574,1.8883975,9.47735,1.6685827
1409526666584,-0.013766659,18.514961,2.3481133,2.025971,9.44809,1.6731548
1409526666588,-3.578733,15.685014,1.0145429,2.085597,9.444645,1.6184412
1409526666611,-2.6952724,12.213422,-1.4885949,2.0833726,9.453547,1.5685738
1409526666612,-2.291251,10.056246,-0.42796355,2.073376,9.458236,1.5534704
1409526666616,-2.2266076,9.488221,1.1815386,2.0388052,9.4586735,1.5959815
1409526666636,-1.7417817,9.637859,1.1426327,1.9719394,9.462909,1.6538497
1409526666637,-1.5753847,9.339182,0.79726917,1.8882304,9.475686,1.6782004
1409526666657,-1.3628993,9.618107,1.1264719,1.8049718,9.493216,1.6707337
1409526666658,-0.81522566,10.752958,0.56922144,1.7333903,9.509572,1.6534219
1409526666668,0.06584055,11.234193,0.350152,1.6696292,9.5252905,1.6283687
1409526666690,1.0193313,10.985196,0.50876784,1.6213893,9.539898,1.5911744
1409526666691,1.5239093,10.65719,0.47345337,1.5824313,9.554903,1.5395207
1409526666696,1.407192,10.506355,0.2861071,1.5414833,9.571221,1.4784932
1409526666733,1.0336965,10.373477,0.14185645,1.4881465,9.588153,1.4223715
1409526666736,0.6805518,9.789292,-0.19991584,1.4167361,9.604656,1.3834265
1409526666738,0.23702596,9.0081835,-0.25019407,1.327129,9.62067,1.3608172
1409526666739,-0.13227965,8.870518,0.11432313,1.2225803,9.637158,1.3419629
1409526666761,-0.80924016,8.822633,0.4177882,1.1083187,9.654908,1.313305
1409526666762,-1.2431892,8.447941,0.4770447,0.98473704,9.673659,1.2731863
1409526666768,-1.2964603,8.061875,0.20590134,0.85756993,9.691321,1.2301421
1409526666783,-1.377863,7.7308774,-0.20051439,0.7327695,9.707544,1.1819541
1409526666788,-1.5113398,7.4286094,-0.46387658,0.6143305,9.721569,1.1331898
1409526666801,-1.9093759,7.2191167,-0.48243165,0.50416034,9.733352,1.0853918
1409526666820,-2.0871453,7.4058642,-0.27593175,0.40423372,9.742587,1.043558
1409526666820,-2.1535845,7.7973166,0.014963761,0.31780747,9.748979,1.0133108
1409526666834,-1.3874398,7.948151,0.37828386,0.24205111,9.752587,0.9994331
1409526666836,-0.88286185,7.4693108,0.021547815,0.17543256,9.753372,1.0056676
1409526666856,-1.0205284,7.515998,-0.24181437,0.10940935,9.752734,1.0210774
1409526666859,-0.35793316,8.137293,-0.4369418,0.031621173,9.752487,1.0287855
1409526666869,-0.08798691,8.4826565,-0.4225766,-0.057325523,9.753558,1.017438
1409526666889,0.2896984,8.335413,-0.6853402,-0.15085517,9.754585,0.9978607
1409526666892,2.2182279,8.720282,-0.85293436,-0.2509395,9.755655,0.9667589
1409526666896,2.6126726,9.041702,-0.22565351,-0.34045857,9.756155,0.9337591
1409526666928,3.1663318,9.858126,0.7649474,-0.4184284,9.754839,0.9156413
1409526666930,3.2148144,10.432734,1.6208745,-0.47743207,9.751101,0.92655724
1409526666931,3.0693667,10.173561,2.019509,-0.5206773,9.744225,0.9743606
1409526666936,2.598906,9.570822,2.0644004,-0.5558371,9.734251,1.0515666
1409526666961,2.2224178,9.039309,1.7944542,-0.595476,9.721805,1.1411966
1409526666962,2.1188686,8.447941,1.46585,-0.64513755,9.70808,1.227752
1409526666967,2.4091654,8.197746,1.2378023,-0.7042588,9.694221,1.3024889
1409526666984,2.6222494,8.055291,1.2515689,-0.76452833,9.680473,1.3690537
1409526666999,2.5899277,7.8170686,1.5562311,-0.8213434,9.667343,1.4276749
1409526667001,2.6635494,8.038532,1.9794062,-0.87123954,9.654334,1.4849879
1409526667024,2.308609,8.039729,2.77069,-0.9112504,9.641129,1.5455297
1409526667025,1.3461399,9.111135,2.4498668,-0.9486625,9.626754,1.6112206
1409526667028,1.5089456,9.695918,1.7603368,-0.98738885,9.613334,1.6671132
1409526667036,2.1158757,9.965864,0.7356185,-1.0179178,9.603435,1.7053672
1409526667059,2.9005754,10.33517,0.46567222,-1.0382254,9.597783,1.7248312
1409526667061,3.4985273,10.669162,1.0785879,-1.051326,9.594964,1.7325592
1409526667069,2.9891608,10.381857,1.7286136,-1.0582628,9.593947,1.733969
1409526667095,1.9087774,10.277111,2.1697452,-1.0689684,9.592567,1.7350428
1409526667102,0.8026561,10.790668,2.7257986,-1.0887518,9.589702,1.7385762
1409526667108,-0.60573304,10.959458,3.140594,-1.1111708,9.586267,1.7433279
1409526667152,-1.6783354,10.476428,2.5408466,-1.1389899,9.584036,1.7376235
1409526667155,-1.7280151,10.05445,1.2449849,-1.1629263,9.58641,1.7084359
1409526667156,-0.6889315,10.46745,1.6160861,-1.1640921,9.596041,1.6526632
1409526667157,0.0688333,10.564415,2.0458453,-1.1309407,9.612085,1.5808786
1409526667159,-0.41718966,9.87668,0.74878657,-1.0713011,9.632916,1.4932003
1409526667180,-0.87567925,9.165004,-0.6715736,-1.00129,9.657493,1.378647
1409526667182,-2.5540147,8.207922,-1.0354922,-0.91835046,9.684183,1.2424252
1409526667183,-2.9526494,8.002619,-1.5185224,-0.83181435,9.708813,1.1033944
1409526667209,-3.3147724,8.962095,-2.0153193,-0.73382586,9.731501,0.9642425
1409526667210,-3.29502,11.679515,-1.763928,-0.6310456,9.751798,0.82134503
1409526667211,-3.719991,19.542072,-0.4225766,-0.5165152,9.76865,0.6907114
1409526667217,-3.091513,19.608511,-1.6579847,-0.40572855,9.780031,0.59732586
1409526667235,-4.353257,19.608511,-1.8028339,-0.27749637,9.7883215,0.5311615
1409526667237,-3.570952,17.551893,-0.110133275,-0.17124154,9.792692,0.4942004
1409526667255,-2.2403743,13.132795,2.332551,-0.07745116,9.792791,0.5153753
1409526667257,-0.8511387,9.583989,4.1599255,0.0034406055,9.787344,0.6150456
1409526667268,-2.2840683,8.137892,5.288193,0.07788963,9.776006,0.770726
1409526667288,-5.1158104,8.6334915,5.919065,0.13012922,9.761003,0.9361159
1409526667290,-3.4973302,10.514735,4.50888,0.14788722,9.746787,1.0717437
1409526667298,-1.5891514,9.25359,2.8395233,0.2025653,9.735063,1.1653005
1409526667322,-0.61770403,6.870162,2.095525,0.3038892,9.730224,1.1835517
1409526667324,-0.09876082,6.3985043,2.3535004,0.45924708,9.727855,1.1525223
1409526667329,1.8393455,7.9870567,2.48578,0.62704563,9.723281,1.11131
1409526667357,3.6164417,9.054871,2.1146786,0.80611485,9.713951,1.0768974
1409526667358,3.651756,9.166202,1.3491327,0.99484694,9.699646,1.0476322
1409526667359,3.3411086,8.612542,-0.022744916,1.1601657,9.684186,1.0202795
1409526667368,2.6605566,6.941988,-0.78050977,1.2866971,9.670795,0.99524206
1409526667393,2.1817162,5.934029,-0.59017074,1.3768878,9.65925,0.98664606
1409526667394,1.827973,5.0332108,-0.07062895,1.4436657,9.64734,1.0075024
1409526667397,1.4167689,4.185065,0.682946,1.50027,9.633183,1.058959
1409526667417,1.1737574,3.815759,0.973243,1.5525519,9.617513,1.124014
1409526667418,0.7721301,3.70802,1.1492168,1.6002954,9.600412,1.2006372
1409526667433,0.7356185,3.5978866,1.4047978,1.6415416,9.583524,1.2774211
1409526667448,0.99179804,3.9151182,1.7669208,1.6783904,9.567262,1.3494068
1409526667449,1.3988123,4.3754034,1.9428947,1.7115896,9.552119,1.4134628
1409526667464,1.8303672,5.072715,1.9027919,1.7403857,9.539299,1.4639789
1409526667468,2.2050598,5.943007,2.0087352,1.7636867,9.530246,1.4947195
1409526667483,2.622848,6.993463,2.2523453,1.7799014,9.525769,1.5040106
1409526667500,2.8269536,7.838018,2.5360582,1.7866634,9.525773,1.4959488
1409526667501,3.104681,8.406042,2.8658595,1.778509,9.530175,1.4775281
1409526667520,3.4781766,8.850765,3.2357635,1.7527217,9.53854,1.4541782
1409526667521,3.7954082,9.473856,3.4213142,1.7200314,9.547967,1.4311633
1409526667529,4.0683475,10.4728365,3.4877534,1.6734637,9.560196,1.4044833
1409526667554,3.1112652,10.718841,3.8869865,1.6199304,9.573775,1.374429
1409526667555,2.8622682,10.642825,3.478775,1.5571603,9.588426,1.3445237
1409526667557,2.846706,10.761338,2.7180176,1.4987435,9.603191,1.3049364
