time,acc_x,acc_y,acc_z,gravity_x,gravity_y,gravity_z
1409350292139,0.24959552,9.349358,2.7670987,0.2874111,9.374774,2.8638065
1409350292139,0.29269117,9.404425,2.8341362,0.28668588,9.373187,2.8690684
1409350292155,0.32621,9.394249,2.8694508,0.2860906,9.372767,2.8705003
1409350292156,0.3238158,9.374496,2.8766334,0.28560066,9.372831,2.8703392
1409350292169,0.35553896,9.366715,2.8999767,0.28556868,9.373177,2.869217
1409350292176,0.3776853,9.369708,2.9322984,0.2857732,9.37366,2.867619
1409350292189,0.36152446,9.394848,2.9340942,0.2863149,9.373903,2.8667696
1409350292212,0.37948096,9.416994,2.9412768,0.2872387,9.373888,2.8667269
1409350292213,0.374094,9.432556,2.9334955,0.28837615,9.373728,2.8671336
1409350292215,0.3854665,9.439739,2.8808231,0.28965184,9.373222,2.8686583
1409350292244,0.3764882,9.423578,2.8814218,0.29113695,9.372354,2.8713434
1409350292245,0.362123,9.398438,2.8904,0.29242823,9.371216,2.874922
1409350292247,0.35793316,9.364322,2.8963854,0.2934586,9.369833,2.8793237
1409350292255,0.3477578,9.3421755,2.8814218,0.29440278,9.368176,2.88461
1409350292272,0.3309984,9.347562,2.8981812,0.2947333,9.366442,2.8902097
1409350292295,0.32441434,9.385869,2.8981812,0.29433677,9.364823,2.8954835
1409350292296,0.30166942,9.399037,2.8802247,0.29379547,9.363687,2.899215
1409350292297,0.30047232,9.418191,2.9221232,0.29332587,9.363259,2.9006455
1409350292307,0.30825347,9.661801,2.9562407,0.29331324,9.363062,2.9012818
1409350292329,0.25737667,9.450513,2.906561,0.29356882,9.36338,2.9002266
1409350292330,0.33039984,9.428965,2.8993783,0.2940349,9.363468,2.8998992
1409350292335,0.29149407,9.444528,2.9334955,0.29540917,9.36297,2.9013674
1409350292366,0.29747957,9.381081,2.9119477,0.29684064,9.361649,2.9054794
1409350292368,0.28311434,9.391854,2.8844144,0.29951632,9.359992,2.910541
1409350292369,0.29388827,9.36492,2.8443117,0.301942,9.358426,2.9153185
1409350292397,0.29508537,9.3499565,2.8335378,0.30392408,9.356678,2.920723
1409350292397,0.2777274,9.361329,2.907758,0.3067197,9.355097,2.9254897
1409350292398,0.26396075,9.36073,2.9634233,0.3091831,9.35448,2.9272006
1409350292422,0.18974048,9.515755,2.9670146,0.31095353,9.354877,2.9257402
1409350292423,0.16759412,9.43914,2.89459,0.3119656,9.355734,2.9228935
1409350292440,0.24241292,9.41879,2.8449101,0.31185526,9.356719,2.9197526
1409350292441,0.23343466,9.425972,2.855684,0.31117585,9.357377,2.9177132
1409350292458,0.2861071,9.3978405,2.9137435,0.3098027,9.357691,2.9168518
1409350292459,0.3513491,9.482236,2.9879637,0.30909932,9.357559,2.917353
1409350292471,0.36032736,9.386468,2.9107506,0.3091055,9.35707,2.918918
1409350292497,0.37708676,9.306262,2.883816,0.3099625,9.355785,2.9229426
1409350292498,0.4225766,9.321824,2.9460652,0.31147587,9.353979,2.9285553
1409350292499,0.47524905,9.349358,3.0107086,0.3132709,9.3533745,2.930298
1409350292509,0.5243302,9.348161,3.0029275,0.31575474,9.354149,2.927555
1409350292530,0.59855044,9.356541,2.9191303,0.3192488,9.355229,2.923722
1409350292531,0.6757634,8.962694,2.585738,0.32346722,9.356483,2.9192417
1409350292535,0.5255273,9.534309,3.268684,0.32807276,9.358482,2.9123154
1409350292569,0.53330845,9.583391,3.1615434,0.3321332,9.361624,2.9017365
1409350292570,0.7404069,9.357139,2.7682958,0.33750206,9.370518,2.8722632
1409350292572,0.8182184,9.472659,2.6701334,0.34248647,9.379593,2.8418918
1409350292604,0.6039374,9.743204,2.7371712,0.34685603,9.384769,2.824214
1409350292604,0.38965634,9.780912,2.9771898,0.3526161,9.391391,2.8013916
1409350292605,0.41060558,9.673173,3.0747535,0.36241347,9.40309,2.7606049
1409350292620,0.5105635,9.815628,2.9741971,0.3705253,9.4158535,2.7156587
1409350292621,0.54049104,9.846154,2.8658595,0.36989996,9.423252,2.6899633
1409350292638,0.5093664,9.560047,2.815581,0.36413324,9.427441,2.676032
1409350292638,0.51954174,9.433155,2.7395654,0.35732237,9.426433,2.6804993
1409350292652,0.5883751,9.677961,2.7694929,0.35037616,9.422841,2.6940167
1409350292655,0.66259533,9.931747,2.7377696,0.34540316,9.417672,2.7126694
1409350292671,0.52253455,10.117896,2.670732,0.34395376,9.412334,2.7313147
1409350292685,0.5069722,10.684125,2.5067291,0.34651804,9.408168,2.7453036
1409350292687,0.41838676,11.295245,2.6366146,0.35799238,9.406737,2.7487288
1409350292703,0.36631286,11.442489,2.6426,0.37693557,9.408095,2.7415402
1409350292719,0.092176765,12.401366,2.7605145,0.39353174,9.413533,2.720464
1409350292720,0.26755205,12.336124,2.504335,0.3915657,9.42605,2.6770632
1409350292738,0.43754035,10.113707,2.3241713,0.3663308,9.446112,2.6090515
1409350292739,0.30346507,8.501212,2.5378537,0.3285717,9.467135,2.53689
1409350292753,0.29149407,8.397064,2.3481133,0.26387036,9.490241,2.4568496
1409350292756,0.21188685,9.482835,2.3211784,0.18110713,9.512363,2.3775063
1409350292770,0.09816227,9.478644,2.2062569,0.09806721,9.528251,2.3180134
1409350292787,-0.093373865,10.579379,2.3133974,0.026229981,9.535274,2.290908
1409350292788,-0.14903906,9.988609,2.1865046,-0.03690569,9.534783,2.2928011
1409350292801,-0.08439561,9.382876,2.2798786,-0.09465952,9.529853,2.3115675
1409350292819,-0.11671733,9.630077,2.3080103,-0.14664799,9.522548,2.3387957
1409350292820,-0.34715924,9.399037,2.368464,-0.18992037,9.514979,2.366328
1409350292838,-0.59136784,10.052654,2.7844565,-0.2239071,9.506926,2.3955379
1409350292839,-0.81761986,10.392631,2.9909565,-0.25508463,9.497347,2.4301708
1409350292854,-0.7637503,9.853337,2.8742392,-0.28789303,9.486998,2.4666553
1409350292856,-0.82779527,9.674371,2.8778305,-0.31769195,9.476865,2.5016975
1409350292870,-0.7410054,9.229648,2.6898856,-0.3366374,9.468713,2.52993
1409350292885,-0.32621,9.651027,3.1148565,-0.33143482,9.464251,2.5472531
1409350292902,-0.6075287,10.996569,3.2824504,-0.2947638,9.463261,2.5554245
1409350292903,-0.29508537,10.168175,3.293823,-0.24328518,9.465474,2.5526464
1409350292920,0.08678981,9.831191,2.980781,-0.1848685,9.469862,2.5412428
1409350292921,0.37948096,9.326612,2.9227216,-0.12353739,9.478338,2.5132127
1409350292936,0.57161564,8.860342,2.77069,-0.06263948,9.489192,2.4742136
1409350292937,0.65780693,9.1255,2.6922798,-0.005246888,9.501924,2.4256594
1409350292953,0.587178,9.479243,2.6204538,0.045910906,9.515645,2.370817
1409350292956,0.439336,9.301474,2.3289597,0.09108174,9.532067,2.3025603
1409350292968,0.40761283,8.534731,1.8207904,0.11745639,9.550671,2.2229066
1409350292986,0.3728969,8.139089,1.5352819,0.122772835,9.570415,2.1360023
1409350292988,0.31364042,7.49445,1.2437878,0.111510485,9.589153,2.0508795
1409350293003,0.10654198,7.892486,1.2880806,0.0892988,9.605069,1.9761249
1409350293019,-0.06584055,8.739435,1.620276,0.057649933,9.617311,1.9168754
1409350293020,-0.020949265,8.509591,1.5837644,0.017180268,9.625635,1.8754311
1409350293046,0.011971008,8.503606,1.5358804,-0.1241713,9.638898,1.8018373
1409350293046,-0.15322891,8.469488,1.5556326,-0.1241713,9.638898,1.8018373
1409350293047,-0.26994625,8.535928,1.6573862,-0.1241713,9.638898,1.8018373
1409350293056,-0.24061728,9.03871,1.7393875,-0.17459808,9.641639,1.7828896
1409350293070,-0.2657564,10.198701,1.9937714,-0.22369617,9.643401,1.767809
1409350293085,-0.2813187,10.623073,2.0219033,-0.26917014,9.644159,1.7573053
1409350293088,-0.30585927,10.470443,1.822586,-0.3120175,9.644582,1.7478702
1409350293102,-0.39983168,10.69011,1.7375919,-0.35530367,9.645149,1.736446
1409350293120,-0.3609259,9.961076,1.5777789,-0.3988858,9.645687,1.7239548
1409350293121,-0.39384618,9.448717,1.5370775,-0.43810612,9.646026,1.7124969
1409350293136,-0.32022446,9.677363,1.5897499,-0.47231516,9.646254,1.7020948
1409350293136,-0.37948096,9.431957,1.6927006,-0.5006651,9.646396,1.6931498
1409350293153,-0.4794389,8.735245,1.6723499,-0.5237045,9.646283,1.6868072
1409350293186,-0.57400984,8.64666,1.7465701,-0.545806,9.646457,1.6787963
1409350293187,-0.66618663,8.412626,1.5209166,-0.568874,9.64681,1.6690875
1409350293195,-0.7140707,7.9846625,1.3640964,-0.5944235,9.648071,1.6528062
1409350293225,-0.7128736,7.8529816,1.34195,-0.62302405,9.649612,1.6331625
1409350293226,-0.6919243,7.6530657,1.3904326,-0.6536605,9.650606,1.6152208
1409350293227,-0.62009823,7.5327573,1.3347675,-0.6824872,9.650454,1.6041728
1409350293229,-0.6476316,7.714118,1.3138182,-0.70544106,9.649364,1.6007867
1409350293230,-0.694917,8.24204,1.6519991,-0.71950465,9.648011,1.6026798
1409350293236,-0.8146271,8.453327,1.6579847,-0.7235896,9.646515,1.6098261
1409350293263,-0.87089086,8.647258,1.5334862,-0.72068477,9.64559,1.616658
1409350293264,-0.8643068,8.707711,1.5472529,-0.71421283,9.646044,1.6168222
1409350293268,-0.7751228,8.618527,1.7184383,-0.70656365,9.64705,1.6141866
1409350293295,-0.6039374,8.55987,1.6005238,-0.69786394,9.648395,1.6099226
1409350293296,-0.5351041,8.441956,1.6729485,-0.6865032,9.650409,1.6027244
1409350293297,-0.47884035,8.409035,1.5646108,-0.6726966,9.652887,1.5936239
1409350293318,-0.45130703,8.178593,1.6633717,-0.65696406,9.655662,1.5833426
1409350293318,-0.44891283,8.025364,1.8309658,-0.63917077,9.6580105,1.5762931
1409350293336,-0.40402153,8.174403,1.9961656,-0.6189597,9.659837,1.5731628
1409350293337,-0.38367084,8.82802,2.171541,-0.5947866,9.661249,1.573813
1409350293353,-0.33279404,9.827001,2.0667946,-0.56508875,9.662633,1.5762553
1409350293370,-0.31244332,10.952874,1.8064252,-0.5297352,9.665225,1.5726358
1409350293373,-0.27712885,11.375451,1.459266,-0.49079677,9.670043,1.5555559
1409350293390,-0.39923313,11.354502,1.1713632,-0.45140845,9.676236,1.5287539
1409350293390,-0.34117374,11.95365,0.9235633,-0.41487023,9.684096,1.4888046
1409350293396,-0.51954174,12.695853,0.46926352,-0.3798646,9.69355,1.4356873
1409350293425,-0.17836803,14.053964,0.5554548,-0.34702358,9.704237,1.3703233
1409350293426,-0.98341835,12.090718,-0.09696517,-0.31028888,9.714533,1.3045859
1409350293430,-0.89184016,10.907983,0.2100912,-0.29371762,9.723042,1.2436194
1409350293436,-0.82360536,10.16578,0.7254431,-0.29068494,9.728696,1.1993206
1409350293462,-0.5033809,9.710882,1.1683705,-0.29185656,9.73066,1.1829911
1409350293463,-0.260968,9.302073,1.5831659,-0.28969058,9.7302685,1.1867357
1409350293468,-0.12988544,9.332,1.5861586,-0.28444386,9.729204,1.1967031
1409350293493,-0.25318682,9.46009,1.4341269,-0.2773946,9.728525,1.2038405
1409350293493,-0.12449849,9.601946,1.2922704,-0.27100152,9.728233,1.2076645
1409350293497,-0.23822308,9.217078,1.1869255,-0.2639354,9.72869,1.2055426
1409350293519,-0.3878607,9.036316,1.1067197,-0.25824317,9.729517,1.2000803
1409350293519,-0.39025488,9.081805,1.2120646,-0.25486082,9.730395,1.1936693
1409350293537,-0.37588966,9.485229,1.2856863,-0.2516852,9.731138,1.1882838
1409350293537,-0.3309984,10.028712,1.2521675,-0.24391463,9.731911,1.1835631
1409350293559,-0.34237084,10.420164,1.1372458,-0.23072964,9.73285,1.1784731
1409350293560,-0.3716998,10.332177,0.9475053,-0.21338396,9.734189,1.1706495
1409350293568,-0.17956513,10.307637,0.94092125,-0.1937524,9.735933,1.159504
1409350293591,-0.14844051,10.014347,0.9516952,-0.17003845,9.737536,1.1497343
1409350293592,0.22146365,10.0748005,1.0522517,-0.14653595,9.73882,1.1420677
1409350293596,-0.38726214,9.789292,1.1115081,-0.12139895,9.739602,1.1383256
1409350293620,-0.2693477,9.913192,1.0971429,-0.105667494,9.739853,1.1377571
1409350293621,-0.11791443,9.91798,1.1049241,-0.09292864,9.740005,1.137572
1409350293639,-0.20949265,9.793482,1.2126632,-0.08163893,9.740101,1.137609
1409350293640,-0.4333505,9.740809,1.2898762,-0.07366543,9.739907,1.1398225
1409350293648,-0.16400282,9.866506,1.216853,-0.07088614,9.739485,1.1435999
1409350293668,-0.5542577,9.639056,1.3150153,-0.065945834,9.739125,1.1469505
1409350293670,-0.6242881,9.67018,1.2749124,-0.064254224,9.738615,1.1513693
1409350293686,-0.52253455,9.711481,1.1569979,-0.06514803,9.738194,1.1548641
1409350293707,-0.39863458,9.753978,1.1432313,-0.06548892,9.737965,1.1567903
1409350293708,-0.37349546,9.803658,1.158195,-0.063879326,9.737809,1.158183
1409350293709,-0.7350199,9.700109,1.1917139,-0.06089761,9.737748,1.1588624
1409350293716,-0.5805939,9.803059,1.0708067,-0.06243432,9.737689,1.1592807
1409350293742,-0.52971715,9.832987,1.049259,-0.064937495,9.737846,1.1578149
1409350293745,-0.4950012,9.833585,1.0726024,-0.065898634,9.738085,1.1557487
1409350293748,-0.41838676,9.817424,1.1162965,-0.06604038,9.73839,1.1531773
1409350293769,-0.16280572,9.840169,1.134253,-0.066622965,9.738657,1.1508797
1409350293770,-0.13706805,9.751583,1.2060791,-0.06547193,9.738912,1.1487826
1409350293785,-0.54767364,9.675568,1.2802993,-0.06510814,9.739237,1.1460444
1409350293801,-0.3321955,9.8683,1.1827357,-0.07121362,9.739676,1.141932
1409350293801,-0.21787235,9.917382,1.2042835,-0.075239696,9.740396,1.1355201
1409350293818,-0.10235212,9.905411,1.2695254,-0.07692469,9.741146,1.1289599
1409350293818,-0.020350715,9.826403,1.3670892,-0.07738621,9.741851,1.1228412
1409350293835,0.049081136,9.763555,1.4185646,-0.07804343,9.742353,1.1184144
1409350293836,0.078410104,9.69951,1.3210008,-0.07847382,9.74264,1.1158826
1409350293850,0.061052144,9.712678,1.2731167,-0.07795286,9.742988,1.1128765
1409350293865,0.0712275,9.731233,1.2132617,-0.07677563,9.743494,1.1085291
1409350293868,0.130484,9.745598,1.2084733,-0.07534038,9.743921,1.1048589
1409350293882,0.18076223,9.7863,1.1815386,-0.0732057,9.744248,1.1021184
1409350293906,0.20290859,9.828198,1.2144588,-0.07085432,9.744578,1.0993552
1409350293907,0.23463176,9.822811,1.2090719,-0.068938695,9.744785,1.0976375
1409350293913,0.23223756,9.835381,1.2072762,-0.06662435,9.744969,1.09615
1409350293917,0.20829555,9.836577,1.2096704,-0.064134836,9.745152,1.0946633
1409350293947,0.2172738,9.811439,1.2078748,-0.061855935,9.745288,1.0936025
1409350293949,0.23403321,9.7863,1.1833342,-0.059680272,9.745304,1.0935636
1409350293950,0.24121583,9.776723,1.1480197,-0.057497118,9.745244,1.0942125
1409350293981,0.24720132,9.763555,1.1252748,-0.055445593,9.74519,1.094819
1409350293983,0.23582886,9.734225,1.1204864,-0.053926382,9.745118,1.0955006
1409350293984,0.2088941,9.749788,1.1067197,-0.052544903,9.745018,1.0964763
1409350294005,0.19692309,9.741408,1.103727,-0.05140757,9.744887,1.0976874
1409350294006,0.16938977,9.744401,1.115698,-0.05060816,9.744675,1.0996068
1409350294008,0.11552023,9.76535,1.1001357,-0.050230853,9.744439,1.1017148
1409350294017,0.04070143,9.783307,1.0630256,-0.050628364,9.744296,1.1029673
1409350294040,-0.13347675,9.807847,0.97264445,-0.0518407,9.744322,1.1026888
1409350294042,-0.207697,9.822811,0.98102415,-0.054650057,9.74448,1.1011485
1409350294048,-0.26515785,9.821614,0.99778354,-0.058371637,9.744628,1.0996455
1409350294070,-0.3309984,9.780912,1.0013748,-0.06292466,9.744782,1.098024
1409350294071,-0.3537433,9.750985,1.0139444,-0.068536215,9.744903,1.0966105
1409350294088,-0.40282443,9.720459,1.0055647,-0.074824356,9.744916,1.0960907
1409350294092,-0.3866636,9.715671,0.9888053,-0.081465766,9.744902,1.0957515
1409350294097,-0.3764882,9.697714,0.985214,-0.08789854,9.744989,1.0944581
1409350294122,-0.32202014,9.671378,1.0241197,-0.09438012,9.745123,1.0927411
1409350294123,-0.26755205,9.667188,1.0755951,-0.10010902,9.745241,1.0911715
1409350294129,-0.2160767,9.691729,1.1336545,-0.10496267,9.745353,1.0897175
1409350294160,-0.16519992,9.733627,1.1402385,-0.109211266,9.745528,1.08774
1409350294162,-0.17238252,9.7958765,1.1139023,-0.11228461,9.745765,1.0852916
1409350294163,-0.15442601,9.865907,1.0761937,-0.11438567,9.746119,1.0818747
1409350294169,-0.13227965,9.895236,1.0163386,-0.115864806,9.746574,1.0776154
1409350294191,-0.054468088,9.923966,1.021127,-0.11708098,9.747086,1.0728544
1409350294193,0.04129998,9.88925,1.0510546,-0.11788681,9.747562,1.0684223
1409350294197,0.108936176,9.834782,1.1109096,-0.117974125,9.748012,1.0643103
1409350294216,0.16998832,9.764751,1.1210849,-0.117586374,9.748314,1.0615702
1409350294217,0.22864626,9.706693,1.1593921,-0.11668007,9.748536,1.0596404
1409350294234,0.22625206,9.717466,1.1617863,-0.11478008,9.748731,1.0580435
1409350294249,0.20410569,9.746795,1.1695676,-0.11272096,9.748911,1.0566107
1409350294249,0.18734628,9.767146,1.1719618,-0.11094094,9.749006,1.0559334
1409350294262,0.17597382,9.789292,1.1348516,-0.10923165,9.749113,1.0551295
1409350294280,0.17238252,9.8276,1.1528081,-0.10736725,9.749183,1.0546651
1409350294281,0.17537527,9.857527,1.1294646,-0.10540954,9.749163,1.0550464
1409350294305,0.12210429,9.840169,1.1180922,-0.103227004,9.749134,1.0555335
1409350294306,0.08140286,9.817424,1.1168951,-0.101895906,9.749041,1.0565082
1409350294309,0.062249243,9.813833,1.1378443,-0.10122853,9.748841,1.0584157
1409350294317,0.046686932,9.800066,1.1168951,-0.1005488,9.748579,1.0608957
1409350294337,0.050278235,9.782708,1.1348516,-0.09985168,9.748309,1.0634422
1409350294338,0.06284779,9.784504,1.1258733,-0.099097356,9.747987,1.0664558
1409350294348,0.10534488,9.778519,1.13964,-0.09749314,9.747641,1.0697684
1409350294367,0.1412579,9.77792,1.1504139,-0.095049694,9.747343,1.0726916
1409350294384,0.14963761,9.7958765,1.1641805,-0.09226993,9.747104,1.0751076
1409350294385,0.12449849,9.8042555,1.1498153,-0.089527786,9.746843,1.0777018
1409350294411,0.0712275,9.775525,1.1246762,-0.086710095,9.7466755,1.0794356
1409350294412,0.008978256,9.760562,1.1097125,-0.08376652,9.746542,1.0808817
1409350294413,-0.1340753,9.778519,1.1408371,-0.081148885,9.746336,1.082944
1409350294417,-0.16280572,9.808446,1.1079168,-0.0795763,9.746062,1.0855051
1409350294437,-0.15322891,9.777321,1.0247183,-0.07806772,9.745743,1.0884964
1409350294438,-0.23822308,9.800665,1.1198878,-0.07640351,9.745428,1.0914096
1409350294455,-0.27353755,9.825804,1.1498153,-0.0755496,9.745009,1.0952129
1409350294475,-0.27952304,9.828198,1.1007342,-0.075148255,9.744469,1.1000367
1409350294477,-0.2873042,9.803658,1.0899603,-0.0753467,9.743883,1.1052024
1409350294478,-0.2896984,9.780912,1.086369,-0.07489618,9.743354,1.1098856
1409350294505,-0.29029694,9.77792,1.073201,-0.073963284,9.742927,1.1136898
1409350294506,-0.27712885,9.755774,1.1073183,-0.07333777,9.742503,1.1174192
1409350294512,-0.27593175,9.729437,1.1228806,-0.07321422,9.7420025,1.1218144
1409350294517,-0.26515785,9.731233,1.1312603,-0.0740929,9.741446,1.1265665
1409350294540,-0.29508537,9.735423,1.1043255,-0.07536935,9.740923,1.1309817
1409350294542,-0.31423897,9.777321,1.0923545,-0.07698628,9.740569,1.1339236
1409350294550,-0.29628247,9.767146,1.0696096,-0.07879947,9.74029,1.1361948
1409350294572,-0.25558102,9.77373,1.0923545,-0.08047975,9.74008,1.1378831
1409350294574,-0.16639702,9.76954,1.09834,-0.08180859,9.739844,1.1398015
1409350294578,-0.108936176,9.565434,1.1384429,-0.082187794,9.739627,1.1416227
1409350294621,-0.34596214,9.6528225,1.0510546,-0.08271847,9.739374,1.1437485
1409350294623,-0.31184477,9.953295,1.1695676,-0.088305846,9.73913,1.1454031
1409350294624,-0.20410569,9.81922,1.1360487,-0.095535904,9.7387905,1.1477116
1409350294626,-0.107140526,9.717466,1.1653777,-0.09892913,9.738559,1.1493827
1409350294654,-0.08020575,9.615114,1.2791022,-0.097750254,9.738391,1.150913
1409350294655,-0.09876082,9.570223,1.3329718,-0.09516444,9.738175,1.1529393
1409350294655,-0.12689269,9.655815,1.3377602,-0.0935083,9.73794,1.1550611
1409350294657,-0.21308395,9.788095,1.3078327,-0.09288747,9.737732,1.1568655
1409350294700,-0.28909984,9.906608,1.270124,-0.09444117,9.737613,1.1577524
1409350294704,-0.29747957,9.974843,1.1833342,-0.09820892,9.737593,1.1575972
1409350294705,-0.19632454,9.932345,1.0947487,-0.10279055,9.73773,1.1560559
1409350294706,-0.09816227,9.790489,1.0947487,-0.10534378,9.737923,1.1541853
1409350294734,-0.11133038,9.736021,1.1270704,-0.10570249,9.73803,1.1532557
1409350294739,-0.1448492,9.782109,1.1587936,-0.10611228,9.73805,1.1530443
1409350294740,-0.19033903,9.767744,1.1653777,-0.10705716,9.738025,1.1531808
1409350294765,-0.2633622,9.691729,1.192911,-0.10846056,9.738039,1.1529229
1409350294766,-0.2148796,9.583989,1.2150574,-0.111177675,9.73804,1.1526537
1409350294767,-0.29867667,9.625888,1.2587515,-0.11412198,9.73797,1.152948
1409350294790,-0.38067806,9.753379,1.2455834,-0.11781795,9.737866,1.1534644
1409350294792,-0.50158525,9.866506,1.1061212,-0.12246771,9.737883,1.1528361
1409350294793,-0.40342298,9.725846,0.9888053,-0.12729327,9.738102,1.1504598
1409350294798,-0.4369418,9.765948,1.1091139,-0.12990685,9.738417,1.1475023
1409350294814,-0.3184288,9.604341,1.0953473,-0.13231859,9.738595,1.1457138
1409350294819,-0.2717419,9.568427,1.1755531,-0.13463096,9.738635,1.1450967
1409350294836,-0.2885013,9.93893,1.2186487,-0.1376631,9.738532,1.1456087
1409350294838,-0.17417817,10.0748005,1.1079168,-0.14102523,9.738566,1.1449193
1409350294850,-0.33758244,10.1699705,1.0684125,-0.14235118,9.738856,1.1422873
1409350294871,-0.32920274,10.146626,0.9756372,-0.14324702,9.739329,1.1381377
1409350294872,0.16879122,9.470863,0.97862995,-0.14313707,9.739933,1.1329584
1409350294878,0.3693056,9.0429,1.3198037,-0.13842903,9.740478,1.1288729
1409350294910,0.41060558,8.922591,1.4437037,-0.13216442,9.740381,1.1304501
1409350294911,0.10295067,8.550293,1.5514427,-0.12799324,9.739821,1.1357381
1409350294912,0.8355764,10.081984,1.6657659,-0.12924156,9.739198,1.1409256
1409350294965,-0.4201824,10.117298,1.5089456,-0.121122725,9.738945,1.1439697
1409350294968,-0.9211691,10.481216,1.0995371,-0.12208858,9.7391205,1.142374
1409350294971,-0.6123171,11.029489,0.74639237,-0.1310775,9.740171,1.1323761
1409350294972,-0.38367084,10.341156,0.6344634,-0.13300657,9.741616,1.1196465
1409350294974,-0.037110128,10.047866,0.6937199,-0.12891233,9.742511,1.1123222
1409350295003,0.207697,9.680356,1.2401965,-0.12316355,9.742714,1.111204
1409350295004,0.14963761,9.607333,1.3634979,-0.11610377,9.742135,1.1170081
1409350295005,0.05686229,9.628283,1.3964181,-0.10986882,9.741179,1.125947
1409350295006,-0.061650693,9.771336,1.3551182,-0.10504929,9.740086,1.135828
1409350295010,-0.109534726,9.882068,1.2898762,-0.101893164,9.739221,1.1435001
1409350295039,-0.0712275,9.76116,1.1546037,-0.10026315,9.73862,1.1487577
1409350295040,0.061650693,9.634268,1.146224,-0.09849103,9.738315,1.1514857
1409350295041,0.078410104,9.609129,1.2539631,-0.09705168,9.73816,1.1529219
1409350295064,0.07182605,9.616311,1.2868834,-0.09610092,9.737816,1.1559004
1409350295064,0.1436521,9.537901,1.2683283,-0.09518285,9.7372055,1.1611073
1409350295081,0.19572599,9.557653,1.3245921,-0.09325079,9.736603,1.1663047
1409350295082,0.16519992,9.646238,1.388637,-0.090812676,9.736063,1.1710012
1409350295099,0.11791443,9.7719345,1.377863,-0.088603,9.735486,1.1759454
1409350295100,0.06823475,9.843162,1.3311762,-0.086666405,9.73499,1.1801894
1409350295122,-5.985504E-4,9.838972,1.2808979,-0.08524635,9.734709,1.1826115
1409350295122,-0.050876785,9.805453,1.2605472,-0.08471625,9.734599,1.1835566
1409350295130,-0.1376666,9.803658,1.2976574,-0.084778585,9.734516,1.1842337
1409350295152,-0.21428105,9.837775,1.2886791,-0.08571246,9.734297,1.1859597
1409350295153,-0.29328972,9.883265,1.1935096,-0.087328196,9.733998,1.1882925
1409350295158,-0.29568392,9.812037,1.1653777,-0.08957787,9.733822,1.1895823
1409350295187,-0.24839842,9.730635,1.1695676,-0.09171167,9.733716,1.1902637
1409350295187,-0.18614918,9.656414,1.2204443,-0.09335469,9.733593,1.1911609
1409350295190,-0.17836803,9.618706,1.3006501,-0.0943715,9.733425,1.1924483
1409350295198,-0.20829555,9.626487,1.3126211,-0.09511991,9.733223,1.1940455
1409350295225,-0.24839842,9.623494,1.299453,-0.095730625,9.733053,1.1953782
1409350295226,-0.39205053,9.683349,1.2659341,-0.096489295,9.73298,1.1959064
1409350295232,-0.4866215,9.791686,1.1875241,-0.09857852,9.733022,1.1953855
1409350295261,-0.57281274,9.877877,1.1097125,-0.10157485,9.73317,1.1939431
1409350295262,-0.60333884,9.873089,1.0169371,-0.10530944,9.733469,1.19118
1409350295263,-0.54527944,9.812037,0.985214,-0.109820776,9.733871,1.1874701
1409350295292,-0.41838676,9.71986,1.0121487,-0.114053555,9.734248,1.1839805
1409350295295,-0.32621,9.650429,1.1121067,-0.11695282,9.734513,1.181507
1409350295295,-0.39324763,9.755774,1.1905168,-0.118759505,9.734539,1.1811235
1409350295298,-0.4261679,9.8515415,1.1510124,-0.120612115,9.734441,1.1817333
1409350295313,-0.37229836,9.874287,1.0995371,-0.122465044,9.734386,1.1819922
1409350295331,-0.27473465,9.884461,1.073201,-0.1235162,9.734529,1.1807245
1409350295332,-0.15023616,9.838972,1.0893618,-0.12348087,9.734837,1.1781796
1409350295348,-0.062249243,9.757569,1.1611878,-0.12217202,9.735199,1.1753013
1409350295363,-0.10235212,9.752781,1.2545617,-0.12036457,9.735474,1.1732271
1409350295364,-0.13108255,9.752182,1.2132617,-0.1189273,9.735524,1.1729535
1409350295380,-0.09636662,9.757569,1.1336545,-0.11734263,9.735504,1.1732749
1409350295381,-0.038307227,9.783307,1.0588357,-0.11527981,9.735545,1.1731477
1409350295397,0.016759412,9.803658,1.0289081,-0.112973906,9.735701,1.1720796
1409350295398,0.0724246,9.813833,1.0528502,-0.110478364,9.735919,1.1704886
1409350295413,0.10534488,9.808446,1.0570401,-0.10778503,9.736134,1.168963
1409350295437,0.107739076,9.791088,1.1049241,-0.10545206,9.736394,1.1670039
1409350295438,0.11611878,9.809643,1.1779473,-0.10358576,9.736643,1.1651083
1409350295439,0.10534488,9.82341,1.2336124,-0.101752914,9.736767,1.1642296
1409350295450,0.1388637,9.777321,1.2623428,-0.10065474,9.736829,1.1638018
1409350295463,0.22804771,9.721656,1.2934675,-0.0991211,9.736817,1.1640254
1409350295480,0.30047232,9.682152,1.377863,-0.096210845,9.736671,1.1654936
1409350295481,0.3633201,9.656414,1.3976152,-0.092544064,9.736359,1.168402
1409350295498,0.3549404,9.638457,1.4227544,-0.08808022,9.736013,1.1716192
1409350295499,0.33997664,9.64145,1.4131776,-0.08340784,9.735654,1.1749411
1409350295512,0.33039984,9.675568,1.3796587,-0.07915157,9.735299,1.1781684
1409350295527,0.25318682,9.75697,1.371279,-0.07505889,9.735,1.180908
1409350295546,0.17717093,9.794081,1.3054385,-0.0715297,9.734774,1.1829916
1409350295548,0.14065935,9.81503,1.2545617,-0.068445325,9.734674,1.1839942
1409350295550,0.11791443,9.833585,1.2773066,-0.06588848,9.73465,1.1843318
1409350295564,0.09756372,9.824008,1.2731167,-0.06315102,9.734546,1.1853385
1409350295579,0.11252748,9.800066,1.2539631,-0.059803825,9.734381,1.1868712
1409350295579,0.09876082,9.799467,1.2808979,-0.05613186,9.734282,1.1878568
1409350295594,0.062249243,9.927557,1.2743138,-0.05314714,9.73421,1.1885792
1409350295598,0.02932897,9.846154,1.192911,-0.05083236,9.734009,1.1903285
1409350295610,0.01316811,9.852738,1.2252327,-0.049135055,9.733822,1.1919355
1409350295626,-0.06404489,9.822212,1.2318168,-0.047963236,9.733641,1.1934637
1409350295630,-0.11552023,9.8276,1.2078748,-0.04737243,9.733417,1.1953056
1409350295650,-0.1376666,9.770139,1.1881226,-0.04686112,9.7330475,1.1983228
1409350295652,-0.17537527,9.746795,1.2150574,-0.047135994,9.732606,1.2018895
1409350295658,-0.15203181,9.701904,1.2006922,-0.04828012,9.732056,1.206293
1409350295688,-0.09696517,9.621099,1.2270284,-0.049765754,9.731425,1.2113158
1409350295689,-0.18495208,9.69951,1.2707225,-0.05106858,9.7307205,1.2169088
1409350295690,-0.18854338,9.727641,1.2126632,-0.05286628,9.730036,1.2222955
1409350295698,-0.19393034,9.750985,1.1779473,-0.054870825,9.729523,1.2262933
1409350295714,-0.17238252,9.745,1.146224,-0.05723288,9.729161,1.2290393
1409350295728,-0.1933318,9.824607,1.210269,-0.059182987,9.728924,1.230823
1409350295730,-0.23403321,9.837775,1.1384429,-0.061093792,9.728673,1.2327064
1409350295745,-0.2681506,9.838373,1.1109096,-0.06360212,9.728556,1.2335035
1409350295760,-0.24660277,9.785701,1.1109096,-0.06663308,9.728492,1.2338525
1409350295761,-0.23882163,9.752182,1.1360487,-0.06974727,9.728518,1.2334869
1409350295778,-0.20231004,9.698911,1.1605892,-0.07297062,9.728531,1.2331964
1409350295779,-0.12569559,9.637859,1.2336124,-0.07572467,9.728388,1.2341598
1409350295804,-0.046088383,9.536105,1.2856863,-0.07792115,9.728231,1.2352542
1409350295805,0.41599256,8.989629,1.2779051,-0.07953911,9.728012,1.2368776
1409350295811,1.0097545,8.353969,1.3964181,-0.07742329,9.727822,1.2384983
1409350295844,-0.22266077,9.138668,2.0907366,-0.071071945,9.727545,1.2410499
1409350295845,-0.6811504,11.311406,1.5646108,-0.08153934,9.726489,1.2486655
1409350295846,-1.3431472,11.2449665,0.4345476,-0.10338417,9.725926,1.2514212
1409350295872,-1.2252327,10.652402,0.6476316,-0.13975911,9.727102,1.2386932
1409350295873,-0.58777654,10.248381,0.7009025,-0.1709023,9.728852,1.2209095
1409350295874,-0.0676362,9.774927,0.78649527,-0.18330124,9.730182,1.2084552
1409350295879,0.18375498,9.298481,1.2204443,-0.17287038,9.731041,1.2030536
1409350295902,0.20530279,8.961497,1.6244658,-0.15277225,9.731519,1.2019225
1409350295903,0.17178397,8.989629,1.7663223,-0.1373343,9.730715,1.210256
1409350295910,-0.19871874,9.542689,1.690905,-0.13011721,9.729636,1.2197005
1409350295932,-0.3196259,10.02572,1.0061632,-0.13071452,9.729188,1.2231927
1409350295932,-0.21667525,9.793482,0.9283517,-0.13348289,9.730164,1.2151154
1409350295938,0.0047884034,9.588778,1.0845734,-0.13548714,9.731386,1.205067
1409350295970,0.03172317,9.4696665,1.3437457,-0.13612674,9.732409,1.1967006
1409350295971,-0.04070143,9.485827,1.5125369,-0.1380529,9.732677,1.1942906
1409350295972,-0.16160862,9.6049385,1.6178818,-0.14188495,9.732293,1.1969708
1409350295979,-0.20709845,9.836577,1.5807717,-0.14834647,9.731638,1.2015052
1409350296002,-0.2124854,9.941324,1.4053963,-0.1550502,9.731265,1.2036735
1409350296003,-0.20231004,10.058042,1.2773066,-0.15876229,9.731552,1.2008698
1409350296012,-0.2220622,10.085575,1.1486182,-0.1589942,9.732406,1.1938928
1409350296032,-0.219668,10.011354,1.0564415,-0.15814386,9.733476,1.1852628
1409350296032,-0.18495208,9.968259,1.0869676,-0.1588838,9.734337,1.1780772
1409350296038,-0.15502456,9.908403,1.1552023,-0.16249585,9.734846,1.1733547
1409350296071,-0.13108255,9.861118,1.2659341,-0.16722952,9.735143,1.1702192
1409350296072,-0.08379706,9.829993,1.4030021,-0.17235994,9.735195,1.1690394
1409350296074,-0.13946225,9.888652,1.6011224,-0.17678164,9.735168,1.1686116
1409350296079,-0.16340427,9.948506,1.5532384,-0.18094094,9.735121,1.1683701
1409350296105,0.12030864,9.589975,1.3563153,-0.1840918,9.735341,1.1660297
1409350296106,0.29688102,9.4062195,1.6873137,-0.18607481,9.736043,1.1598569
1409350296110,0.18794483,9.40203,1.8650831,-0.1897136,9.736621,1.154384
1409350296143,0.061052144,9.56304,1.7986441,-0.19525906,9.736965,1.1505553
1409350296144,-0.08200141,9.696517,1.5873557,-0.2003153,9.737277,1.1470394
1409350296144,-0.11911154,9.822811,1.4598645,-0.20413579,9.738073,1.1395795
1409350296166,-0.18614918,9.937134,1.4754268,-0.20691568,9.739202,1.1293912
1409350296166,-0.12509704,9.940127,1.4431051,-0.21042792,9.740461,1.1178122
1409350296170,-0.08499416,9.8683,1.4610616,-0.21408954,9.7416525,1.1066905
1409350296178,-0.0724246,9.710882,1.4856021,-0.21728764,9.742659,1.0971781
1409350296195,-0.06344634,9.452907,1.508347,-0.22059298,9.743403,1.0898762
1409350296218,-0.077811554,9.372103,1.4425066,-0.22525775,9.74395,1.0840082
1409350296219,-0.034117375,9.437943,1.3760674,-0.23065925,9.744533,1.0776262
1409350296220,0.038307227,9.507974,1.2958617,-0.23415703,9.745332,1.0696225
1409350296231,0.11492168,9.587581,1.3198037,-0.23573446,9.746272,1.060664
1409350296260,0.13946225,9.674969,1.3162124,-0.23662823,9.747228,1.051654
1409350296260,0.073023155,9.718663,1.2144588,-0.23704822,9.748254,1.0419912
1409350296262,0.033518825,9.746795,1.2114661,-0.23787294,9.7494,1.0310267
1409350296282,-0.016759412,9.739613,1.2689269,-0.23905177,9.750566,1.0196706
1409350296283,-0.088585466,9.797672,1.3174095,-0.24080187,9.751552,1.0097679
1409350296291,-0.16998832,9.82341,1.2473791,-0.24272615,9.752281,1.0022322
1409350296309,-0.26156655,9.788095,1.1593921,-0.24499552,9.752866,0.9959894
1409350296312,-0.36152446,9.713875,1.0654198,-0.24832758,9.753382,0.99009234
1409350296327,-0.41120413,9.697116,1.0217255,-0.25292963,9.753883,0.9839768
1409350296332,-0.44472298,9.705495,0.908001,-0.25829074,9.754294,0.978492
1409350296349,-0.45010993,9.703101,0.83856916,-0.26394832,9.754771,0.97220415
1409350296351,-0.40043023,9.693524,0.88046765,-0.2696875,9.755255,0.9657603
1409350296359,-0.3393781,9.682152,0.90141696,-0.27478248,9.755747,0.9593285
1409350296385,-0.22924481,9.702502,0.89064306,-0.27898034,9.756281,0.95264965
1409350296386,-0.1316811,9.698911,0.82719666,-0.2814729,9.757008,0.9444426
1409350296391,-0.04369418,9.716867,0.79248077,-0.2823628,9.758008,0.93378764
1409350296421,0.014963761,9.746197,0.7110779,-0.2823141,9.759241,0.92084235
1409350296422,0.11192893,9.782109,0.6452374,-0.28246203,9.760706,0.9051136
1409350296423,0.16759412,9.801862,0.60333884,-0.28242227,9.762353,0.88718235
1409350296460,0.25617957,9.807847,0.5662287,-0.2822212,9.764133,0.8674283
1409350296461,0.33638534,9.800665,0.5117606,-0.28220928,9.765973,0.8464751
1409350296462,0.41958386,9.829993,0.46208093,-0.28204727,9.767767,0.82559234
1409350296463,0.47884035,9.835979,0.4249708,-0.2818325,9.769561,0.8041554
1409350296485,0.50757074,9.882068,0.43873745,-0.28238538,9.771312,0.7823653
1409350296486,0.55126494,9.977836,0.56323594,-0.2831979,9.772972,0.7610727
1409350296495,0.50038815,10.031107,0.5835867,-0.284084,9.774468,0.7412426
1409350296514,0.46507367,10.055647,0.57640404,-0.2858249,9.7758665,0.72188777
1409350296515,0.34117374,10.059837,0.54049104,-0.28875214,9.777084,0.7040248
1409350296519,0.24241292,10.056845,0.54049104,-0.29371917,9.778112,0.6874981
1409350296543,0.23343466,10.046669,0.55365914,-0.30072474,9.778946,0.67245126
1409350296544,0.19033903,10.00896,0.4997896,-0.30886877,9.779585,0.6593232
1409350296567,0.20530279,9.983821,0.43873745,-0.3183628,9.780089,0.6472159
1409350296569,0.18674773,9.986216,0.40940848,-0.32880077,9.780538,0.6351292
1409350296571,0.27832595,9.996989,0.39444473,-0.3399836,9.7808895,0.6236765
1409350296579,0.30765492,9.965266,0.46507367,-0.35082668,9.781206,0.6126432
1409350296601,0.43514615,9.917382,0.45549688,-0.36278322,9.781354,0.6032176
1409350296602,0.47225627,9.892242,0.45190558,-0.37546423,9.781457,0.59374297
1409350296633,0.47165772,9.853935,0.47764325,-0.3894749,9.781478,0.58428496
1409350296634,0.4997896,9.825205,0.45908818,-0.40475273,9.781374,0.5755733
1409350296635,0.45908818,9.853337,0.49559975,-0.42076218,9.781175,0.5674306
1409350296639,0.37349546,9.89344,0.43754035,-0.43776172,9.780818,0.56067616
1409350296662,0.3537433,9.88506,0.3286042,-0.4561503,9.780351,0.55413026
1409350296662,0.26994625,9.888652,0.30825347,-0.4754487,9.779805,0.5475187
1409350296675,0.06464344,9.882068,0.2837129,-0.4961446,9.77905,0.54261804
1409350296679,-0.044891283,9.866506,0.25917232,-0.51941586,9.778008,0.53956914
1409350296699,-0.18614918,9.852738,0.24540567,-0.54366225,9.776829,0.5370675
1409350296701,-0.21667525,9.803059,0.20231004,-0.5695706,9.775402,0.53619736
1409350296710,-0.25498247,9.788693,0.2621651,-0.59597796,9.773804,0.5366328
1409350296733,-0.3788824,9.76535,0.32321724,-0.62232834,9.77202,0.53919625
1409350296734,-0.4249708,9.720459,0.37948096,-0.6498444,9.769946,0.5442764
1409350296739,-0.28790274,9.767146,0.4297592,-0.6785465,9.767603,0.55127895
1409350296764,-0.45010993,9.690532,0.46088383,-0.70614463,9.765206,0.55902183
1409350296765,-0.4345476,9.644443,0.39683893,-0.73527974,9.762575,0.56735885
1409350296771,-0.30705637,9.7007065,0.4309563,-0.76460433,9.759909,0.57440984
1409350296779,-0.4758476,9.7007065,0.46567222,-0.79249924,9.757288,0.5810984
1409350296797,-0.32561144,9.688736,0.4782418,-0.82131064,9.754478,0.58820516
1409350296799,0.005985504,9.772532,0.44711718,-0.8494239,9.751644,0.5952439
1409350296811,-0.034715924,9.685743,0.44951138,-0.8740714,9.749104,0.60112846
1409350296831,-0.047884032,9.631275,0.45729253,-0.8985145,9.746555,0.60641426
1409350296832,-0.10594343,9.546879,0.4878186,-0.9237191,9.743876,0.6115918
1409350296839,-0.14724341,9.450513,0.51834464,-0.95031226,9.740945,0.6174963
1409350296867,-0.15741876,9.407417,0.53689975,-0.97795385,9.737743,0.62477857
1409350296868,-0.21787235,9.296685,0.49200845,-1.0067346,9.734311,0.63249624
1409350296871,-0.31483752,9.229049,0.47345337,-1.036474,9.730745,0.63930225
1409350296881,-0.320823,9.18715,0.4890157,-1.0677079,9.726967,0.64538723
1409350296898,-0.30226797,9.168595,0.50158525,-1.0992894,9.723091,0.65072733
1409350296899,-0.39564183,9.200318,0.47285482,-1.1303259,9.719207,0.65555894
1409350296928,-0.15741876,9.317036,0.48722005,-1.1612631,9.715363,0.6584803
1409350296931,-0.15143326,9.346365,0.5177461,-1.1896106,9.711851,0.65968704
1409350296950,-0.25438392,9.375095,0.52492875,-1.2164403,9.708564,0.65913
1409350296951,-0.43155485,9.371504,0.47524905,-1.243112,9.70533,0.65698713
1409350296952,-0.20410569,9.553463,0.44831428,-1.2707042,9.701988,0.65354663
1409350296960,0.01316811,9.677363,0.516549,-1.2950063,9.699136,0.6481787
1409350296980,-0.24420857,9.753978,0.39504328,-1.3153267,9.696828,0.64176047
1409350296981,-0.56443304,9.871892,0.22505496,-1.3379914,9.694357,0.6321795
1409350296993,-0.40342298,10.125677,0.10295067,-1.3649762,9.691468,0.618615
1409350297017,-0.65182143,10.226234,0.0724246,-1.3906494,9.688733,0.6040773
1409350297018,-0.3393781,10.398617,0.093373865,-1.4182585,9.6855755,0.5903931
1409350297020,-0.7930793,10.316016,0.04070143,-1.4435394,9.682512,0.57924515
1409350297050,-1.1767502,10.150218,-0.02813187,-1.4760704,9.678302,0.56753045
1409350297050,-1.0199299,10.196306,0.002992752,-1.5164161,9.672807,0.5546908
1409350297051,-0.5931635,10.55843,-0.42437226,-1.5562598,9.667113,0.5434552
1409350297060,-0.57400984,10.877457,-0.40761283,-1.5920767,9.662061,0.52942264
1409350297077,-0.21068975,11.385626,-0.1945289,-1.6272826,9.656927,0.51585025
1409350297105,0.11552023,11.546637,-0.14544775,-1.6587169,9.652147,0.5050844
1409350297106,0.28790274,11.697471,-0.09636662,-1.6877766,9.6474285,0.4989242
1409350297107,0.46986207,11.762115,0.21667525,-1.7149847,9.642619,0.4991111
1409350297153,1.0217255,11.642405,0.4973954,-1.739825,9.637877,0.50470287
1409350297154,0.4842273,11.155185,0.87567925,-1.7583178,9.633984,0.5148426
1409350297156,-0.0023942017,10.916363,1.2503718,-1.780316,9.628995,0.5322789
1409350297157,-0.5267244,10.865486,1.5885528,-1.8070258,9.622573,0.5577991
1409350297158,-1.4610616,10.830172,1.797447,-1.8378341,9.614855,0.58935773
1409350297160,-1.9698294,10.806828,2.098518,-1.874553,9.605633,0.6231003
1409350297198,-1.477821,10.863091,2.178125,-1.9117566,9.595953,0.6582204
1409350297199,-1.9476831,10.718841,2.0015526,-1.9346932,9.589096,0.690346
1409350297200,-2.3289597,10.769718,1.8698715,-1.9520233,9.584036,0.7115214
1409350297201,-2.4013844,10.811616,1.3892355,-1.9669448,9.580195,0.7220691
1409350297231,-2.3409307,10.811616,0.7374141,-1.9756659,9.578535,0.7202809
1409350297232,-2.0015526,10.69011,0.20171149,-1.9803766,9.578663,0.7054888
1409350297233,-1.8854338,10.345944,-0.48841715,-1.9726336,9.582368,0.67625165
1409350297242,-1.8579005,9.515156,-0.5638345,-1.9555465,9.588726,0.6344987
1409350297270,-2.0979192,9.34038,-0.39384618,-1.9324669,9.596025,0.59354156
1409350297271,-2.2900538,9.52174,-0.06404489,-1.9046679,9.603633,0.5593394
1409350297275,-2.6809072,9.919178,0.19572599,-1.871951,9.611431,0.53535354
1409350297313,-2.7814639,10.59135,0.46507367,-1.8352492,9.619189,0.5229291
1409350297315,-3.0561984,11.191097,0.83856916,-1.7914008,9.627338,0.52499497
1409350297317,-3.1453824,11.45865,1.0588357,-1.7429852,9.635045,0.546164
1409350297320,-3.208829,11.20247,1.2054806,-1.6917859,9.6419115,0.5846491
1409350297322,-3.3638535,10.804434,1.4407109,-1.6405585,9.647459,0.6367798
1409350297369,-3.4674027,10.500969,1.8010383,-1.5914339,9.651569,0.6963702
1409350297370,-3.3871968,10.388441,2.010531,-1.5441722,9.653953,0.76622856
1409350297372,-3.2974143,10.159196,1.9015948,-1.4938323,9.655561,0.84200615
1409350297374,-3.0280666,9.824008,1.5005659,-1.4353038,9.65778,0.9151873
1409350297376,-2.758719,9.510367,0.92775315,-1.3663849,9.66176,0.97662014
1409350297403,-2.544438,9.167996,0.45250413,-1.2894747,9.667621,1.0221422
1409350297404,-2.180519,8.944139,0.0724246,-1.2088202,9.67451,1.0549902
1409350297405,-2.0147207,8.535329,-0.1364695,-1.1262372,9.681664,1.0804368
1409350297445,-1.762731,8.318055,-0.21787235,-1.0471833,9.688011,1.1028408
1409350297446,-1.8608932,8.12592,0.38965634,-0.970908,9.693283,1.1260563
1409350297447,-1.8489223,7.00304,0.80445176,-0.89697796,9.696862,1.156147
1409350297447,-1.5939398,6.8210807,1.3521254,-0.8280232,9.698225,1.1954861
1409350297452,-1.3437457,6.682217,1.7932571,-0.76304233,9.697295,1.2452383
1409350297460,-1.22224,6.506243,2.0829554,-0.69663256,9.694423,1.3051012
1409350297477,-1.1510124,6.250662,2.248754,-0.6276385,9.690084,1.3706784
1409350297492,-1.0456676,5.966949,2.3050177,-0.5569655,9.684816,1.4368417
1409350297493,-0.88645315,5.819706,2.248754,-0.48421258,9.679454,1.4980292
1409350297508,-0.56203884,5.954978,2.112883,-0.40813875,9.674891,1.5492896
1409350297525,-0.23582886,6.1519012,1.9668367,-0.32688186,9.671869,1.5869719
1409350297526,0.079008654,6.5110316,1.9859903,-0.23957203,9.670544,1.6104549
1409350297542,0.39863458,6.769605,1.9692309,-0.1484267,9.670299,1.6228696
1409350297542,0.82240826,6.9348054,1.8375498,-0.05484401,9.669899,1.6310866
1409350297556,1.3497312,7.2149267,1.7136499,0.03988697,9.669625,1.6331397
1409350297560,1.7735049,7.603985,1.8441339,0.13506478,9.6694765,1.6289241
1409350297575,1.917157,8.042722,2.2780828,0.22638741,9.669241,1.620167
1409350297598,2.2948422,8.343793,2.36188,0.30818498,9.668475,1.6112143
1409350297599,2.5797524,8.585009,2.136825,0.37803075,9.667717,1.6008536
1409350297600,2.908955,9.086594,1.9913772,0.43340144,9.667532,1.5878911
1409350297622,3.430891,10.039486,2.2026656,0.4750412,9.668045,1.5727773
1409350297623,3.4476504,10.342353,2.3169887,0.5093948,9.668471,1.5593507
1409350297639,3.4584243,10.63684,2.285864,0.5343966,9.668865,1.5485103
1409350297640,3.3997664,10.937312,2.1972785,0.5556611,9.669409,1.5375922
1409350297662,3.1651347,11.171345,2.168548,0.5762505,9.670108,1.5255557
1409350297663,2.7138276,11.399393,2.272696,0.5963107,9.67076,1.513676
1409350297671,2.154183,11.666347,2.3451207,0.6166478,9.671049,1.5036404
1409350297696,1.6334441,11.804611,2.2110453,0.64013875,9.670931,1.4945662
1409350297697,1.395221,11.763311,2.369661,0.66994685,9.67015,1.4865292
1409350297700,1.4652514,11.468226,2.565387,0.709284,9.667054,1.4884117
1409350297725,1.6382325,10.716447,2.5881321,0.75904953,9.660588,1.5057412
1409350297726,1.8321629,10.496181,2.8736405,0.8153219,9.65164,1.5334582
1409350297742,1.5771804,10.468647,3.9211037,0.87334555,9.641089,1.5674994
1409350297742,0.54049104,12.424111,5.910087,0.92857206,9.628618,1.6117926
1409350297757,-0.54168814,15.395315,5.6521115,0.970505,9.613277,1.6773237
1409350297760,-1.6220716,16.812084,2.2230163,0.9917003,9.60023,1.7385365
1409350297774,-3.4332852,16.557102,-0.29927522,0.99708,9.597951,1.7480229
1409350297793,-4.477157,15.21156,-1.6986861,0.97769696,9.607244,1.707445
1409350297794,-4.349067,13.296199,-2.610877,0.93744403,9.622011,1.6457485
1409350297800,-3.881001,9.279327,0.5883751,0.8841081,9.63449,1.6016661
1409350297824,-3.3758245,8.404246,1.6519991,0.82995117,9.635284,1.6256937
1409350297825,-2.2828712,8.198345,1.678934,0.77039284,9.632953,1.6682663
1409350297840,-1.5209166,7.9661074,1.6825253,0.7241472,9.630547,1.7025226
1409350297841,-1.441908,7.81647,1.8866309,0.6955351,9.630131,1.716747
1409350297868,-1.2012907,7.9667063,1.7579426,0.67533463,9.632197,1.7132182
1409350297869,-0.7116765,8.22947,1.5424645,0.6585933,9.635611,1.7004966
1409350297875,-0.092775315,8.722076,1.2252327,0.6411094,9.641841,1.6716073
1409350297897,0.22804771,9.374496,0.7170634,0.62153256,9.650954,1.6257911
1409350297898,0.30825347,10.209475,0.50876784,0.59521914,9.662796,1.5641131
1409350297900,0.32441434,10.930129,0.55964464,0.5579095,9.676422,1.4919764
1409350297922,0.41000703,10.685921,0.5141548,0.5070241,9.6899395,1.4207048
1409350297923,0.19273324,10.02572,0.2765303,0.44584408,9.702149,1.3564403
1409350297939,-0.22146365,9.551069,-0.014963761,0.37869745,9.713641,1.2931207
1409350297940,-0.60094464,9.09617,-0.19572599,0.30584475,9.725246,1.223299
1409350297962,-0.9888053,8.603564,-0.22864626,0.22759694,9.7363,1.1502334
1409350297963,-1.3718776,8.01878,-0.16998832,0.14586768,9.745736,1.0815398
1409350297972,-1.6591818,7.3591776,-0.219668,0.062337417,9.753345,1.0192002
1409350297999,-1.8423382,7.207744,-0.24420857,-0.01813856,9.758643,0.9689822
1409350298000,-1.6921021,7.736264,0.18495208,-0.091253005,9.762101,0.9292127
1409350298001,-1.6771383,8.385093,0.45489833,-0.1515829,9.764019,0.9007419
1409350298025,-1.6430209,8.704719,0.40821138,-0.20109746,9.764593,0.8846952
1409350298026,-1.6986861,8.838196,-0.020350715,-0.24809757,9.764133,0.8777954
1409350298040,-1.8405426,9.026739,-0.46806642,-0.30535832,9.763343,0.86848104
1409350298042,-1.8662802,9.25359,-0.8122329,-0.3820585,9.762637,0.8457669
1409350298056,-1.365892,9.559449,-0.83497787,-0.47592583,9.761691,0.8082482
1409350298074,-0.9367314,9.685144,-0.6877344,-0.57459533,9.759738,0.7666469
1409350298075,-0.5626374,9.882068,-0.40043023,-0.66873056,9.756638,0.7288381
1409350298087,-0.05686229,10.177752,0.1933318,-0.752858,9.752364,0.70357543
1409350298094,0.17477672,10.294469,0.8750807,-0.8190993,9.747204,0.70104575
1409350298109,0.24301147,10.101735,1.3162124,-0.86942106,9.740906,0.72751766
1409350298114,0.17417817,9.4972,1.4047978,-0.9109666,9.7332735,0.77713174
1409350298120,0.10354923,8.891466,1.3611037,-0.95124733,9.724537,0.8360035
1409350298139,0.18794483,8.527548,1.287482,-0.9922124,9.715569,0.89087003
1409350298140,0.27712885,8.34499,1.0809821,-1.0336555,9.706902,0.93703663
1409350298165,0.3405752,8.46051,0.8146271,-1.0754197,9.698764,0.9735801
1409350298166,0.36152446,8.847174,0.56922144,-1.116265,9.691422,1.0003244
1409350298175,0.4441244,9.331401,0.4866215,-1.1535972,9.685066,1.0193577
1409350298197,0.31603462,10.255563,0.86251116,-1.1871572,9.679205,1.0363638
1409350298199,0.10654198,10.608109,1.0348936,-1.2158024,9.673222,1.058782
1409350298201,-0.050876785,10.672154,1.417966,-1.2452499,9.6659775,1.0902377
1409350298233,0.038905777,10.5602255,1.555034,-1.278588,9.656609,1.1338114
1409350298236,0.06703765,10.44231,1.2970588,-1.3153812,9.645543,1.1847655
1409350298237,0.36870706,10.445304,1.2036849,-1.356389,9.633874,1.2325174
1409350298241,0.9379285,10.2495775,1.2018893,-1.398303,9.622602,1.2730596
1409350298262,1.3383588,9.861717,1.009156,-1.4369365,9.612526,1.3057352
1409350298263,1.3102269,9.551069,0.8355764,-1.4735408,9.6036625,1.3299278
1409350298275,0.91099375,9.504382,0.89064306,-1.5116148,9.595512,1.3459464
1409350298293,0.41479546,9.61272,1.0947487,-1.552985,9.587159,1.358306
1409350298295,-0.16400282,9.943718,1.2306197,-1.5970559,9.578007,1.3717117
1409350298301,-0.5746084,10.526707,1.3221979,-1.6416739,9.568074,1.3882606
1409350298336,-0.5614403,10.9025955,1.9147629,-1.6830556,9.558809,1.4024577
1409350298337,-0.4357447,10.998962,2.211644,-1.715917,9.551765,1.410603
1409350298339,-0.6925228,10.927136,2.1416135,-1.7348604,9.548542,1.4092662
1409350298342,-0.82001406,11.0247,2.5893292,-1.7383225,9.548872,1.4027352
1409350298364,-1.3120226,11.129447,3.0352492,-1.7266493,9.55168,1.3980252
1409350298372,-2.1942859,10.923545,0.6817489,-1.710797,9.55605,1.3876208
1409350298373,-2.8844144,9.730036,-0.31364042,-1.6972309,9.565908,1.3353562
1409350298403,-4.0617633,9.129689,-0.76554596,-1.6809814,9.580684,1.2470671
1409350298404,-4.4633904,8.884883,-1.3461399,-1.6715271,9.5959215,1.1378273
1409350298404,-4.59986,9.281721,-2.272696,-1.6542065,9.614294,0.99966735
1409350298422,-4.8464627,10.660782,-2.4875755,-1.6249413,9.634513,0.84031445
1409350298423,-4.6261964,12.959215,-2.247557,-1.5756453,9.655127,0.68283427
1409350298441,-3.8618474,15.031397,-2.0649989,-1.4987454,9.675359,0.5581835
1409350298443,-3.4009635,16.326061,-1.5544355,-1.3886445,9.695675,0.4857602
1409350298455,-3.3147724,15.931617,-0.5153519,-1.2561626,9.714677,0.466376
1409350298476,-3.3901896,13.974357,1.3042414,-1.1231965,9.729316,0.4992536
1409350298476,-3.1651347,11.576564,3.4386723,-1.007521,9.736812,0.5914384
1409350298481,-2.9466639,9.8437605,4.743512,-0.9085116,9.736746,0.73536515
1409350298517,-2.847903,9.759963,4.84347,-0.8232678,9.730547,0.89949256
1409350298519,-3.3010056,9.850943,4.022857,-0.7427251,9.721156,1.0573133
1409350298520,-3.4278982,9.498995,3.0657754,-0.66891795,9.712604,1.1782534
1409350298521,-3.5637693,9.197326,2.384625,-0.59137434,9.70873,1.2494963
1409350298547,-2.8125885,8.5299425,1.584363,-0.50513077,9.709776,1.2788644
1409350298547,-1.8842367,7.9708962,0.9415198,-0.39858103,9.715372,1.2739971
1409350298552,-0.4997896,8.025963,0.07062895,-0.2719251,9.723635,1.2439325
1409350298570,-0.13946225,8.214506,-0.14185645,-0.12905118,9.732402,1.1975402
1409350298573,0.5686229,8.861539,-0.09756372,0.015502982,9.738933,1.1503688
1409350298585,1.0474633,9.011775,0.06464344,0.16088374,9.742028,1.1123793
1409350298610,0.62488663,8.526351,0.50158525,0.3022101,9.740844,1.0931674
1409350298611,0.6135142,7.7649946,0.931943,0.4262181,9.735621,1.0983673
1409350298613,0.2765303,6.8288617,1.3359646,0.53934425,9.72791,1.1168199
1409350298621,0.27593175,6.097433,1.7136499,0.6317818,9.717809,1.1556153
1409350298645,0.17238252,5.6257753,2.070386,0.7113022,9.70591,1.2082125
1409350298645,0.22565351,5.4258595,2.284667,0.7814914,9.693029,1.266826
1409350298653,0.43035775,5.4246626,2.2649148,0.84568524,9.680205,1.3224431
1409350298675,0.7182605,5.6347537,2.0548236,0.907251,9.668511,1.3664504
1409350298676,0.78050977,5.973533,1.7070658,0.967906,9.658852,1.3928814
1409350298681,0.80564886,6.3105173,1.4760253,1.0261055,9.651799,1.4000926
1409350298707,0.9475053,6.6720414,1.3341689,1.0805765,9.647357,1.3896966
1409350298710,1.2240356,7.0946183,1.2000936,1.1307752,9.645099,1.3652223
1409350298735,1.6573862,7.667431,1.0229226,1.1798525,9.643536,1.3343798
1409350298736,2.2373815,8.204929,0.96187055,1.2229856,9.643248,1.2970967
1409350298737,2.420538,8.529344,1.3563153,1.2587953,9.643541,1.2601296
1409350298758,2.4552538,8.680777,2.432509,1.2789656,9.644617,1.2312523
1409350298760,2.6270378,9.149442,2.883816,1.2762911,9.646639,1.21812
1409350298762,2.9993362,9.665392,2.8263552,1.2502294,9.65061,1.2136978
1409350298804,3.3303347,10.148422,2.665345,1.2056389,9.656611,1.2110671
1409350298805,2.944868,10.088568,2.9059622,1.1478068,9.663635,1.2112391
1409350298807,2.4319103,10.096349,2.6360161,1.0785323,9.670147,1.2228758
1409350298809,1.4329298,10.514136,2.653374,1.0074095,9.675565,1.2405491
1409350298838,0.74399817,11.553819,2.509722,0.94298327,9.6793785,1.2612821
1409350298839,0.504578,12.389396,1.4622587,0.88365597,9.682578,1.2795441
1409350298842,0.9020155,12.190677,0.3489549,0.85218,9.685232,1.2808073
1409350298860,2.0260932,12.041637,-0.32441434,0.8607531,9.68749,1.2577952
1409350298860,3.1950622,11.687296,-0.4189853,0.9123076,9.687818,1.2183167
1409350298863,4.5801077,10.311827,0.7302315,0.9993097,9.683737,1.1819553
1409350298873,5.0613422,9.181165,3.74513,1.1097057,9.673321,1.1686842
1409350298889,3.1890767,11.040861,7.739856,1.2249581,9.656713,1.1906981
1409350298903,3.1908724,16.600197,8.168418,1.3169671,9.635879,1.259294
1409350298903,1.9919758,19.535488,4.365228,1.398093,9.613186,1.3425293
1409350298918,-1.436521,18.53531,2.0548236,1.4494944,9.604046,1.3533968
1409350298922,-3.9534256,17.398664,-0.6560113,1.4419585,9.611891,1.3048809
1409350298937,-3.4913447,13.235745,-3.277662,1.3960922,9.629721,1.220571
1409350298953,-4.064756,11.631032,-1.2862848,1.3605428,9.64408,1.1449891
1409350298956,-3.8307228,10.392033,-0.7858967,1.2929044,9.653219,1.1463573
1409350298969,-3.0238767,8.963891,-0.87807345,1.2068343,9.659453,1.186983
1409350298973,-2.3780408,8.228272,-0.19632454,1.1293403,9.663042,1.2331252
1409350298984,-1.9907787,7.5644803,0.97862995,1.069927,9.663849,1.2789448
1409350299000,-1.4670471,7.0485296,1.8890251,1.0302379,9.662014,1.3245687
1409350299002,-0.44891283,6.4631476,2.2637177,1.0037669,9.660177,1.3578765
1409350299019,0.5746084,6.2380924,2.356493,0.977958,9.66126,1.3689646
1409350299022,1.174356,6.599617,2.27928,0.9437654,9.665907,1.3601179
1409350299035,1.2635399,7.789535,2.123657,0.9036534,9.671871,1.344887
1409350299060,1.1540052,9.337985,2.005144,0.8514293,9.681081,1.3123027
1409350299061,0.8690952,10.026319,1.7124528,0.782373,9.693751,1.2607449
1409350299062,0.48722005,10.123283,0.76554596,0.6970416,9.709059,1.1910979
1409350299097,-0.24420857,10.119094,-0.43873745,0.6011493,9.7258415,1.1031998
1409350299098,-0.98102415,10.022727,-1.283292,0.49943113,9.7433605,0.99392766
1409350299099,-1.4682442,9.803059,-1.6705543,0.39364722,9.759631,0.8746779
1409350299102,-1.9189527,9.545682,-1.7393875,0.28770238,9.772641,0.76363057
1409350299121,-2.3948002,8.9519205,-1.6693572,0.18756059,9.781696,0.6735291
1409350299122,-1.9249382,8.531139,-0.8655039,0.09785784,9.787001,0.6127157
1409350299137,-1.472434,9.199121,0.050876785,0.028502494,9.788992,0.5875739
1409350299149,-0.9223662,9.668385,1.1480197,-0.029870238,9.789297,0.58236897
1409350299153,-0.4854244,9.255983,1.1641805,-0.07192953,9.787101,0.6147309
1409350299168,-0.51954174,8.567052,0.59017074,-0.111465625,9.782763,0.67493063
1409350299183,-0.5482722,8.32045,0.23463176,-0.1659613,9.777442,0.737892
1409350299184,-0.94211835,8.096592,0.14844051,-0.24397278,9.77293,0.77506566
1409350299204,-1.2617443,7.9032598,0.24061728,-0.3468297,9.769355,0.7808993
1409350299205,-0.89303726,7.86196,0.095768064,-0.46879274,9.765002,0.77159655
1409350299218,-0.23642741,8.411429,-0.009576807,-0.5944638,9.758838,0.7629523
1409350299225,-0.08080431,8.841787,0.038307227,-0.7082708,9.751551,0.7589366
1409350299249,-0.049081136,9.053674,0.39923313,-0.8046093,9.743791,0.7625758
1409350299250,0.0700304,8.972271,0.9331401,-0.88570637,9.734865,0.78633577
1409350299256,0.18555063,8.805874,1.4101849,-0.95877403,9.72456,0.8270877
1409350299276,0.30286652,8.649054,1.3826514,-1.0222756,9.711884,0.89703757
1409350299277,0.29209262,8.449138,1.086369,-1.0813893,9.697442,0.98009956
1409350299282,0.3345897,8.24204,0.6877344,-1.1408507,9.682444,1.0578921
1409350299307,0.59974754,8.273763,0.4213795,-1.1997443,9.668134,1.1216989
1409350299308,1.0564415,8.573636,0.43275195,-1.2520424,9.655631,1.1711352
1409350299318,1.6717514,9.891046,1.3371617,-1.289459,9.646054,1.2088531
1409350299327,1.4891934,10.234613,2.131438,-1.3059417,9.638981,1.2469784
1409350299352,1.1881226,10.010158,2.6408045,-1.3165277,9.6314945,1.29285
1409350299353,0.5943606,9.742006,2.5264814,-1.3324913,9.621585,1.3490599
1409350299354,-0.036511578,9.789292,2.3540988,-1.3569295,9.609947,1.4064332
1409350299386,0.07062895,9.783307,1.7992426,-1.391328,9.59716,1.4591535
1409350299387,0.95588505,9.763555,0.82599956,-1.426153,9.586332,1.4962239
1409350299391,1.5652094,10.04607,0.47764325,-1.4525939,9.579108,1.5169144
1409350299407,1.5065514,10.546458,0.8475474,-1.4705855,9.574991,1.5255586
1409350299408,1.0313023,10.90918,1.0941502,-1.4848373,9.572559,1.5270159
1409350299413,0.33159694,11.23539,1.079785,-1.4954203,9.570807,1.5276725
1409350299422,-0.3633201,11.468226,1.0414777,-1.501289,9.569324,1.5312041
1409350299437,-0.79128367,11.467029,1.3640964,-1.5041595,9.568485,1.5336261
1409350299463,-0.94930094,10.885837,2.3409307,-1.502224,9.569088,1.5317594
1409350299464,-0.40521863,9.797672,2.754529,-1.4895872,9.571641,1.5281352
1409350299465,0.1328782,8.707113,2.4947581,-1.4638336,9.576222,1.5243146
1409350299490,0.5153519,8.123527,2.6246436,-1.4129095,9.586808,1.5057133
1409350299492,0.23523031,7.6853876,2.5198972,-1.3396777,9.603253,1.4673668
1409350299496,-2.1086931,7.0646906,0.2112883,-1.2576112,9.623462,1.4063351
1409350299502,-3.3213563,7.3992805,-0.88765025,-1.1830525,9.645905,1.3142666
1409350299529,-4.396951,9.121908,-1.1252748,-1.111451,9.669423,1.1988851
1409350299531,-5.063138,12.147581,-1.1797429,-1.044045,9.69215,1.0689137
1409350299534,-4.577115,15.9657345,-1.4838065,-0.9768593,9.711938,0.945723
1409350299570,-2.9909565,19.125483,-3.2321723,-0.8918573,9.7295475,0.84313375
1409350299572,-2.1272483,19.608511,-4.3155484,-0.7659062,9.749305,0.7313332
1409350299574,-2.919729,19.608511,-3.2184057,-0.61543375,9.768455,0.6074026
1409350299602,-3.8606503,18.614319,-0.39085343,-0.48217782,9.781513,0.50982606
1409350299603,-3.217807,15.357607,2.5396495,-0.38538414,9.786668,0.4929668
1409350299603,-3.0783448,12.042834,4.526837,-0.30092406,9.785023,0.5772143
1409350299604,-3.596091,10.856507,5.180454,-0.22616555,9.777392,0.72240394
1409350299619,-4.085107,10.411186,4.2700586,-0.17045331,9.766201,0.8733026
1409350299636,-3.5739446,8.805275,3.0298622,-0.12606223,9.756451,0.982955
1409350299637,-2.891597,7.578247,2.52289,-0.06750676,9.751375,1.0375642
1409350299651,-1.8177977,7.3202715,2.678513,0.012641711,9.74923,1.059599
1409350299654,-1.0259154,7.043741,2.7928362,0.11674608,9.747209,1.0717673
1409350299668,-0.427365,6.766014,2.5863364,0.23958951,9.744263,1.0781277
1409350299686,0.35075054,7.01142,2.1404164,0.3687447,9.740036,1.0798752
1409350299686,1.8596961,7.997831,1.151611,0.504808,9.734573,1.0740898
1409350299700,1.7878702,7.691373,0.8230068,0.6468338,9.7273445,1.0633689
1409350299702,1.4909891,7.3603745,0.55844754,0.778839,9.718261,1.0579265
1409350299717,0.83617496,6.5708866,0.30166942,0.8903886,9.708106,1.0631472
1409350299734,0.30645782,5.775413,0.30346507,0.9820626,9.69736,1.0803592
1409350299735,0.1400608,5.33488,0.5781997,1.0573932,9.686252,1.1085384
1409350299750,0.30765492,5.3941364,0.94331545,1.1197861,9.675039,1.1445867
1409350299754,0.46986207,5.286996,1.06123,1.1741678,9.663813,1.1842457
1409350299765,0.6631939,5.149928,1.0965444,1.222638,9.653294,1.2204477
1409350299783,0.7697359,5.263054,1.3293805,1.2626977,9.644713,1.2471907
1409350299783,0.7942764,5.4623713,1.6160861,1.2984056,9.637173,1.268643
1409350299807,1.0899603,5.595249,1.927931,1.3246788,9.632069,1.280185
1409350299809,1.4401124,6.0082493,2.1404164,1.3452986,9.62893,1.2822945
1409350299814,1.9081788,6.8306575,2.2936451,1.360466,9.627764,1.275031
1409350299845,2.2391772,7.7440453,2.2218192,1.370449,9.628601,1.2578869
1409350299846,2.5737667,8.678981,2.2703018,1.3742411,9.631745,1.229365
1409350299847,3.0244753,9.402629,1.9572599,1.3698083,9.63681,1.1941159
1409350299871,3.5248635,10.123283,1.8034325,1.3561903,9.643357,1.1561903
1409350299872,3.8271315,10.571598,1.5586253,1.3330884,9.650632,1.1218561
1409350299874,3.417723,11.7303915,2.2092497,1.29987,9.6580715,1.0965413
1409350299882,2.4109612,12.200851,3.247136,1.2544452,9.664616,1.0917796
1409350299910,1.3090298,12.647969,3.5817258,1.1966298,9.670389,1.1054591
1409350299911,0.9379285,12.654553,2.31639,1.1282532,9.67488,1.1375989
1409350299915,1.3796587,12.983756,0.38307226,1.0748284,9.678333,1.1597521
1409350299945,2.5127146,12.501324,-0.5434838,1.0563917,9.68163,1.1491266
1409350299946,4.7381253,11.378444,-0.107140526,1.08476,9.682459,1.1152035
1409350299946,4.917092,9.752182,1.9213469,1.1656878,9.675906,1.0901456
1409350299954,4.5525746,9.41879,3.9665937,1.2639248,9.662153,1.1025902
1409350299969,3.6314054,10.605715,6.2087636,1.3582517,9.644744,1.1421268
1409350299984,2.2200236,13.759478,7.1347213,1.4323733,9.627002,1.1998128
1409350299985,1.8830396,16.938976,5.009867,1.4701513,9.612354,1.2695209
1409350300003,-0.079008654,16.95035,4.0426097,1.485607,9.603626,1.3167213
1409350300004,-2.0907366,17.059286,3.4201171,1.4584221,9.601996,1.3583283
1409350300019,-3.2028434,16.378136,0.59735334,1.3876027,9.608086,1.3891168
1409350300037,-3.2363622,14.862606,-2.7030537,1.2890204,9.622859,1.3818066
1409350300038,-4.5118732,13.724163,-4.099472,1.1776345,9.642996,1.34023
1409350300050,-5.527613,12.127829,-4.4059296,1.0374725,9.666831,1.2831221
1409350300067,-5.0637364,10.399215,-3.2998085,0.8849291,9.688523,1.2328041
1409350300068,-3.0609868,6.7869635,-0.23044191,0.7541829,9.700907,1.2222979
1409350300084,-2.5528176,5.7389016,1.2773066,0.67619103,9.700863,1.2674463
1409350300084,-1.5526398,4.759673,2.8502972,0.6257722,9.696381,1.326278
1409350300100,-0.23403321,4.177882,3.5087025,0.59243846,9.690479,1.3834802
1409350300103,0.9187749,4.509479,3.417723,0.5662337,9.684189,1.4374499
1409350300117,1.5640123,5.2115784,3.0023289,0.5443639,9.67954,1.4766699
1409350300135,1.8411411,5.9238534,2.5330653,0.5240305,9.677642,1.4963397
1409350300135,1.8561049,6.811504,2.3439236,0.4997069,9.679456,1.4929276
1409350300151,1.6663644,7.945757,2.0440497,0.46501425,9.685658,1.4636202
1409350300166,1.276708,8.813655,1.3724761,0.41800946,9.696185,1.407006
1409350300166,0.21906945,8.896853,0.044891283,0.36226755,9.710256,1.3229066
1409350300182,-0.9672575,9.116522,-1.1486182,0.29903126,9.727318,1.2084101
1409350300183,-2.0446482,9.578603,-1.7172412,0.22755672,9.745552,1.0690215
1409350300199,-2.7742813,10.016742,-1.9219455,0.15085688,9.761953,0.92299706
1409350300216,-2.9406781,10.435128,-1.910573,0.077180855,9.774453,0.79025483
1409350300217,-2.6833014,10.854712,-1.7298107,0.016458455,9.782632,0.68573153
1409350300234,-2.135628,11.048044,-1.3946224,-0.034077883,9.788252,0.5994597
1409350300235,-1.3371617,11.048642,-0.9720459,-0.06689641,9.79078,0.5536426
1409350300249,-0.4950012,10.8948145,-0.59376204,-0.08848339,9.790985,0.54697764
1409350300266,0.3321955,10.721834,0.17717093,-0.11106921,9.789625,0.5668551
1409350300266,0.3788824,10.248381,0.3842694,-0.14499848,9.7871475,0.60093826
1409350300282,1.1563994,9.822212,0.5081693,-0.20139216,9.783851,0.63726157
1409350300283,1.4107834,9.186552,0.64823014,-0.27200964,9.779359,0.67865556
1409350300304,1.7782934,8.886678,0.8206126,-0.35185063,9.773286,0.7276542
1409350300305,1.8602947,8.779537,1.1414356,-0.43342924,9.765727,0.78300625
1409350300316,1.7866731,8.590396,1.4628572,-0.51412934,9.756772,0.8434915
1409350300332,1.5448587,8.052897,1.7579426,-0.59510523,9.745774,0.91439736
1409350300335,1.2431892,7.358579,1.8872294,-0.679276,9.732329,0.99535525
1409350300354,0.8714894,6.867768,1.8914193,-0.7691297,9.71669,1.0792366
1409350300367,0.7326257,6.675633,1.6352397,-0.8620785,9.69984,1.1577141
1409350300368,0.7673417,7.0527196,1.3700819,-0.9519922,9.683293,1.2239069
1409350300381,0.6925228,7.60578,1.1791444,-1.0335026,9.668474,1.2739142
1409350300383,0.7799112,8.127118,1.2072762,-1.1062437,9.655753,1.3088378
1409350300404,0.81761986,8.569447,1.2354081,-1.1701497,9.644635,1.334971
1409350300405,0.7404069,9.139266,1.22224,-1.22788,9.634047,1.3593674
1409350300415,0.48123455,9.871892,1.4443022,-1.2808938,9.623323,1.38613
1409350300442,-0.02633622,10.283096,1.7633295,-1.3331535,9.611933,1.4155726
1409350300445,-0.29388827,10.645219,1.441908,-1.3886517,9.599,1.4495631
1409350300446,0.2172738,10.858303,0.3309984,-1.4466791,9.5863905,1.4760194
1409350300468,1.2593501,10.955269,0.18195933,-1.4978106,9.577524,1.4825649
1409350300469,1.970428,11.194689,0.76315176,-1.5363283,9.572116,1.4780829
1409350300486,1.8788497,11.326369,1.5598224,-1.5620079,9.569023,1.4711646
1409350300486,1.4047978,11.148601,2.2307975,-1.5820651,9.566031,1.4691902
1409350300504,0.8702923,11.007342,2.4917655,-1.6020038,9.5615,1.4770517
1409350300505,0.28550854,11.240777,2.7030537,-1.6218288,9.556087,1.4903922
1409350300516,-0.415394,11.082161,2.8389246,-1.6401471,9.551388,1.500426
1409350300535,-0.7637503,10.250176,2.5911248,-1.6575484,9.548932,1.4969356
1409350300536,-0.39205053,9.621698,1.9662381,-1.6736469,9.548325,1.4828296
1409350300550,0.034117375,9.43495,1.7417817,-1.6672231,9.554073,1.4527324
1409350300567,-0.19512744,9.36911,1.6484078,-1.6384676,9.565296,1.4109964
1409350300568,-0.82240826,8.949526,0.81283146,-1.601467,9.580087,1.3519068
1409350300584,-2.0566192,8.401853,0.41958386,-1.5630083,9.597688,1.2695706
1409350300585,-3.208829,7.9888525,0.20171149,-1.5234475,9.616963,1.1677
1409350300597,-4.1904516,8.120534,-0.688333,-1.4796317,9.63724,1.0510474
1409350300603,-4.8027687,9.1829605,-1.5562311,-1.4263574,9.658365,0.92296535
1409350300615,-5.2983685,11.19409,-1.8219875,-1.3596536,9.679101,0.797956
1409350300631,-3.328539,14.13417,-2.7910407,-1.2806336,9.697768,0.69547886
1409350300635,-2.665345,19.539679,-3.204639,-1.1705321,9.718344,0.5949939
1409350300649,-3.5823243,19.544468,-2.4199393,-1.0307164,9.739592,0.4983715
1409350300666,-3.2944214,17.898453,-0.090979666,-0.90579134,9.754957,0.43676004
1409350300667,-2.565387,14.630966,2.5276785,-0.7988683,9.763947,0.444454
1409350300683,-2.8401217,11.576564,4.1892543,-0.7103299,9.76639,0.53241324
1409350300683,-3.7044287,10.505158,4.3448777,-0.6449266,9.762249,0.673021
1409350300696,-4.6680946,9.824008,3.2800562,-0.6069701,9.753589,0.8182193
1409350300714,-4.659715,8.303091,2.0901382,-0.5852484,9.745523,0.92338663
1409350300715,-4.280833,7.5590935,2.0159178,-0.5519137,9.742715,0.97225326
1409350300732,-3.221997,7.004237,2.3175871,-0.49535978,9.744284,0.9868935
1409350300734,-2.1272483,6.39611,2.5863364,-0.40776902,9.748223,0.9880623
1409350300746,-1.4311341,6.2063694,2.5683799,-0.30343068,9.752344,0.98493665
1409350300766,-0.47165772,6.4858923,2.0871453,-0.18137302,9.756705,0.97169954
1409350300767,1.2162545,7.463924,1.4664485,-0.051348988,9.760502,0.94886565
1409350300780,2.1218612,8.579023,1.0809821,0.086347125,9.762766,0.92268527
1409350300783,2.1511903,8.6334915,0.4321534,0.22487617,9.762643,0.90034944
1409350300797,1.4036007,7.4471645,-0.1352724,0.34499094,9.760435,0.8861538
1409350300813,0.9744401,6.4302273,0.034117375,0.4334645,9.757117,0.8838269
1409350300815,0.7044938,5.2917843,0.6242881,0.49962783,9.752761,0.89690197
1409350300835,0.3669114,4.853047,0.85173726,0.5569443,9.747178,0.9234357
1409350300836,0.46088383,4.619612,0.85652566,0.61065155,9.740887,0.95531607
1409350300844,0.46507367,4.3903675,0.9540894,0.66264975,9.734372,0.9865586
1409350300872,0.6428431,4.4005427,0.9911995,0.71296555,9.727783,1.01603
1409350300873,1.0606314,4.4741645,1.3024458,0.760417,9.721888,1.0378063
1409350300876,1.3634979,4.718373,1.4856021,0.805181,9.716938,1.0503299
1409350300883,1.9123687,5.2702365,1.7328035,0.8458105,9.713376,1.0513424
1409350300904,2.1242554,6.157288,2.1206641,0.8807055,9.711477,1.0401592
1409350300905,2.285864,6.827665,2.1883004,0.90507346,9.711539,1.0184544
1409350300915,2.498948,7.5267715,1.8776526,0.9130676,9.713881,0.9885591
1409350300944,2.791639,8.573636,1.5185224,0.90077436,9.718682,0.9519564
1409350300945,3.0651767,9.827001,1.5107412,0.86904836,9.725335,0.9126939
1409350300945,3.1124623,10.732009,2.1763294,0.822278,9.732538,0.87860596
1409350300967,3.0502129,11.307815,2.7168205,0.7706691,9.738786,0.8558735
1409350300968,3.3267434,11.987768,2.678513,0.7085463,9.74365,0.8541778
1409350300986,2.954445,12.355876,2.5594015,0.6473126,9.74653,0.8697963
1409350300987,2.6312277,13.303382,2.2481554,0.5894166,9.747763,0.8967211
1409350300996,1.6753427,13.995306,2.1452048,0.54865736,9.747838,0.9214305
1409350301022,-0.16998832,14.010868,1.1623849,0.52913487,9.74816,0.92939836
1409350301023,1.1911154,14.32391,0.28491,0.5208472,9.750974,0.90423745
1409350301024,2.5617957,13.465589,0.1328782,0.55517876,9.752996,0.86094755
1409350301035,4.9458222,12.204443,0.44951138,0.63103616,9.751045,0.8302436
1409350301054,4.5178585,10.30225,2.7670987,0.7498717,9.742756,0.8287143
1409350301056,3.9785647,10.55005,6.779781,0.86167014,9.72937,0.8759423
1409350301065,2.3558946,14.091074,9.021951,0.9684949,9.710111,0.97271496
1409350301087,1.7058687,19.001581,6.4457893,1.0473633,9.687065,1.1109416
1409350301088,-1.1845313,19.494188,3.1507695,1.1115992,9.668945,1.2025996
1409350301095,-4.537611,18.31265,-0.23762453,1.1351123,9.663532,1.223952
1409350301115,-5.2846017,16.783354,-4.50888,1.1131637,9.672517,1.1720486
1409350301117,-4.257489,14.407707,-4.9542017,1.0727527,9.689866,1.0611714
1409350301131,-4.708796,10.787674,-2.606687,1.0245086,9.70176,0.9983186
1409350301149,-4.519056,9.096769,-0.40342298,0.94770396,9.707072,1.0222502
1409350301149,-3.454833,8.367136,0.45250413,0.8567065,9.708779,1.0844662
1409350301165,-2.3104045,8.1319065,0.676362,0.7828338,9.707545,1.1494095
1409350301165,-1.2384008,7.6494746,1.0205284,0.73562163,9.704657,1.2037156
1409350301180,-0.7116765,6.9503675,1.7842789,0.7066303,9.700791,1.2512863
1409350301183,-0.31663316,5.9849057,2.1942859,0.6860755,9.697194,1.2900096
1409350301196,0.4973954,4.923676,1.9165585,0.66353977,9.695075,1.3174374
1409350301213,0.74878657,5.708974,1.6340426,0.63674843,9.695642,1.3264455
1409350301215,1.0773908,7.345411,1.721431,0.6006562,9.699666,1.3137923
1409350301232,1.2324153,9.137471,2.0524294,0.55337805,9.706911,1.2806354
1409350301253,1.0307038,9.783905,1.7597382,0.49551395,9.716653,1.2294506
1409350301254,0.5883751,9.835979,0.54887074,0.4267072,9.728354,1.1607918
1409350301255,0.08439561,10.172364,-0.842759,0.35269028,9.741564,1.0714033
1409350301264,-0.32441434,10.342353,-1.6358383,0.2804715,9.755948,0.9556244
1409350301286,-0.8475474,10.207081,-1.751957,0.207662,9.769391,0.8284153
1409350301289,-1.4670471,10.050261,-1.6897079,0.13708794,9.780098,0.70804065
1409350301298,-1.7076644,9.782109,-1.5466543,0.06375483,9.788099,0.59952605
1409350301321,-1.5580268,9.63726,-1.4532804,-0.0037190754,9.792959,0.51799077
1409350301322,-1.1444284,9.740809,-1.0696096,-0.059186496,9.795297,0.4680208
1409350301324,-0.3172317,9.786898,-0.025737667,-0.099735275,9.795621,0.45413545
1409350301353,0.45489833,9.167398,0.8158242,-0.12547055,9.793841,0.48510346
1409350301354,0.9367314,8.39886,0.98461545,-0.14508392,9.789727,0.55728334
1409350301356,0.75237787,8.333019,0.65301853,-0.1718104,9.7840395,0.6429966
1409350301364,0.7009025,8.93935,0.38965634,-0.22035466,9.778469,0.7094855
1409350301382,0.08559271,9.153033,0.41180268,-0.29264748,9.773649,0.7486995
1409350301396,0.66020113,8.504803,0.0023942017,-0.3815103,9.768079,0.78069985
1409350301397,1.4443022,8.067263,-0.0724246,-0.48783612,9.760881,0.810927
1409350301418,1.8315643,7.9942393,0.29568392,-0.59842485,9.751748,0.8459808
1409350301419,1.6376339,7.587225,0.82480246,-0.69835466,9.741611,0.88527995
1409350301424,1.3449428,7.2424603,1.5161282,-0.78402144,9.730119,0.9383362
1409350301453,1.062427,7.2628107,2.1110873,-0.85735106,9.716306,1.0142757
1409350301455,0.89543146,7.1083846,2.2511482,-0.9229181,9.699885,1.1094334
1409350301456,0.45968673,6.6469026,1.8896236,-0.98331577,9.682294,1.2069246
1409350301464,0.36272156,6.567894,1.1731589,-1.0446961,9.665637,1.286252
1409350301483,0.39683893,6.827665,0.56982,-1.1072373,9.651941,1.3358301
1409350301501,0.30226797,7.4088573,0.4369418,-1.1682801,9.641828,1.3567127
1409350301502,0.093972415,8.491036,0.7966706,-1.2266672,9.633318,1.3655982
1409350301504,-0.45250413,9.478644,1.0420763,-1.2793655,9.626471,1.3655334
1409350301515,-0.7799112,10.396821,0.7739257,-1.3294516,9.618593,1.3731669
1409350301530,-0.8726865,10.869077,0.54647654,-1.3773263,9.60958,1.3890102
1409350301548,-0.31184477,11.136629,0.22445641,-1.4233592,9.601021,1.4017273
1409350301549,0.6290765,11.165958,0.29029694,-1.4649653,9.594729,1.4019414
1409350301570,1.30484,11.216236,1.0456676,-1.4980797,9.590595,1.3952136
1409350301571,1.34195,11.440693,2.1398177,-1.5240242,9.586885,1.3926069
1409350301576,0.7757214,11.63582,2.9538465,-1.5463364,9.582016,1.4014974
1409350301601,0.4902128,11.8578825,2.791639,-1.5675907,9.57573,1.4207125
1409350301602,0.3597288,12.2559185,2.7335799,-1.5872847,9.570074,1.4368699
1409350301604,0.1412579,12.358271,2.6755204,-1.5989599,9.56767,1.439934
1409350301615,0.36631286,11.890204,2.3995886,-1.6010395,9.56981,1.423306
1409350301629,0.84575176,11.178528,1.8614918,-1.585848,9.576794,1.3930253
1409350301651,1.0079589,10.527305,1.7663223,-1.5496795,9.588172,1.3549395
1409350301653,0.08738836,9.664794,1.2401965,-1.499707,9.6025715,1.308397
1409350301673,-0.7116765,8.685565,0.3776853,-1.4512793,9.618391,1.2452984
1409350301674,-2.2200236,7.441179,0.26396075,-1.4026228,9.635383,1.1672379
1409350301676,-3.383007,6.766014,-0.1340753,-1.3534452,9.652366,1.0818557
1409350301701,-3.9624038,7.1431007,-1.0857705,-1.2994492,9.670203,0.9843735
1409350301702,-4.486734,8.744224,-1.3676877,-1.2347236,9.689289,0.87380403
1409350301704,-4.830302,11.795034,-0.8319851,-1.1656989,9.707394,0.7602991
1409350301734,-4.540005,15.304336,-0.05267244,-1.0825366,9.723749,0.668751
1409350301736,-3.1358056,17.861942,-0.58418524,-0.9806947,9.7376375,0.6221511
1409350301736,-2.0745757,18.756176,-1.2898762,-0.8464671,9.751586,0.60039604
1409350301744,-2.4331074,18.024149,-0.57041854,-0.6968168,9.7645855,0.5811038
1409350301770,-2.3253684,16.365566,2.9975405,-0.57771015,9.7720995,0.5854131
1409350301771,-2.1380222,11.294646,3.912724,-0.4893813,9.771743,0.666316
1409350301777,-2.9095535,10.233417,3.8361096,-0.42188245,9.766583,0.7786331
1409350301803,-3.7714663,9.723452,2.8754363,-0.38099203,9.758862,0.8887346
1409350301805,-4.425083,8.55149,2.0266917,-0.3583098,9.752843,0.9612947
1409350301807,-3.645172,8.720282,1.863886,-0.33302116,9.751247,0.9862368
1409350301817,-2.372654,7.85777,1.863886,-0.2928751,9.751993,0.99159235
1409350301843,-1.7238252,6.761824,2.184709,-0.21061383,9.755868,0.9741995
1409350301844,-0.53809685,7.0485296,2.297835,-0.093371436,9.760355,0.9471848
1409350301845,1.0384849,8.422203,1.8950106,0.044931978,9.763603,0.916754
1409350301866,2.0404584,9.257181,0.89662856,0.19816206,9.764469,0.88673073
1409350301867,1.9596541,8.695142,-0.23223756,0.35632148,9.762848,0.8545429
1409350301876,1.1510124,7.204153,-0.66020113,0.49185684,9.759554,0.8243844
1409350301903,0.866701,6.1584854,-0.18315643,0.5908941,9.755211,0.81062645
1409350301905,0.86849666,5.6664767,0.44592008,0.66617006,9.749273,0.82356846
1409350301906,0.866701,5.20679,0.8738836,0.73364973,9.741213,0.8607715
1409350301917,0.90740246,5.1439424,1.2108675,0.79958665,9.731857,0.90665674
1409350301944,0.8798691,5.2618566,1.3581109,0.86084694,9.721501,0.9600836
1409350301946,0.80684596,5.2504845,1.2743138,0.9157583,9.711256,1.0115829
1409350301947,1.0857705,5.374983,1.4101849,0.962652,9.701915,1.0566566
1409350301981,1.1833342,6.085462,1.5688007,1.0017225,9.693852,1.0936933
1409350301982,1.4287399,6.3889275,1.7118542,1.0331724,9.6876135,1.1194263
1409350301984,1.7381904,6.9306154,2.0416555,1.0569873,9.683552,1.1322548
1409350302014,2.195483,7.663241,2.385822,1.0721188,9.6816,1.1347061
1409350302015,2.4791958,8.302493,2.64679,1.0791721,9.681334,1.130287
1409350302015,2.815581,8.951322,2.445677,1.0757719,9.682592,1.1227288
1409350302029,2.8526914,9.359533,2.3145945,1.0597095,9.68565,1.1115791
1409350302030,2.818574,9.884461,2.32058,1.0347272,9.689709,1.0996637
1409350302044,2.9735985,10.495582,2.3570917,0.99297523,9.695267,1.0891277
1409350302044,2.759916,10.721235,2.4833858,0.93939847,9.701089,1.0847958
1409350302059,2.9418752,10.836157,2.404377,0.87689674,9.706112,1.0921775
1409350302064,3.068768,11.137228,2.5264814,0.8174425,9.708992,1.1125107
1409350302077,1.1204864,11.556811,3.095703,0.7721016,9.709054,1.1438932
1409350302099,0.47225627,12.35049,2.4474726,0.72452056,9.708101,1.182471
1409350302100,0.66259533,12.523471,1.2360066,0.69241136,9.707467,1.2066762
1409350302106,1.9764135,12.181698,0.46986207,0.69274557,9.707595,1.2054517
1409350302131,4.3167458,11.920731,-0.2633622,0.7388072,9.706352,1.1879638
1409350302132,5.3875523,10.353127,0.45789108,0.8373153,9.701617,1.1609887
1409350302151,5.394735,8.79929,4.6154222,0.95288366,9.6929865,1.143856
1409350302152,4.143166,10.869676,6.6085954,1.070999,9.677993,1.1661129
1409350302157,3.3327289,15.044565,6.0363812,1.1811676,9.660736,1.2022502
1409350302165,2.3349452,18.211494,3.4213142,1.2777076,9.645458,1.225975
1409350302182,-1.834557,16.552912,2.5181017,1.3412801,9.637544,1.220291
1409350302185,-3.6619315,15.330672,0.83497787,1.3405122,9.63854,1.2132347
1409350302220,-4.073136,14.62558,-1.2611457,1.3090445,9.647205,1.1782261
1409350302221,-4.3526587,12.774263,-2.023699,1.2588059,9.659639,1.1301156
1409350302222,-4.6166196,11.413758,-1.3365631,1.1862519,9.670066,1.1193771
1409350302225,-4.570531,10.574591,-1.1875241,1.0888971,9.678599,1.144286
1409350302254,-4.095282,9.552266,-1.6944963,0.9918479,9.685932,1.1701905
1409350302255,-3.435081,8.842984,-1.7238252,0.9009948,9.69288,1.186043
1409350302258,-2.2942438,8.738836,-0.7350199,0.8288091,9.6988325,1.1900071
1409350302298,-1.3970166,8.166622,0.52852005,0.78028584,9.702337,1.1942363
1409350302311,-0.23044191,7.2209125,1.282095,0.7474513,9.703765,1.2035998
1409350302313,1.0217255,6.9665284,1.4425066,0.714539,9.70562,1.2086142
1409350302314,1.7238252,7.5405383,1.3814543,0.673755,9.709774,1.1986396
1409350302341,1.8219875,8.696339,1.6460136,0.62512815,9.716585,1.1694496
1409350302342,1.982399,10.251373,2.2158337,0.5671309,9.72566,1.1226237
1409350302343,1.2234371,10.655993,1.5825673,0.50267386,9.735773,1.0641576
1409350302344,0.59735334,10.3692875,0.51834464,0.4297832,9.746896,0.99182254
1409350302345,0.4878186,10.291476,-0.3633201,0.35537675,9.758036,0.90819645
1409350302366,-0.07182605,9.946113,-0.9008184,0.2854187,9.768842,0.81157273
1409350302367,-0.8523358,9.284714,-1.377863,0.21715635,9.778304,0.71275437
1409350302380,-1.2665327,8.84478,-1.460463,0.1487863,9.7857065,0.62305623
1409350302400,-1.3617022,9.391256,-1.1480197,0.081556186,9.790923,0.54913425
1409350302401,-1.2156559,10.254366,-0.65541273,0.018734036,9.793995,0.49771988
1409350302405,-0.94570965,10.918159,0.24660277,-0.036363654,9.794993,0.4766332
1409350302432,-0.56323594,10.335769,0.97025025,-0.087461315,9.793594,0.4982319
1409350302433,-0.26755205,8.939949,0.89064306,-0.1435199,9.789399,0.56345195
1409350302437,-0.45489833,8.239645,0.43394905,-0.21493155,9.783168,0.6432981
1409350302445,-0.7422025,8.383896,0.29867667,-0.31088722,9.776798,0.69854003
1409350302468,-0.79607207,8.543709,0.3429694,-0.41939065,9.770159,0.73382807
1409350302469,-1.3365631,7.7745714,0.0796072,-0.5459992,9.763384,0.7406839
1409350302477,-0.6147113,7.2472486,-0.5231331,-0.6911567,9.753997,0.7431363
1409350302501,0.5859809,7.428011,-0.3842694,-0.84044105,9.741568,0.75227046
1409350302502,1.4454993,8.012196,0.22266077,-0.9711234,9.728065,0.7694751
1409350302505,1.6555905,8.620323,1.1097125,-1.0741068,9.714652,0.8013996
1409350302535,1.5328877,8.289924,1.7836803,-1.1566232,9.700171,0.8598124
1409350302537,1.1755531,8.016984,1.5921441,-1.231165,9.6832285,0.94323796
1409350302538,0.7589619,7.893683,1.4616601,-1.3037931,9.66459,1.0325912
1409350302545,0.5177461,7.8212585,1.1803415,-1.3769925,9.645187,1.1156347
1409350302567,0.5410896,7.7829514,0.9091981,-1.4517922,9.625317,1.1899494
1409350302568,0.7158663,8.04751,0.8924387,-1.524098,9.606313,1.2515049
1409350302577,0.9008184,8.55149,1.1456255,-1.588278,9.589698,1.2982578
1409350302602,0.94810385,8.769362,1.4754268,-1.6413137,9.576005,1.3328973
1409350302603,0.7529764,8.793304,1.6310499,-1.6855351,9.564089,1.3629256
1409350302605,0.23343466,9.006389,1.6514006,-1.7260588,9.552317,1.3944031
1409350302634,-0.16879122,9.351153,1.5927427,-1.767572,9.539796,1.4277118
1409350302635,0.19153613,9.385271,1.2389994,-1.8104329,9.526776,1.4605623
1409350302636,1.3976152,9.337985,0.6967127,-1.8498005,9.514856,1.4886608
1409350302645,2.1158757,9.3822775,0.9888053,-1.8795553,9.506052,1.507527
1409350302668,2.1332338,9.902418,1.7340006,-1.9023745,9.499331,1.5212106
1409350302669,1.2360066,10.474034,2.336741,-1.9214712,9.492863,1.5375077
1409350302678,0.39504328,10.890026,2.5258827,-1.9408442,9.485569,1.5580372
1409350302700,-0.25558102,10.999561,2.5923219,-1.9547293,9.478721,1.5821791
1409350302700,-0.87927055,10.92594,2.9526494,-1.9596117,9.4749365,1.5987102
1409350302705,-0.34955344,10.308834,2.6521769,-1.9570056,9.47555,1.5982704
1409350302728,0.35673606,10.014347,1.9937714,-1.9346459,9.483687,1.5770888
1409350302730,0.31783026,9.768942,1.6214731,-1.8853728,9.499894,1.5387545
1409350302748,-0.41060558,9.205107,0.6619968,-1.8211523,9.521781,1.4796969
1409350302748,-1.287482,8.307879,-0.26515785,-1.7585222,9.547446,1.3871828
1409350302762,-2.585738,7.9409685,-0.83497787,-1.7000875,9.574854,1.265811
1409350302777,-4.061165,8.604761,-1.2132617,-1.6406791,9.602226,1.1295114
1409350302778,-4.7375264,10.691906,-1.6681601,-1.586674,9.627501,0.9818952
1409350302794,-5.2899885,13.555371,-1.8082209,-1.5218909,9.651901,0.83367866
1409350302797,-4.739322,16.779762,-1.9698294,-1.4425358,9.67442,0.7036197
1409350302814,-3.5661635,19.346346,-2.4600422,-1.3330805,9.6971035,0.5995839
1409350302817,-3.4685998,19.608511,-1.9237411,-1.1879833,9.720986,0.511398
1409350302825,-4.905121,19.159,-0.27712885,-1.0404065,9.740549,0.45789513
1409350302845,-4.2521024,16.765995,1.8291701,-0.93684274,9.750574,0.46798006
1409350302848,-3.3482912,13.175292,3.5577838,-0.8485718,9.754214,0.5528375
1409350302867,-3.1531637,10.80623,4.634576,-0.7671812,9.752742,0.68254167
1409350302868,-3.6062663,10.490194,4.426879,-0.7023655,9.747376,0.8159316
1409350302877,-3.9264908,9.5732155,3.3411086,-0.6494014,9.740626,0.9321446
1409350302900,-2.417545,8.087613,2.3594859,-0.5984394,9.737523,0.9964399
1409350302901,-1.2264298,7.2203135,2.40318,-0.5188935,9.740609,1.0107749
1409350302906,-0.47225627,6.5864487,2.3995886,-0.40750653,9.746861,1.0015042
1409350302935,0.45310268,6.8719573,2.1440077,-0.27059484,9.75395,0.9785894
1409350302936,1.7130513,8.006809,1.5819688,-0.118046045,9.760466,0.94328064
1409350302937,2.582745,8.7609825,0.90859956,0.04388236,9.765158,0.9000915
1409350302946,2.4971523,8.789114,0.16639702,0.20861141,9.766916,0.85684955
1409350302974,1.6885108,7.6943655,-0.5105635,0.35681736,9.765503,0.8234296
1409350302975,0.7757214,6.2339025,-0.4902128,0.4735302,9.761646,0.8101855
1409350302978,0.59974754,5.6922145,-0.022146367,0.5601296,9.755794,0.82530653
1409350302997,0.52492875,5.3863554,0.4441244,0.63659024,9.7484865,0.8556611
1409350302998,0.35254622,4.8027687,0.8870517,0.7029754,9.739283,0.9069733
1409350303006,0.25737667,4.565144,1.2198458,0.76383716,9.728701,0.96919584
1409350303028,0.22445641,4.4981065,1.3730747,0.81730175,9.71789,1.0320032
1409350303031,0.40521863,4.602853,1.3652935,0.8645629,9.707657,1.088264
1409350303054,0.7290344,4.945224,1.5502456,0.9709117,9.686645,1.181796
1409350303055,0.97144735,5.3743844,1.6184803,0.9709117,9.686645,1.181796
1409350303057,1.2246342,5.868787,1.6956934,0.9709117,9.686645,1.181796
1409350303084,1.3904326,6.5607114,1.809418,0.98945856,9.684441,1.184468
1409350303085,2.1775265,8.154053,2.7383683,0.9971293,9.6846485,1.1763158
1409350303086,2.8119898,8.821436,3.141791,0.999232,9.685193,1.1700369
1409350303123,3.4853592,9.519346,2.7287915,1.0015923,9.685907,1.1620706
1409350303124,3.6332011,10.3932295,2.030283,0.9983082,9.687933,1.1479212
1409350303126,3.727772,11.304822,1.6627731,0.9847515,9.692357,1.1219928
1409350303128,3.9366663,11.862072,2.0907366,0.95956326,9.698983,1.0859942
1409350303164,3.3722332,11.490971,2.861071,0.9280288,9.705083,1.0585527
1409350303166,2.9125464,11.382633,3.2070332,0.88810706,9.708883,1.057941
1409350303168,2.207454,12.547413,3.6541502,0.8480301,9.709728,1.0827769
1409350303202,0.8295909,13.757682,2.724003,0.813681,9.707342,1.129521
1409350303203,0.6919243,13.163321,0.6410475,0.7849134,9.704546,1.1730738
1409350303203,2.0398598,11.874641,-0.42916065,0.7843511,9.702998,1.1861744
1409350303204,3.8666358,10.659584,-0.58418524,0.81360376,9.700564,1.1863893
1409350303206,4.180875,9.23683,0.7062895,0.8972273,9.693397,1.1846724
1409350303227,4.787206,8.348581,3.0759506,1.0065923,9.680474,1.2023323
1409350303228,4.4801497,9.993398,6.8132997,1.1340742,9.662161,1.2356838
1409350303243,3.288436,15.078682,9.512762,1.2713591,9.637907,1.2902554
1409350303247,2.7204118,18.880674,5.9041014,1.3888304,9.609384,1.3788667
1409350303278,0.4842273,16.924013,2.7048495,1.4718124,9.590585,1.4229712
1409350303280,-3.015497,13.174095,-1.0151415,1.4988129,9.585126,1.4315495
1409350303293,-2.6132712,12.662334,-1.3281834,1.4711834,9.592648,1.4096584
1409350303295,-3.3734303,12.706028,-0.427365,1.4216511,9.60137,1.401071
1409350303327,-3.8989575,12.451046,-1.1133038,1.3332715,9.612661,1.4105102
1409350303328,-3.9151182,11.148601,-2.2062569,1.2289999,9.626691,1.4095346
1409350303331,-3.4344823,9.941922,-1.6208745,1.117056,9.643215,1.3895957
1409350303333,-2.5803509,9.809045,-0.7188591,1.0208683,9.656402,1.371912
1409350303353,-1.8351556,9.559449,0.044891283,0.94799036,9.664494,1.3672185
1409350303354,-0.7930793,8.555081,0.9235633,0.89757633,9.668575,1.3723766
1409350303359,0.4441244,7.9343843,1.5544355,0.8595973,9.671324,1.3772992
1409350303394,1.0648212,7.804499,1.8154035,0.81822616,9.675154,1.3756006
1409350303397,1.489792,8.03554,2.0925324,0.7681112,9.680422,1.3674209
1409350303398,1.9913772,8.39467,2.3894134,0.7094823,9.68665,1.3549265
1409350303416,2.0440497,8.884284,2.369661,0.6449804,9.693569,1.3375796
1409350303418,1.9818004,9.40203,2.0159178,0.57584345,9.70175,1.3095133
1409350303419,1.5861586,9.713276,1.3030443,0.5062803,9.710604,1.2721012
1409350303426,0.9056068,9.616311,0.38486794,0.43560869,9.721593,1.212963
1409350303451,0.12689269,9.275137,-0.25318682,0.3608671,9.734148,1.1342485
1409350303452,-0.4997896,8.959702,-0.8242039,0.27989724,9.746401,1.0486732
1409350303460,-1.3623008,8.751406,-1.6106992,0.197332,9.757089,0.9647077
1409350303474,-1.721431,9.184756,-1.3611037,0.116421856,9.765998,0.884376
1409350303490,-1.929128,9.767146,-0.7062895,0.045217793,9.772046,0.8218413
1409350303493,-1.6358383,9.970653,0.08379706,-0.015011618,9.774652,0.7914366
1409350303514,-1.2707225,9.362526,0.39803603,-0.06474658,9.773511,0.80292696
1409350303515,-0.8403648,8.930372,0.12988544,-0.11148308,9.769268,0.84816176
1409350303518,-0.3716998,8.913613,-0.18914193,-0.15831418,9.764043,0.8993418
1409350303526,-0.8062474,8.899846,-0.019752163,-0.21593134,9.758877,0.9423741
1409350303547,-0.6631939,8.835203,0.13347675,-0.29144067,9.754917,0.9628313
1409350303548,-0.64942724,8.602965,0.2669535,-0.3805717,9.751373,0.9676281
1409350303557,0.6452374,8.770559,-0.015562311,-0.48050475,9.746145,0.97577286
1409350303577,1.1330559,8.677784,0.3812766,-0.57586443,9.739013,0.99520004
1409350303598,1.8435353,8.746617,1.0073603,-0.66296065,9.729858,1.0299107
1409350303599,2.0679917,8.457518,1.4987702,-0.7363192,9.718838,1.082784
1409350303600,1.9333179,8.06008,1.678934,-0.8020738,9.704931,1.158184
1409350303606,1.6825253,7.809886,1.7154455,-0.8682621,9.687675,1.2511842
1409350303630,1.1845313,7.575853,1.5233108,-0.9379025,9.668488,1.3457702
1409350303632,0.7422025,7.2987237,1.0845734,-1.0136144,9.648241,1.4333332
1409350303640,0.6679823,7.234679,0.79607207,-1.0937179,9.628672,1.5042814
1409350303663,0.7942764,7.44896,0.97623575,-1.1737974,9.610676,1.5580451
1409350303665,0.66379243,7.578247,1.5113398,-1.2471745,9.594697,1.5989795
1409350303666,0.30825347,7.838018,2.095525,-1.3132443,9.5797,1.635578
1409350303678,-0.2873042,8.502409,2.1894975,-1.3734229,9.5641165,1.6768361
1409350303693,-0.9127894,9.430161,1.9255368,-1.4316604,9.54745,1.7224826
1409350303713,-0.6147113,10.189124,1.2707225,-1.4890715,9.531022,1.7642813
1409350303714,0.3800795,10.572795,0.3752911,-1.5396327,9.517693,1.7926103
1409350303718,1.8417397,10.897807,0.24839842,-1.5775027,9.50976,1.8017555
1409350303726,2.2780828,11.1096945,1.0588357,-1.5989469,9.505903,1.8032106
1409350303748,1.7591397,10.87626,2.2319946,-1.6141433,9.503935,1.8000518
1409350303749,1.3180081,10.469246,2.8712463,-1.634204,9.4988365,1.80883
1409350303759,0.78529817,10.402207,3.1172507,-1.6574591,9.4903755,1.8319353
1409350303784,0.36032736,10.761936,2.8700492,-1.6786959,9.482217,1.8547101
1409350303786,0.012569559,11.04146,2.6779146,-1.691153,9.480254,1.8534169
1409350303787,-0.11791443,10.842741,2.5617957,-1.6902106,9.48684,1.8202839
1409350303824,0.18016368,10.369886,1.9806033,-1.6718551,9.49974,1.7692455
1409350303825,0.6943185,10.03769,1.5999253,-1.6354873,9.516758,1.710818
1409350303826,0.22146365,9.400833,1.3126211,-1.5858397,9.537618,1.639917
1409350303829,-0.33279404,8.498817,0.50876784,-1.5375302,9.561367,1.5448759
1409350303846,-2.7389667,6.633734,-0.27234045,-1.495717,9.585549,1.4319503
1409350303847,-4.0827127,7.189788,-0.95708215,-1.4582801,9.610065,1.300171
1409350303859,-4.8398786,9.110536,-1.6041151,-1.4151624,9.635215,1.1533968
1409350303888,-5.4246626,12.119449,-1.1976994,-1.3611697,9.659869,1.0022675
1409350303890,-5.1666875,15.960946,-0.31184477,-1.2929455,9.681699,0.87371784
1409350303891,-3.506907,19.194914,-0.3238158,-1.200273,9.700758,0.79059124
1409350303912,-1.8255788,19.608511,-0.3345897,-1.061239,9.720709,0.7429544
1409350303913,-2.086547,19.068022,0.3357868,-0.8833289,9.740202,0.7201517
1409350303918,-2.135628,17.248428,1.5849615,-0.723353,9.753032,0.7249283
1409350303927,-1.5023615,14.696807,2.9831753,-0.5966216,9.758032,0.7715367
1409350303946,-1.666963,12.325949,4.19105,-0.4896812,9.756524,0.86073536
1409350303947,-2.4498668,11.134833,4.5352163,-0.39504027,9.750811,0.96749246
1409350303958,-3.342904,10.259753,3.566762,-0.32729578,9.74254,1.0705906
1409350303979,-3.271078,8.637083,2.3127987,-0.28070673,9.73713,1.1313268
1409350303980,-2.6689363,7.2873516,1.5532384,-0.2285648,9.737726,1.1379083
1409350303987,-2.1865046,7.071873,1.8477252,-0.15311375,9.742479,1.109534
1409350304008,-1.0199299,6.941389,2.3666685,-0.053878076,9.747293,1.0759917
1409350304009,-0.15263036,6.640917,2.4486697,0.07045229,9.750089,1.0493832
1409350304030,1.055843,7.487866,1.3988123,0.20942743,9.75068,1.0250726
1409350304031,2.6222494,8.950125,0.6721721,0.35492894,9.749366,0.99713284
1409350304038,2.0081367,7.9726915,0.01616086,0.5025889,9.745223,0.97386754
1409350304057,1.2431892,6.59004,-0.11851298,0.61994743,9.740196,0.95637035
1409350304059,0.97384155,6.063316,0.19632454,0.71598446,9.733403,0.95844346
1409350304071,0.7080852,5.829881,0.47465047,0.78692496,9.725621,0.9815395
1409350304086,0.3776853,5.581483,0.6512229,0.8449145,9.7165575,1.0222558
1409350304087,0.0011971008,5.3845596,0.7990648,0.896614,9.706328,1.0740926
1409350304101,-0.08319851,5.3486466,0.93852705,0.9416404,9.695559,1.1313082
1409350304107,0.08798691,5.2822075,1.1115081,0.98022294,9.684828,1.188975
1409350304119,0.33877954,5.331289,1.2629414,1.0119317,9.674895,1.2420908
1409350304138,0.62368953,5.6000376,1.4927847,1.0361537,9.666414,1.2873346
1409350304139,0.90500826,5.951387,1.8219875,1.0532126,9.659736,1.3231242
1409350304154,1.2425907,6.4164605,2.231396,1.0633625,9.654948,1.3496708
1409350304159,1.7597382,7.252037,2.532467,1.071329,9.65089,1.3722134
1409350304177,2.2146366,8.107366,2.6084828,1.0711936,9.649092,1.3848985
1409350304181,2.8083985,8.706514,2.5234885,1.0630155,9.650241,1.383202
1409350304187,3.116652,8.970475,2.493561,1.0471181,9.65464,1.3644943
1409350304211,3.3686419,9.427169,2.327164,1.0220658,9.661694,1.3332146
1409350304212,3.7056258,10.891224,2.4115596,0.98897827,9.670376,1.2946664
1409350304219,4.4035354,11.470022,2.1033063,0.9523693,9.678636,1.2599218
1409350304242,4.1611223,11.21444,2.421735,0.9210286,9.684938,1.2345307
1409350304245,2.9843724,11.34253,2.8688521,0.89085585,9.688739,1.2268205
1409350304264,1.2132617,12.0727625,3.229778,0.8561449,9.691026,1.2334725
1409350304265,1.0067618,13.032837,1.9375077,0.81659895,9.6925745,1.248021
1409350304267,2.1284454,12.800599,0.4309563,0.7847271,9.69517,1.2483147
1409350304297,3.643975,11.909358,-0.33997664,0.79467416,9.697211,1.2259705
1409350304297,4.9296613,10.885238,0.08738836,0.8559243,9.696354,1.191005
1409350304301,7.227496,9.966463,1.8363527,0.95947164,9.689329,1.1690583
1409350304307,5.109226,9.241618,5.786187,1.1070863,9.672722,1.1760956
1409350304324,3.845088,12.939463,8.471284,1.2383769,9.651285,1.2204481
1409350304345,3.1615434,18.356943,6.2883706,1.3532532,9.626566,1.2916356
1409350304346,1.3359646,19.02313,2.297835,1.4444883,9.607569,1.3336017
1409350304347,-1.6801311,16.125547,1.5167267,1.4925276,9.600382,1.3324553
1409350304378,-4.1174283,13.740324,-0.09816227,1.4856989,9.60048,1.3393573
1409350304380,-3.9618053,11.900379,-1.7657237,1.430455,9.606593,1.3555647
1409350304381,-3.7163997,11.124659,-1.3413515,1.3652546,9.612511,1.3806112
1409350304387,-4.018069,11.303625,-0.9175778,1.2750796,9.618122,1.4269812
1409350304411,-3.6715083,10.694899,-2.2134395,1.1659291,9.627595,1.456167
1409350304412,-2.6372132,10.21965,-1.1318588,1.066438,9.640819,1.4448934
1409350304419,-1.4640543,9.315839,0.22984336,0.99384445,9.650585,1.4313931
1409350304449,-0.43754035,7.9595237,1.2108675,0.9479344,9.654272,1.4376553
1409350304451,0.39983168,7.095815,1.6980876,0.9146966,9.654578,1.4570063
1409350304452,0.94810385,7.132327,1.9734207,0.8780821,9.656035,1.469823
1409350304461,1.2006922,7.6931686,2.259528,0.8320628,9.66066,1.4661841
1409350304484,1.34195,8.814254,2.457648,0.7771958,9.668545,1.4441559
1409350304485,1.447295,9.855731,2.5049336,0.7170686,9.677445,1.4153626
1409350304487,1.4437037,9.747394,2.010531,0.6527604,9.688425,1.3706588
1409350304511,1.0085574,9.536105,0.9504981,0.58597946,9.700526,1.3140718
1409350304512,0.21547815,9.556456,-0.04369418,0.51676553,9.7140045,1.2415515
1409350304519,-0.5434838,9.49301,-0.6278794,0.44288456,9.728922,1.1499252
1409350304541,-1.2964603,9.135675,-1.0133458,0.3662731,9.743285,1.0510145
1409350304543,-2.047641,8.565855,-1.4939818,0.29360804,9.755142,0.9598809
1409350304560,-2.1799207,8.395866,-1.6214731,0.22758996,9.764446,0.8798817
1409350304561,-1.9033904,8.808268,-1.2395979,0.17215861,9.77123,0.8147663
1409350304567,-1.359308,9.73662,-0.31423897,0.12978034,9.77528,0.77293384
1409350304597,-0.43514615,10.308235,0.41599256,0.096964076,9.776378,0.76382655
1409350304598,-0.3716998,8.982447,0.31483752,0.07034597,9.775794,0.7741594
1409350304600,-0.37588966,8.533533,0.14544775,0.03170604,9.773189,0.80880624
1409350304607,-0.05865794,8.576629,0.13706805,-0.03095975,9.769902,0.847609
1409350304631,0.2681506,8.661025,0.42197806,-0.11557324,9.7675,0.8677376
1409350304632,0.52133745,8.277354,0.33638534,-0.21362711,9.765826,0.8679915
1409350304639,0.50876784,8.051102,0.3369839,-0.32047498,9.763122,0.8655352
1409350304667,1.2204443,8.119935,0.49320555,-0.436322,9.757388,0.8794336
1409350304668,1.5957354,8.605958,0.9271546,-0.54942036,9.748347,0.91558385
1409350304669,1.5682021,8.665813,1.2282255,-0.64954466,9.736647,0.9727198
1409350304703,1.448492,8.503007,1.401805,-0.7355463,9.722557,1.0494097
1409350304704,1.1121067,8.3390045,1.4335283,-0.81293005,9.706492,1.137339
1409350304705,0.8858546,8.126519,1.5185224,-0.8890958,9.686986,1.2418435
1409350304707,0.7966706,7.943961,1.4107834,-0.96055764,9.665246,1.3530482
1409350304727,1.0253168,7.855974,1.1552023,-1.027546,9.643479,1.4552897
1409350304729,1.3275849,7.94037,1.1127052,-1.0882348,9.623757,1.5392956
1409350304739,1.4437037,8.403648,1.4796166,-1.1388286,9.60775,1.6014324
1409350304764,1.4718355,8.871116,2.3301568,-1.176821,9.595039,1.6494595
1409350304764,1.1737574,9.316438,2.8089972,-1.2039042,9.583209,1.6979748
1409350304768,0.7577648,9.576208,2.4271219,-1.228785,9.570166,1.7528234
1409350304797,1.4347254,9.596559,0.65780693,-1.2581347,9.556666,1.8048935
1409350304798,2.48159,9.775525,0.25558102,-1.287695,9.547525,1.8322122
1409350304799,2.7132292,9.889849,0.6751649,-1.3108584,9.541763,1.8457478
1409350304807,2.3750482,10.158598,1.3120226,-1.3361174,9.5388,1.8429555
1409350304830,1.6023195,10.433931,1.8477252,-1.3658595,9.536273,1.8342108
1409350304831,0.6500258,10.56681,2.1643584,-1.4000818,9.532314,1.828968
1409350304842,-0.2789245,10.6954975,1.8441339,-1.4366659,9.527191,1.8273002
1409350304872,-0.7266402,10.682329,1.3162124,-1.4756004,9.523151,1.8173039
1409350304873,-0.9151836,10.565612,1.4933833,-1.5113059,9.523648,1.785066
1409350304874,-0.8475474,10.129269,1.560421,-1.5368532,9.529567,1.730849
1409350304893,-0.7380127,9.500193,1.555034,-1.543376,9.539313,1.670295
1409350304894,-0.7350199,8.815451,1.903989,-1.5273248,9.551491,1.614532
1409350304903,-1.1504139,8.178593,1.6968905,-1.4945524,9.566737,1.5537875
1409350304908,-1.5388732,7.462128,1.0462662,-1.4607788,9.583613,1.4801662
1409350304932,-2.6928782,6.863578,0.45190558,-1.4158419,9.605058,1.3815383
1409350304933,-4.1413703,7.2699933,-0.2681506,-1.3623347,9.629635,1.258803
1409350304939,-5.263054,9.052477,-1.0767922,-1.3025931,9.655111,1.1191334
1409350304967,-5.695806,12.016499,-1.2425907,-1.2345062,9.679487,0.9766868
1409350304968,-4.2538977,15.883733,-1.3820529,-1.1507814,9.700995,0.85835874
1409350304969,-3.108871,19.608511,-2.3169887,-1.0266166,9.72196,0.77456796
1409350304999,-3.8097734,19.608511,-2.1577742,-0.8680926,9.742909,0.7018063
1409350305000,-3.8133647,18.872894,-0.3812766,-0.7263783,9.757818,0.6540113
1409350305001,-2.4666264,14.933234,2.0991163,-0.61378145,9.764888,0.6637963
1409350305009,-2.124854,11.259931,4.124611,-0.5098978,9.765906,0.7331254
1409350305029,-3.0573955,9.936536,4.9458222,-0.41085127,9.759508,0.86811197
1409350305030,-3.6661212,9.242217,4.091092,-0.33884338,9.746716,1.0281532
1409350305039,-3.4356794,7.880515,2.4504654,-0.28600273,9.73423,1.1547151
1409350305060,-3.0184898,7.7769656,2.0500352,-0.2222859,9.728482,1.2155808
1409350305061,-1.4802152,7.454347,2.2822728,-0.13086684,9.728761,1.2265826
1409350305067,-0.5919664,6.3763576,2.5001452,-0.0013986924,9.730902,1.2165228
1409350305099,0.32680854,6.2315083,2.3822308,0.15134181,9.732191,1.1966319
1409350305099,2.078167,7.908048,1.9315223,0.3108686,9.7321005,1.1661723
1409350305100,3.1723173,8.986037,1.3389573,0.47767448,9.729523,1.130747
1409350305124,2.7030537,8.503606,0.39504328,0.6393587,9.723898,1.0988258
1409350305126,1.8950106,7.064092,-0.20709845,0.78088987,9.71686,1.0692104
1409350305127,1.5233108,6.1938,0.044292733,0.88107675,9.70963,1.0569642
1409350305139,1.3868413,5.805341,0.57999533,0.95276546,9.701472,1.0696106
1409350305165,0.736217,4.991312,0.99419224,1.014265,9.691048,1.1069027
1409350305166,0.44711718,4.835689,1.1988965,1.070392,9.678817,1.1598119
1409350305168,0.2861071,4.9745526,1.4257472,1.1235833,9.66594,1.2155513
1409350305198,0.19871874,5.2139726,1.5149311,1.1738865,9.653309,1.2672887
1409350305198,0.40222588,5.5180364,1.4706384,1.2209069,9.641349,1.3130809
1409350305199,0.8948329,5.8334723,1.4341269,1.263802,9.630746,1.3497802
1409350305221,1.2360066,6.1010246,1.6274586,1.3009833,9.622317,1.3743502
1409350305222,1.9602526,6.715137,2.0500352,1.3294724,9.616827,1.3854802
1409350305242,2.753332,7.5704656,2.2720973,1.3571092,9.612202,1.3907762
1409350305242,3.4703953,8.429385,2.2523453,1.3783083,9.610363,1.3826045
1409350305247,4.0282445,9.107543,2.3289597,1.3929818,9.611299,1.3612313
1409350305282,4.353257,9.507974,2.4797945,1.3968282,9.614829,1.332031
1409350305282,4.7261543,10.052056,2.4881742,1.3852077,9.620684,1.3015441
1409350305283,5.0146556,10.623672,2.7287915,1.3592136,9.628102,1.2738044
1409350305287,4.727351,10.799645,2.9442697,1.3219688,9.636007,1.2530546
1409350305324,4.258686,10.6637745,3.2196028,1.2716852,9.644102,1.2427871
1409350305326,3.5889084,9.944317,3.2243912,1.2132385,9.651103,1.2468704
1409350305328,2.022502,10.015544,3.6182373,1.1544516,9.656211,1.2630274
1409350305329,-0.13467385,12.882002,3.90614,1.0942684,9.65858,1.2980003
1409350305340,1.2773066,12.889185,0.34237084,1.016537,9.660363,1.3470154
1409350305377,2.8892028,12.603676,-0.2645593,0.99089855,9.6605625,1.3645563
1409350305380,4.4795513,11.376648,0.93373865,1.0339745,9.655882,1.3657464
1409350305381,5.245097,10.251971,4.593276,1.134783,9.641985,1.3837587
1409350305382,3.2788591,12.819753,8.783728,1.2683902,9.615032,1.453533
1409350305388,3.1854854,18.262371,7.8709383,1.3946198,9.578422,1.5745648
1409350305409,1.2677298,19.125483,3.2956185,1.5147946,9.545601,1.6605055
1409350305410,-2.146402,16.753426,1.8860323,1.6036893,9.533483,1.6465886
1409350305419,-3.3063924,13.914502,0.5057751,1.6323867,9.534684,1.6110632
1409350305440,-2.0368671,11.320384,-0.16579847,1.6230493,9.538382,1.5985608
1409350305442,-1.7393875,8.969278,1.6364368,1.616517,9.536194,1.6181066
1409350305447,-1.9620483,8.144476,2.7551277,1.5857238,9.527736,1.696501
1409350305472,-2.130241,8.114548,1.714847,1.5250217,9.5229025,1.777367
1409350305473,-1.9195513,8.200141,-0.23283611,1.4500427,9.529097,1.8066769
1409350305487,-1.7202339,8.522161,-1.1025299,1.3794565,9.544846,1.7785945
1409350305488,-1.4024036,9.269152,-1.2108675,1.322718,9.563384,1.7211869
1409350305512,-1.2880806,10.231621,-1.3389573,1.2828914,9.580474,1.655022
1409350305513,-1.4095862,10.521918,-1.1647792,1.2493054,9.597364,1.5812159
1409350305519,-0.5231331,10.294469,-0.88405895,1.2079566,9.61524,1.5027968
1409350305545,0.59615624,10.666168,-0.729633,1.1608158,9.633034,1.4239194
1409350305546,0.4369418,10.521918,-0.23403321,1.1077473,9.650059,1.3489425
1409350305548,0.42317516,9.662998,0.20530279,1.0443834,9.665663,1.2863168
1409350305569,0.42078096,9.156026,0.28550854,0.96954787,9.678564,1.247305
1409350305570,0.26036942,9.205706,0.47165772,0.88501394,9.6893835,1.2259663
1409350305586,0.09995792,9.263765,0.66498953,0.79724616,9.699938,1.2025007
1409350305588,-0.22266077,8.992023,0.6655881,0.7083715,9.711295,1.1659119
1409350305600,-0.5141548,8.552687,0.4938041,0.61787933,9.722623,1.1221533
1409350305620,-0.74998367,7.967903,-0.0047884034,0.527974,9.732722,1.0796962
1409350305622,-0.9516952,7.602189,-0.51595044,0.4428383,9.741202,1.0408003
1409350305643,-1.0642227,7.795521,-0.7080852,0.36731955,9.748328,1.0027891
1409350305644,-1.0684125,8.595782,-0.6183026,0.3055702,9.754329,0.9644268
1409350305649,-0.5955577,9.588778,0.012569559,0.25614038,9.759368,0.92711264
1409350305671,-0.15741876,10.01315,0.52373165,0.21422878,9.762432,0.9052131
1409350305672,0.10414778,9.599552,0.46686932,0.1758168,9.762658,0.91103417
1409350305684,0.10474633,9.138668,0.1945289,0.12844624,9.760865,0.9377758
1409350305688,0.25857377,9.26556,-0.23642741,0.060114864,9.75935,0.9601391
1409350305700,0.41240123,9.628283,-0.40282443,-0.025502691,9.760116,0.95389074
1409350305718,0.40043023,9.730635,-0.31483752,-0.1195698,9.76233,0.9235929
1409350305719,1.5466543,8.868123,-0.20470424,-0.21954109,9.763405,0.89338714
1409350305734,1.7190368,8.625112,0.089184016,-0.31257063,9.761644,0.884861
1409350305751,1.8764555,8.693346,0.51834464,-0.39833114,9.75655,0.9063444
1409350305752,1.839944,8.854357,1.0767922,-0.4741294,9.748102,0.95922256
1409350305769,1.8764555,9.001001,1.6717514,-0.5448917,9.737268,1.0291203
1409350305769,1.4796166,8.8088665,1.8926164,-0.6102192,9.722409,1.1281732
1409350305784,1.1426327,8.429385,1.6950948,-0.6807317,9.703213,1.2468696
1409350305788,0.93373865,7.961319,1.0169371,-0.7634933,9.6808815,1.3667533
1409350305804,1.1312603,7.829638,0.58418524,-0.86034024,9.658346,1.4651096
1409350305815,1.3497312,7.8888946,0.6380547,-0.96317065,9.637948,1.5338438
1409350305819,1.2779051,8.106169,1.0911574,-1.0569959,9.620685,1.5797421
1409350305833,1.1216835,8.277952,2.15957,-1.1337855,9.60504,1.6211604
1409350305859,0.78290397,8.2169,2.5647886,-1.1941202,9.587936,1.6780795
1409350305860,0.2705448,8.123527,2.456451,-1.2464445,9.568831,1.7476462
1409350305863,0.0017956513,8.205527,2.0398598,-1.2980571,9.549994,1.811915
1409350305868,0.61291564,8.243237,1.0031705,-1.3510126,9.532278,1.8657007
1409350305890,1.8297687,8.324639,-0.05805939,-1.3973106,9.520047,1.8938432
1409350305891,2.8245595,8.917204,-0.20290859,-1.4314003,9.515037,1.893557
1409350305899,1.483208,10.331579,1.9644425,-1.4508113,9.515998,1.8738489
1409350305922,0.50996494,10.644022,2.4827871,-1.4735472,9.513946,1.8665184
1409350305923,-0.46028528,10.890026,2.528277,-1.5015647,9.508273,1.8730826
1409350305928,-1.0342951,11.155783,2.5474305,-1.5334301,9.501547,1.8813779
1409350305966,-1.2318168,10.973824,2.6282349,-1.564253,9.497924,1.8742807
1409350305968,-0.8391677,10.51713,2.3211784,-1.587849,9.499474,1.846387
1409350305969,-0.04369418,10.354323,2.4702177,-1.5906086,9.507516,1.8020797
1409350305970,0.33758244,10.621277,3.0095115,-1.5625092,9.520773,1.7560824
1409350305994,-0.04309563,10.531495,2.1452048,-1.5211458,9.53602,1.7090428
1409350305996,-0.99898064,9.867104,0.7278373,-1.4707284,9.555573,1.6426802
1409350306000,-1.8842367,8.872911,-0.019752163,-1.4247333,9.57888,1.5445293
1409350306022,-2.854487,8.112753,-0.7727286,-1.3790799,9.605467,1.415466
1409350306023,-3.4620156,8.5622635,-1.804031,-1.3269076,9.634202,1.2616884
1409350306028,-3.9372647,10.325593,-2.243367,-1.260464,9.663554,1.0942401
1409350306067,-4.335301,12.905346,-1.6406267,-1.1749022,9.690639,0.9389044
1409350306068,-3.8630445,16.076466,-0.79128367,-1.0695754,9.712854,0.8287604
1409350306069,-3.2441432,18.931551,-0.59974754,-0.9372596,9.730787,0.77699393
1409350306070,-2.9454668,19.607315,-0.3465607,-0.78096884,9.745549,0.76468575
1409350306095,-3.0472202,18.422783,0.9259575,-0.62148225,9.756369,0.7729209
1409350306096,-1.3634979,12.436681,4.3041763,-0.48484033,9.759584,0.8281554
1409350306100,-0.91937345,9.977836,5.2037973,-0.35240412,9.75399,0.9517788
1409350306119,-1.3754689,9.488221,5.443816,-0.23511891,9.741996,1.0993744
1409350306120,-3.4368765,9.636662,4.259285,-0.14397222,9.726667,1.2416251
1409350306137,-4.167108,8.527548,2.653374,-0.09480649,9.714125,1.3405871
1409350306153,-3.5571852,8.330027,1.9129672,-0.06227924,9.709879,1.3728642
1409350306154,-2.3971944,8.194754,1.5801731,-0.011547632,9.713656,1.3472602
1409350306168,-1.0929531,7.801506,1.4826094,0.082128376,9.721344,1.2880671
1409350306170,-0.30346507,7.314286,1.2862848,0.21545212,9.728332,1.2180142
1409350306206,1.2258313,8.911219,1.0378864,0.36618668,9.732138,1.1496958
1409350306207,2.3265655,10.655993,0.6775591,0.5276815,9.732342,1.0832577
1409350306209,1.8962077,10.426748,-0.37948096,0.6967636,9.728161,1.0236199
1409350306209,0.81163436,8.611943,-1.2312182,0.8470745,9.721471,0.97255576
1409350306221,0.45789108,7.359776,-0.88405895,0.955926,9.714637,0.93937695
1409350306245,0.26874915,6.673837,-0.23882163,1.0331719,9.707149,0.93501115
1409350306247,0.17417817,5.9926867,0.3513491,1.0960363,9.697568,0.9624452
1409350306249,0.36391866,5.781399,0.9959879,1.154623,9.685435,1.0146745
1409350306281,0.587178,5.609016,1.4173675,1.2108756,9.671375,1.0810622
1409350306282,0.8631097,5.514445,1.6932992,1.2645762,9.656136,1.1533749
1409350306283,1.328782,5.872977,2.011728,1.3137687,9.640838,1.2242042
1409350306306,1.483208,6.1106014,2.059612,1.3583536,9.62629,1.2883382
1409350306313,1.5514427,6.1650696,1.9333179,1.3998449,9.6124525,1.3459502
1409350306314,1.6448165,6.2979474,1.8752584,1.4312929,9.601772,1.3884315
1409350306321,1.7782934,6.395511,1.8890251,1.451915,9.595127,1.4127477
1409350306360,1.6795325,6.4218473,2.2026656,1.461642,9.59255,1.4202063
1409350306362,2.0272903,6.752846,2.1517887,1.4587566,9.59359,1.4161475
1409350306363,2.4289176,7.2610154,2.055422,1.4441355,9.597992,1.4012167
1409350306380,2.8868086,7.8865004,2.106299,1.4170209,9.605394,1.3779805
1409350306381,3.0388405,8.562862,2.456451,1.3782624,9.614642,1.3525821
1409350306381,3.721188,9.634866,2.4349031,1.3272797,9.624212,1.3353846
1409350306416,3.9456444,10.338163,2.629432,1.2738146,9.632555,1.3272718
1409350306418,3.7163997,10.47164,2.825158,1.2218093,9.639597,1.3250484
1409350306419,3.7098155,9.8515415,2.835932,1.1644968,9.645428,1.3341916
1409350306448,2.2996306,10.041881,3.3087866,1.1109005,9.649755,1.3485315
1409350306449,0.37110126,12.495338,3.8935704,1.0569595,9.653118,1.3676759
1409350306449,0.25019407,14.189835,2.5510218,0.9949416,9.65555,1.3967323
1409350306450,0.7565677,13.570933,0.7038953,0.95485103,9.657647,1.4101397
1409350306467,2.3948002,12.901754,-0.17238252,0.9605009,9.659033,1.3967446
1409350306469,5.0583496,9.749788,2.5671828,1.0165371,9.655496,1.3814602
1409350306483,5.6724625,10.471041,6.5068417,1.1190777,9.6391535,1.4159058
1409350306502,4.3358994,15.42225,9.408614,1.2506474,9.610368,1.4990408
1409350306502,4.470573,19.608511,5.565322,1.383175,9.572952,1.6173512
1409350306521,0.6075287,19.079393,0.79367787,1.5174828,9.545202,1.6603495
1409350306523,-2.818574,15.838243,0.0035913025,1.5922503,9.539074,1.6251801
1409350306528,-3.3279405,12.917316,-0.9175778,1.6190754,9.541333,1.5849171
1409350306551,-2.5929205,10.319608,-0.6548142,1.6213837,9.544806,1.5614713
1409350306552,-2.8449101,8.406641,1.5263035,1.6109935,9.539834,1.6020793
1409350306566,-3.0292637,7.5351515,2.1278467,1.5721806,9.529357,1.7000055
1409350306569,-2.8395233,7.3226657,0.85532856,1.5067072,9.522827,1.7933203
1409350306582,-2.5881321,7.2831616,0.2669535,1.4375805,9.525257,1.8366348
1409350306597,-2.4420857,7.701548,0.034117375,1.3814564,9.534149,1.8335619
1409350306600,-2.396596,8.820239,0.17238252,1.3411142,9.546078,1.8011693
1409350306610,-1.8531121,9.655217,0.29867667,1.3068327,9.559231,1.7560453
1409350306632,-0.33518824,10.044274,0.31004912,1.2734301,9.574213,1.6980128
1409350306632,1.0247183,10.253169,0.19093758,1.2393987,9.590822,1.6280088
1409350306662,1.4670471,10.655993,0.095169514,1.2001427,9.609143,1.5473948
1409350306663,1.3784616,11.017518,0.55605334,1.1484011,9.62883,1.4619145
1409350306664,1.228824,10.87207,0.65541273,1.083658,9.647663,1.385157
1409350306673,0.9008184,10.927136,0.7015011,1.0118426,9.664908,1.3176161
1409350306704,0.49320555,11.1174755,0.7565677,0.9347048,9.681308,1.252594
1409350306705,0.18794483,10.907983,0.760159,0.85048056,9.697525,1.1853547
1409350306707,-0.108936176,10.149021,0.36152446,0.76226217,9.712348,1.1223302
1409350306709,-0.3728969,9.176376,-0.38606504,0.6755128,9.724612,1.0705222
1409350306736,-0.6619968,8.533533,-0.9283517,0.590285,9.73519,1.0237199
1409350306737,-1.0642227,8.508394,-0.85293436,0.5095489,9.743766,0.9847747
1409350306744,-1.1186907,8.916606,-0.39863458,0.43280733,9.750971,0.94954085
1409350306750,-0.66858083,9.733028,0.15322891,0.36599165,9.756384,0.9216473
1409350306777,-0.30226797,9.865907,0.5566519,0.31349736,9.7593,0.91003346
1409350306778,-0.108337626,9.417592,0.75836337,0.26757607,9.759415,0.92336947
1409350306781,-0.49919105,8.513782,0.36032736,0.21333916,9.757396,0.95819485
1409350306815,-0.7254431,7.9421654,-0.15442601,0.13595921,9.755549,0.9905319
1409350306817,-0.57400984,8.273763,-0.12090719,0.035198197,9.755636,0.99835455
1409350306818,-0.3705027,8.504803,0.061052144,-0.08030376,9.75713,0.98099756
1409350306847,-0.36391866,8.079832,0.12270284,-0.20426992,9.757839,0.95562696
1409350306848,-0.06584055,7.877522,0.12509704,-0.33307794,9.756357,0.93431556
1409350306849,0.59615624,8.188768,0.59495914,-0.4624003,9.751498,0.92998195
1409350306850,0.8343793,8.113351,0.9588778,-0.57789505,9.743497,0.94905365
1409350306873,1.01574,8.087015,1.3946224,-0.67668414,9.733136,0.98922676
1409350306873,0.86490536,7.9870567,1.5478514,-0.7621741,9.720355,1.050792
1409350306885,0.6380547,7.9146323,1.3802572,-0.8407955,9.705021,1.129612
1409350306909,0.6937199,7.9278,0.97144735,-0.9196919,9.687809,1.212813
1409350306910,0.8283938,8.180987,0.5847838,-0.9999113,9.670844,1.2827181
1409350306912,1.18094,8.661623,0.50038815,-1.0799502,9.655726,1.3308156
1409350306938,1.5005659,9.169792,0.65301853,-1.1516932,9.643237,1.3608739
1409350306939,1.6406267,9.554062,0.89184016,-1.2080489,9.632545,1.3874713
1409350306945,1.6035166,9.609129,1.2366052,-1.2539166,9.622418,1.4167484
1409350306949,1.4137762,9.497798,2.285864,-1.2915045,9.611304,1.4578209
1409350306970,0.8499416,9.049484,2.6743233,-1.3278087,9.597001,1.5181911
1409350306970,0.21667525,8.91062,2.2188265,-1.3709186,9.579835,1.5867399
1409350306981,0.033518825,9.012374,1.7788919,-1.4198322,9.562519,1.6470263
1409350306999,0.9780314,9.382876,0.9696517,-1.4663275,9.547219,1.6943778
1409350307029,1.9387048,9.576208,0.56682724,-1.4982889,9.536457,1.7267046
1409350307030,2.2230163,9.957485,1.1013328,-1.5157477,9.52996,1.7472141
1409350307031,1.2910733,10.320207,1.8632874,-1.5253257,9.525315,1.7641282
1409350307032,-0.1412579,10.675745,2.368464,-1.53844,9.519312,1.7850245
1409350307055,-0.86849666,10.775703,2.6234465,-1.5601696,9.51137,1.808336
1409350307056,-1.5544355,10.510546,2.734777,-1.5788634,9.504689,1.8271459
1409350307065,-1.3275849,10.026319,2.2349873,-1.5950373,9.500999,1.8322873
1409350307080,-0.59256494,9.844358,1.8004397,-1.5966666,9.503336,1.8186989
1409350307082,0.15502456,9.775525,1.9662381,-1.5706089,9.513262,1.7892547
1409350307096,0.28550854,9.178771,1.6196774,-1.5173224,9.530448,1.7431793
1409350307125,-0.5919664,8.283937,0.79248077,-1.4547888,9.553284,1.6699591
1409350307127,-1.2838906,7.499837,-0.2100912,-1.3952143,9.579939,1.5647855
1409350307128,-2.3570917,6.869563,-0.9187749,-1.3309554,9.609328,1.4351919
1409350307130,-3.288436,7.2622123,-1.6376339,-1.2590362,9.639535,1.2901837
1409350307158,-4.355053,8.98903,-2.0871453,-1.181594,9.668538,1.1373754
1409350307159,-4.970961,11.774684,-1.780089,-1.1090744,9.694199,0.98124903
1409350307162,-5.2798133,15.420455,-1.3132197,-1.0322512,9.715056,0.8500127
1409350307196,-4.0503907,18.876484,-1.6310499,-0.9463287,9.731396,0.7581534
1409350307197,-2.8377275,19.608511,-1.2605472,-0.82499164,9.747275,0.6931294
1409350307197,-2.4929626,19.114708,0.25198972,-0.672563,9.7612295,0.66064984
1409350307204,-2.980781,16.725893,2.5582044,-0.5296626,9.768696,0.68000716
1409350307232,-2.409764,14.041993,4.2622776,-0.4226339,9.767376,0.76821053
1409350307233,-1.6136919,10.609905,5.397129,-0.32912922,9.759726,0.8998999
1409350307237,-2.1404164,10.193314,4.453215,-0.2402567,9.748944,1.0347688
1409350307264,-2.509722,9.427169,3.2854433,-0.17215352,9.739838,1.1297417
1409350307265,-1.8423382,8.426393,2.44029,-0.11648155,9.733343,1.1911511
1409350307266,-1.1695676,8.166023,2.268506,-0.055930417,9.733061,1.197823
1409350307291,0.15203181,8.234259,2.1853075,0.026891002,9.736635,1.1694422
1409350307299,1.3060371,8.344392,2.0362685,0.14416294,9.740875,1.1247002
1409350307300,1.6543933,8.117541,1.7369933,0.28988513,9.743329,1.0741872
1409350307328,2.3169887,8.938153,1.5275006,0.44475156,9.743024,1.0227755
1409350307330,3.122039,9.880871,0.9888053,0.59681123,9.739686,0.97608423
1409350307331,1.7878702,8.35337,0.29209262,0.7408508,9.733266,0.94077873
1409350307332,1.0935516,6.851008,-0.011372458,0.85025513,9.725796,0.9253757
1409350307355,1.2210429,6.427833,0.37349546,0.9250083,9.718151,0.9339538
1409350307356,1.2617443,6.3368535,0.6913257,0.9861982,9.708755,0.96845794
1409350307362,1.103727,5.865794,0.6769605,1.0462372,9.697664,1.0154214
1409350307381,0.80325466,5.207389,0.62488663,1.1046256,9.684529,1.0770766
1409350307382,0.7703344,5.063138,0.943914,1.157806,9.670714,1.1433167
1409350307402,0.7134721,5.139154,1.2898762,1.2065388,9.656584,1.2104042
1409350307403,0.81343,5.294777,1.5825673,1.252302,9.642467,1.274738
1409350307410,0.96187055,5.7784057,1.8201919,1.2944634,9.629261,1.3311998
1409350307439,1.074398,5.969942,1.7340006,1.3296819,9.618389,1.3743771
1409350307441,1.2707225,6.194997,1.7226281,1.3557018,9.611112,1.3996553
1409350307442,1.6005238,6.4404025,1.6885108,1.3705256,9.608192,1.4052373
1409350307450,1.9907787,6.7708025,1.6861166,1.37412,9.609719,1.3912207
1409350307474,2.0913353,7.1748238,1.9027919,1.3664567,9.614834,1.3631387
1409350307475,2.473809,7.8625584,1.8836381,1.3519738,9.621236,1.3320582
1409350307485,3.0298622,8.884883,1.9339164,1.323872,9.630203,1.2949737
1409350307506,2.9765913,9.829395,2.5360582,1.2840593,9.640813,1.2555141
1409350307507,3.163339,10.937312,3.0113072,1.2301632,9.651924,1.2237126
1409350307510,2.9346926,11.319187,3.4243069,1.1671195,9.662278,1.20358
1409350307544,4.1503487,11.159374,2.883816,1.09852,9.671174,1.1966822
1409350307545,2.4037786,9.80665,3.0933087,1.0470535,9.677661,1.190368
1409350307546,-0.0688333,12.382213,3.8618474,0.9839659,9.684879,1.1854566
1409350307549,-0.6877344,14.574703,3.2728736,0.8968792,9.692492,1.192316
1409350307566,-0.48602295,14.411299,1.2156559,0.820744,9.697792,1.2040002
1409350307585,0.78290397,13.966576,-0.5267244,0.79589903,9.700808,1.1963668
1409350307589,2.9819782,12.987946,-0.54647654,0.807837,9.702079,1.1779095
1409350307590,5.0236335,11.456854,6.721721,0.88129544,9.694915,1.1841995
1409350307624,3.9175124,16.557102,6.811504,1.0042088,9.668567,1.2964491
1409350307624,4.1515455,19.608511,3.0125043,1.1398575,9.636753,1.4156669
1409350307625,-0.47225627,19.058445,1.7723078,1.2962657,9.612154,1.4479533
1409350307630,-2.7742813,15.922638,0.89782566,1.3915501,9.602486,1.4234637
1409350307656,-2.303222,12.508507,-0.9911995,1.4443825,9.599773,1.3887091
1409350307657,-1.2180501,9.646238,-0.06584055,1.4737818,9.594092,1.3970405
1409350307662,-1.0851719,7.316082,2.6390088,1.4820861,9.579361,1.4864937
1409350307691,-1.0007763,6.3141084,3.608062,1.458698,9.561005,1.6216625
1409350307692,-1.0127473,6.029797,2.4235306,1.4239118,9.543381,1.7512081
1409350307693,-0.8948329,5.7496753,1.7543513,1.37063,9.537317,1.8251945
1409350307725,-0.7739257,6.22672,1.2443863,1.3199835,9.543092,1.8323351
1409350307726,-0.81283146,7.5148005,0.63087213,1.2840066,9.555062,1.7951308
1409350307728,-0.7254431,8.6257105,0.11252748,1.2629762,9.569797,1.7303975
1409350307730,-0.23822308,9.585785,-0.09636662,1.2453297,9.587592,1.6424501
1409350307763,0.52971715,10.594941,-0.42078096,1.2199938,9.608443,1.5361817
1409350307764,0.92416185,11.713632,-0.997185,1.1832192,9.631888,1.4131923
1409350307764,0.5153519,12.574945,-1.3263878,1.132622,9.656739,1.2786459
1409350307789,0.09636662,12.114062,-1.2443863,1.0638778,9.680126,1.1548666
1409350307790,0.12928689,10.817602,-1.0301052,0.98147494,9.69879,1.0679888
1409350307794,0.14844051,10.157999,-0.109534726,0.8973919,9.713982,1.0018033
1409350307828,-0.034715924,9.977237,0.7398083,0.808824,9.726388,0.95580924
1409350307830,-0.15981296,9.551069,1.039682,0.7142941,9.737526,0.91693795
1409350307831,-0.11133038,9.060258,0.76195467,0.61851585,9.7467165,0.88843375
1409350307833,0.110133275,8.594585,0.18734628,0.52763087,9.753917,0.8678161
1409350307859,0.0011971008,8.198944,-0.29688102,0.4463773,9.759749,0.84759235
1409350307860,-0.26994625,8.218696,-0.18794483,0.3744562,9.764769,0.8243099
1409350307863,-0.3489549,8.687361,0.39803603,0.3140744,9.768451,0.8056661
1409350307892,-0.12749124,9.360131,1.0773908,0.26425093,9.770084,0.80372953
1409350307893,0.050278235,9.252991,1.3718776,0.22055738,9.769279,0.82641286
1409350307894,0.13227965,8.664616,0.95827925,0.17487633,9.767187,0.8613273
1409350307923,-0.107140526,8.106767,0.39564183,0.12445487,9.764326,0.9015816
1409350307924,-0.6332663,8.358158,-0.0077811554,0.055945944,9.763044,0.92206097
1409350307925,-0.6476316,9.101558,-0.11192893,-0.031585556,9.7641325,0.91165096
1409350307930,-0.38067806,9.36073,-0.15801731,-0.12514019,9.766414,0.87857085
1409350307959,0.12749124,9.359533,-0.272939,-0.21539243,9.768239,0.83992624
1409350307960,0.60214174,9.15423,-0.40462008,-0.29890567,9.768386,0.8121907
1409350307966,1.3652935,9.099762,-0.14903906,-0.3720699,9.765956,0.8112218
1409350307988,2.2493525,8.8328085,0.7188591,-0.43252802,9.760325,0.8481443
1409350307989,1.9381063,8.388085,1.3269863,-0.48121372,9.75078,0.92796266
1409350307991,1.3515269,8.199542,1.9207484,-0.5335906,9.736334,1.0437883
1409350308021,0.85532856,7.880515,2.0374656,-0.5932694,9.718026,1.1740589
1409350308022,0.8182184,7.4806833,1.4640543,-0.6664151,9.695237,1.3147736
1409350308023,1.2282255,7.203554,0.7715315,-0.7540257,9.671057,1.4396093
1409350308031,1.6861166,7.3627687,0.700304,-0.85003036,9.649121,1.5304521
1409350308058,1.5592239,7.958925,1.2054806,-0.9397023,9.631554,1.587617
1409350308059,1.2814964,8.5143795,1.7896658,-1.0144708,9.617259,1.6277436
1409350308063,1.0241197,8.693346,2.6024973,-1.0748503,9.60362,1.6690054
1409350308086,0.65421563,8.752603,2.5192988,-1.127342,9.588442,1.7208426
1409350308087,0.18435353,8.765172,2.0524294,-1.1781176,9.572945,1.7723377
1409350308091,0.22924481,9.100361,1.3036429,-1.2310756,9.559182,1.810218
1409350308112,1.0791864,9.412206,0.25318682,-1.2814043,9.549291,1.8274146
1409350308113,2.0991163,9.969456,-0.08798691,-1.3231485,9.543179,1.8295971
1409350308131,2.5725696,10.564415,0.60214174,-1.3510091,9.5418005,1.8163735
1409350308131,1.9069817,10.918159,1.4766239,-1.3685727,9.541932,1.802478
1409350308146,0.96306765,11.076176,2.1212628,-1.3868532,9.539611,1.8007944
1409350308163,0.20530279,11.128249,2.4690206,-1.4079236,9.534217,1.8129668
1409350308163,-0.30585927,10.898406,2.2373815,-1.428419,9.528121,1.8289095
1409350308180,-0.048482586,10.680533,2.1242554,-1.4447509,9.525645,1.8289768
1409350308196,0.45609543,10.342353,1.8752584,-1.4439324,9.530665,1.8032962
1409350308197,0.9403227,10.105926,1.608305,-1.4163489,9.543506,1.7566674
1409350308211,1.0444705,9.978435,1.5352819,-1.3610344,9.561568,1.7012912
1409350308212,1.0115502,9.416395,1.2611457,-1.2909148,9.58167,1.6418062
1409350308228,0.4321534,8.367136,0.5979519,-1.2220027,9.6030855,1.5677546
1409350308230,-0.57640404,7.3460093,0.26036942,-1.152821,9.626446,1.4740931
1409350308245,-1.7711107,6.867768,-0.3693056,-1.0809695,9.651581,1.3597385
1409350308275,-3.2411506,7.567473,-1.2443863,-0.999338,9.678616,1.223169
1409350308276,-4.12102,9.928156,-1.2413936,-0.9096366,9.704912,1.075939
