time,acc_x,acc_y,acc_z,gravity_x,gravity_y,gravity_z
1409526400707,1.5795746,9.358934,2.5971103,1.5377244,9.3288965,2.603358
1409526400708,1.5616181,9.355343,2.633622,1.537118,9.328278,2.605933
1409526400716,1.5263035,9.341577,2.6366146,1.5369575,9.327498,2.6088145
1409526400736,1.5161282,9.32781,2.6378117,1.5372504,9.326062,2.6137767
1409526400737,1.525705,9.324219,2.6479871,1.5381713,9.324487,2.6188467
1409526400743,1.4999673,9.359533,2.6449943,1.5394552,9.323175,2.6227643
1409526400775,1.4173675,9.415796,2.630629,1.5416216,9.322104,2.6252906
1409526400777,1.3413515,9.405622,2.6527755,1.5416216,9.322104,2.6252906
1409526400778,1.3018472,9.378687,2.545635,1.5416216,9.322104,2.6252906
1409526400784,1.2946646,9.449914,2.529474,1.540814,9.322699,2.6236634
1409526400805,1.3054385,9.400833,2.4768016,1.5382237,9.324267,2.6195984
1409526400806,1.3443443,9.43914,2.473809,1.5345069,9.326897,2.6124134
1409526400816,1.3347675,9.455899,2.504335,1.5304816,9.329839,2.604252
1409526400833,1.3706805,9.553463,2.5725696,1.5264212,9.332654,2.596532
1409526400853,1.4311341,9.576208,2.6605566,1.5236161,9.334999,2.5897424
1409526400855,1.4065934,9.392453,2.5821466,1.5220551,9.336456,2.5854008
1409526400856,1.3796587,9.369708,2.532467,1.5212494,9.336427,2.5859857
1409526400864,1.4065934,9.382876,2.5713725,1.5202582,9.335651,2.589363
1409526400883,1.400608,9.405023,2.5917234,1.5185821,9.336065,2.5888538
1409526400884,1.3970166,9.451111,2.6270378,1.5166008,9.33709,2.5863273
1409526400899,1.4437037,9.481637,2.6479871,1.5136777,9.338421,2.5832274
1409526400915,1.489792,9.473856,2.6623523,1.5110109,9.339584,2.5805826
1409526400916,1.5514427,9.501988,2.6689363,1.5083798,9.340582,2.5785143
1409526400930,1.5969325,9.560047,2.698864,1.5059887,9.3413925,2.576965
1409526400947,1.6406267,9.48463,2.6605566,1.5042468,9.341921,2.5760713
1409526400948,1.6543933,9.405622,2.5965118,1.5033367,9.341452,2.5783048
1409526400962,1.7130513,9.305065,2.546832,1.5025407,9.340302,2.5829253
1409526400964,1.8608932,9.534309,2.6635494,1.5016501,9.339662,2.5857668
1409526400979,1.9494787,9.549872,2.618658,1.5009547,9.3399315,2.5851912
1409526400995,1.8656816,9.277532,2.6898856,1.4999148,9.34106,2.5817177
1409526400996,1.8818425,9.211691,2.8233624,1.4978853,9.3420315,2.5793755
1409526401012,1.929128,9.06744,2.8880057,1.4959974,9.342616,2.578356
1409526401015,2.03567,9.088988,2.8335378,1.495307,9.342543,2.5790217
1409526401029,2.0560207,9.15423,2.7808652,1.4951904,9.34144,2.583079
1409526401044,2.0266917,9.185355,2.7910407,1.494671,9.3400955,2.5882392
1409526401045,1.9626468,9.188946,2.8485014,1.4943861,9.339369,2.591017
1409526401064,1.9231426,9.176975,2.8963854,1.4938079,9.339616,2.5904655
1409526401065,1.9524715,9.232041,2.883816,1.4933323,9.340471,2.5876477
1409526401079,1.9764135,9.288305,2.8149827,1.4940932,9.34125,2.5844016
1409526401095,1.8902222,9.198523,2.767697,1.4959908,9.341957,2.5807483
1409526401096,1.8680758,9.192537,2.722806,1.497419,9.342808,2.5768342
1409526401110,1.7866731,9.334992,2.6874914,1.4994663,9.344462,2.5696323
1409526401129,1.70946,9.425373,2.741361,1.4997591,9.347856,2.557092
1409526401130,1.6687586,9.381081,2.8060043,1.4992229,9.352351,2.5409176
1409526401143,1.6843209,9.393052,2.7162218,1.4987311,9.356593,2.5255437
1409526401144,1.6813282,9.31105,2.629432,1.4974544,9.3605175,2.511719
1409526401159,1.6286557,9.546879,2.991555,1.4953575,9.364873,2.4966917
1409526401166,1.5251064,9.4774475,2.8461072,1.493001,9.369498,2.4806967
1409526401186,1.371279,9.31105,2.4145525,1.4931726,9.373263,2.466328
1409526401187,1.4083891,9.384672,2.2511482,1.492905,9.37526,2.4588876
1409526401196,1.4867992,9.981427,2.2457612,1.4876797,9.378826,2.4484353
1409526401221,1.4335283,10.032902,2.232593,1.478606,9.384892,2.4306204
1409526401222,1.3467385,10.393828,2.2840683,1.4651026,9.393306,2.4061728
1409526401224,1.3198037,11.068993,2.2948422,1.4501907,9.400341,2.3876605
1409526401247,1.3455414,11.456255,2.1529858,1.4338984,9.406092,2.3748174
1409526401248,1.2084733,11.555614,2.2577322,1.4117581,9.411308,2.3674037
1409526401266,1.1264719,11.300034,2.2703018,1.3715596,9.417271,2.3673306
1409526401267,0.8774749,10.408792,2.1906946,1.3041283,9.425422,2.372987
1409526401276,0.91099375,10.951677,2.2762873,1.2085372,9.436134,2.3810065
1409526401298,0.93972415,11.042058,2.48159,1.0897144,9.449189,2.3865805
1409526401299,0.46208093,10.319608,2.4349031,0.95440614,9.462944,2.3900216
1409526401326,0.13706805,11.036073,2.203264,0.7946179,9.477492,2.3908412
1409526401327,0.01316811,11.678317,2.1871033,0.62234056,9.491416,2.3866527
1409526401329,-0.34596214,11.240777,3.0723593,0.4351031,9.50355,2.379835
1409526401354,-0.931943,10.14543,1.7477672,0.22874413,9.510027,2.3827434
1409526401356,-0.7882909,10.819398,2.0829554,-0.0069560846,9.513078,2.3815305
1409526401357,-1.1994951,8.334815,1.6448165,-0.25535598,9.506237,2.3951285
1409526401365,-0.3657143,7.5207863,2.919729,-0.51718986,9.488168,2.4243743
1409526401385,-0.9888053,6.8408327,2.35769,-0.78755003,9.461738,2.4547246
1409526401386,-0.866701,6.1985884,2.743755,-1.050846,9.433176,2.4660327
1409526401396,-1.0630256,5.934029,2.5911248,-1.274924,9.403972,2.4718943
1409526401414,-1.4053963,5.901707,2.3529017,-1.4524266,9.37884,2.4694505
1409526401416,-1.2563573,6.281188,2.0919337,-1.6058965,9.355685,2.4622476
1409526401430,-1.3036429,7.45315,1.9542671,-1.706783,9.342182,2.445589
1409526401446,-1.2204443,8.140884,1.9506758,-1.7611578,9.340046,2.415013
1409526401447,-0.87208796,8.14687,2.0655975,-1.7751806,9.348188,2.372869
1409526401464,-0.7116765,8.773552,2.356493,-1.7590897,9.363696,2.3231833
1409526401465,-0.41240123,9.457695,2.3612814,-1.7181373,9.385666,2.2644365
1409526401481,0.11432313,9.68694,2.184709,-1.6464374,9.415365,2.193292
1409526401497,0.047884032,9.193136,1.9363106,-1.5372245,9.45228,2.1122823
1409526401497,-0.17717093,9.107543,1.7860745,-1.3952681,9.492576,2.0284584
1409526401513,-0.15741876,9.922769,1.7262194,-1.2272784,9.531943,1.9509621
1409526401531,-0.29568392,10.376471,1.1761516,-1.0386369,9.566781,1.888993
1409526401532,0.7577648,10.168773,1.6597804,-0.84136647,9.597247,1.8317654
1409526401546,0.74758947,9.500193,1.0546459,-0.61112845,9.620676,1.7998663
1409526401547,1.6334441,9.878476,1.6478093,-0.3639235,9.636663,1.7811966
1409526401561,1.0145429,9.930551,0.9032126,-0.09863164,9.64307,1.7809719
1409526401565,1.858499,11.033679,1.8950106,0.1701324,9.641219,1.7855892
1409526401578,1.2366052,11.782465,2.03567,0.45495042,9.628832,1.8025068
1409526401594,1.2521675,11.446678,1.678934,0.7186014,9.608961,1.8225963
1409526401596,1.7705121,11.442489,1.2773066,0.9338352,9.58615,1.8450134
1409526401609,1.6831238,11.140221,1.2108675,1.089749,9.564972,1.8692588
1409526401628,1.532289,10.511144,1.4047978,1.1901861,9.547028,1.8995037
1409526401628,1.3461399,9.791088,1.7262194,1.2541629,9.531234,1.9372824
1409526401643,0.9343372,9.148245,2.1338322,1.3059046,9.515558,1.9796908
1409526401644,0.86610246,9.36492,2.235586,1.3368012,9.501106,2.027891
1409526401660,0.7954735,10.096349,2.1577742,1.347876,9.489102,2.076187
1409526401665,0.705691,10.787674,2.2098482,1.3366824,9.480829,2.1207476
1409526401677,0.39324763,11.0061455,2.516306,1.3023666,9.476126,2.1627018
1409526401692,-0.08619126,11.020511,2.8281507,1.242124,9.473447,2.209373
1409526401696,-0.15562311,10.208278,2.995745,1.1504284,9.472193,2.26373
1409526401710,0.22984336,9.858724,3.1465795,1.0287693,9.472275,2.3212147
1409526401725,0.4261679,10.31063,2.8089972,0.8802588,9.474907,2.371012
1409526401726,0.7990648,6.4960675,2.0458453,0.7063437,9.482633,2.398154
1409526401742,0.28670564,7.386112,2.0524294,0.52572745,9.490385,2.4138298
1409526401744,0.25498247,8.714894,2.3588872,0.32719046,9.501192,2.4063792
1409526401760,-0.0676362,8.462306,1.8614918,0.13107108,9.511744,2.3832703
1409526401786,-0.19512744,8.882488,2.1021092,-0.04906097,9.520414,2.3515348
1409526401787,-0.34715924,8.678981,1.7040731,-0.2171227,9.526471,2.3172376
1409526401788,-0.9864111,7.6111674,1.1875241,-0.38277978,9.532153,2.2719882
1409526401797,-1.7830818,6.5457473,0.8936358,-0.5433447,9.536831,2.219017
1409526401825,-1.2156559,8.540117,1.0857705,-0.6869112,9.541342,2.159014
1409526401827,-1.0265139,8.789713,1.6190789,-0.78576714,9.547315,2.0980344
1409526401830,-1.0199299,8.203134,1.87047,-0.8284596,9.5509615,2.0647423
1409526401860,-1.1252748,7.7147164,2.0470424,-0.83698237,9.551996,2.0565066
1409526401862,-1.2449849,7.867945,2.2373815,-0.83652276,9.552296,2.05531
1409526401865,-1.4030021,8.346188,2.307412,-0.82428265,9.553173,2.056174
1409526401880,-1.423353,8.321048,2.2667105,-0.7980217,9.555674,2.054908
1409526401885,-1.1569979,8.191761,2.0326772,-0.75536394,9.559442,2.0535042
1409526401899,-0.49320555,9.141661,1.8674773,-0.6907202,9.564209,2.0540733
1409526401900,-0.07182605,9.677961,2.0937295,-0.5861814,9.570202,2.0586472
1409526401905,-0.98461545,11.232397,2.3223755,-0.4293534,9.575368,2.0732536
1409526401939,0.022146367,11.56998,1.9542671,-0.22655798,9.577106,2.0971668
1409526401941,-0.4321534,12.029667,1.2910733,0.039407153,9.572096,2.1316247
1409526401942,0.56682724,10.7673235,2.9987376,0.32417315,9.557491,2.1724756
1409526401945,0.47465047,9.7719345,2.2774844,0.60967284,9.529045,2.2351668
1409526401970,0.54408234,9.309854,2.0242975,0.8745795,9.494723,2.2925324
1409526401972,1.5197195,10.2735195,2.521693,1.1029488,9.458268,2.3441565
1409526401977,1.9405005,10.53748,3.1555579,1.3080673,9.421534,2.3862193
1409526402006,1.9614497,10.046669,2.967613,1.481568,9.38596,2.4246888
1409526402007,1.5454572,8.91062,2.710835,1.6071898,9.359568,2.4465983
1409526402009,1.4754268,8.680179,2.56419,1.6690176,9.349274,2.4445534
1409526402038,1.4281414,8.803479,2.497751,1.6797258,9.353383,2.4213977
1409526402039,1.3910311,8.872313,2.4911668,1.668913,9.36495,2.3838701
1409526402040,1.347337,8.95611,2.4384944,1.6518342,9.379081,2.3398
1409526402045,1.3126211,9.24102,2.3558946,1.6311473,9.394426,2.2922742
1409526402068,1.3054385,9.496601,2.268506,1.6099751,9.410161,2.2421513
1409526402071,1.3730747,9.610326,2.2080526,1.5883793,9.425614,2.1920865
1409526402077,1.3623008,9.621698,2.1888988,1.5686742,9.43877,2.149251
1409526402106,1.448492,9.586982,2.0913353,1.551105,9.448586,2.1186538
1409526402108,1.6597804,9.7863,1.8064252,1.5369973,9.455093,2.0998187
1409526402110,1.6106992,9.944916,1.9075803,1.5261463,9.460006,2.0855613
1409526402149,1.6897079,10.025121,2.1176715,1.5141838,9.465191,2.070698
1409526402152,1.7435774,9.904813,2.1697452,1.5014386,9.471508,2.0509992
1409526402154,1.8806454,10.012551,2.094328,1.4909105,9.477715,2.0299044
1409526402157,1.9321208,10.096947,2.0506337,1.484101,9.483131,2.0094917
1409526402201,1.8339585,10.087969,2.0775685,1.4811847,9.488117,1.9879979
1409526402204,1.8070238,9.863512,2.0530279,1.479022,9.492906,1.966624
1409526402206,1.7064673,9.590573,2.0159178,1.4776247,9.497118,1.947247
1409526402208,1.7142484,9.6767645,1.9841946,1.4737524,9.501285,1.929778
1409526402211,1.7429788,9.555259,2.1559787,1.46905,9.506198,1.909058
1409526402213,1.7717092,9.423578,2.2523453,1.4647818,9.510318,1.8917383
1409526402235,1.7549498,9.4774475,2.248754,1.4615836,9.511272,1.8894064
1409526402236,1.7369933,9.554661,2.2092497,1.4591564,9.510163,1.8968494
1409526402237,1.745373,9.570223,2.1505916,1.4575558,9.5088825,1.9044869
1409526402245,1.7286136,9.713276,2.0817583,1.4561802,9.507836,1.9107531
1409526402266,1.6879122,9.977836,1.9536686,1.4542089,9.507251,1.9151604
1409526402268,1.614889,10.294469,1.858499,1.4514647,9.507575,1.9156297
1409526402276,1.3808558,10.174759,1.7615339,1.4476335,9.508486,1.9140084
1409526402292,1.0737995,9.773131,1.8166006,1.4411845,9.509915,1.9117731
1409526402296,1.0324994,9.494206,1.9608512,1.4293318,9.511787,1.9113648
1409526402311,1.0923545,9.300875,2.0751743,1.4139158,9.513463,1.9144834
1409526402327,1.2731167,9.270349,2.106299,1.3976933,9.513878,1.9243163
1409526402328,1.4089876,9.68694,2.147599,1.3816675,9.513528,1.9375663
1409526402342,1.4700398,10.493786,2.167351,1.3648024,9.513606,1.9491045
1409526402344,1.3694834,10.7912655,2.1637597,1.3487871,9.513579,1.9603584
1409526402360,1.2186487,10.830172,2.2337902,1.3301874,9.51263,1.9775941
1409526402379,1.0378864,10.610503,2.2373815,1.2989216,9.51126,2.004777
1409526402380,0.9648633,10.2657385,2.0548236,1.2572116,9.510067,2.036778
1409526402392,1.074398,9.57142,1.9859903,1.1943806,9.510357,2.0729127
1409526402396,1.0761937,8.772355,1.8866309,1.1133968,9.512801,2.1064992
1409526402409,1.3437457,8.38629,1.9901801,1.0193527,9.51788,2.131029
1409526402428,1.2258313,7.832032,1.875857,0.92685246,9.5243,2.1445448
1409526402429,1.1318588,8.13849,1.977012,0.84899557,9.531322,2.1455781
1409526402446,1.0953473,9.155427,2.2026656,0.7977363,9.537505,2.13776
1409526402447,1.0187328,9.3583355,2.344522,0.7782561,9.540937,2.1296072
1409526402468,0.81402856,9.624092,2.433706,0.7814293,9.540692,2.1295443
1409526402470,0.6218939,9.759963,2.3349452,0.78835857,9.538289,2.1377387
1409526402477,0.63087213,9.896433,2.0147207,0.79153275,9.535724,2.1479945
1409526402516,0.80564886,9.629479,1.9363106,0.79304385,9.534049,2.1548488
1409526402519,0.98940384,9.59177,2.0398598,0.79523957,9.532686,2.1600633
1409526402521,1.079785,9.488221,2.1643584,0.79935837,9.530631,2.167607
1409526402568,1.1372458,9.332599,2.224812,0.80710334,9.527161,2.179952
1409526402569,1.158195,9.236232,2.292448,0.81809115,9.5221,2.1978955
1409526402570,1.13964,9.298481,2.244564,0.83088267,9.516054,2.2191813
1409526402571,1.1707647,9.424176,2.2619221,0.8450472,9.510215,2.2387724
1409526402572,1.2330139,9.47206,2.441487,0.8612476,9.504992,2.254726
1409526402573,1.2563573,9.667787,2.528277,0.88145876,9.499204,2.2712464
1409526402577,1.3299791,9.798869,2.52289,0.90611714,9.49263,2.2889507
1409526402598,1.3323733,9.737817,2.4037786,0.9338166,9.486323,2.3039243
1409526402599,1.3174095,9.595961,2.2463598,0.96167225,9.480603,2.3159785
1409526402605,1.3820529,9.509171,2.1894975,0.99093676,9.476193,2.3216817
1409526402632,1.3305776,9.43914,2.207454,1.0213408,9.473167,2.320851
1409526402633,1.2958617,9.317635,2.2182279,1.0523834,9.470575,2.317556
1409526402637,1.2623428,9.328408,2.3666685,1.0858185,9.466754,2.3177469
1409526402646,1.282095,9.473258,2.6497827,1.1248221,9.460597,2.3242776
1409526402669,1.2665327,9.557653,2.718616,1.1731379,9.451592,2.336999
1409526402670,1.2569559,9.719262,2.3157916,1.235538,9.439812,2.352399
1409526402677,1.2551602,9.607931,2.3948002,1.3128593,9.427041,2.3617156
1409526402693,1.2773066,9.55047,2.415151,1.3998016,9.413433,2.3660562
1409526402709,1.4083891,9.580399,2.3469162,1.4883584,9.399289,2.3682387
1409526402710,1.4478935,9.8276,2.144606,1.5812057,9.384703,2.365912
1409526402734,1.4873978,10.367492,1.9183542,1.6772382,9.369755,2.3590233
1409526402736,1.666963,10.483012,1.9512744,1.7745562,9.354339,2.3489728
1409526402739,1.7866731,9.803658,1.8136078,1.8730304,9.336585,2.3431435
1409526402747,1.2024878,9.1272955,2.3026235,1.9672624,9.316084,2.347526
1409526402770,1.1737574,9.469068,2.544438,2.0354204,9.297054,2.3647895
1409526402771,1.6466122,10.084976,2.520496,2.0616958,9.285638,2.386783
1409526402777,1.7292122,10.229227,2.5929205,2.0534534,9.281778,2.4088006
1409526402800,1.6412252,10.637438,2.9011738,2.0237234,9.283663,2.426628
1409526402801,1.436521,11.534665,3.1663318,1.9719068,9.291323,2.4399412
1409526402806,1.4000094,11.960834,3.1429882,1.9048231,9.302338,2.451233
1409526402835,1.7244238,10.949283,3.276465,1.8078701,9.319971,2.4576664
1409526402836,2.171541,9.738416,3.204639,1.6758019,9.343514,2.4618711
1409526402837,2.0123265,9.0554695,2.6078842,1.5040748,9.374479,2.455054
1409526402871,1.7669208,8.513782,2.4552538,1.2977389,9.413482,2.4233527
1409526402872,1.857302,7.872135,2.143409,1.0764939,9.455224,2.3686028
1409526402874,0.6218939,8.537125,1.7304093,0.861535,9.495315,2.2950253
1409526402880,0.664391,8.513183,1.5286977,0.657904,9.531147,2.2124193
1409526402906,0.56084174,9.03871,1.6352397,0.48038495,9.559313,2.1352198
1409526402908,0.39085343,9.060258,1.5628152,0.32764196,9.579773,2.071471
1409526402909,0.15502456,8.674791,1.4975731,0.20419545,9.593842,2.021611
1409526402936,-0.14425065,8.46051,1.666963,0.0963025,9.604447,1.97882
1409526402937,-0.38845924,8.477868,1.5885528,0.01270736,9.610798,1.9500788
1409526402939,0.14544775,9.461287,1.9273324,-0.04910448,9.614077,1.9332641
1409526402971,-0.019752163,9.47206,2.1200657,-0.07744846,9.614818,1.9286469
1409526402973,0.20290859,9.288904,2.3307555,-0.07536029,9.6135645,1.934962
1409526402975,0.40102878,9.218275,2.758719,-0.049859244,9.610822,1.9493597
1409526402978,-0.0664391,9.367314,2.6378117,-0.0029233035,9.606583,1.9707739
1409526403004,-0.108936176,9.424775,2.5276785,0.0605043,9.602405,1.9901203
1409526403007,-0.02633622,9.355343,2.2864625,0.14000988,9.599052,2.0022433
1409526403008,-0.02813187,9.7162695,2.0530279,0.23508711,9.596608,2.0050516
1409526403030,0.095768064,9.493608,1.6184803,0.33564073,9.5942335,2.0021067
1409526403031,0.24540567,9.129091,1.3760674,0.44659403,9.591821,1.9919691
1409526403037,0.12449849,9.320028,1.3994108,0.55717206,9.588084,1.9820658
1409526403057,0.049679685,9.099762,1.417966,0.6495677,9.582932,1.9788465
1409526403058,0.3453636,9.503185,2.2505496,0.7109348,9.577436,1.984352
1409526403075,0.46686932,9.206305,2.2547395,0.74256444,9.571835,1.9997454
1409526403078,0.64703304,9.057265,2.336741,0.7531314,9.567496,2.016486
1409526403096,0.6015432,8.668806,2.3481133,0.74779886,9.564553,2.0323672
1409526403099,0.6099229,8.558074,2.3517046,0.7296632,9.563467,2.0440288
1409526403106,0.82240826,8.6257105,2.190096,0.7014159,9.564525,2.0489678
1409526403128,1.0648212,8.813655,2.1655555,0.6653271,9.567619,2.0465577
1409526403129,0.9923966,8.78672,2.3307555,0.6279396,9.57124,2.041434
1409526403137,0.9672575,8.619724,2.0709844,0.58625895,9.575996,2.0314994
1409526403157,1.0618285,9.28232,2.055422,0.5446751,9.582944,2.0102015
1409526403158,1.1282675,9.988011,2.055422,0.5098444,9.591601,1.9777876
1409526403186,1.1893197,10.462662,1.977012,0.4891956,9.601048,1.9367348
1409526403187,0.7727286,9.967062,1.95307,0.485526,9.610366,1.890907
1409526403188,0.41838676,9.945514,2.0506337,0.48952687,9.618712,1.8469273
1409526403217,0.46507367,9.82341,1.745373,0.4954912,9.625351,1.8103857
1409526403218,0.5859809,9.214086,1.8058267,0.505313,9.63015,1.78193
1409526403219,0.7194576,7.876325,2.19668,0.51992965,9.632447,1.7652313
1409526403226,1.2844892,9.985617,1.6938977,0.53962374,9.632334,1.7599322
1409526403246,1.0779893,12.511499,1.174356,0.5673276,9.633331,1.7456982
1409526403247,0.29508537,10.689512,1.1659763,0.60315865,9.638978,1.7019736
1409526403257,0.3250129,10.638037,1.1216835,0.62576044,9.644784,1.6604062
1409526403281,0.40102878,10.479421,1.2090719,0.6322544,9.648369,1.6369505
1409526403282,0.521936,10.155605,1.3670892,0.6338478,9.649962,1.626925
1409526403286,0.59017074,9.859323,1.5532384,0.6374723,9.65016,1.6243342
1409526403318,0.6410475,9.702502,1.7172412,0.64352375,9.649287,1.6271225
1409526403319,0.6715736,9.630676,1.7872716,0.65144175,9.647639,1.6337289
1409526403320,0.6500258,9.563639,1.7938557,0.66029805,9.645644,1.6419324
1409526403327,0.58418524,9.578004,1.7345991,0.6687747,9.643782,1.6494279
1409526403350,0.50158525,9.605537,1.6765398,0.67611223,9.642195,1.6557062
1409526403352,0.45848963,9.656414,1.5933412,0.6819854,9.640933,1.6606368
1409526403358,0.40701428,9.683948,1.5466543,0.6869058,9.639921,1.6644758
1409526403382,0.39384618,9.676167,1.5029601,0.6906306,9.639047,1.6679951
1409526403384,0.36990416,9.715072,1.4915876,0.69390976,9.638215,1.6714302
1409526403386,0.34596214,9.685743,1.5089456,0.6969983,9.637462,1.6744914
1409526403409,0.320823,9.713875,1.560421,0.70029247,9.636846,1.6766592
1409526403410,0.30466217,9.739014,1.5580268,0.70372534,9.636259,1.6785953
1409526403426,0.33399114,9.721656,1.5562311,0.70747995,9.635722,1.6800989
1409526403427,0.30466217,9.6528225,1.572392,0.71245694,9.635247,1.680715
1409526403438,0.40940848,9.653421,1.5490485,0.7182538,9.634751,1.6810982
1409526403457,0.6380547,9.950901,1.5424645,0.725613,9.634149,1.6813884
1409526403460,0.59495914,9.687539,1.602918,0.7364514,9.633255,1.6817935
1409526403477,0.6811504,9.640253,1.6466122,0.74935573,9.631962,1.6834959
1409526403478,0.6793547,9.465476,1.6879122,0.76216584,9.630617,1.6854432
1409526403486,0.53450555,9.087193,1.8010383,0.7735326,9.629358,1.6874579
1409526403511,1.0301052,9.8276,1.8423382,0.7840828,9.627978,1.6904595
1409526403513,1.2533646,10.278308,1.7615339,0.80010086,9.626225,1.6929286
1409526403518,1.0229226,9.8683,1.7130513,0.8221695,9.62405,1.6947246
1409526403527,1.3802572,10.076596,1.910573,0.8419053,9.62203,1.6965016
1409526403545,0.688333,9.412206,1.5023615,0.85891944,9.620064,1.6991277
1409526403547,0.9008184,9.700109,1.5676036,0.8663315,9.619401,1.6991137
1409526403558,0.688333,9.416395,1.5328877,0.87403744,9.618818,1.6984599
1409526403586,0.6560113,9.215881,1.6502035,0.87986964,9.618346,1.6981243
1409526403588,1.3192052,10.074203,1.6184803,0.886761,9.617025,1.7020242
1409526403589,1.3108255,10.033501,1.6525977,0.9034524,9.614669,1.7065504
1409526403618,1.1611878,9.601946,1.7184383,0.9235792,9.611883,1.7114668
1409526403619,1.1857284,9.594764,1.7375919,0.93659145,9.609866,1.7157127
1409526403620,1.2108675,9.660006,1.75076,0.9439799,9.608472,1.7194688
1409526403628,1.09834,9.6288805,1.7675194,0.9503875,9.60713,1.7234247
1409526403662,1.0546459,9.682152,1.7699136,0.9557008,9.605829,1.7277396
1409526403668,0.9660604,9.520543,1.7166426,0.96062696,9.604437,1.7327412
1409526403671,0.90500826,9.440337,1.780089,0.9651045,9.603081,1.7377547
1409526403673,0.9331401,9.605537,1.8124107,0.97001517,9.601618,1.7431017
1409526403703,0.9044097,9.627085,1.8459295,0.9754388,9.600062,1.7486348
1409526403706,0.8146271,9.610924,1.804031,0.9812209,9.598307,1.7550155
1409526403715,0.7398083,9.599552,1.726818,0.9860481,9.596765,1.760743
1409526403746,0.6356605,9.633669,1.7070658,0.9895437,9.595437,1.7660102
1409526403747,0.40641573,9.414599,1.7196354,0.9924338,9.5941725,1.7712541
1409526403748,0.06284779,8.935161,1.7405846,0.9942647,9.592877,1.7772193
1409526403749,0.7260417,10.08318,1.821389,0.9950938,9.591464,1.7843711
1409526403750,0.34835634,9.837775,1.7561469,1.0059297,9.589182,1.7905557
1409526403759,0.5566519,9.844957,1.6460136,1.0184593,9.586858,1.7959116
1409526403790,0.6326678,9.825205,1.5532384,1.0321896,9.584771,1.7992028
1409526403794,0.8182184,9.996989,1.590947,1.0441211,9.583436,1.7994276
1409526403796,0.7882909,9.785102,1.5711949,1.0559609,9.582457,1.7977431
1409526403823,0.86490536,9.69951,1.6059108,1.0642371,9.582014,1.795213
1409526403824,0.95588505,9.73662,1.6370354,1.0697701,9.581943,1.7923043
1409526403825,0.599149,8.828619,1.685518,1.0746833,9.582092,1.7885629
1409526403844,0.9552865,9.140464,1.7956513,1.077478,9.582182,1.7863916
1409526403844,1.2443863,9.710882,1.8106151,1.0831332,9.581781,1.7851237
1409526403846,1.2695254,9.852738,1.7447745,1.0963348,9.580544,1.7837005
1409526403858,1.4107834,9.903017,1.7447745,1.1160094,9.578748,1.781149
1409526403884,1.5059528,9.9790325,1.7393875,1.1373067,9.576771,1.7783126
1409526403886,1.4431051,9.662998,1.7675194,1.1579455,9.5748005,1.7756007
1409526403887,1.5711949,9.801862,1.8076223,1.1745256,9.573054,1.7741176
1409526403917,1.5394717,9.635465,1.9165585,1.1866602,9.571768,1.7729875
1409526403919,1.6573862,9.583989,2.0775685,1.1939577,9.570989,1.7722938
1409526403921,1.7393875,9.648034,2.1290438,1.1989447,9.57045,1.7718431
1409526403952,1.7304093,9.742006,2.0667946,1.2031679,9.570216,1.7702405
1409526403953,1.5945383,9.523536,1.7585411,1.20746,9.570593,1.765263
1409526403955,1.4574703,9.308058,1.7292122,1.2106977,9.572311,1.7536938
1409526403959,1.0941502,8.792706,1.6759412,1.2137089,9.574656,1.7387584
1409526403988,1.2348095,9.1350765,1.6089035,1.217321,9.576926,1.7236538
1409526403989,1.4838065,9.858126,1.5765818,1.2237874,9.578955,1.7077326
1409526403991,1.5771804,9.935937,1.4945804,1.23966,9.579979,1.6904582
1409526404013,1.4269443,9.494805,1.4760253,1.2624868,9.579957,1.6736082
1409526404014,1.6807296,9.964069,1.5424645,1.2810777,9.579894,1.6597779
1409526404019,1.6220716,9.918579,1.4790181,1.297881,9.57954,1.6487259
1409526404046,1.4556746,9.51336,1.4909891,1.3155614,9.579025,1.6376694
1409526404048,1.371279,9.436148,1.5400703,1.3317429,9.5787115,1.6263932
1409526404049,0.9684546,9.038112,1.489792,1.3436733,9.578767,1.6162207
1409526404060,1.134253,9.534908,1.7274165,1.351175,9.579214,1.6072918
1409526404085,1.3826514,10.371682,1.7154455,1.3607097,9.579113,1.5998331
1409526404086,1.2880806,9.815628,1.7310078,1.3758311,9.578061,1.5931749
1409526404087,1.1049241,9.895236,1.7220296,1.3923955,9.576333,1.5891739
1409526404119,1.192911,9.830592,1.7004818,1.4008193,9.5751505,1.5888988
1409526404121,1.0803835,9.782109,1.7435774,1.3982912,9.575132,1.5912305
1409526404122,1.0708067,9.903615,1.7992426,1.3909127,9.575738,1.5940552
1409526404170,1.2192472,9.494805,1.775899,1.3817042,9.576528,1.5973155
1409526404171,1.1749545,9.500791,1.8357542,1.3735533,9.577103,1.600887
1409526404172,0.6907272,8.986037,1.8698715,1.3669312,9.577591,1.603636
1409526404173,1.1468226,9.778519,1.757344,1.3598081,9.578402,1.6048416
1409526404175,1.3198037,10.509947,1.721431,1.3603064,9.578787,1.6021261
1409526404195,1.3401544,9.886257,1.8543092,1.3645977,9.57903,1.5970081
1409526404196,1.4059949,9.478644,1.9015948,1.3650991,9.579432,1.5941772
1409526404198,1.5089456,9.160814,1.887828,1.363596,9.579826,1.5930855
1409526404207,1.2431892,8.206725,1.9997569,1.3588763,9.580851,1.5909562
1409526404223,1.5131354,9.781511,2.0518308,1.3528978,9.582354,1.5870044
1409526404240,1.6585833,10.644621,1.8740613,1.349158,9.584092,1.5796667
1409526404241,1.5496471,10.011354,1.7591397,1.3522539,9.585294,1.5696926
1409526404255,1.769315,10.292673,1.6502035,1.3618646,9.58547,1.5602783
1409526404270,1.7064673,9.990405,1.6220716,1.3725218,9.585633,1.5499027
1409526404271,1.6801311,9.624092,1.6208745,1.3795052,9.585914,1.541951
1409526404298,1.5855601,9.586384,1.7010803,1.3817858,9.586369,1.5370748
1409526404299,1.5029601,9.621099,1.7375919,1.378921,9.587122,1.534945
1409526404300,1.448492,9.547478,1.7495629,1.373868,9.58796,1.5342406
1409526404307,1.4796166,9.372103,1.7615339,1.3665279,9.588869,1.5351107
1409526404321,1.4347254,9.475053,1.7645266,1.3569417,9.589744,1.5381564
1409526404339,1.4047978,9.585187,1.697489,1.344431,9.59062,1.5436697
1409526404340,1.4610616,9.52593,1.5951369,1.329943,9.591578,1.5502491
1409526404361,1.4556746,9.460688,1.5658079,1.3161058,9.592457,1.5566094
1409526404362,1.3628993,9.407417,1.5508442,1.3036789,9.593194,1.5625147
1409526404367,1.2096704,9.506777,1.5077485,1.2929176,9.593887,1.5671862
1409526404393,1.3239936,8.762179,1.4323312,1.2848297,9.594564,1.5696859
1409526404394,1.340753,8.917803,1.3808558,1.283286,9.59458,1.5708619
1409526404398,1.4036007,9.589975,1.608305,1.2862555,9.593944,1.5723107
1409526404407,1.5113398,10.92175,1.6950948,1.2913139,9.592721,1.5756308
1409526404434,0.8798691,9.616311,1.3587095,1.2896118,9.592099,1.5807927
1409526404436,0.9756372,9.776124,1.3036429,1.2806336,9.591917,1.5891876
1409526404439,0.9175778,9.844957,1.6777369,1.2676247,9.593413,1.590579
1409526404474,0.830788,9.366715,1.4257472,1.2510694,9.596476,1.585207
1409526404475,0.9271546,10.199299,1.6454151,1.2330625,9.597642,1.5922353
1409526404476,0.9175778,9.587581,1.4431051,1.2151166,9.597358,1.6076669
1409526404490,0.8846575,9.458294,1.4562732,1.2018249,9.5971575,1.6188213
1409526404491,0.830788,9.622895,1.5951369,1.1897107,9.596886,1.6293414
1409526404499,0.8655039,9.716867,1.7070658,1.1761723,9.596333,1.6423787
1409526404507,0.7140707,9.931747,1.7405846,1.1634063,9.595356,1.6571165
1409526404528,0.60573304,10.028113,1.7723078,1.148786,9.594329,1.6731822
1409526404529,0.5793968,9.944317,1.5370775,1.131372,9.593978,1.6870084
1409526404541,0.59495914,10.04607,1.5508442,1.1131052,9.594869,1.6940719
1409526404564,0.6811504,9.926959,1.4921862,1.0944312,9.5966215,1.6963164
1409526404567,0.78529817,9.809045,1.5592239,1.078319,9.598903,1.6937238
1409526404568,0.87807345,9.691729,1.6531962,1.0656682,9.600976,1.6899744
1409526404589,1.0696096,9.530719,1.7645266,1.0552523,9.602566,1.6874735
1409526404589,1.091756,9.643246,1.8375498,1.0465312,9.603707,1.6864151
1409526404604,1.0666169,9.688137,1.7788919,1.0380404,9.60479,1.6854886
1409526404619,1.0660183,9.81503,1.7010803,1.0296779,9.606081,1.6832575
1409526404619,1.0408791,9.8042555,1.6705543,1.020956,9.607633,1.6797137
1409526404635,1.0336965,9.739613,1.6573862,1.0116098,9.609582,1.6742085
1409526404639,1.0935516,9.712678,1.7304093,1.0026128,9.6115885,1.6680936
1409526404652,1.0923545,9.651027,1.6490064,0.9943565,9.613315,1.6630876
1409526404670,1.1150994,9.733028,1.5897499,0.98661065,9.614943,1.6582679
1409526404671,1.0899603,9.686341,1.6466122,0.97928214,9.616587,1.6530713
1409526404684,1.1330559,9.669582,1.6801311,0.97174436,9.617934,1.6496798
1409526404687,1.1540052,9.670779,1.6328455,0.96495235,9.618644,1.6495361
1409526404701,1.151611,9.706094,1.6292542,0.95801204,9.619201,1.6503166
1409526404716,1.1115081,9.685144,1.6496049,0.9507771,9.619907,1.6503922
1409526404721,1.0971429,9.679159,1.6639702,0.9435689,9.620697,1.6499192
1409526404732,1.0696096,9.64145,1.6777369,0.9365861,9.621507,1.6491823
1409526404739,1.0253168,9.698911,1.6639702,0.92978966,9.622465,1.6474323
1409526404749,0.98341835,9.786898,1.6699557,0.9227356,9.623657,1.6444364
1409526404770,0.9816227,9.809045,1.632247,0.9159684,9.62499,1.6404185
1409526404771,1.043872,9.709685,1.4466964,0.9105356,9.626402,1.6351421
1409526404784,0.86969376,9.850943,1.2683283,0.9059592,9.628077,1.6278111
1409526404787,0.8146271,9.659407,1.3263878,0.901507,9.630085,1.6183814
1409526404802,0.85413146,9.486425,1.3784616,0.89874953,9.631853,1.6093692
1409526404817,0.9044097,9.576807,1.3922282,0.89706177,9.6330805,1.602942
1409526404819,0.80445176,9.675568,1.4167689,0.89566773,9.633786,1.5994859
1409526404835,0.75237787,9.789292,1.3994108,0.8942131,9.634493,1.5960345
1409526404839,0.7170634,9.770139,1.3868413,0.8932208,9.635515,1.5904074
1409526404852,0.6847417,9.766547,1.3814543,0.892898,9.636759,1.5830393
1409526404869,0.7038953,9.636064,1.3581109,0.8920248,9.638105,1.5753142
1409526404871,0.717662,9.529521,1.3760674,0.8903986,9.639363,1.5685288
1409526404892,0.76434886,9.497798,1.472434,0.88895726,9.640249,1.5638851
1409526404893,0.6715736,9.646238,1.5777789,0.88859093,9.640512,1.5624776
1409526404901,0.45130703,9.798869,1.5298948,0.8876271,9.640547,1.5628076
1409526404919,0.4249708,9.870695,1.3970166,0.8852974,9.641175,1.5602555
1409526404920,0.39624038,9.861717,1.4478935,0.8831129,9.642648,1.5523599
1409526404933,0.39264908,9.848549,1.5801731,0.8801934,9.6443615,1.543357
1409526404939,0.39504328,9.749189,1.6711528,0.8768256,9.645867,1.5358388
1409526404952,0.41359833,9.718663,1.7890673,0.87244445,9.647228,1.5297773
1409526404970,0.6607997,9.774927,1.9542671,0.8670057,9.648731,1.523386
1409526404971,0.5141548,9.934141,1.6573862,0.8625018,9.6503725,1.5155107
1409526404985,0.587178,9.879075,1.7956513,0.8568906,9.653068,1.5014673
1409526404987,0.7332243,9.838373,1.6280571,0.85192686,9.655893,1.4860504
1409526405003,0.7062895,9.903017,0.98940384,0.847768,9.658968,1.4683378
1409526405017,0.95109665,9.509769,0.89184016,0.8419235,9.663177,1.4438059
1409526405019,0.82779527,9.17099,1.0965444,0.83468574,9.6679945,1.4154702
1409526405035,0.6739678,9.419987,1.4580688,0.82663846,9.671837,1.3937908
1409526405040,0.4997896,9.746197,1.4155718,0.81941867,9.673637,1.3855203
1409526405054,0.35673606,10.098145,1.2575544,0.8129814,9.674909,1.3804322
1409526405077,0.31064767,10.28549,1.0989386,0.8075322,9.675931,1.3764641
1409526405079,0.30765492,10.202292,1.0696096,0.80288714,9.677595,1.3674475
1409526405082,0.43155485,9.970653,1.1240777,0.7991526,9.679408,1.3567641
1409526405088,0.8936358,9.157223,1.2665327,0.7993127,9.680826,1.3465037
1409526405112,1.0642227,9.137471,1.5119383,0.80916566,9.681083,1.3387614
1409526405113,1.1791444,9.78989,1.3796587,0.8251101,9.680385,1.3340688
1409526405119,1.086369,9.809643,1.0576386,0.8425361,9.679769,1.327636
1409526405142,1.0839748,9.583391,0.9403227,0.8593766,9.680228,1.3134092
1409526405143,1.1480197,9.634268,0.97623575,0.87852234,9.681154,1.2937868
1409526405148,0.9935937,9.603143,1.1061212,0.89993775,9.681766,1.2743205
1409526405182,0.8487445,9.524733,1.0384849,0.9195967,9.68203,1.2581873
1409526405185,0.5943606,9.844957,0.9008184,0.93497264,9.682619,1.2422127
1409526405187,0.12689269,10.990582,0.57999533,0.9415112,9.684295,1.2240903
1409526405192,0.17357962,10.773309,0.27234045,0.9348259,9.687863,1.2007416
1409526405224,0.30585927,10.26933,0.29448682,0.92342603,9.692108,1.1750407
1409526405225,0.44711718,10.1065235,0.6584055,0.91588086,9.695359,1.1539371
1409526405226,0.32800564,9.762956,0.8762778,0.91867894,9.6965,1.1420715
1409526405228,0.45848963,9.710283,1.0103531,0.9273905,9.6959505,1.1396908
1409526405251,0.31603462,9.693524,1.0241197,0.93897843,9.694094,1.145969
1409526405252,0.18435353,9.812635,0.9391256,0.94849724,9.691862,1.1569711
1409526405276,0.11791443,10.184336,0.84694886,0.95508856,9.68989,1.1679937
1409526405278,0.076614454,10.342952,0.748188,0.9572834,9.688648,1.1764768
1409526405280,0.074818805,10.386047,0.7248446,0.95697314,9.68805,1.181648
1409526405290,0.18734628,10.272323,0.8170213,0.9552106,9.687776,1.1853135
1409526405307,0.32022446,10.055049,0.973243,0.9551582,9.687129,1.1906254
1409526405308,0.35194764,9.828796,1.0755951,0.95796984,9.68555,1.201164
1409526405320,-0.27593175,9.3421755,1.1552023,0.96141577,9.683258,1.2167938
1409526405345,0.30765492,9.949105,1.323395,0.9599796,9.680911,1.2364515
1409526405346,-0.6847417,9.922769,1.4826094,0.964206,9.677425,1.2602301
1409526405348,-0.97025025,10.180145,1.4257472,0.95869327,9.6742935,1.2881548
1409526405383,-1.2312182,10.334572,1.4281414,0.94590604,9.671671,1.316985
1409526405385,-1.1893197,10.466851,1.7052702,0.9298415,9.669209,1.3461889
1409526405387,-1.7603368,9.975441,1.7764976,0.91313267,9.666374,1.3776052
1409526405391,-0.6931214,10.500969,1.8219875,0.88997084,9.664097,1.408405
1409526405419,-0.516549,10.456676,1.9428947,0.87219787,9.661747,1.4353693
1409526405420,-0.7613561,10.083779,2.1086931,0.8552602,9.659851,1.4581565
1409526405421,-0.5009867,10.295067,2.56419,0.8347969,9.658513,1.4787215
1409526405436,-0.7835025,10.028712,2.5605986,0.8087987,9.657329,1.5007547
1409526405457,-0.3657143,10.2974615,2.380435,0.7769196,9.656659,1.521752
1409526405461,-0.3172317,9.904813,2.2260091,0.7447893,9.656182,1.5407196
1409526405463,-0.18734628,9.494206,2.285864,0.7094612,9.655791,1.5597258
1409526405469,0.17417817,9.419987,2.496554,0.6701882,9.655361,1.5796281
1409526405503,0.59974754,9.476251,2.8323407,0.6326016,9.654619,1.5995477
1409526405506,1.0480618,9.554661,3.1836896,0.5963276,9.653571,1.6196768
1409526405508,1.5233108,9.645041,3.3752258,0.56318665,9.652024,1.6406231
1409526405528,1.8926164,9.60853,3.345897,0.53355706,9.650203,1.6611198
1409526405529,2.1481974,9.487623,3.1615434,0.5067702,9.64853,1.6791217
1409526405530,2.27928,9.014768,2.9311013,0.48297387,9.647422,1.6924417
1409526405556,2.7665,9.861717,3.132813,0.4629568,9.64689,1.7010586
1409526405557,2.8413188,9.66659,2.658761,0.45410717,9.645579,1.7108443
1409526405560,3.1376014,9.726444,2.520496,0.45374644,9.644217,1.7186011
1409526405569,3.2172086,10.1161,2.4953568,0.463666,9.642586,1.725096
1409526405592,3.1064768,10.489596,2.4289176,0.47713324,9.64095,1.7305566
1409526405593,2.914342,10.629657,2.4534583,0.4976716,9.639087,1.735149
1409526405600,2.7323828,10.664372,2.416348,0.5206158,9.636508,1.7427156
1409526405644,2.509722,10.565612,2.4301147,0.5417429,9.632944,1.7559278
1409526405646,2.2577322,10.286089,2.4941597,0.55677235,9.628319,1.7764703
1409526405647,1.929128,9.835979,2.6360161,0.5625796,9.622617,1.8053143
1409526405648,1.6837224,9.146449,2.6844985,0.5574267,9.616035,1.8416076
1409526405650,0.94570965,8.131308,2.5671828,0.5417903,9.60904,1.8823333
1409526405684,1.2114661,8.558673,3.1986535,0.5134721,9.601755,1.9269257
1409526405686,0.7428011,8.073847,3.341707,0.48481873,9.591572,1.9842129
1409526405689,0.32202014,7.5291657,3.3213563,0.45443597,9.579426,2.0490165
1409526405711,0.32441434,7.6494746,3.2638955,0.4209544,9.566863,2.1138418
1409526405712,0.12030864,7.751827,3.1830912,0.39053732,9.554288,2.1756542
1409526405714,-0.20590134,7.606379,3.12982,0.36320275,9.541351,2.2363102
1409526405722,-0.4417302,7.6452847,3.1411927,0.3360145,9.528105,2.2962348
1409526405741,-0.70509243,7.6788034,3.1998506,0.3086076,9.514449,2.3559306
1409526405743,-1.1665748,7.7171106,3.3985693,0.28033766,9.500819,2.4137578
1409526405749,-1.0223241,8.227076,3.4542346,0.24677755,9.487749,2.4682252
1409526405784,-1.553837,8.291719,3.21661,0.2116149,9.475401,2.518406
1409526405785,-1.6298528,8.181585,3.0711622,0.17287242,9.464323,2.562633
1409526405788,-1.1498153,8.479065,2.9724014,0.13221936,9.455234,2.5983593
1409526405812,-1.2743138,8.1797905,2.7246015,0.09370814,9.447195,2.6290953
1409526405813,-1.2575544,7.9756846,2.731784,0.05656082,9.440661,2.6535072
1409526405815,-1.0271125,7.9708962,2.842516,0.019473273,9.434856,2.6746044
1409526405837,-0.9528923,7.8703394,3.093907,-0.013621772,9.428774,2.6960032
1409526405841,-1.002572,7.8146744,2.7820623,-0.03823555,9.421048,2.7226439
1409526405869,-0.87687635,7.8146744,2.8473043,-0.055343777,9.4135,2.748335
1409526405874,-0.8810662,7.5920134,3.2908301,-0.06638145,9.406149,2.7731476
1409526405877,-0.75237787,7.781754,3.6493618,-0.07353263,9.397523,2.802062
1409526405879,-0.6961141,7.960122,3.8594532,-0.07838212,9.388368,2.8324573
1409526405921,-0.6254852,8.086416,4.052785,-0.08136077,9.379616,2.861221
1409526405922,-1.0097545,8.031948,4.109049,-0.08214272,9.37087,2.8897128
1409526405923,-0.95588505,8.264784,4.115034,-0.08610767,9.361995,2.9182217
1409526405924,-1.0055647,8.412027,4.5753193,-0.08887378,9.353127,2.9464421
1409526405925,-1.0199299,8.446744,4.633379,-0.08864837,9.342341,2.980473
1409526405928,-0.9487024,8.492832,4.56275,-0.08530111,9.3305235,3.0173616
1409526405954,-0.7858967,8.483255,4.5555673,-0.07942242,9.318888,3.053263
1409526405955,-0.7200562,8.309077,4.679467,-0.070198745,9.307847,3.0869803
1409526405961,-0.777517,8.036138,4.9703627,-0.058721144,9.2971,3.1194344
1409526405969,-0.830788,7.849989,5.2181625,-0.04674458,9.285809,3.1530874
1409526405995,-0.7661445,7.888296,5.358822,-0.03429587,9.27356,3.189091
1409526405996,-0.9660604,8.228871,5.592855,-0.020418884,9.260684,3.2264078
1409526406001,-0.9020155,8.31207,5.7562594,-0.008829787,9.247195,3.2649217
1409526406024,-0.9187749,8.185177,6.078878,0.0026503685,9.232794,3.3054338
1409526406025,-0.9792285,8.169615,6.321291,0.014563363,9.215294,3.3538864
1409526406029,-0.96426475,8.202535,6.467936,0.0281798,9.194635,3.4100285
1409526406050,-1.0696096,8.3629465,6.749853,0.04232998,9.172743,3.4683378
1409526406054,-1.42455,8.829816,7.020398,0.055008624,9.150847,3.525531
1409526406079,-1.3742718,9.903615,6.8623805,0.063445106,9.129534,3.5802195
1409526406080,-0.7727286,11.076775,6.4110737,0.06913104,9.110391,3.6285532
1409526406081,-0.56084174,11.919533,6.5026517,0.0783149,9.093111,3.671456
1409526406101,-0.5363012,13.218388,6.8282633,0.087438926,9.073121,3.7203794
1409526406102,0.27593175,16.09562,3.8373067,0.0954555,9.05386,3.7668188
1409526406119,0.86131406,15.373768,2.3319526,0.1147521,9.058352,3.7554593
1409526406136,0.8678981,13.818733,1.2425907,0.14245215,9.07751,3.7079532
1409526406137,0.8463503,12.233772,0.8122329,0.16379596,9.1012,3.6485217
1409526406140,0.6811504,10.949283,1.2036849,0.17716953,9.118792,3.603697
1409526406149,0.4141969,10.005369,1.9476831,0.17905001,9.128055,3.5800788
1409526406170,0.16280572,9.544485,2.3391352,0.16929756,9.130757,3.5736547
1409526406171,-0.007182605,9.285313,1.9937714,0.15068243,9.129982,3.5764658
1409526406180,-0.04189853,9.081207,1.0875661,0.12524529,9.130471,3.5762005
1409526406201,0.0664391,8.870518,0.1400608,0.093582325,9.136454,3.5618618
1409526406202,0.26276365,8.769362,-0.53809685,0.058821972,9.148877,3.5305812
1409526406221,0.41299978,8.750209,-1.1988965,0.024449967,9.166849,3.4840603
1409526406222,0.7068881,9.085996,-1.3760674,-0.009477585,9.188401,3.4268935
1409526406229,0.9355343,9.574412,-1.5987282,-0.03923866,9.2161455,3.3513467
1409526406254,1.1085154,9.912594,-1.9500773,-0.06485709,9.250307,3.2554579
1409526406255,0.9696517,10.171167,-1.8076223,-0.084829986,9.2899685,3.1400113
1409526406261,0.7020996,10.808025,-1.3563153,-0.09781163,9.331772,3.0131145
1409526406270,0.3788824,11.405977,-1.1091139,-0.103243224,9.373505,2.8804777
1409526406290,0.30226797,11.563994,-1.3940239,-0.104119495,9.413581,2.7466435
1409526406292,0.45250413,11.480197,-2.1841104,-0.101226114,9.451823,2.6121206
1409526406301,0.6500258,11.346721,-1.905186,-0.09479703,9.488829,2.4745781
1409526406338,0.82719666,11.22282,-1.5227122,-0.08511187,9.521515,2.3460429
1409526406344,1.0684125,10.8152075,-1.3664906,-0.07134082,9.550083,2.227377
1409526406347,1.3042414,10.317812,-1.2138603,-0.053896792,9.57594,2.113968
1409526406351,1.4568717,9.840768,-1.0576386,-0.033581953,9.5991,2.0066257
1409526406355,1.6011224,9.494805,-0.878672,-0.012616613,9.61961,1.9061342
1409526406385,1.6897079,9.363124,-0.6368576,0.008091464,9.637773,1.8120918
1409526406386,1.7561469,9.303867,-0.40342298,0.026750864,9.654378,1.7212425
1409526406388,1.7597382,9.386468,-0.12210429,0.041820787,9.669904,1.6314466
1409526406408,1.6041151,9.545084,0.21667525,0.052171867,9.684559,1.541758
1409526406410,1.3814543,9.660006,0.5434838,0.056494627,9.698215,1.4532199
1409526406412,1.0109516,9.677961,0.55126494,0.055378772,9.710478,1.3689249
1409526406430,0.7966706,9.616311,0.3669114,0.048439037,9.721464,1.2888787
1409526406430,0.6584055,9.578004,0.22385786,0.037519656,9.731672,1.2097657
1409526406449,0.712275,9.653421,0.0688333,0.02402502,9.740863,1.1337557
1409526406451,0.9804256,9.656414,-0.049679685,0.0073070354,9.749205,1.0598766
1409526406476,0.7739257,9.846753,0.260968,-0.01112305,9.756653,0.98894674
1409526406478,0.9235633,9.998186,0.4213795,-0.03395645,9.762862,0.9250794
1409526406482,-0.20290859,10.014946,0.94211835,-0.056903537,9.767984,0.86812866
1409526406509,1.2437878,10.606314,0.81283146,-0.0881641,9.771763,0.8217424
1409526406510,1.110311,10.411784,0.89782566,-0.10439302,9.774926,0.7812147
1409526406512,1.1647792,10.120291,0.93493575,-0.1168597,9.7772665,0.74952906
1409526406546,1.0307038,9.898827,0.85473,-0.12775289,9.778826,0.7270774
1409526406549,0.81163436,9.988011,0.8379706,-0.1437895,9.779697,0.7122137
1409526406551,0.6811504,9.999383,0.88645315,-0.16220768,9.780219,0.70100945
1409526406556,0.8295909,9.886257,0.8924387,-0.18155915,9.780128,0.6975231
1409526406590,0.90500826,9.836577,0.9744401,-0.1994894,9.779575,0.7003647
1409526406591,1.1893197,10.118495,0.96905315,-0.21617223,9.77872,0.7073383
1409526406593,1.3533225,10.303447,1.2012907,-0.22890545,9.777815,0.7157898
1409526406594,1.4957775,10.314819,1.4981717,-0.23713268,9.776705,0.7281681
1409526406602,1.8088194,10.208278,1.0217255,-0.24038664,9.775307,0.74563724
1409526406631,1.9249382,9.940725,0.45250413,-0.23759139,9.77428,0.75985944
1409526406633,1.7878702,9.566631,0.15143326,-0.22923602,9.773881,0.76754665
1409526406643,1.827973,9.246407,-0.16819267,-0.21685807,9.773788,0.77229935
1409526406687,2.2960393,8.980651,-0.4297592,-0.19888593,9.773822,0.7766847
1409526406692,2.7509377,8.759786,-0.61112,-0.17496213,9.773989,0.780338
1409526406695,2.8389246,8.630499,-0.44232875,-0.13821036,9.774132,0.78588766
1409526406697,1.6861166,8.585009,0.0077811554,-0.09474651,9.773738,0.797173
1409526406699,0.6135142,9.165603,-0.08439561,-0.05923647,9.772489,0.8157112
1409526406702,-0.260968,9.544485,-0.24600422,-0.03368662,9.771356,0.83058774
1409526406728,-0.8690952,9.826403,-0.44771573,-0.018420624,9.771171,0.8332295
1409526406729,-1.2336124,9.920375,-0.6751649,-0.008818426,9.772365,0.8192652
1409526406730,-1.3156139,10.032304,-0.79966336,-0.0019595732,9.774862,0.7889533
1409526406731,-1.3964181,10.111312,-0.7020996,0.0036950186,9.778266,0.74561286
1409526406750,-1.4664485,9.983223,-0.46627077,0.008572672,9.781931,0.6958223
1409526406753,-1.3964181,9.821015,-0.18914193,0.013696481,9.785271,0.6470609
1409526406779,-1.3545196,9.869498,0.06344634,0.020658612,9.7881775,0.6012888
1409526406781,-1.2683283,10.089765,0.18016368,0.026788784,9.790526,0.5614629
1409526406782,-0.973243,10.375273,0.20829555,0.032470446,9.792227,0.53072125
1409526406802,-0.46986207,10.239402,-0.11552023,0.038852807,9.793219,0.5116133
1409526406804,-0.007182605,10.003573,-0.32621,0.04737433,9.793661,0.5023585
1409526406810,0.28191724,9.8515415,-0.24600422,0.057422444,9.793727,0.50001836
1409526406838,0.581791,9.937134,0.14305355,0.06808851,9.793513,0.50286037
1409526406840,0.95708215,10.240001,0.6817489,0.08236881,9.792835,0.51382
1409526406842,1.2258313,10.392631,1.1587936,0.104336426,9.791508,0.5346979
1409526406850,1.2204443,10.314221,1.4862007,0.13188429,9.78958,0.56314105
1409526406875,0.25677812,9.8276,1.3856442,0.1586144,9.787327,0.5945253
1409526406876,-0.3309984,9.644443,1.062427,0.17352165,9.785399,0.62150633
1409526406883,-0.7044938,9.464878,0.8050503,0.17882878,9.784205,0.6385479
1409526406904,-0.8295909,9.272144,0.6392518,0.177726,9.783768,0.6455338
1409526406905,-0.86370826,9.173384,0.5919664,0.17583719,9.783843,0.6448869
1409526406910,-0.7398083,9.175778,0.4429273,0.1766686,9.784168,0.63971525
1409526406937,-0.5410896,9.232041,0.33997664,0.18180194,9.784795,0.6286027
1409526406938,-0.3657143,9.269751,0.41718966,0.1918239,9.785635,0.61230683
1409526406941,-0.16340427,9.363124,0.55844754,0.20658465,9.786386,0.59530175
1409526406950,0.088585466,9.558251,0.6841431,0.22566041,9.786732,0.58253634
1409526406971,0.3298013,9.825804,0.6859388,0.24833365,9.786607,0.57536834
1409526406972,0.6572084,10.075399,0.63206923,0.27358556,9.786274,0.569546
1409526406981,0.9672575,10.248979,0.47465047,0.30090672,9.785742,0.56492126
1409526406999,1.122282,10.309433,0.39683893,0.32858622,9.785178,0.5592102
1409526407019,1.1677719,10.311228,0.41060558,0.35425022,9.784661,0.5525177
1409526407020,1.1504139,10.245986,0.53689975,0.3764433,9.784206,0.54586357
1409526407022,1.0833763,10.19092,0.6344634,0.39433366,9.7838125,0.54028165
1409526407030,1.0121487,10.238804,0.6147113,0.40809,9.783543,0.5349397
1409526407053,0.88525605,10.220248,0.6380547,0.41885978,9.783429,0.52864915
1409526407054,0.39025488,9.912594,0.81402856,0.42658588,9.783413,0.52275616
1409526407064,0.18854338,9.69113,0.8924387,0.42821333,9.783463,0.52045584
1409526407086,0.060453594,9.479243,0.9056068,0.42673725,9.783549,0.5200652
1409526407087,0.02813187,9.366715,0.88944596,0.42354566,9.783587,0.5219204
1409526407090,0.04369418,9.354745,0.8678981,0.41884091,9.78361,0.5252967
1409526407128,0.12509704,9.46847,0.79966336,0.4129745,9.78369,0.5284311
1409526407131,0.2148796,9.618107,0.741604,0.40735042,9.783864,0.529603
1409526407132,0.27952304,9.791686,0.724246,0.40267554,9.7841,0.52880645
1409526407133,0.30765492,9.960478,0.7404069,0.39895985,9.784317,0.52759963
1409526407157,0.33039984,10.056845,0.688333,0.3958998,9.78447,0.52707726
1409526407159,0.33279404,10.023924,0.60573304,0.39367178,9.784654,0.525298
1409526407162,0.31543607,9.960478,0.545878,0.39215052,9.784951,0.5208914
1409526407186,0.2813187,9.957485,0.5057751,0.39134043,9.785324,0.5144444
1409526407187,0.21428105,9.94312,0.41599256,0.3904127,9.785742,0.5071856
1409526407190,0.11671733,9.925761,0.4213795,0.38896307,9.786248,0.49844867
1409526407213,-0.004189853,9.8677025,0.45968673,0.3860581,9.78682,0.48939443
1409526407215,-0.089184016,9.801263,0.46507367,0.38126355,9.787454,0.480401
1409526407227,-0.10654198,9.727043,0.42197806,0.37430093,9.788177,0.47105858
1409526407233,-0.11971009,9.668385,0.45250413,0.3654264,9.788992,0.46099004
1409526407250,-0.037110128,9.629479,0.42556936,0.35509965,9.789822,0.45132455
1409526407251,-0.046088383,9.679757,0.38965634,0.3441139,9.790679,0.44112077
1409526407274,-0.020949265,9.767744,0.3764882,0.33163658,9.791611,0.42985
1409526407275,0.02633622,9.848549,0.38307226,0.31877327,9.792563,0.41768748
1409526407281,0.07062895,9.944916,0.33997664,0.30647442,9.793496,0.40483892
1409526407295,0.10354923,9.9928,0.31902736,0.2949572,9.794387,0.39158553
1409526407311,0.14784196,9.993997,0.26036942,0.2846413,9.795177,0.37928295
1409526407312,0.1328782,9.942521,0.32680854,0.27555785,9.795868,0.36798427
1409526407331,0.1436521,9.871892,0.33039984,0.2674293,9.796421,0.3592054
1409526407332,0.20231004,9.838373,0.3693056,0.26087558,9.796815,0.35323903
1409526407351,0.2908955,9.862914,0.44352585,0.25606415,9.79708,0.3493689
1409526407352,0.415394,9.909002,0.4985925,0.25343585,9.7972355,0.34689292
1409526407361,0.4758476,9.91798,0.587178,0.25355613,9.797297,0.34511003
1409526407386,0.46267948,9.90601,0.5770026,0.25546804,9.797303,0.3434566
1409526407388,0.44831428,9.905411,0.5542577,0.25823808,9.797304,0.3413825
1409526407390,0.42317516,9.853337,0.5153519,0.26180506,9.797289,0.33911666
1409526407418,0.4309563,9.844957,0.45968673,0.26549083,9.797275,0.3366205
1409526407421,0.4369418,9.852738,0.4213795,0.26964888,9.797261,0.33371451
1409526407424,0.4321534,9.876082,0.4201824,0.27359977,9.797284,0.32980096
1409526407430,0.34237084,9.846154,0.4914099,0.2769663,9.797337,0.32542017
1409526407446,0.2657564,9.807249,0.5021838,0.27939865,9.7973585,0.3226667
1409526407450,0.1945289,9.807249,0.4309563,0.2813624,9.797345,0.32132673
1409526407468,0.1592144,9.809643,0.39324763,0.2828975,9.797337,0.32027733
1409526407471,0.15263036,9.7863,0.3842694,0.28469095,9.797326,0.31900117
1409526407482,0.18854338,9.800665,0.3788824,0.28684336,9.797311,0.3175152
1409526407497,0.22984336,9.813833,0.36272156,0.28895658,9.797313,0.3155722
1409526407512,0.31304187,9.85214,0.37110126,0.29110909,9.797326,0.31314728
1409526407514,0.33279404,9.880272,0.39025488,0.2938282,9.797355,0.30964866
1409526407529,0.34237084,9.89763,0.4357447,0.2970278,9.797399,0.30525896
1409526407530,0.36032736,9.856929,0.44113165,0.3004681,9.797411,0.3014393
1409526407547,0.3633201,9.854534,0.41000703,0.3045921,9.797366,0.29871693
1409526407567,0.41718966,9.878476,0.4225766,0.30938077,9.797296,0.29612896
1409526407568,0.48003745,9.879075,0.43394905,0.31437787,9.797208,0.2937609
1409526407570,0.51595044,9.904813,0.46387658,0.31945273,9.797074,0.29272056
1409526407582,0.4961983,9.906608,0.51235914,0.32412788,9.79692,0.29273525
1409526407602,0.5105635,9.905411,0.55605334,0.32823247,9.796784,0.29268992
1409526407604,0.49081135,9.877279,0.58119243,0.33235118,9.796651,0.29250604
1409526407610,0.47465047,9.873688,0.5734113,0.33594596,9.79653,0.29247165
1409526407631,0.46327803,9.858724,0.4345476,0.33866903,9.796437,0.2924556
1409526407633,0.439336,9.873089,0.40162733,0.34081635,9.796399,0.29124495
1409526407646,0.4141969,9.874885,0.37708676,0.3419405,9.796415,0.28934127
1409526407662,0.3776853,9.8754835,0.39085343,0.3420269,9.796502,0.28626788
1409526407664,0.338181,9.848549,0.42796355,0.3411574,9.796624,0.28315276
1409526407678,0.30107087,9.81084,0.43634325,0.339283,9.796759,0.2807579
1409526407683,0.26994625,9.761759,0.42078096,0.33677197,9.796909,0.2784768
1409526407697,0.25677812,9.745598,0.4333505,0.3339698,9.797057,0.276644
1409526407708,0.272939,9.778519,0.45609543,0.33119422,9.797189,0.27536812
1409526407710,0.30047232,9.788095,0.4818331,0.3284457,9.797308,0.27435964
1409526407733,0.3597288,9.789292,0.50397944,0.32573605,9.7973995,0.27435198
1409526407734,0.43873745,9.854534,0.5105635,0.32332152,9.797439,0.27582228
1409526407742,0.5009867,9.956886,0.52373165,0.3214665,9.797465,0.2770392
1409526407772,0.52732295,9.986814,0.46926352,0.31985462,9.797479,0.278392
1409526407773,0.4938041,9.962274,0.4417302,0.31861988,9.797456,0.2806374
1409526407774,0.45908818,9.906608,0.41359833,0.3172598,9.797433,0.28298217
1409526407794,0.427365,9.835979,0.43754035,0.31524384,9.797448,0.28470004
1409526407795,0.42078096,9.824008,0.44891283,0.31321803,9.79745,0.28685373
1409526407810,0.4261679,9.832987,0.5153519,0.31186235,9.797414,0.2895227
1409526407811,0.36272156,9.849147,0.5117606,0.31076637,9.797345,0.2930129
1409526407826,0.35314476,9.858724,0.46148238,0.30929488,9.797278,0.29671726
1409526407830,0.35553896,9.872491,0.40342298,0.30866262,9.797174,0.30078533
1409526407850,0.32621,9.852738,0.40162733,0.30912083,9.7970295,0.30504364
1409526407852,0.27234045,9.826403,0.3800795,0.30961582,9.796863,0.3098948
1409526407867,0.22685061,9.834782,0.427365,0.30956745,9.796725,0.314262
1409526407881,0.20530279,9.855731,0.46447513,0.3092118,9.79662,0.317821
1409526407883,0.19093758,9.857527,0.5410896,0.30882585,9.796577,0.31951964
1409526407897,0.20949265,9.862315,0.55246204,0.3081787,9.79656,0.32068065
1409526407911,0.19273324,9.841965,0.5734113,0.30757028,9.796559,0.321312
1409526407912,0.17597382,9.818622,0.5674258,0.3067902,9.796571,0.32168078
1409526407930,0.19931729,9.8198185,0.5398925,0.3060637,9.796566,0.32253888
1409526407932,0.23942018,9.8437605,0.557849,0.30562872,9.796546,0.32352677
1409526407947,0.27473465,9.846154,0.5530606,0.30580246,9.796492,0.32505286
1409526407967,0.29328972,9.824607,0.53091425,0.3064049,9.796414,0.32676327
1409526407969,0.28491,9.803658,0.5315128,0.30645332,9.796341,0.32890287
1409526407971,0.26515785,9.762358,0.4866215,0.30571452,9.796292,0.33109522
1409526407996,0.2789245,9.76954,0.5781997,0.30440378,9.7963085,0.33179212
1409526407998,0.33039984,9.7863,0.66020113,0.30268654,9.796314,0.33314127
1409526408017,0.45370123,9.872491,0.7589619,0.30108884,9.796263,0.33615574
1409526408018,0.46627077,9.834782,0.80564886,0.3001981,9.796146,0.34028852
1409526408022,0.4177882,9.750985,0.79128367,0.29953024,9.795988,0.34536144
1409526408031,0.3345897,9.633669,0.79367787,0.2988229,9.795816,0.35086986
1409526408050,0.23762453,9.569624,0.80445176,0.29754686,9.795636,0.35690242
1409526408051,0.17178397,9.598354,0.8475474,0.29544652,9.795505,0.36223477
1409526408063,0.11312603,9.689334,0.89782566,0.29281208,9.7954445,0.36598122
1409526408095,0.011372458,9.777321,0.91219085,0.29003322,9.795399,0.36939994
1409526408100,-0.1388637,9.912594,0.8631097,0.2867317,9.795363,0.37284252
1409526408103,-0.2789245,10.002377,0.7517793,0.28263673,9.795365,0.3759684
1409526408134,-0.39504328,10.007165,0.64463884,0.2775232,9.795432,0.37802762
1409526408136,-0.46267948,10.064626,0.47105917,0.2705948,9.795617,0.37825456
1409526408138,-0.48841715,10.051457,0.3393781,0.26205418,9.79593,0.37613258
1409526408141,-0.46986207,9.914988,0.31902736,0.2525272,9.796335,0.3720841
1409526408144,-0.4333505,9.702502,0.19093758,0.24298857,9.79674,0.36777171
1409526408172,-0.5398925,9.461287,-0.034117375,0.23368312,9.797133,0.36328015
1409526408173,-0.6290765,9.178771,-0.090979666,0.22409126,9.797548,0.35811454
1409526408175,-0.66020113,8.889671,0.05746084,0.21466891,9.797935,0.353273
1409526408202,-0.6811504,8.638878,0.6392518,0.2060275,9.798217,0.3505439
1409526408203,-0.46148238,8.292916,0.94331545,0.19804741,9.798337,0.35177603
1409526408204,-0.142455,8.257602,1.039682,0.19250768,9.7984,0.353132
1409526408212,0.17537527,8.309675,0.81283146,0.19030689,9.798501,0.35147193
1409526408245,0.41718966,8.486248,0.533907,0.19241029,9.798786,0.34224483
1409526408250,0.60812724,8.780136,0.5315128,0.19936171,9.79927,0.32400364
1409526408253,0.6775591,9.131485,0.88405895,0.21106954,9.799752,0.30115923
1409526408283,0.75477207,9.560646,1.2838906,0.22530401,9.800049,0.28046152
1409526408285,0.80205756,10.0269165,1.4742297,0.24397363,9.800031,0.26506945
1409526408286,0.7811083,10.507553,1.3503298,0.26633644,9.799722,0.2547564
1409526408287,0.7751228,10.802638,1.1013328,0.2904947,9.799288,0.24491376
1409526408291,0.8283938,10.889428,0.7278373,0.3143934,9.798846,0.23269889
1409526408320,1.0432734,11.08276,0.55006784,0.33536,9.798493,0.21778852
1409526408321,1.5059528,11.402985,0.43394905,0.35262263,9.79823,0.20185344
1409526408324,2.0111294,11.613674,0.008379706,0.3678017,9.798014,0.18452808
1409526408331,2.4588451,11.544841,-0.5967548,0.38030913,9.797916,0.16307427
1409526408348,2.7407625,11.19409,-0.98341835,0.38763106,9.798053,0.13531293
1409526408350,2.896984,10.736199,-1.0097545,0.38647288,9.798477,0.104141
1409526408362,2.991555,10.317214,-0.8146271,0.38099933,9.7989645,0.07453034
1409526408387,2.802413,10.032902,0.078410104,0.36805677,9.799606,0.05153135
1409526408388,2.2822728,9.646837,0.5093664,0.3490553,9.800334,0.044533838
1409526408391,1.8327614,9.734824,1.0851719,0.32450062,9.8011465,0.050901346
1409526408420,1.7244238,9.833585,1.4796166,0.2992575,9.801827,0.07074888
1409526408421,1.2797008,9.552865,1.2198458,0.2779855,9.802222,0.09791062
1409526408422,1.0354922,9.390657,0.88765025,0.2574762,9.802545,0.119253345
1409526408449,0.6087258,9.491214,0.3357868,0.23729594,9.802936,0.12858184
1409526408450,0.25139117,9.672575,-0.23882163,0.21486531,9.803538,0.1218654
1409526408452,0.17178397,9.901819,-0.59735334,0.19199012,9.80427,0.09901475
1409526408463,0.25079262,10.134057,-0.87687635,0.17031679,9.804937,0.06767471
1409526408485,0.35254622,10.108918,-1.1049241,0.15308245,9.805424,0.02488592
1409526408486,0.5434838,10.039486,-1.0570401,0.13975652,9.805623,-0.02437585
1409526408491,0.17896658,9.7084875,-0.7918822,0.12912834,9.80552,-0.07436803
1409526408511,0.79008657,9.731233,-0.6667852,0.11384908,9.805259,-0.119676806
1409526408513,0.91817635,9.509171,-0.25558102,0.100706294,9.804842,-0.15915291
1409526408528,1.0923545,9.355343,0.05626374,0.08779665,9.804417,-0.19000551
1409526408546,1.4407109,9.306262,0.11731588,0.07326522,9.8040495,-0.21367678
1409526408547,1.6190789,9.223063,0.19572599,0.057280734,9.803747,-0.23160607
1409526408563,1.8369513,9.202713,0.14903906,0.03874697,9.803532,-0.24421489
1409526408564,1.6897079,9.147048,0.18375498,0.018262984,9.803379,-0.25265148
1409526408571,1.6346412,9.313444,0.24301147,-0.005262414,9.803245,-0.25835332
1409526408593,1.6220716,9.454702,0.22266077,-0.03287227,9.803184,-0.25865382
1409526408594,1.6771383,9.519346,0.207697,-0.06371066,9.803103,-0.25591883
1409526408610,1.7172412,9.515755,0.1448492,-0.09590981,9.802971,-0.25094113
1409526408611,1.7369933,9.483433,0.12808979,-0.12893784,9.802769,-0.24395564
1409526408632,1.6950948,9.413403,0.10534488,-0.16127762,9.802498,-0.23545846
1409526408633,1.4856021,9.342773,0.079008654,-0.19173516,9.802186,-0.22537151
1409526408643,1.2707225,9.276335,0.0688333,-0.22097737,9.801845,-0.2131274
1409526408666,1.079785,9.374496,0.10354923,-0.24934785,9.801459,-0.19897823
1409526408668,0.94092125,9.569026,0.15143326,-0.2764442,9.801029,-0.18388122
1409526408671,0.81163436,9.794081,0.13826515,-0.30238008,9.800531,-0.16890185
1409526408703,0.5907693,10.053253,0.027533319,-0.32824278,9.799897,-0.15700284
1409526408704,0.42437226,10.26933,-0.19871874,-0.35529357,9.799055,-0.15061773
1409526408705,0.18375498,10.275315,-0.35553896,-0.38291052,9.798019,-0.15030952
1409526408711,0.108936176,10.134656,-0.5590461,-0.41151327,9.796807,-0.15360811
1409526408733,0.34955344,9.975441,-0.75596917,-0.43916437,9.795521,-0.15903503
1409526408734,0.83617496,9.926959,-0.61171854,-0.46255213,9.79436,-0.16418186
1409526408743,1.3138182,10.1304655,-0.030526072,-0.4790863,9.793552,-0.164887
1409526408783,2.4570496,10.53748,0.30645782,-0.4884956,9.793233,-0.15594879
1409526408785,3.0065188,10.772112,0.54168814,-0.48523024,9.793645,-0.13955444
1409526408787,3.1292217,11.030087,0.6386533,-0.47797993,9.794271,-0.11916699
1409526408789,3.2040405,11.218032,0.6338649,-0.47068128,9.794855,-0.09831417
1409526408792,3.293823,11.579556,0.50876784,-0.46803555,9.795135,-0.081780694
1409526408822,3.2465374,11.997943,0.24660277,-0.47069043,9.795079,-0.07264049
1409526408823,2.719813,12.053609,-0.1604115,-0.47912323,9.794686,-0.07040013
1409526408824,2.5318682,12.240356,-0.34715924,-0.5000859,9.793615,-0.07354151
1409526408848,2.018312,12.465411,-0.5602432,-0.53152233,9.791931,-0.07719832
1409526408850,1.8393455,12.546215,-0.41718966,-0.5767649,9.789349,-0.07986204
1409526408851,1.4059949,12.224793,-0.25378537,-0.6297694,9.786093,-0.07851543
1409526408889,0.05925649,11.641207,0.5530606,-0.6875165,9.782235,-0.07465888
1409526408891,0.30346507,11.736377,1.5472529,-0.7571409,9.777188,-0.06098799
1409526408892,0.26755205,11.164163,1.7250223,-0.8161412,9.772576,-0.03291781
1409526408894,-0.54647654,10.508151,1.6921021,-0.86702645,9.768247,-9.901801E-4
1409526408921,-1.1228806,9.855133,1.910573,-0.9032614,9.764906,0.033547327
1409526408922,-1.1623849,9.309255,2.0895395,-0.9264696,9.762544,0.06912761
1409526408923,-1.34195,8.884284,1.4281414,-0.93010116,9.761921,0.10101416
1409526408944,-1.3617022,8.623316,0.015562311,-0.91075397,9.76358,0.1157929
1409526408945,-1.5005659,9.40203,-1.5113398,-0.8669262,9.767724,0.10211314
1409526408961,-1.1659763,10.964247,-1.6885108,-0.8012765,9.773676,0.059993573
1409526408977,-0.76554596,12.40795,-1.6843209,-0.71372944,9.780639,0.008527791
1409526408977,0.09876082,13.678673,-1.6771383,-0.60487175,9.787907,-0.037568685
1409526408995,0.37828386,14.687829,-1.5556326,-0.4712238,9.795087,-0.068085805
1409526408996,-0.1592144,14.934432,-1.6490064,-0.32583624,9.800849,-0.087166145
1409526409003,-1.2826935,14.223353,-1.4089876,-0.18879363,9.80442,-0.08996093
1409526409011,-2.5929205,13.476961,-0.64823014,-0.07095957,9.806134,-0.07155967
1409526409032,-3.8839936,12.580333,-0.16160862,0.027358986,9.806583,-0.023582965
1409526409033,-5.1026425,11.541848,0.14784196,0.11215828,9.805886,0.049103558
1409526409050,-5.6551046,10.829573,0.12270284,0.18799934,9.803906,0.13594173
1409526409075,-5.85921,10.196905,0.2148796,0.26422757,9.800496,0.22547507
1409526409077,-5.2462945,9.588778,0.18794483,0.34498468,9.795586,0.31284142
1409526409080,-4.159327,8.76996,-0.050876785,0.43909204,9.788737,0.39778998
1409526409108,-2.8078,7.767389,-0.15861586,0.5501639,9.779456,0.4795122
1409526409110,-1.2683283,7.451354,0.47524905,0.6773061,9.767229,0.5593658
1409526409112,0.28431144,7.5291657,1.0097545,0.81522226,9.751544,0.64279
1409526409113,1.7992426,7.86196,1.5334862,0.96389496,9.731881,0.7292464
1409526409135,3.098097,8.230667,1.8201919,1.1238377,9.707869,0.81526446
1409526409136,3.8229415,7.607576,1.5346833,1.294808,9.679478,0.89531046
1409526409143,3.4835634,7.3166804,1.4107834,1.4677988,9.648159,0.96384555
1409526409163,3.0292637,6.483498,0.96426475,1.6296936,9.615814,1.0249848
1409526409165,2.1751323,5.0517654,0.79367787,1.776811,9.5832205,1.0840621
1409526409173,1.5089456,4.496909,1.039682,1.9037133,9.550882,1.1519159
1409526409202,1.3215994,4.5196543,1.3521254,2.008966,9.518726,1.2362499
1409526409204,0.8367735,4.7159786,1.863886,2.0986464,9.485669,1.3372316
1409526409205,0.66738373,4.996699,2.2170308,2.1782494,9.451644,1.4463859
1409526409212,0.6853402,5.1607018,2.3750482,2.2535293,9.416614,1.5554391
1409526409240,0.79726917,5.419874,2.355296,2.3258371,9.382957,1.649543
1409526409242,1.2318168,5.9627595,2.3774424,2.397192,9.352568,1.7185276
1409526409246,1.7633295,6.575675,2.4486697,2.4664788,9.326395,1.7621713
1409526409279,2.2218192,6.8869214,2.3750482,2.5312762,9.304747,1.7845786
1409526409282,2.8042088,7.0102224,2.2212207,2.587033,9.288222,1.7906876
1409526409284,3.6092591,7.1023993,2.1290438,2.6302247,9.276552,1.7882656
1409526409286,4.2221746,7.359776,2.304419,2.659196,9.269082,1.7841536
1409526409292,4.7165775,7.790134,2.6252422,2.6717842,9.2656,1.7834237
1409526409320,5.5084596,8.607754,3.2190042,2.669189,9.265414,1.7882707
1409526409321,4.3119574,8.701127,4.0743327,2.6574216,9.266921,1.7979637
1409526409324,4.008492,10.008362,4.1701007,2.6275775,9.272277,1.8141341
1409526409353,3.2202013,10.3932295,4.4723687,2.5826528,9.282532,1.8261712
1409526409354,1.6101006,10.805631,4.673482,2.5336032,9.294194,1.8355379
1409526409356,0.7308301,13.721169,3.9917328,2.476108,9.306863,1.8497518
1409526409383,0.82599956,16.82645,1.8255788,2.4127836,9.320524,1.8645914
1409526409384,1.347337,15.552135,-0.5422867,2.3568783,9.335321,1.8620684
1409526409385,2.9921536,12.794614,-0.83617496,2.3418467,9.342438,1.8452642
1409526409392,4.481347,10.327389,-0.16579847,2.3778045,9.333025,1.8469149
1409526409410,5.485116,8.10557,1.9626468,2.4535663,9.304239,1.8924996
1409526409428,6.3003416,6.645107,6.163274,2.5628462,9.254696,1.988164
1409526409429,6.2129536,8.050503,9.960478,2.7013593,9.186626,2.1163578
1409526409442,4.6034513,12.65994,10.022727,2.8542616,9.098952,2.287495
1409526409444,4.9506106,15.231313,4.4161053,2.9777086,9.026616,2.4132648
1409526409461,2.180519,14.507666,3.4213142,3.0792778,8.994026,2.4074764
1409526409466,-2.1068976,13.461399,2.8161798,3.1243231,8.991351,2.3589408
1409526409473,-2.480393,13.490728,0.0047884034,3.1022968,9.014799,2.2977269
1409526409502,-1.477821,14.550761,-1.2018893,3.047202,9.052497,2.2219946
1409526409503,-1.086369,14.917073,-0.635062,2.9614928,9.097338,2.1536953
1409526409505,-1.6490064,13.86183,-1.3850456,2.8499742,9.14524,2.1006296
1409526409535,-2.3654714,10.75655,-0.712275,2.7324686,9.196452,2.0320644
1409526409536,-1.7806876,9.880272,0.11492168,2.6308038,9.23867,1.9738806
1409526409537,-1.1546037,9.118916,0.39803603,2.5461102,9.27305,1.923087
1409526409564,-0.670975,8.182184,0.8050503,2.4738107,9.29844,1.8946404
1409526409565,0.0017956513,7.7051396,1.1659763,2.41516,9.319237,1.8679469
1409526409568,0.705691,8.000225,1.3790601,2.3613749,9.340355,1.830873
1409526409572,1.2198458,8.715493,1.7483658,2.3067925,9.363163,1.7833359
1409526409593,1.5233108,9.510966,2.1134815,2.25002,9.386426,1.7328582
1409526409594,1.5897499,10.168175,1.5717934,2.188465,9.409572,1.6855255
1409526409611,1.2491747,10.523713,0.50757074,2.1204302,9.434193,1.6340673
1409526409614,0.84575176,10.878056,-0.4213795,2.0441458,9.462797,1.5643923
1409526409625,0.19871874,10.957064,-0.88405895,1.9618716,9.495361,1.4695412
1409526409665,-0.59017074,10.62008,-0.9911995,1.8744748,9.528689,1.3641198
1409526409672,-0.9259575,10.1621895,-0.75716627,1.7824513,9.560973,1.2574024
1409526409673,-1.1899183,9.52174,-0.7326257,1.6890578,9.58907,1.169279
1409526409678,-1.1007342,9.148843,-0.6913257,1.6005019,9.611656,1.1067305
1409526409680,-0.7469909,9.068638,-0.44711718,1.5226696,9.628823,1.066605
1409526409706,-0.5446809,9.148245,-0.26276365,1.4564146,9.641783,1.0417658
1409526409707,-0.31124622,8.768166,0.004189853,1.3944888,9.652476,1.0273654
1409526409708,0.38606504,7.877522,0.34955344,1.3314707,9.661215,1.0288249
1409526409730,0.55844754,7.7009497,0.18674773,1.2663482,9.667843,1.0485955
1409526409732,0.91338795,7.7290816,0.21428105,1.190161,9.675116,1.0705421
1409526409733,0.7200562,8.249222,0.24899697,1.1024916,9.684848,1.0763937
1409526409744,0.42676646,8.560468,-0.074818805,1.0085206,9.695859,1.069399
1409526409759,0.7230489,8.239645,-0.37469256,0.90414566,9.709462,1.0388693
1409526409778,1.2389994,8.1079645,-0.34715924,0.7950341,9.723073,1.0000697
1409526409779,1.6118963,8.337808,-0.030526072,0.68397254,9.734507,0.9705353
1409526409784,1.7938557,8.469488,0.46567222,0.5768993,9.742268,0.96218926
1409526409793,1.7633295,8.184579,0.9528923,0.47856423,9.745571,0.982451
1409526409815,1.7256209,7.8709383,1.4347254,0.38910037,9.744276,1.0334712
1409526409818,1.4856021,7.5082164,1.8561049,0.3059085,9.73912,1.1074117
1409526409824,1.3126211,7.3484035,2.3666685,0.22543111,9.731757,1.1884726
1409526409838,1.3688848,6.453571,2.2547395,0.14513963,9.723554,1.2656374
1409526409856,1.7848774,6.168062,2.1398177,0.06368425,9.715984,1.3289064
1409526409857,2.083554,6.3607955,2.0278888,-0.014651567,9.708418,1.3844857
1409526409881,2.0536265,7.1688385,1.9800048,-0.0838529,9.701981,1.4265168
1409526409883,2.0254946,8.456321,2.2559366,-0.13773015,9.696795,1.457246
1409526409884,2.1697452,9.46009,2.5139117,-0.17608543,9.692103,1.4840935
1409526409893,2.2756886,11.089942,1.6292542,-0.20557958,9.687742,1.5085709
1409526409918,2.6856956,11.254543,1.1522095,-0.232262,9.686843,1.5104666
1409526409918,3.1399956,10.68652,0.89064306,-0.25633463,9.688852,1.4935937
1409526409924,3.7271736,10.406996,1.0516531,-0.27580962,9.69148,1.4729298
1409526409941,3.602675,10.733206,1.8776526,-0.2862011,9.693569,1.4571263
1409526409956,3.1663318,11.028292,2.4839842,-0.29059532,9.693985,1.4534745
1409526409957,2.397793,10.845734,2.8060043,-0.29165652,9.692978,1.4599656
1409526409976,1.0833763,10.565612,2.0027497,-0.29822478,9.689616,1.4808174
1409526409977,0.24839842,10.755353,1.6095021,-0.30992568,9.686825,1.4965813
1409526409984,-0.0688333,10.570999,1.5520413,-0.3211336,9.686821,1.4942421
1409526409992,-1.09834,8.770559,0.42916065,-0.32478464,9.690516,1.4692814
1409526410007,-1.2012907,7.477092,-0.43394905,-0.32177243,9.697594,1.4225063
1409526410030,-1.0971429,6.251859,0.05327099,-0.29879978,9.70682,1.3633682
1409526410031,-1.4371196,5.521628,0.2148796,-0.24962972,9.717753,1.2935888
1409526410033,-1.970428,5.628768,-0.5482722,-0.176473,9.731099,1.2020695
1409526410061,-2.385822,6.743868,-1.283292,-0.0839041,9.745314,1.0918905
1409526410063,-2.4821887,9.424775,-1.2970588,0.028412988,9.757657,0.97861886
1409526410065,-2.4492683,13.345281,-0.7230489,0.14768998,9.767097,0.86739063
1409526410072,-0.7338228,17.996017,-0.8714894,0.28134137,9.771766,0.7770694
1409526410091,1.0295067,19.608511,-2.4462755,0.44773692,9.771049,0.70466393
1409526410106,-1.2192472,19.608511,-1.536479,0.6478291,9.764947,0.62969315
1409526410107,-2.0404584,19.329588,0.16101007,0.79016405,9.756865,0.59131414
1409526410123,-1.6663644,15.501858,1.6555905,0.8783056,9.748065,0.6117303
1409526410137,-2.1996727,11.502942,2.9670146,0.9484952,9.7355,0.70054585
1409526410138,-4.4077253,11.217434,3.7984009,0.9957522,9.7203865,0.8324287
1409526410154,-4.4238863,11.896789,2.8778305,0.9895426,9.707852,0.9740646
1409526410155,-1.9871874,11.816583,1.6166847,0.97765404,9.697452,1.0835276
1409526410172,-0.11432313,9.901819,1.1139023,1.0372558,9.684421,1.143019
1409526410172,0.3752911,7.7877398,1.8543092,1.145034,9.667094,1.1859905
1409526410189,0.55844754,6.6026096,2.665345,1.2973022,9.64326,1.2226826
1409526410204,2.207454,7.745841,3.466804,1.4571432,9.6145935,1.2675622
1409526410205,3.7660792,8.549096,3.3572693,1.624698,9.581491,1.3136911
1409526410222,4.261679,8.823232,2.6767175,1.8026991,9.545375,1.3440608
1409526410224,3.7032316,8.489241,1.5131354,1.9676127,9.511214,1.3548789
1409526410238,2.60549,7.0766616,0.5351041,2.0988405,9.483342,1.3533326
1409526410257,2.3558946,6.5625067,0.36152446,2.1965947,9.461029,1.3543644
1409526410258,1.9662381,6.1926026,0.29747957,2.277046,9.439628,1.3707237
1409526410271,1.5460558,5.703587,0.5243302,2.3481886,9.416873,1.4067284
1409526410273,1.4221559,5.149928,1.1797429,2.4109573,9.393808,1.4539721
1409526410292,1.388637,4.9278655,1.3018472,2.4700825,9.368773,1.5149848
1409526410293,1.4909891,4.784812,1.2988545,2.524491,9.343648,1.5791073
1409526410306,1.6256629,4.845266,1.4586674,2.5729558,9.320013,1.6394074
1409526410320,1.6849195,4.84347,1.4921862,2.6140826,9.298624,1.6948646
1409526410324,1.8549078,4.8021703,1.4820108,2.64777,9.280116,1.7433188
1409526410340,2.219425,4.9266686,1.6418238,2.6744373,9.265091,1.7821075
1409526410354,2.3906105,5.2361193,1.8004397,2.6940398,9.254399,1.8079371
1409526410355,2.3307555,5.5964465,2.1667526,2.7059748,9.2488575,1.8184468
1409526410371,2.1721394,5.831078,2.7180176,2.7065327,9.249457,1.8145512
1409526410373,2.2158337,6.0824695,2.9771898,2.6913977,9.256762,1.7997584
1409526410387,2.813187,6.901885,2.7844565,2.6676946,9.267129,1.781603
1409526410403,3.70383,8.439561,2.6809072,2.6300118,9.283403,1.7526637
1409526410405,4.3783965,10.015544,3.1364043,2.5808237,9.303387,1.7195119
1409526410419,4.514866,10.702681,3.3806129,2.5228622,9.323127,1.6984897
1409526410424,4.8362875,10.396222,2.5659857,2.4591029,9.340561,1.6962091
1409526410436,3.810372,9.822811,2.2936451,2.3999007,9.355633,1.697944
1409526410453,3.229778,10.228029,2.3253684,2.3405247,9.36904,1.706886
1409526410454,2.9287071,12.341511,4.0665517,2.2913206,9.377001,1.7297695
1409526410474,1.0432734,13.96059,2.677316,2.264868,9.373647,1.7819905
1409526410475,2.308609,12.765883,0.83856916,2.2476466,9.370278,1.8210936
1409526410488,4.0318356,10.633847,0.002992752,2.2730176,9.361293,1.8357507
1409526410504,5.461174,8.476072,1.2162545,2.3260763,9.345529,1.8495572
1409526410505,6.415862,7.7248917,4.979341,2.404533,9.3167515,1.8938743
1409526410521,5.8586116,10.584765,11.476007,2.5043998,9.26881,1.9968827
1409526410525,6.2530565,17.683575,11.123461,2.617629,9.193228,2.1915667
1409526410538,4.5914803,19.608511,4.8261123,2.7285745,9.120358,2.354639
1409526410554,0.0724246,18.376696,0.7092823,2.8077087,9.092779,2.3682363
1409526410554,-3.3704374,16.66963,-2.082357,2.8136437,9.1066265,2.3071969
1409526410571,-2.8209682,14.920067,-2.2242134,2.7629943,9.143031,2.222897
1409526410573,-1.7741034,13.434464,0.15502456,2.6992745,9.167196,2.2015479
1409526410587,-1.3856442,12.441469,1.2138603,2.6149511,9.173495,2.2758338
1409526410601,-1.5215151,10.525509,1.1641805,2.5144203,9.177276,2.3718524
1409526410604,-2.2110453,8.605958,1.0654198,2.428887,9.180689,2.4466045
1409526410617,-2.6210523,8.298303,1.2611457,2.3470097,9.188,2.4985204
1409526410636,-2.3181858,8.647258,1.6071079,2.2778902,9.199304,2.5208004
1409526410637,-1.347337,9.247604,1.8231846,2.220682,9.216227,2.5100055
1409526410653,0.8499416,9.745,1.5370775,2.1695158,9.240404,2.465469
1409526410654,1.6753427,9.131485,1.01574,2.1270983,9.26876,2.394982
1409526410670,2.0679917,9.456498,0.973243,2.0826519,9.299511,2.3134496
1409526410673,2.4037786,9.739613,0.7254431,2.029694,9.332218,2.227208
1409526410697,2.3786395,9.895834,0.38486794,1.9710336,9.365326,2.1391804
1409526410699,2.0141222,9.97604,0.24959552,1.9059576,9.398768,2.0496097
1409526410705,1.6059108,9.911995,0.41479546,1.8339404,9.432316,1.9592003
1409526410724,1.2503718,9.649231,0.5518635,1.7517619,9.466711,1.866304
1409526410725,0.88944596,8.867524,0.50996494,1.6610955,9.500775,1.7738128
1409526410733,0.5895722,8.270171,0.44113165,1.5679524,9.53199,1.6891034
1409526410753,0.11911154,8.064868,0.3453636,1.4757094,9.55873,1.6196789
1409526410754,-0.51116204,7.752425,0.18076223,1.382126,9.581807,1.5649554
1409526410782,-0.8774749,7.8865004,0.10354923,1.0885587,9.6377535,1.4488453
1409526410783,-1.1109096,8.26239,0.23283611,1.0885587,9.6377535,1.4488453
1409526410785,-1.2455834,8.326435,-0.01436521,1.0885587,9.6377535,1.4488453
1409526410811,-1.0295067,7.9667063,-0.23702596,0.99039406,9.653147,1.4164332
1409526410812,-0.8283938,7.53994,-0.20590134,0.89066976,9.66736,1.3853731
1409526410814,-0.78290397,7.3472066,-0.1364695,0.79076284,9.680318,1.3551917
1409526410836,-0.53330845,7.551911,-0.010175358,0.68304104,9.693048,1.3223735
1409526410837,-0.089184016,8.002021,0.142455,0.5679466,9.706022,1.2809968
1409526410855,0.4758476,7.767389,0.1448492,0.451315,9.718401,1.232632
1409526410856,1.3329718,7.7769656,0.2873042,0.3375303,9.729053,1.1840717
1409526410879,1.7549498,7.9248075,0.6027403,0.23397675,9.736611,1.1463202
1409526410890,2.3253684,8.251018,0.93014735,0.14248258,9.740344,1.129509
1409526410891,2.6240451,8.191761,1.1420342,0.06391083,9.740362,1.1365066
1409526410911,2.6222494,8.313866,1.3377602,-0.0063562756,9.737549,1.1621124
1409526410913,2.5270798,8.408437,1.5071499,-0.070941485,9.7330675,1.1969799
1409526410914,2.4863784,8.6574335,1.602918,-0.13418822,9.727801,1.2338045
1409526410935,2.5833437,8.892065,1.4155718,-0.19689941,9.722294,1.2683166
1409526410936,2.8203697,9.058462,1.2180501,-0.2561522,9.717274,1.2959083
1409526410953,3.1238346,9.22426,1.210269,-0.3105173,9.712805,1.3173491
1409526410954,3.3333273,9.425972,1.311424,-0.3577096,9.708261,1.3386918
1409526410970,3.2190042,9.636064,1.7585411,-0.39636883,9.702967,1.3659184
1409526410973,3.1627405,9.478644,2.3582888,-0.4308131,9.695812,1.4057008
1409526410986,2.9735985,9.236232,2.144606,-0.46426418,9.68661,1.4575359
1409526411003,2.0853498,9.448118,2.244564,-0.50018156,9.67743,1.5058345
1409526411019,1.8064252,10.149021,1.6220716,-0.541943,9.669137,1.5441768
1409526411020,2.1015105,9.929353,1.1563994,-0.5793688,9.66327,1.5671496
1409526411037,2.3241713,10.275315,1.359308,-0.60357016,9.660217,1.5767952
1409526411038,2.4103625,10.881048,1.6340426,-0.6205451,9.658471,1.5808971
1409526411050,1.816002,11.440094,1.8614918,-0.62889546,9.659006,1.5743105
1409526411053,1.0067618,11.730989,1.6986861,-0.63839734,9.660318,1.5623991
1409526411068,0.6871359,11.939884,1.8531121,-0.65281314,9.662416,1.5433556
1409526411084,0.33159694,12.091916,1.927931,-0.6679863,9.665897,1.5148008
1409526411085,0.1388637,11.67712,1.3994108,-0.6820524,9.671613,1.4714227
1409526411099,0.061052144,10.568604,0.87807345,-0.685223,9.679557,1.4166974
1409526411105,0.6793547,9.854534,1.7621324,-0.66809696,9.688537,1.3624586
1409526411130,0.31184477,8.665813,1.4610616,-0.62581474,9.698281,1.3122749
1409526411131,-0.623091,7.409456,0.19093758,-0.57130295,9.710239,1.2471013
1409526411134,-1.6603789,6.655881,-0.4902128,-0.5182304,9.723274,1.166081
1409526411163,-2.9167361,6.5786676,-0.7673417,-0.45561853,9.737744,1.0673115
1409526411166,-3.6445735,7.463325,-1.4012065,-0.3826698,9.752166,0.9587644
1409526411168,-3.5751417,9.396045,-1.6585833,-0.29490247,9.76572,0.84507793
1409526411211,-2.8341362,12.293029,-1.508347,-0.18285859,9.777377,0.7347474
1409526411213,-1.3652935,16.14111,-1.5382746,-0.041650254,9.7853985,0.6439172
1409526411215,0.130484,19.348143,-1.4670471,0.13266134,9.788669,0.5785945
1409526411215,0.011372458,19.608511,-0.8110358,0.3307064,9.78616,0.5404432
1409526411216,-1.7764976,16.742054,0.87567925,0.50370556,9.778835,0.5394889
1409526411238,-1.6340426,13.335704,1.6304513,0.61594033,9.769271,0.593586
1409526411239,-2.0003555,11.090541,2.5300727,0.7036615,9.758272,0.67184633
1409526411255,-3.8732197,10.301651,3.1226375,0.77514434,9.744442,0.7844837
1409526411256,-4.537611,10.35193,2.5181017,0.79210114,9.732302,0.9084395
1409526411271,-2.7688942,11.777677,1.7184383,0.7781919,9.723613,1.0080563
1409526411284,-0.908001,10.868479,0.908001,0.7931487,9.716533,1.0631589
1409526411285,0.27353755,9.080608,0.6548142,0.8818621,9.707458,1.0761039
1409526411302,0.8870517,8.858546,1.7770962,1.0270461,9.694026,1.0683866
1409526411307,1.4437037,8.780735,2.6114755,1.1890347,9.675746,1.0660903
1409526411332,2.0482395,8.631097,2.5438392,1.3498089,9.653779,1.0737607
1409526411334,2.5318682,8.498219,1.6567876,1.5014257,9.63063,1.0803077
1409526411335,2.6605566,7.8248496,0.5201403,1.6383849,9.608263,1.0804455
1409526411361,2.5121162,6.669049,0.09636662,1.7633706,9.586282,1.0789325
1409526411363,2.3894134,5.7095723,0.14065935,1.8642886,9.565952,1.0896698
1409526411366,2.0991163,5.097854,0.4997896,1.9418539,9.546511,1.1241655
1409526411396,1.8076223,4.787206,0.90261406,2.0041182,9.526405,1.183858
1409526411398,1.6328455,4.6142254,1.2922704,2.0571895,9.505087,1.2616135
1409526411399,1.4520833,4.4957123,1.6370354,2.1063278,9.482415,1.3481735
1409526411407,1.0378864,4.554969,1.7932571,2.1531937,9.459271,1.4339951
1409526411437,1.0899603,4.771644,1.5885528,2.1949236,9.437478,1.5121918
1409526411439,1.3964181,4.914099,1.4652514,2.230184,9.418756,1.5759745
1409526411440,1.6256629,5.0397944,1.5155296,2.259139,9.403877,1.6228864
1409526411468,1.963844,5.5222263,1.8483237,2.2820482,9.393179,1.6525367
1409526411471,2.1027076,5.9651537,2.2882583,2.3030176,9.384189,1.6743646
1409526411472,2.3930047,6.4541693,2.7629087,2.3155584,9.379148,1.6852796
1409526411487,2.765303,6.971317,3.1890767,2.318596,9.377418,1.6907232
1409526411488,3.3740287,7.723695,3.2243912,2.3074532,9.379487,1.694482
1409526411507,4.0815153,8.925584,3.074155,2.280563,9.385997,1.6948383
1409526411508,4.9027267,10.51713,3.0442274,2.239994,9.396679,1.6897444
1409526411515,4.2664676,11.3551,3.3991678,2.192531,9.409682,1.6796066
1409526411548,3.4632127,11.841123,3.4374752,2.1300714,9.425417,1.671734
1409526411549,2.6461914,11.728596,3.709217,2.056614,9.4429455,1.6647862
1409526411550,2.3062148,12.340314,3.9312792,1.985726,9.458097,1.6648283
1409526411555,2.80361,14.8512335,3.7116113,1.9309678,9.468563,1.6697562
1409526411572,1.6190789,15.805323,2.722806,1.8889294,9.475558,1.678137
1409526411592,1.8471266,14.912285,1.110311,1.8561451,9.482783,1.6738987
1409526411594,2.8257565,12.741941,0.56682724,1.8493694,9.487664,1.6536146
1409526411595,5.348048,9.264363,2.211644,1.8750314,9.482546,1.6540807
1409526411624,5.448006,9.432556,6.986879,1.9410008,9.457982,1.717408
1409526411625,5.0984526,12.747927,9.388862,2.024775,9.4125805,1.8638711
1409526411626,5.5683146,17.302896,6.125565,2.1197786,9.352808,2.0498557
1409526411634,1.4329298,16.959328,4.553173,2.229755,9.304341,2.151239
1409526411650,-2.1003134,16.092028,1.8860323,2.291462,9.284482,2.1720896
1409526411654,-3.0831332,14.343662,-1.1372458,2.3030357,9.295361,2.112509
1409526411676,-2.1888988,11.84232,-1.3090298,2.299053,9.316199,2.0231557
1409526411678,-2.405574,10.825383,0.43035775,2.2841887,9.332382,1.9645666
1409526411686,-2.0260932,10.676943,0.98700964,2.2209766,9.345264,1.9757727
1409526411705,-1.834557,9.688137,0.16280572,2.1248174,9.360384,2.0096629
1409526411706,-1.7190368,8.832211,-0.10235212,2.0271833,9.379909,2.0194683
1409526411715,-1.5352819,8.820239,-0.06464344,1.9431075,9.400808,2.0048878
1409526411745,-1.5011644,9.270947,-0.20410569,1.8736613,9.419997,1.9807664
1409526411746,-0.9379285,9.1512375,-0.29029694,1.8115851,9.438915,1.9481858
1409526411749,-0.092775315,8.922591,0.06344634,1.7533702,9.459592,1.9005836
1409526411755,0.6925228,8.713099,0.6194997,1.6954626,9.48311,1.8347791
1409526411779,1.1492168,9.045294,0.98700964,1.6366096,9.508336,1.7559707
1409526411780,1.5759833,10.096947,1.4089876,1.5748806,9.533189,1.6758344
1409526411786,1.5424645,10.247183,0.84814596,1.5099051,9.55762,1.5945122
1409526411810,0.9403227,9.363723,0.19512744,1.4376721,9.581145,1.51827
1409526411811,0.52492875,8.9758625,-0.10534488,1.3530499,9.603757,1.4517256
1409526411815,0.41479546,8.665215,0.049081136,1.2578274,9.626268,1.3867973
1409526411832,0.18315643,8.236652,0.18674773,1.1611274,9.647862,1.31944
1409526411834,-0.22026655,7.855376,0.3298013,1.0704721,9.6671295,1.2534384
1409526411850,-0.5201403,7.687183,0.5267244,0.9884746,9.683254,1.1949509
1409526411854,-0.3878607,7.8446016,0.47884035,0.9156016,9.696332,1.1459552
1409526411868,-0.16460137,8.350976,0.39743748,0.8561162,9.706685,1.1035135
1409526411881,-0.062249243,9.274539,0.30286652,0.8113918,9.715094,1.0625327
1409526411886,-0.16519992,10.376471,0.31483752,0.7717669,9.72228,1.0256932
1409526411898,-0.47285482,9.986814,0.25079262,0.7334033,9.72804,0.99887085
1409526411915,-0.05686229,8.815451,-0.073621705,0.6835204,9.732398,0.9917958
1409526411916,0.38606504,8.297106,-0.338181,0.6180509,9.735896,1.0003568
1409526411932,0.40940848,8.16363,-0.61171854,0.53629684,9.740655,1.0012059
1409526411934,0.20590134,8.4347725,-0.65660983,0.4421714,9.748076,0.9746359
1409526411947,0.14963761,8.811859,-0.7009025,0.34126085,9.756873,0.9259303
1409526411969,0.58119243,8.5143795,-0.58119243,0.24016863,9.764689,0.8738137
1409526411971,1.1563994,8.329428,0.030526072,0.14603662,9.769443,0.84087133
1409526411990,2.544438,8.395268,0.9091981,0.061124478,9.770429,0.83986557
1409526411992,2.7850552,8.260594,1.3431472,-0.009514957,9.768947,0.85905725
1409526411995,2.8742392,8.091804,1.6208745,-0.07179763,9.764275,0.9078329
1409526412022,2.5713725,7.8326306,1.91596,-0.1289071,9.756686,0.9802409
1409526412023,2.2529438,7.7213006,2.0548236,-0.18761571,9.746626,1.0669891
1409526412026,2.042254,7.542334,1.7280151,-0.24962406,9.735167,1.1552637
1409526412034,2.232593,7.510012,1.3150153,-0.3161127,9.723673,1.2331443
1409526412048,2.6563668,7.712322,1.2689269,-0.3804794,9.713023,1.2972301
1409526412070,2.574964,8.071452,1.9710265,-0.43089238,9.70329,1.3531071
1409526412071,3.0262709,9.036316,2.7844565,-0.4638489,9.693458,1.4114145
1409526412091,2.6360161,8.907029,2.855684,-0.47527447,9.683157,1.4768169
1409526412092,2.746748,9.330803,2.5366566,-0.48386955,9.673284,1.5374827
1409526412095,2.9825768,9.7324295,2.0925324,-0.49072462,9.664655,1.5887125
1409526412121,3.6332011,9.685144,1.2479776,-0.497176,9.659008,1.6207315
1409526412122,4.027047,9.623494,0.80325466,-0.50216556,9.656578,1.6336249
1409526412126,3.6954503,10.119094,1.3431472,-0.5086452,9.656724,1.6307482
1409526412134,3.2854433,11.145607,1.8962077,-0.52001494,9.657702,1.6213562
1409526412149,2.585738,11.350311,2.3235726,-0.5295513,9.658483,1.6135961
1409526412169,1.6639702,11.369465,2.4594438,-0.5389922,9.658421,1.610836
1409526412170,0.10654198,11.297041,2.295441,-0.55218256,9.659172,1.6018392
1409526412190,-0.427365,10.582372,1.6478093,-0.57720834,9.662373,1.573465
1409526412191,-0.22984336,10.250176,1.4532804,-0.5990629,9.668998,1.5238044
1409526412195,0.30406362,10.223241,2.0632033,-0.6006498,9.677507,1.4681491
1409526412219,-0.27353755,9.694122,1.8171991,-0.5865869,9.686981,1.4102252
1409526412220,-0.81761986,9.252393,0.338181,-0.55895007,9.698897,1.3376765
1409526412231,-1.7040731,8.632893,-0.7954735,-0.5147511,9.714283,1.2402169
1409526412234,-2.9550436,8.15525,-1.3587095,-0.45474675,9.731202,1.125755
1409526412249,-3.5290532,8.599973,-1.7890673,-0.38197815,9.747631,1.0040905
1409526412265,-3.4284968,10.390237,-1.7878702,-0.2936625,9.763001,0.87633264
1409526412266,-2.2559366,13.690644,-1.5610195,-0.18541735,9.776199,0.749647
1409526412280,-0.9343372,17.698538,-1.3754689,-0.04551639,9.785536,0.6415744
1409526412298,0.18974048,19.608511,-1.5394717,0.12567465,9.789429,0.567165
1409526412299,-1.1115081,19.608511,-1.3180081,0.31389835,9.787393,0.52803355
1409526412315,-2.706645,18.532318,-0.7721301,0.469947,9.782034,0.51122063
1409526412316,-2.4941597,15.236101,0.61291564,0.5649023,9.775438,0.54045117
1409526412330,-2.166154,11.116279,2.034473,0.62983215,9.766361,0.62601334
1409526412334,-2.717419,9.471462,3.0591912,0.67531013,9.754712,0.7482891
1409526412347,-4.1862617,10.014347,3.4374752,0.688583,9.742998,0.877624
1409526412366,-1.5280992,11.415554,2.0081367,0.6764302,9.732982,0.99090904
1409526412367,0.01616086,9.318831,1.6531962,0.7177669,9.723425,1.0536587
1409526412381,0.76434886,7.7051396,1.9907787,0.8326288,9.71173,1.0767509
1409526412398,0.81402856,6.8348475,2.5719712,0.9895488,9.696455,1.081642
1409526412398,2.4881742,7.8188643,2.9472623,1.1525528,9.678121,1.0844402
1409526412414,3.469797,8.277354,2.5061307,1.3237906,9.655724,1.0885566
1409526412415,3.445855,7.9307933,1.2467805,1.5011082,9.629632,1.0896151
1409526412430,2.6599581,6.8887167,-0.17896658,1.6708449,9.602457,1.0823457
1409526412434,2.4157495,6.1836243,-0.66498953,1.8112622,9.577527,1.0773493
1409526412448,2.31639,5.7640405,-0.60932434,1.9221123,9.554446,1.0901544
1409526412464,1.8154035,5.21517,-0.24959552,2.012649,9.530953,1.1316245
1409526412468,1.5466543,5.1050367,0.3549404,2.0879629,9.50586,1.203932
1409526412479,1.1468226,5.1768627,0.9235633,2.1508439,9.478897,1.3018314
1409526412486,0.9175778,5.096657,1.2773066,2.203495,9.450746,1.4136459
1409526412497,0.78410107,4.9542017,1.5933412,2.248433,9.422996,1.523853
1409526412517,0.7661445,5.0236335,1.738789,2.2848015,9.398035,1.6208069
1409526412519,0.8984242,5.1888337,1.8698715,2.3123767,9.376017,1.7069409
1409526412535,1.0133458,5.4982843,2.018312,2.3360207,9.357871,1.7730421
1409526412537,1.1420342,5.876568,2.030283,2.3530736,9.34493,1.8181612
1409526412557,1.8261774,6.525397,2.48578,2.3630023,9.337194,1.8448256
1409526412558,2.380435,6.7606273,2.7862523,2.3667338,9.333493,1.858732
1409526412568,2.984971,7.138911,2.9526494,2.362406,9.333775,1.8628178
1409526412582,3.3560722,7.776367,3.3441012,2.3481221,9.338388,1.8577424
1409526412599,3.7942111,8.845378,3.6804867,2.3210135,9.347607,1.845408
1409526412599,3.9426517,9.705495,3.8863878,2.2824123,9.3606615,1.8272902
1409526412615,4.156334,10.533889,3.9875429,2.2347152,9.3764925,1.8049462
1409526412616,4.5884876,10.720038,4.283227,2.1846364,9.39342,1.7780316
1409526412632,3.903746,10.071808,4.4364557,2.1427116,9.408397,1.749647
1409526412634,3.204639,11.827356,4.3544545,2.099021,9.422807,1.7248853
1409526412648,2.4893713,15.699379,4.098873,2.0548615,9.436445,1.7033641
1409526412665,2.7850552,16.837822,2.0506337,2.004758,9.449081,1.6929872
1409526412669,4.220379,14.65012,-0.35194764,1.9763921,9.457249,1.680691
1409526412695,6.2249246,12.261306,-0.7104794,1.9987624,9.456528,1.6581405
1409526412697,8.081628,9.584588,0.6841431,2.0702655,9.440507,1.6616954
1409526412698,6.6600704,6.667852,5.495291,2.1805632,9.403525,1.7289468
1409526412715,6.505645,8.347384,10.557233,2.2910671,9.351486,1.8630905
1409526412716,5.975329,14.045585,10.227431,2.4244928,9.282508,2.0315711
1409526412734,5.8801594,18.384476,5.209184,2.5472643,9.224943,2.1406198
1409526412735,-3.8720226,16.127342,3.1681273,2.6472874,9.195416,2.1462896
1409526412748,-4.2610803,14.874577,-0.8415619,2.6065857,9.215057,2.1115913
1409526412767,-3.1196449,12.979566,-2.022502,2.5423067,9.247219,2.0484226
1409526412769,-2.5809495,12.372037,-1.4131776,2.471176,9.272657,2.0202732
1409526412783,-2.3971944,11.700463,-1.353921,2.3670886,9.297462,2.030884
1409526412798,-2.3427265,10.178948,-1.7124528,2.2413154,9.326492,2.0404544
1409526412799,-2.1589713,9.852738,-1.1761516,2.1216044,9.356915,2.0291197
1409526412814,-1.8148049,10.195708,-0.4866215,2.0183659,9.3851595,2.0038433
1409526412815,-1.3251907,9.792884,0.08738836,1.934297,9.408305,1.9780433
1409526412829,-0.90261406,8.546701,0.6859388,1.8684877,9.426317,1.9554247
1409526412836,-0.23343466,7.477092,1.2395979,1.8107381,9.441933,1.9342998
1409526412853,0.46627077,7.2352777,1.5801731,1.7565316,9.458374,1.90372
1409526412857,1.1456255,8.05589,2.0817583,1.6982774,9.477171,1.8626573
1409526412869,1.8034325,9.147048,2.4139538,1.6366599,9.496714,1.8177382
1409526412893,1.951873,9.2308445,2.1410148,1.574403,9.515443,1.774258
1409526412894,1.602918,8.842385,1.5155296,1.5085207,9.533808,1.732417
1409526412896,1.1228806,8.809465,0.65062433,1.4338858,9.553745,1.685324
1409526412923,0.6386533,8.907627,0.04129998,1.352808,9.577067,1.6186718
1409526412925,0.24061728,8.875306,-0.25139117,1.2704558,9.60269,1.5312334
1409526412927,-0.59017074,8.206725,-0.7751228,1.1915631,9.627476,1.4360569
1409526412954,-0.6733692,8.158242,-0.5189432,1.114931,9.650006,1.3433845
1409526412956,-0.39863458,8.513183,-0.12569559,1.0416063,9.669772,1.2573715
1409526412957,-0.4177882,9.194932,0.32920274,0.9788518,9.685291,1.1863346
1409526412967,-0.40162733,9.894038,0.62368953,0.9272908,9.696575,1.1344436
1409526412988,-0.22565351,9.441534,0.6512229,0.8814566,9.704423,1.1034553
1409526412990,0.016759412,8.268375,0.19812019,0.83359677,9.7096,1.0950774
1409526412995,0.29029694,7.7727757,-0.12150574,0.77477187,9.713538,1.1033062
1409526413021,0.47046062,8.069058,-0.091578215,0.70015633,9.718512,1.1093724
1409526413023,0.8571242,8.371924,0.02813187,0.61324406,9.726412,1.0914323
1409526413027,1.01574,8.539519,0.10115502,0.5219325,9.736409,1.0489603
1409526413053,1.417966,8.519168,0.09636662,0.4282319,9.7460165,1.0010841
1409526413055,2.7018566,8.732252,0.075417355,0.33576167,9.753006,0.9677518
1409526413057,3.210026,8.977059,0.6817489,0.25362265,9.757711,0.9450617
1409526413067,3.4332852,8.857349,1.0247183,0.18017407,9.758856,0.9500805
1409526413088,3.1860838,8.696938,1.3066356,0.11135769,9.756663,0.98259646
1409526413090,2.586935,8.702325,1.5065514,0.04401662,9.751197,1.0404938
1409526413096,2.1763294,8.754398,1.6639702,-0.02551502,9.742772,1.1171837
1409526413120,1.9883845,8.6496525,1.4879963,-0.09694778,9.73232,1.201237
1409526413121,2.6252422,7.797915,1.091756,-0.16811675,9.72097,1.2825184
1409526413127,3.0178912,7.6369047,1.62686,-0.2308278,9.709662,1.3563011
1409526413148,2.8508956,7.8529816,2.6036944,-0.28124404,9.697887,1.4290899
1409526413149,2.7132292,7.949348,3.7295678,-0.32023513,9.685226,1.5047299
1409526413166,1.7908629,7.6889787,3.3123782,-0.34988216,9.6711035,1.5867332
1409526413169,1.8070238,8.478467,2.6844985,-0.3841662,9.65771,1.6587512
1409526413193,2.486977,9.32781,2.1045034,-0.4127687,9.6468315,1.7142538
1409526413194,2.6850972,9.099164,1.3299791,-0.43014243,9.640231,1.7468055
1409526413196,4.028843,9.815628,0.92296475,-0.44495022,9.637369,1.7588459
1409526413223,4.2544966,10.644022,1.4862007,-0.448599,9.638042,1.7542219
1409526413225,3.406949,11.28926,2.0644004,-0.44849014,9.640204,1.7423351
1409526413227,2.6922798,11.373655,2.344522,-0.45885772,9.641802,1.7307471
1409526413266,2.0452468,11.51611,2.835932,-0.4790119,9.643033,1.7183833
1409526413270,0.98820674,11.376648,2.9376855,-0.49983472,9.646109,1.6950345
1409526413271,0.074220255,10.644022,2.3289597,-0.5203297,9.65241,1.6524624
1409526413272,-0.0664391,10.291476,1.8315643,-0.54276234,9.660156,1.599117
1409526413305,0.092176765,10.428544,2.429516,-0.54661965,9.670188,1.5359212
1409526413308,-0.45789108,10.081385,2.2164323,-0.530705,9.682035,1.4652385
1409526413309,-0.5518635,9.434352,0.66858083,-0.5036457,9.697357,1.3704019
1409526413310,-2.782661,7.7093296,-1.6226702,-0.45591813,9.716709,1.2442346
1409526413316,-3.715801,8.26658,-2.2493525,-0.3987668,9.737316,1.0936373
1409526413334,-3.9097314,10.1065235,-2.5061307,-0.32776827,9.756482,0.93487424
1409526413336,-3.0669725,13.136386,-2.1511903,-0.23885457,9.772884,0.7772424
1409526413347,-1.7226281,17.116747,-1.6340426,-0.11968539,9.784831,0.6427704
1409526413372,-0.34356794,19.594746,-1.7256209,0.038793914,9.791126,0.5502358
1409526413373,-0.84216046,19.608511,-1.6998832,0.23157197,9.791229,0.49860033
1409526413376,-2.1799207,19.247585,-1.1372458,0.4152881,9.786618,0.46907595
1409526413399,-2.034473,16.022596,0.63087213,0.55403644,9.779074,0.48284483
1409526413400,-1.2587515,11.040262,2.5276785,0.66115594,9.768495,0.5565703
1409526413416,-1.2904748,8.459911,3.8774097,0.7502752,9.75395,0.68406343
1409526413418,-3.4237084,8.922591,4.36044,0.8116899,9.737029,0.8377658
1409526413436,-3.8935704,10.02572,3.477578,0.83117807,9.721662,0.98429006
1409526413437,-1.5688007,11.41735,2.3768437,0.848605,9.70952,1.0841964
1409526413447,-0.11911154,9.927557,1.7357962,0.93047017,9.697841,1.1209432
1409526413468,0.44113165,8.166023,1.8489223,1.0774518,9.683557,1.1127523
1409526413482,0.74399817,6.892308,2.3062148,1.2427422,9.666359,1.0897259
1409526413484,2.393603,7.9996266,2.9897594,1.4061038,9.646274,1.0689582
1409526413498,3.6882677,8.722076,2.5875335,1.5766606,9.621358,1.0554749
1409526413499,2.8832173,7.5566993,0.29149407,1.7500072,9.592414,1.0456836
1409526413514,2.5300727,6.949769,-0.2633622,1.8932328,9.566957,1.0292649
1409526413516,2.2379801,6.2362967,-0.089782566,2.0036578,9.545034,1.0237477
1409526413528,2.0380642,5.5407815,0.44532153,2.0902941,9.5245495,1.0411656
1409526413550,1.869273,5.125387,0.8936358,2.1616073,9.503266,1.0889236
1409526413551,1.6424223,5.1026425,1.2324153,2.2231147,9.4803295,1.1625427
1409526413556,1.459266,5.179257,1.5676036,2.2783191,9.455682,1.252881
1409526413597,1.364695,5.155315,1.9375077,2.327681,9.430356,1.3493263
1409526413599,1.3192052,5.3079453,2.131438,2.369591,9.405714,1.4449863
1409526413602,1.417966,5.3420625,2.291251,2.406392,9.381654,1.5376104
1409526413604,1.6837224,5.6323595,2.2643163,2.4338925,9.3607235,1.6196935
1409526413629,1.8914193,6.0489507,2.1033063,2.4529681,9.34414,1.6853426
1409526413631,2.397793,6.5990186,2.2158337,2.4639404,9.333015,1.7303771
1409526413635,2.7383683,6.907272,2.4690206,2.4670722,9.327135,1.7574152
1409526413661,3.0400376,6.9731126,2.8089972,2.4595716,9.326187,1.7728935
1409526413663,3.3010056,6.9916677,3.2632968,2.4389715,9.330063,1.7809335
1409526413665,3.7367504,7.471705,3.6182373,2.4037414,9.338503,1.7845986
1409526413681,4.377199,9.548675,3.9851487,2.3576167,9.350372,1.7839836
1409526413682,4.50888,10.282497,3.7337575,2.3065748,9.363928,1.7795947
1409526413700,4.4723687,10.114903,3.095703,2.2562733,9.378558,1.7669873
1409526413700,3.7313633,10.555437,3.2465374,2.21128,9.393528,1.7442048
1409526413707,2.6862943,14.204799,4.344279,2.1701727,9.407301,1.7214582
1409526413741,2.203264,16.93838,3.5727475,2.129069,9.418961,1.7089902
1409526413743,3.2363622,16.003443,0.90021986,2.0953195,9.428517,1.6979585
1409526413744,4.38498,13.417107,-0.32561144,2.1049929,9.430657,1.6739516
1409526413748,5.3683987,10.044873,0.27473465,2.1589293,9.42107,1.6591743
1409526413776,6.209362,7.2221093,3.3063924,2.2383711,9.39545,1.6987038
1409526413778,6.2219315,8.066066,8.759786,2.334891,9.35081,1.8113608
1409526413779,5.485116,13.270461,10.305841,2.4576025,9.284565,1.9817822
1409526413806,4.7123876,17.996017,6.397307,2.5803695,9.218561,2.1284335
1409526413808,0.3286042,15.729306,3.7008374,2.6711545,9.181638,2.1755128
1409526413809,-2.5480292,14.122199,2.2319946,2.7036593,9.177597,2.1522882
1409526413839,-3.0585926,12.658144,0.35194764,2.6712172,9.193237,2.125879
1409526413841,-2.0739772,13.177088,0.5255273,2.6069367,9.209148,2.136787
1409526413850,-1.400608,14.48911,1.2515689,2.5132751,9.223915,2.184769
1409526413852,-1.5981296,13.636176,-0.86251116,2.393658,9.245352,2.228063
1409526413882,-1.9141643,12.021287,-1.8830396,2.2705402,9.278707,2.2182457
1409526413883,-2.1134815,10.788872,-1.252766,2.155889,9.314358,2.1829538
1409526413884,-1.894412,9.244612,0.31304187,2.0539255,9.340686,2.1687267
1409526413898,-1.0283096,8.032547,1.2635399,1.9718264,9.35577,2.1798787
1409526413899,0.0077811554,7.153875,1.7118542,1.9064035,9.369069,2.180959
1409526413909,0.91697925,7.451953,1.8602947,1.8496833,9.382915,2.1702514
1409526413944,1.8830396,8.492832,2.042254,1.7912188,9.402718,2.1332636
1409526413946,2.4432828,8.987833,1.8309658,1.7294145,9.425892,2.0813653
1409526413950,2.2469583,8.759187,1.4772224,1.6626908,9.450312,2.0242205
1409526413952,1.8854338,8.5538845,1.0600328,1.587702,9.475273,1.9669316
1409526413979,1.4706384,8.605359,0.5410896,1.5034541,9.501231,1.9069903
1409526413980,0.7374141,8.449737,-0.09995792,1.4090533,9.530893,1.829481
1409526413982,0.0011971008,8.170812,-0.362123,1.3066443,9.564757,1.7258286
1409526413999,-0.65541273,7.6919713,-0.58418524,1.2034765,9.598007,1.6125435
1409526414001,-1.1240777,7.369353,-0.58119243,1.1033932,9.626724,1.5096741
1409526414008,-1.3700819,7.6069775,-0.4854244,1.0077752,9.649756,1.4272369
1409526414037,-1.6490064,8.046313,-0.48123455,0.91419005,9.669536,1.3545196
1409526414039,-1.5478514,8.590396,-0.07182605,0.82979435,9.685153,1.2960147
1409526414040,-1.2653356,8.985439,0.24420857,0.7554912,9.697347,1.249434
1409526414049,-0.90740246,8.99322,0.24779987,0.6863246,9.706771,1.2157166
1409526414073,-0.55006784,8.719084,0.12749124,0.61457026,9.71399,1.1962932
1409526414075,0.25917232,7.545925,-0.4914099,0.5355693,9.720226,1.1835443
1409526414077,0.8900445,7.8667483,-0.41120413,0.450041,9.727273,1.161036
1409526414104,1.6184803,8.546701,-0.16699557,0.3601207,9.735429,1.123453
1409526414105,2.6240451,9.057265,0.2172738,0.27603954,9.743201,1.0790025
1409526414109,3.323152,9.438541,0.6619968,0.2042478,9.748969,1.0422329
1409526414130,3.8660371,9.377489,1.0761937,0.140114,9.753006,1.0147132
1409526414131,4.1383777,9.305065,1.3251907,0.08135096,9.754486,1.0068648
1409526414145,4.0282445,9.181165,1.6101006,0.026052525,9.753426,1.0199996
1409526414147,3.6349967,8.892664,1.7537527,-0.025809601,9.749819,1.0539186
1409526414162,3.2369606,8.422802,1.8866309,-0.079955034,9.743953,1.1042541
1409526414176,2.980781,8.288128,1.8064252,-0.138774,9.736436,1.1631625
1409526414177,2.8245595,8.429385,1.7316064,-0.19940515,9.728159,1.2221091
1409526414190,2.689287,8.516175,1.733402,-0.25746107,9.719498,1.2788595
1409526414197,2.460641,8.597578,1.8010383,-0.31272012,9.710223,1.3357432
1409526414208,2.3948002,8.706514,2.2301989,-0.3657381,9.700125,1.3943493
1409526414232,2.1763294,8.598177,2.8951883,-0.41558254,9.689212,1.4549422
1409526414234,1.7106571,8.504205,2.6264393,-0.46646324,9.677256,1.5177387
1409526414236,1.1079168,8.974665,2.4756045,-0.5211923,9.666213,1.56942
1409526414248,1.3006501,9.352949,0.6985083,-0.57826227,9.656854,1.6065977
1409526414270,3.527856,10.089166,0.21188685,-0.62780875,9.651634,1.6193196
1409526414271,4.350863,10.533889,0.79607207,-0.6492536,9.650681,1.616547
1409526414276,3.9438488,10.92175,1.5705963,-0.6566188,9.652158,1.6047047
1409526414315,3.0160956,11.152191,2.1272483,-0.66306657,9.654101,1.5903002
1409526414317,1.809418,11.57836,2.5737667,-0.6759456,9.654635,1.5816095
1409526414318,0.4345476,11.614272,2.6162639,-0.69688076,9.654098,1.5758026
1409526414341,-0.53211135,11.077373,1.8435353,-0.7249666,9.655034,1.5572752
1409526414342,-0.6362591,10.419566,0.57760113,-0.7498044,9.660164,1.5130898
1409526414344,0.11671733,10.094553,0.88944596,-0.76648146,9.668335,1.4512737
1409526414365,0.599149,9.611523,1.7280151,-0.75294036,9.679736,1.3806435
1409526414368,-0.7038953,8.430583,1.2976574,-0.71092314,9.6935,1.3042423
1409526414368,-1.2072762,7.74225,-0.05566519,-0.6576288,9.709323,1.2111783
1409526414376,-2.814384,7.313089,-1.1228806,-0.58756346,9.727148,1.098989
1409526414392,-3.8007953,7.872135,-1.8249803,-0.5066087,9.74464,0.97762233
1409526414396,-3.9498343,9.844358,-2.1320367,-0.41411176,9.760872,0.8510411
1409526414408,-3.4446578,13.385384,-1.7717092,-0.30508476,9.775016,0.7255317
1409526414438,-2.4013844,18.213291,-1.3162124,-0.17187771,9.785267,0.6240403
1409526414439,-0.95229375,19.608511,-1.489792,-0.013893136,9.790509,0.56224626
1409526414440,-0.75716627,19.608511,-1.1647792,0.16680743,9.791486,0.51900077
1409526414470,-1.9566613,17.144878,0.40102878,0.3377136,9.787297,0.51491934
1409526414471,-1.4856021,12.461222,2.019509,0.45600578,9.779691,0.56576395
1409526414473,-1.6645688,9.697714,3.2758665,0.5449715,9.768329,0.673164
1409526414477,-4.0240545,8.959103,3.9282866,0.60312676,9.75362,0.82068616
1409526414498,-4.0545807,10.7990465,3.3842041,0.61488634,9.738415,0.9775387
1409526414500,-2.232593,11.5203,2.0057425,0.61432064,9.724922,1.1040368
1409526414508,-0.7787141,9.560646,1.2563573,0.66589195,9.7135315,1.172307
1409526414532,0.12988544,7.374141,1.2360066,0.790878,9.701719,1.1922827
1409526414534,0.75237787,7.055712,2.441487,0.9510147,9.687359,1.1920778
1409526414537,1.9255368,7.511808,3.0334535,1.1147935,9.668973,1.1994061
1409526414569,2.4666264,7.4268136,2.8006175,1.282234,9.646397,1.213812
1409526414570,2.707842,7.3747396,1.8166006,1.4463661,9.621339,1.2281007
1409526414572,2.7252002,7.0461354,0.6500258,1.5925299,9.597236,1.2358487
1409526414577,2.5623944,5.9837084,0.09636662,1.7150884,9.575384,1.241321
1409526414600,2.1134815,4.8757915,0.29747957,1.8111788,9.555527,1.257755
1409526414601,2.0763714,4.4448357,0.7044938,1.882199,9.53679,1.2951372
1409526414609,1.9111716,4.1946416,1.0821792,1.9405717,9.51704,1.3529737
1409526414634,1.5915456,3.9552212,1.2761095,1.9952874,9.495454,1.4232289
1409526414635,1.3156139,3.5769374,1.543063,2.0462599,9.473548,1.4950309
1409526414637,1.110311,3.3123782,1.5328877,2.0924091,9.452666,1.5618306
1409526414666,1.1719618,3.3560722,1.4790181,2.1322975,9.434387,1.6174175
1409526414667,1.347337,3.5003228,1.3347675,2.1699762,9.4173765,1.6657143
1409526414669,1.6651673,3.9737763,1.5831659,2.2028096,9.403846,1.6987289
1409526414677,1.9033904,4.5441947,2.006341,2.2306721,9.394155,1.7159193
1409526414698,2.1799207,5.3845596,2.5264814,2.2521663,9.3885145,1.7187016
1409526414700,2.6210523,6.543353,3.2291796,2.264699,9.387115,1.7098619
1409526414709,3.1866825,7.9756846,4.056975,2.265301,9.3899355,1.6934997
1409526414736,3.7978024,9.332,4.5364137,2.2517512,9.396303,1.6761587
1409526414738,4.420295,10.672154,4.6339774,2.2231607,9.405907,1.6603858
1409526414739,4.772841,12.098499,4.6686935,2.182198,9.418389,1.6438904
1409526414769,4.734534,12.8371105,4.23235,2.1342704,9.43229,1.6270227
1409526414770,4.3957543,12.554595,3.34051,2.0863836,9.447189,1.6024929
1409526414771,4.6920366,13.484742,2.4061728,2.043165,9.462477,1.5676135
1409526414777,3.4638114,16.059109,3.4332852,2.0219998,9.474565,1.5213622
1409526414794,2.7222073,18.423382,2.677316,2.0006166,9.481838,1.5042186
1409526414817,3.549404,17.221493,0.23403321,1.980834,9.485061,1.5100739
1409526414819,5.000889,14.069527,-1.0414777,1.9986193,9.482308,1.5039101
1409526414821,7.0371575,11.168951,2.6366146,2.0548644,9.468723,1.5136776
1409526414829,5.023035,6.9000893,8.728063,2.143096,9.432472,1.6143184
1409526414853,4.6579194,10.8624935,12.421717,2.225221,9.377652,1.8106451
1409526414855,4.797382,16.626534,8.508993,2.321951,9.303898,2.0533967
1409526414858,1.073201,16.53316,4.7919946,2.4300854,9.247479,2.1792676
1409526414887,-3.3883939,14.984112,2.700061,2.4978719,9.219925,2.219011
1409526414888,-4.232949,13.4260845,0.12629414,2.5058143,9.2244835,2.1909266
1409526414890,-2.5049336,12.6060705,-0.5638345,2.4833949,9.243713,2.1346927
1409526414915,-1.6927006,13.132795,0.049679685,2.447505,9.25685,2.1191566
1409526414916,-1.1336545,13.522451,-0.64583594,2.3765585,9.2683325,2.1495085
1409526414918,-0.9684546,12.0889225,-1.922544,2.2798488,9.289225,2.1640193
1409526414928,-1.5269021,10.970232,-1.9686323,2.1843834,9.317638,2.140205
1409526414940,-1.9865888,10.455479,-1.287482,2.0963404,9.346153,2.103612
1409526414960,-1.8794483,9.896433,-0.32441434,2.0163739,9.370491,2.0732918
1409526414961,-1.2138603,9.143456,0.7146692,1.945945,9.390345,2.0506446
1409526414985,-0.4177882,8.516175,1.1827357,1.8841575,9.40854,2.0247772
1409526414986,0.40940848,7.8787193,1.4024036,1.8271441,9.426075,1.9952503
1409526414991,1.0666169,7.8954787,1.6184803,1.7719508,9.445477,1.952832
1409526415016,1.6831238,8.673594,1.9117701,1.71103,9.466059,1.9069612
1409526415027,1.9111716,9.041702,1.9027919,1.6434891,9.486745,1.8630643
1409526415030,1.0923545,8.374319,0.9947908,1.5700992,9.507665,1.8192071
1409526415059,0.7529764,8.484452,0.39803603,1.4864101,9.530911,1.7671161
1409526415061,0.37349546,8.673594,0.1376666,1.3963751,9.557465,1.6956942
1409526415063,0.107739076,8.520964,-0.17118542,1.3037597,9.5868025,1.6011974
1409526415067,-0.50397944,7.8637557,-0.5907693,1.2146099,9.6151705,1.4978737
1409526415083,-0.7637503,7.772177,-0.760159,1.1289864,9.639942,1.4026073
1409526415084,-0.8194155,7.8487916,-0.46746787,1.0438625,9.661996,1.3139968
1409526415089,-1.0827777,8.3312235,-0.38606504,0.9640239,9.679594,1.2435819
1409526415106,-0.8475474,9.074024,0.035913024,0.8897227,9.693578,1.1888486
1409526415109,-0.039504327,9.548077,0.3321955,0.82254475,9.704314,1.1489512
1409526415131,0.34835634,9.233239,0.26156655,0.76215005,9.711851,1.1267068
1409526415132,0.66020113,8.675988,-0.013766659,0.69948316,9.716853,1.1242188
1409526415137,0.93732995,8.32045,-0.14305355,0.6235982,9.721043,1.1326296
1409526415158,1.3640964,8.449138,-0.059855044,0.52891004,9.726417,1.1346601
1409526415159,1.6364368,8.582615,-0.0688333,0.422552,9.733437,1.118951
1409526415180,1.8650831,8.265383,-0.108337626,0.31316364,9.74095,1.0891517
1409526415182,2.2948422,8.210316,0.017357962,0.20188297,9.747211,1.0590105
1409526415190,2.806603,8.614936,0.39983168,0.0942644,9.751414,1.0350946
1409526415213,3.1950622,9.050681,1.0576386,-0.005602825,9.752195,1.0320255
1409526415215,2.7419596,8.008605,1.6639702,-0.09272653,9.748826,1.059338
1409526415231,2.2948422,7.377134,1.7986441,-0.17945305,9.7413435,1.1155471
1409526415233,2.0003555,6.729502,1.7328035,-0.2700289,9.731021,1.1852088
1409526415239,1.9740193,6.464943,1.5580268,-0.3676165,9.719227,1.2537396
1409526415273,1.9728222,6.427833,1.417966,-0.46622738,9.707218,1.312605
1409526415278,1.8764555,6.7402763,1.4143747,-0.5579206,9.695776,1.3605409
1409526415281,1.8273745,7.438186,1.7986441,-0.63577104,9.685195,1.4011391
1409526415283,1.9542671,8.194754,2.2697031,-0.6959891,9.67541,1.4395888
1409526415321,2.0578163,9.058462,2.3068132,-0.7388157,9.666572,1.4771426
1409526415322,2.0362685,10.014946,2.3612814,-0.77230877,9.658574,1.5119021
1409526415322,2.472612,10.448297,2.1212628,-0.79321915,9.652857,1.5373839
1409526415323,3.58412,10.896012,1.4520833,-0.80164886,9.64994,1.5512698
1409526415329,3.1136594,10.616488,1.7501614,-0.7941383,9.6502905,1.5529466
1409526415342,3.7391446,11.702858,2.4181437,-0.7921929,9.650821,1.5506359
1409526415360,3.3752258,12.137405,2.9173348,-0.7803025,9.652321,1.5473197
1409526415363,2.9227216,11.991958,2.8095956,-0.7650102,9.653731,1.5461642
1409526415380,2.095525,11.890802,2.1290438,-0.7502499,9.656081,1.5387052
1409526415381,1.5035586,11.992557,1.6950948,-0.7421694,9.661461,1.5085647
1409526415389,1.1115081,12.022484,1.6178818,-0.7352089,9.670957,1.44999
1409526415408,0.38965634,11.007342,0.0017956513,-0.7292252,9.681722,1.3794556
1409526415409,0.25797522,9.794081,0.3429694,-0.7191876,9.695104,1.2876873
1409526415427,-0.6721721,8.342596,0.7038953,-0.6952185,9.707544,1.2044333
1409526415445,-1.9901801,6.9557543,-0.23283611,-0.6623071,9.7196455,1.1225895
1409526415447,-3.1585505,6.129755,-1.353921,-0.6231975,9.732672,1.02817
1409526415450,-4.3275194,6.397307,-1.9967642,-0.57507443,9.74609,0.9238041
1409526415458,-4.9344497,7.7506294,-1.9219455,-0.5132971,9.759605,0.810565
1409526415484,-4.5112743,10.460866,-1.3269863,-0.43050128,9.77259,0.69395024
1409526415485,-3.2357635,14.628572,-0.4309563,-0.3168132,9.783653,0.5917178
1409526415490,-1.8752584,19.046473,-0.092775315,-0.16654739,9.790964,0.5288163
1409526415520,-0.86251116,19.608511,-0.83018947,0.017312296,9.7934265,0.50880337
1409526415521,-1.9458874,19.608511,-1.2413936,0.21681525,9.791663,0.49670133
1409526415522,-2.3906105,18.66819,-0.688333,0.37989184,9.786353,0.50333476
1409526415541,-1.5131354,14.499884,0.60932434,0.4957325,9.779332,0.5378903
1409526415542,-1.0971429,10.161591,1.9656396,0.5934366,9.768725,0.6247011
1409526415560,-2.991555,8.469488,3.2429461,0.6656787,9.754975,0.7534818
1409526415561,-4.1742907,10.251971,3.4105403,0.6886162,9.741497,0.89411217
1409526415580,-1.9009962,12.4289,2.3690627,0.69186467,9.730001,1.0093433
1409526415580,0.4794389,12.0571995,1.353921,0.7654591,9.718601,1.0645475
1409526415589,2.9107506,8.869919,2.5659857,0.9213411,9.704539,1.0693249
1409526415609,3.582923,8.494029,3.506907,1.1128767,9.684035,1.0730082
1409526415617,4.216788,8.595184,3.2555158,1.301666,9.658742,1.08846
1409526415636,4.3155484,8.588001,1.7603368,1.4873856,9.629967,1.105361
1409526415639,3.791817,7.885902,0.6536171,1.6537789,9.602271,1.1098701
1409526415640,3.2842462,6.666056,0.2208651,1.7884562,9.578343,1.107772
1409526415670,2.7515364,5.7005944,0.35075054,1.8875562,9.55845,1.115154
1409526415671,2.4229321,5.4168816,0.7811083,1.9561992,9.540723,1.1481601
1409526415672,1.804031,5.084686,1.0301052,2.0094433,9.521719,1.2121886
1409526415678,1.5436616,4.830302,1.2569559,2.0564668,9.500209,1.2989874
1409526415693,1.3365631,4.582502,1.4036007,2.1017585,9.476458,1.3963405
1409526415705,1.316811,4.4436383,1.3676877,2.1442852,9.4517765,1.4954492
1409526415724,1.1563994,4.3688197,1.4514848,2.1809967,9.428041,1.5892332
1409526415725,1.3132197,4.3502645,1.4915876,2.2124252,9.4049425,1.6800586
1409526415740,1.6771383,4.3448777,1.5664065,2.235003,9.384591,1.7619932
1409526415741,2.0290859,4.5136685,1.6932992,2.2504687,9.367531,1.8317065
1409526415758,2.3786395,4.795586,2.0649989,2.2599902,9.354594,1.8853191
1409526415759,2.5007436,5.093664,2.5689783,2.2622476,9.346431,1.9227256
1409526415773,2.566584,5.3875523,2.9107506,2.2533376,9.343949,1.9451096
1409526415789,3.232771,6.733692,3.482965,2.228965,9.348095,1.953261
1409526415790,3.5643678,7.8326306,3.8474822,2.1902716,9.357838,1.9503846
1409526415806,3.8121676,9.318831,4.0264487,2.1371853,9.37322,1.9353576
1409526415812,4.3622355,10.692505,4.1425676,2.0743499,9.392453,1.9103065
1409526415829,3.1860838,10.647015,4.933253,2.014549,9.4111395,1.882135
1409526415830,2.861071,10.851719,4.824915,1.9503148,9.429205,1.8592427
1409526415838,2.5025394,12.243947,4.2556934,1.8936025,9.444691,1.8391538
1409526415858,2.4959552,16.780361,3.9713821,1.8569777,9.457887,1.8084238
1409526415859,1.922544,18.151041,2.31639,1.836977,9.468009,1.7755915
1409526415878,4.060566,16.707338,-0.089782566,1.8275517,9.474501,1.7505138
1409526415879,6.232107,13.958196,-0.8451532,1.8708246,9.471165,1.7226293
1409526415891,7.840412,10.357317,-0.65541273,1.9547548,9.454479,1.7210848
1409526415908,5.9029045,6.0878563,3.1280246,2.0581572,9.420732,1.7844359
1409526415911,5.9705405,6.63972,9.876082,2.1374867,9.375519,1.9238448
1409526415933,3.882198,10.746374,13.457808,2.2455413,9.307845,2.1194265
1409526415934,3.8468835,16.131533,7.241862,2.3465188,9.236415,2.3136294
1409526415938,1.4933833,16.385319,4.010288,2.439361,9.197347,2.3724916
1409526415965,-4.1258082,14.887745,2.6222494,2.4879363,9.194105,2.3343096
1409526415967,-6.0782795,13.883976,-0.20290859,2.4514751,9.217196,2.2812147
1409526415970,-2.8299465,15.41806,-1.821389,2.358635,9.249942,2.2462888
1409526416003,-2.124854,15.393519,-3.618836,2.251051,9.281296,2.227266
1409526416005,-2.1643584,13.232154,-4.1635165,2.1249928,9.319225,2.192449
1409526416006,-2.3762453,11.317391,-2.6210523,2.0055563,9.355652,2.1494014
1409526416011,-2.1398177,9.843162,-0.7128736,1.8984714,9.382781,2.12829
1409526416026,-1.7465701,8.257602,0.9983821,1.8076023,9.397379,2.1429543
1409526416040,-0.93972415,6.8887167,1.9249382,1.7379899,9.403256,2.1745205
1409526416041,-0.34715924,6.171055,2.259528,1.6845293,9.406881,2.2007592
1409526416057,0.25737667,6.057929,2.2409728,1.6401179,9.415338,2.1981473
1409526416059,1.2880806,7.125743,2.6659436,1.6003277,9.428711,2.169966
1409526416081,2.136825,8.893262,3.1998506,1.5604893,9.4445915,2.1295462
1409526416082,2.4241292,10.0341,2.8754363,1.5180854,9.461891,2.0828915
1409526416090,2.066196,9.856929,1.6639702,1.4704591,9.481642,2.0264738
1409526416123,1.5215151,9.806051,0.43754035,1.410532,9.505905,1.9541088
1409526416125,1.0324994,9.920973,-0.51116204,1.336966,9.535975,1.856908
1409526416127,0.61171854,10.01315,-1.1917139,1.2575985,9.570222,1.731962
1409526416153,-0.41180268,9.649231,-1.6543933,1.1816841,9.603507,1.5958368
1409526416154,-0.9720459,9.5570545,-1.7052702,1.107725,9.632168,1.4712849
1409526416155,-1.0426749,9.368511,-1.5813702,1.0340921,9.656867,1.3586622
1409526416159,-0.66498953,9.258977,-0.47165772,0.96712834,9.675362,1.273748
1409526416185,-0.09756372,9.59177,0.15023616,0.90876395,9.688062,1.2190235
1409526416186,0.3716998,9.36073,0.3764882,0.85381484,9.697006,1.1872103
1409526416190,0.6631939,8.5060005,0.25019407,0.798885,9.702522,1.1803589
1409526416221,0.7254431,7.465719,0.073023155,0.738476,9.704948,1.1995958
1409526416222,0.88166475,6.7372837,0.0676362,0.66287166,9.706041,1.2344065
1409526416223,0.7757214,6.904279,0.30705637,0.57129794,9.708409,1.261264
1409526416240,1.2174516,7.745841,0.22565351,0.47063163,9.713589,1.2629774
1409526416241,1.9740193,8.027759,0.18914193,0.37088636,9.7209835,1.2390642
1409526416258,2.837129,8.039131,0.33877954,0.27568075,9.728356,1.2055986
1409526416261,3.6774938,7.867945,0.46327803,0.18484206,9.734207,1.1753435
1409526416282,4.1455603,7.638102,0.80684596,0.09798987,9.737313,1.159972
1409526416283,4.235343,7.467515,1.1959038,0.020108577,9.736942,1.1670179
1409526416290,3.851672,7.361572,1.4305356,-0.047096975,9.733222,1.1968932
1409526416313,3.2782607,7.293337,1.6502035,-0.11227363,9.726593,1.2454705
1409526416315,2.8401217,7.179612,2.0440497,-0.180702,9.717388,1.307701
1409526416319,2.7611132,7.3819222,2.3493104,-0.25117213,9.706167,1.3775328
1409526416343,2.6102784,7.397485,2.2936451,-0.31813234,9.69387,1.4484706
1409526416345,2.3558946,7.586028,2.5103204,-0.3823117,9.681289,1.5155448
1409526416350,1.7441759,8.752005,3.1902738,-0.44307026,9.668515,1.5792136
1409526416359,1.1791444,9.467272,2.973,-0.5024851,9.654664,1.6448052
1409526416384,1.1438298,10.051457,2.208651,-0.5590004,9.641891,1.7005497
1409526416386,2.5498247,10.246585,0.770933,-0.6104198,9.631919,1.7389429
1409526416392,4.1683054,10.468647,0.090381116,-0.6494614,9.626612,1.7541196
1409526416423,4.823119,10.816404,1.0133458,-0.671517,9.625966,1.7493551
1409526416425,4.2945995,11.122264,2.19249,-0.68315476,9.627416,1.7368248
1409526416426,3.390788,11.033679,2.9215245,-0.6998005,9.627357,1.730519
1409526416452,2.4319103,11.009736,2.9604304,-0.72286993,9.624404,1.7374423
1409526416454,1.5472529,11.208455,3.0292637,-0.74613404,9.621768,1.7421939
1409526416455,0.48362875,10.890625,3.1238346,-0.76193696,9.6236,1.7251538
1409526416461,0.027533319,10.080787,2.3660698,-0.769605,9.631125,1.6791435
1409526416481,0.17238252,9.627085,1.8459295,-0.77301145,9.641578,1.6164273
1409526416482,-0.015562311,9.637859,2.3014264,-0.74963915,9.655876,1.5402894
1409526416490,-0.2777274,9.34397,1.6184803,-0.70664793,9.672271,1.4554166
1409526416517,-1.1378443,8.462306,-0.08499416,-0.6480808,9.692303,1.3452346
1409526416519,-2.2810757,7.7919292,-1.103727,-0.57385707,9.715132,1.2071757
1409526416520,-3.3955765,7.9367785,-1.7788919,-0.48280922,9.737482,1.0576903
1409526416545,-3.8085763,9.481637,-2.0805612,-0.37636262,9.756974,0.91115123
1409526416547,-2.0219033,17.372927,-1.2689269,-0.2512916,9.772635,0.77643126
1409526416550,-0.3184288,19.608511,-1.4077905,-0.092558935,9.783732,0.6636333
1409526416559,-0.207697,19.608511,-1.963844,0.10827523,9.788239,0.5908068
1409526416588,-2.8089972,19.608511,-1.7304093,0.3111954,9.786127,0.55249953
1409526416589,-2.938284,18.283321,-0.2705448,0.4635161,9.781138,0.5337373
1409526416591,-1.6849195,12.2319765,1.5981296,0.57379985,9.773125,0.5720152
1409526416617,-1.929128,8.417415,3.6014779,0.6675824,9.760328,0.6787606
1409526416620,-4.7644615,9.101558,4.547188,0.725415,9.744266,0.83274937
1409526416622,-4.583101,11.513716,3.25372,0.7176951,9.728958,1.0013362
1409526416644,-1.7322049,11.847109,1.5879543,0.69796187,9.717074,1.123263
1409526416645,0.054468088,9.849746,1.2401965,0.76117283,9.706903,1.1691962
1409526416650,0.9391256,7.6482773,1.9470845,0.9082839,9.693962,1.1715331
1409526416685,1.4065934,6.1596823,2.6288335,1.0866634,9.675594,1.1714973
1409526416686,2.6078842,5.969343,3.074155,1.2661052,9.652832,1.1790581
1409526416688,4.1862617,7.1981673,2.9406781,1.4489652,9.625739,1.1899723
1409526416691,4.3939586,7.787141,1.934515,1.640017,9.594259,1.1962165
1409526416713,3.530849,7.3711486,0.5231331,1.8186762,9.561767,1.1981006
1409526416714,2.72939,6.63553,-0.22266077,1.9601306,9.532902,1.2050203
1409526416719,2.3612814,5.969942,-0.2633622,2.0636878,9.507558,1.2320458
1409526416735,1.5664065,4.569334,0.41000703,2.1399322,9.483192,1.2884715
1409526416739,1.1372458,4.1491513,0.8050503,2.194504,9.4586315,1.3743532
1409526416752,0.7930793,3.945046,1.1791444,2.2346447,9.4338255,1.4763771
1409526416796,0.6967127,3.7175968,1.5209166,2.2662814,9.408849,1.5836437
1409526416800,0.8595184,3.702633,1.8489223,2.2924092,9.384909,1.6848663
1409526416802,1.0510546,3.8893807,1.9393034,2.3130884,9.363594,1.7728904
1409526416805,1.1402385,4.1371803,1.9758149,2.3315036,9.34398,1.8505487
1409526416808,1.3551182,4.5795093,2.1320367,2.341527,9.329483,1.9100763
1409526416832,1.7328035,5.145139,2.4821887,2.3446143,9.3206,1.9492532
1409526416833,2.1757307,5.6569,2.759916,2.3407815,9.316953,1.9711766
1409526416834,2.8844144,6.3105173,3.1112652,2.3288264,9.319002,1.9756447
1409526416839,3.6613328,7.245453,3.7313633,2.3083704,9.326921,1.9622338
1409526416855,4.4119153,8.439561,4.220978,2.2805684,9.339233,1.9360064
1409526416873,4.772841,9.391256,4.3957543,2.2468328,9.35411,1.9033545
1409526416874,5.005677,10.043676,4.1653123,2.2057421,9.370908,1.8684738
1409526416886,5.121796,10.723031,3.9348705,2.1615663,9.38909,1.828388
1409526416891,4.4167037,11.182119,3.8253357,2.1233165,9.406638,1.7824396
1409526416902,4.172495,11.960834,3.1477766,2.083242,9.424523,1.7346104
1409526416921,2.7886465,14.598645,3.8881836,2.0563145,9.439534,1.6843877
1409526416922,4.1102457,16.291346,0.748188,2.0230954,9.448815,1.672534
1409526416935,5.7706246,13.749901,0.38845924,2.0169454,9.450361,1.6712209
1409526416939,6.184223,11.584944,2.7365725,2.0596435,9.435748,1.701446
1409526416951,3.6876693,11.18152,8.711902,2.1291242,9.405811,1.7798669
1409526416973,3.9618053,16.579847,9.621099,2.182581,9.359383,1.9515846
1409526416974,4.245518,19.605518,4.8943467,2.237854,9.305089,2.1395595
1409526416985,-0.3465607,19.510948,3.0657754,2.323699,9.269017,2.2036583
1409526416991,-4.84766,18.403032,1.3874398,2.3686283,9.261264,2.188377
1409526417005,-3.8672342,15.017032,-2.2002714,2.356794,9.273695,2.1481392
1409526417020,-2.622848,9.799467,-1.6376339,2.3534825,9.284381,2.1051795
1409526417021,-1.471237,8.084022,0.52073884,2.3393426,9.277148,2.1522982
1409526417035,-0.53929394,8.512584,1.42455,2.2899103,9.263759,2.2604103
1409526417039,-0.4902128,7.695563,1.1617863,2.2202818,9.25661,2.3570952
1409526417051,-0.85473,6.7989345,1.1569979,2.1573157,9.259961,2.4019804
