time,acc_x,acc_y,acc_z,gravity_x,gravity_y,gravity_z
1409526286102,0.997185,9.5798,2.0332758,1.1839134,9.504182,2.106952
1409526286105,1.0193313,9.562442,2.0482395,1.1806031,9.503832,2.1103907
1409526286122,1.0390835,9.548077,2.0326772,1.1772193,9.503386,2.1142871
1409526286123,1.0480618,9.478644,2.0207062,1.1733246,9.503014,2.1181238
1409526286126,1.0570401,9.485229,2.018312,1.1691962,9.502706,2.121783
1409526286127,1.0839748,9.522937,2.0380642,1.1654997,9.502373,2.1253006
1409526286142,1.09834,9.549872,2.054225,1.1622654,9.502117,2.128218
1409526286145,1.0941502,9.570223,2.0416555,1.159382,9.502243,2.1292257
1409526286154,1.0971429,9.578603,2.067393,1.1570001,9.5027275,2.128357
1409526286177,1.0773908,9.548077,2.078167,1.1548791,9.503265,2.1271038
1409526286178,1.0552444,9.503185,2.087744,1.1525424,9.50401,2.1250503
1409526286185,1.0414777,9.524733,2.1110873,1.1501555,9.5049715,2.1220453
1409526286207,1.0151415,9.562442,2.094328,1.1477785,9.506105,2.118246
1409526286208,1.0121487,9.572617,2.094328,1.1450262,9.507367,2.1140642
1409526286222,0.96905315,9.566033,2.1266496,1.141771,9.508672,2.1099598
1409526286226,0.95708215,9.58818,2.15957,1.1382291,9.509851,2.106551
1409526286246,0.95229375,9.638457,2.135628,1.134626,9.510896,2.1037786
1409526286248,0.96067345,9.67856,2.1266496,1.1307659,9.511929,2.1011815
1409526286255,0.95947635,9.703699,2.071583,1.1269475,9.512806,2.0992613
1409526286281,0.9223662,9.677363,2.034473,1.1238642,9.513475,2.0978847
1409526286282,0.88525605,9.638457,2.0207062,1.1211818,9.513789,2.0978935
1409526286286,0.85473,9.638457,1.9662381,1.1177882,9.514011,2.0987
1409526286310,0.8583213,9.64564,1.9297266,1.1131326,9.514795,2.0976188
1409526286311,0.86251116,9.627085,1.905186,1.1080406,9.515935,2.0951421
1409526286314,0.90500826,9.625289,1.9536686,1.1031148,9.517407,2.0910552
1409526286342,0.8972271,9.57561,2.0057425,1.0981477,9.519004,2.086392
1409526286343,0.8870517,9.576807,2.0655975,1.0931455,9.520472,2.082322
1409526286348,0.8924387,9.618706,2.1320367,1.0884955,9.521626,2.0794735
1409526286355,0.93732995,9.594764,2.1649568,1.0841465,9.522475,2.077865
1409526286384,0.96067345,9.603143,2.171541,1.0807409,9.523177,2.0764077
1409526286386,1.0109516,9.662399,2.1338322,1.078489,9.523902,2.0742624
1409526286388,1.0432734,9.603742,2.067393,1.0774975,9.524633,2.07142
1409526286420,1.0510546,9.537302,2.019509,1.077389,9.525333,2.0682518
1409526286421,1.033098,9.55885,2.0386627,1.0779784,9.526154,2.064162
1409526286423,1.0450691,9.575011,2.0368671,1.079008,9.526942,2.0599809
1409526286458,1.0767922,9.540894,2.018312,1.0809063,9.527535,2.056244
1409526286460,1.1486182,9.527127,2.030283,1.0827132,9.528143,2.0524697
1409526286462,1.3820529,9.600749,2.0685902,1.0843009,9.528752,2.048793
1409526286465,1.4622587,9.595961,2.0590134,1.0876257,9.529196,2.0449634
1409526286485,1.4425066,9.633669,2.1068976,1.091779,9.52977,2.0400755
1409526286486,1.3676877,9.572019,2.172738,1.0964947,9.530377,2.0347033
1409526286487,1.4359225,9.586982,2.0069396,1.1011955,9.530937,2.0295308
1409526286506,1.5065514,9.674969,1.8800468,1.1051706,9.532013,2.0223103
1409526286507,1.4652514,9.724648,2.0272903,1.1069688,9.534205,2.0109534
1409526286521,1.4161704,9.749189,2.1362264,1.1066779,9.536961,1.9980081
1409526286536,1.3988123,9.694721,2.2056582,1.1052922,9.539388,1.9871588
1409526286537,1.4784195,9.509171,2.1080947,1.1028261,9.540518,1.983094
1409526286550,1.4622587,9.5971575,2.0416555,1.0995486,9.540482,1.9850925
1409526286555,1.4197617,9.661202,2.0009542,1.0939246,9.540126,1.9899002
1409526286571,1.347337,9.631275,2.079364,1.0870034,9.540014,1.9942256
1409526286586,1.2593501,9.536105,2.1098902,1.0810388,9.539723,1.9988515
1409526286587,1.2449849,9.419388,2.1470003,1.0749797,9.539138,2.004906
1409526286605,1.2641385,9.367912,2.1613655,1.0676184,9.538269,2.0129573
1409526286606,1.2635399,9.363723,2.1517887,1.0597306,9.53739,2.021282
1409526286619,1.2348095,9.436746,2.1757307,1.052272,9.536582,2.0289748
1409526286634,1.2198458,9.592968,2.15538,1.0455956,9.53569,2.036597
1409526286635,1.0815806,9.789292,2.1529858,1.0393523,9.534865,2.0436435
1409526286652,0.9888053,9.785701,2.1039047,1.032953,9.5345125,2.048529
1409526286655,0.9391256,9.796474,1.9931729,1.0265498,9.534896,2.0499651
1409526286678,0.90740246,9.805453,1.9883845,1.0196161,9.536057,2.0480204
1409526286679,0.89303726,9.665392,1.9680338,1.0109022,9.53779,2.0442648
1409526286687,0.9367314,9.549872,1.9428947,0.9999104,9.539506,2.0416648
1409526286709,0.9900024,9.522937,1.982399,0.9880216,9.5407095,2.0418339
1409526286710,1.0133458,9.505579,2.0135236,0.9784582,9.541226,2.0440252
1409526286715,1.0247183,9.5798,2.0727801,0.9734035,9.540954,2.0477076
1409526286756,0.98222125,9.6288805,2.1068976,0.97296315,9.53991,2.0527742
1409526286765,0.9056068,9.655815,2.1218612,0.9741712,9.538603,2.0582542
1409526286768,0.8170213,9.770737,2.070386,0.9770884,9.536858,2.064954
1409526286770,0.7846996,9.830592,2.0566192,0.98000056,9.534754,2.0732722
1409526286808,0.770933,9.727641,2.0368671,0.98248124,9.53195,2.0849617
1409526286810,0.8379706,9.698313,2.0518308,0.9854428,9.527812,2.1024003
1409526286811,0.85473,9.8198185,2.042254,0.9915215,9.522084,2.125366
1409526286813,0.6488287,9.837176,2.0147207,1.0014945,9.515469,2.1501784
1409526286815,0.8619126,9.809045,1.9734207,1.0127431,9.50918,2.1726065
1409526286816,0.84455466,9.937134,2.070386,1.0312032,9.50342,2.1890702
1409526286860,0.9696517,9.948506,2.1320367,1.0559415,9.497817,2.2015615
1409526286862,1.0295067,9.961076,2.2643163,1.0843532,9.491548,2.2147481
1409526286864,1.0390835,9.662998,2.3505075,1.1137688,9.484443,2.2305279
1409526286868,1.1599907,9.38168,2.4480712,1.1449225,9.47535,2.25328
1409526286869,1.2150574,9.192537,2.565387,1.1793464,9.464531,2.2808354
1409526286891,1.2479776,9.030331,2.6324248,1.2165003,9.453164,2.3082876
1409526286892,1.4221559,9.059061,2.6599581,1.2543124,9.442344,2.3322172
1409526286894,1.5143325,9.181165,2.7042508,1.2927761,9.43272,2.350085
1409526286906,1.5490485,9.244612,2.6593595,1.3325886,9.424431,2.3610804
1409526286926,1.5161282,9.527127,2.6677392,1.3734543,9.417142,2.3667397
1409526286927,1.6292542,9.810242,2.5617957,1.4120718,9.410806,2.369217
1409526286935,1.6879122,9.8994255,2.581548,1.4504112,9.405227,2.3682067
1409526286959,1.7681179,9.677961,2.5127146,1.4909002,9.400364,2.3623674
1409526286960,1.7741034,9.436746,2.409764,1.5336741,9.395707,2.353492
1409526286966,1.6944963,9.370906,2.3654714,1.5808907,9.39137,2.3395157
1409526286999,1.7136499,9.355942,2.2655134,1.6296,9.386961,2.3237393
1409526287000,1.7196354,9.190742,2.2505496,1.67979,9.381594,2.309635
1409526287001,1.714847,9.215282,2.3259668,1.7330365,9.37421,2.3002532
1409526287007,1.661576,9.333197,2.3355439,1.7880692,9.365446,2.2938235
1409526287027,1.7579426,9.543886,2.12246,1.84158,9.356578,2.2876732
1409526287028,1.7459716,9.291298,1.9087774,1.8898809,9.349059,2.2790005
1409526287034,1.401805,9.487623,2.1218612,1.9266739,9.343666,2.2702947
1409526287055,1.3437457,10.271724,2.1374235,1.9420261,9.340954,2.268371
1409526287056,1.4401124,10.712257,2.2631192,1.9448388,9.340072,2.2695916
1409526287072,1.5532384,10.9103775,2.4570496,1.9281826,9.3406515,2.2813926
1409526287087,1.5502456,10.758346,2.5899277,1.8950992,9.3425045,2.3014364
1409526287087,1.5035586,10.238804,2.4636335,1.8415108,9.347443,2.3247752
1409526287101,1.5699978,9.867104,2.475006,1.758158,9.358678,2.3440163
1409526287119,2.018312,9.515156,2.939481,1.6372718,9.378015,2.3542678
1409526287120,1.1976994,8.784326,2.144606,1.4784635,9.403733,2.3567648
1409526287133,1.7100586,8.913613,2.7994204,1.2750281,9.4369545,2.3427713
1409526287134,0.7493851,9.96347,1.8890251,1.0444652,9.470448,2.3216615
1409526287150,1.2743138,9.109938,2.8802247,0.7881194,9.505429,2.2794917
1409526287155,-0.024540568,9.737817,1.2683283,0.53322595,9.533059,2.2376
1409526287169,-0.51714754,9.539098,1.5286977,0.27392542,9.557391,2.1798213
1409526287185,-0.50517654,8.613739,1.7986441,0.046480488,9.573246,2.1263094
1409526287186,0.0053869537,8.355764,1.8171991,-0.12124084,9.58164,2.085151
1409526287202,0.45370123,9.216479,2.0428526,-0.2220061,9.585247,2.06014
1409526287216,0.60573304,9.295488,2.2852654,-0.25940427,9.585491,2.0546172
1409526287217,0.3405752,9.218874,2.397793,-0.25681514,9.583894,2.062382
1409526287236,0.22026655,9.546281,2.2301989,-0.23867486,9.583071,2.068377
1409526287237,0.12389994,9.881469,2.2918496,-0.20799576,9.585168,2.0619693
1409526287252,0.109534726,10.347141,2.6569653,-0.15574089,9.589003,2.0486996
1409526287255,-0.10055647,10.004171,2.4361002,-0.07231515,9.5914,2.0421073
1409526287270,0.49919105,9.533113,2.6443958,0.047218338,9.590925,2.0450697
1409526287285,0.0712275,9.260772,2.586935,0.19452311,9.586807,2.0556438
1409526287286,-0.009576807,9.231443,2.4917655,0.38754305,9.57725,2.0728006
1409526287302,0.30166942,9.173983,1.8513165,0.6199236,9.561107,2.0907705
1409526287319,0.61171854,8.900445,1.8435353,0.88148177,9.538368,2.1006923
1409526287320,1.0199299,8.75799,1.5280992,1.1574359,9.50728,2.1076937
1409526287335,1.91596,8.929175,1.5358804,1.4250816,9.470434,2.1096075
1409526287336,2.1948843,9.241618,1.1115081,1.6705086,9.4313345,2.1046915
1409526287357,2.7455509,9.217078,1.0193313,1.8734356,9.397424,2.0854414
1409526287358,1.8980033,8.981848,1.7495629,2.0256257,9.371016,2.0618694
1409526287366,1.4670471,9.149442,2.2104468,2.1032505,9.355889,2.0528233
1409526287396,1.5993267,9.174581,2.1051018,2.1448622,9.3467655,2.0513282
1409526287397,1.6885108,9.073426,2.1637597,2.1400387,9.3466,2.057112
1409526287406,1.733402,9.661801,2.4133554,2.1144135,9.350562,2.0655882
1409526287435,1.6873137,9.601347,2.4558525,2.0715318,9.358548,2.0728514
1409526287436,1.8818425,9.991004,2.295441,2.0096118,9.371412,2.075697
1409526287437,2.0566192,10.427347,2.1984756,1.9216514,9.390612,2.0722103
1409526287438,2.0081367,10.048465,2.0153193,1.8072208,9.416005,2.059898
1409526287458,1.678934,10.226234,1.3180081,1.668516,9.446892,2.0353584
1409526287459,1.7022774,10.799645,1.1647792,1.5068613,9.482885,1.9936504
1409526287466,1.8740613,10.572795,1.863886,1.3462031,9.516845,1.9462287
1409526287490,1.6364368,10.161591,2.0572178,1.2074733,9.542038,1.9136189
1409526287491,1.3066356,9.233239,1.7405846,1.0801954,9.562164,1.8890696
1409526287497,1.34195,8.763975,1.6699557,0.9695795,9.576709,1.8753625
1409526287525,1.4413095,9.03871,1.6412252,0.8801203,9.5869055,1.8673505
1409526287527,1.4329298,9.269751,1.7351977,0.8177905,9.594397,1.8571985
1409526287528,1.34195,9.222465,1.9117701,0.7925074,9.598858,1.8450603
1409526287535,1.2946646,9.297284,2.0626047,0.7949675,9.60051,1.8353813
1409526287566,1.2497733,9.160814,2.1637597,0.8080941,9.600035,1.8321248
1409526287568,1.0941502,9.106346,2.1877017,0.82509404,9.597856,1.8359692
1409526287569,0.9744401,9.085397,2.1003134,0.84206384,9.59521,1.8420833
1409526287610,0.7942764,8.805275,2.0530279,0.85706675,9.593338,1.8449148
1409526287612,0.7374141,8.573038,2.0925324,0.86781037,9.592675,1.8433354
1409526287615,0.74878657,8.561666,2.0171149,0.8762561,9.592452,1.8404934
1409526287616,0.8146271,8.602366,1.9883845,0.88123393,9.5929,1.8357811
1409526287617,0.8295909,8.5473,2.0015526,0.8836451,9.593443,1.8317783
1409526287647,0.84455466,8.552687,1.9716251,0.88418674,9.593952,1.8288434
1409526287648,0.9528923,8.751406,1.9117701,0.8842121,9.594361,1.8266859
1409526287649,0.97384155,8.905233,1.8183962,0.8855446,9.594516,1.8252386
1409526287692,1.0109516,9.059659,1.7226281,0.8898866,9.594068,1.8254701
1409526287694,1.0905589,9.346964,1.8590976,0.9000749,9.592647,1.827949
1409526287696,1.0899603,9.639056,1.958457,0.91939557,9.589927,1.8325995
1409526287698,1.1707647,10.206482,1.8590976,0.9491161,9.586173,1.8370799
1409526287700,0.931943,10.4010105,1.8106151,0.98381424,9.582535,1.8378081
1409526287730,1.0672154,10.229825,1.8980033,1.020156,9.579682,1.8328549
1409526287731,1.3628993,10.304645,2.2122424,1.0572971,9.576612,1.8278391
1409526287732,1.3515269,11.277887,1.6059108,1.0948659,9.572558,1.8269618
1409526287735,1.0893618,11.874043,0.66618663,1.1266947,9.573615,1.8018998
1409526287752,1.1025299,11.0378685,0.90500826,1.1469648,9.5831375,1.7373353
1409526287770,1.2731167,10.319608,1.2210429,1.1611779,9.59211,1.6773447
1409526287771,1.4742297,9.941922,1.4945804,1.1722049,9.595818,1.6482143
1409526287785,1.608305,9.469068,1.8459295,1.1828201,9.595829,1.6405402
1409526287801,1.572392,9.412206,1.9309237,1.1948826,9.594134,1.6417122
1409526287802,1.5580268,9.479243,1.9165585,1.2069684,9.592074,1.6449054
1409526287818,1.5286977,9.566631,1.8830396,1.2185866,9.590077,1.6479923
1409526287819,1.4981717,9.664794,1.8082209,1.2297832,9.588278,1.6501445
1409526287833,1.4119805,9.706693,1.6879122,1.2403014,9.586692,1.6514865
1409526287836,1.3814543,9.718663,1.6101006,1.2487189,9.58547,1.6522248
1409526287849,1.359308,9.680955,1.5753847,1.2547868,9.584644,1.6524118
1409526287869,1.3383588,9.61691,1.6106992,1.259109,9.584011,1.6528006
1409526287870,1.4568717,9.618706,1.6753427,1.2620811,9.583293,1.6546997
1409526287884,1.228824,9.508572,1.7226281,1.2651225,9.582348,1.657859
1409526287887,1.158195,9.602545,1.6837224,1.2656816,9.581759,1.6608179
1409526287898,1.1755531,9.677363,1.7052702,1.2645954,9.58176,1.6616461
1409526287917,1.1731589,9.703699,1.7076644,1.26404,9.581751,1.6621283
1409526287917,1.1246762,9.698313,1.7136499,1.2641482,9.581589,1.6629713
1409526287932,1.09834,9.64983,1.7160441,1.264035,9.581354,1.664418
1409526287936,1.1953052,9.661202,1.7824832,1.2635043,9.581266,1.6653157
1409526287956,1.0199299,9.556456,1.851915,1.2640233,9.58097,1.6666268
1409526287957,0.89303726,9.589376,1.822586,1.2633564,9.580697,1.6687112
1409526287969,0.9516952,9.673772,1.8477252,1.2613897,9.580729,1.6699989
1409526287985,0.9451111,9.677961,1.8507179,1.2614366,9.580505,1.6712509
1409526287988,0.9540894,9.673772,1.8219875,1.2632376,9.5799675,1.6729712
1409526288002,0.92296475,9.706693,1.809418,1.2658138,9.579413,1.6742034
1409526288018,0.81343,9.592369,1.8088194,1.2681267,9.579021,1.6746973
1409526288018,0.7080852,9.357738,1.7345991,1.2694992,9.5787525,1.6751889
1409526288033,1.0348936,9.890448,1.7298107,1.2701106,9.57872,1.6749171
1409526288040,1.0241197,10.17835,1.6915035,1.2741345,9.578399,1.6737013
1409526288070,0.9247604,9.892841,1.6214731,1.2818797,9.577614,1.6722704
1409526288071,0.91338795,9.798869,1.6436194,1.2902137,9.576778,1.670653
1409526288072,0.9427169,9.753978,1.6903064,1.294877,9.576383,1.6693174
1409526288076,0.9720459,9.68275,1.6915035,1.2970275,9.575983,1.6699312
1409526288100,1.0241197,9.645041,1.7022774,1.297841,9.575579,1.6716111
1409526288100,1.1025299,9.602545,1.7220296,1.2980208,9.575259,1.6733061
1409526288117,1.2138603,9.579201,1.7316064,1.2982376,9.574943,1.6749411
1409526288118,1.2946646,9.597756,1.7477672,1.2991179,9.574638,1.6760014
1409526288135,1.3838485,9.61272,1.7555484,1.3007743,9.574329,1.6764766
1409526288136,1.4251486,9.648633,1.763928,1.3028318,9.5741415,1.6759588
1409526288152,1.4580688,9.688137,1.7591397,1.3048741,9.574017,1.6750866
1409526288170,1.4263457,9.745,1.7142484,1.3066239,9.573993,1.6738539
1409526288171,1.400608,9.74859,1.6693572,1.3072526,9.574164,1.6723856
1409526288176,1.3808558,9.749189,1.6430209,1.307075,9.574474,1.6707472
1409526288201,1.3389573,9.703699,1.6579847,1.3061001,9.57484,1.669419
1409526288201,1.2952632,9.636662,1.6567876,1.3044634,9.57499,1.6698265
1409526288217,1.2737153,9.582193,1.6531962,1.3021201,9.575119,1.6709219
1409526288218,1.2659341,9.545084,1.654992,1.2991735,9.575323,1.6720524
1409526288238,1.2725182,9.511565,1.6621746,1.2963907,9.57542,1.6736451
1409526288239,1.3090298,9.479243,1.6801311,1.2937058,9.57544,1.6756115
1409526288248,1.3491327,9.487623,1.6681601,1.2916286,9.575432,1.6772575
1409526288274,1.4101849,9.518747,1.6819267,1.2904674,9.575552,1.6774645
1409526288275,1.4401124,9.57142,1.6681601,1.2901968,9.575641,1.677171
1409526288277,1.4610616,9.593566,1.6472107,1.2904614,9.575759,1.676292
1409526288309,1.4796166,9.613917,1.6460136,1.29131,9.576028,1.6740923
1409526288310,1.4784195,9.623494,1.6352397,1.292807,9.57621,1.6719004
1409526288311,1.4921862,9.594764,1.6609775,1.2945362,9.576261,1.6702737
1409526288318,1.4885949,9.572019,1.6741456,1.2967894,9.576184,1.6689626
1409526288331,1.4814123,9.56723,1.6950948,1.2990644,9.576033,1.6680647
1409526288336,1.4772224,9.566033,1.7088615,1.3010237,9.575848,1.667603
1409526288349,1.4466964,9.637859,1.6861166,1.3029113,9.575624,1.667409
1409526288365,1.4305356,9.632472,1.6885108,1.3047081,9.57545,1.666995
1409526288368,1.4173675,9.628283,1.7244238,1.3064904,9.575221,1.666915
1409526288381,1.4311341,9.634866,1.7142484,1.3086185,9.574821,1.6675404
1409526288398,1.448492,9.618706,1.7328035,1.3113296,9.574318,1.6683079
1409526288399,1.4622587,9.594764,1.751957,1.3139757,9.57387,1.6688013
1409526288414,1.4556746,9.589975,1.8189948,1.3162719,9.573555,1.6687866
1409526288416,1.4622587,9.607931,1.8417397,1.3183253,9.573069,1.6699733
1409526288431,1.4586674,9.6288805,1.83336,1.3203597,9.572422,1.6720605
1409526288446,1.4454993,9.674969,1.8351556,1.3221056,9.571829,1.674079
1409526288448,1.429937,9.687539,1.8207904,1.3234651,9.571298,1.6760306
1409526288467,1.4197617,9.676167,1.822586,1.324394,9.570975,1.6771482
1409526288468,1.3982137,9.64983,1.8142064,1.325084,9.570641,1.6785032
1409526288486,1.3844471,9.618706,1.821389,1.3257595,9.57009,1.6811101
1409526288488,1.353921,9.621099,1.7896658,1.326468,9.569426,1.6843296
1409526288497,1.3162124,9.61272,1.7591397,1.3268013,9.568932,1.6868659
1409526288519,1.2629414,9.607931,1.763928,1.3270239,9.568493,1.6891782
1409526288521,1.2401965,9.572617,1.7621324,1.3271357,9.568111,1.6912487
1409526288528,1.240795,9.570822,1.7190368,1.3271878,9.567848,1.6927
1409526288551,1.1438298,9.615712,1.62686,1.3274058,9.567721,1.6932471
1409526288553,1.1647792,9.635465,1.6292542,1.3267527,9.567908,1.6927135
1409526288572,1.2330139,9.547478,1.6328455,1.3263433,9.568065,1.6921389
1409526288573,1.3108255,9.560646,1.6759412,1.3268595,9.568106,1.6915088
1409526288577,1.3210008,9.522937,1.7537527,1.3277382,9.568118,1.6907377
1409526288603,1.258153,9.614515,1.7669208,1.3289375,9.567928,1.690871
1409526288604,1.34195,9.531317,1.7435774,1.3291975,9.567783,1.6914895
1409526288608,1.2892777,9.491813,1.7830818,1.3292499,9.567791,1.6914093
1409526288617,1.2186487,9.759963,1.7621324,1.3278756,9.568198,1.6901866
1409526288639,1.1575965,9.980229,1.6555905,1.3243908,9.569024,1.6882424
1409526288640,1.1007342,10.020332,1.5316905,1.3206187,9.570257,1.6842058
1409526288649,1.1210849,9.689933,1.5610195,1.3189083,9.571654,1.677599
1409526288672,1.1887212,9.647436,1.6657659,1.3194419,9.572567,1.6719443
1409526288673,1.1587936,9.712079,1.685518,1.3205628,9.572697,1.670321
1409526288677,1.1761516,9.709685,1.6645688,1.3207989,9.572355,1.6720904
1409526288705,1.2617443,9.616311,1.6801311,1.3208023,9.572094,1.6735827
1409526288706,1.3449428,9.582193,1.673547,1.321167,9.57184,1.6747506
1409526288709,1.501763,9.491214,1.666963,1.3214693,9.571528,1.676296
1409526288722,1.6160861,9.46009,1.7405846,1.3222317,9.571302,1.6769817
1409526288746,1.6825253,9.514558,1.7483658,1.3231989,9.571347,1.6759669
1409526288747,1.6466122,9.467871,1.7866731,1.3240954,9.571778,1.6727923
1409526288753,1.5239093,9.512762,1.846528,1.3249321,9.57248,1.6680993
1409526288791,1.4736311,9.546281,1.8243817,1.3246386,9.573393,1.6630939
1409526288792,1.6879122,9.672575,1.7806876,1.3234856,9.574354,1.6584686
1409526288793,0.9091981,9.657013,1.5897499,1.3229849,9.575143,1.6543168
1409526288794,1.1623849,9.784504,1.4838065,1.3137096,9.577455,1.6482991
1409526288797,1.2868834,9.7719345,1.4520833,1.3039206,9.580342,1.6392823
1409526288821,1.2910733,9.619903,1.513734,1.2974508,9.582802,1.6300071
1409526288822,1.328782,9.4972,1.5861586,1.2936953,9.584378,1.6237054
1409526288828,1.4036007,9.321824,1.6454151,1.2898372,9.585384,1.6208407
1409526288855,1.3736732,9.087791,1.6921021,1.286235,9.586044,1.6197972
1409526288856,1.1127052,8.444349,1.8507179,1.2825869,9.586707,1.618768
1409526288857,1.6011224,9.952098,1.8375498,1.2788563,9.587197,1.6188171
1409526288898,1.3305776,9.925761,1.7938557,1.2841645,9.586801,1.6169641
1409526288899,1.2623428,9.898229,1.6849195,1.2908381,9.586336,1.6144056
1409526288900,1.2324153,10.0341,1.6603789,1.2985303,9.586306,1.6084061
1409526288901,0.96187055,10.195109,1.6394296,1.3041904,9.586859,1.6005023
1409526288924,0.9923966,10.107721,1.4670471,1.3065552,9.58773,1.5933366
1409526288924,1.2497733,9.446921,1.6663644,1.3086771,9.588684,1.585843
1409526288928,1.2204443,9.454702,1.7729063,1.3139156,9.588449,1.5829303
1409526288949,1.1605892,9.570223,1.775899,1.3177234,9.5877495,1.5839976
1409526288950,1.110311,9.68275,1.7489643,1.3189517,9.587151,1.5866017
1409526288969,1.0779893,9.709086,1.7226281,1.3186443,9.586913,1.5882945
1409526288991,1.0061632,9.79827,1.7022774,1.3178201,9.587077,1.5879859
1409526288992,1.0474633,9.636064,1.6077064,1.3165199,9.587462,1.5867344
1409526288993,0.8984242,9.846753,1.6424223,1.315896,9.587812,1.5851357
1409526288997,0.81163436,9.813234,1.525705,1.3134515,9.588306,1.5841818
1409526289027,0.7038953,9.91798,1.5251064,1.3100487,9.589013,1.5827246
1409526289029,0.7206547,9.915586,1.496376,1.3053571,9.589904,1.5811943
1409526289030,0.78649527,9.844358,1.5562311,1.3005849,9.590649,1.5806062
1409526289063,0.878672,9.759365,1.5801731,1.2965457,9.591061,1.5814205
1409526289065,0.92176765,9.758167,1.6603789,1.2931961,9.591194,1.5833553
1409526289069,1.127669,9.59177,1.6531962,1.28916,9.591148,1.5869226
1409526289108,1.2593501,9.294889,1.7447745,1.286477,9.590977,1.5901345
1409526289108,1.3150153,9.345766,1.8614918,1.2853378,9.590606,1.5932933
1409526289109,1.347337,9.500791,1.9027919,1.2843453,9.5901785,1.5966531
1409526289110,1.2797008,9.788095,1.869273,1.2817597,9.590116,1.5991099
1409526289111,1.1941081,10.03769,1.6274586,1.2782345,9.59062,1.5989124
1409526289120,1.3814543,9.795278,1.5358804,1.2749013,9.591876,1.5940292
1409526289155,1.513734,9.630077,1.5903485,1.2747328,9.592958,1.5876422
1409526289157,1.6639702,9.51755,1.6484078,1.2764297,9.5934925,1.583039
1409526289159,1.7280151,9.529521,1.7381904,1.2788799,9.593593,1.5804619
1409526289161,1.7298107,9.561843,1.7884687,1.2815067,9.593478,1.579024
1409526289200,1.7393875,9.5492735,1.75076,1.285211,9.593232,1.577506
1409526289201,1.7866731,9.544485,1.7064673,1.2886329,9.593142,1.5752736
1409526289202,1.882441,9.428965,1.6328455,1.2922332,9.593041,1.5729245
1409526289203,1.9027919,9.296086,1.6184803,1.296602,9.59281,1.5707395
1409526289231,2.007538,8.9998045,1.6753427,1.3016366,9.592391,1.5691361
1409526289231,1.7878702,9.26197,1.7316064,1.3075145,9.591646,1.5687971
1409526289232,1.785476,9.32781,1.6705543,1.3100551,9.591249,1.5691122
1409526289248,1.70946,9.752781,1.6699557,1.310443,9.591457,1.5675124
1409526289248,1.4766239,9.826403,1.6950948,1.3097308,9.592215,1.5634645
1409526289267,1.4149733,9.774927,1.6537948,1.3082432,9.592818,1.5610014
1409526289282,1.513734,9.652225,1.5023615,1.306468,9.592903,1.5619723
1409526289282,1.5813702,9.5971575,1.3784616,1.3051289,9.592687,1.5644109
1409526289298,1.5999253,9.636662,1.3449428,1.3039107,9.592853,1.5644168
1409526289298,1.5125369,9.705495,1.4598645,1.3041356,9.5931015,1.5626976
1409526289314,1.3503298,9.682152,1.614889,1.3051509,9.59359,1.5588428
1409526289320,1.2485762,9.705495,1.6950948,1.3083305,9.593677,1.5556495
1409526289343,1.1839328,9.700109,1.7190368,1.3128722,9.593204,1.554751
1409526289344,1.134253,9.624092,1.7100586,1.3176866,9.592341,1.5559856
1409526289349,1.0570401,9.633071,1.7178397,1.3226631,9.591292,1.5582331
1409526289382,1.0217255,9.692925,1.6609775,1.3268739,9.590238,1.5611317
1409526289384,0.97862995,9.697116,1.5562311,1.3284984,9.589506,1.5642437
1409526289387,0.97982705,9.735423,1.4981717,1.3271445,9.5893135,1.5665772
1409526289413,0.9588778,9.811439,1.5275006,1.3246802,9.589573,1.567064
1409526289419,1.0223241,9.775525,1.5765818,1.3221267,9.590017,1.5665035
1409526289421,1.2306197,9.646837,1.5239093,1.3206735,9.590323,1.5658623
1409526289457,1.198298,9.638457,1.5981296,1.3215684,9.590421,1.5645038
1409526289458,0.9708488,9.747394,1.6178818,1.322251,9.590561,1.5630695
1409526289459,0.961272,9.786898,1.4173675,1.3210208,9.590985,1.5615134
1409526289460,1.0283096,9.72824,1.483208,1.3202046,9.591827,1.5570126
1409526289462,1.0803835,9.662998,1.553837,1.3194844,9.592624,1.5527176
1409526289481,1.2306197,9.668385,1.4999673,1.3186324,9.592983,1.5512124
1409526289482,1.34195,9.644443,1.4730326,1.3197694,9.593002,1.5501299
1409526289496,1.2814964,9.714474,1.6394296,1.3230066,9.593045,1.5471021
1409526289497,1.2892777,9.636662,1.6328455,1.3256245,9.593093,1.5445716
1409526289511,1.353921,9.498995,1.6292542,1.3278809,9.593221,1.5418273
1409526289530,1.4790181,9.34397,1.5711949,1.3308238,9.59332,1.5386826
1409526289531,1.632247,9.229049,1.5269021,1.3343716,9.593461,1.5347172
1409526289545,1.7351977,9.087791,1.4556746,1.3392723,9.593646,1.5292741
1409526289549,1.4921862,8.750209,1.5664065,1.344174,9.594167,1.5216999
1409526289562,1.6262615,10.038888,1.6095021,1.3470855,9.594971,1.5140239
1409526289578,1.364695,10.250176,1.429937,1.3520703,9.595859,1.5039234
1409526289579,1.270124,10.299257,1.2743138,1.3584821,9.596968,1.4910148
1409526289596,1.3126211,10.081385,1.1791444,1.3624834,9.598925,1.4746716
1409526289597,1.3736732,9.877877,1.2120646,1.3632047,9.601362,1.4580531
1409526289612,1.0576386,10.1544075,1.3413515,1.3618203,9.603525,1.4450346
1409526289629,1.0869676,10.020332,1.192911,1.3552642,9.606063,1.4342958
1409526289630,1.3623008,9.713276,1.0342951,1.3485069,9.608488,1.4243904
1409526289645,1.3856442,9.7641535,1.2336124,1.3432145,9.610586,1.4151965
1409526289649,1.4550761,9.668983,1.2779051,1.337387,9.612116,1.4103286
1409526289662,1.751957,9.196728,1.3551182,1.3333625,9.612937,1.4085441
1409526289677,1.5867572,9.214684,1.7088615,1.3337725,9.612818,1.4089713
1409526289678,1.2090719,9.791088,1.5945383,1.3326757,9.612253,1.4138469
1409526289697,1.1994951,9.752182,1.4155718,1.3288201,9.612488,1.4158827
1409526289697,1.2838906,9.656414,1.3263878,1.3270324,9.613168,1.4129344
1409526289709,1.2324153,9.400234,1.3377602,1.3282031,9.613701,1.4081956
1409526289729,1.477821,9.359533,1.3066356,1.331061,9.613678,1.4056542
1409526289729,1.6370354,9.7641535,1.2659341,1.3353508,9.61334,1.4038976
1409526289746,1.4879963,9.675568,1.2737153,1.3418492,9.612779,1.4015415
1409526289749,1.4454993,10.039486,1.3198037,1.3507366,9.611823,1.3995523
1409526289763,1.3329718,10.129868,1.210269,1.3583443,9.611293,1.3958324
1409526289777,1.2252327,10.06283,1.1839328,1.3629464,9.611485,1.3900077
1409526289778,1.18094,9.992201,1.1558008,1.3655654,9.612028,1.3836732
1409526289793,1.2485762,9.926959,1.1115081,1.3652829,9.612895,1.3779151
1409526289798,1.2922704,9.761759,1.1683705,1.3637849,9.613828,1.3728818
1409526289809,1.3006501,9.624092,1.216853,1.362161,9.614459,1.3700702
1409526289832,1.3096284,9.541492,1.2904748,1.3595306,9.614796,1.3703269
1409526289833,1.3317747,9.512163,1.3239936,1.3561218,9.614879,1.3731109
1409526289853,1.4209588,9.554661,1.3251907,1.3531021,9.614814,1.3765438
1409526289854,1.5161282,9.539098,1.3347675,1.3507853,9.61473,1.3794034
1409526289858,1.6208745,9.502586,1.3078327,1.3495708,9.614645,1.3811831
1409526289882,1.4891934,9.715072,1.3694834,1.3504432,9.6143675,1.3822587
1409526289883,1.4544775,9.770737,1.3347675,1.3503451,9.61426,1.3830969
1409526289889,1.5275006,9.618706,1.411382,1.349966,9.614255,1.3835049
1409526289897,1.459266,9.677363,1.483208,1.3499348,9.61405,1.3849639
1409526289912,1.46585,9.609727,1.459266,1.3491201,9.613685,1.3882822
1409526289931,1.3796587,9.686341,1.447295,1.348611,9.613116,1.3927128
1409526289933,1.311424,9.764751,1.3760674,1.3468072,9.612829,1.3964257
1409526289952,1.2904748,9.809643,1.3443443,1.3435321,9.612893,1.3991461
1409526289953,1.3994108,9.763555,1.3054385,1.3399932,9.613076,1.4012848
1409526289958,1.453879,9.752182,1.3389573,1.3379983,9.613079,1.4031664
1409526289979,1.2348095,9.842564,1.4101849,1.3368931,9.6129055,1.4053959
1409526289980,1.2336124,9.739014,1.3311762,1.3331729,9.612882,1.4090894
1409526289993,1.2665327,9.6049385,1.3024458,1.3288188,9.612907,1.4130285
1409526289998,1.2413936,9.63726,1.4137762,1.3245667,9.613098,1.4157249
1409526290010,1.2294226,9.662998,1.4371196,1.3206521,9.613348,1.4176713
1409526290027,1.2138603,9.6923275,1.4155718,1.3177541,9.613643,1.418378
1409526290029,1.2617443,9.621099,1.4191631,1.3163188,9.613879,1.4181004
1409526290044,1.282095,9.601946,1.4454993,1.3163813,9.613892,1.4179618
1409526290068,1.3293805,9.60853,1.4556746,1.3163586,9.613829,1.418409
1409526290071,1.4664485,9.563639,1.496376,1.3160473,9.613777,1.4190485
1409526290111,1.4143747,9.643246,1.5693992,1.3164369,9.613504,1.420539
1409526290113,1.3533225,9.752781,1.5562311,1.316084,9.613242,1.4226292
1409526290118,1.2940661,9.832388,1.5077485,1.3150923,9.613203,1.423817
1409526290121,1.210269,9.82341,1.448492,1.3133287,9.613544,1.4231378
1409526290122,1.146224,9.774328,1.3754689,1.310445,9.614228,1.4211814
1409526290139,1.1450269,9.694721,1.3365631,1.3063161,9.615214,1.418302
1409526290140,1.174356,9.663596,1.3485341,1.3014208,9.616465,1.414329
1409526290140,1.2509704,9.651626,1.389834,1.2960896,9.617781,1.4102678
1409526290162,1.2958617,9.67018,1.4395138,1.2909198,9.61887,1.4075644
1409526290162,1.3030443,9.706094,1.4323312,1.2861209,9.619741,1.4060136
1409526290179,1.2850877,9.758167,1.459266,1.2815012,9.62049,1.4051012
1409526290179,1.2946646,9.7162695,1.460463,1.2768599,9.6212435,1.4041748
1409526290193,1.2575544,9.634866,1.4856021,1.2730951,9.621753,1.4040982
1409526290198,1.2294226,9.653421,1.4885949,1.2696974,9.622121,1.4046576
1409526290216,1.1671734,9.707291,1.4814123,1.2659067,9.622498,1.4054929
1409526290217,1.1109096,9.706693,1.4634558,1.2607886,9.623077,1.4061294
1409526290229,1.0582372,9.735423,1.4616601,1.2542818,9.623934,1.406078
1409526290243,0.91338795,9.860519,1.4514848,1.2469046,9.624882,1.4061592
1409526290260,1.4107834,9.494805,1.5053543,1.2370253,9.626145,1.4062358
1409526290260,1.3395559,9.65821,1.5269021,1.2302256,9.626902,1.4070202
1409526290292,1.2000936,9.934141,1.448492,1.2202173,9.627978,1.4083588
1409526290293,0.8888474,10.223241,1.3251907,1.2089562,9.62924,1.4094477
1409526290294,1.0342951,9.965266,1.1486182,1.1979581,9.63114,1.4058511
1409526290298,1.1192893,9.582193,1.0600328,1.1915076,9.633115,1.3977941
1409526290319,1.8010383,9.237429,1.335366,1.1858168,9.6349535,1.3899305
1409526290320,1.6819267,9.119514,1.839944,1.1804315,9.635808,1.3885908
1409526290329,1.62686,9.220071,1.9231426,1.1718975,9.635739,1.3962715
1409526290344,1.5592239,9.456498,1.9596541,1.1652924,9.635361,1.4043945
1409526290361,1.5424645,9.461885,1.762731,1.1594332,9.635559,1.4078865
1409526290362,1.4586674,9.556456,1.678934,1.1536363,9.636522,1.4060434
1409526290394,1.0235212,10.177153,1.632247,1.1464043,9.637916,1.402399
1409526290395,0.80564886,10.815806,1.3102269,1.1331688,9.640363,1.3963246
1409526290396,1.0145429,10.348338,0.85054016,1.1161405,9.643755,1.3865876
1409526290398,1.192911,9.906608,0.98222125,1.1051061,9.647036,1.3725293
1409526290419,1.2503718,9.555858,1.3503298,1.1010709,9.648949,1.3622915
1409526290420,1.2401965,9.388862,1.6142905,1.100241,9.648993,1.362645
1409526290430,1.1905168,9.425972,1.7202339,1.0987158,9.648006,1.3708324
1409526290448,1.0839748,9.667787,1.5556326,1.0947199,9.647131,1.3801602
1409526290449,1.0319009,9.802461,1.459266,1.0882366,9.647321,1.383952
1409526290458,0.97982705,9.862315,1.3916297,1.0815756,9.648331,1.3821435
1409526290495,0.9588778,9.807249,1.3742718,1.0754315,9.649659,1.3776567
1409526290496,0.96546185,9.731832,1.3916297,1.0695685,9.650926,1.3733371
1409526290499,0.9756372,9.673173,1.3676877,1.0641422,9.651876,1.3708733
1409526290500,1.003769,9.639056,1.3138182,1.058147,9.652641,1.3701228
1409526290523,1.0462662,9.661202,1.3533225,1.0512613,9.653403,1.3700609
1409526290523,1.0510546,9.66659,1.3760674,1.0438774,9.654311,1.369301
1409526290529,1.252766,9.55885,1.3533225,1.0357748,9.65561,1.3662977
1409526290544,0.87089086,9.817424,1.3868413,1.0293212,9.656943,1.3617314
1409526290561,1.1258733,9.838373,1.2940661,1.01908,9.658732,1.3567431
1409526290562,1.1007342,9.80665,1.3215994,1.0099238,9.660502,1.3509734
1409526290581,0.99060094,9.763555,1.316811,1.0025634,9.662011,1.3456583
1409526290582,0.8996213,9.822212,1.3551182,0.9955599,9.663392,1.3409342
1409526290590,0.7990648,9.805453,1.340753,0.9878839,9.664586,1.3380145
1409526290611,0.79248077,9.796474,1.3359646,0.9793185,9.665712,1.3361609
1409526290612,0.7649474,9.813234,1.3138182,0.9709226,9.666729,1.3349276
1409526290643,0.83258367,9.805453,1.2066777,0.96258,9.667689,1.3340175
1409526290644,0.91817635,9.781511,1.2449849,0.9551602,9.668639,1.3324685
1409526290645,1.2563573,9.547478,1.3090298,0.9491326,9.669313,1.3318911
1409526290671,0.9864111,9.750386,1.453879,0.9340004,9.669533,1.3409581
1409526290673,1.062427,9.788693,1.459266,0.9340004,9.669533,1.3409581
1409526290674,1.043872,9.720459,1.4425066,0.9340004,9.669533,1.3409581
1409526290678,1.0049661,9.776723,1.4449008,0.928598,9.669738,1.3432273
1409526290698,0.9888053,9.813833,1.3611037,0.9240932,9.669927,1.3449714
1409526290698,0.97743285,9.782708,1.3204023,0.91986805,9.670164,1.3461645
1409526290710,0.97862995,9.7324295,1.2964603,0.9156727,9.670345,1.3477187
1409526290737,0.9792285,9.705495,1.2898762,0.911089,9.670465,1.3499569
1409526290738,0.99179804,9.689933,1.3174095,0.9061756,9.670511,1.3529432
1409526290739,1.0055647,9.698313,1.3245921,0.90112644,9.670416,1.3569957
1409526290771,0.98940384,9.693524,1.3257892,0.8964579,9.670193,1.3616583
1409526290772,0.96665895,9.7084875,1.3485341,0.8928967,9.669813,1.3666935
1409526290774,0.95708215,9.706094,1.3383588,0.8897949,9.669315,1.3722295
1409526290778,0.93254155,9.661801,1.3533225,0.886992,9.668833,1.3774259
1409526290799,0.9127894,9.644443,1.3437457,0.8848412,9.668254,1.3828689
1409526290800,0.8834604,9.615712,1.365892,0.8830432,9.6676235,1.3884125
1409526290810,0.89423436,9.592369,1.3922282,0.88177276,9.666928,1.3940532
1409526290831,0.95827925,9.633071,1.4682442,0.881095,9.666183,1.3996272
1409526290832,1.0109516,9.694122,1.4748282,0.88108927,9.665307,1.4056711
1409526290838,1.0115502,9.741408,1.4466964,0.88177,9.664474,1.4109622
1409526290868,0.97144735,9.792285,1.4891934,0.8829484,9.663797,1.4148539
1409526290870,0.9343372,9.827001,1.5221137,0.8836418,9.663173,1.418682
1409526290871,0.89662856,9.828198,1.5143325,0.88371277,9.662618,1.4224164
1409526290879,0.8571242,9.80665,1.4969746,0.8835744,9.662123,1.4258535
1409526290906,0.82779527,9.762956,1.4508862,0.8831536,9.661668,1.4291917
1409526290907,0.8146271,9.735423,1.4287399,0.88209164,9.66128,1.4324802
1409526290910,0.80205756,9.725247,1.4323312,0.8805199,9.66085,1.4363387
1409526290932,0.80564886,9.731233,1.4460979,0.8781931,9.660337,1.4411943
1409526290933,0.7787141,9.755175,1.4903905,0.87511617,9.6597805,1.4467888
1409526290939,0.7721301,9.761759,1.5352819,0.87124795,9.659151,1.453312
1409526290972,0.760159,9.779117,1.5646108,0.8667716,9.658469,1.4604952
1409526290973,0.7433996,9.803658,1.5855601,0.86166626,9.657815,1.4678309
1409526290974,0.7200562,9.832987,1.5945383,0.8555611,9.657331,1.4745635
1409526290979,0.6512229,9.850345,1.5652094,0.84763116,9.657123,1.4804952
1409526291001,0.56563014,9.846154,1.4790181,0.83797514,9.657229,1.4852988
1409526291002,0.54288524,9.846753,1.4041992,0.8266669,9.657629,1.4890298
1409526291010,0.5410896,9.792884,1.3431472,0.81478095,9.658153,1.492192
1409526291031,0.533907,9.770737,1.3317747,0.8018634,9.658826,1.4948171
1409526291032,0.57041854,9.758766,1.3497312,0.7878664,9.659648,1.4969559
1409526291038,0.6063316,9.752182,1.3694834,0.7740963,9.66048,1.4987674
1409526291060,0.6422446,9.726444,1.3718776,0.76041204,9.661345,1.5002
1409526291061,0.7703344,9.715671,1.3461399,0.746951,9.662159,1.5017046
1409526291082,0.82240826,9.693524,1.3347675,0.7352861,9.6628895,1.5027742
1409526291084,0.93732995,9.710283,1.3096284,0.72462225,9.663656,1.5030233
1409526291090,0.93493575,9.743802,1.3210008,0.71523315,9.664519,1.5019594
1409526291122,0.91697925,9.729437,1.3443443,0.70592725,9.665424,1.5005472
1409526291123,0.9379285,9.721656,1.4215573,0.69610465,9.666271,1.4996716
1409526291125,0.95708215,9.719262,1.4532804,0.6866828,9.666967,1.4995371
1409526291152,0.93613285,9.711481,1.513734,0.6783826,9.6676,1.4992361
1409526291153,0.97862995,9.690532,1.5125369,0.67045,9.668157,1.4992087
1409526291154,0.9660604,9.672575,1.5460558,0.6633809,9.668472,1.5003227
1409526291159,0.9744401,9.680356,1.6118963,0.6572294,9.668501,1.5028316
1409526291193,0.9744401,9.73662,1.6825253,0.65149075,9.668356,1.5062609
1409526291194,0.99060094,9.719262,1.7070658,0.6458752,9.668076,1.5104759
1409526291197,0.9744401,9.675568,1.6765398,0.6407935,9.667646,1.5153847
1409526291232,0.99060094,9.575011,1.5855601,0.6354276,9.667415,1.5191245
1409526291233,0.95229375,9.612122,1.5837644,0.6302238,9.6676035,1.5200808
1409526291235,0.8750807,9.647436,1.6729485,0.6248811,9.667956,1.5200375
1409526291236,0.8499416,9.644443,1.661576,0.6188915,9.66843,1.5194829
1409526291239,0.82899237,9.697714,1.6567876,0.61272746,9.668983,1.5184587
1409526291268,0.8098387,9.701305,1.6358383,0.6068124,9.669647,1.5166081
1409526291269,0.8110358,9.642049,1.6005238,0.6019702,9.670338,1.5141326
1409526291271,0.8242039,9.551069,1.6729485,0.59819955,9.670966,1.511617
1409526291279,0.88645315,9.531916,1.7393875,0.59514356,9.671505,1.5093706
1409526291306,0.89603,9.543886,1.6879122,0.59332126,9.671878,1.5076947
1409526291307,0.9103952,9.500193,1.6915035,0.59246206,9.672271,1.5055081
1409526291311,0.9660604,9.51336,1.7537527,0.5919606,9.672807,1.5022564
1409526291337,0.98102415,9.559449,1.8016368,0.59230995,9.673466,1.4978731
1409526291339,0.9588778,9.588778,1.7866731,0.59318423,9.674116,1.4933243
1409526291340,0.961272,9.619903,1.7088615,0.59414786,9.67478,1.4886265
1409526291371,0.9552865,9.656414,1.6460136,0.59496593,9.675493,1.4836621
1409526291374,0.93732995,9.7162695,1.6376339,0.595134,9.676274,1.4784803
1409526291375,0.89662856,9.715671,1.620276,0.59409755,9.676955,1.474436
1409526291388,0.8391677,9.715671,1.6406267,0.59148484,9.677423,1.4724276
1409526291413,0.62608373,9.630077,1.5616181,0.5874212,9.677724,1.4720751
1409526291416,0.53330845,9.697714,1.4909891,0.58067405,9.67814,1.4720079
1409526291417,0.45010993,9.759365,1.4413095,0.57217366,9.678708,1.471604
1409526291419,0.4141969,9.76535,1.3868413,0.56199837,9.679371,1.471175
1409526291452,0.40162733,9.795278,1.3000516,0.5507626,9.68007,1.4708254
1409526291454,0.3854665,9.802461,1.2605472,0.5392878,9.680824,1.4701012
1409526291455,0.38606504,9.8198185,1.2797008,0.5275197,9.68153,1.4697288
1409526291459,0.3842694,9.811439,1.3263878,0.51534355,9.682202,1.4696167
1409526291483,0.3788824,9.800066,1.3491327,0.50321484,9.682803,1.4698627
1409526291484,0.38307226,9.754577,1.352724,0.4913169,9.683337,1.4703707
1409526291491,0.39085343,9.701305,1.3652935,0.479707,9.68382,1.471023
1409526291515,0.43634325,9.627085,1.3682863,0.468464,9.68427,1.4716765
1409526291518,0.49081135,9.61272,1.4275428,0.4585984,9.684678,1.4721085
1409526291520,0.52732295,9.545084,1.4496891,0.45040467,9.684957,1.4727952
1409526291542,0.57640404,9.484032,1.4359225,0.44329262,9.685304,1.4726819
1409526291543,0.60812724,9.405622,1.4616601,0.43760535,9.685753,1.4714274
1409526291563,0.6278794,9.350554,1.4652514,0.43283883,9.686432,1.4683559
1409526291564,0.6757634,9.306262,1.4598645,0.42848954,9.687385,1.463343
1409526291572,0.6859388,9.276933,1.429937,0.4252936,9.688644,1.4559149
1409526291596,0.6733692,9.285313,1.389834,0.42285582,9.690196,1.4462714
1409526291597,0.7266402,9.299678,1.3916297,0.4207432,9.692028,1.4345658
1409526291599,0.7338228,9.297284,1.4221559,0.4200932,9.6941395,1.4204075
1409526291610,0.7918822,9.351752,1.4347254,0.42028278,9.696501,1.4041467
1409526291627,0.83737206,9.424176,1.4413095,0.4216972,9.698891,1.3871179
1409526291644,0.9008184,9.500791,1.4024036,0.42389333,9.701154,1.3705204
1409526291645,0.9091981,9.5570545,1.2779051,0.42724532,9.70345,1.3531109
1409526291651,0.9103952,9.615114,1.0779893,0.43074706,9.7058935,1.3343542
1409526291659,0.92655605,9.683948,1.0181342,0.43504488,9.708567,1.3133423
1409526291675,0.9307459,9.768343,1.0378864,0.43920186,9.711177,1.2924907
1409526291691,0.92176765,9.822811,1.0953473,0.44335404,9.713486,1.2735932
1409526291692,0.8619126,9.873089,1.0672154,0.44678348,9.715556,1.2564766
1409526291710,0.6667852,9.820416,1.0486604,0.4479843,9.717645,1.239789
1409526291711,0.46806642,9.767744,1.1288661,0.44515637,9.719847,1.2234417
1409526291725,0.37110126,9.716867,1.1216835,0.43830466,9.722189,1.2071885
1409526291740,0.37110126,9.714474,0.99299514,0.428735,9.72474,1.1899586
1409526291741,0.3752911,9.729437,0.8439561,0.41734114,9.727752,1.1692203
1409526291757,0.42556936,9.816826,0.59136784,0.4039676,9.731277,1.144311
1409526291759,0.45370123,9.829993,0.3441665,0.38994303,9.7351465,1.1158979
1409526291774,0.50038815,9.8042555,0.040102877,0.37400243,9.739497,1.0829215
1409526291789,0.79128367,9.866506,0.06823475,0.356052,9.744293,1.0451672
1409526291791,0.9403227,9.917382,0.13826515,0.3392796,9.749053,1.0056196
1409526291808,1.0133458,9.895236,0.12030864,0.3228721,9.753758,0.9645441
1409526291811,0.8367735,9.888652,0.31483752,0.30516598,9.75847,0.92171097
1409526291825,0.7134721,9.870096,0.48961425,0.28307125,9.76306,0.87917995
1409526291841,0.5758055,9.868899,0.56982,0.25825483,9.767345,0.8382687
1409526291842,0.3549404,9.86471,0.56443304,0.23212355,9.771288,0.79902625
1409526291856,0.1436521,9.825804,0.4441244,0.20415199,9.774898,0.761625
1409526291859,-0.055066638,9.731233,0.34356794,0.17420521,9.778296,0.72455347
1409526291871,0.15981296,9.898827,0.30526072,0.14258155,9.781382,0.68893975
1409526291888,0.3172317,9.857527,0.24600422,0.11223474,9.784148,0.6543863
1409526291891,0.7661445,9.924564,0.20829555,0.08315445,9.786653,0.6204098
1409526291907,1.1486182,10.029311,0.338181,0.05707641,9.788901,0.5869775
1409526291924,1.287482,9.990405,0.40880993,0.033664078,9.790876,0.5549743
1409526291925,1.632247,10.065224,0.4794389,0.009474479,9.792682,0.5231611
1409526291941,1.7669208,10.01734,0.46627077,-0.014207645,9.794346,0.49091363
1409526291942,1.6466122,9.918579,0.44592008,-0.038226746,9.795804,0.4595061
1409526291958,1.3640964,9.82341,0.4249708,-0.0657087,9.796914,0.43189153
1409526291959,1.7770962,9.93893,0.17118542,-0.09704481,9.797629,0.40917876
1409526291973,1.1725603,9.621698,0.092775315,-0.12347883,9.798242,0.3868401
1409526291988,0.8984242,9.487623,-0.011971008,-0.15492113,9.798493,0.3687281
1409526291991,0.8924387,9.472659,-0.059855044,-0.19079924,9.798385,0.3544985
1409526292006,1.0444705,9.4972,0.01316811,-0.22643809,9.798022,0.34331074
1409526292021,0.7661445,9.359533,0.11791443,-0.2581657,9.79755,0.3343132
1409526292025,0.7218518,9.341577,0.18136078,-0.29087374,9.796844,0.32805708
1409526292039,0.66498953,9.38168,0.17417817,-0.32537875,9.795889,0.324125
1409526292040,0.3309984,9.324817,0.10534488,-0.35975257,9.794787,0.32107672
1409526292060,0.557849,9.590573,-0.077213004,-0.39587346,9.793509,0.3175567
1409526292061,0.7769185,9.652225,-0.12509704,-0.42846063,9.792307,0.3123954
1409526292071,0.6362591,9.696517,-0.16220717,-0.4556829,9.791219,0.30793548
1409526292092,0.6889315,9.864111,-0.15083471,-0.48320976,9.790017,0.3040835
1409526292094,0.7134721,9.922171,-0.16160862,-0.5110548,9.788658,0.3022709
1409526292107,0.5363012,9.853935,-0.12749124,-0.5384541,9.787172,0.30284664
1409526292132,0.3250129,9.944916,-0.16579847,-0.56655025,9.785486,0.30605742
1409526292134,0.65182143,10.260351,0.01616086,-0.5961627,9.783575,0.3108803
1409526292135,0.3824737,10.207679,0.062249243,-0.6211928,9.781723,0.32002223
1409526292143,0.017357962,10.163386,0.002992752,-0.6503009,9.779407,0.3327654
1409526292168,-0.12689269,10.222643,-0.22026655,-0.6873664,9.776358,0.34755555
1409526292169,0.18854338,10.392033,-0.24959552,-0.7279169,9.772849,0.36326867
1409526292171,0.27353755,10.379463,-0.14065935,-0.7661018,9.769225,0.38172203
1409526292196,0.50038815,10.459669,-0.031124622,-0.8068954,9.765119,0.40222648
1409526292197,0.599149,10.579379,0.0053869537,-0.8463292,9.760792,0.42554364
1409526292200,0.6536171,10.720038,-0.12330139,-0.8858458,9.756125,0.4513228
1409526292230,0.694917,10.836157,-0.31244332,-0.9252888,9.751252,0.47677755
1409526292231,0.8595184,10.86788,-0.44771573,-0.96461016,9.7462225,0.5010779
1409526292232,1.0893618,10.931327,-0.5967548,-1.0014932,9.741255,0.524782
1409526292240,1.1659763,11.119271,-0.557849,-1.0351287,9.736549,0.5463468
1409526292266,1.4437037,11.332953,-0.29568392,-1.0665799,9.731959,0.56727266
1409526292267,1.5999253,11.649587,0.20290859,-1.0938202,9.727574,0.59013975
1409526292271,1.5532384,11.713632,0.8702923,-1.1157439,9.72355,0.61490417
1409526292296,1.620276,11.56579,1.4909891,-1.1323885,9.719818,0.64283967
1409526292297,1.2012907,11.23958,1.7878702,-1.1441439,9.716158,0.67646605
1409526292300,0.62368953,11.123461,2.0458453,-1.1519421,9.712688,0.7121283
1409526292336,0.09876082,10.897807,2.6060886,-1.1554178,9.70927,0.75199676
1409526292338,0.12808979,10.738593,3.0669725,-1.1554759,9.705652,0.7972335
1409526292340,0.4357447,10.615292,3.229778,-1.1482471,9.702764,0.8416075
1409526292342,0.28790274,10.524911,3.0023289,-1.1300164,9.7018585,0.87603176
1409526292372,-0.6206968,10.592546,1.8261774,-1.1036935,9.703608,0.8900825
1409526292373,-1.055843,10.717644,1.1480197,-1.076804,9.708099,0.87390584
1409526292373,-1.5915456,10.45907,0.43275195,-1.0464971,9.714573,0.83803606
1409526292394,-1.903989,10.101137,-0.44891283,-1.0148857,9.722278,0.7859669
1409526292394,-2.4648306,9.610924,-1.2036849,-0.97894734,9.731182,0.7184335
1409526292400,-2.8742392,9.869498,-1.3006501,-0.9435757,9.740075,0.64109254
1409526292427,-2.8802247,10.374675,-1.0420763,-0.899917,9.749262,0.55896837
1409526292429,-2.5552118,11.449671,-0.57400984,-0.8433081,9.758434,0.48186466
1409526292432,-2.2930467,12.492346,-0.36272156,-0.77037585,9.767227,0.4221119
1409526292440,-2.5791538,13.129802,-0.32321724,-0.68382996,9.775219,0.38452655
1409526292461,-3.7152026,12.416928,-0.19572599,-0.5953455,9.781535,0.37082538
1409526292462,-4.581305,11.672931,0.3537433,-0.52004564,9.785546,0.37821022
1409526292473,-5.1319714,11.03308,0.90021986,-0.45753613,9.787724,0.40189505
1409526292499,-5.0798974,10.83077,1.2509704,-0.40143737,9.788716,0.4362217
1409526292500,-4.6722846,11.042058,1.4377182,-0.34353885,9.788934,0.47869304
1409526292501,-4.2119994,10.414778,1.2826935,-0.2767349,9.788667,0.52519524
1409526292530,-3.4410665,9.77373,1.2240356,-0.20081535,9.787959,0.5708885
1409526292532,-2.533664,9.433155,1.1258733,-0.112700716,9.786866,0.61234164
1409526292533,-1.5957354,9.221867,0.8924387,-0.01500212,9.78539,0.64523387
1409526292540,0.29867667,8.808268,0.07182605,0.092446014,9.7835045,0.66700786
1409526292565,1.062427,8.86932,-0.022744916,0.21625316,9.780949,0.675774
1409526292567,1.6956934,9.027337,-0.013766659,0.34739503,9.776718,0.68225396
1409526292572,1.9069817,8.91062,0.075417355,0.48121068,9.770324,0.6925392
1409526292595,1.7735049,8.448539,0.2765303,0.6109429,9.7616825,0.711815
1409526292596,1.4053963,7.4723034,0.6290765,0.7296788,9.751071,0.7446815
1409526292600,0.7254431,6.503849,1.2204443,0.83332074,9.738802,0.7948066
1409526292629,0.61291564,5.807735,1.5891514,0.9255353,9.725275,0.8560405
1409526292630,0.29149407,4.9799395,1.8674773,1.0065159,9.710283,0.9315198
1409526292632,0.12330139,4.683657,2.107496,1.0780997,9.694329,1.013928
1409526292640,0.023942016,4.5555673,2.183512,1.1451052,9.677743,1.0956489
1409526292661,0.15203181,4.431069,2.0745757,1.2112602,9.661031,1.1694951
1409526292662,0.3429694,4.4699745,1.9829975,1.2797518,9.644935,1.227949
1409526292676,0.5506664,4.911106,1.858499,1.3512939,9.6301565,1.2666788
1409526292698,0.92057055,5.4264584,1.6645688,1.4265424,9.616643,1.2866759
1409526292699,1.3192052,5.9926867,1.5526398,1.5028305,9.604573,1.289986
1409526292700,1.75076,6.5744777,1.5191209,1.5769663,9.593878,1.2810488
1409526292727,2.3834279,7.0090256,1.4275428,1.6448013,9.584717,1.2642168
1409526292728,2.9472623,7.4327993,1.1994951,1.7112796,9.575834,1.2431103
1409526292732,3.3022027,8.407239,1.4622587,1.767797,9.568984,1.2164812
1409526292740,3.7259765,9.081805,1.6017209,1.810458,9.564194,1.1911557
1409526292764,4.7734394,9.913192,1.5861586,1.8406228,9.560917,1.1710651
1409526292765,4.68665,10.199299,1.6932992,1.8672215,9.557516,1.156611
1409526292772,5.1942205,10.875063,1.4526819,1.8805509,9.555847,1.1487988
1409526292790,5.2929816,11.198878,1.5879543,1.8909317,9.554949,1.1391811
1409526292803,3.6942532,10.733206,2.404377,1.9019423,9.554185,1.127192
1409526292804,3.7618895,11.119271,2.2882583,1.8979496,9.555704,1.1210096
1409526292822,3.6535518,11.43351,2.0254946,1.9006373,9.556325,1.1111335
1409526292822,3.6433764,11.683105,1.7280151,1.9190125,9.55427,1.097126
1409526292835,3.852869,12.004527,1.7447745,1.9454356,9.551265,1.0765748
1409526292840,4.197634,12.171523,1.9734207,1.9931738,9.544167,1.0519202
1409526292853,4.5262384,11.888409,2.2272062,2.061601,9.531907,1.0310037
1409526292873,4.685453,11.6352215,3.0148985,2.144649,9.514767,1.0198411
1409526292874,4.4478283,11.942877,4.932654,2.231524,9.493644,1.0302602
1409526292887,3.591901,15.086464,7.4549456,2.3108187,9.4689455,1.0814661
1409526292910,2.6767175,18.206108,5.3887496,2.362682,9.442611,1.1938287
1409526292911,0.6452374,17.40046,1.5771804,2.3845935,9.424262,1.2912791
1409526292911,-1.2246342,16.472706,-0.34476504,2.3866768,9.419271,1.3234324
1409526292920,-1.7836803,13.6673,-1.5292963,2.3711386,9.424587,1.3134862
1409526292936,-1.846528,10.887632,-0.9983821,2.3631897,9.427894,1.3040532
1409526292940,-1.8357542,8.930971,0.8403648,2.3518932,9.42657,1.3337054
1409526292952,-1.513734,8.300098,1.7878702,2.3179662,9.425243,1.4007974
1409526292971,-1.2437878,7.8649526,1.6531962,2.2618477,9.4284115,1.4695085
1409526292972,-0.8583213,7.4549456,1.4867992,2.1993535,9.435919,1.5154783
1409526292985,-0.5351041,7.252037,1.821389,2.1429489,9.44589,1.5340561
1409526293001,-0.14784196,7.6093717,1.977012,2.0966325,9.456319,1.5338001
1409526293002,0.57400984,8.264784,1.7860745,2.0576084,9.467301,1.5188352
1409526293020,1.2425907,8.814852,1.4395138,2.0216613,9.479749,1.4891783
1409526293021,1.7681179,9.314642,1.0528502,1.9856051,9.494176,1.4451333
1409526293036,2.0482395,9.873089,0.45429978,1.9477283,9.510196,1.3903075
1409526293041,2.0685902,10.448297,-0.040102877,1.9061009,9.527028,1.3315005
1409526293053,1.839944,10.871471,-0.23822308,1.8588816,9.545068,1.2675352
1409526293080,1.3796587,10.544662,-0.30585927,1.8006736,9.563555,1.2109517
1409526293081,0.8343793,10.238205,-0.2621651,1.7304791,9.581876,1.1676801
1409526293082,0.3800795,9.635465,-0.22146365,1.6488928,9.600619,1.1312323
1409526293116,0.11133038,9.146449,-0.027533319,1.559518,9.619714,1.0951567
1409526293117,-0.23702596,8.871715,0.439336,1.4638124,9.638479,1.0617741
1409526293118,-0.521936,8.27496,0.5781997,1.3642424,9.655815,1.0365771
1409526293120,-0.5279215,8.252813,0.682946,1.2659643,9.670887,1.0206168
1409526293142,-0.6739678,8.054693,0.7392098,1.1750284,9.68303,1.0142256
1409526293143,-1.0241197,7.933786,0.712275,1.094594,9.692654,1.0122762
1409526293152,-1.0702082,7.8912888,0.54647654,1.017187,9.70062,1.0167028
1409526293176,-1.3784616,7.7614036,0.44592008,0.9456416,9.7071705,1.0232377
1409526293178,-1.4628572,7.893683,0.29747957,0.8737788,9.713656,1.0255705
1409526293181,-1.6047137,8.127118,0.20051439,0.7957115,9.721324,1.016414
1409526293212,-1.42455,8.189367,0.06284779,0.7078924,9.73018,0.99643624
1409526293213,-0.96187055,8.231864,-0.09995792,0.6155223,9.739113,0.9701655
1409526293214,-0.21667525,8.730456,-0.23942018,0.52523005,9.747036,0.94328916
1409526293221,0.29149407,9.009381,-0.08319851,0.4444009,9.753149,0.92140347
1409526293244,0.75956047,9.370307,0.17956513,0.3763152,9.756775,0.9132991
1409526293245,0.9487024,9.725247,0.48243165,0.32013547,9.757714,0.9246201
1409526293253,0.8810662,9.572617,0.7200562,0.2698582,9.757109,0.94679165
1409526293283,1.283292,9.48463,0.7703344,0.2230415,9.754457,0.98550624
1409526293283,1.3628993,9.504981,0.7685388,0.17939116,9.750307,1.0342729
1409526293284,1.532289,9.481637,0.729633,0.13408011,9.745096,1.0888269
1409526293309,1.7986441,9.368511,0.5518635,0.0877455,9.7393055,1.1439526
1409526293315,2.3810337,9.546879,0.57879823,0.042390916,9.7334585,1.1951486
1409526293316,2.5372553,9.515755,0.83018947,0.0026686348,9.727498,1.2434465
1409526293322,2.5617957,9.425972,1.1426327,-0.035956096,9.720779,1.2944255
1409526293360,2.3636756,9.546281,1.2916719,-0.0755869,9.712718,1.3519454
1409526293362,1.7543513,9.215282,1.8483237,-0.119042195,9.703502,1.4136125
1409526293365,1.6759412,9.344569,2.19249,-0.17028062,9.693254,1.4772283
1409526293368,1.0265139,9.333197,2.2080526,-0.22283396,9.682441,1.5398388
1409526293394,1.0845734,9.711481,1.9812019,-0.28115243,9.672462,1.5921149
1409526293396,1.6238673,10.067618,1.7328035,-0.3357106,9.664509,1.629401
1409526293397,2.19249,10.080787,1.1683705,-0.37945873,9.658787,1.6535581
1409526293401,2.6743233,9.856929,1.0702082,-0.4118774,9.65475,1.6692998
1409526293430,2.753332,9.873089,1.3281834,-0.4359629,9.65129,1.6831378
1409526293431,2.1871033,9.792884,1.8219875,-0.45658258,9.647804,1.6975942
1409526293433,1.0965444,10.04607,1.9111716,-0.4785122,9.643254,1.717274
1409526293464,0.39983168,10.493786,2.0931308,-0.501691,9.638436,1.7376001
1409526293465,-0.14903906,10.633847,3.0484173,-0.5185379,9.635306,1.7499645
1409526293466,-0.47524905,10.4249525,3.359065,-0.52455413,9.632695,1.7625042
1409526293474,-0.557849,9.66659,2.3624785,-0.52255476,9.63339,1.7592958
1409526293492,-0.5955577,8.650849,2.4558525,-0.49700916,9.64019,1.7291917
1409526293493,-1.4317327,7.07726,1.7357962,-0.45104238,9.651563,1.6775796
1409526293501,-2.2266076,6.8144965,0.6913257,-0.39745352,9.668614,1.5906992
1409526293527,-3.3476925,7.107786,-0.30166942,-0.33587652,9.690708,1.4655232
1409526293528,-3.9588125,8.764574,-1.0773908,-0.26722333,9.71514,1.3095974
1409526293533,-4.268263,11.506534,-1.6358383,-0.19218905,9.738424,1.1386597
1409526293564,-3.6912606,15.093047,-1.8082209,-0.11079936,9.757637,0.9729671
1409526293566,-2.0201077,18.608932,-1.8800468,-0.01428535,9.771302,0.83176297
1409526293567,-0.95827925,19.608511,-1.8459295,0.11787679,9.779845,0.7149515
1409526293573,-1.9853917,19.553446,-1.2431892,0.2712837,9.783814,0.6113789
1409526293596,-2.4067712,18.037317,-0.41180268,0.4064261,9.783531,0.53641456
1409526293597,-2.5845408,14.953586,1.4957775,0.5145805,9.7802725,0.50187576
1409526293601,-2.8886044,12.378621,2.9771898,0.6006801,9.773661,0.5340104
1409526293629,-3.0340521,11.07438,3.709217,0.66857904,9.764363,0.61695296
1409526293630,-2.7401638,11.358691,3.3039982,0.7286102,9.753821,0.7088754
1409526293633,-2.3020248,11.067796,2.3666685,0.7996534,9.743661,0.7694091
1409526293667,-1.5245079,9.555259,1.7663223,0.8907877,9.73436,0.78687406
1409526293668,-1.2150574,7.60997,1.9608512,1.0011538,9.724181,0.78000414
1409526293669,-0.3513491,6.906075,2.463035,1.1206747,9.711889,0.7705127
1409526293690,1.1659763,7.241263,2.8257565,1.2488276,9.696718,0.7645365
1409526293691,2.9460652,7.9786773,1.8219875,1.386882,9.678175,0.7615046
1409526293693,2.7269957,6.925827,0.95109665,1.5352904,9.656533,0.75143504
1409526293701,2.4660277,6.0824695,0.47884035,1.6692783,9.635264,0.7386498
1409526293726,2.3247697,5.6910176,0.5033809,1.7809505,9.615608,0.73394847
1409526293727,2.0961237,5.445013,0.6841431,1.875428,9.596808,0.7445921
1409526293735,1.7938557,5.0493712,0.9624691,1.9590386,9.577904,0.77221304
1409526293762,1.388637,4.7788267,1.1737574,2.0341673,9.558575,0.81622285
1409526293763,1.3072342,5.067328,1.2862848,2.09937,9.539688,0.870276
1409526293764,1.3198037,5.3516393,1.2030864,2.1562083,9.521696,0.92652977
1409526293797,1.4460979,5.5880666,1.0690111,2.2078602,9.504709,0.9778817
1409526293798,1.4891934,5.896919,0.9127894,2.25424,9.488848,1.0249703
1409526293799,1.4891934,6.1040173,0.8690952,2.2964494,9.474792,1.0606787
1409526293801,1.5167267,6.2075663,0.9756372,2.3294337,9.463788,1.086666
1409526293825,1.5682021,6.3129115,1.1372458,2.3528526,9.455868,1.1050193
1409526293826,1.7351977,6.6947865,1.258153,2.3670352,9.450914,1.117043
1409526293833,2.3223755,7.4872675,1.4808137,2.3727,9.448991,1.121272
1409526293862,2.7964275,8.168418,1.7316064,2.3727245,9.449245,1.1190865
1409526293864,3.0125043,8.506598,1.9452889,2.3670022,9.451171,1.1149287
1409526293865,3.3704374,9.129091,1.8650831,2.3521924,9.455355,1.110798
1409526293916,3.726575,10.005369,2.273893,2.327377,9.46221,1.104678
1409526293917,3.6780925,10.375273,2.557606,2.2923617,9.4707575,1.1046283
1409526293918,4.0222588,10.650606,2.4193408,2.252956,9.479748,1.108582
1409526293919,3.980959,10.984597,2.7862523,2.2136278,9.488313,1.1145236
1409526293920,3.3249476,12.212823,3.1603463,2.1818106,9.494569,1.1239526
1409526293923,2.8981812,13.302783,2.088941,2.1588395,9.498396,1.135916
1409526293944,3.7337575,13.366828,0.55485624,2.1485357,9.50077,1.1355892
1409526293945,5.01705,12.596494,-0.28191724,2.1672728,9.499018,1.1144542
1409526293962,6.2632318,10.83077,-0.2789245,2.2221358,9.489872,1.0838895
1409526293995,6.9886746,9.033323,1.1749545,2.3099475,9.47123,1.0631764
1409526293996,7.2568254,8.603564,3.9175124,2.416685,9.4445095,1.0636264
1409526293997,7.2107368,11.87524,7.593809,2.536428,9.410866,1.0828432
1409526293998,5.973533,17.571047,8.426393,2.6619232,9.369758,1.136739
1409526294001,3.9324763,19.503166,3.6834793,2.7506151,9.334821,1.210643
1409526294031,0.31663316,17.505804,1.1001357,2.7864401,9.32228,1.225249
1409526294033,-2.0290859,15.628152,-0.13587095,2.764236,9.328684,1.2268097
1409526294034,-2.345719,13.987525,-1.7513585,2.7078333,9.345887,1.2216496
1409526294065,-2.4259248,12.126033,-1.1007342,2.643278,9.363876,1.2252812
1409526294066,-2.8137856,10.677541,0.5243302,2.56531,9.380044,1.2666355
1409526294067,-2.8790276,9.43495,0.2100912,2.4705055,9.397264,1.3260499
1409526294092,-2.391209,8.724471,0.13347675,2.3763268,9.415447,1.3685043
1409526294093,-1.7932571,8.926183,0.5153519,2.298352,9.431035,1.3941116
1409526294095,-1.3557167,9.167996,0.7302315,2.2374012,9.44377,1.4069846
1409526294101,-0.3752911,9.077017,0.8487445,2.1877608,9.454682,1.4117635
1409526294134,0.89543146,8.7053175,1.2294226,2.14765,9.4645195,1.4074271
1409526294135,1.9680338,8.54311,1.2539631,2.1130877,9.474063,1.3955004
1409526294136,2.593519,9.071032,1.1941081,2.07683,9.485127,1.3746061
1409526294162,2.834735,9.8677025,1.1671734,2.0340567,9.498115,1.3486364
1409526294163,2.3391352,10.009559,0.9463082,1.9818693,9.513085,1.320539
1409526294165,1.5334862,9.859323,0.57520694,1.9140834,9.531222,1.2893717
1409526294194,0.8319851,10.008362,0.26036942,1.8292433,9.553089,1.2501094
1409526294195,0.25737667,10.068815,0.17717093,1.7312428,9.577917,1.1986159
1409526294196,-0.23702596,9.564238,0.13826515,1.6276072,9.603155,1.1404829
1409526294202,-0.56802434,8.782531,-0.02813187,1.5234581,9.626605,1.0853443
1409526294225,-1.0115502,8.027759,-0.11552023,1.4207901,9.647797,1.0352707
1409526294226,-1.1833342,7.805696,-0.14604631,1.3218887,9.665736,0.99827224
1409526294233,-1.4275428,8.066066,-0.25139117,1.2308139,9.680254,0.9737428
1409526294251,-1.5586253,8.355764,-0.17118542,1.1509403,9.691613,0.9583131
1409526294255,-1.3257892,8.588001,0.5081693,1.0834314,9.699769,0.9544985
1409526294277,-0.84814596,8.565855,0.52133745,1.0244889,9.704654,0.9698066
1409526294278,-0.7248446,8.39048,0.1352724,0.9689072,9.7073555,0.99942255
1409526294282,-1.0552444,8.241441,-0.08559271,0.9087087,9.70983,1.0314392
1409526294311,-0.57400984,7.773973,-0.37828386,0.83444023,9.714155,1.0532383
1409526294312,-0.034715924,7.972093,-0.39324763,0.74804014,9.720391,1.0605899
1409526294313,0.9427169,8.459313,-0.57161564,0.6560729,9.726906,1.0617443
1409526294344,1.7262194,8.687361,-0.50278234,0.57007337,9.732347,1.0615257
1409526294345,2.3403323,8.755595,0.032920275,0.49364203,9.735728,1.0687884
1409526294346,2.7036524,8.856153,0.7589619,0.4280898,9.736086,1.093516
1409526294354,2.9287071,8.813056,1.2024878,0.37017173,9.732588,1.1445944
1409526294379,2.678513,8.448539,1.6585833,0.31748664,9.7248955,1.223115
1409526294380,2.4013844,7.914034,2.0368671,0.2627855,9.71362,1.321722
1409526294383,2.2391772,7.277176,2.112883,0.2033434,9.699998,1.4279729
1409526294405,2.191293,6.743868,1.9812019,0.13948613,9.685581,1.5298628
1409526294405,2.4313118,6.7630215,2.0129251,0.073742405,9.671819,1.6189053
1409526294413,2.7216089,7.2394676,1.9979613,0.012240692,9.659596,1.691873
1409526294436,2.7850552,8.280945,2.005144,-0.040860273,9.647966,1.7565485
1409526294437,2.5761611,9.4062195,2.1068976,-0.08767536,9.63822,1.8076018
1409526294452,2.058415,10.9660425,2.6485856,-0.12892014,9.629683,1.850134
1409526294468,1.5316905,10.724228,1.9057846,-0.17156628,9.621284,1.8899364
1409526294469,1.4269443,10.760739,1.192911,-0.22480592,9.614883,1.9167297
1409526294487,1.614889,10.94629,0.93134445,-0.28338465,9.611702,1.9249072
1409526294488,1.9069817,11.188105,1.0881647,-0.3403295,9.611197,1.9181887
1409526294493,2.0805612,11.238382,1.3239936,-0.39152017,9.6111355,1.9087095
1409526294501,2.1643584,10.970232,1.5155296,-0.43844676,9.610311,1.9026562
1409526294518,1.75076,10.557831,1.6364368,-0.48135918,9.608835,1.8997283
1409526294536,1.3311762,10.263943,1.567005,-0.523044,9.606877,1.8986154
1409526294537,1.0564415,10.368689,1.7489643,-0.56427133,9.604953,1.8965439
1409526294549,0.7194576,10.549451,2.7222073,-0.594987,9.604671,1.8885769
1409526294571,0.2645593,10.361506,3.3081882,-0.6133087,9.606176,1.8750007
1409526294573,0.2621651,9.768942,2.3690627,-0.6177455,9.609645,1.8556694
1409526294573,-0.049679685,8.785523,2.178125,-0.59955275,9.617171,1.8223557
1409526294587,-0.38486794,7.7560163,2.3630772,-0.56429374,9.628539,1.7729063
1409526294612,-1.4945804,6.707356,1.8854338,-0.51869255,9.644414,1.6990099
1409526294613,-2.4899697,6.084265,1.1025299,-0.46664384,9.665063,1.5934902
1409526294614,-3.1609447,6.4392056,0.034715924,-0.40254644,9.688961,1.4602631
1409526294637,-3.5757403,7.8344264,-0.4345476,-0.32173795,9.713418,1.3100977
1409526294638,-4.540005,14.827889,-0.6218939,-0.2270577,9.734461,1.1658056
1409526294642,-2.6856956,19.041086,-1.7956513,-0.15209626,9.752822,1.014747
1409526294673,-1.377863,19.608511,-2.6515784,-0.044449493,9.767891,0.86990654
1409526294675,-2.1577742,19.608511,-2.7234044,0.099642426,9.778305,0.7383809
1409526294676,-2.3068132,19.51035,-1.4197617,0.23884739,9.784275,0.6174878
1409526294682,-1.8764555,16.803106,0.53211135,0.3581733,9.785192,0.5405179
1409526294712,-2.5899277,12.051214,2.509722,0.4565993,9.780731,0.5470178
1409526294714,-2.9119477,9.7863,3.7295678,0.5226553,9.772923,0.62226504
1409526294715,-2.8981812,10.055647,3.7235823,0.56041217,9.7644615,0.71528006
1409526294744,-1.7244238,10.819398,2.9466639,0.5954244,9.757279,0.7818939
1409526294745,-0.7110779,9.458294,2.5516205,0.6656664,9.751155,0.8014333
1409526294746,-0.091578215,6.96174,2.7287915,0.77382976,9.744272,0.7878572
1409526294783,1.3054385,6.896498,3.5122938,0.895484,9.735409,0.7682956
1409526294785,2.5959132,7.5201874,3.6942532,1.0360423,9.722797,0.7511434
1409526294788,3.8845923,8.108562,3.2034419,1.189379,9.706319,0.73697925
1409526294789,3.855862,7.506421,2.0219033,1.3487074,9.686834,0.71876264
1409526294820,3.1920695,6.3248825,0.81283146,1.4901849,9.667702,0.69661564
1409526294822,2.8999767,5.6269727,0.37828386,1.6041441,9.650382,0.6835604
1409526294822,2.6952724,5.2223525,0.3728969,1.7003119,9.633313,0.6918115
1409526294823,2.393603,4.4424415,0.5398925,1.7881482,9.615067,0.72347677
1409526294834,1.6962919,4.336498,0.8158242,1.8687291,9.595612,0.77620006
1409526294853,1.3533225,4.7058034,0.99898064,1.9412344,9.575569,0.84291273
1409526294854,1.0749966,4.9302597,1.0809821,2.0087109,9.555141,0.9136323
1409526294862,1.0516531,5.2145715,1.2126632,2.069234,9.53529,0.9833354
1409526294896,0.9648633,5.6401405,1.2695254,2.1219563,9.516846,1.0475503
1409526294898,0.89782566,6.166865,1.3491327,2.1634672,9.501101,1.104028
1409526294899,1.0779893,6.5469446,1.4490906,2.1925294,9.488871,1.1508886
1409526294927,1.4790181,7.079654,1.7154455,2.2109277,9.480289,1.1858757
1409526294928,1.9045875,7.6931686,2.1505916,2.2195685,9.475432,1.2083529
1409526294929,2.3469162,8.2276745,2.3654714,2.2175624,9.474291,1.220916
1409526294937,2.96881,8.728063,2.0404584,2.2033265,9.477201,1.2240958
1409526294959,3.5889084,9.15842,1.5544355,2.1776187,9.484459,1.2138422
1409526294960,3.9456444,9.584588,1.2210429,2.1414814,9.495569,1.1910522
1409526294962,4.0282445,10.086173,1.5304934,2.1016474,9.508065,1.1619635
1409526294995,4.267066,10.634445,2.1960814,2.0493927,9.522516,1.1367052
1409526294997,3.733159,10.444705,3.2190042,1.9916224,9.536225,1.1243817
1409526294998,3.8241386,10.08737,2.9999347,1.9279602,9.548296,1.1328753
1409526295029,3.9953241,9.898229,2.6641479,1.8719772,9.5578165,1.1463953
1409526295031,1.6286557,12.299014,2.4007857,1.8335263,9.563979,1.1571008
1409526295032,2.630629,12.532449,0.2896984,1.787711,9.571552,1.16613
1409526295034,5.2247467,12.451645,-1.2066777,1.7761512,9.574952,1.1558529
1409526295058,6.0746884,10.541072,-0.4429273,1.8288885,9.568562,1.1261411
1409526295059,6.3422403,9.021352,2.433706,1.9280196,9.550927,1.1103742
1409526295063,5.6946087,10.822391,8.275558,2.0507052,9.522969,1.1305121
1409526295088,5.374983,17.710508,8.018182,2.1790786,9.483962,1.215096
1409526295089,3.4931402,19.608511,2.8532898,2.302915,9.443628,1.2980127
1409526295094,-0.34955344,19.17995,1.0324994,2.4093652,9.419872,1.2772499
1409526295127,-2.4426842,16.82645,-0.4237737,2.4644265,9.412487,1.2255905
1409526295128,-1.5771804,14.709975,-1.134253,2.484623,9.412596,1.1832541
1409526295130,-1.3006501,11.90457,-0.045489833,2.4909048,9.408317,1.2038983
1409526295136,-1.7543513,10.055049,0.3788824,2.4729803,9.400777,1.2962006
1409526295157,-2.220622,8.854357,0.3645172,2.4184458,9.401456,1.390739
1409526295159,-2.3187842,8.22109,0.74878657,2.3419733,9.412425,1.4463176
1409526295163,-2.2415714,8.455722,1.4460979,2.2689507,9.427153,1.4666502
1409526295191,-1.5598224,9.330204,1.5999253,2.204929,9.441629,1.4711604
1409526295192,-0.25198972,9.825205,1.8495208,2.1487975,9.4558115,1.4631138
1409526295194,1.2617443,9.8437605,1.9488802,2.1030803,9.46838,1.4481899
1409526295226,2.0895395,9.48882,0.8499416,2.0640137,9.480127,1.4273762
1409526295230,2.345719,10.519524,0.75118077,2.0196068,9.49544,1.3886007
1409526295231,1.9931729,11.319187,0.9624691,1.9585036,9.515417,1.3384651
1409526295236,1.359308,11.331757,0.78769237,1.878685,9.538139,1.2902894
1409526295264,0.5009867,10.586561,0.30645782,1.7835555,9.561708,1.2502182
1409526295265,0.073023155,9.69532,0.0011971008,1.6764178,9.585913,1.2125603
1409526295269,-0.08798691,8.750807,-0.11133038,1.5615076,9.610297,1.1722984
1409526295286,-0.46327803,7.876325,-0.22325931,1.444595,9.6331415,1.1340765
1409526295287,-1.1186907,7.5207863,-0.38726214,1.3267776,9.65399,1.1002398
1409526295294,-1.9482816,7.2406645,-0.55964464,1.2080019,9.672527,1.0739368
1409526295316,-2.2110453,6.977901,-0.6703765,1.0883147,9.688904,1.0540993
1409526295319,-2.1775265,7.4615297,-0.7194576,0.9774128,9.702602,1.0366291
1409526295336,-1.9632454,8.243835,-0.39863458,0.8796169,9.713894,1.0183249
1409526295337,-1.4867992,8.497621,0.2148796,0.7946685,9.722671,1.004287
1409526295342,-0.83497787,8.394072,0.43275195,0.7181439,9.728406,1.0063766
1409526295371,-0.65062433,8.238448,0.15083471,0.64541197,9.731254,1.0278823
1409526295372,-0.7170634,8.085219,-0.2633622,0.5682335,9.732956,1.0569191
1409526295374,-0.50038815,8.1402855,-0.2645593,0.47953096,9.735501,1.0772412
1409526295382,0.0724246,8.006809,-0.17657238,0.3789425,9.738683,1.0885218
1409526295398,1.3617022,8.218098,-0.2825158,0.27792716,9.740865,1.099415
1409526295420,2.268506,8.255207,0.16519992,0.18151963,9.741473,1.114066
1409526295421,2.5689783,8.395268,0.87807345,0.0949002,9.739562,1.1412019
1409526295422,2.6862943,8.604761,1.7124528,0.017246172,9.734622,1.186258
1409526295437,2.5611973,8.689755,2.296638,-0.045935165,9.725767,1.256072
1409526295462,2.1122844,8.582615,2.3127987,-0.09807123,9.71258,1.351517
1409526295464,1.7405846,8.5383215,1.9357121,-0.15262341,9.696525,1.4575766
1409526295465,1.7645266,8.514978,1.4820108,-0.21613637,9.6801815,1.5549142
1409526295492,2.0979192,8.435969,1.3748703,-0.284246,9.665516,1.6332214
1409526295493,2.4690206,8.921394,1.6502035,-0.34892675,9.652732,1.69511
1409526295495,2.6360161,9.2308445,1.7046716,-0.40722117,9.640234,1.7522709
1409526295525,2.6611552,9.48882,1.8219875,-0.45761898,9.628644,1.8028351
1409526295526,2.5438392,9.568427,2.4001873,-0.5051062,9.617681,1.8481034
1409526295527,2.3265655,9.739014,2.2092497,-0.5535624,9.606559,1.8915526
1409526295557,2.1763294,9.693524,1.8231846,-0.60270256,9.596282,1.9283471
1409526295558,2.5420437,9.7162695,1.1827357,-0.64958614,9.58765,1.9558588
1409526295559,2.991555,9.752182,0.7170634,-0.6849697,9.581715,1.9728059
1409526295563,3.6780925,10.00896,1.1139023,-0.7073745,9.577484,1.9854022
1409526295589,3.5577838,10.168773,1.7794905,-0.7150689,9.57351,2.001752
1409526295590,2.8233624,10.087969,2.4947581,-0.71677244,9.568671,2.0241444
1409526295595,0.8655039,10.356718,2.6809072,-0.72082084,9.562318,2.0525253
1409526295622,0.032920275,10.101137,3.3500867,-0.7409022,9.554984,2.0793548
1409526295623,-0.7667431,9.519346,3.3877954,-0.7630728,9.54858,2.1006496
1409526295624,-0.76434886,8.926781,2.5821466,-0.7842622,9.546497,2.1023126
1409526295657,-0.40940848,8.158242,2.3948002,-0.78639215,9.552448,2.0742993
1409526295658,0.08619126,7.5830355,2.653374,-0.75938624,9.566562,2.018572
1409526295659,-0.7128736,6.999449,1.5442601,-0.70949817,9.587937,1.933512
1409526295663,-1.4891934,6.8605847,0.623091,-0.6537054,9.61588,1.8105052
1409526295703,-2.7473464,7.341221,-0.060453594,-0.5925754,9.6476145,1.6561376
1409526295705,-3.4865563,8.881291,-0.96187055,-0.5273931,9.679917,1.4803637
1409526295707,-3.7134068,11.291056,-1.6394296,-0.4541372,9.7103195,1.2937697
1409526295708,-3.7702692,14.630966,-1.8656816,-0.3671805,9.736841,1.1088333
1409526295717,-3.5775359,18.507778,-2.146402,-0.27625555,9.758968,0.9255378
1409526295738,-2.2505496,19.608511,-2.9933507,-0.17269133,9.775546,0.7611042
1409526295739,-2.6862943,19.608511,-2.771887,-0.03463102,9.787147,0.61722124
1409526295743,-3.3393128,19.594746,-0.96905315,0.10059334,9.793027,0.5068237
1409526295772,-3.0561984,17.293917,1.5161282,0.20284449,9.793415,0.46719024
1409526295773,-2.7647045,13.0041065,3.566762,0.28483814,9.788327,0.5271739
1409526295775,-3.1531637,10.231023,4.795586,0.35407892,9.778607,0.651058
1409526295784,-4.033033,9.813234,3.9145198,0.40443963,9.767433,0.7772236
1409526295811,-2.6563668,10.278907,2.6659436,0.44535017,9.759442,0.85167766
1409526295812,-1.3437457,8.998607,2.3116016,0.5210448,9.7548065,0.86176646
1409526295815,-0.3561375,7.255628,2.433706,0.6253318,9.750086,0.8456851
1409526295846,1.1456255,7.107786,2.7940333,0.76309687,9.744069,0.8007576
1409526295847,3.0777464,8.565256,3.0388405,0.9161672,9.735025,0.7485487
1409526295849,3.952827,8.758589,2.3834279,1.0827293,9.721673,0.6979764
1409526295873,4.0120835,8.12233,1.3329718,1.2501547,9.705446,0.64171326
1409526295876,3.6367924,7.0994067,0.45429978,1.3970824,9.689207,0.58122575
1409526295877,3.3051953,6.169858,0.21667525,1.5108802,9.6751375,0.52854866
1409526295884,2.866458,5.2606597,0.29388827,1.5987144,9.662701,0.4967074
1409526295902,2.8119898,4.8602295,0.581791,1.6708657,9.650674,0.49307287
1409526295903,2.5594015,4.5118732,0.9211691,1.7386631,9.637398,0.51769173
1409526295939,2.3092074,4.410718,1.0522517,1.8031486,9.622972,0.56344694
1409526295941,1.9806033,4.5567646,1.1354501,1.8639953,9.608022,0.61793435
1409526295942,1.83336,4.5687356,1.1061212,1.9180579,9.593316,0.6780518
1409526295943,1.5741876,4.767454,1.0534488,1.9622517,9.579973,0.7376
1409526295971,1.5640123,4.905121,1.0809821,1.992393,9.56936,0.79255265
1409526295973,1.6537948,5.2277393,1.0785879,2.0085564,9.5619335,0.83995974
1409526295975,1.9369092,6.341642,1.2282255,2.0123124,9.557872,0.8764012
1409526296002,2.2098482,7.133524,1.678934,2.0063877,9.556869,0.90059394
1409526296003,2.5773582,7.801506,2.0805612,1.9911447,9.558611,0.9158067
1409526296005,3.1358056,8.407239,2.3157916,1.9669629,9.562459,0.927804
1409526296017,3.6463692,9.027337,2.4558525,1.9354075,9.56786,0.93842596
1409526296045,4.064756,9.942521,2.5779567,1.8973099,9.574706,0.94636375
1409526296046,3.9600096,10.678739,2.858677,1.8580432,9.581685,0.9535972
1409526296048,4.092888,11.121665,2.9149406,1.8082745,9.590362,0.962043
1409526296074,2.947861,10.5704,2.8269536,1.7562209,9.599177,0.9705133
1409526296074,2.2050598,10.501567,2.3995886,1.6975642,9.609093,0.97673494
1409526296076,1.1432313,12.059594,2.2272062,1.6412156,9.618811,0.9773808
1409526296099,0.41299978,15.343841,1.8010383,1.5873841,9.627848,0.9773218
1409526296100,1.3072342,15.531186,-0.14664486,1.5382147,9.635796,0.9776222
1409526296113,3.3393128,13.707403,-1.3856442,1.5262858,9.639279,0.9618489
1409526296134,6.0387754,11.28088,-1.7196354,1.5681599,9.6338,0.94930565
1409526296135,6.2985463,8.470087,-0.130484,1.6625296,9.616733,0.9617063
1409526296136,7.141904,7.1945763,3.0388405,1.7651361,9.594366,1.0014234
1409526296144,7.5375457,8.722675,7.5770497,1.8931595,9.562368,1.0711884
1409526296168,6.463746,14.1629,9.782109,2.0556252,9.517944,1.1634189
1409526296169,1.7070658,18.814236,3.044826,2.209149,9.471217,1.259412
1409526296175,-2.4229321,17.094002,1.8926164,2.2675757,9.459863,1.2407576
1409526296196,-3.0909145,15.983092,-1.0714053,2.2599888,9.465114,1.2142859
1409526296197,-2.9131448,14.3418665,-2.2469583,2.2294548,9.477728,1.1715859
1409526296211,-3.2034419,12.249334,-1.6956934,2.1802158,9.490288,1.1625316
1409526296233,-3.2004492,10.804434,-1.282095,2.0993764,9.504438,1.1952718
1409526296234,-3.1082723,9.287108,-1.299453,1.9935986,9.522569,1.2315263
1409526296236,-2.670732,8.536526,-0.5422867,1.8853725,9.541731,1.2534459
1409526296244,-2.3187842,8.661025,0.43035775,1.7892219,9.558234,1.2685516
1409526296264,-1.5777789,9.025542,1.2120646,1.7025197,9.572268,1.2819933
1409526296267,-0.46686932,8.780735,1.7609353,1.6299033,9.583632,1.291431
1409526296281,0.7015011,7.695563,2.0757728,1.5712136,9.593169,1.2933657
1409526296297,1.5239093,7.3220673,2.2152352,1.5232557,9.601776,1.2868536
1409526296298,1.9153614,7.879916,2.1146786,1.4786536,9.610353,1.2747833
1409526296312,2.1260512,8.850166,2.154183,1.4332936,9.6192875,1.2591163
1409526296326,2.0326772,9.568427,2.070386,1.3839681,9.62864,1.242707
1409526296327,1.3557167,9.555858,1.650802,1.3260075,9.639151,1.2242963
1409526296341,0.57041854,9.260772,0.50996494,1.2535784,9.652624,1.1940584
1409526296343,-0.09995792,9.124901,-0.4961983,1.1667957,9.670491,1.1360335
1409526296357,-1.1935096,8.711303,-1.2976574,1.0718868,9.689841,1.0622809
1409526296363,-1.6077064,8.524555,-1.4903905,0.9684939,9.709984,0.9739713
1409526296383,-1.9452889,8.189367,-1.5897499,0.8649391,9.727492,0.89339846
1409526296384,-2.006341,7.785944,-1.4879963,0.7649505,9.741626,0.82821846
1409526296395,-1.8459295,8.271368,-1.021127,0.6752428,9.752424,0.77761114
1409526296412,-1.2384008,9.03871,-0.1328782,0.598591,9.760281,0.74095047
1409526296432,-0.320823,9.427169,0.57400984,0.54035616,9.764661,0.7278771
1409526296433,-0.21787235,9.36492,0.7763199,0.5019577,9.765402,0.74522746
1409526296437,0.061052144,8.773552,0.29328972,0.46813905,9.763717,0.7880735
1409526296445,0.13946225,7.941567,0.108936176,0.42640755,9.761494,0.8377368
1409526296469,0.5793968,8.000225,0.21068975,0.37708268,9.75938,0.88471013
1409526296469,1.1162965,8.188768,0.16579847,0.31317002,9.758262,0.921217
1409526296475,2.0231004,8.567651,-0.049679685,0.24202159,9.757451,0.95078856
1409526296496,2.9161377,9.412804,0.013766659,0.17367052,9.756136,0.97879535
1409526296497,3.2890346,9.582193,0.23642741,0.11332097,9.753812,1.0102894
1409526296511,3.3345244,9.667188,0.7739257,0.059592593,9.749409,1.0563421
1409526296548,3.2603042,9.473856,1.3509283,0.010909516,9.741252,1.1306174
1409526296550,2.914342,9.056666,1.951873,-0.035263255,9.728277,1.2368401
1409526296551,2.4121583,8.479664,2.3828292,-0.086122654,9.710718,1.3656261
1409526296552,2.1703439,7.3789296,2.1152773,-0.15033217,9.690062,1.5001632
1409526296557,2.3104045,7.4124484,2.124854,-0.22686164,9.669323,1.6196102
1409526296564,2.4145525,7.7703815,2.0697873,-0.3052244,9.64826,1.7286698
1409526296581,2.271499,8.277952,2.2415714,-0.37890568,9.629699,1.8154157
1409526296584,2.1218612,8.771756,2.7222073,-0.44839647,9.613297,1.8851668
1409526296595,1.5185224,9.184157,2.3798366,-0.515213,9.597824,1.9459436
1409526296613,1.0324994,9.527725,1.7124528,-0.58668095,9.583812,1.9941789
1409526296633,1.3317747,10.093356,0.96785605,-0.66097194,9.572534,2.0248756
1409526296635,2.203264,10.168175,0.1340753,-0.72742397,9.565456,2.0355103
1409526296636,3.4141316,10.003573,-0.037110128,-0.78015274,9.562722,2.0288188
1409526296644,3.8905778,10.002377,1.0055647,-0.8193749,9.562641,2.0136814
1409526296665,3.2668881,10.095152,2.3582888,-0.8506686,9.561331,2.006912
1409526296682,1.827973,10.205883,3.29502,-0.8841747,9.554957,2.0227187
1409526296683,0.7433996,10.605117,3.7008374,-0.92895806,9.5443,2.0527496
1409526296684,-0.4309563,10.651803,4.119224,-0.97820735,9.531092,2.090881
1409526296695,-1.2090719,10.287885,4.301782,-1.030556,9.519647,2.1177034
1409526296719,-1.6825253,9.501988,3.2597055,-1.0740623,9.514252,2.1203246
1409526296721,-1.1647792,9.0016,2.722806,-1.0962088,9.518497,2.0897202
1409526296724,-0.84934306,8.470087,3.2531216,-1.0910465,9.5323105,2.0285592
1409526296753,-1.7806876,7.3166804,0.8774749,-1.0706776,9.553002,1.940151
1409526296755,-2.7072437,7.038953,-0.25438392,-1.0452313,9.582367,1.8044764
1409526296756,-3.2441432,7.504027,-1.2575544,-1.0061553,9.617632,1.6307003
1409526296792,-3.079542,9.188348,-1.99437,-0.9479928,9.656314,1.4238352
1409526296793,-3.2549171,11.501745,-2.1733365,-0.8780461,9.69328,1.1998861
1409526296795,-2.9921536,14.641142,-2.0620062,-0.78681076,9.72667,0.9711779
1409526296823,-2.3409307,18.476055,-2.2894554,-0.6705639,9.753783,0.7645032
1409526296824,-1.9620483,19.608511,-2.360683,-0.5255679,9.77493,0.58730537
1409526296825,-2.938284,19.608511,-1.4311341,-0.3603006,9.789611,0.45176587
1409526296826,-2.8095956,18.781315,0.30825347,-0.2104447,9.797284,0.3732675
1409526296854,-2.0021513,14.594455,2.5192988,-0.078527555,9.799262,0.37240532
1409526296855,-1.9231426,10.454282,4.3406878,0.040777016,9.796063,0.45372579
1409526296856,-2.8407204,9.167996,5.390545,0.13433439,9.78853,0.5805243
1409526296865,-3.3243492,9.13388,4.9745526,0.1987029,9.779216,0.70559275
1409526296896,-2.224812,10.580576,3.8241386,0.26193434,9.77209,0.77976096
1409526296897,-1.0217255,10.22384,3.0573955,0.3436799,9.766649,0.81539285
1409526296898,-0.49559975,8.468291,2.6821043,0.4639796,9.763319,0.79544485
1409526296910,0.013766659,6.591237,2.4642322,0.6039555,9.759504,0.7468074
1409526296937,1.9590555,7.2245035,2.60968,0.7461692,9.754032,0.68736327
1409526296938,3.9366663,8.611345,1.5472529,0.897356,9.745335,0.6274071
1409526296939,3.9618053,8.210915,0.46866497,1.0587236,9.733112,0.562161
1409526296945,3.4141316,7.309498,-0.4333505,1.1986833,9.720462,0.49617317
1409526296987,2.8072014,6.4086795,-0.5758055,1.3067313,9.709277,0.4390876
1409526296989,2.5516205,5.801749,-0.3184288,1.3884697,9.699398,0.4052122
1409526296991,2.2762873,5.6563015,0.25079262,1.4545497,9.689726,0.40484688
1409526296994,2.0171149,5.4162827,0.6997054,1.5155962,9.678845,0.4396622
1409526297000,1.8561049,5.240309,0.79966336,1.5742484,9.666963,0.49189973
1409526297041,1.5574282,5.097255,0.84575176,1.6326889,9.653366,0.56324357
1409526297043,1.4185646,5.395932,1.0121487,1.6871535,9.638998,0.64311844
1409526297044,1.1450269,5.7257333,1.2431892,1.7324593,9.62525,0.72356796
1409526297046,0.97503865,5.892729,1.3820529,1.76583,9.613133,0.79994804
1409526297048,0.8858546,6.1327477,1.353921,1.7879101,9.603208,0.8672756
1409526297074,0.9708488,6.377555,1.2156559,1.7998234,9.5960045,0.9207313
1409526297075,1.2521675,6.8091097,1.3814543,1.8023813,9.591876,0.9579858
1409526297077,1.6849195,7.16405,1.8471266,1.7957484,9.59091,0.9798779
1409526297094,2.2499511,7.6189485,2.2888567,1.7802424,9.592509,0.992413
1409526297111,2.7551277,8.03554,2.553416,1.7554246,9.596017,1.0026795
1409526297112,3.1112652,8.3629465,2.6862943,1.7271316,9.60045,1.0093466
1409526297124,3.816956,9.448717,2.712032,1.6874362,9.607049,1.0136849
1409526297125,4.4418426,9.793482,2.606687,1.6414309,9.61448,1.0187567
1409526297143,4.164714,9.128492,2.0913353,1.5962992,9.621703,1.0222803
1409526297144,3.9516299,8.907029,1.7328035,1.5531952,9.629229,1.0178052
1409526297158,2.9370868,11.24377,2.3481133,1.5207851,9.636127,1.0013158
1409526297179,2.268506,15.506047,2.212841,1.4997181,9.642616,0.970138
1409526297180,2.9879637,17.228077,0.31364042,1.4886949,9.648819,0.9243799
1409526297184,4.4244847,16.01721,-0.5650316,1.5045582,9.6520405,0.86302966
1409526297217,5.395334,12.934674,0.42197806,1.5620422,9.646859,0.8176409
1409526297218,5.707178,11.47062,4.2359414,1.6380515,9.634876,0.8101567
1409526297219,4.8895583,14.903307,9.133281,1.7316557,9.612731,0.8758733
1409526297225,4.335301,19.452888,4.6680946,1.8297514,9.578828,1.0336609
1409526297250,1.5741876,19.570204,1.1779473,1.9355685,9.548769,1.1157968
1409526297252,-1.6238673,17.766771,0.64942724,2.0271113,9.529359,1.1191683
1409526297256,-2.4983494,14.8512335,-0.82001406,2.0873637,9.517497,1.1092992
1409526297282,-1.7818847,11.101315,-0.33758244,2.1271448,9.504686,1.1430758
1409526297283,-1.5705963,7.9553337,1.4927847,2.1444006,9.486159,1.2588667
1409526297285,-1.6753427,6.993463,2.1523874,2.1252065,9.4705715,1.4007734
1409526297315,-1.8195933,6.667852,1.6729485,2.0737646,9.467208,1.4972914
1409526297318,-1.1115081,7.9092455,1.4095862,2.008888,9.47666,1.5256858
1409526297318,-0.57161564,9.702502,1.484405,1.947716,9.49035,1.5198972
1409526297324,0.5482722,10.864887,1.5801731,1.8899795,9.507557,1.4848393
1409526297343,1.6633717,10.858902,1.441908,1.8479781,9.5219965,1.4446365
1409526297344,2.4361002,10.830172,0.7445967,1.8177992,9.533652,1.4055209
1409526297359,2.4762032,11.200674,-0.12389994,1.7874349,9.547074,1.3523499
1409526297378,2.0871453,11.989564,-0.52971715,1.7442069,9.566105,1.271929
1409526297378,1.4287399,12.057798,-0.40880993,1.6816138,9.589594,1.1756868
1409526297391,0.62129533,11.07019,-0.2160767,1.5969675,9.613598,1.0949036
1409526297406,-0.0011971008,9.859323,0.12210429,1.4928306,9.635736,1.0461487
1409526297407,-0.24480712,9.029732,0.2669535,1.3747526,9.655639,1.0242391
1409526297423,-0.50158525,8.090008,0.3549404,1.25074,9.673693,1.0127754
1409526297424,-0.7068881,7.4190326,0.35254622,1.1265149,9.689229,1.010041
1409526297439,-1.1468226,7.0605006,0.13227965,1.0045962,9.7026005,1.0103023
1409526297446,-1.5454572,6.801927,-0.037708677,0.8847542,9.714655,1.0065222
1409526297467,-1.8962077,6.7648168,-0.2136825,0.76982373,9.725547,0.99574065
1409526297469,-1.6484078,6.9701195,-0.22924481,0.6632431,9.735108,0.9788626
1409526297477,-1.4221559,7.608773,-0.05267244,0.5721345,9.742785,0.9597797
1409526297496,-1.122282,8.280347,0.19752164,0.49496913,9.748392,0.9456577
1409526297498,-1.0636241,8.25401,0.044292733,0.42522776,9.751764,0.94480544
1409526297505,-1.2892777,8.520964,-0.18614918,0.3525516,9.753481,0.95693773
1409526297538,-0.7146692,8.737639,-0.2825158,0.26852754,9.754608,0.97259414
1409526297540,0.008379706,8.602965,-0.27832595,0.18241459,9.755228,0.9862334
1409526297542,0.8098387,8.628104,-0.3298013,0.09293073,9.7556715,0.9943068
1409526297546,1.9267339,8.8884735,-0.47225627,0.0062087914,9.7555,1.0003028
1409526297584,2.3888147,9.128492,-0.20949265,-0.07063428,9.754134,1.0110768
1409526297586,2.8167782,9.032724,0.19692309,-0.13941647,9.750813,1.0356781
1409526297588,2.8179753,8.731055,0.8900445,-0.20092107,9.744851,1.0806968
1409526297590,2.5761611,8.236053,1.614889,-0.25590456,9.735063,1.1547651
1409526297624,2.4462755,8.111555,2.2164323,-0.30636927,9.720315,1.2617431
1409526297625,2.244564,7.7691846,2.1841104,-0.35914743,9.700768,1.3915842
1409526297626,2.2631192,7.5471225,1.7286136,-0.4225527,9.679099,1.5188386
1409526297627,2.433706,7.7428484,1.5340848,-0.4964353,9.658648,1.623101
1409526297640,2.4187422,7.964312,1.7621324,-0.5720241,9.638994,1.7125889
1409526297657,2.4522612,8.50181,1.9692309,-0.64241177,9.6219225,1.7822113
1409526297658,2.3068132,9.051878,2.496554,-0.70079565,9.6068735,1.8404485
1409526297672,1.9853917,9.34038,2.7102363,-0.75041586,9.591979,1.8976825
1409526297676,1.513734,9.515156,2.4019828,-0.79845905,9.576748,1.9541613
1409526297687,1.6915035,9.965864,1.441908,-0.8478031,9.562398,2.0030484
1409526297706,2.5121162,9.996989,0.8002619,-0.8897388,9.551617,2.0360188
1409526297707,3.2052376,10.144233,0.8810662,-0.9193245,9.544584,2.055763
1409526297729,3.328539,10.653599,1.6136919,-0.93822014,9.540862,2.0644834
1409526297730,2.8658595,10.708067,2.4366987,-0.94857824,9.538947,2.0686014
1409526297737,2.0213048,10.667964,2.8083985,-0.9564275,9.535987,2.0785966
1409526297763,1.4760253,10.530896,3.684078,-0.96937686,9.530664,2.0969436
1409526297764,0.7799112,10.218452,4.5040917,-0.981182,9.52349,2.1238725
1409526297765,0.3184288,9.722853,4.2000284,-0.99125576,9.51756,2.1456554
1409526297777,0.4890157,9.746197,3.78643,-0.9878181,9.518204,2.1443858
1409526297798,1.2575544,9.96766,4.0934863,-0.9561178,9.527701,2.116393
1409526297799,0.7308301,9.682152,2.991555,-0.8969987,9.545366,2.0619817
1409526297806,-0.27353755,9.17099,0.70509243,-0.83521503,9.571271,1.9655993
1409526297836,-1.9393034,8.39467,-0.75357497,-0.77713716,9.604163,1.8238679
1409526297838,-2.7551277,8.106767,-1.5616181,-0.72258204,9.639116,1.6539953
1409526297839,-3.4691982,8.395268,-2.3654714,-0.661801,9.673581,1.4677409
1409526297867,-3.764882,9.479841,-2.7527335,-0.597971,9.7056465,1.2701386
1409526297868,-3.5093012,11.8339405,-2.7180176,-0.5196568,9.734487,1.0677667
1409526297869,-3.401562,15.434221,-2.558803,-0.42014733,9.758054,0.87992525
1409526297900,-2.846706,19.191322,-2.5264814,-0.3034563,9.775598,0.71832365
1409526297901,-4.988918,19.608511,-1.3670892,-0.1665145,9.787819,0.58416414
1409526297902,-3.9797618,18.060661,1.1139023,-0.061640903,9.793159,0.51055706
1409526297906,-2.693477,13.619416,3.116652,0.047149,9.792125,0.5314654
1409526297930,-1.7393875,9.156625,3.9199066,0.15743162,9.784863,0.63410336
1409526297931,-2.204461,7.685986,4.431069,0.25457326,9.77269,0.77468204
1409526297937,-3.743933,7.6907744,4.6166196,0.31744063,9.758874,0.91325116
1409526297965,-2.6366146,10.21965,3.9318779,0.3515205,9.747475,1.0166484
1409526297966,-0.9552865,10.217256,3.0023289,0.3934208,9.737993,1.0895488
1409526297968,-0.039504327,8.18398,2.2768857,0.48537567,9.732923,1.0977333
1409526297978,1.0761937,7.008427,1.9548657,0.6270009,9.729701,1.0536709
1409526298003,3.2728736,8.920795,2.0159178,0.78988993,9.725363,0.9817139
1409526298006,4.2904096,9.722255,1.6897079,0.9700607,9.716498,0.9050112
1409526298007,4.5382094,9.739613,0.9115923,1.1531224,9.702817,0.8342992
1409526298030,3.5996823,8.594585,-0.24181437,1.3117224,9.687618,0.7744845
1409526298031,2.8604724,7.241263,-0.54647654,1.4280897,9.674693,0.72886026
1409526298037,2.327164,6.1219735,-0.2088941,1.5109751,9.6636,0.7086475
1409526298063,2.2529438,5.253477,0.56982,1.5761935,9.652218,0.72161627
1409526298064,1.9093759,4.654927,1.2072762,1.6374588,9.639416,0.7555086
1409526298066,1.7770962,4.437054,1.5155296,1.696261,9.62421,0.8171154
1409526298106,1.3503298,4.540005,1.5711949,1.7523549,9.607534,0.8916034
1409526298107,1.0528502,4.6016555,1.5987282,1.8033438,9.590959,0.9653292
1409526298108,1.0696096,4.538808,1.5370775,1.8446876,9.576095,1.032441
1409526298109,1.1366472,4.8003745,1.4616601,1.8741201,9.563992,1.0900135
1409526298129,1.5424645,5.181651,1.6214731,1.8916327,9.555338,1.1347446
1409526298130,1.9847932,5.8161144,1.797447,1.9005125,9.550045,1.1640794
1409526298137,2.1865046,6.265626,1.9153614,1.9024885,9.547915,1.1782441
1409526298162,2.373851,6.7648168,2.0219033,1.8961906,9.548833,1.1809441
1409526298163,2.6132712,7.311892,2.0380642,1.8787922,9.552792,1.1767321
1409526298167,3.0382419,8.090606,2.1739352,1.8566457,9.5578785,1.170563
1409526298189,3.4560301,9.081805,2.4791958,1.826224,9.564283,1.1661054
1409526298190,3.6661212,9.873089,3.028665,1.7912999,9.570447,1.1697019
1409526298213,3.840898,10.454282,3.086126,1.7566103,9.5751505,1.183724
1409526298215,3.2309752,10.308834,2.7832594,1.7285825,9.578642,1.1966712
1409526298217,3.1280246,10.010158,2.295441,1.7055185,9.582656,1.197631
1409526298226,2.429516,11.419744,2.5893292,1.6949227,9.586151,1.1846284
1409526298248,1.3269863,14.539987,2.7617116,1.6881924,9.589128,1.1700615
1409526298249,1.5741876,15.576676,1.2653356,1.667755,9.593859,1.160556
1409526298257,2.8341362,14.256274,-0.7469909,1.6579959,9.598451,1.1363024
1409526298291,7.029975,11.089942,-1.2437878,1.6864526,9.597651,1.1006308
1409526298292,6.625355,8.72088,2.3355439,1.7720706,9.584655,1.0791637
1409526298295,7.9954367,9.126099,6.0238113,1.8677582,9.56158,1.1216344
1409526298319,6.9012866,13.047202,9.730036,2.0002043,9.522832,1.2187141
1409526298320,5.81372,18.80885,6.192004,2.1401155,9.473035,1.360853
1409526298321,2.806603,18.876484,2.1601684,2.258493,9.436406,1.4226252
1409526298325,-1.6837224,16.023195,2.0087352,2.3211532,9.42252,1.4137814
1409526298347,-2.7880478,14.747684,-0.39384618,2.325185,9.42327,1.4020939
1409526298348,-2.4522612,14.050971,-0.41599256,2.3112156,9.431111,1.3721669
1409526298357,-2.1374235,12.922105,-0.061052144,2.2820373,9.435881,1.3881098
1409526298381,-2.4678235,11.617265,0.008379706,2.22575,9.4403925,1.447569
1409526298382,-2.5911248,10.57878,-0.40102878,2.1419382,9.450017,1.5098528
1409526298385,-2.4528596,9.731832,-0.12509704,2.0542002,9.4624,1.5535891
1409526298408,-2.1865046,9.561843,0.3298013,1.9700519,9.475976,1.5796132
1409526298408,-2.03567,9.610924,0.49679685,1.899756,9.487986,1.5935639
1409526298426,-1.5149311,9.030929,0.7116765,1.8424942,9.498723,1.5968308
1409526298426,-0.28909984,8.279748,1.086369,1.7935476,9.509218,1.5900726
1409526298437,0.54767364,7.8146744,1.2629414,1.7483486,9.5201845,1.5747266
1409526298482,1.067814,8.227076,1.3611037,1.6999311,9.532634,1.5522616
1409526298483,1.8662802,10.489596,1.678934,1.644795,9.546743,1.5247148
1409526298485,1.5616181,10.527305,1.4323312,1.5852108,9.56163,1.4942291
1409526298486,0.85293436,10.152613,0.54168814,1.5153579,9.578376,1.459035
1409526298487,0.2717419,10.036493,-0.022744916,1.436043,9.597371,1.4137399
1409526298506,0.11671733,9.57142,-0.29867667,1.3429506,9.62025,1.3482126
1409526298507,-0.0796072,9.051279,-0.5057751,1.242157,9.644854,1.2665999
1409526298522,-0.31124622,8.339603,-0.83378077,1.1391627,9.667598,1.1875533
1409526298527,-0.63087213,7.797915,-0.91099375,1.0395907,9.686757,1.1208868
1409526298540,-0.83138657,7.7799582,-0.7344214,0.94638765,9.702156,1.069059
1409526298562,-0.80445176,8.260594,-0.2124854,0.8646844,9.713575,1.0340011
1409526298562,-0.801459,8.896853,0.34237084,0.7995593,9.720657,1.0197557
1409526298565,-0.533907,8.903438,0.81343,0.7465975,9.723992,1.0280911
1409526298591,-0.4321534,8.620323,0.82001406,0.6977615,9.723929,1.0624142
1409526298593,-0.41060558,8.232463,0.35793316,0.64065546,9.7218895,1.1157336
1409526298607,-0.46148238,7.948151,-0.04309563,0.5758042,9.719615,1.1695892
1409526298607,-0.36750996,7.765593,-0.017956512,0.4897937,9.719084,1.2123908
1409526298622,-0.17657238,7.6452847,-0.09756372,0.38434082,9.720468,1.2390269
1409526298627,0.5722142,7.784148,-0.57520694,0.2664204,9.722578,1.25335
1409526298648,1.9177556,8.194754,-0.7787141,0.15033552,9.725047,1.2535008
1409526298649,2.8580782,8.279149,0.5626374,0.053583853,9.727563,1.2417946
1409526298658,3.156755,8.243237,1.299453,-0.019659663,9.727436,1.2437954
1409526298682,3.3740287,8.277952,1.9027919,-0.07699636,9.723208,1.2742407
1409526298683,3.25791,8.238448,1.9913772,-0.1235211,9.71424,1.3374124
1409526298686,2.8736405,8.093,1.7202339,-0.16851416,9.70189,1.419619
1409526298715,2.5288756,8.159439,1.4047978,-0.22039391,9.688301,1.5028747
1409526298717,2.582745,8.393473,1.0570401,-0.27748358,9.674407,1.5809032
1409526298718,2.8107927,8.689755,0.9259575,-0.3387935,9.661328,1.6475306
1409526298758,3.1124623,8.948329,0.98581254,-0.39671618,9.649215,1.7045974
1409526298761,3.2878375,9.303269,1.134253,-0.44465035,9.638248,1.7540941
1409526298763,3.2932243,9.379285,1.6316484,-0.48311937,9.627848,1.8004309
1409526298765,3.1411927,9.1033535,2.235586,-0.5172322,9.616155,1.8526819
1409526298796,2.6850972,8.7292595,2.5558102,-0.55217934,9.601523,1.9173546
1409526298798,2.010531,8.579621,2.7581203,-0.5909149,9.5845175,1.9895319
1409526298800,1.6466122,9.072228,2.463035,-0.63380265,9.567525,2.0569787
1409526298802,1.4041992,9.588778,2.0015526,-0.6746449,9.553717,2.1075475
1409526298807,1.797447,10.200497,1.6567876,-0.7142682,9.542172,2.1464345
1409526298825,2.3110032,10.927136,1.5388732,-0.74493515,9.534819,2.1685693
1409526298826,2.6360161,11.205462,1.5179238,-0.76815766,9.531271,2.1760488
1409526298837,2.6090813,10.681132,1.4945804,-0.7866661,9.530202,2.1741204
1409526298850,2.4390929,10.229227,1.5047557,-0.8056984,9.529876,2.1685798
1409526298871,1.8818425,10.128072,1.2785037,-0.82479125,9.530287,2.1595688
1409526298873,2.0380642,10.097546,1.7160441,-0.8443825,9.533251,2.1388223
1409526298892,2.0368671,9.779117,2.5683799,-0.85379666,9.540117,2.1041858
1409526298893,1.4347254,9.44752,2.321777,-0.85079575,9.550623,2.057219
1409526298898,0.14784196,8.9124155,1.2689269,-0.8372061,9.565092,1.9946144
1409526298906,0.026934769,8.35337,1.8387469,-0.81699735,9.582938,1.9157782
1409526298925,-1.5562311,7.0862384,2.5941176,-0.7910905,9.600471,1.8372623
1409526298926,-2.0572178,6.311714,2.4307132,-0.76580393,9.617761,1.7557348
1409526298938,-3.6218286,5.668871,1.258153,-0.7359841,9.636274,1.6646214
1409526298961,-4.4418426,6.4272346,-0.50038815,-0.69946,9.6582,1.549294
1409526298962,-4.5322237,8.532935,-1.359308,-0.6485605,9.685024,1.3964392
1409526298966,-4.823718,11.8818245,-1.3575124,-0.57965964,9.713296,1.2191315
1409526298995,-4.8985367,16.612766,-1.2192472,-0.49830163,9.737286,1.0522984
1409526298996,-3.549404,19.57978,-1.299453,-0.41117677,9.755345,0.91355395
1409526298998,-1.9387048,19.608511,-1.5424645,-0.29174662,9.769442,0.80205816
1409526299006,-2.2427685,19.608511,-1.6986861,-0.13711277,9.780143,0.70737964
1409526299025,-2.2439656,19.455282,-1.5191209,-0.0013784579,9.787036,0.61995447
1409526299027,-1.6466122,12.313379,2.178125,0.1201188,9.789702,0.56362176
1409526299038,-2.0632033,9.882666,4.1264067,0.23028734,9.785089,0.60779524
1409526299062,-3.0304608,8.133701,4.2419267,0.3061406,9.776529,0.70436645
1409526299064,-2.6276364,9.658808,3.7714663,0.35244647,9.767778,0.79791623
1409526299070,-1.1043255,10.861895,3.1531637,0.39901525,9.76157,0.85024965
1409526299101,-0.6051345,8.862736,2.4600422,0.48457685,9.757334,0.854405
1409526299102,0.2657564,7.5962033,2.871845,0.6123031,9.752512,0.8270243
1409526299103,1.7118542,8.207922,3.2124202,0.7584641,9.745312,0.7899574
1409526299107,3.1471782,8.546701,3.0148985,0.9112668,9.734992,0.75492406
1409526299127,3.169923,8.191761,2.0087352,1.0684448,9.721221,0.7257383
1409526299128,2.582745,7.2711906,0.92176765,1.2166078,9.706078,0.69451666
1409526299140,2.348712,6.531382,0.4842273,1.3364356,9.692332,0.66562253
1409526299160,2.5079262,5.8478374,0.54408234,1.4286916,9.680127,0.6514491
1409526299161,2.4821887,5.7640405,1.0313023,1.5052933,9.667872,0.66084933
1409526299169,2.15957,5.6539073,1.0600328,1.5771846,9.653893,0.6965958
1409526299188,2.211644,5.6682725,0.9044097,1.6471884,9.63829,0.7486615
1409526299189,2.0602105,5.6269727,0.62728083,1.7131928,9.622244,0.8048317
1409526299204,1.846528,5.659893,0.45729253,1.7711402,9.607068,0.85890585
1409526299206,1.7238252,5.7239375,0.48482585,1.8169489,9.593721,0.91082776
1409526299222,1.8543092,5.967548,0.8122329,1.8481244,9.5829,0.960667
1409526299240,1.9470845,6.159084,0.7727286,1.8660017,9.574645,1.0072943
1409526299242,1.9315223,6.4044895,0.7517793,1.8775884,9.567944,1.0485727
1409526299256,1.9387048,6.421249,0.91937345,1.8749855,9.565279,1.0771435
1409526299276,2.0667946,6.6283474,1.3102269,1.8605399,9.566729,1.0892525
1409526299277,2.3678656,6.8198833,1.8363527,1.8347316,9.571716,1.089208
1409526299278,2.7461493,7.1353197,2.202067,1.7982016,9.57936,1.082925
1409526299287,3.0184898,7.724293,2.5486276,1.7525162,9.588834,1.0739403
1409526299313,3.3399115,8.622718,2.6126726,1.6988755,9.599199,1.0675205
1409526299314,3.389591,9.482236,3.007716,1.640077,9.609624,1.0656711
1409526299320,3.271078,9.784504,3.7523127,1.5794299,9.619077,1.0719898
1409526299347,2.7365725,9.071032,3.9456444,1.5243262,9.625944,1.089965
1409526299349,2.9442697,9.137471,3.0454245,1.4814866,9.630491,1.1087089
1409526299350,1.9500773,12.345701,3.2160115,1.4511191,9.634045,1.1179537
1409526299378,0.85173726,15.472528,2.107496,1.4312521,9.636172,1.1252
1409526299379,2.0135236,15.299547,-0.9780314,1.415755,9.639143,1.1193547
1409526299380,4.425682,13.551182,-3.0765493,1.4474458,9.639735,1.0727572
1409526299388,5.245097,10.816404,-2.19249,1.5414764,9.632009,1.0092916
1409526299413,6.5122285,8.574235,1.1923125,1.659185,9.614225,0.9920623
1409526299414,5.990891,9.374496,10.910975,1.8016608,9.584347,1.0318407
1409526299418,4.730344,19.608511,3.6733038,1.9713706,9.533826,1.1790847
1409526299444,0.6183026,18.83758,0.85293436,2.1151845,9.501685,1.1892805
1409526299446,-3.1022868,15.172056,0.6679823,2.1929293,9.490966,1.1327199
1409526299447,-2.9137435,13.572729,-1.6232687,2.2325485,9.487475,1.083485
1409526299478,-1.8303672,11.899781,-0.7990648,2.2591767,9.486438,1.0363386
1409526299479,-1.5783775,10.95048,0.4309563,2.2746015,9.479769,1.0632827
1409526299480,-1.821389,10.38904,0.50158525,2.2583346,9.474456,1.1423784
1409526299487,-1.5813702,9.537901,0.10414778,2.2088625,9.476877,1.2165935
1409526299514,-1.5011644,9.378088,0.6266823,2.15156,9.484896,1.2561721
1409526299515,-1.376666,9.408614,0.90381116,2.0981393,9.494575,1.2732944
1409526299518,-0.54168814,9.465476,1.0271125,2.0527456,9.503631,1.279702
1409526299541,0.60333884,9.647436,1.033098,2.0145006,9.5125675,1.2740672
1409526299542,1.1905168,9.92636,0.85473,1.9787903,9.523335,1.2493542
1409526299547,1.4101849,10.590752,0.46208093,1.9375666,9.537269,1.2069577
1409526299576,1.4838065,11.54065,0.40282443,1.8896403,9.55293,1.1580986
1409526299578,1.435324,12.055404,0.374094,1.8284667,9.571373,1.1026982
1409526299579,1.0217255,11.634624,0.038905777,1.7525522,9.59103,1.0540754
1409526299587,0.6015432,10.955269,0.060453594,1.6613548,9.611741,1.0122914
1409526299604,0.30825347,10.729615,0.22804771,1.5565771,9.633659,0.969578
1409526299622,-0.10175357,9.588778,0.16639702,1.4409827,9.656361,0.9212334
1409526299624,-0.24061728,8.986636,-0.1376666,1.3226997,9.677602,0.87457395
1409526299627,-0.39324763,8.374319,-0.46806642,1.2073901,9.696123,0.8353385
1409526299638,-0.7374141,7.824251,-0.8086416,1.098973,9.711481,0.8060773
1409526299661,-0.93134445,7.4345946,-0.60453594,0.99701285,9.724182,0.78528357
1409526299662,-0.89662856,7.3992805,-0.22385786,0.90327966,9.734494,0.770788
1409526299667,-0.6063316,7.6608467,0.2741361,0.8159651,9.742275,0.7698726
1409526299692,-0.2825158,7.841609,0.5734113,0.74137443,9.746939,0.7860908
1409526299693,0.0700304,7.9834657,0.492607,0.676305,9.748931,0.8193565
1409526299705,0.12389994,8.013991,0.350152,0.61353594,9.7490635,0.8658862
1409526299732,0.3298013,7.9289975,0.22445641,0.5426935,9.748613,0.9167478
1409526299733,0.4261679,8.009203,0.16998832,0.45785075,9.748739,0.9606454
1409526299734,0.46866497,7.803302,-0.089184016,0.35801864,9.749908,0.9907167
1409526299754,0.7410054,7.7590094,-0.3669114,0.25069413,9.751889,1.0041016
1409526299755,1.5245079,7.8517847,-0.3333926,0.14325623,9.753832,1.0062913
1409526299773,2.2864625,7.903858,-0.19931729,0.047583006,9.754388,1.009975
1409526299774,2.6593595,8.048109,0.26515785,-0.036497403,9.753425,1.0196967
1409526299778,2.7665,8.021772,0.7164649,-0.10537469,9.749677,1.0502807
1409526299787,2.8167782,7.86196,1.4197617,-0.1626986,9.742484,1.1081272
1409526299801,2.5821466,8.024766,1.4610616,-0.21140112,9.731527,1.192935
1409526299824,2.5420437,7.98586,1.2156559,-0.25690752,9.718103,1.2895137
1409526299825,2.801216,8.008006,0.8948329,-0.30322886,9.704114,1.3815292
1409526299827,3.0891187,8.12592,0.801459,-0.35108846,9.690959,1.4602917
1409526299840,3.2842462,8.280945,1.0319009,-0.39835218,9.679215,1.5246278
1409526299858,3.3315318,8.676587,1.6579847,-0.4423478,9.668439,1.5798792
1409526299861,3.442862,8.913014,2.498948,-0.48147997,9.657462,1.6346289
1409526299867,3.1974564,8.965088,2.879626,-0.5172336,9.644949,1.6964047
1409526299893,2.6737247,9.099762,3.016694,-0.5548113,9.63119,1.761462
1409526299894,2.2463598,9.288305,2.7473464,-0.59857374,9.616531,1.8260406
1409526299899,2.4486697,9.202114,1.7986441,-0.6462353,9.602824,1.8811038
1409526299924,3.1591492,9.108142,1.0085574,-0.68959177,9.592028,1.9203743
1409526299925,3.8391025,9.589975,1.2755109,-0.71972966,9.5852585,1.9429865
1409526299927,3.719991,10.42196,1.7597382,-0.7355717,9.581836,1.953913
1409526299939,2.7030537,10.895413,2.078167,-0.7479773,9.579789,1.9592245
1409526299960,1.4921862,11.122863,2.1493945,-0.76741844,9.57741,1.9633366
1409526299962,0.3513491,11.130045,2.566584,-0.79236746,9.574667,1.9667946
1409526299967,-0.599149,11.063007,3.259107,-0.8193214,9.576135,1.9485295
1409526299996,-1.3138182,10.613496,2.581548,-0.837352,9.578965,1.9268279
1409526299997,-0.6799533,8.706514,1.7531542,-0.84849024,9.586391,1.8845582
1409526299999,-1.0217255,7.9714947,1.9871874,-0.8253173,9.600089,1.8241543
1409526300032,-2.0147207,7.04015,1.4688427,-0.78270304,9.618593,1.7436855
1409526300033,-2.6617537,6.689998,0.58298814,-0.7285895,9.641741,1.6359704
1409526300034,-2.6048915,7.6147585,-0.53689975,-0.65441525,9.669529,1.4974539
1409526300052,-2.7994204,9.782109,-0.9151836,-0.5562938,9.700131,1.3298037
1409526300053,-3.0418332,13.438654,-0.3298013,-0.44157693,9.728869,1.1508821
1409526300076,-3.127426,17.97447,0.40342298,-0.31981203,9.750927,0.99374217
1409526300077,-1.3425486,19.608511,-0.56682724,-0.19739476,9.765018,0.8808149
1409526300079,-1.6430209,19.608511,-1.5652094,-0.0409108,9.774662,0.7903777
1409526300087,-2.553416,19.608511,-1.958457,0.11327494,9.78126,0.69609195
1409526300103,-2.5354595,18.75079,-0.7140707,0.2440798,9.785028,0.6033435
1409526300119,-1.6340426,14.548965,1.7274165,0.35184932,9.784069,0.5644447
1409526300120,-1.1827357,10.630256,4.1371803,0.45100412,9.77656,0.6212129
1409526300133,-1.7304093,8.952518,5.2558713,0.5338321,9.764159,0.73934305
1409526300150,-3.2968156,9.143456,5.106832,0.59998196,9.750637,0.8576269
1409526300151,-1.769315,10.992977,4.334702,0.65616137,9.740206,0.9317922
1409526300169,0.21308395,10.8182,3.472191,0.7492716,9.731418,0.9531629
1409526300169,0.23702596,7.9553337,2.7072437,0.8917621,9.72113,0.93530226
1409526300195,2.556409,7.064092,2.332551,1.037137,9.710577,0.89410925
1409526300197,3.618836,8.676587,2.0733786,1.1845223,9.697815,0.8483616
1409526300199,3.4021606,8.896255,1.2587515,1.3383038,9.681373,0.806459
1409526300226,2.6994624,7.988254,0.30945057,1.4915003,9.662052,0.7684768
1409526300227,1.9033904,6.7869635,-0.02813187,1.6229361,9.64297,0.7413491
1409526300228,1.6005238,5.78918,0.1328782,1.7229457,9.626218,0.7333342
1409526300252,1.5957354,5.1960163,0.58418524,1.8011835,9.6106415,0.7494576
1409526300252,1.3946224,4.490924,0.86729956,1.8728724,9.593479,0.7924036
1409526300269,1.3425486,4.4777555,1.0253168,1.9427781,9.57405,0.85649234
1409526300270,1.2395979,4.63278,1.1186907,2.0096772,9.553386,0.92975044
1409526300290,1.1043255,4.6662993,1.1827357,2.071132,9.532957,1.0017577
1409526300291,1.1186907,4.691438,1.3371617,2.1235127,9.514423,1.0662223
1409526300299,1.4089876,4.7123876,1.5556326,2.162309,9.498822,1.1256933
1409526300324,1.5089456,5.032612,1.9009962,2.1953619,9.485227,1.1752737
1409526300325,1.6376339,5.6060233,2.136825,2.2148478,9.475719,1.2147347
1409526300327,2.007538,6.3380504,2.2098482,2.2209833,9.4710865,1.2394044
1409526300357,2.4612393,7.015011,2.1649568,2.2143154,9.471852,1.2454882
1409526300358,2.7659016,7.515998,1.9746178,2.1943355,9.478143,1.2329245
1409526300359,3.1675289,7.8876977,1.7375919,2.1585448,9.48964,1.2073948
1409526300369,4.5244427,8.862138,1.8770541,2.1095474,9.504543,1.1763614
1409526300395,4.7638626,9.454104,2.5570073,2.0599637,9.518888,1.1479168
1409526300396,4.431069,9.850943,3.4302924,2.004919,9.532707,1.130563
1409526300403,4.1413703,9.650429,3.7942111,1.9457729,9.5456915,1.124343
1409526300427,4.1701007,9.106346,3.1789012,1.8875687,9.558061,1.1184646
1409526300428,2.3660698,10.19451,3.527856,1.8413266,9.568978,1.1020646
1409526300429,1.3910311,14.178462,3.5470097,1.7928795,9.580152,1.0847329
1409526300456,1.5879543,15.821484,1.6184803,1.735446,9.591,1.0822897
1409526300457,3.0843303,14.629171,-0.95468795,1.6948705,9.598625,1.0789819
1409526300459,5.98311,12.660539,-1.8950106,1.7120664,9.597793,1.0590613
1409526300467,6.290765,10.207679,0.8283938,1.7992713,9.583482,1.0439777
1409526300485,6.23091,9.930551,6.3003416,1.9081401,9.557549,1.0874866
1409526300488,6.069301,15.194202,9.911995,2.0337267,9.517755,1.2027912
1409526300502,4.7123876,19.600132,4.582502,2.1730442,9.465257,1.36279
1409526300523,1.5729905,19.608511,-0.34596214,2.2920947,9.432868,1.3920132
1409526300524,-2.396596,17.48665,-0.2693477,2.3639317,9.424197,1.3291882
1409526300527,-2.172738,13.627197,-0.8846575,2.375435,9.429916,1.2666461
1409526300555,-1.1665748,10.769119,-1.1701661,2.384383,9.427915,1.2647347
1409526300556,-1.282095,8.546701,0.9744401,2.3846784,9.4187155,1.3309745
1409526300559,-1.7142484,7.7572136,1.8148049,2.3548872,9.411602,1.4306028
1409526300567,-1.3730747,7.751827,1.6591818,2.2950826,9.414385,1.5074334
1409526300589,-0.7457938,8.280347,1.560421,2.2310395,9.425369,1.5346862
1409526300591,-0.3453636,9.181165,1.1348516,2.1785707,9.439263,1.524643
1409526300599,0.5279215,10.245388,0.7703344,2.1392834,9.452818,1.4960289
1409526300622,1.6861166,10.99597,0.7565677,2.110161,9.465954,1.4537264
1409526300623,2.855684,11.421539,0.41240123,2.0853415,9.478771,1.4052157
1409526300628,3.0747535,11.795633,-0.093972415,2.062985,9.493178,1.3394238
1409526300666,2.6479871,12.126033,-0.19033903,2.0307186,9.511566,1.2556647
1409526300667,2.059612,12.076353,-0.29029694,1.9795065,9.53243,1.1767577
1409526300691,1.4903905,11.285069,-0.30645782,1.7183366,9.5951185,1.0730472
1409526300692,1.0223241,10.531495,0.21068975,1.7183366,9.5951185,1.0730472
1409526300694,0.6560113,10.118495,0.8331822,1.7183366,9.5951185,1.0730472
1409526300695,0.22804771,9.673173,1.0546459,1.6049318,9.616302,1.058928
1409526300700,-0.054468088,9.160215,0.7978677,1.4870796,9.636434,1.047932
1409526300732,-0.30945057,8.5473,0.36990416,1.3709362,9.654798,1.0372095
1409526300733,-0.59495914,7.972093,-0.13706805,1.2588663,9.671226,1.0261785
1409526300734,-1.0660183,7.539341,-0.43155485,1.1483277,9.686302,1.0135516
1409526300763,-1.6184803,7.399879,-0.43873745,1.0422528,9.69943,1.0025907
1409526300764,-1.5813702,8.243237,0.44771573,0.94405204,9.710009,0.9974445
1409526300765,-0.98820674,8.459313,0.6380547,0.8556025,9.717292,1.0062708
1409526300768,-0.99778354,8.46889,0.4357447,0.77662987,9.72143,1.0300696
1409526300793,-0.7308301,8.492832,-0.049679685,0.69764596,9.72364,1.0651315
1409526300794,-0.705691,8.429984,-0.24061728,0.6112288,9.725713,1.0987715
1409526300800,-0.3226187,8.366538,-0.38486794,0.5109848,9.728896,1.121545
1409526300826,0.45010993,8.421006,-0.62967503,0.4007128,9.7329035,1.1315514
1409526300827,1.453879,8.435969,-0.8170213,0.2901476,9.736605,1.1334517
1409526300829,2.123657,8.205527,-0.81642276,0.18926124,9.738565,1.137946
1409526300856,2.3834279,7.86615,-0.26276365,0.09795937,9.738667,1.1485604
1409526300857,2.6850972,7.575254,0.75118077,0.015953649,9.735259,1.1810353
1409526300860,2.822764,7.357382,1.7812861,-0.05584661,9.727295,1.2437948
1409526300868,2.7515364,7.259818,2.27928,-0.118748106,9.714643,1.3349171
1409526300895,2.6689363,7.317279,2.2762873,-0.18060948,9.699074,1.4372658
1409526300896,2.5001452,6.9928646,1.7914615,-0.2507603,9.683114,1.5312866
1409526300900,2.5552118,6.8988924,1.3563153,-0.3336229,9.669047,1.6026901
1409526300929,2.6713305,7.0527196,1.3994108,-0.42173532,9.657185,1.6526772
1409526300930,2.7940333,7.3268557,1.525705,-0.5051346,9.646126,1.6933652
1409526300931,2.7569232,7.714118,1.459266,-0.58161396,9.634783,1.7329466
1409526300958,2.203264,8.65025,1.9488802,-0.6541708,9.623085,1.7716373
1409526300959,1.5682021,9.2907,1.8058267,-0.72790295,9.609968,1.8135821
1409526300960,1.3640964,10.228628,1.5191209,-0.801408,9.59634,1.8542899
1409526300968,1.4514848,10.904391,1.3682863,-0.8675489,9.584097,1.8875504
1409526300993,2.15957,11.142016,1.3545196,-0.9186811,9.574631,1.9112475
1409526300994,3.0951042,11.351509,1.6089035,-0.94947714,9.567537,1.9316082
1409526301004,3.6326025,11.28926,2.156577,-0.96233284,9.561413,1.9554268
1409526301031,3.3022027,11.028292,2.834735,-0.9661245,9.555037,1.9845127
1409526301032,2.4313118,10.783484,3.2345665,-0.97170466,9.546995,2.0201645
1409526301033,1.513734,10.724228,3.57993,-0.9832138,9.537703,2.0581326
1409526301054,0.57161564,10.59554,3.7337575,-0.9967216,9.53007,2.0867918
1409526301055,-0.3657143,10.040684,2.9825768,-1.015375,9.524195,2.104553
1409526301059,-1.0324994,9.858126,2.1015105,-1.0252961,9.52617,2.090749
1409526301069,-0.38187516,10.231621,2.087744,-1.0190451,9.536378,2.046814
1409526301089,-1.4652514,9.335591,2.0512323,-0.99134344,9.553645,1.978768
1409526301090,-1.2773066,8.682572,0.80564886,-0.96531564,9.575076,1.8858612
1409526301100,-2.36188,7.5201874,-0.32920274,-0.92963004,9.602734,1.7588902
1409526301127,-3.1471782,7.117962,-0.79846627,-0.8815159,9.634103,1.6054169
1409526301128,-4.3400893,8.787917,-1.8686744,-0.81917375,9.666043,1.4376884
1409526301129,-4.144363,11.498753,-1.7645266,-0.7514301,9.697608,1.2498546
1409526301160,-3.1214404,15.553931,-1.3742718,-0.6635421,9.726761,1.0584078
1409526301161,-2.4187422,19.33258,-1.0606314,-0.5434954,9.751824,0.88144326
1409526301162,-2.6162639,19.608511,-0.6027403,-0.40254217,9.771904,0.7199001
1409526301169,-3.1310172,19.494787,0.557849,-0.24904966,9.784309,0.6128975
1409526301196,-2.2960393,16.841413,1.5460558,-0.105977036,9.789195,0.5751836
1409526301197,-1.0372878,12.780249,2.7994204,0.030787572,9.788213,0.60027945
1409526301200,-0.6135142,9.449316,4.0054994,0.16125703,9.781724,0.6799036
1409526301229,-1.7830818,9.060258,4.8428717,0.2731367,9.770458,0.79620475
1409526301230,-2.883816,9.592369,4.5872903,0.3501633,9.75741,0.9169126
1409526301231,-1.9339164,11.621455,3.4045548,0.40918687,9.747391,0.9956723
1409526301255,-0.9044097,11.022306,2.0829554,0.4961011,9.7423315,1.0056074
1409526301256,-0.5446809,8.417415,1.2689269,0.62928766,9.739532,0.9570243
1409526301260,0.45789108,7.789535,1.7124528,0.7818193,9.734657,0.89195764
1409526301269,2.0991163,8.955511,2.1763294,0.93771297,9.726747,0.8255109
1409526301287,3.2196028,9.448118,1.9536686,1.1031326,9.713779,0.77200145
1409526301288,2.9843724,9.431957,1.0720038,1.2715048,9.696373,0.7307681
1409526301302,2.2337902,8.932168,-0.049679685,1.4151794,9.678915,0.6973218
1409526301322,1.87047,7.3507977,-0.7398083,1.5246941,9.664009,0.6727753
1409526301323,1.2940661,6.1345434,0.43514615,1.608204,9.650807,0.6678303
1409526301331,1.5167267,5.3624134,1.1994951,1.6742767,9.637233,0.70066816
1409526301354,1.2605472,5.233126,1.5131354,1.7362635,9.621162,0.7674796
1409526301356,1.0073603,5.245696,1.5023615,1.7987977,9.602413,0.8534405
1409526301360,0.8984242,5.192425,1.4107834,1.8607785,9.58232,0.94182783
1409526301389,1.0534488,5.1583076,1.4664485,1.920601,9.561719,1.0272324
1409526301390,1.2958617,5.1666875,1.5173253,1.9757696,9.541995,1.1031933
1409526301391,1.483208,5.243302,1.5795746,2.0243752,9.523961,1.1689678
1409526301400,1.7046716,5.5539494,1.4628572,2.0653987,9.508445,1.2222984
1409526301426,2.0991163,6.201581,1.3808558,2.0986612,9.496388,1.2588165
1409526301427,2.5366566,6.907272,1.2826935,2.124688,9.488154,1.2771032
1409526301429,3.015497,7.379528,1.2467805,2.1430311,9.483652,1.2799013
1409526301461,3.5422213,7.7230964,1.3820529,2.1512768,9.482502,1.2745757
1409526301463,4.225766,8.106767,1.7501614,2.1477144,9.484123,1.2685125
1409526301464,4.4077253,8.407239,2.5839422,2.133802,9.4874525,1.2670985
1409526301492,5.1960163,9.16261,2.9771898,2.1071362,9.492279,1.2755396
1409526301493,4.8057613,9.546281,3.3824084,2.083241,9.49601,1.2869828
1409526301494,4.722563,9.804854,3.5529952,2.0490415,9.501994,1.2976713
1409526301520,4.3885717,9.655815,3.5248635,2.0131483,9.509099,1.3017987
1409526301521,3.9665937,10.330381,3.6481647,1.9824978,9.515956,1.2987235
1409526301522,2.565387,15.379154,2.1769278,1.9638605,9.520362,1.2947365
1409526301528,3.3075895,14.424467,0.017956512,1.934944,9.528056,1.2816174
1409526301551,4.519056,12.331336,-0.7954735,1.9337579,9.53115,1.2602304
1409526301552,6.5619082,9.991602,-0.712275,1.9734389,9.524725,1.2472166
1409526301560,6.1040173,7.3950906,2.2972364,2.0585663,9.505222,1.2583535
1409526301595,6.9132576,7.2364745,5.6425347,2.1544669,9.476074,1.3163111
1409526301597,6.3284736,10.99178,9.323022,2.2760856,9.435329,1.4015654
1409526301599,5.021838,17.63928,7.3579803,2.4021647,9.385927,1.5180134
1409526301601,2.268506,18.22227,3.17531,2.4937096,9.35182,1.5796447
1409526301626,-1.7088615,15.734095,3.1771057,2.537045,9.34259,1.565183
1409526301626,-3.3093853,15.110406,1.3694834,2.5267918,9.347065,1.5550252
1409526301638,-2.8089972,15.061923,-0.8690952,2.4885569,9.360739,1.5342894
1409526301660,-2.4570496,14.146141,-1.685518,2.44161,9.375451,1.5198201
1409526301661,-2.6288335,12.998719,-1.6831238,2.373872,9.3932905,1.5169746
1409526301662,-2.6192567,10.999561,-1.6136919,2.280704,9.417933,1.5070915
1409526301690,-2.1284454,9.889849,-0.82480246,2.1870189,9.442312,1.4933453
1409526301692,-1.5185224,9.661202,0.092176765,2.1099536,9.461147,1.4849972
1409526301694,-0.7990648,9.765948,0.7350199,2.0477166,9.475683,1.4794173
1409526301701,0.09995792,9.381081,1.6699557,1.9971517,9.486483,1.4793372
1409526301722,1.9183542,8.008605,1.6166847,1.9554455,9.49565,1.4762253
1409526301722,2.3038206,8.668207,1.3964181,1.9233975,9.504633,1.4604532
1409526301729,2.468422,9.852738,1.4431051,1.8852859,9.516272,1.4341046
1409526301746,2.3427265,10.484808,1.5251064,1.8389975,9.52956,1.4056846
1409526301749,1.4718355,10.250176,1.0803835,1.7819766,9.543554,1.3840315
1409526301768,0.47884035,9.916184,0.20231004,1.707453,9.559865,1.3652766
1409526301770,-0.32561144,9.7958765,-0.5494693,1.6130543,9.581422,1.3284681
1409526301780,-0.83617496,9.449316,-0.8074445,1.499811,9.608609,1.2631594
1409526301810,-1.2354081,8.805874,-0.93852705,1.3751245,9.637031,1.186213
1409526301811,-1.7082629,8.225879,-1.2384008,1.2484958,9.662991,1.1127836
1409526301812,-2.1164744,8.001422,-1.2761095,1.1229409,9.684938,1.0542046
1409526301834,-2.4271219,7.912238,-1.115698,1.0029703,9.702404,1.013796
1409526301835,-2.8473043,8.180987,-1.0660183,0.8933295,9.71591,0.98664784
1409526301842,-2.5007436,8.499416,-0.3333926,0.7934676,9.726593,0.96651924
1409526301849,-1.6382325,8.826823,0.39983168,0.7067558,9.733887,0.96038353
1409526301870,-1.027711,8.564658,0.44891283,0.634449,9.737197,0.977178
1409526301872,-0.74639237,8.12233,0.35434186,0.5692305,9.737306,1.0155091
1409526301881,-0.46148238,8.0127945,0.09756372,0.49744493,9.7362,1.0627198
1409526301904,-0.21428105,7.7488337,0.0676362,0.4106395,9.736107,1.0999867
1409526301905,0.94690675,7.821857,-0.26276365,0.3081832,9.736498,1.129612
1409526301909,2.2062569,8.186973,-0.32561144,0.20607714,9.737795,1.1415964
1409526301936,2.742558,8.451532,0.1436521,0.10668679,9.739322,1.1422031
1409526301939,2.9777884,8.409634,0.7769185,0.01587839,9.739906,1.1420985
1409526301943,3.164536,8.67958,1.4107834,-0.064460054,9.738442,1.1528122
1409526301950,3.0095115,8.854955,1.6651673,-0.13326676,9.733966,1.184287
1409526301995,2.6222494,9.102157,1.6310499,-0.19164982,9.726312,1.2379508
1409526301997,2.223615,9.258977,1.2868834,-0.24298231,9.715693,1.3102123
1409526302001,2.0530279,9.284714,0.8230068,-0.29132324,9.703024,1.3916981
1409526302003,2.355296,9.050082,0.7140707,-0.3379379,9.689085,1.475753
1409526302032,2.956839,8.528147,0.9295488,-0.37963995,9.673566,1.5647359
1409526302034,3.5823243,7.9343843,1.3479356,-0.41670296,9.656382,1.6586189
1409526302035,3.762488,7.567473,1.9440918,-0.4442494,9.637329,1.7592391
1409526302036,3.429694,7.4693108,2.6198552,-0.4660139,9.617456,1.859505
1409526302055,2.7132292,7.7344685,2.9287071,-0.4855247,9.597671,1.9543262
1409526302056,1.8872294,8.475474,2.6743233,-0.5072166,9.57908,2.0382185
1409526302060,1.7687165,9.28232,1.9895816,-0.533314,9.563482,2.1037493
1409526302104,2.496554,9.932345,1.0576386,-0.5595771,9.552417,2.1467667
1409526302106,3.301604,10.348937,0.74758947,-0.5779877,9.547316,2.1645074
1409526302109,3.9396589,10.986992,2.0991163,-0.59077597,9.54676,2.1635056
1409526302111,3.2962172,10.734404,2.7018566,-0.59900564,9.545719,2.1658325
1409526302113,2.3953989,10.356119,2.8329391,-0.6142884,9.542299,2.1765952
1409526302135,1.7375919,10.206482,3.0963013,-0.63721734,9.537631,2.190421
1409526302136,0.997185,10.081984,3.235165,-0.6608171,9.533892,2.1996846
1409526302140,0.30526072,9.759365,2.7910407,-0.6835421,9.535098,2.1874862
1409526302149,-0.022146367,9.723452,2.3355439,-0.69905233,9.542767,2.1487973
1409526302163,0.20709845,9.774328,2.5995045,-0.69749266,9.555551,2.091735
1409526302184,-0.46148238,9.242816,2.0817583,-0.67796534,9.571615,2.0236013
1409526302185,-0.79128367,8.718486,0.83258367,-0.65583795,9.591679,1.9338989
1409526302189,-2.1775265,7.7159133,0.1945289,-0.6262357,9.617122,1.8136177
1409526302218,-3.4356794,7.193379,-0.4890157,-0.58756244,9.645343,1.671082
1409526302219,-4.2676644,7.778163,-1.3096284,-0.5356871,9.675203,1.5079379
1409526302221,-4.0533834,10.125079,-1.5119383,-0.47059974,9.704489,1.3310949
1409526302229,-4.0659533,13.89056,-0.7846996,-0.39437905,9.731915,1.1422329
1409526302257,-3.714604,18.60175,-0.35673606,-0.3028081,9.753248,0.9761358
1409526302258,-2.966416,19.608511,-1.4562732,-0.19423221,9.767436,0.854322
1409526302267,-3.4021606,19.608511,-1.5795746,-0.05996729,9.777193,0.7571768
1409526302294,-3.1735144,19.5313,-0.6488287,0.064878225,9.782723,0.6815362
1409526302295,-0.9498995,11.950658,2.9604304,0.16978486,9.783352,0.65392333
1409526302296,-0.47165772,9.180567,4.911705,0.2914403,9.775003,0.7312901
1409526302320,-1.9231426,8.348581,5.723339,0.3919881,9.760637,0.8641092
1409526302321,-2.7617116,8.780136,4.95899,0.4586975,9.744833,0.99910694
1409526302322,-1.2252327,10.582372,3.6984432,0.51332676,9.733463,1.0800807
1409526302329,0.19093758,10.1939125,2.8365304,0.5856063,9.724936,1.1194097
1409526302346,0.3309984,8.144476,2.3906105,0.7033716,9.719706,1.096808
1409526302368,1.1492168,6.9808936,2.1960814,0.8506032,9.713877,1.0428245
1409526302369,2.4953568,7.089231,2.0572178,0.99978524,9.705896,0.9830612
1409526302370,3.620033,8.272566,1.7525556,1.1463269,9.694891,0.93027943
1409526302408,3.5553896,8.412027,0.91937345,1.2963638,9.679836,0.88915306
1409526302409,2.8161798,7.2448545,0.108337626,1.4319845,9.663299,0.8605022
1409526302410,2.0254946,6.059126,-0.05327099,1.5344416,9.648342,0.8516952
1409526302412,1.8800468,5.1810527,0.33638534,1.6069196,9.634878,0.8702637
1409526302433,1.7166426,4.5364137,0.8726865,1.6674373,9.620234,0.9171505
1409526302434,1.4927847,4.2221746,1.1414356,1.7264978,9.60298,0.9861054
1409526302441,1.3862427,3.9474401,1.1605892,1.784517,9.584191,1.0626264
1409526302473,1.3299791,3.9264908,1.3102269,1.8423166,9.564065,1.1423323
1409526302474,1.283292,4.361038,1.5394717,1.8964105,9.544124,1.218094
1409526302475,1.3700819,5.145738,1.7968484,1.94474,9.52537,1.2867361
1409526302483,1.5903485,5.507861,1.8183962,1.9855956,9.50894,1.3445798
1409526302505,1.9309237,5.954978,1.6567876,2.0171285,9.496285,1.3864251
1409526302507,2.2583308,6.451775,1.7250223,2.0371854,9.48879,1.4082471
1409526302510,2.6527755,7.0784574,1.9297266,2.044391,9.486841,1.4109272
1409526302540,3.157952,7.764396,1.9901801,2.0390506,9.489801,1.3986913
