time,acc_x,acc_y,acc_z,gravity_x,gravity_y,gravity_z
1409349917029,0.15382746,9.715671,1.4784195,-0.04082418,9.718596,1.3105729
1409349917030,0.15442601,9.647436,1.3868413,-0.038736414,9.71911,1.306836
1409349917052,0.13467385,9.69532,1.3060371,-0.037099753,9.719786,1.3018483
1409349917053,0.14844051,9.720459,1.2162545,-0.036206894,9.720748,1.2946582
1409349917056,0.0712275,9.733627,1.1599907,-0.035129473,9.721912,1.2859254
1409349917085,-0.04249708,9.791088,1.0696096,-0.03437135,9.723042,1.2773639
1409349917086,-0.06284779,9.801862,0.97743285,-0.034890257,9.724176,1.2686913
1409349917087,-0.073621705,9.821015,1.1180922,-0.03581015,9.725279,1.2601836
1409349917096,-0.046686932,9.752182,1.2982559,-0.03640607,9.725936,1.2550855
1409349917124,-0.04369418,9.746795,1.3293805,-0.036507193,9.726028,1.2543647
1409349917125,5.985504E-4,9.723452,1.3299791,-0.036339726,9.725972,1.2548119
1409349917127,-0.02932897,9.7402115,1.3126211,-0.03545213,9.725941,1.255079
1409349917156,-0.05925649,9.77792,1.2611457,-0.03442162,9.726036,1.2543724
1409349917156,-0.079008654,9.814431,1.198298,-0.03359306,9.72624,1.2528064
1409349917157,-0.06584055,9.800665,1.1887212,-0.033604894,9.726559,1.2503408
1409349917195,-0.0664391,9.805453,1.2180501,-0.03407865,9.726905,1.2476251
1409349917196,-0.075417355,9.793482,1.2425907,-0.03461407,9.727163,1.245587
1409349917197,-0.08619126,9.792884,1.3006501,-0.03578414,9.727309,1.2444208
1409349917198,-0.07062895,9.803658,1.3365631,-0.037313834,9.727447,1.2432927
1409349917216,-0.109534726,9.794081,1.316811,-0.038877282,9.727654,1.241621
1409349917217,-0.020949265,9.722853,1.1498153,-0.04096826,9.728049,1.2384622
1409349917235,-0.045489833,9.776124,1.0414777,-0.042469315,9.728721,1.2331284
1409349917241,-0.020350715,9.772532,1.0755951,-0.04414996,9.729469,1.2271318
1409349917247,-0.021547815,9.746197,1.2150574,-0.045420565,9.730087,1.2221804
1409349917272,-0.039504327,9.753379,1.3042414,-0.046367347,9.730282,1.2205992
1409349917273,-0.046686932,9.7719345,1.3042414,-0.046894293,9.730156,1.2215766
1409349917276,-0.049081136,9.764751,1.3335704,-0.047297027,9.729973,1.223028
1409349917308,0.025139118,9.767146,1.3605051,-0.04770605,9.7297945,1.2244302
1409349917308,-0.004189853,9.802461,1.3868413,-0.047234192,9.729636,1.2256986
1409349917309,-0.027533319,9.804854,1.4149733,-0.046940032,9.729556,1.2263463
1409349917318,-0.02932897,9.783307,1.3880384,-0.046893854,9.729572,1.2262164
1409349917340,-0.002992752,9.755774,1.2084733,-0.046512015,9.729716,1.2251035
1409349917341,-0.047884032,9.747394,1.1019313,-0.045909666,9.730216,1.2211411
1409349917370,-0.11552023,9.752781,1.1067197,-0.045903675,9.730969,1.2151228
1409349917371,-0.13227965,9.759365,1.1061212,-0.04662512,9.731738,1.2089199
1409349917372,-0.15382746,9.788693,1.1875241,-0.0477569,9.73241,1.2034645
1409349917376,-0.15981296,9.778519,1.3281834,-0.049060676,9.732825,1.2000515
1409349917408,-0.15622166,9.740809,1.347337,-0.050246526,9.732922,1.199208
1409349917410,-0.17537527,9.7803135,1.388637,-0.050984338,9.733001,1.19854
1409349917411,-0.11492168,9.745598,1.2743138,-0.05166516,9.733259,1.1964198
1409349917438,-0.1376666,9.776124,1.2234371,-0.051195644,9.7339,1.1912118
1409349917439,-0.18914193,9.800066,1.3150153,-0.050288904,9.73477,1.1841192
1409349917440,-0.23223756,9.784504,1.3934253,-0.049492493,9.735527,1.1779104
1409349917448,-0.18854338,9.942521,1.4383167,-0.04860256,9.736324,1.1713345
1409349917463,-0.23882163,9.7719345,1.335366,-0.046907004,9.737306,1.1632202
1409349917478,-0.14185645,9.57142,1.2330139,-0.045692954,9.73847,1.1534634
1409349917479,-0.089184016,9.701904,1.1971009,-0.044277534,9.739904,1.1413561
1409349917494,-0.09696517,9.78989,1.0552444,-0.042005934,9.741576,1.1270915
1409349917496,-0.059855044,9.824607,1.1025299,-0.038735244,9.743544,1.110069
1409349917513,-0.061650693,9.841366,1.1911154,-0.03443857,9.74545,1.0933616
1409349917531,-0.10654198,9.838373,1.2755109,-0.029968146,9.747117,1.0785195
1409349917546,-0.05686229,9.831789,1.264737,-0.026681818,9.748597,1.065138
1409349917547,0.034117375,9.826403,1.2084733,-0.023896717,9.750069,1.0516508
1409349917548,0.025737667,9.784504,1.1593921,-0.020527095,9.751654,1.0369319
1409349917559,-0.06584055,9.752781,1.1869255,-0.01727496,9.753426,1.0201942
1409349917578,-0.11312603,9.733627,1.2294226,-0.015104776,9.755173,1.0033827
1409349917579,-0.11192893,9.749788,1.2952632,-0.014190292,9.756855,0.986891
1409349917595,-0.02813187,9.793482,1.2012907,-0.013871143,9.758415,0.9713643
1409349917596,0.008978256,9.83957,0.9696517,-0.0129136965,9.76015,0.9537831
1409349917609,-0.108936176,9.763555,0.6775591,-0.011158816,9.762333,0.93119484
1409349917625,-0.12808979,9.7479925,0.65301853,-0.010241847,9.764855,0.90436524
1409349917628,-0.14784196,9.834184,0.6015432,-0.010077158,9.767213,0.8785539
1409349917653,-0.2148796,9.845556,0.7422025,-0.009875205,9.769298,0.8550486
1409349917654,-0.24839842,9.870695,1.0193313,-0.009577099,9.770887,0.8367057
1409349917657,-0.25797522,9.944317,1.2180501,-0.009705986,9.771963,0.82403445
1409349917688,0.089184016,10.260351,1.2276269,-0.01013371,9.772773,0.8143752
1409349917689,-0.11971009,9.540296,0.427365,-0.0075391633,9.773637,0.80397654
1409349917689,0.15442601,9.718663,0.53929394,-0.008964374,9.775326,0.78316873
1409349917696,0.29807812,9.980828,0.7026982,-0.0136594,9.7772255,0.75898415
1409349917714,-0.7721301,9.6845455,0.93373865,-0.019273149,9.778988,0.7358219
1409349917730,-0.61890113,9.660006,0.4938041,-0.034345336,9.780421,0.7159382
1409349917731,-4.482544,9.549872,1.4862007,-0.05064473,9.782106,0.6915578
1409349917748,0.8367735,9.734824,0.85473,-0.10238866,9.78294,0.6737889
1409349917763,0.3609259,9.55885,-0.6476316,-0.092193864,9.784734,0.6487685
1409349917763,0.12569559,9.814431,-0.6404489,-0.06481384,9.787787,0.6045108
1409349917782,0.26635495,9.554661,-0.40043023,-0.038132165,9.790906,0.55416244
1409349917783,0.3405752,9.4972,-0.0077811554,-0.023002837,9.793086,0.5151105
1409349917788,0.33159694,9.664794,0.2136825,-0.009806524,9.794613,0.48568392
1409349917797,0.3669114,9.878476,0.30885202,0.0016961364,9.795553,0.46642277
1409349917815,0.15203181,9.946711,0.38606504,0.012465368,9.796208,0.4523042
1409349917828,-0.035314474,9.952697,0.4902128,0.019487668,9.79667,0.44190383
1409349917830,0.53689975,9.800066,0.14544775,0.021879386,9.796979,0.4348989
1409349917853,0.8702923,9.448717,-0.8678981,0.027417583,9.797347,0.42616263
1409349917854,0.26276365,9.852738,0.27593175,0.033916883,9.797989,0.41068274
1409349917871,0.32321724,9.782708,1.3425486,0.028746495,9.797858,0.41420683
1409349917923,-0.25198972,9.9473095,0.7098808,0.018309418,9.796818,0.43864977
1409349917924,-0.3645172,10.052056,0.17776948,0.0020548867,9.796177,0.45312956
1409349917924,-0.2908955,10.1621895,-0.095169514,-0.01647621,9.795993,0.45675653
1409349917925,-0.12270284,10.14124,-0.06703765,-0.03468173,9.79628,0.44957158
1409349917959,-0.088585466,10.077195,0.10474633,-0.048193976,9.796521,0.44298285
1409349917960,-0.08738836,9.905411,0.40043023,-0.05537848,9.796453,0.44366965
1409349917960,-0.093373865,9.670779,0.4902128,-0.056735743,9.796018,0.45302904
1409349917961,-0.16101007,9.479841,0.5758055,-0.05375278,9.795441,0.46566406
1409349917965,-0.14903906,9.3661175,0.41000703,-0.04825886,9.794896,0.4775801
1409349917966,-0.44532153,9.198523,0.25438392,-0.03962094,9.794588,0.48462185
1409349918008,-0.6817489,9.415796,0.46028528,-0.03038681,9.794522,0.48661274
1409349918009,-0.60573304,9.473258,0.4417302,-0.021609336,9.79432,0.49116674
1409349918010,-1.287482,8.436568,0.08798691,-0.0095838215,9.79387,0.5004086
1409349918011,-1.2024878,7.9661074,-0.14724341,1.9581484E-4,9.793435,0.5089415
1409349918011,-0.11791443,8.683171,0.20590134,0.017289719,9.792895,0.51890814
1409349918032,-0.047285482,9.030331,0.6039374,0.05203443,9.791643,0.5398492
1409349918033,0.5907693,9.173983,0.41000703,0.09666385,9.789305,0.5749445
1409349918036,1.0133458,9.533113,0.049081136,0.14738792,9.786317,0.61376727
1409349918064,1.0564415,9.534908,0.12449849,0.19804727,9.78301,0.651051
1409349918064,0.56323594,8.317456,1.2180501,0.24082902,9.7790575,0.69456923
1409349918072,0.9451111,8.222287,1.1755531,0.26939502,9.773765,0.75587684
1409349918077,1.0175357,8.425795,1.0181342,0.29418725,9.767796,0.82098615
1409349918100,0.44113165,8.668207,1.0390835,0.31768626,9.761884,0.88038933
1409349918101,0.31364042,8.64666,1.2042835,0.3346981,9.756283,0.9345196
1409349918112,0.4950012,8.243835,0.9487024,0.3481335,9.750457,0.9888246
1409349918134,0.7380127,9.009979,0.6380547,0.3576097,9.74448,1.0428811
1409349918135,0.49320555,8.833407,0.83737206,0.36744726,9.738478,1.0942736
1409349918137,0.4854244,8.100183,1.2779051,0.3744283,9.732128,1.1471072
1409349918174,0.7703344,10.33517,1.4335283,0.37817645,9.724607,1.2080513
1409349918175,0.7906851,8.376115,1.3634979,0.38149333,9.715949,1.27483
1409349918177,0.504578,9.144054,0.9552865,0.38644972,9.706736,1.3417706
1409349918178,0.7224504,7.924209,1.174356,0.3916293,9.69849,1.3986768
1409349918212,0.39145198,5.4743423,0.01316811,0.4004233,9.6898155,1.4551725
1409349918216,0.7224504,7.3897038,0.9983821,0.40678546,9.68095,1.5113363
1409349918217,0.985214,9.741408,2.059612,0.40940687,9.67057,1.5757115
1409349918250,1.3455414,8.129512,2.172738,0.4101034,9.65531,1.6664982
1409349918252,1.1240777,8.206725,2.119467,0.40502626,9.636247,1.7745723
1409349918252,0.5590461,6.980295,1.5149311,0.387942,9.616833,1.8805397
1409349918257,-0.29688102,8.649054,3.870227,0.35449252,9.59865,1.9775347
1409349918258,0.43634325,15.765819,5.209783,0.3055686,9.575774,2.093225
1409349918294,1.1073183,15.737088,4.12102,0.26057583,9.5463085,2.2294536
1409349918294,0.6242881,16.07886,3.4805708,0.2346306,9.519477,2.344123
1409349918295,0.3693056,16.908451,3.4524388,0.21524625,9.503966,2.4080496
1409349918297,0.56563014,15.893908,3.2052376,0.20233108,9.500224,2.4238796
1409349918313,0.7739257,11.280281,2.5246856,0.20377938,9.502803,2.4136283
1409349918331,0.729633,10.122087,2.078167,0.21484585,9.505461,2.4021788
1409349918331,0.516549,10.053851,2.1637597,0.2359715,9.511188,2.3773937
1409349918337,0.28670564,10.214263,2.4827871,0.2553345,9.517343,2.3506186
1409349918369,0.16280572,10.306439,2.6354175,0.26814693,9.520765,2.3352838
1409349918370,0.27712885,10.055647,2.510919,0.2756221,9.520981,2.3335295
1409349918371,0.36750996,9.780912,2.4744074,0.2839891,9.5199995,2.3365276
1409349918377,0.3645172,9.600749,2.610877,0.29795507,9.519139,2.3382933
1409349918407,0.33039984,9.519346,2.5959132,0.31671137,9.518351,2.339035
1409349918408,0.33758244,9.360131,2.391209,0.3370454,9.518347,2.336212
1409349918409,0.47165772,9.112331,2.1003134,0.3570355,9.520152,2.3258636
1409349918438,0.6548142,8.8088665,2.0967221,0.37742242,9.523686,2.3081021
1409349918439,0.6919243,8.454525,2.1679497,0.39838135,9.527133,2.2902906
1409349918439,0.6775591,8.432977,2.2272062,0.41465253,9.529748,2.2764795
1409349918459,0.8343793,8.868123,2.5031378,0.42412046,9.531593,2.2669888
1409349918461,0.8110358,9.074623,2.6060886,0.4290618,9.532359,2.262837
1409349918488,0.64703304,9.091981,2.6437972,0.43011796,9.531679,2.2654986
1409349918489,0.50996494,9.256582,2.7036524,0.4277033,9.529715,2.2742016
1409349918491,0.44831428,9.755175,2.791639,0.42300433,9.5270405,2.2862523
1409349918522,0.415394,10.140641,2.6862943,0.41768387,9.523701,2.3011007
1409349918523,0.18375498,10.503363,1.620276,0.41387832,9.520407,2.3153696
1409349918523,0.0700304,10.159196,2.1936872,0.41012263,9.5202465,2.3167005
1409349918531,-0.050278235,9.803059,2.717419,0.40874287,9.519052,2.3218431
1409349918554,0.054468088,9.7803135,2.5540147,0.40735105,9.516078,2.3342507
1409349918555,0.2681506,9.6528225,2.5133133,0.40739855,9.512105,2.3503795
1409349918557,0.46028528,9.660006,2.552219,0.4075647,9.509748,2.3598645
1409349918593,0.676362,9.751583,2.5396495,0.4093428,9.5092,2.3617747
1409349918594,0.8559271,9.879075,2.5187001,0.41228652,9.509279,2.3609354
1409349918595,0.9636662,9.9712515,2.4809916,0.4159983,9.509581,2.3590772
1409349918614,0.9672575,9.958682,2.509722,0.41931403,9.510068,2.356517
1409349918615,0.88405895,9.889849,2.5713725,0.42136687,9.510262,2.3553696
1409349918617,0.7685388,9.829395,2.6180596,0.42117834,9.509915,2.3568022
1409349918630,0.6302736,9.789292,2.6515784,0.4188079,9.508897,2.3613293
1409349918660,0.41958386,9.607333,2.6078842,0.41468263,9.507527,2.3675597
1409349918661,0.41240123,9.493608,2.509722,0.40861544,9.505815,2.3754876
1409349918661,0.43514615,9.291897,2.4157495,0.40236726,9.504236,2.382851
1409349918684,0.52073884,8.969876,2.331354,0.396227,9.502982,2.3888762
1409349918685,0.6338649,8.59279,2.3762453,0.390461,9.501793,2.3945496
1409349918689,0.6859388,8.289325,2.456451,0.38501596,9.500384,2.4010084
1409349918719,0.770933,8.057087,2.6090813,0.37894103,9.498938,2.4076908
1409349918720,0.82899237,7.9852614,2.7670987,0.37252712,9.497447,2.4145617
1409349918720,0.92057055,8.039131,2.870648,0.36551002,9.495779,2.422188
1409349918754,1.0576386,8.180388,2.915539,0.35830346,9.493888,2.4306555
1409349918755,1.1145009,8.407239,2.9496565,0.3517099,9.492154,2.4383829
1409349918756,1.127669,8.672996,2.8951883,0.34526795,9.490701,2.4449499
1409349918758,1.0600328,8.819042,2.7114334,0.33881572,9.490402,2.447011
1409349918787,1.0007763,8.76637,2.4947581,0.33260554,9.49185,2.442244
1409349918787,0.9600749,8.58022,2.3708582,0.32722706,9.494847,2.4313006
1409349918793,0.9983821,8.459313,2.2960393,0.3222573,9.498831,2.4163556
1409349918812,1.0534488,8.516175,2.2643163,0.3172232,9.503465,2.3987317
1409349918813,1.1306617,8.789713,2.3199813,0.31175637,9.508365,2.3799663
1409349918818,1.0839748,9.285313,2.5719712,0.30521995,9.513129,2.3617022
1409349918850,0.6667852,10.58297,2.7521348,0.29619047,9.517198,2.3464105
1409349918850,0.42916065,10.879851,2.6264393,0.2810642,9.52099,2.3328404
1409349918852,0.22505496,10.976217,2.5270798,0.26291648,9.525012,2.3184938
1409349918858,0.1412579,10.949283,2.4899697,0.24307862,9.529571,2.3018734
1409349918888,0.2184709,10.84334,2.4492683,0.22458303,9.534855,2.281776
1409349918888,0.27952304,10.6877165,2.3720553,0.2098929,9.540492,2.2595046
1409349918889,0.19093758,10.480618,2.368464,0.19953181,9.5458355,2.2377667
1409349918908,0.06464344,10.196306,2.4486697,0.19160073,9.55043,2.2187796
1409349918911,-0.05865794,9.835979,2.5198972,0.18520007,9.553872,2.2044485
1409349918923,-0.12988544,9.375694,2.6024973,0.18002252,9.556199,2.1947756
1409349918949,-0.14185645,8.924387,2.7084408,0.1756541,9.557027,2.1915245
1409349918950,-0.11492168,8.610746,2.8137856,0.17271219,9.5564,2.1944857
1409349918951,-0.092176765,8.5473,2.834735,0.17181334,9.554756,2.2017016
1409349918958,-0.073023155,8.698733,2.8054059,0.17124315,9.552812,2.2101731
1409349918987,-0.049081136,8.987833,2.741361,0.17104396,9.551004,2.2179842
1409349918987,-0.061052144,9.366715,2.5635915,0.16967648,9.550094,2.2220027
1409349918989,-0.11252748,9.761759,2.2523453,0.1656557,9.5508375,2.2191157
1409349919011,-0.24540567,10.076596,1.8938135,0.15750936,9.553998,2.20606
1409349919012,-0.43754035,10.349535,1.5987282,0.14361586,9.5595875,2.182666
1409349919034,-0.82121116,10.448297,1.2306197,0.1236334,9.566766,2.1522295
1409349919034,-0.9516952,10.220248,1.3060371,0.09715192,9.574573,2.118609
1409349919038,-1.01574,9.946711,1.5915456,0.068520874,9.581315,2.0890427
1409349919060,-0.96665895,9.693524,1.8950106,0.040580723,9.5863495,2.0665607
1409349919061,-0.8643068,9.424775,2.15957,0.01465484,9.58959,2.0518157
1409349919077,-0.7392098,9.215881,2.3630772,-0.008787994,9.591634,2.0422728
1409349919093,-0.6715736,9.163208,2.4756045,-0.031103287,9.592317,2.0388422
1409349919094,-0.65780693,9.25359,2.4624364,-0.05238807,9.592288,2.0385435
1409349919119,-0.65900403,9.389461,2.4127567,-0.07281842,9.592165,2.038491
1409349919120,-0.694917,9.488221,2.2703018,-0.09238383,9.592309,2.0370266
1409349919136,-0.7326257,9.498397,2.100912,-0.11166575,9.59301,2.0327468
1409349919158,-0.7356185,9.442732,1.9590555,-0.13142946,9.594184,2.0260131
1409349919159,-0.7326257,9.451111,1.8776526,-0.15249315,9.595793,2.0169046
1409349919176,-0.7140707,9.565434,1.7860745,-0.17528059,9.5978985,2.0049965
1409349919177,-0.8086416,9.66659,1.7561469,-0.20032194,9.600557,1.9898715
1409349919197,-0.9307459,9.74859,1.7357962,-0.22862639,9.6035385,1.9723505
1409349919198,-0.88046765,9.758766,1.6944963,-0.25863823,9.606534,1.9539772
1409349919198,-0.95708215,9.661202,1.7190368,-0.2893417,9.6094265,1.9353514
1409349919214,-0.99060094,9.624092,1.8201919,-0.32122064,9.611818,1.9183711
1409349919230,-0.8774749,9.5732155,2.4408886,-0.3536809,9.613532,1.9040194
1409349919231,-0.93732995,9.143456,2.0404584,-0.38462842,9.613891,1.896199
1409349919245,-0.90500826,9.718064,1.4454993,-0.41403162,9.614654,1.886116
1409349919246,-0.88166475,9.724648,1.3329718,-0.44364613,9.618079,1.8617619
1409349919263,-0.66858083,9.63726,1.2378023,-0.4770184,9.624993,1.8172318
1409349919263,-0.5363012,9.716867,1.4269443,-0.5107763,9.632161,1.769453
1409349919282,-0.427365,9.812037,1.5741876,-0.54179347,9.637038,1.7333102
1409349919299,-0.40402153,9.788693,1.7022774,-0.56754667,9.6406555,1.7047161
1409349919299,-0.43035775,9.824607,1.8285716,-0.590584,9.641934,1.6895851
1409349919317,-0.45070848,9.812635,1.9021933,-0.60990036,9.641887,1.68299
1409349919318,-0.5177461,9.733028,1.8860323,-0.62696594,9.641077,1.6813463
1409349919335,-0.52732295,9.635465,1.8794483,-0.64310384,9.639767,1.6827667
1409349919350,-0.60812724,9.171588,1.8662802,-0.6585428,9.6383,1.6851965
1409349919351,-0.42317516,10.196306,1.9357121,-0.6750614,9.636827,1.6870763
1409349919367,-0.7954735,9.463082,1.8531121,-0.68858826,9.635994,1.6863749
1409349919367,-0.89662856,9.758766,1.8207904,-0.70494264,9.6352215,1.6840292
1409349919383,-0.91458505,9.704897,1.7992426,-0.7242878,9.634422,1.68039
1409349919383,-1.0642227,9.526528,1.6597804,-0.7455358,9.633199,1.6781045
1409349919392,-1.1330559,9.832388,1.4718355,-0.76800436,9.632008,1.6748195
1409349919407,-1.0696096,9.740809,1.359308,-0.7903157,9.631681,1.6662884
1409349919415,-1.2336124,9.7324295,1.4012065,-0.8138095,9.631702,1.6548084
1409349919451,-1.3724761,9.790489,1.3748703,-0.8410446,9.631136,1.6444571
1409349919453,-1.4850036,9.668385,1.3371617,-0.87124044,9.630078,1.634906
1409349919454,-1.5340848,9.566033,1.3054385,-0.90397525,9.6288395,1.6244028
1409349919457,-1.472434,9.442732,1.3838485,-0.9373133,9.627798,1.611621
1409349919459,-1.2497733,9.519346,1.6035166,-0.96999395,9.626718,1.5986867
1409349919483,-1.0307038,9.667188,0.99419224,-0.9998867,9.625392,1.5882179
1409349919483,-1.3401544,10.079589,1.2503718,-1.0275936,9.625268,1.571203
1409349919490,-1.6262615,10.022727,1.352724,-1.0587654,9.625,1.5520278
1409349919516,-1.2497733,9.097368,1.2563573,-1.0919901,9.624013,1.5350317
1409349919517,-1.2006922,9.336788,1.3084313,-1.1189327,9.62239,1.5257752
1409349919518,-1.1450269,9.68694,1.3150153,-1.1402599,9.620776,1.5201591
1409349919546,-1.2970588,10.019734,2.232593,-1.1591109,9.619652,1.5129935
1409349919547,-1.0600328,9.275736,0.9923966,-1.1767087,9.617668,1.5120261
1409349919550,-0.8265981,9.870695,0.41299978,-1.192963,9.617946,1.4974475
1409349919558,-0.6344634,9.355942,1.2431892,-1.2097116,9.621762,1.4590064
1409349919593,-0.3549404,8.961497,2.2403743,-1.2248589,9.624673,1.4268098
1409349919594,-0.5482722,9.993997,0.76315176,-1.2337729,9.6249275,1.4173844
1409349919594,-0.54647654,10.243592,0.5386954,-1.2381806,9.629935,1.3790104
1409349919602,-0.9271546,10.088568,0.7374141,-1.24206,9.636921,1.3256787
1409349919609,-1.1587936,9.952697,1.4580688,-1.2497312,9.642441,1.2774591
1409349919629,-1.4143747,10.065224,0.58418524,-1.2590706,9.644165,1.2550831
1409349919631,-1.5286977,9.743802,0.089184016,-1.2704201,9.644872,1.2380904
1409349919637,-1.4598645,9.115324,1.7154455,-1.2824612,9.64476,1.2265041
1409349919661,-1.2850877,8.616134,2.123657,-1.2960417,9.6417885,1.2355548
1409349919662,-1.1534066,8.992621,1.3563153,-1.3118887,9.634384,1.2759272
1409349919669,-1.0726024,9.452309,0.88765025,-1.3237981,9.626645,1.3212376
1409349919692,-1.1659763,10.040684,0.8571242,-1.3318306,9.623958,1.3326848
1409349919708,-1.3485341,10.469246,0.7386112,-1.3404299,9.624782,1.3180355
1409349919708,-0.97862995,9.991602,0.6266823,-1.350665,9.626451,1.295203
1409349919710,-1.3617022,10.138845,0.65900403,-1.3577931,9.628524,1.272133
1409349919724,-1.3263878,9.631275,0.75956047,-1.3660576,9.630241,1.2500901
1409349919738,-1.3676877,9.28232,0.96067345,-1.3726962,9.631491,1.2330781
1409349919738,-1.448492,9.504981,1.1695676,-1.3762764,9.632209,1.2234476
1409349919755,-1.5185224,9.6845455,1.1593921,-1.377877,9.632266,1.2211937
1409349919758,-1.543063,9.64564,0.99419224,-1.3792802,9.632065,1.2211931
1409349919772,-1.4850036,9.749788,0.8511387,-1.3797164,9.632442,1.2177141
1409349919791,-1.3736732,9.804854,0.8283938,-1.3789055,9.633591,1.2095184
1409349919791,-1.3916297,9.824008,0.8086416,-1.3772331,9.635082,1.1995231
1409349919805,-1.4155718,9.627684,0.8571242,-1.3776157,9.636143,1.1905162
1409349919819,-1.483208,9.592369,0.97384155,-1.3806487,9.6364155,1.1847891
1409349919819,-1.5999253,9.622895,1.0336965,-1.3849322,9.636181,1.1816952
1409349919838,-1.6579847,9.627085,1.0145429,-1.391234,9.635288,1.1815672
1409349919839,-1.6292542,9.533113,0.95349085,-1.3976812,9.634381,1.1813468
1409349919853,-1.638831,9.446322,0.9307459,-1.4023438,9.633948,1.1793606
1409349919858,-1.5999253,9.305663,0.96665895,-1.4056833,9.633792,1.176659
1409349919879,-1.5867572,9.437943,1.0959458,-1.4081341,9.633842,1.173298
1409349919880,-1.6059108,9.610924,1.1180922,-1.4099698,9.633809,1.1713696
1409349919890,-1.6214731,9.7162695,1.1031284,-1.411778,9.633554,1.1712819
1409349919904,-1.6316484,9.721656,1.0049661,-1.4135984,9.633313,1.1710674
1409349919922,-1.5269021,9.743802,0.93134445,-1.4158612,9.633276,1.1686481
1409349919923,-1.4173675,9.904813,1.0552444,-1.4178756,9.633431,1.1649235
1409349919938,-1.3443443,9.892841,1.1168951,-1.4187473,9.6336355,1.1621739
1409349919938,-1.292869,9.918579,1.1258733,-1.418687,9.633662,1.1620255
1409349919955,-1.4059949,9.988011,1.151611,-1.4182379,9.633667,1.1625193
1409349919960,-1.453879,10.038888,1.027711,-1.4184917,9.633725,1.1617438
1409349919973,-1.5424645,10.012551,0.96306765,-1.4179881,9.634291,1.1576468
1409349919988,-1.6077064,9.66659,1.021127,-1.4173683,9.635029,1.1522616
1409349920009,-1.5676036,9.503185,1.0887632,-1.4180865,9.63528,1.1492717
1409349920010,-1.5957354,9.466674,1.1540052,-1.4201412,9.635097,1.1482564
1409349920011,-1.5442601,9.496601,1.1097125,-1.4248252,9.634554,1.1470044
1409349920019,-1.4850036,9.589376,1.0749966,-1.4321079,9.633796,1.144315
1409349920040,-1.4598645,9.651027,1.1109096,-1.4398994,9.633046,1.1408365
1409349920041,-1.5005659,9.715072,1.1067197,-1.4483887,9.632341,1.1360265
1409349920061,-1.4610616,9.624092,1.0109516,-1.4571984,9.631696,1.1302373
1409349920062,-1.3874398,9.472659,1.0247183,-1.4652387,9.631216,1.1239146
1409349920070,-1.400608,9.3978405,1.0737995,-1.4707912,9.631011,1.1183891
1409349920093,-1.4209588,9.51755,1.1186907,-1.4733232,9.6310835,1.1144302
1409349920094,-1.3688848,9.5971575,1.127669,-1.4739789,9.631316,1.1115584
1409349920099,-1.3006501,9.65821,1.09834,-1.4740143,9.63168,1.1083517
1409349920129,-1.2336124,9.673772,1.1001357,-1.4729893,9.632259,1.1046616
1409349920129,-1.2006922,9.546281,1.163582,-1.470888,9.632998,1.1010165
1409349920130,-1.3239936,9.630077,1.2707225,-1.4687251,9.63359,1.0987282
1409349920139,-1.441908,9.866506,1.2814964,-1.4679492,9.633817,1.0977648
1409349920162,-1.4107834,9.8042555,1.1755531,-1.469433,9.633578,1.0978812
1409349920163,-1.4341269,9.755175,1.1360487,-1.4710304,9.633376,1.0975059
1409349920172,-1.3120226,9.46847,1.091756,-1.4706513,9.633543,1.0965654
1409349920193,-0.641646,8.568848,1.0791864,-1.4684014,9.634035,1.0952392
1409349920194,0.04309563,7.4327993,1.1994951,-1.4620781,9.634972,1.095463
1409349920199,-2.7647045,10.935516,1.9614497,-1.4542617,9.635805,1.0985335
1409349920232,-2.72939,12.054207,1.6424223,-1.4765404,9.631283,1.1084312
1409349920233,-2.0655975,10.578181,0.7038953,-1.5196915,9.623603,1.1167958
1409349920234,-1.5233108,9.697714,0.2172738,-1.5451585,9.62058,1.107849
1409349920239,-1.0546459,9.514558,0.3585317,-1.5311655,9.62505,1.0882775
1409349920265,-0.83617496,9.43495,0.9900024,-1.5032699,9.631962,1.0657786
1409349920265,-0.717662,9.042301,1.4742297,-1.4683963,9.638004,1.0597605
1409349920270,-0.6853402,8.642469,1.6591818,-1.4383155,9.641228,1.0716239
1409349920299,-0.8230068,8.859145,1.7651252,-1.4173781,9.642166,1.0908997
1409349920300,-0.9911995,9.401431,1.7447745,-1.405292,9.641985,1.1080068
1409349920301,-1.1731589,9.64564,1.5304934,-1.4004214,9.641621,1.1172967
1409349920329,-1.3970166,9.709086,1.3036429,-1.4013776,9.64161,1.1162019
1409349920331,-1.513734,9.961076,1.1833342,-1.4052937,9.642108,1.1069378
1409349920332,-1.6005238,9.891046,0.9935937,-1.407566,9.643145,1.0949773
1409349920339,-1.5161282,9.849147,0.91458505,-1.4054607,9.644788,1.0831279
1409349920365,-1.388637,9.886856,0.99179804,-1.399657,9.646844,1.0722563
1409349920365,-1.1210849,9.858724,1.2731167,-1.388809,9.64913,1.0657892
1409349920371,-1.1971009,10.1226845,1.359308,-1.3747364,9.651149,1.0657436
1409349920398,-1.2306197,9.861717,1.2982559,-1.3625679,9.652514,1.0690081
1409349920399,-1.3736732,9.715671,0.95349085,-1.354486,9.653315,1.0720558
1409349920400,-1.6160861,9.81922,0.97144735,-1.3505788,9.654214,1.0688807
1409349920426,-1.7034745,9.521142,1.0402806,-1.3497266,9.655359,1.0595722
1409349920427,-1.7603368,9.367912,1.0606314,-1.3523046,9.6558275,1.0519804
1409349920431,-1.7681179,9.368511,1.074398,-1.3589817,9.654974,1.0512106
1409349920439,-1.7369933,9.296086,1.1659763,-1.3676385,9.653538,1.0531758
1409349920459,-1.6699557,9.4972,1.0307038,-1.3760594,9.651915,1.0570728
1409349920460,-1.6376339,9.690532,1.0271125,-1.383037,9.650616,1.0598229
1409349920473,-1.6639702,10.058042,1.0965444,-1.3882102,9.649837,1.0601544
1409349920504,-1.6537948,10.049662,1.0636241,-1.3915666,9.649122,1.0622511
1409349920505,-1.7615339,10.266935,1.1079168,-1.3934461,9.647941,1.0704764
1409349920506,-1.7956513,10.129269,1.0947487,-1.3953323,9.646277,1.0829513
1409349920530,-1.7621324,9.858126,0.9780314,-1.3992093,9.644369,1.0948937
1409349920531,-1.6633717,9.668983,1.0187328,-1.4077253,9.642362,1.1016198
1409349920533,-1.8189948,9.501988,1.1749545,-1.42014,9.639734,1.1086475
1409349920539,-1.4790181,9.178771,0.87089086,-1.4363173,9.637467,1.1075252
1409349920566,-1.1851299,9.640852,1.0965444,-1.4500781,9.636118,1.1013193
1409349920571,-0.99060094,9.8994255,1.1671734,-1.4569539,9.635694,1.0959541
1409349920572,-1.0247183,9.432556,1.3479356,-1.4572309,9.636437,1.0890046
1409349920602,-1.2641385,9.226056,1.541866,-1.4466692,9.638697,1.0830764
1409349920602,-1.4718355,9.333796,1.5400703,-1.430686,9.640772,1.0858448
1409349920603,-1.4856021,9.578004,1.3760674,-1.4153662,9.641763,1.0970658
1409349920625,-1.4460979,9.672575,1.2509704,-1.4044424,9.642119,1.1079198
1409349920625,-1.340753,10.101735,0.97144735,-1.3972708,9.642658,1.112282
1409349920631,-1.1845313,10.247782,0.6811504,-1.3916903,9.64403,1.1073855
1409349920639,-1.0468647,9.930551,0.57879823,-1.3866323,9.646383,1.0931267
1409349920655,-0.919972,9.763555,0.8319851,-1.3834944,9.648653,1.0769553
1409349920675,-0.96067345,9.657611,1.30484,-1.3832976,9.649249,1.0718647
1409349920676,-1.0414777,9.813833,1.5370775,-1.3837649,9.648575,1.0773247
1409349920679,-0.91817635,10.229227,1.3892355,-1.3803996,9.647299,1.092946
1409349920705,-1.1827357,11.370064,1.1109096,-1.3646643,9.648419,1.1027637
1409349920705,-1.471237,12.545617,0.95349085,-1.3367983,9.653212,1.094927
1409349920721,-1.5879543,12.482769,0.9648633,-1.3027903,9.660095,1.0750282
1409349920721,-1.5831659,11.629835,1.1306617,-1.2707449,9.666134,1.0589865
1409349920736,-1.4975731,10.576386,1.0648212,-1.2469499,9.669577,1.0558382
1409349920739,-1.0594343,9.519346,0.97862995,-1.2313902,9.671479,1.05668
1409349920754,-0.8583213,9.293094,1.0319009,-1.2153757,9.673821,1.0537878
1409349920772,-1.0414777,10.030508,1.2258313,-1.1968067,9.6768265,1.0474142
1409349920788,-1.0690111,10.230424,1.3365631,-1.1785785,9.679832,1.040294
1409349920789,-0.91219085,9.644443,1.2042835,-1.1595566,9.682719,1.0347797
1409349920803,-0.7110779,9.042301,0.9367314,-1.1380371,9.685787,1.0299544
1409349920804,-0.6398504,8.734048,0.682946,-1.1134217,9.689201,1.02473
1409349920819,-0.80804306,8.643068,0.5021838,-1.0919378,9.692289,1.0186393
1409349920820,-0.89782566,9.123704,0.52492875,-1.0841087,9.693855,1.0120692
1409349920834,-1.1115081,9.639654,0.7954735,-1.0961301,9.692945,1.0078268
1409349920841,-1.1845313,10.123283,1.1168951,-1.1260792,9.689101,1.011756
1409349920856,-1.3341689,10.406398,1.4425066,-1.1631948,9.683306,1.0251567
1409349920859,-1.4850036,9.977836,1.4047978,-1.2027487,9.676449,1.0440981
1409349920871,-1.4443022,9.482236,1.2294226,-1.2452081,9.669516,1.058444
1409349920886,-1.2779051,8.905233,0.93254155,-1.287473,9.663103,1.0664293
1409349920912,-1.2479776,8.855554,0.7697359,-1.3267488,9.658605,1.0590063
1409349920913,-1.1264719,8.696339,0.7224504,-1.3592243,9.656341,1.0382622
1409349920914,-1.1857284,8.963891,0.85173726,-1.3839383,9.655396,1.0141181
1409349920920,-1.1474211,9.592369,0.9672575,-1.403559,9.654389,0.99660164
1409349920947,-1.0121487,9.614515,0.9588778,-1.417764,9.653191,0.98805183
1409349920948,-1.0660183,11.075577,1.0031705,-1.4269103,9.652096,0.9855951
1409349920957,-1.4036007,11.818976,1.1168951,-1.4320124,9.651303,0.9859423
1409349921012,-1.6627731,11.092337,1.1947067,-1.4397154,9.649863,0.98881173
1409349921013,-1.6693572,10.374675,1.2120646,-1.4548289,9.646935,0.9952479
1409349921013,-1.5095441,9.619304,1.1528081,-1.475028,9.643171,1.0019752
1409349921053,-1.3940239,8.905831,1.0324994,-1.4944246,9.639744,1.0062053
1409349921054,-1.2737153,8.168418,0.8714894,-1.5065869,9.638184,1.0030004
1409349921055,-1.2078748,7.6650367,0.85413146,-1.508203,9.639179,0.9909324
1409349921058,-1.1935096,7.167641,0.78649527,-1.5009506,9.641982,0.9745459
1409349921063,-1.3383588,6.7360864,0.7074866,-1.488844,9.645364,0.95953596
1409349921064,-1.3150153,6.8324533,0.60333884,-1.4769092,9.648233,0.9490736
1409349921064,-1.3006501,8.404845,1.0869676,-1.465633,9.650374,0.9447814
1409349921119,-1.2653356,8.588001,1.4185646,-1.4530935,9.651643,0.95116794
1409349921120,-1.0336965,8.670602,1.4305356,-1.4405143,9.651957,0.9669962
1409349921121,-0.89184016,9.090784,1.3569138,-1.4244674,9.652949,0.98075527
1409349921121,-0.88166475,9.229049,1.258153,-1.4031734,9.655735,0.98401046
1409349921124,-0.9259575,9.172785,1.2138603,-1.3807665,9.659187,0.98181736
1409349921124,-0.98581254,9.200917,1.2174516,-1.3601681,9.662956,0.97346455
1409349921128,-1.0941502,9.292496,1.1887212,-1.3431858,9.666395,0.9628438
1409349921152,-1.1719618,9.539098,1.0151415,-1.329233,9.669494,0.95101595
1409349921152,-1.2006922,9.553463,0.86729956,-1.3165439,9.672781,0.9351146
1409349921153,-1.2210429,9.685743,0.96306765,-1.3051469,9.676341,0.91399354
1409349921176,-1.3814543,9.630676,0.78170687,-1.2955048,9.679871,0.89004153
1409349921177,-1.3623008,9.68275,0.70509243,-1.2892063,9.68314,0.86320263
1409349921180,-1.5263035,9.503185,0.7110779,-1.2852753,9.686006,0.83652157
1409349921212,-1.5562311,9.531916,0.7661445,-1.2866307,9.687737,0.81407064
1409349921212,-1.6112977,9.7007065,0.82480246,-1.292653,9.688264,0.79811674
1409349921213,-1.5693992,10.000581,0.78769237,-1.3004223,9.688254,0.7855045
1409349921220,-1.7866731,9.998186,0.682946,-1.3074641,9.688089,0.7757944
1409349921244,-1.7136499,9.990405,0.6961141,-1.3138282,9.688062,0.76531625
1409349921244,-1.8171991,10.1065235,0.60094464,-1.3148671,9.688838,0.7536147
1409349921254,-1.6370354,10.281899,0.43873745,-1.3116271,9.690338,0.7398627
1409349921281,-1.6208745,10.344747,0.34117374,-1.3023102,9.692934,0.7220827
1409349921282,-1.5783775,10.333375,0.24480712,-1.2890044,9.696279,0.7007512
1409349921283,-1.4478935,10.334572,0.34596214,-1.2731489,9.70001,0.6777151
1409349921320,-1.38325,10.214862,0.52253455,-1.2558079,9.703544,0.65924895
1409349921321,-1.2719196,10.185533,0.670975,-1.2392905,9.706387,0.6485586
1409349921323,-1.3682863,9.884461,0.8242039,-1.2228901,9.708901,0.6420231
1409349921324,-1.2186487,9.644443,0.91697925,-1.2095735,9.710626,0.641172
1409349921343,-1.174356,9.6528225,0.84455466,-1.1970607,9.712018,0.643558
1409349921343,-1.13964,9.683948,0.75477207,-1.1841017,9.713532,0.6446441
1409349921351,-1.1318588,9.903017,0.6853402,-1.1703324,9.71536,0.64227384
1409349921370,-1.1480197,9.91439,0.9056068,-1.1571399,9.717202,0.6382979
1409349921392,-1.2150574,9.856929,0.7978677,-1.145972,9.718527,0.6382675
1409349921393,-1.0528502,10.011354,0.6781576,-1.1384168,9.719294,0.64009124
1409349921394,-1.0307038,10.027515,0.80684596,-1.1316392,9.720029,0.6409382
1409349921400,-0.95349085,9.873688,0.8738836,-1.1247423,9.720717,0.64263624
1409349921424,-0.8822633,9.843162,0.94930094,-1.1168784,9.721232,0.6485703
1409349921425,-0.88286185,9.7719345,0.97264445,-1.1083441,9.721657,0.6568021
1409349921434,-0.88765025,9.737218,0.9708488,-1.0994765,9.722012,0.6663573
1409349921454,-0.9044097,9.637859,0.9995792,-1.0907325,9.722358,0.67561615
1409349921455,-0.9947908,9.416395,1.002572,-1.0834868,9.722582,0.6839888
1409349921475,-1.0241197,9.293693,1.0049661,-1.079371,9.722516,0.69139355
1409349921476,-1.0791864,9.277532,0.9540894,-1.0781692,9.722308,0.69617724
1409349921480,-1.0570401,9.264962,0.88765025,-1.0800297,9.722003,0.6975661
1409349921503,-0.95827925,9.3421755,0.84455466,-1.0838482,9.721717,0.6956214
1409349921504,-0.9175778,9.43914,0.86849666,-1.088051,9.72158,0.6909616
1409349921515,-0.7380127,9.522339,0.92057055,-1.0922511,9.721586,0.6842022
1409349921520,-0.6536171,9.557653,0.8924387,-1.0947964,9.721853,0.67629534
1409349921533,-0.66858083,9.511565,0.8690952,-1.0959761,9.722292,0.66803485
1409349921549,-0.6332663,9.510966,0.8391677,-1.0962596,9.72291,0.65847737
1409349921567,-0.62009823,9.542689,0.8487445,-1.0952054,9.723707,0.64841366
1409349921568,-0.61112,9.563639,0.8265981,-1.0923069,9.724598,0.6398989
1409349921587,-0.5398925,9.574412,0.8194155,-1.087133,9.725625,0.63305825
1409349921588,-0.44771573,9.58818,0.90141696,-1.0789793,9.726909,0.627261
1409349921602,-0.36750996,9.640852,0.92416185,-1.0676098,9.728421,0.62324065
1409349921603,-0.320823,9.672575,0.9528923,-1.0536596,9.730117,0.6204963
1409349921617,-0.3477578,9.69951,0.91458505,-1.0377362,9.731984,0.61804074
1409349921620,-0.3788824,9.710283,0.96546185,-1.0213217,9.733942,0.614571
1409349921635,-0.25378537,9.787497,1.055843,-1.0054014,9.735813,0.61113346
1409349921651,-0.24899697,9.829395,0.9888053,-0.9885662,9.737748,0.6077537
1409349921652,-0.47165772,9.7402115,0.8774749,-0.972989,9.739594,0.60335344
1409349921668,-0.44532153,9.838972,0.7284359,-0.9619259,9.7411375,0.596127
1409349921682,-0.5255273,9.818023,0.50996494,-0.952399,9.742726,0.5853227
1409349921683,-0.66020113,9.758167,0.42676646,-0.9441892,9.744389,0.5707909
1409349921698,-0.80924016,9.674371,0.52373165,-0.9381623,9.745899,0.5547037
1409349921700,-0.9127894,9.609129,0.74639237,-0.93445975,9.747082,0.54000294
1409349921723,-1.0708067,9.57561,0.8218097,-0.9323491,9.74788,0.5291104
1409349921723,-1.0666169,9.570223,0.7613561,-0.9318129,9.748429,0.51983285
1409349921734,-1.0935516,9.569026,0.6961141,-0.9313721,9.749013,0.50959206
1409349921762,-1.0977415,9.526528,0.56922144,-0.9312613,9.7496,0.49842066
1409349921763,-1.1174936,9.475652,0.41479546,-0.9315077,9.7502575,0.48492345
1409349921764,-1.033098,9.485229,0.29448682,-0.9325671,9.750981,0.46807286
1409349921792,-0.8900445,9.513959,0.12330139,-0.9343493,9.751758,0.4479051
1409349921792,-0.7146692,9.623494,-0.12270284,-0.93697107,9.752586,0.42372283
1409349921794,-0.53211135,9.801263,-0.38965634,-0.94004565,9.753502,0.39486033
1409349921800,-0.33518824,9.982025,-0.60453594,-0.9439073,9.754471,0.36019817
1409349921818,-0.30585927,10.119692,-0.6979098,-0.9482943,9.755426,0.3206085
1409349921820,-0.29747957,10.235811,-0.6314707,-0.9547915,9.756079,0.27875498
1409349921834,-0.35793316,10.294469,-0.52971715,-0.9638791,9.756273,0.2376403
1409349921852,-0.40043023,10.308235,-0.40162733,-0.9756629,9.755971,0.19879006
1409349921867,-0.46327803,10.257359,-0.260968,-0.98852545,9.755342,0.16283378
1409349921868,-0.545878,10.1226845,-0.19093758,-1.003245,9.754305,0.13203122
1409349921886,-0.7128736,9.986216,-0.062249243,-1.0190182,9.752975,0.10700959
1409349921887,-0.82779527,9.935339,0.0700304,-1.0364342,9.751335,0.087533325
1409349921911,-0.87807345,9.935339,0.11372458,-1.0541252,9.749566,0.071972184
1409349921912,-0.81761986,9.996989,-0.049679685,-1.071256,9.7477865,0.059061848
1409349921914,-0.80086046,9.99639,-0.090381116,-1.0870895,9.746102,0.04600655
1409349921933,-0.66139823,9.898827,-0.10055647,-1.1025374,9.744426,0.03177227
1409349921934,-0.5805939,9.79827,-0.051475335,-1.1169564,9.742822,0.015194062
1409349921957,-0.44831428,9.725247,-0.037110128,-1.1319611,9.741101,-0.0027320553
1409349921957,-0.4177882,9.674371,0.020949265,-1.1479021,9.739213,-0.02091127
1409349921960,-0.29029694,9.6528225,0.08678981,-1.1644067,9.7372,-0.038881812
1409349921994,-0.22625206,9.660604,0.08559271,-1.1809821,9.735119,-0.056164373
1409349921995,-0.19871874,9.709685,0.0035913025,-1.1978091,9.732946,-0.07320143
1409349921996,-0.23104046,9.729437,-0.11671733,-1.2145222,9.730731,-0.09054653
1409349922001,-0.25378537,9.80665,-0.1933318,-1.2329758,9.728229,-0.108336456
1409349922024,-0.29388827,9.832987,-0.29747957,-1.2530026,9.725471,-0.1250117
1409349922025,-0.3333926,9.901221,-0.34715924,-1.274822,9.722422,-0.14048867
1409349922036,-0.34596214,9.814431,-0.35793316,-1.2981098,9.719123,-0.15474574
1409349922055,-0.29807812,9.727641,-0.37708676,-1.3228282,9.715592,-0.1666887
1409349922056,-0.2633622,9.7162695,-0.3238158,-1.347519,9.712023,-0.17676234
1409349922061,-0.14963761,9.746197,-0.24959552,-1.3717729,9.708459,-0.18562019
1409349922098,-0.16759412,9.73662,-0.18435353,-1.3944668,9.70512,-0.1910504
1409349922099,-0.22325931,9.722853,-0.16879122,-1.4169127,9.701836,-0.1928022
1409349922099,-0.35913026,9.552865,-0.2124854,-1.4397055,9.698493,-0.19202246
1409349922102,-0.40821138,9.498995,-0.24001873,-1.46464,9.694826,-0.18864626
1409349922122,-0.39863458,9.5492735,-0.24181437,-1.4910628,9.690902,-0.18318975
1409349922122,-0.3537433,9.67856,-0.23104046,-1.518181,9.686825,-0.17602117
1409349922133,-0.3453636,9.846154,-0.24420857,-1.5444499,9.682817,-0.1677005
1409349922154,-0.3573346,9.978435,-0.28431144,-1.5690207,9.679013,-0.15894787
1409349922155,-0.4369418,10.094553,-0.3405752,-1.5916772,9.675449,-0.1504647
1409349922162,-0.5530606,10.104729,-0.2885013,-1.6125997,9.672106,-0.14246903
1409349922193,-0.694917,10.037092,-0.26515785,-1.6331047,9.668799,-0.13301732
1409349922193,-0.8391677,10.036493,-0.24301147,-1.6537093,9.665457,-0.1206839
1409349922194,-1.0426749,10.150817,-0.14305355,-1.6756058,9.661864,-0.10532091
1409349922201,-1.2162545,10.258555,-0.08259996,-1.7000492,9.657774,-0.08737843
1409349922228,-1.3180081,10.430939,-0.12928689,-1.7274759,9.653065,-0.06738953
1409349922229,-1.3299791,10.576386,-0.21068975,-1.757946,9.647689,-0.04623393
1409349922234,-1.3156139,10.675745,-0.25797522,-1.7911308,9.641662,-0.024668578
1409349922254,-1.2743138,10.637438,-0.37708676,-1.8271841,9.634926,-0.002734978
1409349922254,-1.2318168,10.469246,-0.60812724,-1.8659338,9.6274805,0.017915012
1409349922277,-1.2958617,10.397419,-0.75596917,-1.9071565,9.619351,0.035251345
1409349922301,-1.3664906,10.356718,-0.7344214,-1.9507626,9.610538,0.050072484
1409349922301,-1.5795746,10.299257,-0.705691,-1.9957385,9.601213,0.06408172
1409349922316,-1.4933833,10.064027,-0.6871359,-2.0430021,9.591161,0.07852116
1409349922316,-1.2641385,9.952098,-0.6619968,-2.0888786,9.581144,0.09306407
1409349922317,-0.97144735,9.8276,-0.8122329,-2.1298785,9.571971,0.10675474
1409349922335,-0.6733692,9.913192,-0.7954735,-2.1635475,9.56428,0.118482
1409349922335,-0.45489833,9.965864,-0.676362,-2.188994,9.558345,0.1294716
1409349922350,-0.109534726,10.075399,-0.4225766,-2.2086887,9.553672,0.13942191
1409349922367,0.047884032,10.17416,-0.11611878,-2.2222388,9.550417,0.14696985
1409349922368,0.58119243,10.386645,0.12689269,-2.2306998,9.548353,0.1526216
1409349922387,0.66259533,10.633248,0.4189853,-2.2274113,9.549027,0.15841012
1409349922387,0.57161564,11.046846,0.830788,-2.2180064,9.551067,0.16718905
1409349922404,0.16220717,11.36348,1.3323733,-2.1985104,9.555362,0.17900574
1409349922405,0.5614403,11.663952,2.03148,-2.1721377,9.561071,0.195325
1409349922423,0.4201824,11.193492,2.473809,-2.130409,9.569961,0.21820495
1409349922440,0.57281274,10.86369,2.7515364,-2.0820553,9.580058,0.24072248
1409349922441,0.4985925,10.380061,2.4139538,-2.0252295,9.591763,0.25867724
1409349922458,-0.27952304,9.789292,1.673547,-1.9621562,9.604679,0.26548868
1409349922474,-1.2551602,9.233239,0.7098808,-1.9010081,9.617233,0.25575522
1409349922475,-2.259528,8.81605,-0.12629414,-1.8455164,9.6287985,0.22517946
1409349922492,-3.4087446,8.359954,-1.6867151,-1.7942259,9.639532,0.17480887
1409349922502,-4.040814,9.346365,-2.3211784,-1.7467725,9.649294,0.101440854
1409349922503,-3.7457285,10.565612,-2.4307132,-1.7012513,9.657943,0.016619127
1409349922503,-3.4614172,11.822568,-1.6711528,-1.6413103,9.668077,-0.06914368
1409349922517,-2.7880478,12.855067,-1.1408371,-1.5643847,9.68016,-0.13265549
1409349922530,-2.1577742,13.264476,-1.0702082,-1.4679486,9.694781,-0.16351415
1409349922532,-2.5611973,12.978968,-0.6817489,-1.3556563,9.710985,-0.17136545
1409349922548,-3.352481,12.260108,0.05746084,-1.2429492,9.726123,-0.16737317
1409349922563,-3.6074634,11.294646,1.1043255,-1.1426862,9.738656,-0.1525345
1409349922563,-3.8606503,10.280104,2.0111294,-1.0546936,9.749077,-0.11627544
1409349922580,-4.160524,9.48044,2.541445,-0.9773521,9.757663,-0.056546647
1409349922581,-4.5178585,9.254189,2.5755625,-0.9067584,9.764625,0.017522212
1409349922596,-4.38917,9.502586,2.355296,-0.83998305,9.770182,0.091580555
1409349922601,-3.5757403,9.709086,1.9003977,-0.7695149,9.775164,0.15616614
1409349922613,-2.5450363,9.880272,1.2737153,-0.6798239,9.780972,0.20204058
1409349922629,-1.3251907,10.597934,0.44232875,-0.56772053,9.787588,0.22629648
1409349922633,-0.41718966,10.751761,-0.4770447,-0.43909088,9.7941675,0.22772272
1409349922655,0.42197806,10.442909,-1.0767922,-0.3036095,9.799769,0.20676292
1409349922656,1.0163386,10.069414,-1.4269443,-0.16893938,9.803661,0.17350598
1409349922662,1.3335704,9.415796,-1.5352819,-0.039909184,9.8055525,0.14125732
1409349922706,1.3012487,8.158242,-0.62728083,0.26448727,9.801775,0.16019525
1409349922708,0.89423436,7.373543,0.005985504,0.26448727,9.801775,0.16019525
1409349922709,0.47465047,6.5032506,0.350152,0.26448727,9.801775,0.16019525
1409349922711,0.2717419,6.015432,0.7745243,0.34095418,9.798615,0.2031389
1409349922713,0.11252748,5.5707088,1.0672154,0.40551755,9.794779,0.2613111
1409349922742,0.002992752,5.2648497,1.2761095,0.46346858,9.790206,0.32781097
1409349922743,0.019153614,5.273229,1.4323312,0.5200902,9.784819,0.3965385
1409349922743,0.06344634,5.2810106,1.5394717,0.5767465,9.778824,0.46082947
1409349922772,0.18734628,5.465364,1.5263035,0.6329828,9.772624,0.5153385
1409349922773,0.45729253,5.905897,1.3892355,0.68812674,9.766666,0.55598027
1409349922774,0.80804306,6.3883286,1.2910733,0.7404156,9.761405,0.58065355
1409349922782,1.0450691,6.7085533,1.276708,0.78744626,9.757204,0.5893173
1409349922815,1.3227965,7.1125746,1.2491747,0.82520646,9.754262,0.58636194
1409349922816,1.6693572,7.5842323,1.2078748,0.85181564,9.752411,0.5790502
1409349922816,2.1362264,8.1756,1.0079589,0.8742316,9.75087,0.5715619
1409349922840,2.4594438,8.775348,0.84216046,0.887875,9.750043,0.5645628
1409349922841,2.8694508,9.371504,0.729633,0.89268476,9.749825,0.560757
1409349922841,3.020884,9.846154,1.0570401,0.8913585,9.74994,0.56085753
1409349922866,3.152565,10.221446,1.4293385,0.88414454,9.750278,0.56634444
1409349922866,2.9472623,11.113286,1.9440918,0.8715802,9.750857,0.57578915
1409349922881,1.7310078,11.529877,2.3870192,0.8523073,9.751696,0.59024966
1409349922882,-0.36032736,12.2080345,2.9005754,0.8174602,9.753562,0.60844404
1409349922898,-1.4562732,13.727754,2.4492683,0.75924903,9.7567,0.6330787
1409349922915,-1.1647792,13.702016,1.1192893,0.69134647,9.760259,0.6556015
1409349922916,0.23882163,12.240356,-0.39384618,0.64987993,9.76269,0.6617858
1409349922931,2.0536265,10.7769,-1.0432734,0.6423063,9.764105,0.64815474
1409349922946,3.4757824,10.101735,-0.4950012,0.6859281,9.762706,0.6240964
1409349922946,4.498705,10.051457,0.91937345,0.7703555,9.757479,0.60710025
1409349922961,4.6501384,11.083358,3.4075475,0.8900132,9.7473345,0.60641634
1409349922962,3.8845923,14.228142,5.746084,1.0357612,9.731356,0.63111824
1409349922980,2.9083564,18.120516,5.2444987,1.1856738,9.709922,0.6942472
1409349922981,1.4287399,18.055872,2.0500352,1.3107921,9.687516,0.77733
1409349922994,-0.13108255,15.698781,-0.020350715,1.3936952,9.671664,0.8288158
1409349923016,-1.3102269,13.227964,-0.92296475,1.439716,9.663743,0.8424241
1409349923016,-2.203264,11.162966,-0.87089086,1.4591968,9.661333,0.83652276
1409349923029,-1.922544,10.858303,-0.30585927,1.4649394,9.660194,0.83964527
1409349923046,-2.0602105,10.844537,0.61291564,1.447601,9.661427,0.8553911
1409349923046,-2.0895395,10.19092,1.0755951,1.40505,9.66573,0.8774194
1409349923062,-2.071583,8.504803,1.364695,1.3492869,9.671586,0.900117
1409349923063,-2.0572178,8.639477,1.049259,1.2960132,9.677215,0.91773856
1409349923078,-2.0763714,8.835203,0.4261679,1.2475214,9.683499,0.91866094
1409349923081,-1.8171991,8.92738,-0.362123,1.2025207,9.690868,0.9007827
1409349923094,-1.0833763,9.3583355,-0.79367787,1.1556969,9.699867,0.8644991
1409349923111,-0.41479546,10.015544,-0.7703344,1.1041622,9.710016,0.8165847
1409349923117,-0.0712275,10.585963,-0.27712885,1.046427,9.720358,0.76815003
1409349923128,-0.17417817,10.728417,0.18435353,0.98018104,9.730047,0.7320067
1409349923134,-0.36990416,10.203489,0.15143326,0.9076991,9.738892,0.70745796
1409349923150,-0.985214,9.643845,-0.2681506,0.8255821,9.747342,0.69146955
1409349923168,-1.5005659,9.674969,-0.50038815,0.7321827,9.75649,0.66723406
1409349923169,-1.8884265,9.689334,-0.4201824,0.6272284,9.766391,0.6281617
1409349923176,-2.2218192,9.184756,-0.36152446,0.51268256,9.775714,0.5856436
1409349923182,-2.4247277,8.727464,-0.5710171,0.39370364,9.783149,0.55263036
1409349923198,-2.416348,8.377312,-0.86011696,0.27650186,9.788394,0.5303759
1409349923214,-2.4355016,8.286332,-0.9828198,0.1680157,9.791815,0.5123954
1409349923215,-2.1272483,8.480861,-0.66379243,0.07307722,9.793837,0.49579382
1409349923229,-1.839944,8.658031,-0.17956513,-0.0042315,9.794548,0.4870634
1409349923247,-1.8590976,8.602366,0.20410569,-0.06872984,9.794029,0.49262396
1409349923248,-2.219425,8.02716,-0.02813187,-0.13158283,9.792665,0.5067752
1409349923266,-2.3660698,8.180987,-0.25617957,-0.2015837,9.790532,0.52462125
1409349923268,-2.585738,8.255207,-0.5129577,-0.28482428,9.787986,0.5334826
1409349923278,-2.8760347,8.14687,-0.789488,-0.38422063,9.784956,0.52671266
1409349923282,-2.6030958,8.248025,-1.1456255,-0.50261366,9.780642,0.50680035
1409349923304,-1.8357542,8.74961,-1.3802572,-0.634452,9.774333,0.47985741
1409349923305,-0.6584055,9.317036,-1.2773066,-0.76413363,9.766332,0.45306408
1409349923313,0.21787235,9.582792,-0.81522566,-0.8684513,9.758359,0.43662733
1409349923336,0.62249243,9.472659,-0.35913026,-0.9433504,9.751044,0.44456747
1409349923337,0.86131406,9.273342,0.046686932,-0.99948823,9.743619,0.48301265
1409349923342,0.7469909,9.03452,0.43035775,-1.0487297,9.735554,0.53813076
1409349923375,0.62488663,8.790312,0.86011696,-1.0931975,9.726063,0.6156506
1409349923375,0.48722005,8.337808,1.0708067,-1.1359053,9.714847,0.7084423
1409349923376,0.50517654,8.048708,1.0648212,-1.180001,9.702017,0.8055168
1409349923382,0.7236475,8.091804,0.97982705,-1.22611,9.688299,0.8966075
1409349923408,1.0408791,8.369531,0.9983821,-1.2695477,9.675328,0.97296476
1409349923409,1.246182,8.788516,1.0384849,-1.3052076,9.664264,1.0338398
1409349923417,1.2479776,9.112331,1.0079589,-1.3330443,9.655089,1.0828929
1409349923437,1.0241197,9.403826,1.1318588,-1.3575407,9.646758,1.1258429
1409349923438,0.760159,9.565434,2.0709844,-1.3819866,9.638297,1.16778
1409349923442,0.5979519,9.428367,1.7477672,-1.408007,9.628399,1.2173101
1409349923464,0.21547815,9.345168,1.4502877,-1.4362023,9.618444,1.2622318
1409349923465,0.7350199,9.460688,0.7942764,-1.4680218,9.609204,1.295567
1409349923479,1.0319009,9.461885,0.26276365,-1.4959496,9.602991,1.3096149
1409349923482,1.2204443,9.865308,0.027533319,-1.5207822,9.598921,1.3108575
1409349923496,0.8415619,10.547656,0.5129577,-1.5413936,9.5964365,1.3049551
1409349923518,0.24899697,10.903194,0.99538934,-1.563407,9.593553,1.2999668
1409349923518,-0.44831428,10.851121,1.1917139,-1.5890908,9.58896,1.3026989
1409349923522,-0.78050977,10.815806,1.3617022,-1.6174234,9.582778,1.3132851
1409349923556,-0.76315176,10.897209,1.9853917,-1.6412975,9.577379,1.3230115
1409349923557,-0.5895722,10.788273,2.2882583,-1.6538937,9.575083,1.3239386
1409349923558,-0.50757074,10.380061,1.9333179,-1.6485049,9.577956,1.3097961
1409349923562,-0.14903906,10.258555,1.7262194,-1.6325731,9.584054,1.2849258
1409349923587,-0.45789108,10.243592,1.8920178,-1.5922109,9.596182,1.2444091
1409349923588,-0.6919243,10.020931,1.7741034,-1.5407307,9.611029,1.1935955
1409349923596,-1.352724,9.318831,0.9139865,-1.486202,9.62725,1.1303478
1409349923618,-2.1122844,8.346188,0.2801216,-1.4321018,9.644851,1.0470681
1409349923618,-3.3794158,7.253833,-0.46387658,-1.3753309,9.663841,0.94287705
1409349923622,-4.3718123,6.96174,-2.9215245,-1.3189534,9.683588,0.8117033
1409349923655,-6.2871737,10.157401,-3.352481,-1.2636774,9.703784,0.6403882
1409349923657,-6.9970546,14.094067,-2.9909565,-1.222633,9.719713,0.45023093
1409349923657,-6.5936313,18.352154,-2.0919337,-1.1817209,9.730919,0.28837857
1409349923662,-4.246715,19.608511,-1.797447,-1.1184641,9.741292,0.16334523
1409349923686,-2.7856536,19.474436,-1.5580268,-1.0066012,9.754298,0.1039882
1409349923687,-3.3488896,17.332224,-0.45729253,-0.858577,9.768618,0.085906014
1409349923694,-2.5683799,14.167688,1.2533646,-0.72959054,9.778907,0.10523732
1409349923715,-2.0614076,10.70687,3.164536,-0.6242009,9.785345,0.1667074
1409349923717,-1.9895816,8.689157,4.4633904,-0.5441397,9.788011,0.26293433
1409349923731,-3.8067808,8.142081,4.621408,-0.4829442,9.7876425,0.37311554
1409349923744,-4.720767,8.469488,4.2000284,-0.44768438,9.785018,0.47265202
1409349923745,-3.606865,9.071032,3.763685,-0.41491073,9.783136,0.537116
1409349923762,-2.2385786,8.334216,3.0609868,-0.34088352,9.784829,0.5579466
1409349923762,-1.192911,7.951742,2.3307555,-0.21697928,9.7894,0.539381
1409349923778,0.3321955,9.189545,1.6424223,-0.07502952,9.793484,0.50245094
1409349923797,1.7106571,9.897031,0.6356605,0.08585509,9.796088,0.44686174
1409349923798,2.0428526,9.8276,-0.20949265,0.25316104,9.79598,0.38090312
1409349923815,1.7465701,8.919,-1.146224,0.40671617,9.793116,0.31601593
1409349923815,1.6496049,7.9708962,-1.3862427,0.5325578,9.788587,0.26528233
1409349923832,1.364695,6.123171,-0.34715924,0.63707113,9.782937,0.24222763
1409349923836,1.0720038,5.379771,0.3333926,0.7266811,9.776276,0.2583838
1409349923842,1.3084313,5.0822916,0.8158242,0.8027729,9.769082,0.3016209
1409349923864,1.4191631,5.0242324,1.1210849,0.8689174,9.761509,0.35825348
1409349923864,1.3964181,5.119402,1.395221,0.93375057,9.753011,0.4210773
1409349923880,1.3024458,5.257667,1.5478514,0.99544626,9.744025,0.48319036
1409349923904,1.1228806,5.471948,1.5275006,1.0524455,9.734896,0.5427397
1409349923905,0.9259575,5.6245785,1.4209588,1.0973815,9.727171,0.59015024
1409349923906,0.9888053,5.953781,1.2665327,1.129299,9.721472,0.62295306
1409349923914,0.96306765,6.475717,1.0384849,1.1502635,9.7179,0.6400661
1409349923937,1.0636241,7.01142,0.7062895,1.1613243,9.71663,0.63938105
1409349923937,1.204882,7.401076,0.41718966,1.1632138,9.717555,0.62166244
1409349923942,1.5502456,7.7877398,0.3417723,1.1561065,9.720212,0.59271395
1409349923966,2.3660698,8.363545,0.32680854,1.1407812,9.723847,0.5619553
1409349923967,2.160767,8.580819,0.9828198,1.1189959,9.727783,0.5371008
1409349923974,2.5234885,9.304466,1.0372878,1.0797902,9.732683,0.5285054
1409349924012,2.5181017,10.134057,1.1019313,1.0296719,9.738304,0.524993
1409349924013,2.1841104,10.8595,1.3916297,0.97564316,9.743764,0.52686113
1409349924014,1.7675194,10.979809,1.6765398,0.912515,9.749592,0.53215516
1409349924035,-0.018555064,12.239159,2.5157075,0.84161764,9.755481,0.54100424
1409349924035,-1.3922282,14.420277,2.8999767,0.75038,9.761848,0.5600287
1409349924036,-1.3868413,15.493478,2.2026656,0.64222836,9.768046,0.5858587
1409349924042,-0.6655881,13.924079,0.39145198,0.5501154,9.772623,0.6029992
1409349924064,0.8936358,11.442489,-1.6765398,0.51261604,9.775061,0.5964935
1409349924064,3.2824504,10.040085,-2.3660698,0.53679764,9.775194,0.5725427
1409349924078,4.8458643,9.343372,-0.4794389,0.61392194,9.7720175,0.5487901
1409349924099,5.7574563,9.249998,2.2990322,0.7340977,9.764048,0.54303485
1409349924100,5.286996,11.821969,4.4753613,0.8785382,9.751215,0.5588877
1409349924121,2.8078,16.031574,6.835446,1.0421709,9.732983,0.5944225
1409349924122,2.007538,18.32522,4.495114,1.1740994,9.7133875,0.6648194
1409349924123,0.28550854,16.83902,2.3038206,1.2690747,9.697399,0.7212994
1409349924149,-2.2631192,14.361619,0.84934306,1.322681,9.687657,0.7551035
1409349924150,-3.4835634,12.822147,-0.31364042,1.3401252,9.684702,0.762261
1409349924155,-2.9586349,13.523049,-1.1264719,1.3318143,9.685356,0.7684756
1409349924163,-3.3105824,13.72536,-1.6077064,1.3014009,9.688563,0.78005034
1409349924188,-3.8391025,12.475587,-2.2918496,1.2398468,9.696083,0.78684366
1409349924189,-4.2000284,10.271724,-2.5139117,1.1534948,9.706659,0.7877695
1409349924201,-4.2281604,9.1272955,-1.3323733,1.0615044,9.716793,0.7921581
1409349924235,-3.1860838,8.775947,0.6703765,0.9761199,9.724568,0.80646837
1409349924237,-1.7645266,8.389881,1.0253168,0.9035143,9.729129,0.835525
1409349924237,-0.38845924,8.142081,1.1139023,0.845958,9.73214,0.86034256
1409349924238,0.5189432,8.272566,0.93014735,0.7964221,9.734945,0.8757541
1409349924242,0.80205756,8.564658,1.146224,0.7479076,9.738341,0.8807664
1409349924267,0.7266402,8.803479,1.5161282,0.69584376,9.742219,0.8805507
1409349924268,0.39923313,8.975264,1.4502877,0.6347387,9.746558,0.878703
1409349924274,0.034117375,9.153033,0.81761986,0.56095773,9.751985,0.8686235
1409349924301,-0.80445176,9.260174,-0.10175357,0.47397667,9.759456,0.8359353
1409349924303,-1.6525977,9.19134,-0.7170634,0.37039497,9.768973,0.77482176
1409349924303,-2.3349452,9.015965,-0.9935937,0.2509641,9.778265,0.70209265
1409349924330,-2.878429,8.5473,-1.4053963,0.12359533,9.785954,0.6246856
1409349924331,-2.677316,7.7967176,-1.7022774,-0.0074360683,9.79103,0.5532593
1409349924349,-2.2212207,7.3849154,-1.8495208,-0.1267334,9.793505,0.4915385
1409349924349,-2.0350714,7.668628,-1.4556746,-0.22432475,9.794241,0.43922496
1409349924354,-1.7794905,8.337209,-0.62009823,-0.29555735,9.793842,0.4045634
1409349924362,-1.7381904,8.946533,0.15861586,-0.34295273,9.792551,0.3984078
1409349924378,-1.6992847,9.159617,0.4758476,-0.37931255,9.790216,0.42210606
1409349924406,-1.3533225,9.064447,0.3513491,-0.41820145,9.786785,0.46295303
1409349924407,-1.2162545,8.613739,-0.14604631,-0.4679266,9.782765,0.4989175
1409349924408,-0.7344214,8.237251,-0.25498247,-0.53800154,9.778359,0.5144301
1409349924442,-0.30466217,7.992444,-0.65062433,-0.6159494,9.773457,0.520131
1409349924444,-0.12689269,8.37013,-0.7589619,-0.70914024,9.767713,0.5092273
1409349924446,-5.985504E-4,9.105747,-0.91817635,-0.81236106,9.760698,0.48912674
1409349924447,0.7763199,9.552865,-0.7338228,-0.9174455,9.752676,0.46261284
1409349924479,0.9008184,9.258378,-0.24480712,-1.006999,9.74498,0.4378262
1409349924483,0.88046765,8.956709,0.39444473,-1.0808623,9.737421,0.42984045
1409349924484,0.84814596,8.8088665,0.84335756,-1.1417284,9.729426,0.45290685
1409349924502,0.80445176,8.726865,1.0588357,-1.1949266,9.720474,0.5049305
1409349924503,0.6955156,8.612542,1.1007342,-1.239979,9.711086,0.57240415
1409349924504,0.61291564,8.510789,0.81343,-1.277742,9.701706,0.6439462
1409349924536,0.6266823,8.722076,0.35194764,-1.3107743,9.692676,0.7101199
1409349924536,0.7009025,9.281123,0.051475335,-1.3417119,9.683997,0.76838267
1409349924537,0.931943,9.892242,0.08200141,-1.3664213,9.676631,0.81613404
1409349924543,0.97264445,10.317812,0.4249708,-1.3835397,9.670434,0.85960317
1409349924565,0.8242039,10.545261,0.830788,-1.396957,9.664013,0.9086972
1409349924565,0.5422867,10.141838,1.5819688,-1.413697,9.655873,0.96744746
1409349924575,0.24241292,9.671976,2.0003555,-1.4396392,9.644864,1.0365467
1409349924601,0.1592144,9.416395,1.5233108,-1.4759029,9.631524,1.1071768
1409349924602,0.5105635,9.54209,0.93852705,-1.5185821,9.618425,1.161984
1409349924604,1.3958195,9.891046,0.4441244,-1.5602849,9.607703,1.1949738
1409349924651,1.4137762,10.195708,0.44891283,-1.591649,9.600979,1.2075772
1409349924653,0.94810385,10.458471,0.36511576,-1.6167724,9.596574,1.2092221
1409349924656,0.3196259,10.486604,0.39264908,-1.6427442,9.59253,1.2062861
1409349924657,0.06404489,10.484808,0.29029694,-1.6675383,9.588747,1.202351
1409349924659,0.06404489,10.606314,0.28670564,-1.6860288,9.586626,1.1934417
1409349924690,0.18435353,10.790069,0.49081135,-1.6954536,9.587391,1.1737837
1409349924691,0.3537433,10.822391,0.8265981,-1.6954931,9.591545,1.1392817
1409349924691,0.3842694,10.390836,0.87807345,-1.6838889,9.599064,1.0922014
1409349924695,0.10115502,10.034698,0.7769185,-1.6572193,9.609585,1.0391765
1409349924714,-0.8487445,9.850943,1.0989386,-1.616671,9.622324,0.9837012
1409349924715,-1.151611,9.392453,1.4335283,-1.5754944,9.634819,0.9265467
1409349924723,-2.7168205,8.183381,1.5903485,-1.5307356,9.647871,0.8636112
1409349924756,-3.8151605,7.1502833,1.2533646,-1.4932947,9.659495,0.79663265
1409349924757,-4.8500543,6.3703723,0.41180268,-1.4470028,9.672684,0.7181623
1409349924757,-5.6826377,6.782175,-0.7278373,-1.3914317,9.687438,0.62279874
1409349924784,-6.281787,8.696339,-1.228824,-1.3284568,9.702815,0.5108423
1409349924785,-6.7947445,16.203957,0.16759412,-1.2612131,9.716968,0.40036127
1409349924786,-4.734534,18.85374,-0.055066638,-1.2009137,9.727321,0.32775137
1409349924796,-2.0201077,19.564219,-1.4119805,-1.0987017,9.740603,0.28961483
1409349924811,-2.6120741,18.643648,-1.905186,-0.9448417,9.757953,0.2450538
1409349924829,-2.5767596,16.751032,-1.1917139,-0.80684656,9.771557,0.18996961
1409349924829,-2.6647465,13.813945,1.1623849,-0.69949234,9.780412,0.15699089
1409349924846,-3.406949,11.647193,3.0029275,-0.62678045,9.784941,0.1803326
1409349924846,-3.719991,9.858724,3.6649241,-0.5735329,9.7870455,0.23490708
1409349924855,-4.049194,8.881291,3.5128925,-0.5402061,9.78694,0.30725217
1409349924877,-3.8983588,9.106945,3.359065,-0.50938064,9.78653,0.3670932
1409349924878,-2.813187,8.7125,2.835932,-0.4595799,9.787648,0.40142158
1409349924914,-1.4191631,8.746018,2.3211784,-0.37232307,9.791149,0.40639585
1409349924915,0.11611878,9.2787285,1.7597382,-0.25117636,9.79574,0.38829964
1409349924917,0.9068039,9.148245,1.1611878,-0.108750954,9.799686,0.3531623
1409349924918,0.9708488,8.534731,0.31004912,0.03315759,9.801718,0.3092875
1409349924924,1.0432734,7.9206176,-0.25917232,0.15884084,9.801737,0.26668927
1409349924980,1.5095441,7.6524673,-0.5189432,0.2684064,9.800064,0.23896892
1409349924986,1.5346833,7.2191167,-0.4818331,0.3720753,9.797057,0.22275136
1409349924986,1.5197195,6.9126587,-0.23882163,0.47175243,9.79249,0.23448038
1409349924987,1.1109096,5.723339,0.39384618,0.5634428,9.786696,0.27111354
1409349924987,1.3431472,5.6030307,0.6769605,0.6438402,9.780086,0.32528
1409349924988,1.3090298,5.430648,0.8936358,0.7178896,9.772604,0.38889995
1409349924995,1.204882,5.368997,1.0528502,0.7869513,9.764312,0.45748016
1409349925013,1.0181342,5.3701944,1.0875661,0.84959453,9.755668,0.52492344
1409349925015,0.9415198,5.4354362,1.1845313,0.9004828,9.747754,0.5838105
1409349925023,0.99419224,5.6527104,1.3329718,0.93889374,9.741346,0.6285095
1409349925049,1.0714053,5.949591,1.3503298,0.9663461,9.736894,0.65533906
1409349925050,1.1168951,6.411672,1.2389994,0.9841874,9.734551,0.66353345
1409349925055,1.2773066,7.1766195,1.1168951,0.9975239,9.73328,0.6623007
1409349925098,1.5753847,8.062474,1.0378864,1.0001103,9.734088,0.6463129
1409349925104,1.9369092,8.689755,0.91817635,0.9909852,9.736626,0.6216665
1409349925105,2.4971523,9.14226,0.79008657,0.971035,9.740264,0.5956062
1409349925107,2.545635,9.466674,1.103727,0.94304687,9.744332,0.57363987
1409349925108,2.9526494,10.126276,1.1917139,0.9036698,9.748701,0.56269467
1409349925150,3.2782607,10.548853,1.5795746,0.8608156,9.75269,0.560757
1409349925151,3.323152,10.770915,2.1110873,0.8201466,9.755791,0.56770927
1409349925152,2.700061,10.936713,2.629432,0.7824668,9.757999,0.5827537
1409349925152,0.16998832,12.800599,3.843891,0.74022704,9.759828,0.6068068
1409349925156,-0.9768343,14.53879,1.5705963,0.6731033,9.761696,0.65315527
1409349925182,0.40462008,12.720992,-0.22266077,0.5966368,9.765146,0.67554075
1409349925183,2.517503,10.845135,-0.7715315,0.5722014,9.766894,0.67138654
1409349925184,5.0236335,10.076596,0.12868834,0.61090386,9.765562,0.65648353
1409349925219,4.988918,9.873688,2.7694929,0.70564973,9.759034,0.6585598
1409349925220,4.5118732,12.173319,5.474941,0.8273884,9.746649,0.6990531
1409349925221,3.0777464,16.55411,6.2183404,0.9686844,9.727535,0.779163
1409349925224,1.685518,19.157803,3.2016463,1.0983377,9.705625,0.87458855
1409349925251,0.12928689,17.001226,0.36750996,1.1976838,9.688694,0.93013626
1409349925253,-1.3611037,13.412318,0.18375498,1.2639877,9.677981,0.9536334
1409349925257,-1.3503298,10.597335,-1.0887632,1.2978724,9.670984,0.97876495
1409349925282,-0.75118077,10.108918,-0.25977087,1.3140385,9.66599,1.0061598
1409349925283,-1.1629834,10.303447,1.5155296,1.3221017,9.660531,1.0471745
1409349925284,-1.508347,10.682329,1.4329298,1.2991301,9.657677,1.100878
1409349925321,-1.8231846,10.362105,1.4305356,1.2485858,9.660098,1.1375135
1409349925322,-2.166154,9.962274,1.210269,1.1859671,9.666292,1.1518197
1409349925323,-2.5863364,9.779716,0.88525605,1.1211271,9.6741705,1.1506073
1409349925324,-2.7982233,9.615712,0.3238158,1.0563322,9.68283,1.1390122
1409349925348,-2.6539726,9.563639,-0.2765303,0.9914729,9.692647,1.1135259
1409349925349,-0.6895301,9.880272,-0.74758947,0.923486,9.703879,1.073447
1409349925355,0.060453594,10.205285,-0.7541735,0.8615647,9.714984,1.0233347
1409349925380,0.23942018,9.729437,-0.7386112,0.7948199,9.725563,0.97574764
1409349925381,0.23044191,9.203311,-0.46746787,0.7247295,9.734976,0.935629
1409349925384,0.20231004,8.920197,-0.22984336,0.6467666,9.742736,0.9116981
1409349925413,0.020949265,9.027936,-0.073023155,0.5638867,9.749229,0.89718616
1409349925414,-0.18016368,9.524135,0.095169514,0.4764444,9.755625,0.8781734
1409349925416,-0.58657944,9.720459,0.25139117,0.38262132,9.762466,0.8475106
1409349925424,-1.1839328,9.41041,0.16220717,0.2780627,9.769128,0.8106845
1409349925450,-1.7220296,8.880095,-0.1364695,0.16256434,9.774545,0.7760586
1409349925451,-2.043451,8.246229,-0.6254852,0.039497312,9.778138,0.74621934
1409349925460,-1.8058267,7.7572136,-0.85173726,-0.08121866,9.780021,0.717645
1409349925489,-1.8369513,7.575853,-0.7517793,-0.18643428,9.780551,0.6902619
1409349925489,-1.6484078,7.4872675,-0.36391866,-0.27034217,9.779955,0.67067575
1409349925490,-1.4760253,7.6494746,-0.002992752,-0.34216568,9.778434,0.6599556
1409349925514,-1.7824832,7.9691005,0.1400608,-0.4000302,9.775953,0.6641531
1409349925515,-2.2307975,8.226477,0.037708677,-0.4571449,9.772592,0.6766548
1409349925518,-2.540248,8.061875,-0.18255788,-0.52562785,9.768477,0.68627256
1409349925524,-2.3056161,8.15525,-0.26156655,-0.61160827,9.763633,0.68398124
1409349925542,-2.0009542,8.037335,-0.86011696,-0.70998603,9.758072,0.6680875
1409349925544,-0.5793968,8.488044,-1.2210429,-0.8152828,9.751874,0.637721
1409349925573,0.43275195,9.19134,-1.0690111,-0.9131223,9.745658,0.59896487
1409349925573,1.1749545,9.46009,-0.7206547,-0.9960494,9.739648,0.5635218
1409349925602,1.3198037,9.35235,-0.2705448,-1.0612533,9.733834,0.54459846
1409349925604,1.3533225,9.329007,0.14664486,-1.1177788,9.727071,0.5523329
1409349925605,1.6238673,9.225458,0.45669398,-1.1711186,9.71939,0.57646483
1409349925606,1.6238673,9.267356,0.6434417,-1.2206806,9.710407,0.62313193
1409349925632,1.3383588,9.334992,0.7422025,-1.2676786,9.700443,0.6817489
1409349925633,1.086369,9.430161,0.59256494,-1.314274,9.689639,0.7442887
1409349925639,1.0456676,9.546879,0.41599256,-1.3600852,9.67848,0.8047271
1409349925644,1.0073603,9.650429,0.36511576,-1.4016672,9.667649,0.86155313
1409349925658,1.0390835,9.765948,0.45609543,-1.4358991,9.6577015,0.91508365
1409349925672,1.2300211,9.688137,0.6344634,-1.4626362,9.648461,0.9686621
1409349925675,1.2880806,9.495404,0.9115923,-1.4835029,9.639387,1.0255846
1409349925689,1.22224,9.229648,1.6430209,-1.5024916,9.629788,1.0863276
1409349925708,1.1228806,9.240421,2.1505916,-1.5227752,9.619018,1.1515374
1409349925708,0.59256494,9.209895,2.1984756,-1.5441984,9.6075535,1.2168617
1409349925724,0.20829555,9.362526,1.8896236,-1.5707157,9.595764,1.2745821
1409349925725,0.11611878,9.376292,1.4598645,-1.6013845,9.584627,1.319429
1409349925740,0.93373865,9.615712,0.36631286,-1.6345181,9.574706,1.3504606
1409349925758,0.8343793,10.327988,0.44472298,-1.6620821,9.568391,1.3615373
1409349925758,0.28550854,10.712257,0.4237737,-1.6902634,9.563505,1.3611743
1409349925772,-0.13227965,10.691308,0.50158525,-1.7240245,9.558486,1.3540684
1409349925775,-0.54647654,10.751761,0.23642741,-1.7593349,9.553411,1.3444208
1409349925792,-0.5081693,11.060614,0.25857377,-1.7929908,9.549929,1.3245506
1409349925805,-0.093373865,11.30961,0.66738373,-1.8178909,9.550168,1.2883979
1409349925806,0.3393781,11.401787,1.0324994,-1.8323085,9.552828,1.2476182
1409349925824,0.16101007,11.063007,0.84814596,-1.8301772,9.559889,1.1955653
1409349925825,-0.3878607,10.503363,0.736217,-1.8139763,9.569628,1.1411113
1409349925839,-0.9175778,9.889849,1.2228385,-1.7890065,9.580227,1.0904613
1409349925854,-1.929128,8.871715,1.3006501,-1.7612505,9.590949,1.0402391
1409349925856,-2.903568,7.707534,1.1420342,-1.7363564,9.601937,0.97891635
1409349925872,-4.1198225,6.4858923,0.95109665,-1.707442,9.614697,0.90146196
1409349925877,-4.9308586,5.793968,0.10055647,-1.6703824,9.629457,0.80857384
1409349925918,-5.8334723,6.3524156,-1.0019734,-1.621187,9.646459,0.6985557
1409349925919,-6.361394,8.453327,-1.6017209,-1.5630374,9.664183,0.5752169
1409349925919,-6.9000893,11.899182,-1.3922282,-1.4943155,9.681296,0.45816815
1409349925920,-7.131728,15.76103,-0.62847793,-1.4281222,9.695543,0.3567992
1409349925925,-2.3475149,19.608511,-0.14903906,-1.3526461,9.708118,0.30522916
1409349925955,-2.404377,18.935741,-0.49559975,-1.1850396,9.730398,0.29231006
1409349925957,-1.9476831,16.660053,-0.10115502,-1.017738,9.74958,0.2833727
1409349925958,-1.8968062,13.491326,1.608305,-0.87348425,9.763418,0.2883014
1409349925984,-2.0614076,10.790069,3.1627405,-0.7684157,9.770887,0.33121935
1409349925985,-2.855684,9.394848,3.6104562,-0.69677913,9.7735,0.4044342
1409349925986,-3.977966,8.067862,3.1304188,-0.6518574,9.77307,0.4822557
1409349926008,-4.268263,8.772355,3.0382419,-0.61849993,9.772602,0.5330185
1409349926009,-2.9508536,9.109938,2.6431987,-0.5745477,9.774271,0.551317
1409349926024,-1.6944963,8.168418,1.7914615,-0.48531157,9.779088,0.5516244
1409349926024,-0.17058687,8.370728,1.115698,-0.36707476,9.785798,0.5232669
1409349926040,1.2707225,9.533113,0.6183026,-0.21671148,9.792825,0.47329557
1409349926059,1.7830818,9.540296,0.010773907,-0.05211948,9.797761,0.4141893
1409349926060,1.3227965,8.587403,-0.58538234,0.10601642,9.799484,0.35958093
1409349926093,1.049259,7.5345526,-0.6536171,0.23545282,9.798547,0.3215788
1409349926095,1.5358804,7.0144124,-0.31603462,0.3359255,9.795938,0.31165305
1409349926097,1.6639702,6.1782374,0.029927522,0.42552617,9.791738,0.33345923
1409349926098,1.9111716,5.704784,0.4770447,0.50998306,9.785986,0.38054946
1409349926105,1.7034745,5.273229,0.7158663,0.58935624,9.77892,0.44244626
1409349926134,1.8579005,5.553351,1.210269,0.661839,9.770993,0.5099644
1409349926135,1.5879543,5.5820813,1.3467385,0.73322386,9.761972,0.58021224
1409349926136,1.4119805,5.7784057,1.441908,0.7984019,9.75262,0.64759123
1409349926168,1.2372037,6.06152,1.4012065,0.85322666,9.743867,0.70673084
1409349926169,1.003769,6.151303,1.1833342,0.89352775,9.736808,0.7527
1409349926170,1.062427,6.2512608,0.93852705,0.9195439,9.732156,0.7810072
1409349926194,1.2246342,6.505645,0.7990648,0.93384445,9.730163,0.7888497
1409349926195,1.3257892,6.8683662,0.78290397,0.9373463,9.730718,0.7777584
1409349926196,1.4323312,7.268198,0.8810662,0.9287062,9.7334175,0.75397307
1409349926205,1.690905,7.826047,1.0408791,0.9055749,9.737665,0.72678167
1409349926229,2.0763714,8.445546,1.2324153,0.86810166,9.742775,0.703672
1409349926230,2.6048915,9.32362,1.3479356,0.8187843,9.748031,0.689837
1409349926238,2.8628666,10.111911,1.6867151,0.7684026,9.752707,0.6816689
1409349926257,2.546832,10.4488945,2.2182279,0.71098816,9.756801,0.68538
1409349926257,2.6868927,10.6158905,2.391209,0.64607024,9.760417,0.6980665
1409349926285,2.5151088,10.517728,2.5486276,0.58391523,9.76339,0.7110995
1409349926286,0.4902128,11.459248,3.1711202,0.52754444,9.765749,0.7226526
1409349926287,-1.903989,14.1216,3.9294837,0.45564863,9.767742,0.74431205
1409349926310,-1.845331,14.3975315,2.5875335,0.3606052,9.768418,0.7863585
1409349926312,1.3575124,11.645397,-1.9009962,0.30046406,9.768809,0.8065356
1409349926316,4.484938,10.589554,-2.6779146,0.32680175,9.771023,0.76859426
1409349926324,4.9679685,9.307459,-0.04129998,0.42149925,9.770563,0.7272078
1409349926344,5.620987,9.759963,4.050989,0.5453034,9.764948,0.7203034
1409349926345,4.4795513,13.566744,7.3190746,0.693293,9.752169,0.7648399
1409349926359,2.3852234,18.82501,7.441179,0.85306257,9.731288,0.862977
1409349926382,1.0905589,19.166782,2.5474305,0.9876065,9.709233,0.9621961
1409349926384,-1.2186487,16.108788,0.2825158,1.0888634,9.696613,0.9800433
1409349926386,-2.707842,12.8371105,-0.3800795,1.1446357,9.690764,0.97431207
1409349926413,-1.9470845,11.704654,0.11911154,1.1726801,9.688371,0.9647195
1409349926414,-1.7166426,12.214619,1.0235212,1.1915087,9.683799,0.9872955
1409349926417,-2.4211364,12.637794,0.7032967,1.1845183,9.67917,1.0397049
1409349926425,-2.7365725,11.638813,-0.8050503,1.1367004,9.680446,1.0804087
1409349926445,-2.7629087,10.193314,-1.5837644,1.0639672,9.687635,1.0900012
1409349926446,-2.9999347,9.821015,-1.3305776,0.99172807,9.69574,1.0860393
1409349926457,-3.2208,9.876082,-1.091756,0.91459864,9.7048235,1.0725352
1409349926480,-2.961029,9.648633,-0.7038953,0.8387524,9.713989,1.0513451
1409349926481,-1.8052281,9.175778,0.11432313,0.76600516,9.722396,1.0289012
1409349926485,-0.5859809,8.735844,0.480636,0.6975649,9.7289715,1.0153309
1409349926517,0.1921347,8.783728,0.74758947,0.6314922,9.733976,1.0106009
1409349926518,0.25797522,8.929175,1.2617443,0.56449026,9.737883,1.0126204
1409349926519,0.11791443,8.950723,1.2569559,0.4922068,9.7410555,1.0197849
1409349926563,0.009576807,9.321226,0.91937345,0.4149078,9.744511,1.021161
1409349926564,-0.53689975,9.36492,0.3788824,0.33316946,9.749735,1.0010277
1409349926565,-1.0749966,9.194932,-0.19153613,0.2417527,9.757182,0.9536042
1409349926565,-1.8710686,8.836999,-0.6919243,0.14304186,9.764698,0.8947815
1409349926566,-2.4498668,8.46051,-1.0570401,0.031964727,9.771551,0.82834935
1409349926631,-2.657564,8.429385,-1.3874398,-0.08447788,9.776221,0.76729953
1409349926632,-2.4277205,8.811859,-1.489792,-0.19515505,9.778669,0.71409345
1409349926634,-2.0973208,9.368511,-1.2773066,-0.28612947,9.779677,0.66814536
1409349926636,-2.0751743,9.660006,-0.92296475,-0.35328972,9.7797365,0.6343103
1409349926637,-2.1260512,9.569624,-0.5470751,-0.40405938,9.778657,0.62047935
1409349926638,-1.9470845,9.322423,-0.38726214,-0.45220616,9.776044,0.6283885
1409349926639,-1.4903905,8.801085,-0.46208093,-0.50749904,9.771952,0.6494675
1409349926662,-1.3623008,8.603564,-0.5482722,-0.57454455,9.766916,0.66906303
1409349926663,-1.5316905,8.523956,-0.51834464,-0.6599559,9.760548,0.6830507
1409349926665,-0.98940384,8.305486,-0.6206968,-0.75698155,9.7533245,0.685591
1409349926701,-0.5919664,8.353969,-0.7835025,-0.86507267,9.744656,0.6809885
1409349926702,0.54767364,8.8328085,-0.20350714,-0.9731268,9.7348585,0.6752596
1409349926704,0.85293436,8.811261,0.22625206,-1.0642132,9.725052,0.67912734
1409349926705,1.1228806,8.465299,0.6123171,-1.1382501,9.715268,0.69879884
1409349926732,1.2689269,8.333019,0.83856916,-1.1968402,9.705032,0.7418197
1409349926733,1.2952632,8.215703,0.9008184,-1.2481606,9.693271,0.8080916
1409349926737,1.2683283,8.013393,0.85891986,-1.2977674,9.679586,0.88983697
1409349926754,1.1486182,7.7590094,0.8062474,-1.3489295,9.66408,0.9779268
1409349926757,1.1402385,7.5650787,0.694917,-1.4028429,9.647259,1.0643507
1409349926768,1.1941081,7.5950065,0.6398504,-1.4586903,9.629599,1.1460563
1409349926789,1.3102269,7.8050976,0.7344214,-1.5130197,9.612152,1.2197213
1409349926789,1.2749124,7.9367785,0.82001406,-1.5641956,9.595684,1.2831734
1409349926802,0.9415198,8.176199,0.9091981,-1.6119566,9.580308,1.3377924
1409349926805,0.4297592,8.429385,1.5849615,-1.657937,9.565468,1.3868834
1409349926818,-0.023343466,8.865729,2.100912,-1.703203,9.550115,1.4369471
1409349926839,-0.6631939,9.173983,2.1930888,-1.748521,9.533766,1.490093
1409349926839,-0.6703765,9.663596,1.8866309,-1.7957077,9.516753,1.541832
1409349926852,-0.12150574,9.941922,1.2318168,-1.8381518,9.501716,1.5839789
1409349926857,0.6943185,10.186729,0.53330845,-1.870592,9.491001,1.6100287
1409349926886,1.1563994,10.556634,0.65900403,-1.8930036,9.485348,1.6171278
1409349926888,0.93254155,11.168352,1.5747862,-1.9103605,9.481826,1.6173756
1409349926890,0.31783026,11.171345,1.9405005,-1.9261807,9.478664,1.6171342
1409349926929,-0.004189853,11.324574,1.929128,-1.9453342,9.473951,1.6218256
1409349926931,-0.0700304,11.270106,1.9560628,-1.9647801,9.4687805,1.6285616
1409349926933,-0.16340427,11.179725,1.7932571,-1.9816084,9.46572,1.6259745
1409349926934,-0.21188685,10.873865,1.525705,-1.9953656,9.467108,1.6008681
1409349926943,-0.3172317,10.624868,0.961272,-2.0025313,9.473305,1.554595
1409349926960,-0.9331401,10.289082,0.80924016,-1.9980885,9.483845,1.4948967
1409349926961,-1.661576,9.765948,0.89543146,-1.9874171,9.496395,1.4279578
1409349926965,-2.5019407,8.700529,0.86610246,-1.9782044,9.509724,1.3499106
1409349926988,-3.2501287,7.3202715,0.91458505,-1.9691164,9.523633,1.2622926
1409349926989,-4.326921,6.1836243,0.54527944,-1.9590155,9.53926,1.1554934
1409349927003,-5.006874,6.0824695,-0.61770403,-1.9333794,9.559121,1.0274416
1409349927009,-5.9226565,7.313688,-1.7250223,-1.889194,9.583039,0.87562317
1409349927043,-6.59423,9.901221,-1.9961656,-1.8317511,9.607666,0.71264386
1409349927046,-7.1826053,13.452421,-1.3922282,-1.7652584,9.629741,0.5677637
1409349927047,-7.1754227,17.197552,-0.4345476,-1.6953427,9.647379,0.47359836
1409349927048,-4.127005,19.494188,0.19991584,-1.6141747,9.663013,0.4370476
1409349927089,-1.6927006,19.384056,0.11851298,-1.4679945,9.68654,0.43165073
1409349927090,-0.8583213,15.412075,0.5141548,-1.2817931,9.713094,0.42802668
1409349927091,-0.7344214,12.826337,2.4139538,-1.1210196,9.732202,0.4449527
1409349927092,-1.0965444,10.836157,3.9264908,-0.98047113,9.745054,0.49294543
1409349927119,-2.3864205,9.825804,3.846285,-0.87563545,9.750853,0.56967914
1409349927120,-3.5631707,8.941745,3.217807,-0.8060459,9.752007,0.647358
1409349927121,-3.7672763,8.974067,2.9125464,-0.76060843,9.7520895,0.6990122
1409349927141,-2.5725696,8.7125,2.5133133,-0.7155535,9.754291,0.71568274
1409349927141,-1.5837644,8.1343,2.3038206,-0.63828737,9.760393,0.7055156
1409349927145,-0.5129577,8.098388,1.9087774,-0.5230239,9.768966,0.68128777
1409349927170,1.3335704,9.378687,1.4329298,-0.38437557,9.7776165,0.64874154
1409349927171,2.0895395,9.794679,0.51714754,-0.22964627,9.784832,0.6121523
1409349927190,1.4772224,8.783728,-0.42317516,-0.07830663,9.789552,0.5735218
1409349927191,1.1923125,7.5812397,-0.908001,0.042253554,9.791486,0.5435276
1409349927198,1.2659341,6.7893577,-0.56982,0.14459483,9.791592,0.52365917
1409349927206,1.3575124,5.945401,-0.15562311,0.22700655,9.789538,0.53273034
1409349927224,1.340753,5.605425,0.29029694,0.30291876,9.785496,0.56805885
1409349927226,1.2006922,5.485116,0.6063316,0.37675467,9.779712,0.62104225
1409349927237,1.1474211,5.641338,0.9032126,0.44866407,9.7725,0.6836077
1409349927258,1.1707647,5.7389016,1.2210429,0.5185613,9.764033,0.7517618
1409349927260,1.0319009,5.9250507,1.7501614,0.5822287,9.754848,0.8211837
1409349927266,1.0043676,6.095039,1.7735049,0.6342446,9.745756,0.8879028
1409349927295,0.8583213,6.18542,1.7010803,0.67286974,9.737989,0.94298524
1409349927296,0.78529817,6.3721676,1.4526819,0.6987995,9.732222,0.98282564
1409349927297,0.7457938,6.6067996,1.2862848,0.71246743,9.728937,1.0052778
1409349927306,0.8900445,6.968324,1.2198458,0.7197198,9.727056,1.0182238
1409349927322,1.1312603,7.326257,1.1498153,0.714539,9.727819,1.0145721
1409349927326,1.5783775,7.784148,1.0785879,0.6976165,9.730746,0.99816114
1409349927337,2.2852654,8.658031,0.8762778,0.6701954,9.735099,0.9742145
1409349927351,2.492364,9.433155,1.2689269,0.63610893,9.740161,0.94606507
1409349927371,2.7928362,10.31901,1.6603789,0.5932667,9.745001,0.9237825
1409349927371,2.9993362,10.920552,2.042254,0.54398876,9.749015,0.911666
1409349927388,3.1112652,10.967838,2.2816741,0.49258128,9.752004,0.90895784
1409349927397,3.41892,10.585364,2.2230163,0.4435822,9.75414,0.9112568
1409349927418,2.4103625,10.382456,2.4588451,0.40257823,9.755844,0.91205174
1409349927419,-1.3084313,12.443265,4.043208,0.35415223,9.757539,0.9140093
1409349927419,-2.1865046,14.199411,3.4506433,0.2675616,9.757873,0.9395488
1409349927435,-1.5233108,14.151527,1.3329718,0.17552865,9.756798,0.9718524
1409349927452,-0.008379706,12.752117,-0.8690952,0.13254553,9.757038,0.97622466
1409349927452,4.0426097,10.178948,0.29269117,0.15506767,9.759246,0.9504969
1409349927467,3.3913867,11.9614315,5.137358,0.24720746,9.75772,0.9466566
1409349927468,1.9818004,16.722301,6.777985,0.3698246,9.748072,1.0043536
1409349927486,1.1492168,19.608511,2.2038627,0.50664216,9.731536,1.1004127
1409349927486,-0.5793968,18.213291,-0.7685388,0.6459005,9.720476,1.1249726
1409349927499,-1.9375077,13.501502,-0.7224504,0.76322,9.71578,1.0915589
1409349927518,-1.958457,10.3226,-0.31064767,0.8518522,9.711239,1.0660937
1409349927518,-1.5143325,9.478046,1.4077905,0.9284557,9.704027,1.067818
1409349927533,-1.553837,9.745,2.2786815,0.97589445,9.69269,1.1268612
1409349927537,-1.6687586,9.727043,1.5831659,0.98907626,9.68139,1.2094717
1409349927550,-1.7776948,9.382876,0.7350199,0.97137654,9.675718,1.2677923
1409349927567,-2.022502,9.60853,0.16579847,0.9330039,9.676938,1.2871605
1409349927568,-2.593519,10.050261,-0.39564183,0.8842676,9.683041,1.2756091
1409349927582,-2.8191724,10.370484,-0.7380127,0.82857436,9.69235,1.24186
1409349927586,-2.3451207,10.483012,-0.7697359,0.7667055,9.703794,1.1911937
1409349927600,-1.543063,10.651205,-0.7649474,0.7001915,9.716082,1.1304356
1409349927615,-0.9331401,10.900801,-1.1438298,0.62826985,9.728373,1.0651029
1409349927620,-0.79487497,11.030087,-1.0468647,0.54940635,9.739918,1.0012574
1409349927641,-0.61650693,10.648212,-0.19153613,0.465569,9.749829,0.94576055
1409349927642,-0.36391866,9.661801,0.76434886,0.37518445,9.756396,0.9177999
1409349927646,-0.6386533,9.844358,0.89184016,0.28039172,9.760238,0.91079384
1409349927670,-1.1198878,9.654019,0.8451532,0.17705907,9.763641,0.9002029
1409349927671,-1.543063,9.139266,0.6697779,0.06334259,9.766993,0.8787825
1409349927694,-2.0632033,8.516175,0.1364695,-0.057939712,9.7693205,0.8528777
1409349927695,-2.463035,7.917625,-0.49559975,-0.1849895,9.769792,0.82909113
1409349927698,-2.4492683,7.6243353,-0.9463082,-0.31164157,9.768443,0.8067285
1409349927733,-2.5737667,7.697957,-1.027711,-0.42948097,9.7661705,0.77965516
1409349927734,-2.059612,8.183381,-0.74519527,-0.531597,9.763538,0.7490777
1409349927735,-1.6903064,8.606557,-0.3321955,-0.6197133,9.76036,0.7223142
1409349927752,-1.4293385,8.990826,-0.13706805,-0.6898008,9.756639,0.70892453
1409349927753,-1.1707647,8.783129,-0.29448682,-0.7527311,9.751758,0.71204996
1409349927771,-1.2940661,8.280945,-0.4950012,-0.81908286,9.745652,0.72232294
1409349927772,-1.2228385,8.218696,-0.43035775,-0.9004915,9.738092,0.72738665
1409349927777,-0.9271546,8.428787,-0.2896984,-0.9994484,9.728759,0.7229957
1409349927786,-0.61650693,8.22947,-0.3298013,-1.1095651,9.717609,0.7122674
1409349927805,-0.30047232,7.920019,-0.521936,-1.2222724,9.705149,0.69751054
1409349927806,0.1592144,7.9104424,-0.6584055,-1.3296152,9.692271,0.6800129
1409349927817,0.51954174,8.252214,-0.4345476,-1.4194107,9.680505,0.66597795
1409349927832,1.0947487,8.539519,0.6464345,-1.488435,9.670074,0.6667858
1409349927837,1.1965023,9.006987,0.9828198,-1.5436684,9.660037,0.6864321
1409349927853,1.0869676,8.936956,0.9959879,-1.5845195,9.65006,0.7321534
1409349927868,0.97623575,8.767567,0.7020996,-1.618966,9.639208,0.7968805
1409349927869,0.8086416,8.744822,0.3549404,-1.6526687,9.62746,0.866649
1409349927883,0.76315176,8.847773,0.079008654,-1.6883655,9.615367,0.92981124
1409349927886,1.0749966,9.048885,-0.06464344,-1.7264825,9.603257,0.9833979
1409349927899,1.3844471,9.303269,0.02932897,-1.7633855,9.591799,1.0287188
1409349927916,1.5197195,9.441534,0.24181437,-1.7961233,9.581217,1.0698633
1409349927919,1.377863,9.55885,0.7104794,-1.825828,9.570873,1.1113666
1409349927933,1.2575544,9.463082,1.5251064,-1.8576595,9.559259,1.1576105
1409349927937,0.88046765,9.357139,1.7681179,-1.8919159,9.545797,1.211946
1409349927948,0.23163901,9.3026705,1.702876,-1.9291093,9.530889,1.2692893
1409349927965,-0.25198972,9.26556,1.7483658,-1.9715143,9.514881,1.3230922
1409349927966,0.57281274,9.138668,1.1761516,-2.0165153,9.498487,1.3721417
1409349927985,1.4089876,9.04709,0.6434417,-2.053811,9.484399,1.4136568
1409349927986,1.9177556,9.331401,0.6961141,-2.083215,9.473129,1.445836
1409349928006,1.5915456,9.721656,1.0163386,-2.1047955,9.465174,1.4665293
1409349928007,0.46627077,10.080787,1.1725603,-2.1229334,9.459153,1.47918
1409349928018,-1.5400703,10.394426,1.2575544,-2.1418712,9.453614,1.4872704
1409349928038,-1.3850456,10.664971,1.6005238,-2.1663454,9.447846,1.4884658
1409349928040,-0.682946,10.293272,1.6160861,-2.175057,9.447845,1.4757143
1409349928046,-0.30945057,9.919776,1.1905168,-2.1618683,9.45441,1.4528853
1409349928067,-0.04369418,9.648034,0.8242039,-2.1358125,9.467642,1.4044366
1409349928067,-0.40102878,9.459491,0.6344634,-2.0858722,9.488112,1.3398762
1409349928090,-1.240795,8.78672,0.6865373,-2.0228398,9.512124,1.264132
1409349928091,-2.0853498,7.9068513,0.79966336,-1.9612634,9.536479,1.1744775
1409349928100,-3.0951042,7.4387846,0.57999533,-1.9027888,9.560429,1.0714468
1409349928124,-4.542998,7.7230964,-0.18016368,-1.8414387,9.584724,0.9552865
1409349928125,-6.307524,9.182362,-0.94930094,-1.7801529,9.608103,0.8281454
1409349928127,-8.327632,12.008718,-1.4915876,-1.7301918,9.6274605,0.6991735
1409349928157,-9.643246,15.999851,-1.3461399,-1.7049186,9.63957,0.5850994
1409349928158,-8.473679,19.286491,-1.407192,-1.698877,9.645405,0.5003981
1409349928160,-5.151125,19.608511,-2.0536265,-1.6670941,9.654495,0.42650867
1409349928166,-4.689044,19.22125,-2.3373394,-1.5607919,9.67523,0.35247782
1409349928191,-4.3520603,17.197552,-1.2862848,-1.4413126,9.69609,0.28083178
1409349928191,-3.4805708,14.0803,1.0570401,-1.3373375,9.711574,0.25939327
1409349928198,-2.622848,11.55741,3.6870706,-1.2457212,9.7221775,0.31283846
1409349928228,-2.6767175,9.767146,4.583699,-1.158889,9.728907,0.41923314
1409349928229,-3.5727475,9.102755,4.184466,-1.0810857,9.732564,0.5280571
1409349928229,-3.1663318,8.395268,3.354875,-1.0121812,9.735781,0.6003864
1409349928255,-1.7770962,7.751228,2.8161798,-0.93024975,9.742375,0.62542033
1409349928256,-0.29029694,7.984064,2.3092074,-0.81549186,9.7533045,0.61516255
1409349928258,1.4808137,9.544485,1.8327614,-0.66484076,9.766822,0.5810101
1409349928267,2.142212,9.77373,1.299453,-0.4915273,9.779653,0.53590953
1409349928297,1.9626468,9.220071,0.3597288,-0.30893436,9.790137,0.47768065
1409349928299,1.5580268,8.26658,-0.29987377,-0.14886059,9.796695,0.4159072
1409349928300,1.4772224,7.7626004,-0.35314476,-0.025173167,9.799647,0.36970368
1409349928335,1.377863,7.61416,-0.0047884034,0.07520707,9.800015,0.35277417
1409349928335,0.81163436,6.76362,0.095169514,0.16505927,9.798327,0.36865798
1409349928336,0.6697779,6.0926447,0.25737667,0.24526057,9.795102,0.40768942
1409349928351,0.78050977,5.993884,0.38307226,0.31672433,9.790803,0.4585475
1409349928351,0.8038532,5.827487,0.39324763,0.38437706,9.785564,0.51513976
1409349928367,0.65062433,5.513248,0.43514615,0.44742158,9.779701,0.57243985
1409349928367,0.7882909,5.4767365,0.6667852,0.50009763,9.773637,0.62953943
1409349928383,0.88525605,5.4581814,0.9516952,0.54681164,9.767427,0.6846575
1409349928397,0.7667431,5.3558292,1.146224,0.5817015,9.76173,0.73527944
1409349928399,0.6422446,5.1613,1.1121067,0.602824,9.757256,0.7765297
1409349928416,1.0905589,6.019023,1.3802572,0.6103173,9.754652,0.80292267
1409349928418,1.3425486,6.642114,1.4215573,0.611116,9.753641,0.81450206
1409349928434,1.6956934,7.311892,1.3186066,0.60577506,9.754197,0.81183016
1409349928450,2.136825,7.994838,1.2138603,0.59089196,9.756389,0.7963082
1409349928450,2.5318682,8.70831,1.282095,0.56554604,9.759851,0.77191085
1409349928468,3.0969,9.502586,1.3742718,0.53111506,9.763703,0.7472674
1409349928468,3.0813377,10.039486,2.0506337,0.49189234,9.767188,0.7283172
1409349928482,3.152565,10.568604,2.5635915,0.45046136,9.76993,0.71829736
1409349928499,3.1866825,10.610503,2.6868927,0.4056628,9.771854,0.71880996
1409349928499,2.9311013,10.261548,2.4546554,0.36144716,9.773222,0.72380763
1409349928518,0.22146365,12.015302,3.3967736,0.3187617,9.774507,0.72651863
1409349928539,-2.32058,14.975133,3.9977183,0.2543384,9.7751875,0.74258775
1409349928540,-1.8201919,14.921264,1.9381063,0.1595736,9.7741165,0.7820424
1409349928540,-0.6242881,13.725958,-0.1448492,0.10218933,9.77348,0.7993962
1409349928547,1.654992,11.824364,-1.8722657,0.11262524,9.774662,0.7834008
1409349928568,4.343082,10.598533,-1.8734628,0.185455,9.775928,0.75315005
1409349928570,4.5238442,10.030508,1.3054385,0.31025547,9.774041,0.7363789
1409349928593,4.537611,12.3277445,5.2804117,0.45667973,9.766272,0.7627333
1409349928594,3.2920272,17.28913,6.8246717,0.621151,9.751304,0.8346441
1409349928599,-0.37229836,17.016788,1.0480618,0.77656746,9.730733,0.93818104
1409349928619,-2.4504654,13.734338,0.6087258,0.8679977,9.721613,0.95247495
1409349928621,-2.5767596,11.124659,0.27234045,0.91718113,9.716555,0.9579817
1409349928627,-1.9309237,10.395025,1.1474211,0.9425706,9.712413,0.9751912
1409349928660,-2.2499511,10.942101,1.5161282,0.945806,9.706562,1.0288427
1409349928660,-2.7090392,10.861296,1.06123,0.9156569,9.703104,1.0870798
1409349928662,-2.6928782,10.0029745,0.16220717,0.8557948,9.705267,1.1161644
1409349928667,-2.7012582,9.306861,-0.17058687,0.7844653,9.7111225,1.1176363
1409349928690,-2.5911248,9.495404,-0.22625206,0.7146471,9.717784,1.1064999
1409349928692,-2.6090813,9.715072,-0.44232875,0.65165937,9.724079,1.0899714
1409349928702,-2.3301568,9.768343,-0.5057751,0.5920771,9.730593,1.0655606
1409349928717,-1.6065093,9.665991,-0.22445641,0.53201073,9.737615,1.0325655
1409349928720,-0.46327803,9.510367,-0.17058687,0.46706542,9.745003,0.9935651
1409349928751,-0.110731825,9.270947,-0.18495208,0.39844045,9.7521105,0.95288587
1409349928752,0.047884032,9.054273,0.1592144,0.32331294,9.758128,0.9191385
1409349928754,0.11791443,8.86932,0.46686932,0.24186201,9.762318,0.8994851
1409349928789,-0.08738836,8.917803,0.374094,0.15713833,9.765269,0.88613576
1409349928790,-0.350152,9.044097,0.110731825,0.06912176,9.768631,0.8599264
1409349928791,-0.65242,9.165004,-0.08499416,-0.024282793,9.772881,0.81276834
1409349928793,-1.4269443,8.51857,-0.2645593,-0.12651348,9.776719,0.7550924
1409349928799,-1.9357121,7.700351,-0.7685388,-0.23692748,9.778852,0.69880646
1409349928834,-1.9734207,7.1089835,-0.9696517,-0.3528617,9.778674,0.65069973
1409349928835,-1.8100165,7.2628107,-0.8643068,-0.46523756,9.776495,0.611656
1409349928836,-1.6023195,7.98586,-0.3824737,-0.5641652,9.7734,0.5768664
1409349928852,-1.3611037,8.69155,0.09876082,-0.63882905,9.770409,0.5490157
1409349928853,-1.3790601,8.953117,0.3298013,-0.6889896,9.767787,0.53482527
1409349928859,-1.6448165,8.893861,0.25079262,-0.7288934,9.76474,0.5375772
1409349928867,-1.5197195,8.825626,-0.011372458,-0.77460843,9.760338,0.5533382
1409349928887,-1.4227544,8.404246,-0.45070848,-0.8322217,9.754668,0.5694313
1409349928888,-1.3329718,8.336012,-0.50757074,-0.9079913,9.747802,0.5712468
1409349928899,-1.4215573,8.428787,-0.46806642,-1.0030696,9.739203,0.5587158
1409349928917,-0.9498995,8.447342,-0.87089086,-1.1070249,9.728857,0.54241526
1409349928936,-0.34356794,8.978855,-0.973243,-1.2157292,9.717021,0.52143794
1409349928936,0.42197806,9.802461,-0.65182143,-1.3129019,9.705407,0.5017437
1409349928941,1.0289081,10.157999,-0.16879122,-1.3861463,9.695542,0.4954501
1409349928947,1.460463,10.116699,0.23223756,-1.4395167,9.686661,0.51654786
1409349928967,1.4143747,9.907805,0.53929394,-1.4819955,9.677277,0.5695529
1409349928967,1.1599907,9.652225,0.7679402,-1.5234805,9.665721,0.650574
1409349928982,0.42078096,9.145252,0.9032126,-1.5691993,9.65134,0.7480945
1409349928996,0.25857377,8.965687,0.6985083,-1.6274902,9.633463,0.8473791
1409349929002,0.5279215,9.077616,0.57640404,-1.6936696,9.613974,0.9345494
1409349929019,0.6865373,9.159617,0.65541273,-1.7595029,9.594943,1.0057857
1409349929020,0.7374141,9.258378,1.3862427,-1.821198,9.576537,1.0693874
1409349929027,0.49081135,9.221867,1.9321208,-1.8728423,9.559541,1.1305069
1409349929054,-0.0724246,9.167996,1.905186,-1.9190135,9.5424,1.1959932
1409349929055,-0.80924016,8.933365,1.9087774,-1.9664645,9.5237255,1.2657278
1409349929063,-0.51954174,8.79929,1.271321,-2.0187461,9.503258,1.3353461
1409349929068,0.16101007,8.21271,0.37469256,-2.068132,9.483918,1.395895
1409349929088,1.1474211,8.140884,-0.007182605,-2.1119382,9.467632,1.4401621
1409349929089,1.6130934,8.956709,0.29448682,-2.1478605,9.455693,1.4652462
1409349929099,1.3503298,9.655217,1.0378864,-2.1752515,9.447711,1.4762889
1409349929122,0.65660983,10.121488,1.5065514,-2.1978886,9.440699,1.4875802
1409349929123,-0.12330139,10.48002,1.5131354,-2.221115,9.432996,1.5018759
1409349929127,-0.62129533,10.7356,1.5161282,-2.2406878,9.426308,1.514737
1409349929154,-0.7661445,10.849923,1.685518,-2.2528958,9.423014,1.5171213
1409349929155,-0.30346507,10.773908,1.8022354,-2.2562554,9.42468,1.5017157
1409349929159,-0.07182605,10.263344,1.5005659,-2.2439134,9.433474,1.4645267
1409349929168,-0.11432313,10.348338,1.7316064,-2.2141461,9.448726,1.4105086
1409349929189,-0.44532153,10.12448,2.0907366,-2.1666312,9.468199,1.3525299
1409349929190,-1.3718776,9.112331,1.401805,-2.1123812,9.489102,1.2904273
1409349929199,-2.047641,8.204929,0.7326257,-2.0634084,9.510233,1.2116911
1409349929216,-3.2213984,7.41604,0.24600422,-2.0130424,9.533516,1.1091099
1409349929233,-4.1162314,7.367557,-0.8475474,-1.9579782,9.559024,0.9807138
1409349929233,-5.103241,8.7053175,-1.7717092,-1.9026036,9.584057,0.83448976
1409349929247,-6.4661403,11.369465,-1.8387469,-1.8436881,9.608434,0.67021453
1409349929248,-7.2628107,15.249867,-1.0055647,-1.7882787,9.628656,0.511307
1409349929263,-7.2364745,18.737022,-0.05207389,-1.7355701,9.643689,0.39677873
1409349929268,-4.7506948,19.608511,-0.089782566,-1.6724731,9.656833,0.34466976
1409349929288,-4.010288,18.742409,-0.44831428,-1.556058,9.676968,0.32462943
1409349929289,-3.5224693,16.369158,0.08379706,-1.4251301,9.697586,0.31016952
1409349929299,-2.8927941,13.65892,1.6579847,-1.308668,9.71367,0.32002047
1409349929320,-2.4528596,11.344326,3.525462,-1.2141181,9.724035,0.3734563
1409349929321,-2.4660277,9.601946,4.3915644,-1.1387384,9.729427,0.46037412
1409349929327,-2.3397336,8.810063,4.031237,-1.0762899,9.731724,0.5527736
1409349929353,-3.2920272,8.555679,3.5661635,-1.0140897,9.734266,0.62137073
1409349929354,-3.1106665,9.221268,3.2632968,-0.95253646,9.738483,0.6519167
1409349929360,-0.9744401,8.921992,2.2319946,-0.87234163,9.745958,0.6524632
1409349929385,0.033518825,8.27496,1.785476,-0.7486033,9.7580385,0.6250363
1409349929386,0.9935937,9.38168,1.2240356,-0.6021209,9.770935,0.58024025
1409349929387,1.2521675,9.503783,0.47105917,-0.44683444,9.782321,0.5262638
1409349929399,0.9636662,8.853159,-0.2645593,-0.29755428,9.790786,0.47152913
1409349929419,0.30286652,7.4190326,-0.6099229,-0.17052028,9.795928,0.4255822
1409349929421,0.45609543,6.76781,-0.3878607,-0.07276925,9.79816,0.40147302
1409349929428,0.55964464,6.251859,-0.0017956513,0.009035759,9.798263,0.40544543
1409349929453,0.27114335,5.7245364,0.23283611,0.08684081,9.797062,0.4247639
1409349929453,0.38606504,5.511452,0.45669398,0.16092612,9.794264,0.46574587
1409349929459,0.50757074,5.4192758,0.65242,0.23029089,9.790264,0.5177613
1409349929488,0.664391,5.3660045,0.9343372,0.29462746,9.785277,0.5761428
1409349929490,0.8900445,5.494693,1.3018472,0.3543797,9.779367,0.6393571
1409349929491,0.9379285,5.7083755,1.4718355,0.40780494,9.772903,0.7031909
1409349929502,0.95827925,5.9250507,1.5107412,0.45234674,9.766701,0.75983405
1409349929521,0.9475053,5.971139,1.4664485,0.486863,9.761597,0.8028671
1409349929522,1.033098,6.238691,1.4562732,0.5105356,9.758348,0.82726276
1409349929528,1.1695676,6.6642604,1.4664485,0.5250416,9.757161,0.83218265
1409349929552,1.3257892,7.1131735,1.5023615,0.53090245,9.757794,0.820978
1409349929553,1.9931729,7.6003933,1.3275849,0.5325096,9.759149,0.80362934
1409349929560,2.8048072,8.860941,1.0468647,0.5259855,9.7616205,0.7775024
1409349929588,2.7832594,9.367912,1.54845,0.51380205,9.764638,0.74716747
1409349929589,3.2010477,10.226832,1.685518,0.48851264,9.76767,0.7241502
1409349929590,3.0992942,10.7194395,2.3546975,0.45494765,9.770299,0.71040744
1409349929623,2.8640637,10.676344,2.9167361,0.41178617,9.772135,0.7114806
1409349929624,2.8449101,10.08318,2.7419596,0.36271214,9.773191,0.7235756
1409349929624,0.75118077,10.88464,2.907758,0.3143116,9.77402,0.7349276
1409349929628,-2.202067,14.1629,3.3674448,0.2511004,9.775183,0.7437159
1409349929653,-1.6597804,15.488689,1.858499,0.15659006,9.775974,0.75907356
1409349929654,-0.533907,14.380174,-5.985504E-4,0.09096403,9.776769,0.7595488
1409349929660,1.5849615,12.349293,-1.5514427,0.062037792,9.778418,0.7410183
1409349929693,3.5063083,10.462662,-1.2545617,0.100302495,9.779961,0.7160475
1409349929694,4.987122,9.782109,1.01574,0.1843645,9.779288,0.70847386
1409349929695,4.4717703,11.614272,5.2822075,0.3101764,9.774184,0.7345213
1409349929699,2.870648,16.226103,7.455544,0.46442166,9.761917,0.812199
1409349929718,1.4215573,19.334375,4.140772,0.6169405,9.743121,0.9280951
1409349929720,-1.417966,17.244238,1.1653777,0.7361643,9.728694,0.9904414
1409349929728,-3.0873232,14.019847,-0.108936176,0.79045427,9.7230215,1.0042156
1409349929752,-2.771887,10.916363,1.0576386,0.8015917,9.720411,1.0205296
1409349929753,-2.3439236,9.785102,1.9321208,0.7986988,9.713791,1.0838526
1409349929760,-2.3780408,10.068216,1.7633295,0.7880432,9.705487,1.163146
1409349929784,-2.231396,9.765948,0.8643068,0.7486251,9.700748,1.22696
1409349929785,-2.1649568,9.611523,0.3693056,0.69088835,9.7023945,1.2476444
1409349929788,-2.1625626,9.683948,0.41120413,0.62747914,9.708468,1.2338234
1409349929812,-2.11827,9.934141,0.029927522,0.5664796,9.716118,1.2027252
1409349929813,-1.6460136,10.329783,-0.5327099,0.5100175,9.7244215,1.1601269
1409349929826,-0.99778354,10.359112,-0.7457938,0.45827445,9.733612,1.1032547
1409349929828,-0.31184477,10.355521,-0.8146271,0.4061326,9.74352,1.0340531
1409349929850,0.01316811,10.450092,-0.9044097,0.34868354,9.753097,0.9622546
1409349929851,0.3184288,10.611102,-0.3728969,0.2825243,9.76092,0.90277654
1409349929860,0.55126494,10.295067,0.14604631,0.2106478,9.765529,0.8720359
1409349929889,0.63206923,9.720459,0.25019407,0.13769627,9.768047,0.85829854
1409349929890,0.320823,9.402629,0.17776948,0.063224375,9.768896,0.85736036
1409349929891,-0.18974048,9.285313,0.22325931,-0.016470512,9.769966,0.8472733
1409349929921,-0.8367735,9.142858,0.30825347,-0.10407632,9.7715645,0.82224053
1409349929922,-1.6514006,8.81964,0.1436521,-0.20284298,9.772569,0.79129475
1409349929923,-2.0961237,8.168418,-0.15622166,-0.31185207,9.771878,0.7639152
1409349929928,-2.1936872,7.502231,-0.95229375,-0.42350453,9.769353,0.74214643
1409349929956,-1.7399861,7.687782,-0.76434886,-0.52750313,9.766108,0.71782035
1409349929957,-1.6424223,8.323442,-0.25917232,-0.61335444,9.762878,0.6931009
1409349929967,-1.9919758,8.695142,0.23702596,-0.6814884,9.759579,0.6757044
1409349929989,-2.107496,8.634089,0.17776948,-0.74378645,9.755076,0.67502457
1409349929990,-1.8680758,8.349778,-0.16400282,-0.8056908,9.749683,0.68187225
1409349929990,-1.7932571,8.242638,-0.46327803,-0.87169284,9.743155,0.6939163
1409349930016,-2.1068976,8.416816,-0.46806642,-0.9485078,9.735644,0.6985516
1409349930017,-1.9261353,8.42759,-0.670975,-1.0434543,9.726388,0.69209146
1409349930022,-1.3820529,8.260594,-1.0390835,-1.1519586,9.715308,0.6754139
1409349930028,-0.6099229,8.596381,-1.1408371,-1.2641698,9.703024,0.6508575
1409349930054,0.3417723,9.436746,-0.7679402,-1.3647772,9.690935,0.62736386
1409349930055,0.6919243,9.621698,-0.12569559,-1.4426473,9.680109,0.6202017
1409349930061,0.973243,9.489418,0.32321724,-1.5020729,9.669606,0.6425573
1409349930092,1.2138603,9.239823,0.57760113,-1.5494393,9.658486,0.6951789
1409349930093,1.1109096,9.124303,0.8194155,-1.5900451,9.646959,0.76050156
1409349930093,0.6865373,9.025542,0.93732995,-1.6306708,9.633496,0.8408605
1409349930114,0.24720132,8.743625,0.7703344,-1.6770284,9.617837,0.9247639
1409349930115,0.16938977,8.528745,0.47345337,-1.733252,9.600046,1.0026748
1409349930136,0.30047232,8.582615,0.3788824,-1.7952111,9.58158,1.0681436
1409349930136,0.91937345,8.871715,0.84934306,-1.8557352,9.563855,1.1222025
1409349930144,0.86610246,8.891466,1.2802993,-1.9055667,9.547848,1.1737953
1409349930168,0.6075287,8.694544,2.1691468,-1.9499687,9.531785,1.2300884
1409349930169,0.3184288,8.473679,2.331354,-1.9915144,9.514348,1.2967005
1409349930170,0.006584055,8.575432,2.0248961,-2.0317597,9.49609,1.3662422
1409349930180,-0.44113165,8.758589,1.5179238,-2.070472,9.4789915,1.4255712
1409349930203,0.021547815,9.139865,0.87089086,-2.10999,9.462869,1.4739339
1409349930203,0.6290765,9.3733,0.3878607,-2.142253,9.4514,1.5007302
1409349930208,0.6147113,9.961076,0.48362875,-2.1652164,9.444764,1.5095319
1409349930237,0.09756372,10.684125,0.83378077,-2.1803958,9.442073,1.5045062
1409349930238,-0.74639237,11.105505,1.174356,-2.190446,9.441837,1.4913247
1409349930240,-1.4526819,11.43351,0.98581254,-2.1957133,9.442846,1.4771307
1409349930264,-1.4568717,11.832145,0.8888474,-2.192776,9.446488,1.4580741
1409349930265,-0.9487024,11.646594,1.0660183,-2.1739686,9.455395,1.4281998
1409349930279,-0.23822308,11.377247,1.3359646,-2.1380138,9.469764,1.3866665
1409349930280,0.40282443,10.823587,1.3862427,-2.0794878,9.489164,1.3423446
1409349930300,0.9516952,10.432136,1.6352397,-1.9971632,9.512823,1.2992069
1409349930301,0.878672,9.749189,1.939902,-1.9047292,9.537469,1.2566216
1409349930308,-0.19931729,8.563461,2.0961237,-1.8057525,9.562657,1.2104689
1409349930332,-2.4109612,7.2472486,0.6123171,-1.7136443,9.586417,1.1551702
1409349930333,-3.7116113,7.791331,-0.2765303,-1.6293647,9.610196,1.0769062
1409349930351,-5.1397524,9.790489,-0.8726865,-1.5450232,9.634425,0.9803817
1409349930351,-6.7947445,12.9652,-0.664391,-1.4701113,9.65647,0.87278533
1409349930360,-7.144298,16.551716,-0.40821138,-1.4168864,9.672577,0.7772394
1409349930382,-4.533421,19.272127,-1.3790601,-1.3706679,9.684236,0.71221596
1409349930383,-2.7760768,19.521124,-2.5983074,-1.2747308,9.701608,0.6513573
1409349930388,-3.3740287,18.136078,-2.319383,-1.1393918,9.723668,0.56788814
1409349930415,-3.1842883,16.08784,-0.587178,-1.0262394,9.74028,0.49414545
1409349930415,-2.9765913,13.177088,1.9177556,-0.92683125,9.75162,0.46613577
1409349930420,-3.1914709,10.603321,3.9761705,-0.85270363,9.756259,0.5086106
1409349930428,-3.0663738,9.348161,4.38917,-0.7980758,9.755721,0.59947747
1409349930451,-3.3411086,8.147469,3.7349546,-0.75254947,9.75311,0.69348615
1409349930452,-3.3494883,8.773552,3.3608606,-0.7053623,9.752233,0.7528712
1409349930460,-2.2481554,8.306085,2.7832594,-0.6442786,9.754522,0.7775591
1409349930486,-1.3024458,7.562086,2.417545,-0.55041945,9.760565,0.7738351
1409349930487,-0.65900403,7.4495587,2.2691047,-0.430349,9.768377,0.7510066
1409349930489,0.866701,8.696339,2.1416135,-0.29993227,9.775619,0.7195126
1409349930524,1.8842367,9.384672,1.6376339,-0.16131343,9.781227,0.6869921
1409349930525,1.2318168,7.6584525,0.16340427,-0.018900352,9.784912,0.65232354
1409349930526,1.3054385,6.75943,-0.034715924,0.097717315,9.786809,0.6158102
1409349930529,1.3796587,6.0489507,0.19752164,0.18773761,9.7867565,0.5954396
1409349930551,1.3748703,5.6886234,0.44891283,0.2594443,9.785082,0.5960288
1409349930552,1.389834,5.390545,0.5410896,0.32770443,9.781881,0.61464757
1409349930561,1.246182,5.1361613,0.59256494,0.39795947,9.777365,0.64431673
1409349930584,1.246182,5.1247888,0.6979098,0.46858343,9.771888,0.67899525
1409349930585,1.0636241,5.052963,0.8415619,0.5362209,9.765804,0.71550566
1409349930589,1.0618285,5.2684407,1.0947487,0.596983,9.759491,0.7525468
1409349930625,0.997185,5.4527946,1.2330139,0.64789236,9.753396,0.78859544
1409349930627,0.9947908,5.653309,1.2575544,0.68801457,9.748099,0.8195102
1409349930627,0.997185,5.985504,1.2354081,0.72265977,9.743349,0.8457506
1409349930629,0.98700964,6.3979053,1.3467385,0.7448216,9.740538,0.858807
1409349930654,0.99778354,6.7929487,1.5885528,0.75342566,9.740015,0.8572411
1409349930655,1.1031284,7.258621,1.7729063,0.7471961,9.741551,0.84513915
1409349930660,1.508347,7.9966335,1.8154035,0.7254487,9.744808,0.8263415
1409349930689,2.107496,8.944737,1.6897079,0.689929,9.749402,0.8022341
1409349930690,2.8514943,9.8276,1.5119383,0.6439304,9.754848,0.7737702
1409349930691,2.6222494,10.490194,2.0201077,0.5904838,9.7604885,0.7446996
1409349930722,2.4378958,11.504139,2.4863784,0.52367866,9.765664,0.72662914
1409349930722,2.147599,11.240178,2.0949266,0.45283517,9.769675,0.7202841
1409349930723,-0.39983168,12.66832,2.4450784,0.384559,9.773215,0.71187985
1409349930729,-2.295441,15.4641485,2.2212207,0.29447964,9.776407,0.7110124
1409349930750,-1.5478514,15.794549,0.3298013,0.1866111,9.778854,0.7138427
1409349930750,-0.40521863,14.15452,-1.2228385,0.111242115,9.780914,0.7012509
1409349930760,1.8010383,12.108076,-1.9590555,0.09930676,9.783153,0.6711516
1409349930783,3.9306808,10.268132,-1.1150994,0.15593436,9.784631,0.63803196
1409349930783,4.865018,9.39365,2.1655555,0.25875586,9.78267,0.63468266
1409349930799,4.9015293,10.983999,6.3967085,0.39461073,9.774891,0.68278766
1409349930833,4.4005427,15.762227,7.961918,0.5608084,9.75873,0.7893758
1409349930834,3.067571,19.17576,4.43885,0.7402243,9.735151,0.9215748
1409349930834,0.59376204,17.416021,1.0899603,0.88736373,9.717113,0.9801544
1409349930835,-2.36188,14.003686,1.1677719,0.9849466,9.707646,0.980757
1409349930841,-3.015497,11.170747,-0.023942016,1.0244186,9.70387,0.9776871
1409349930872,-1.963844,10.29806,-0.20590134,1.0356717,9.701167,0.9925515
1409349930873,-2.0470424,10.356119,1.3694834,1.0307355,9.696596,1.0411656
1409349930874,-2.333748,10.738593,1.2366052,0.99659544,9.693002,1.1058341
1409349930903,-2.6725276,10.399814,0.65780693,0.93292814,9.694653,1.1461896
1409349930904,-3.0071173,9.502586,-0.110731825,0.85405135,9.700779,1.155802
1409349930905,-2.9221232,9.7563715,-0.28790274,0.77562696,9.708789,1.1437784
1409349930909,-2.6366146,9.770737,-0.5979519,0.7044387,9.717071,1.1192279
1409349930936,-1.8447324,9.696517,-0.66858083,0.6421933,9.725508,1.0828168
1409349930937,-0.7068881,9.572019,-0.801459,0.5844172,9.734075,1.037617
1409349930941,-0.09756372,9.537901,-0.801459,0.53090113,9.742152,0.9894477
1409349930969,0.08798691,9.546879,-0.25318682,0.4710719,9.750104,0.94018304
1409349930969,0.16639702,9.413403,0.587178,0.4015596,9.7566185,0.90418875
1409349930970,0.16639702,9.088988,0.8230068,0.32417876,9.7608185,0.88979316
1409349931003,0.017956512,8.814852,0.60333884,0.2440984,9.763549,0.88539755
1409349931004,-0.42317516,8.677784,0.33279404,0.16241606,9.766592,0.8704624
1409349931005,-0.729633,8.619724,0.3345897,0.07515943,9.770616,0.8365467
1409349931009,-1.0959458,8.421006,0.40043023,-0.01939429,9.77438,0.79465985
1409349931031,-1.3826514,7.937377,0.16460137,-0.118499324,9.776716,0.7564327
1409349931049,-1.4568717,7.3190746,-0.30466217,-0.21589082,9.777647,0.72209495
1409349931049,-1.2228385,7.107786,-0.6404489,-0.30138057,9.777919,0.6869272
1409349931050,-1.0672154,7.491457,-0.6051345,-0.3753677,9.777815,0.6510212
1409349931061,-0.84575176,8.279149,-0.053869538,-0.42566696,9.777875,0.6183686
1409349931080,-0.79128367,8.883087,0.50757074,-0.45765376,9.777564,0.6001362
1409349931081,-0.90021986,9.260174,0.28431144,-0.4862919,9.775998,0.6031331
1409349931089,-0.9660604,9.233837,-0.30226797,-0.52508104,9.773095,0.6174866
1409349931115,-1.3245921,9.167398,-0.57041854,-0.5815727,9.769308,0.6267197
1409349931116,-1.2838906,9.024344,-0.8086416,-0.66273326,9.764451,0.6218226
1409349931121,-0.5315128,8.790312,-1.3772645,-0.7639635,9.758229,0.6030869
1409349931148,-0.15382746,8.921992,-1.5143325,-0.87090313,9.751037,0.5737673
1409349931149,0.45190558,9.673173,-1.1348516,-0.97214085,9.743118,0.5449533
1409349931149,1.0791864,10.037092,-0.45010993,-1.062351,9.7348175,0.5245377
1409349931182,1.5209166,9.660006,0.29807812,-1.1330396,9.726416,0.53239304
1409349931183,1.5310919,9.23683,0.7290344,-1.1858808,9.717465,0.5787223
1409349931184,1.3682863,9.072827,1.0528502,-1.2294801,9.706844,0.66027653
1409349931189,1.0151415,8.918402,1.3341689,-1.2713101,9.693733,0.765311
1409349931219,0.6464345,8.596381,1.2886791,-1.3190918,9.677928,0.87642807
1409349931220,0.48243165,8.284536,0.8038532,-1.3773756,9.66008,0.9778063
1409349931225,0.65062433,8.303091,0.39683893,-1.4447211,9.641981,1.0561095
1409349931248,0.96665895,8.549694,0.4285621,-1.5146158,9.625244,1.1095178
1409349931249,1.0761937,8.74123,0.7613561,-1.5780526,9.610521,1.1480694
1409349931250,1.0827777,8.854955,1.412579,-1.6337478,9.596421,1.187413
1409349931264,0.96306765,8.839393,2.0913353,-1.684861,9.581643,1.2344044
1409349931283,-0.1945289,8.871715,2.285864,-1.7321669,9.565875,1.2899615
1409349931285,-0.7200562,8.896853,1.8171991,-1.7847872,9.548884,1.343035
1409349931290,-0.32142156,9.176376,0.84455466,-1.8402182,9.532935,1.3809949
1409349931318,0.44113165,9.375694,0.034715924,-1.8905199,9.520491,1.3987861
1409349931319,0.842759,9.882666,0.1376666,-1.9312869,9.512441,1.3978537
1409349931321,0.60573304,10.608109,0.7823054,-1.9619995,9.50818,1.3840106
1409349931348,-0.39444473,10.960057,1.2988545,-1.9869767,9.5056,1.3659716
1409349931349,-1.2826935,11.130045,1.3192052,-2.012064,9.502312,1.3520617
1409349931350,-1.6879122,11.271303,1.5107412,-2.034439,9.499489,1.3383529
1409349931361,-1.7070658,11.153389,1.5197195,-2.0484643,9.49856,1.3234552
1409349931381,-1.4383167,10.821193,1.216853,-2.056791,9.500721,1.2947341
1409349931382,-0.85891986,10.787076,0.87328506,-2.0500927,9.508267,1.2491455
1409349931390,-0.30885202,11.317391,1.3210008,-2.0203156,9.521688,1.1942168
1409349931433,-0.14305355,11.526285,1.6567876,-1.9682071,9.539369,1.1388574
1409349931435,-1.0235212,10.913968,1.2749124,-1.9038514,9.559274,1.0798422
1409349931436,-1.8590976,10.006566,0.5189432,-1.8408908,9.579398,1.0083003
1409349931437,-2.8748376,8.841787,-0.11133038,-1.7733176,9.601595,0.9138468
1409349931443,-3.5422213,7.791331,-0.85532856,-1.6994554,9.625542,0.7944985
1409349931469,-4.1252093,7.530363,-1.7537527,-1.6189673,9.649845,0.6556138
1409349931470,-5.554548,12.069171,-1.9099745,-1.5342921,9.672454,0.50989014
1409349931470,-6.819285,15.692795,-0.7314286,-1.4632372,9.690154,0.36088264
1409349931524,-6.535572,18.401834,-0.11611878,-1.4074603,9.701738,0.25638416
1409349931526,-4.3101616,18.85015,-0.4417302,-1.3452998,9.711431,0.22061668
1409349931527,-3.5236664,16.698957,-0.46267948,-1.2425752,9.724825,0.23274843
1409349931530,-2.44029,14.04319,0.49559975,-1.1258543,9.738214,0.26469722
1409349931531,-2.010531,11.36348,2.528277,-1.0117095,9.749232,0.31509355
1409349931568,-2.6102784,9.306861,4.51726,-0.92009306,9.755194,0.40003803
1409349931570,-3.2956185,8.049905,4.7644615,-0.8567763,9.755627,0.51386374
1409349931571,-4.1659107,8.284536,4.578911,-0.811995,9.753221,0.6210954
1409349931573,-3.980959,9.361927,4.0653543,-0.7690613,9.7517605,0.69435763
1409349931574,-2.3702598,8.706514,3.0831332,-0.7023784,9.754701,0.72308105
1409349931609,-0.9127894,8.309675,2.178125,-0.60774976,9.761148,0.72180736
1409349931609,0.43035775,9.147646,1.6310499,-0.47741976,9.771201,0.6827128
1409349931610,1.5334862,10.022727,1.1306617,-0.330195,9.781421,0.62062955
1409349931612,1.7609353,10.01734,0.1921347,-0.18185492,9.789668,0.5474638
1409349931624,1.2497733,9.093777,-0.75716627,-0.052943,9.795171,0.4713912
1409349931647,0.84096336,7.9750857,-0.92775315,0.044116717,9.798162,0.40553486
1409349931648,1.1893197,7.373543,-0.6027403,0.11695056,9.799048,0.3679536
1409349931650,1.3814543,6.1387334,0.41599256,0.18673283,9.798066,0.36530983
1409349931683,1.460463,5.758055,0.770933,0.25935683,9.795267,0.39478317
1409349931684,1.5478514,5.6377463,1.0666169,0.33246958,9.791017,0.4425655
1409349931685,1.5340848,5.518635,1.2940661,0.40284526,9.785544,0.5012351
1409349931690,1.5999253,5.511452,1.4820108,0.47024217,9.779114,0.56411684
1409349931718,1.6220716,5.5880666,1.5622166,0.530561,9.772009,0.62989426
1409349931719,1.5795746,5.6976013,1.525705,0.5803293,9.764927,0.6926748
1409349931722,1.4945804,5.7921724,1.4036007,0.6186175,9.758732,0.74489486
1409349931746,1.3221979,5.9477954,1.2264298,0.6455167,9.754115,0.7816303
1409349931747,1.2431892,6.3141084,1.2521675,0.6604925,9.751627,0.79995215
1409349931750,1.1761516,6.791153,1.4000094,0.6640122,9.751254,0.8015917
1409349931774,1.2366052,7.3112936,1.6077064,0.65517217,9.752674,0.7915239
1409349931774,1.5436616,7.7332716,1.7070658,0.6332073,9.755321,0.77662855
1409349931796,2.2008698,8.439561,1.650802,0.6000388,9.758601,0.76160747
1409349931796,2.3421278,9.246407,1.9081788,0.56642634,9.761766,0.7466589
1409349931803,2.8778305,10.201095,1.7770962,0.5234243,9.764977,0.73597735
1409349931811,3.1196449,10.851121,1.8507179,0.47859472,9.768036,0.7258131
1409349931833,3.2034419,11.207857,1.8722657,0.43600607,9.770719,0.71649116
1409349931834,3.1316159,11.014524,1.9183542,0.3970594,9.772942,0.7087667
1409349931842,-0.9379285,14.52622,2.9724014,0.362512,9.774598,0.7044091
1409349931871,-0.80325466,15.361796,1.5490485,0.28798646,9.776168,0.7169354
1409349931871,0.023942016,13.757083,-0.30166942,0.22801563,9.77818,0.71104807
1409349931872,1.9865888,11.347918,-1.8142064,0.21406199,9.780773,0.679035
1409349931900,4.300585,9.900024,-1.3748703,0.25871015,9.782342,0.6397487
1409349931901,6.229114,9.682152,0.8643068,0.35077578,9.780543,0.62314886
1409349931901,5.064934,11.582549,5.5096564,0.47647005,9.774456,0.63512105
1409349931910,3.1848867,16.544533,8.377312,0.62411976,9.761231,0.7065496
1409349931949,1.7298107,19.608511,4.859032,0.76794606,9.741222,0.83021927
1409349931950,-1.5275006,18.87888,1.311424,0.8845321,9.724977,0.9015695
1409349931951,-3.9971197,15.608399,-0.1448492,0.9423031,9.717416,0.9242905
1409349931952,-3.9863458,12.445659,-1.0085574,0.9587471,9.714629,0.9365777
1409349931982,-2.7042508,10.792462,0.093972415,0.9629392,9.710215,0.97717154
1409349931983,-2.6539726,10.424355,1.5580268,0.95537883,9.70112,1.070484
1409349931984,-2.6324248,10.385448,1.4993688,0.91522276,9.693224,1.1722622
1409349931990,-2.7485435,9.3421755,0.66259533,0.84868866,9.690681,1.2412919
1409349932011,-2.9951463,8.765172,0.27712885,0.7745687,9.692417,1.2757202
1409349932011,-3.1028855,8.641273,0.28550854,0.704608,9.695271,1.2944658
1409349932022,-3.0364463,8.528147,0.12749124,0.64042646,9.699581,1.2955209
1409349932044,-2.4480712,8.508993,0.05925649,0.5848022,9.705163,1.2799242
1409349932045,-0.005985504,8.990826,-0.107140526,0.52851814,9.711712,1.2544845
1409349932051,0.47225627,9.534309,0.11192893,0.47535133,9.718791,1.2204771
1409349932082,0.6027403,9.727641,0.88525605,0.41128048,9.726449,1.1821225
1409349932083,0.6655881,9.320627,1.0223241,0.33540276,9.732842,1.1531103
1409349932084,0.53929394,8.953117,0.43155485,0.2504543,9.738008,1.1308705
1409349932091,0.0724246,8.917204,0.14604631,0.15970291,9.744012,1.0950392
1409349932115,-0.62009823,8.818443,0.14664486,0.064364135,9.751549,1.0361189
1409349932116,-1.2976574,8.449737,0.090381116,-0.03758852,9.758434,0.9705437
1409349932124,-1.8800468,7.543531,-0.3657143,-0.14840947,9.76348,0.9070909
1409349932150,-1.8501194,6.904279,-0.6332663,-0.26765224,9.76558,0.8556939
1409349932151,-1.9692309,6.9719152,-1.0067618,-0.38438657,9.76529,0.8134785
1409349932152,-2.0219033,7.583634,-0.700304,-0.48866186,9.764106,0.7706144
1409349932173,-2.0015526,8.376115,-0.108936176,-0.5696717,9.762705,0.7317431
1409349932174,-1.6519991,9.15423,0.7128736,-0.6281249,9.760623,0.71142864
1409349932195,-1.7250223,9.519944,0.8924387,-0.67227274,9.756744,0.7241338
1409349932195,-1.7471687,9.586982,0.3465607,-0.7202333,9.750566,0.7603566
1409349932202,-1.9207484,9.064447,-0.31304187,-0.7858906,9.743181,0.78943074
1409349932229,-2.4301147,8.4425535,-0.46327803,-0.8791452,9.734989,0.7921429
1409349932230,-2.469619,8.240842,-0.79128367,-0.9896883,9.72517,0.78229666
1409349932231,-0.2088941,9.138668,-1.3204023,-1.1196239,9.713332,0.7536609
1409349932265,0.66738373,9.982025,-0.92057055,-1.2300012,9.703212,0.7107845
1409349932266,1.0660183,10.121488,-0.3477578,-1.3103096,9.695623,0.66959494
1409349932267,1.1013328,9.815628,0.17717093,-1.36316,9.689905,0.6464853
1409349932270,1.1803415,9.644443,0.6787562,-1.4028019,9.68382,0.6528028
1409349932300,1.1007342,9.551069,0.95109665,-1.4353608,9.676345,0.69171035
1409349932301,0.8319851,9.135675,0.9600749,-1.4665341,9.666892,0.7555489
1409349932306,0.5554548,8.711902,0.79367787,-1.5038625,9.655023,0.83025664
1409349932326,0.55485624,8.407239,0.5770026,-1.5507615,9.640959,0.9041203
1409349932326,0.8559271,8.291719,0.3854665,-1.6028209,9.626078,0.9695424
1409349932330,1.1450269,8.432379,0.42556936,-1.6545796,9.611347,1.027009
1409349932342,1.2665327,8.639477,0.62129533,-1.7002323,9.598047,1.0756769
1409349932366,1.1246762,8.627506,0.96785605,-1.740223,9.585919,1.119
1409349932367,0.7188591,8.611345,1.448492,-1.7784207,9.573515,1.1642326
1409349932371,0.31783026,8.686762,1.9165585,-1.8175929,9.55982,1.2151421
1409349932403,-0.12449849,8.811261,1.6921021,-1.85617,9.545448,1.2686357
1409349932404,-0.6548142,9.189545,1.3341689,-1.8934348,9.531874,1.314792
1409349932404,-0.44711718,9.497798,1.0444705,-1.9301556,9.519706,1.3491075
1409349932423,0.60812724,9.72824,0.44592008,-1.9631809,9.509111,1.3759096
1409349932424,1.7022774,10.637438,0.59855044,-1.984725,9.502053,1.393651
1409349932442,1.134253,10.899603,1.1719618,-1.9887058,9.499215,1.4072493
1409349932443,0.31423897,10.721834,1.4269443,-1.9942843,9.496582,1.4170933
1409349932450,-0.27832595,10.788273,1.4185646,-2.0016365,9.49319,1.4294062
1409349932472,-0.48722005,10.85531,1.8489223,-2.0076287,9.489749,1.4437679
1409349932472,-0.29029694,10.797251,2.1613655,-2.0091827,9.487902,1.4537212
1409349932492,0.05566519,10.457274,2.267309,-2.0021002,9.490419,1.4470425
1409349932493,0.08499416,10.128671,1.7962499,-1.9803289,9.498426,1.4242829
1409349932502,0.074220255,10.148422,1.5556326,-1.941672,9.51163,1.3889532
1409349932520,-0.002992752,9.916184,1.3138182,-1.8882278,9.529412,1.3398844
1409349932522,-0.9792285,8.874707,1.1390414,-1.8283839,9.550643,1.269892
1409349932535,-1.9309237,7.61416,0.6374562,-1.7725526,9.572969,1.1775912
1409349932561,-3.3267434,6.505046,-0.0688333,-1.72113,9.594805,1.071359
1409349932562,-4.8189297,6.277597,-1.1312603,-1.6614062,9.618368,0.94716924
1409349932563,-5.9968767,7.6267295,-1.75076,-1.5969188,9.64233,0.80357385
1409349932571,-7.00304,10.91337,-1.7046716,-1.5313702,9.6645775,0.6490408
1409349932597,-8.081628,15.175648,-0.7787141,-1.466913,9.68307,0.5066712
1409349932598,-8.01878,18.499996,-0.42796355,-1.411115,9.695933,0.409903
1409349932603,-5.306748,19.608511,-1.3617022,-1.3508178,9.706502,0.3598545
1409349932621,-3.9695864,17.18977,-1.4041992,-1.2364564,9.723483,0.30894497
1409349932622,-2.753332,14.511855,0.3369839,-1.1122738,9.739997,0.2563602
1409349932639,-1.5753847,12.034455,2.5552118,-1.0072469,9.751691,0.24570261
1409349932656,-1.4478935,9.837176,3.851672,-0.92083997,9.758744,0.2989286
1409349932657,-1.4407109,8.7370405,3.9731777,-0.84481937,9.762867,0.37827218
1409349932673,-2.6156654,9.3499565,3.9845502,-0.78161246,9.764311,0.46661624
1409349932674,-1.5628152,10.312426,3.578733,-0.72357124,9.765163,0.53703064
1409349932696,-0.30526072,9.433155,2.7246015,-0.36521578,9.783811,0.5604086
1409349932697,0.35793316,8.380304,1.821389,-0.36521578,9.783811,0.5604086
1409349932702,1.1318588,9.403227,1.2749124,-0.36521578,9.783811,0.5604086
1409349932719,1.1264719,9.266159,0.57520694,-0.21312903,9.7902775,0.5248247
1409349932723,0.62608373,8.474875,-0.16579847,-0.073702656,9.794145,0.48958093
1409349932737,0.6560113,7.9224133,-0.5315128,0.040916678,9.7954,0.46782035
1409349932765,0.8122329,7.1167645,-0.3441665,0.13848165,9.794311,0.47191143
1409349932765,0.82001406,6.479907,0.17298107,0.23062545,9.791511,0.49347618
1409349932766,0.7146692,6.0106435,0.7212533,0.32009852,9.786264,0.5449591
1409349932771,0.7823054,5.9029045,1.192911,0.40438673,9.778944,0.6157284
1409349932797,0.8762778,6.0806737,1.4502877,0.48343968,9.770146,0.6934914
1409349932798,0.78410107,6.057929,1.5143325,0.5572185,9.760565,0.7689327
1409349932803,0.95827925,6.1369376,1.5502456,0.6214281,9.75118,0.83589786
1409349932829,0.85652566,6.2123547,1.5502456,0.6735352,9.742902,0.8902993
1409349932830,0.8146271,6.261436,1.483208,0.7092468,9.736747,0.9290531
1409349932831,0.88525605,6.259042,1.4053963,0.72746295,9.733266,0.9511802
1409349932863,1.0295067,6.251859,1.2856863,0.7304785,9.73245,0.9571909
1409349932864,1.1953052,6.4338183,1.192911,0.7211178,9.734132,0.9471277
1409349932864,1.3754689,6.647501,1.2324153,0.7069176,9.73692,0.92899877
1409349932871,1.7561469,6.962937,1.287482,0.6815065,9.741672,0.8976526
1409349932895,2.2260091,7.3418193,1.1492168,0.6461167,9.747668,0.857835
1409349932896,2.6671407,8.133701,1.0127473,0.6020318,9.754239,0.8141256
1409349932904,3.6409822,9.481039,0.641646,0.55066633,9.760726,0.7716151
1409349932940,3.098097,10.078392,1.158195,0.4995578,9.766463,0.73282385
1409349932945,3.052607,10.625467,1.5951369,0.43628532,9.771157,0.7103122
1409349932946,2.906561,10.441712,2.1266496,0.36906978,9.774263,0.70566404
1409349932975,2.7682958,9.743802,2.1416135,0.3068171,9.77553,0.7178186
1409349932976,0.0035913025,11.566987,3.2974143,0.2561282,9.775862,0.7330273
1409349932977,-2.5151088,15.133749,3.8947675,0.19188374,9.775329,0.75930446
1409349932978,-2.1254525,15.777789,2.0338743,0.09857765,9.773519,0.7993664
1409349932983,-0.91099375,13.925276,-0.7374141,0.04100392,9.772582,0.8157003
1409349933015,4.57113,10.21965,-1.6382325,0.047396615,9.774541,0.7915146
1409349933016,6.045958,9.312247,1.3347675,0.14228024,9.775666,0.7658301
1409349933017,6.4619503,11.547235,4.84347,0.28137967,9.771328,0.7825316
1409349933051,4.5124717,16.522387,7.454347,0.46957704,9.758717,0.84696287
1409349933052,2.7940333,19.19252,4.721366,0.6639239,9.737945,0.94974697
1409349933061,0.60812724,16.92521,1.6250644,0.8207325,9.720122,1.0079794
1409349933064,-2.4887726,14.0473795,1.7549498,0.91784376,9.708537,1.0355004
1409349933094,-4.1054573,11.536461,0.9091981,0.95377374,9.700605,1.0765502
1409349933096,-3.104681,11.531074,1.062427,0.95343727,9.695482,1.1220406
1409349933097,-3.0663738,12.419921,1.1133038,0.945899,9.687278,1.1967922
1409349933099,-3.0777464,12.939463,-0.5291186,0.90938205,9.680761,1.2752637
