time,acc_x,acc_y,acc_z,gravity_x,gravity_y,gravity_z
1409351481654,1.3030443,9.516952,2.1452048,1.2452532,9.489948,2.1355608
1409351481655,1.2916719,9.469068,2.1930888,1.2455703,9.489827,2.1359155
1409351481680,1.3012487,9.431957,2.235586,1.2462752,9.489924,2.1350768
1409351481681,1.2982559,9.421184,2.2709002,1.2471892,9.489762,2.1352637
1409351481682,1.2850877,9.454104,2.2936451,1.2486337,9.489371,2.1361563
1409351481684,1.252766,9.442133,2.2828712,1.2503037,9.488987,2.1368787
1409351481697,1.2503718,9.451111,2.2379801,1.252373,9.48869,2.136987
1409351481710,1.2802993,9.494206,2.2026656,1.2548542,9.488587,2.1359868
1409351481713,1.2976574,9.623494,2.168548,1.257524,9.488963,2.1327531
1409351481728,1.1372458,9.84795,2.0644004,1.2601725,9.489803,2.1274424
1409351481750,1.0714053,9.8042555,2.0644004,1.2605023,9.492122,2.116873
1409351481753,1.0480618,9.704897,2.0817583,1.2584072,9.495152,2.1044893
1409351481772,1.0450691,9.655815,2.086547,1.2540634,9.497716,2.0954947
1409351481774,1.050456,9.561843,2.0560207,1.2486079,9.499644,2.0900083
1409351481776,1.0953473,9.629479,2.0350714,1.2428468,9.50144,2.085277
1409351481798,1.1085154,9.680955,2.0500352,1.237016,9.503339,2.0800815
1409351481799,1.1318588,9.566033,1.9991584,1.2320324,9.505101,2.0749803
1409351481811,1.1976994,9.556456,1.9680338,1.2289387,9.506281,2.0714083
1409351481813,1.2976574,9.585785,1.9871874,1.2266412,9.507082,2.0690935
1409351481830,1.3808558,9.610326,2.0159178,1.2249321,9.507797,2.0668192
1409351481833,1.3425486,9.349358,2.1278467,1.2240684,9.508447,2.0643437
1409351481846,1.6035166,9.838373,2.0332758,1.2232028,9.508896,2.0627859
1409351481863,1.5167267,9.654618,2.086547,1.224824,9.5093,2.0599604
1409351481865,1.5167267,9.630676,2.059612,1.226407,9.509288,2.0590749
1409351481878,1.5310919,9.580399,2.0368671,1.227165,9.509379,2.058194
1409351481895,1.5628152,9.496002,2.0518308,1.227081,9.509652,2.0569887
1409351481896,1.5777789,9.437943,2.0697873,1.2267989,9.509668,2.0570793
1409351481915,1.5885528,9.375095,2.0727801,1.2256311,9.509537,2.0583787
1409351481916,1.5855601,9.362526,2.0566192,1.2238109,9.509477,2.0597389
1409351481927,1.5891514,9.433753,2.0386627,1.2218664,9.509551,2.0605578
1409351481934,1.584363,9.476251,2.0326772,1.2204832,9.509665,2.0608482
1409351481946,1.5592239,9.536704,2.0775685,1.2193779,9.509738,2.0611634
1409351481961,1.5119383,9.518747,2.0685902,1.2186882,9.509493,2.0627024
1409351481967,1.4867992,9.51755,2.0991163,1.2187512,9.50893,2.065261
1409351481978,1.4514848,9.488221,2.107496,1.2205192,9.507929,2.068828
1409351481992,1.4760253,9.4457245,2.0721815,1.2236365,9.506836,2.072001
1409351481994,1.4957775,9.412804,2.0727801,1.2279497,9.50583,2.0740662
1409351482012,1.5041572,9.399636,2.0452468,1.2335333,9.504853,2.0752263
1409351482014,1.5251064,9.433753,2.0560207,1.2396876,9.503964,2.0756273
1409351482028,1.5562311,9.471462,2.0638018,1.2462143,9.503273,2.0748868
1409351482045,1.5382746,9.532514,2.0368671,1.2543178,9.502691,2.0726702
1409351482047,1.5400703,9.567828,1.9788077,1.2629522,9.502195,2.0696933
1409351482063,1.6699557,9.548077,1.9219455,1.2731086,9.5016985,2.0657437
1409351482065,1.4796166,9.514558,1.9219455,1.2853283,9.500834,2.06215
1409351482076,1.5837644,9.493608,1.917157,1.2959342,9.500027,2.0592303
1409351482094,1.7088615,9.507974,1.9512744,1.3075703,9.499152,2.055906
1409351482096,1.6226702,9.425972,2.0045455,1.3209842,9.498054,2.0524049
1409351482113,1.5209166,9.475652,2.0697873,1.3333114,9.496898,2.0497868
1409351482114,1.4927847,9.535507,2.0440497,1.3432678,9.495811,2.0483143
1409351482127,1.365892,9.536105,2.0751743,1.3534099,9.494731,2.0466409
1409351482144,1.2970588,9.484032,2.0907366,1.3624425,9.49359,2.0459402
1409351482151,1.2198458,9.433155,2.1134815,1.369947,9.492396,2.0464778
1409351482176,1.1528081,9.415198,2.167351,1.3763298,9.491147,2.0479813
1409351482177,1.0887632,9.409811,2.2301989,1.3813293,9.489923,2.0502918
1409351482178,1.0402806,9.442133,2.2709002,1.3849161,9.488954,2.052361
1409351482194,0.99419224,9.511565,2.308609,1.3873696,9.488203,2.054175
1409351482196,0.96665895,9.61691,2.309806,1.3892542,9.487662,2.0553946
1409351482213,0.973243,9.692925,2.2463598,1.3910996,9.48729,2.0558605
1409351482216,1.002572,9.7007065,2.172738,1.3932104,9.487111,2.0552597
1409351482227,1.0414777,9.680356,2.1350293,1.3960356,9.487033,2.053699
1409351482242,1.2431892,9.652225,2.1529858,1.3990833,9.487107,2.0512786
1409351482246,0.9331401,9.541492,2.180519,1.4032916,9.487089,2.0484862
1409351482259,0.93254155,9.46009,2.2637177,1.4026397,9.487795,2.0456629
1409351482265,1.0881647,9.674969,2.148796,1.4011338,9.488872,2.041693
1409351482277,1.3126211,9.907805,2.146402,1.4000193,9.490619,2.0343308
1409351482295,1.0947487,9.721058,2.0614076,1.4020228,9.492256,2.025296
1409351482297,1.1115081,9.624691,2.0410569,1.4009962,9.494592,2.0150223
1409351482317,1.3940239,9.858724,1.9913772,1.3970332,9.49776,2.0028133
1409351482319,1.472434,9.634866,2.055422,1.3951801,9.50086,1.989356
1409351482328,1.5227122,9.603742,2.119467,1.393006,9.503635,1.9775779
1409351482350,1.5628152,9.548077,2.1787236,1.3883493,9.506423,1.9674387
1409351482351,1.5885528,9.539098,2.168548,1.3828053,9.508934,1.9591882
1409351482354,1.6364368,9.546281,2.154183,1.376908,9.511344,1.951631
1409351482366,1.6998832,9.564238,2.135628,1.3713547,9.51367,1.9441917
1409351482378,1.7764976,9.562442,2.0769699,1.3663592,9.515908,1.9367303
1409351482397,1.8662802,9.503185,2.0033484,1.3626807,9.517986,1.9291035
1409351482398,1.9476831,9.449316,1.9746178,1.3602655,9.51975,1.9220945
1409351482417,2.0009542,9.445126,1.9907787,1.3589514,9.521155,1.9160441
1409351482418,2.0123265,9.451111,1.9961656,1.3584404,9.522276,1.9108412
1409351482426,2.054225,9.43495,1.9554642,1.3584559,9.522994,1.9072412
1409351482450,2.0524294,9.424176,1.9500773,1.3593597,9.523343,1.9048557
1409351482452,2.0386627,9.4217825,1.9632454,1.3606828,9.523296,1.9041444
1409351482456,2.0308816,9.42238,1.9506758,1.3627245,9.5227785,1.9052678
1409351482466,2.0410569,9.395446,1.9620483,1.3661011,9.521828,1.907603
1409351482477,2.0135236,9.409811,2.0386627,1.369913,9.520639,1.9108027
1409351482495,1.9506758,9.4295635,2.0350714,1.375032,9.51895,1.915532
1409351482497,1.8902222,9.414599,2.0231004,1.3812115,9.516957,1.9209763
1409351482514,1.7986441,9.454104,2.0362685,1.3883547,9.514793,1.9265398
1409351482535,1.7657237,9.4457245,2.0141222,1.3961223,9.512378,1.9328532
1409351482536,1.7088615,9.466674,2.005144,1.404449,9.5098915,1.9390386
1409351482538,1.6328455,9.454104,1.9728222,1.412284,9.507573,1.9447161
1409351482546,1.5855601,9.426571,1.9111716,1.420262,9.505349,1.9497675
1409351482559,1.6071079,9.4217825,1.970428,1.4288665,9.503317,1.9533874
1409351482577,1.4628572,9.427169,1.9614497,1.4378462,9.501298,1.9566098
1409351482578,1.3329718,9.533711,1.9219455,1.4457774,9.499486,1.9595635
1409351482595,1.2569559,9.5570545,1.9476831,1.4525536,9.498088,1.9613328
1409351482597,1.1911154,9.600749,1.9333179,1.4593515,9.496815,1.9624445
1409351482621,1.0989386,9.595961,1.9393034,1.4668843,9.495442,1.9634687
1409351482623,1.2419921,9.615114,1.9937714,1.4746517,9.493839,1.9654
1409351482627,0.8331822,9.466674,1.9099745,1.4843293,9.491858,1.9676819
1409351482650,0.84934306,9.60015,1.9015948,1.4906414,9.490584,1.9690521
1409351482651,0.90021986,9.631275,1.8387469,1.4968328,9.4895525,1.9693362
1409351482657,0.93014735,9.636064,1.8166006,1.5051793,9.488406,1.968495
1409351482677,0.98341835,9.617508,1.8076223,1.5138866,9.487377,1.9667835
1409351482678,0.9720459,9.439739,1.8590976,1.5227,9.486623,1.9636037
1409351482705,1.3054385,9.670779,1.7968484,1.5316507,9.4859495,1.959899
1409351482707,1.4293385,9.594764,1.8363527,1.5423886,9.485616,1.9530765
1409351482708,1.1599907,9.431957,1.8201919,1.5555661,9.4852085,1.9445933
1409351482715,1.1288661,9.402629,1.9069817,1.5657842,9.485694,1.9339994
1409351482727,1.2467805,9.487024,1.8986019,1.5715929,9.487513,1.9203105
1409351482748,1.4359225,9.730036,1.9536686,1.5767592,9.490153,1.9029496
1409351482750,1.2521675,9.600749,1.8273745,1.5837833,9.492747,1.8840818
1409351482764,1.2246342,9.593566,1.7699136,1.5888915,9.496113,1.8627042
1409351482777,1.2671312,9.48882,1.8207904,1.5909785,9.500738,1.8371576
1409351482778,1.4449008,9.579201,1.7908629,1.5919731,9.505737,1.8102416
1409351482795,1.4185646,9.609129,1.7178397,1.5938052,9.510406,1.783917
1409351482796,1.3670892,9.533711,1.6879122,1.5947763,9.51514,1.7576065
1409351482809,1.472434,9.600749,1.7328035,1.5945977,9.520094,1.7307436
1409351482827,1.388637,9.574412,1.54845,1.5937269,9.524999,1.7043595
1409351482828,1.448492,9.668385,1.4993688,1.5903912,9.530226,1.6780548
1409351482843,1.5676036,9.69113,1.4574703,1.5865095,9.5357275,1.6502328
1409351482846,1.6753427,9.731832,1.4287399,1.5837734,9.540786,1.623409
1409351482860,1.797447,9.775525,1.4598645,1.5815601,9.545182,1.599543
1409351482878,1.8872294,9.834782,1.5448587,1.5794505,9.549081,1.5782325
1409351482879,1.9596541,9.879075,1.6711528,1.5774127,9.552404,1.5600433
1409351482894,1.970428,9.866506,1.7579426,1.5754354,9.555026,1.5459254
1409351482895,1.9865888,9.801862,1.8118122,1.5733426,9.557233,1.5343747
1409351482910,1.9961656,9.721058,1.846528,1.5714699,9.55872,1.5270162
1409351482915,1.9859903,9.701904,1.875857,1.5704103,9.559527,1.5230408
1409351482927,1.9674352,9.703101,1.8602947,1.570575,9.559736,1.5215555
1409351482942,1.8980033,9.735423,1.8004397,1.5714272,9.559493,1.5222107
1409351482946,1.8447324,9.675568,1.7435774,1.5718464,9.559201,1.5236107
1409351482957,1.9081788,9.648034,1.8177977,1.5715736,9.559074,1.5246828
1409351482974,1.6310499,9.554062,1.7088615,1.5710081,9.558908,1.5262977
1409351482975,1.5227122,9.618107,1.6370354,1.5671538,9.559459,1.5268255
1409351482995,1.496376,9.594165,1.5586253,1.5611492,9.560647,1.5255384
1409351482999,1.4437037,9.561244,1.4700398,1.5554909,9.56182,1.5239568
1409351483019,1.4598645,9.442732,1.4437037,1.5496876,9.562975,1.52262
1409351483021,1.508347,9.506178,1.4993688,1.5449884,9.563928,1.5214223
1409351483027,1.4688427,9.420585,1.543063,1.5406003,9.5645,1.5222733
1409351483050,1.5801731,9.606734,1.6160861,1.5357981,9.565219,1.5226053
1409351483052,1.6472107,9.537302,1.6334441,1.5325258,9.5658865,1.5217086
1409351483057,1.7316064,9.430161,1.5945383,1.5326955,9.566134,1.5199773
1409351483077,1.95307,9.251794,2.1015105,1.5357714,9.566104,1.5170547
1409351483078,2.005144,8.487445,2.2601264,1.5411718,9.564976,1.518689
1409351483100,2.355296,9.2787285,1.6298528,1.5478531,9.563303,1.522434
1409351483101,2.3026235,9.679757,1.4718355,1.5597619,9.563482,1.5090923
1409351483107,2.27928,9.886257,1.4119805,1.5743062,9.565526,1.4807676
1409351483132,2.1799207,10.01315,1.3467385,1.589218,9.571259,1.4268068
1409351483135,1.9524715,10.383054,0.9307459,1.6064657,9.576071,1.3742361
1409351483136,2.2505496,10.857705,-0.41718966,1.6184756,9.579731,1.3340602
1409351483149,2.1493945,9.657013,2.5791538,1.6267364,9.58395,1.2930607
1409351483168,2.0338743,8.684967,2.2906525,1.628044,9.581419,1.3100697
1409351483170,2.0632033,9.132683,1.6525977,1.6250919,9.570937,1.3880414
1409351483178,1.8231846,9.974843,1.6490064,1.6252053,9.560313,1.4592865
1409351483208,1.5568297,10.141838,1.6130934,1.6253458,9.558186,1.4730057
1409351483210,1.5394717,9.88506,1.4263457,1.6246599,9.559742,1.4636265
1409351483212,1.702876,9.612122,1.3664906,1.6245149,9.560417,1.4593717
1409351483233,1.7836803,9.533113,1.42455,1.6251541,9.559987,1.4614813
1409351483234,1.7465701,9.487623,1.4999673,1.6256511,9.558022,1.4737264
1409351483237,1.673547,9.41879,1.5346833,1.6257393,9.555561,1.489505
1409351483247,1.620276,9.445126,1.6783354,1.6260736,9.553752,1.500698
1409351483262,1.5759833,9.619304,1.661576,1.6274279,9.552521,1.5070652
1409351483277,1.5993267,9.570223,1.5598224,1.6300808,9.551563,1.5102608
1409351483279,1.6196774,9.518148,1.472434,1.6346242,9.55038,1.5128298
1409351483292,1.4191631,9.562442,1.5119383,1.6398829,9.549039,1.5155934
1409351483297,1.4915876,9.446322,1.4329298,1.6418463,9.54799,1.5200696
1409351483311,1.6394296,9.438541,1.3940239,1.6417515,9.547103,1.525736
1409351483325,1.6118963,9.476849,1.4041992,1.6410738,9.546452,1.5305296
1409351483327,1.6244658,9.611523,1.441908,1.6391181,9.546124,1.5346628
1409351483340,1.5388732,9.87668,1.4532804,1.6343614,9.546416,1.5379192
1409351483347,1.5005659,10.126875,1.359308,1.6268489,9.54751,1.5390906
1409351483358,1.8058267,9.527127,1.174356,1.619616,9.549129,1.5366824
1409351483376,2.042254,9.193136,1.3664906,1.6184335,9.550095,1.5319074
1409351483377,1.9764135,9.347562,1.5783775,1.6215359,9.549767,1.530684
1409351483392,1.6813282,9.551667,1.7932571,1.6218194,9.54912,1.5344056
1409351483395,1.7699136,9.560047,1.7244238,1.6151446,9.549474,1.539242
1409351483409,1.5526398,9.595362,1.6717514,1.6093624,9.55029,1.5402228
1409351483423,1.6657659,9.861717,1.5993267,1.6037493,9.551437,1.5389638
1409351483427,1.6346412,10.011953,1.4544775,1.5995679,9.552486,1.5368104
1409351483443,1.6041151,9.86471,1.3192052,1.5952672,9.553734,1.5335294
1409351483447,1.6166847,9.743204,1.3563153,1.5914731,9.555143,1.5286738
1409351483458,1.5801731,9.665392,1.4281414,1.5882807,9.556065,1.5262223
1409351483471,1.513734,9.815628,1.543063,1.5858375,9.556196,1.5279443
1409351483477,1.536479,9.685743,1.5298948,1.583322,9.555808,1.5329729
1409351483495,1.5508442,9.557653,1.5676036,1.5813322,9.5550785,1.5395664
1409351483497,1.4443022,9.710882,1.6777369,1.5797783,9.554028,1.5476596
1409351483519,1.4149733,9.652225,1.6466122,1.5772892,9.552856,1.5573926
1409351483521,1.4466964,9.576208,1.5927427,1.5748978,9.551674,1.5670336
1409351483527,1.5161282,9.504382,1.5951369,1.5735347,9.550674,1.5744886
1409351483549,1.5729905,9.5253315,1.6280571,1.5730358,9.549635,1.5812773
1409351483550,1.6358383,9.507974,1.6244658,1.5729638,9.548489,1.5882466
1409351483555,1.7435774,9.446921,1.6364368,1.5726193,9.547362,1.5953467
1409351483577,1.7304093,9.464279,1.6502035,1.572421,9.546399,1.6012925
1409351483578,1.6807296,9.56304,1.6783354,1.571357,9.545788,1.6059786
1409351483592,1.6998832,9.527725,1.6765398,1.5688571,9.5454235,1.6105822
1409351483607,1.6250644,9.582193,1.6747441,1.5666864,9.545035,1.6149919
1409351483609,1.6106992,9.533113,1.6376339,1.5645305,9.54462,1.6195354
1409351483623,1.6011224,9.452309,1.6178818,1.5628504,9.54407,1.6243752
1409351483627,1.5448587,9.61691,1.6597804,1.5618615,9.543393,1.6293074
1409351483643,1.5382746,9.6288805,1.632247,1.5606834,9.542595,1.6350954
1409351483655,1.5711949,9.621698,1.6280571,1.5596783,9.541821,1.6405671
1409351483657,1.6370354,9.621698,1.6400281,1.5592688,9.541114,1.6450574
1409351483672,1.6950948,9.601347,1.6861166,1.5595164,9.540348,1.649263
1409351483675,1.7411832,9.545084,1.6837224,1.5605145,9.539529,1.6530478
1409351483698,1.7908629,9.422979,1.6741456,1.5619284,9.538701,1.6564941
1409351483700,1.7717092,9.412804,1.6879122,1.5639516,9.537805,1.6597377
1409351483708,1.721431,9.496002,1.6873137,1.5657884,9.537018,1.6625229
1409351483739,1.6591818,9.584588,1.6214731,1.5666385,9.536624,1.6639783
1409351483741,1.6232687,9.617508,1.5652094,1.5668846,9.536699,1.6633167
1409351483744,1.5945383,9.625888,1.5316905,1.5672426,9.5370035,1.6612417
1409351483760,1.6059108,9.603742,1.5382746,1.5677546,9.537302,1.6590391
1409351483761,1.6250644,9.644443,1.5376761,1.5686039,9.537333,1.6580589
1409351483774,1.6496049,9.621698,1.5454572,1.5705731,9.5371,1.6575364
1409351483777,1.6837224,9.593566,1.590947,1.573455,9.53675,1.6568168
1409351483789,1.6950948,9.561843,1.6208745,1.5763261,9.536367,1.6562849
1409351483795,1.6567876,9.594165,1.6663644,1.5789006,9.535824,1.6569612
1409351483807,1.6178818,9.64564,1.6705543,1.580458,9.535171,1.6592344
1409351483823,1.496376,9.68275,1.6184803,1.5813112,9.5346775,1.6612504
1409351483827,1.4820108,9.665991,1.5699978,1.5811375,9.534516,1.6623476
1409351483840,1.4700398,9.7007065,1.5891514,1.5808947,9.534459,1.6629034
1409351483858,1.5125369,9.67856,1.6154876,1.5805339,9.534366,1.6637855
1409351483859,1.520318,9.630676,1.5646108,1.5803465,9.534213,1.6648347
1409351483872,1.5119383,9.58818,1.6071079,1.5798122,9.534308,1.6648031
1409351483875,1.4802152,9.564238,1.638831,1.5791295,9.534521,1.6642274
1409351483889,1.4754268,9.5798,1.6430209,1.57804,9.534853,1.6633564
1409351483914,1.4909891,9.615712,1.6310499,1.5764091,9.535039,1.6638358
1409351483916,1.543063,9.661202,1.6364368,1.574636,9.535154,1.6648569
1409351483918,1.5616181,9.649231,1.6118963,1.5733918,9.535269,1.6653777
1409351483928,1.5759833,9.601347,1.6424223,1.5723373,9.535493,1.6650943
1409351483950,1.5837644,9.587581,1.6567876,1.5714104,9.535666,1.6649739
1409351483951,1.5580268,9.628283,1.6968905,1.5704621,9.535864,1.6647307
1409351483958,1.5179238,9.561843,1.6813282,1.5688559,9.5362015,1.6643075
1409351483972,1.5119383,9.479243,1.6651673,1.5669086,9.536626,1.66372
1409351483976,1.5167267,9.460688,1.6639702,1.5646392,9.537034,1.6635054
1409351483989,1.5185224,9.512762,1.6938977,1.5625808,9.537337,1.6637142
1409351484010,1.6065093,9.516952,1.6663644,1.5600082,9.537822,1.6633482
1409351484012,1.6418238,9.479841,1.721431,1.5576246,9.53852,1.6615748
1409351484035,1.6729485,9.472659,1.7429788,1.5558611,9.539117,1.6598054
1409351484037,2.112883,8.932168,1.5855601,1.554835,9.539669,1.6575913
1409351484039,2.3373394,8.189367,1.4227544,1.5585034,9.539611,1.6544764
1409351484065,1.1234791,10.383653,2.6767175,1.5648749,9.539218,1.6507232
1409351484066,1.536479,10.668563,1.8058267,1.5484538,9.5402775,1.6600603
1409351484067,1.2976574,10.271125,1.2090719,1.5204244,9.543995,1.664591
1409351484079,1.4197617,10.163984,1.335366,1.4938937,9.549134,1.6591291
1409351484093,1.6657659,9.831191,1.4425066,1.4884266,9.553682,1.6377293
1409351484120,1.7603368,9.494805,1.6280571,1.4945494,9.555393,1.6220845
1409351484122,1.7914615,9.257181,1.8022354,1.5043628,9.554202,1.6200275
1409351484124,1.8662802,9.213487,1.9009962,1.5145266,9.551871,1.6243092
1409351484155,1.7208325,9.476251,1.8902222,1.5228873,9.549596,1.629857
1409351484156,1.6681601,9.697714,1.7669208,1.5272932,9.548343,1.6330746
1409351484158,1.6142905,9.789292,1.584363,1.5285492,9.548084,1.6334044
1409351484159,1.6136919,9.836577,1.5053543,1.5269153,9.54875,1.6310434
1409351484183,1.5831659,9.768343,1.4305356,1.513146,9.551694,1.6266356
1409351484184,1.5496471,9.598953,1.407192,1.513146,9.551694,1.6266356
1409351484187,1.4287399,9.484032,1.6316484,1.513146,9.551694,1.6266356
1409351484215,1.3329718,9.582193,1.7196354,1.5057302,9.552282,1.6300539
1409351484222,1.2006922,9.740809,1.7764976,1.4959732,9.5529375,1.635197
1409351484224,1.2156559,9.834782,1.6741456,1.4833392,9.55389,1.6411259
1409351484229,1.2671312,9.749788,1.501763,1.4710889,9.555201,1.6445173
1409351484258,1.3227965,9.631873,1.4951789,1.4626603,9.556592,1.6439562
1409351484259,1.2922704,9.564836,1.5394717,1.4594346,9.557566,1.6411487
1409351484262,1.2509704,9.565434,1.5903485,1.4581447,9.55803,1.6395974
1409351484275,1.2192472,9.591172,1.6130934,1.4550042,9.558254,1.6410832
1409351484277,1.1797429,9.672575,1.5891514,1.4495244,9.558688,1.6433985
1409351484288,1.1288661,9.711481,1.560421,1.4433098,9.559385,1.6448054
1409351484307,1.0851719,9.69951,1.5747862,1.4372272,9.560325,1.6446844
1409351484310,1.0971429,9.633669,1.6184803,1.4321231,9.561213,1.6439743
1409351484323,1.1486182,9.569026,1.6801311,1.427615,9.561868,1.6440784
1409351484329,1.2000936,9.553463,1.7369933,1.4235694,9.562105,1.6462007
1409351484342,1.2737153,9.533711,1.7651252,1.4201068,9.5621,1.649225
1409351484356,1.3581109,9.534908,1.775899,1.4181715,9.561983,1.6515743
1409351484357,1.4101849,9.566631,1.7393875,1.4178487,9.561984,1.6518285
1409351484381,1.4856021,9.595961,1.6759412,1.4189816,9.562147,1.6499141
1409351484382,1.5580268,9.664794,1.6831238,1.4217323,9.562242,1.6470009
1409351484387,1.5490485,9.743802,1.6579847,1.4253625,9.562252,1.6438018
1409351484419,1.5346833,9.664195,1.5987282,1.4289594,9.562366,1.64001
1409351484422,1.5652094,9.634866,1.6112977,1.4323322,9.562567,1.6358962
1409351484423,1.5562311,9.731832,1.62686,1.435864,9.562661,1.6322405
1409351484456,1.5861586,9.722853,1.5867572,1.4393425,9.562833,1.6281542
1409351484458,1.5975311,9.67856,1.560421,1.4433535,9.563058,1.623281
1409351484459,1.5933412,9.650429,1.5610195,1.4475034,9.563155,1.619011
1409351484463,1.5831659,9.616311,1.5472529,1.4510458,9.563076,1.6163036
1409351484487,1.6112977,9.617508,1.584363,1.4538779,9.562775,1.6155407
1409351484488,1.5652094,9.652225,1.6154876,1.4574542,9.562072,1.6164713
1409351484490,1.5436616,9.614515,1.5951369,1.4615049,9.561214,1.6178964
1409351484510,1.5131354,9.553463,1.5658079,1.4657841,9.560342,1.6191783
1409351484511,1.4999673,9.578603,1.5508442,1.4699223,9.559464,1.6206033
1409351484516,1.4987702,9.594165,1.5825673,1.4732927,9.558685,1.6221459
1409351484537,1.4939818,9.632472,1.5921441,1.4762005,9.55784,1.6244642
1409351484538,1.4646529,9.6528225,1.6053122,1.4786645,9.557063,1.6267976
1409351484568,1.4305356,9.706094,1.6597804,1.4803638,9.556497,1.6285733
1409351484571,1.3455414,9.742006,1.5813702,1.4810951,9.556107,1.6302077
1409351484573,1.3257892,9.675568,1.5598224,1.480388,9.556108,1.6308371
1409351484577,1.311424,9.625888,1.5167267,1.4789033,9.556215,1.6315684
1409351484601,1.3443443,9.644443,1.5101427,1.4769123,9.556363,1.6325
1409351484602,1.3581109,9.634866,1.5286977,1.4752508,9.556562,1.6328322
1409351484608,1.4155718,9.561843,1.5957354,1.4740195,9.556764,1.6327724
1409351484623,1.5065514,9.498397,1.6466122,1.4733167,9.556887,1.6326824
1409351484638,1.5777789,9.512163,1.7022774,1.4724644,9.556879,1.6335002
1409351484640,1.6567876,9.537302,1.7363948,1.471915,9.556666,1.6352345
1409351484685,1.7088615,9.52593,1.7603368,1.4724067,9.556405,1.636324
1409351484686,1.7304093,9.545682,1.7836803,1.4740809,9.55614,1.6363597
1409351484687,1.6897079,9.685743,1.7830818,1.4766532,9.555841,1.6357945
1409351484688,1.7483658,9.500193,1.6741456,1.4790163,9.555598,1.6350673
1409351484690,1.7160441,9.326612,1.7998412,1.4820268,9.555418,1.6333909
1409351484714,1.6903064,9.335591,1.6873137,1.4839787,9.555172,1.6330571
1409351484716,1.5490485,9.560047,1.7501614,1.4850376,9.555181,1.6320477
1409351484718,1.5496471,9.467871,1.7878702,1.4843265,9.555709,1.6295979
1409351484746,1.4706384,9.496601,1.7776948,1.4832766,9.556349,1.6268086
1409351484748,1.4730326,9.626487,1.7064673,1.4812744,9.556936,1.6251767
1409351484749,1.4885949,9.831789,1.6286557,1.4790684,9.5580015,1.6209079
1409351484756,1.4047978,9.760562,1.5825673,1.4765716,9.559693,1.6132015
1409351484773,1.3922282,9.853337,1.6358383,1.4733284,9.561797,1.6036668
1409351484776,1.3928268,9.928755,1.7441759,1.4691483,9.563938,1.594699
1409351484788,1.3311762,9.67018,1.6801311,1.4637065,9.566058,1.5869676
1409351484803,1.3156139,9.38168,1.6567876,1.4565854,9.568368,1.5795828
1409351484812,1.2635399,9.506777,1.678934,1.447211,9.571027,1.5720787
1409351484820,1.1976994,9.655815,1.5771804,1.436602,9.574008,1.5636294
1409351484829,1.0181342,9.570822,1.7776948,1.4254506,9.577457,1.5526708
1409351484837,0.83378077,9.7803135,1.702876,1.4147595,9.580676,1.5425662
1409351484859,0.4950012,9.694721,1.816002,1.4042218,9.58371,1.533315
1409351484860,0.80924016,9.94312,1.661576,1.3917365,9.5863495,1.5281968
1409351484876,1.1067197,9.3733,1.4287399,1.3821614,9.588499,1.5233945
1409351484878,1.2659341,9.418191,1.5125369,1.3798093,9.589449,1.5195401
1409351484888,1.638831,9.309255,1.5215151,1.3802828,9.589841,1.5166256
1409351484909,1.6496049,9.367912,1.7609353,1.3813014,9.590495,1.5115578
1409351484911,1.4383167,9.400234,1.7926586,1.3818489,9.5918865,1.5021979
1409351484919,1.3078327,9.411008,1.7962499,1.3806106,9.594378,1.4873464
1409351484943,1.3036429,9.539098,1.7142484,1.3783355,9.597309,1.4704572
1409351484945,1.4311341,9.8994255,1.3904326,1.3733327,9.6007,1.4528993
1409351484949,1.4706384,9.873688,1.3676877,1.367406,9.604496,1.4332682
1409351484957,1.6591818,10.047866,1.4143747,1.3624352,9.608231,1.4128327
1409351484988,1.5406688,10.0269165,1.3533225,1.3590989,9.611777,1.3917607
1409351484990,1.5867572,9.81084,1.3742718,1.353116,9.615904,1.3688971
1409351484996,1.5304934,9.707291,1.496376,1.3468828,9.620173,1.3448317
1409351485030,1.6412252,9.74859,1.471237,1.3395592,9.624252,1.3227737
1409351485033,1.6292542,9.767744,1.3078327,1.3336337,9.627797,1.3028193
1409351485036,1.6352397,9.846753,1.3910311,1.328217,9.631461,1.2810891
1409351485063,1.4927847,9.800665,1.3455414,1.3225583,9.634942,1.2606074
1409351485064,1.4838065,9.803658,1.1384429,1.3142092,9.638064,1.24538
1409351485066,1.4311341,9.710283,1.0408791,1.3012215,9.641183,1.2348282
1409351485068,1.4263457,9.688736,1.1498153,1.2825552,9.645012,1.2244103
1409351485069,1.347337,9.665991,1.2240356,1.2579421,9.64957,1.2139912
1409351485102,1.2072762,9.647436,1.151611,1.2268039,9.654903,1.2034043
1409351485103,1.3670892,10.258555,1.0049661,1.1901066,9.661181,1.1898084
1409351485104,1.3521254,10.487801,1.0085574,1.1540364,9.667953,1.1701754
1409351485108,1.1180922,10.269928,0.8870517,1.1203574,9.674524,1.1483856
1409351485123,0.908001,10.323798,0.8595184,1.0817118,9.68125,1.1285872
1409351485140,0.76075757,10.181343,0.97503865,1.0314177,9.688221,1.1157745
1409351485141,0.9672575,10.638037,0.86251116,0.9748265,9.694972,1.1079823
1409351485156,1.1073183,11.306019,0.7673417,0.9120187,9.701744,1.1021687
1409351485172,0.96067345,12.058397,0.85532856,0.85118604,9.70866,1.0898726
1409351485174,0.492607,11.542446,1.1414356,0.7990648,9.715571,1.0675012
1409351485187,0.5374983,11.055226,1.13964,0.7487382,9.721995,1.0452689
1409351485189,0.6410475,11.7268,1.1569979,0.69268006,9.7277,1.0307465
1409351485205,0.6488287,12.082339,1.2749124,0.6288412,9.732572,1.0256758
1409351485222,0.6667852,11.13603,1.2743138,0.5631645,9.7364645,1.0268922
1409351485223,0.79966336,9.685144,1.0289081,0.49298927,9.740331,1.0263216
1409351485238,0.9032126,9.139266,0.7194576,0.41604325,9.745384,1.0123166
1409351485240,1.0031705,10.070611,0.6404489,0.3410105,9.750765,0.98826987
1409351485256,1.1162965,11.3964,0.7691373,0.27365708,9.756679,0.95012045
1409351485261,0.8690952,11.317391,0.8882488,0.22547464,9.761799,0.90930563
1409351485282,0.5746084,11.168352,0.98820674,0.1904197,9.765752,0.8742162
1409351485283,0.3824737,11.188105,1.2401965,0.1576102,9.768996,0.8439666
1409351485289,0.27473465,10.727221,1.2072762,0.12536256,9.771825,0.8161586
1409351485316,0.05207389,9.612122,0.8810662,0.09702238,9.774616,0.78603697
1409351485318,-0.027533319,8.9124155,0.46387658,0.07208156,9.777381,0.75365156
1409351485320,0.21428105,8.376713,0.18255788,0.05453611,9.779958,0.7210124
1409351485349,0.23104046,9.003994,0.34117374,0.056407824,9.782086,0.6913719
1409351485350,0.4417302,9.631275,0.4417302,0.08451522,9.783413,0.6693951
1409351485351,0.8379706,10.406996,0.41240123,0.12732765,9.784113,0.6521458
1409351485357,1.2180501,10.404602,0.7260417,0.19649771,9.783702,0.6410563
1409351485374,0.8948329,7.60578,0.33877954,0.2879325,9.781952,0.6331705
1409351485389,1.0313023,7.379528,0.05207389,0.38585144,9.779539,0.61819035
1409351485390,0.82240826,7.141904,-0.060453594,0.48261794,9.77683,0.5925123
1409351485403,0.7134721,6.31351,-0.21787235,0.56436336,9.77396,0.5670856
1409351485421,0.4189853,5.5300074,-0.260968,0.6215126,9.771235,0.55411685
1409351485422,-0.09696517,6.441001,0.03232172,0.6496136,9.769387,0.5544851
1409351485437,0.16101007,7.65546,0.52732295,0.64674526,9.768926,0.5658833
1409351485438,0.23822308,7.53575,0.587178,0.62512314,9.769171,0.58557755
1409351485452,0.3321955,7.451354,0.7158663,0.59606194,9.769817,0.6048142
1409351485458,0.4890157,7.653664,0.9307459,0.5655181,9.770516,0.62255794
1409351485470,0.5267244,7.8948803,1.0247183,0.53400826,9.771376,0.63673955
1409351485486,0.62488663,8.4647,0.9504981,0.5067831,9.772382,0.64351654
1409351485489,0.6332663,9.211691,0.7164649,0.48647514,9.773724,0.63881814
1409351485503,1.0534488,10.481815,0.49320555,0.4717564,9.775476,0.62281394
1409351485521,1.3515269,10.807426,0.24899697,0.46475556,9.777189,0.60078216
1409351485522,1.4269443,10.78947,0.026934769,0.46403265,9.778646,0.5771803
1409351485538,1.3994108,10.525509,-0.15263036,0.4673458,9.779832,0.5539882
1409351485539,1.3275849,10.317214,-0.142455,0.4709498,9.780736,0.5346131
1409351485555,1.1815386,10.235811,0.06703765,0.47334072,9.78127,0.52259237
1409351485557,1.1324574,10.359711,0.23642741,0.47531655,9.781457,0.5172651
1409351485571,0.7930793,10.554239,0.44352585,0.47731206,9.781074,0.5226789
1409351485587,0.6368576,11.067198,0.26396075,0.47511727,9.780479,0.5356208
1409351485589,0.4201824,10.9822035,0.23343466,0.46703318,9.78019,0.54786885
1409351485603,0.58897364,10.664372,0.16879122,0.45310855,9.7803135,0.55727035
1409351485621,0.74399817,10.193314,0.13587095,0.4412464,9.780607,0.5616256
1409351485622,0.54767364,9.156026,0.24061728,0.43699214,9.780839,0.5609037
1409351485637,0.38726214,9.989806,0.35254622,0.4370531,9.780993,0.5581576
1409351485639,0.31184477,9.999982,0.41479546,0.43524444,9.781215,0.55568683
1409351485654,0.3477578,10.275315,0.3585317,0.43035498,9.781428,0.5557734
1409351485658,0.51475334,10.211869,0.33039984,0.4254161,9.781669,0.5553204
1409351485677,0.3609259,10.107122,0.38726214,0.42245644,9.781805,0.55518824
1409351485678,0.439336,10.21127,0.3657143,0.4185697,9.781889,0.5566443
1409351485688,0.23642741,9.623494,0.36272156,0.41397128,9.781878,0.56026715
1409351485719,0.24480712,9.126697,0.32441434,0.40644014,9.78185,0.5662153
1409351485722,0.34835634,9.4972,0.48123455,0.39751774,9.781795,0.5734768
1409351485724,0.43275195,9.740809,0.6171055,0.38797045,9.781519,0.5845938
1409351485749,0.3429694,10.05864,0.6631939,0.3788958,9.780764,0.60288465
1409351485751,0.3669114,10.723629,0.6895301,0.36792344,9.779717,0.62622696
1409351485760,0.47285482,10.761936,0.587178,0.35638008,9.778701,0.64836395
1409351485782,0.40641573,10.216059,0.46686932,0.34860572,9.777904,0.6644313
1409351485784,0.3537433,10.024523,0.5201403,0.34501737,9.777472,0.6726181
1409351485785,0.24001873,9.739613,0.52732295,0.34258893,9.777167,0.67827743
1409351485789,0.43873745,9.539098,0.60812724,0.34021991,9.777042,0.6812164
1409351485815,0.45848963,8.787917,0.74639237,0.33991143,9.776807,0.6847715
1409351485817,0.1388637,9.087791,0.5518635,0.33987376,9.776316,0.6917694
1409351485820,0.29448682,10.716447,0.9115923,0.33488053,9.776007,0.69852996
1409351485853,0.34237084,10.9582615,0.973243,0.32890913,9.775439,0.709232
1409351485855,0.3866636,9.919776,0.7565677,0.3268232,9.774553,0.7222972
1409351485857,0.38307226,9.725846,0.6871359,0.32917094,9.773889,0.73015964
1409351485859,0.3345897,9.314642,0.7020996,0.3327266,9.773513,0.7335604
1409351485878,0.3800795,7.2711906,0.026934769,0.33600974,9.7730255,0.73855454
1409351485880,-0.092775315,9.093777,0.48602295,0.34001938,9.772631,0.7419459
1409351485891,0.09636662,10.169372,0.83497787,0.33868665,9.77204,0.75028646
1409351485917,0.3477578,11.162367,1.0767922,0.3333712,9.770984,0.7662246
1409351485919,0.33039984,11.158775,1.1306617,0.32842875,9.769061,0.7924393
1409351485922,0.31184477,10.70687,1.0420763,0.32500783,9.766825,0.8208967
1409351485952,0.37469256,10.115502,0.8487445,0.31968737,9.765209,0.841967
1409351485953,0.31663316,9.478046,0.6368576,0.31224233,9.764493,0.8529998
1409351485955,0.17238252,9.837176,0.63206923,0.30210006,9.764393,0.8577882
1409351485969,-0.14185645,10.260351,0.8319851,0.28602272,9.764545,0.8615496
1409351485970,-0.17896658,11.060614,1.039682,0.26146302,9.764501,0.86979896
1409351485988,-0.3585317,10.869077,1.0815806,0.23441988,9.7641115,0.88180447
1409351485989,0.10295067,10.129269,0.8355764,0.2074862,9.7636385,0.89370245
1409351486004,-0.02932897,10.187927,0.85293436,0.19084363,9.763459,0.8993431
1409351486019,-0.18016368,10.101137,0.9576807,0.18061207,9.763675,0.89914316
1409351486020,-0.22505496,9.89763,0.9427169,0.1709598,9.763674,0.90103114
1409351486032,-0.17238252,9.76535,0.92176765,0.15808621,9.76315,0.9089982
1409351486038,0.12389994,9.619304,0.8912416,0.14324498,9.762177,0.92184365
1409351486058,-0.025737667,9.51755,1.06123,0.12941213,9.760882,0.9374428
1409351486060,-0.1316811,9.788095,1.1569979,0.112359576,9.759383,0.9551129
1409351486069,0.047884032,9.830592,1.0965444,0.09287892,9.757875,0.9724352
1409351486096,0.08619126,9.882068,1.1007342,0.078330174,9.756583,0.98657596
1409351486099,0.08080431,9.923966,1.1234791,0.06977978,9.755765,0.9952672
1409351486102,0.06703765,9.853337,1.1875241,0.063369334,9.755194,1.0012825
1409351486133,0.0664391,9.8042555,1.2204443,0.058829352,9.7548275,1.0051397
1409351486136,0.1412579,9.849147,1.1683705,0.054197308,9.754356,1.0099498
1409351486139,0.20231004,9.93893,1.1336545,0.04947861,9.753784,1.0156927
1409351486144,0.14784196,9.916184,1.1749545,0.04510507,9.753185,1.0216355
1409351486161,0.047285482,9.798869,1.1971009,0.040407706,9.75272,1.0262592
1409351486162,-0.03232172,9.679757,1.2318168,0.03425386,9.752422,1.0293033
1409351486169,-0.074220255,9.529521,1.1965023,0.027304187,9.752088,1.0326953
1409351486190,0.016759412,9.624092,1.1647792,0.020688277,9.751942,1.0342296
1409351486194,0.02633622,9.799467,1.0971429,0.01677461,9.751876,1.0349089
1409351486198,-0.13467385,9.7958765,1.1976994,0.014583821,9.751932,1.0344126
1409351486235,0.012569559,9.751583,1.3084313,0.012039982,9.7518425,1.0352801
1409351486237,0.28311434,9.725247,1.2868834,0.006787322,9.750941,1.043786
1409351486239,0.5518635,9.695918,1.2000936,7.5447164E-4,9.749388,1.0582197
1409351486258,1.0307038,9.715671,1.1773487,-0.0022245443,9.748087,1.070131
1409351486269,1.1797429,9.965266,1.1528081,7.110709E-4,9.747186,1.0783108
1409351486274,1.1611878,9.913192,1.347337,0.0064604282,9.746509,1.0843968
1409351486276,1.34195,9.841965,0.8798691,0.012402239,9.745805,1.0906729
1409351486301,1.2294226,10.030508,0.63206923,0.01903174,9.745682,1.0916618
1409351486303,0.99898064,9.991004,0.88405895,0.0249623,9.746235,1.0866016
1409351486304,0.82779527,9.861118,1.0636241,0.029544367,9.746672,1.0825509
1409351486323,0.6679823,9.805453,1.0851719,0.032117724,9.74638,1.0851071
1409351486325,0.50038815,9.761759,1.0893618,0.034120735,9.744531,1.1015339
1409351486330,0.374094,9.750985,1.0480618,0.036582887,9.741926,1.1242496
1409351486339,0.2825158,9.76954,1.0468647,0.03982815,9.739053,1.1487767
1409351486356,0.24480712,9.727043,1.049259,0.044066083,9.735992,1.1742765
1409351486360,0.2220622,9.592369,1.0989386,0.049804773,9.73292,1.1992513
1409351486369,0.16519992,9.48882,1.2042835,0.056525897,9.7299595,1.2227345
1409351486386,0.0700304,9.555858,1.0552444,0.06370281,9.727356,1.2429315
1409351486390,0.04189853,9.650429,0.9463082,0.07126944,9.72564,1.2558804
1409351486410,-0.025139118,9.704298,0.93134445,0.07999489,9.72413,1.2670062
1409351486412,-0.19033903,9.782109,0.9540894,0.08890841,9.722341,1.2800814
1409351486421,-0.30945057,9.768942,0.94690675,0.096256584,9.720124,1.2962703
1409351486442,-0.59495914,9.83957,0.961272,0.102594264,9.718039,1.3113304
1409351486445,-0.6769605,9.8437605,0.9923966,0.10632,9.716236,1.3243273
1409351486450,-0.7320272,9.805453,1.0175357,0.108936615,9.714479,1.3369418
1409351486478,-0.7685388,9.816826,1.0265139,0.11044702,9.712715,1.349588
1409351486480,-0.85772276,9.73662,1.0061632,0.111796975,9.710972,1.3619541
1409351486481,-0.9235633,9.76116,1.0031705,0.11331819,9.709271,1.3739007
1409351486510,-0.95947635,9.779716,0.8948329,0.11515798,9.707666,1.3850428
1409351486512,-1.0217255,9.734225,0.78170687,0.117553495,9.70613,1.3955665
1409351486514,-1.0043676,9.7240505,0.66020113,0.119995914,9.704594,1.4060084
1409351486518,-1.0223241,9.70789,0.581791,0.12283567,9.703179,1.4154875
1409351486548,-0.97025025,9.688137,0.5895722,0.12598434,9.701982,1.4233956
1409351486550,-0.9403227,9.599552,0.60693014,0.13090105,9.7009945,1.4296733
1409351486552,-0.66858083,9.542689,0.5746084,0.13691564,9.70028,1.4339573
1409351486578,-0.74878657,9.405023,0.825401,0.14518778,9.6999,1.4357079
1409351486580,-0.35553896,9.558251,0.7308301,0.15154432,9.699676,1.4365613
1409351486582,-0.7200562,9.601347,1.0408791,0.15868104,9.700305,1.431538
1409351486603,-0.50637364,9.813234,0.87208796,0.15936887,9.701325,1.4245261
1409351486605,-0.40940848,9.983223,0.7230489,0.15894012,9.70312,1.4123031
1409351486620,-0.31244332,10.044274,0.55485624,0.15696254,9.705554,1.3957003
1409351486622,-0.2160767,9.697714,0.6619968,0.15293197,9.708271,1.3771312
1409351486636,-0.207697,9.5385,0.98461545,0.14919776,9.710618,1.360888
1409351486638,-0.22026655,9.494206,1.3269863,0.14188655,9.71231,1.3495635
1409351486653,-0.16759412,9.44752,1.4987702,0.13185805,9.713494,1.3420366
1409351486666,-0.094570965,9.466674,1.6304513,0.12064269,9.714365,1.3367695
1409351486670,-0.062249243,9.554062,1.7310078,0.10884616,9.715052,1.3327801
1409351486687,-0.004189853,9.655217,1.7794905,0.09641718,9.715831,1.3280524
1409351486700,0.090381116,9.762956,1.809418,0.08440102,9.716881,1.321182
1409351486704,0.14784196,9.888652,1.8124107,0.07351868,9.718151,1.3124586
1409351486724,0.19931729,9.922171,1.7369933,0.06380875,9.719502,1.3029186
1409351486726,0.2789245,9.838972,1.5879543,0.05572481,9.72088,1.2929759
1409351486731,0.37110126,9.595362,1.5245079,0.049318157,9.722371,1.2819752
1409351486757,0.42437226,9.500791,1.6466122,0.043755263,9.724016,1.2696341
1409351486759,0.46686932,9.552266,1.9321208,0.038310733,9.725814,1.2559786
1409351486760,0.46926352,9.61691,2.1709423,0.032969374,9.727569,1.2424644
1409351486772,0.51475334,9.621698,2.3187842,0.028309273,9.729072,1.2307547
1409351486791,0.56443304,9.659407,2.349909,0.025059039,9.730213,1.2217606
1409351486792,0.61291564,9.704897,2.268506,0.023543665,9.73111,1.214637
1409351486798,0.59495914,9.744401,2.0009542,0.024175826,9.732064,1.2069623
1409351486825,0.54887074,9.69951,1.9434932,0.026477672,9.733282,1.1970459
1409351486827,0.480636,9.803658,2.0123265,0.029953532,9.734439,1.1875153
1409351486833,0.38067806,9.933543,1.9961656,0.03368249,9.735411,1.1794261
1409351486857,0.30645782,10.034698,1.894412,0.03617957,9.7363405,1.1716332
1409351486859,0.19632454,10.109517,1.7669208,0.03787322,9.737239,1.1641011
1409351486862,0.092775315,10.173561,1.644218,0.03764409,9.738121,1.1567162
1409351486873,0.05207389,10.084377,1.4987702,0.03580138,9.738954,1.14974
1409351486896,0.053869538,9.931149,1.483208,0.032526013,9.739757,1.1430068
1409351486898,0.11252748,9.812635,1.6089035,0.028501872,9.740427,1.1373873
1409351486901,0.16759412,9.711481,1.7208325,0.024615971,9.740871,1.1336703
1409351486929,0.24301147,9.601347,1.7902644,0.020881753,9.7411175,1.1316426
1409351486931,0.26874915,9.537302,1.8142064,0.01752952,9.741201,1.1309716
1409351486933,0.2124854,9.5385,1.8183962,0.013798224,9.741239,1.130698
1409351486955,0.15382746,9.535507,1.8291701,0.008908406,9.741321,1.1300334
1409351486956,0.09756372,9.531317,1.7687165,0.0034235448,9.741417,1.1292396
1409351486961,0.078410104,9.518747,1.721431,-0.0029912908,9.74159,1.127745
1409351486970,0.06823475,9.475652,1.6238673,-0.009947978,9.741838,1.1255635
1409351486987,0.074818805,9.456498,1.5933412,-0.01687573,9.742284,1.1216122
1409351486990,0.2088941,9.356541,1.5269021,-0.023473231,9.742911,1.1160271
1409351486999,0.2837129,9.361329,1.472434,-0.028804654,9.743732,1.1087135
1409351487028,0.3561375,9.424176,1.4574703,-0.03350538,9.744706,1.0999761
1409351487030,0.42078096,9.509769,1.429937,-0.03764029,9.745795,1.0901743
1409351487062,0.45789108,9.565434,1.4227544,-0.045525048,9.749303,1.0580097
1409351487064,0.53929394,9.546879,1.4131776,-0.045525048,9.749303,1.0580097
1409351487066,0.61530983,9.547478,1.3796587,-0.045525048,9.749303,1.0580097
1409351487069,0.6386533,9.583989,1.3976152,-0.046543434,9.750531,1.0465982
1409351487071,0.5931635,9.581595,1.4951789,-0.047237698,9.751976,1.0330343
1409351487096,0.53929394,9.64145,1.5328877,-0.04924144,9.753547,1.0179753
1409351487098,0.46926352,9.774927,1.5753847,-0.05236717,9.755185,1.0020084
1409351487099,0.43634325,9.868899,1.4694413,-0.056481622,9.756888,0.9850468
1409351487114,0.40222588,9.873688,1.2952632,-0.061001584,9.758694,0.9667437
1409351487119,0.49081135,9.782708,1.2479776,-0.06536431,9.760605,0.9469489
1409351487136,0.60453594,9.677961,1.270124,-0.0682764,9.762485,0.9271681
1409351487143,0.6392518,9.643845,1.2425907,-0.0694374,9.764203,0.90880704
1409351487153,0.65242,9.680356,1.264737,-0.069104664,9.765823,0.8912392
1409351487175,0.6290765,9.655815,1.3449428,-0.067987494,9.76732,0.8747633
1409351487177,0.5494693,9.661801,1.2539631,-0.06603622,9.768493,0.86173666
1409351487179,0.23223756,9.747394,0.9403227,-0.063203625,9.769574,0.8496084
1409351487222,0.093373865,9.800066,0.5398925,-0.06158435,9.770941,0.83386785
1409351487226,-0.02633622,9.775525,0.3633201,-0.06033654,9.772765,0.81230015
1409351487229,-0.023942016,9.766547,0.19632454,-0.059897713,9.774811,0.7873136
1409351487233,0.09816227,9.858126,0.1388637,-0.059870314,9.776903,0.76087743
1409351487236,0.272939,9.986814,-0.05686229,-0.059370987,9.778894,0.7349001
1409351487260,0.45669398,10.052056,-0.26156655,-0.05800912,9.780897,0.7078917
1409351487261,0.58119243,10.023924,-0.30286652,-0.056172118,9.782911,0.67964
1409351487263,0.6398504,9.972448,-0.2801216,-0.054817777,9.784884,0.65070266
1409351487311,0.7266402,9.961675,-0.25498247,-0.053641357,9.786781,0.62164664
1409351487312,0.78170687,9.941922,-0.28491,-0.053034987,9.7886715,0.59117144
1409351487314,0.8607155,9.887454,-0.30885202,-0.053339962,9.790578,0.55869126
1409351487315,0.91697925,9.894637,-0.25019407,-0.054825086,9.792396,0.5257073
1409351487317,0.95468795,9.946113,-0.25019407,-0.05812946,9.794034,0.49388126
1409351487334,0.8678981,9.926959,-0.29209262,-0.063342735,9.795564,0.46184477
1409351487335,0.65242,9.869498,-0.35553896,-0.071490824,9.79696,0.429955
1409351487349,0.53211135,9.780912,-0.34596214,-0.08315416,9.798164,0.3993021
1409351487351,0.48123455,9.703101,-0.30526072,-0.09655743,9.799151,0.37109774
1409351487364,0.52073884,9.730635,-0.22625206,-0.11096783,9.799954,0.344941
1409351487381,0.60214174,9.8042555,-0.1388637,-0.12530896,9.800627,0.32002515
1409351487383,0.6931214,9.765948,-0.05626374,-0.13962686,9.801179,0.29629707
1409351487398,0.87089086,9.695918,0.14903906,-0.15445596,9.801599,0.27420798
1409351487399,1.0977415,9.853337,0.26036942,-0.16967198,9.801867,0.25499126
1409351487416,1.1043255,9.852738,0.27832595,-0.18432374,9.802039,0.23754737
1409351487420,1.0696096,9.755175,0.27353755,-0.20023713,9.8021555,0.2192454
1409351487437,0.9840169,9.717466,0.22804771,-0.2177329,9.802215,0.19894378
1409351487443,0.9343372,9.73662,0.20111294,-0.23710123,9.802181,0.17725159
1409351487450,0.86131406,9.767146,0.18495208,-0.25691268,9.802017,0.15766309
1409351487472,0.6889315,9.770139,0.06344634,-0.27708843,9.801701,0.14251345
1409351487474,0.50158525,9.701305,-0.1400608,-0.2985862,9.801242,0.13005203
1409351487479,0.37828386,9.674969,-0.31902736,-0.3216768,9.800674,0.117095515
1409351487503,0.26396075,9.651626,-0.45729253,-0.34546682,9.800002,0.104841016
1409351487505,0.23044191,9.673173,-0.48003745,-0.36996686,9.799224,0.093414195
1409351487522,0.30286652,9.634268,-0.45789108,-0.39473572,9.798333,0.08498539
1409351487524,0.32800564,9.568427,-0.4141969,-0.41891143,9.79737,0.08050562
1409351487533,0.3812766,9.5253315,-0.36152446,-0.442702,9.796332,0.07924948
1409351487556,0.31064767,9.537901,-0.3226187,-0.4659664,9.795249,0.07982699
1409351487558,0.12988544,9.425373,-0.18255788,-0.4893122,9.794104,0.08071546
1409351487562,-0.016759412,9.411607,-0.20111294,-0.5136412,9.792841,0.08259704
1409351487587,-0.077213004,9.421184,-0.30705637,-0.53873163,9.79148,0.084185764
1409351487590,-0.032920275,9.427169,-0.45848963,-0.5642706,9.79004,0.08417115
1409351487593,0.0035913025,9.470863,-0.5907693,-0.5892629,9.788584,0.082375504
1409351487600,0.03172317,9.566033,-0.6584055,-0.6141176,9.787099,0.0772849
1409351487631,0.11851298,9.644443,-0.6775591,-0.6388088,9.785578,0.0691203
1409351487633,0.21667525,9.749189,-0.5847838,-0.66282016,9.784037,0.06068974
1409351487635,0.26396075,9.837775,-0.45429978,-0.6858609,9.782482,0.055056117
1409351487656,0.24361002,9.977237,-0.35254622,-0.7080836,9.780906,0.05395897
1409351487658,0.16579847,10.09575,-0.30286652,-0.7298049,9.779283,0.058438744
1409351487660,-0.06284779,10.2406,-0.30885202,-0.7522655,9.777515,0.06835282
1409351487685,-0.17597382,10.406398,-0.32800564,-0.77765816,9.775419,0.08266016
1409351487687,-0.22266077,10.55843,-0.30406362,-0.80525637,9.773019,0.10037001
1409351487692,-0.2705448,10.713454,-0.32920274,-0.83398813,9.7703905,0.11978198
1409351487699,-0.29448682,10.828975,-0.40102878,-0.866291,9.767293,0.141065
1409351487717,-0.26994625,10.842142,-0.4225766,-0.9028551,9.763651,0.16236673
1409351487731,-0.20051439,10.807426,-0.5129577,-0.9431814,9.759464,0.18348143
1409351487733,-0.08140286,10.683527,-0.7236475,-0.9864006,9.7548,0.20324177
1409351487753,0.31543607,10.51713,-0.676362,-1.0323039,9.749667,0.22082478
1409351487754,0.54767364,10.652402,-0.52073884,-1.0776594,9.744348,0.23823008
1409351487763,0.7661445,10.833763,-0.36631286,-1.1221246,9.738883,0.25568333
1409351487795,0.9211691,11.104307,-0.25378537,-1.1640987,9.73348,0.2731611
1409351487796,1.1623849,11.322779,-0.15083471,-1.2027168,9.728277,0.29065818
1409351487797,1.4808137,11.468824,0.11791443,-1.2360492,9.723534,0.30901918
1409351487803,1.6394296,11.397597,0.1592144,-1.2639158,9.719215,0.33132103
1409351487823,1.6962919,11.377247,0.24181437,-1.2878704,9.715208,0.35566813
1409351487824,1.9488802,11.48319,0.6338649,-1.308879,9.711394,0.3821996
1409351487831,1.958457,11.534067,1.163582,-1.3233025,9.708157,0.41350073
1409351487853,1.775899,11.387422,1.6687586,-1.332836,9.705221,0.45014966
1409351487855,1.2449849,11.161768,1.9764135,-1.3405977,9.702142,0.4915531
1409351487862,0.11851298,10.946889,2.1146786,-1.3508718,9.698411,0.5351497
1409351487889,-0.44232875,11.120468,2.6001031,-1.3696002,9.693418,0.57642454
1409351487891,-2.0931308,10.947487,2.6198552,-1.3901924,9.687881,0.61864394
1409351487895,-2.3469162,11.113286,2.2523453,-1.4238713,9.68071,0.6533154
1409351487900,-2.873042,10.749367,1.3245921,-1.4524413,9.675306,0.670259
1409351487927,-3.1124623,10.247782,0.61530983,-1.4801793,9.671344,0.66676295
1409351487930,-2.7269957,9.635465,-0.557849,-1.4952713,9.670949,0.638188
1409351487933,-2.385822,9.709685,-0.8619126,-1.4945765,9.674668,0.58089435
1409351487966,-1.9249382,9.929952,-1.1085154,-1.4770329,9.68141,0.50897247
1409351487969,-1.4556746,10.450092,-1.3808558,-1.4411343,9.69068,0.4292308
1409351487973,-1.3736732,10.97502,-1.2587515,-1.3866217,9.701892,0.34783027
1409351488002,-1.4047978,11.2928505,-0.9576807,-1.3192874,9.71354,0.27752456
1409351488003,-1.1767502,11.505336,-0.7284359,-1.245487,9.724578,0.2275117
1409351488005,-1.4047978,11.337144,-0.5847838,-1.1656977,9.735125,0.19720249
1409351488006,-1.7753005,11.192893,-0.28550854,-1.0842623,9.744824,0.18209727
1409351488013,-2.2062569,10.901399,0.39803603,-1.0048847,9.753422,0.17710254
1409351488049,-2.8215668,10.645219,1.2024878,-0.92580175,9.760965,0.19198914
1409351488053,-3.457826,10.469246,1.903989,-0.84792936,9.767139,0.23326398
1409351488056,-3.99293,10.401609,2.3463178,-0.7720374,9.771625,0.29947686
1409351488082,-4.0162735,10.197504,2.2864625,-0.6969032,9.774437,0.38093877
1409351488087,-3.8660371,9.753379,1.7860745,-0.61380905,9.776482,0.4626228
1409351488089,-3.5607765,9.451111,1.033098,-0.5192378,9.778487,0.5309966
1409351488092,-2.7982233,9.519346,0.16579847,-0.41419983,9.780833,0.5780395
1409351488109,-2.0632033,9.301474,-0.58418524,-0.29814285,9.783589,0.6023919
1409351488110,-1.8632874,8.731055,-1.0223241,-0.17453313,9.786106,0.60996497
1409351488156,-1.1593921,8.370728,-0.6488287,-0.055054802,9.78736,0.6123475
1409351488158,-1.1653777,8.157045,-0.16101007,0.06606369,9.7867365,0.6211416
1409351488160,-1.1785458,7.8422074,0.28550854,0.18006065,9.783839,0.64377546
1409351488162,-0.8972271,7.644686,0.7942764,0.28852585,9.778643,0.68213177
1409351488164,-0.6027403,7.3083005,1.2467805,0.39389965,9.771024,0.73643035
1409351488165,-0.43873745,6.831256,1.5179238,0.4988152,9.760846,0.8046423
1409351488193,-0.32321724,6.321291,1.8189948,0.60108256,9.748469,0.8811539
1409351488196,-0.2136825,6.0303955,2.0518308,0.69855994,9.734358,0.9616017
1409351488197,-0.05626374,6.0507464,2.1098902,0.79098666,9.718984,1.0421698
1409351488201,-0.055066638,6.3009405,2.0655975,0.8819018,9.702625,1.1187942
1409351488221,0.036511578,6.6750345,1.9135658,0.9727924,9.685912,1.1862515
1409351488222,0.22505496,7.181408,1.644218,1.06558,9.668593,1.2462953
1409351488240,0.4429273,7.764396,1.2958617,1.1600705,9.652041,1.28946
1409351488272,0.79367787,8.099585,1.1599907,1.2561629,9.636414,1.3160446
1409351488273,1.2563573,8.165425,1.1719618,1.3520355,9.621437,1.3305408
1409351488274,1.7465701,7.865551,1.1282675,1.4443202,9.606976,1.3380419
1409351488276,2.168548,7.4974427,1.0522517,1.5289428,9.593265,1.3423972
1409351488282,2.5899277,7.302315,1.0426749,1.6016736,9.580534,1.3484844
1409351488298,3.1106665,7.3603745,1.7501614,1.659609,9.56907,1.3597885
1409351488301,3.9043443,7.6608467,1.8543092,1.7030959,9.558498,1.3802
1409351488316,4.31076,8.152855,1.7561469,1.7361876,9.54934,1.4021926
1409351488331,4.915296,9.106346,1.8974048,1.7607436,9.542545,1.4177462
1409351488333,5.473145,10.025121,1.934515,1.7877845,9.535891,1.4286475
1409351488346,4.5154643,10.338761,2.3517046,1.8139193,9.530209,1.4336002
1409351488362,4.4657845,11.001357,2.4648306,1.8284559,9.526455,1.4400715
1409351488363,4.247314,11.566388,2.730587,1.8457135,9.522566,1.4437633
1409351488378,4.1521444,12.25951,2.7210102,1.8717535,9.517418,1.4441899
1409351488380,4.2066126,12.996924,2.6970682,1.915307,9.510007,1.4358798
1409351488395,4.0940847,13.091495,2.5671828,1.9764744,9.4996805,1.4212831
1409351488411,3.9588125,12.37922,2.4049757,2.0523276,9.485472,1.4086049
1409351488412,4.590882,11.337742,1.8064252,2.1386912,9.466439,1.4081664
1409351488430,5.1265845,9.75697,1.6579847,2.2386615,9.441299,1.4214965
1409351488432,5.269039,8.487445,2.7060466,2.345284,9.41036,1.4543594
1409351488446,5.4647655,7.7757688,3.6332011,2.450056,9.375423,1.5063328
1409351488463,5.321113,8.531139,4.582502,2.551834,9.337871,1.5693022
1409351488464,3.6272156,10.458471,5.7083755,2.6470437,9.3011,1.6288358
1409351488480,2.1841104,13.111846,4.214992,2.7122967,9.272161,1.685484
1409351488481,-1.1474211,12.969391,1.9416976,2.7458448,9.257262,1.7128379
1409351488494,-2.492364,13.033436,1.1109096,2.7442806,9.260246,1.6991713
1409351488511,-2.9520507,13.210607,0.5446809,2.7154043,9.274258,1.668869
1409351488512,-3.1435869,13.572729,0.5770026,2.6569297,9.294796,1.6485944
1409351488531,-3.4243069,14.098855,0.2657564,2.5721133,9.317691,1.6538662
1409351488532,-3.152565,13.556568,-1.2120646,2.4650867,9.345004,1.662724
1409351488545,-2.5953147,11.573571,-1.7776948,2.3566778,9.375201,1.6498698
1409351488562,-2.0901382,9.968259,-1.0378864,2.264171,9.400618,1.6347243
1409351488563,-1.4574703,8.928576,-0.18614918,2.1806486,9.420858,1.631742
1409351488578,-0.39683893,8.031948,0.5793968,2.1088114,9.43608,1.638201
1409351488581,0.5351041,7.4974427,1.0552444,2.0492244,9.447995,1.6451368
1409351488595,0.7368156,7.6572556,1.1456255,1.9947445,9.459785,1.6443379
1409351488612,0.7942764,8.39886,1.3018472,1.9374601,9.473928,1.6313562
1409351488613,0.84694886,9.23683,1.5388732,1.8741344,9.4909115,1.6064286
1409351488626,0.80564886,9.74859,1.6077064,1.8037705,9.510503,1.5707079
1409351488644,0.58657944,9.898827,1.1965023,1.7268618,9.532354,1.5240017
1409351488645,0.17776948,9.910798,0.5117606,1.6450746,9.556978,1.4588661
1409351488661,-0.035314474,10.029909,-0.1364695,1.5606191,9.5828705,1.3796599
1409351488662,-0.39264908,9.972448,-0.6811504,1.4769453,9.610043,1.2791092
1409351488676,-0.97264445,9.276335,-0.85054016,1.3964574,9.63621,1.1678011
1409351488680,-1.1091139,8.875904,-0.84934306,1.3191062,9.659071,1.0642928
1409351488693,-1.0223241,8.96449,-0.7751228,1.2489192,9.677189,0.98112994
1409351488708,-0.8936358,9.515156,-0.32441434,1.189932,9.6905,0.9212264
1409351488715,-0.79726917,9.922769,0.029927522,1.1418217,9.699594,0.8857424
1409351488741,-0.80564886,9.615114,-0.095768064,1.0987018,9.705783,0.8723674
1409351488742,-0.7685388,9.172187,-0.18255788,1.0529857,9.710744,0.87353873
1409351488743,-0.8475474,8.889671,-0.12808979,0.99798024,9.716209,0.8773247
1409351488759,-0.83018947,8.665215,-0.12389994,0.9276598,9.723639,0.8721873
1409351488763,-0.7128736,8.91481,-0.05925649,0.8495133,9.731808,0.86060214
1409351488777,-0.20290859,8.98903,-0.207697,0.75572234,9.741531,0.83776367
1409351488780,0.55246204,9.173384,-0.24779987,0.65694064,9.751026,0.8101281
1409351488797,1.3389573,9.058462,-0.2837129,0.56381816,9.758887,0.78524613
1409351488816,1.7884687,8.87351,-0.14903906,0.4835494,9.764571,0.7679396
1409351488818,2.1511903,8.774151,0.31543607,0.4145894,9.767847,0.7666104
1409351488824,2.3786395,8.760384,0.8110358,0.35445657,9.76816,0.7923492
1409351488854,2.3612814,8.759786,1.1492168,0.30302522,9.765119,0.8491379
1409351488856,2.2876596,8.608951,1.2240356,0.25731853,9.759087,0.92973
1409351488858,2.1481974,8.441956,0.9487024,0.21315774,9.751109,1.0202075
1409351488861,1.6454151,8.007407,0.7272388,0.16736221,9.742226,1.1097084
1409351488883,1.5693992,8.176797,0.6560113,0.117068045,9.732851,1.1951071
1409351488887,1.6771383,8.734647,0.7541735,0.06642054,9.723491,1.2726719
1409351488895,1.7543513,9.041702,1.0097545,0.020365473,9.714544,1.34076
1409351488912,1.8004397,9.178172,1.4951789,-0.019191828,9.705759,1.4029467
1409351488914,1.5705963,9.378088,1.881244,-0.05450367,9.6962185,1.4665613
1409351488933,1.0594343,9.478046,2.2918496,-0.09411234,9.685296,1.5351118
1409351488936,0.504578,9.294889,2.534861,-0.14483014,9.6724205,1.6104981
1409351488944,0.7667431,8.940548,2.022502,-0.20757213,9.657981,1.688412
1409351488969,1.3533225,8.53054,1.1923125,-0.27266055,9.644639,1.7541386
1409351488970,2.3002293,8.430583,1.062427,-0.3329438,9.635279,1.7947026
1409351488973,2.7222073,8.727464,1.3455414,-0.38332692,9.628061,1.8231595
1409351488983,2.6007016,9.103952,1.6490064,-0.42603156,9.623596,1.8371991
1409351489027,2.106299,9.45171,1.5999253,-0.46623763,9.619361,1.8495764
1409351489032,1.5993267,9.720459,1.3634979,-0.5078414,9.614679,1.8629099
1409351489035,1.3958195,10.1065235,1.0007763,-0.54702634,9.611336,1.8690579
1409351489040,1.5957354,10.741586,0.85473,-0.5752906,9.612301,1.8555624
1409351489063,2.408567,11.022904,1.5292963,-0.5837285,9.619194,1.8167963
1409351489065,2.6599581,9.962872,2.0805612,-0.56568086,9.630022,1.7643905
1409351489066,1.9363106,9.679757,2.5462334,-0.5314875,9.641376,1.712243
1409351489067,1.1575965,9.663596,3.4955344,-0.48722133,9.652122,1.6642046
1409351489084,0.2645593,9.562442,2.992752,-0.4367571,9.662309,1.6184669
1409351489085,-0.78170687,9.313444,1.5197195,-0.39290893,9.673651,1.5609237
1409351489092,-2.1930888,8.80767,0.76195467,-0.34883526,9.689048,1.4734511
1409351489112,-2.9059622,8.446744,0.59256494,-0.30691963,9.706884,1.3611066
1409351489113,-3.4404678,8.433576,0.053869538,-0.26089084,9.724943,1.2360382
1409351489132,-3.6894648,9.910199,-0.4369418,-0.20845275,9.742157,1.1033137
1409351489133,-4.091092,12.667123,-0.4770447,-0.14625444,9.757706,0.9675614
1409351489141,-3.6966474,16.456545,-0.33159694,-0.078420006,9.769698,0.84689975
1409351489163,-1.1707647,19.46067,-0.9175778,8.607085E-5,9.777326,0.75784606
1409351489164,-1.216853,19.608511,-2.1039047,0.12890886,9.781984,0.68305475
1409351489181,-1.9590555,19.608511,-2.5737667,0.25930664,9.784667,0.6028636
1409351489182,-2.4959552,18.686146,-1.6250644,0.3570186,9.786046,0.52556586
1409351489196,-2.6779146,14.566921,0.1933318,0.43279922,9.784377,0.49904492
1409351489211,-2.3127987,10.888829,2.3888147,0.4891768,9.779097,0.54808223
1409351489213,-3.3716345,9.569026,4.514866,0.53362435,9.770387,0.65206105
1409351489229,-5.0212393,9.664794,4.9158945,0.55704916,9.759735,0.7795377
1409351489246,-2.7820623,9.877877,2.735974,0.56362563,9.750495,0.8834926
1409351489247,-1.5646108,9.193734,1.8962077,0.62383854,9.744353,0.9103882
1409351489261,-0.75237787,8.348581,1.471237,0.73217696,9.739262,0.8837936
1409351489262,0.24899697,8.342596,1.2384008,0.86585647,9.732616,0.83477265
1409351489278,1.6370354,9.151836,0.90740246,1.0078952,9.723057,0.7853321
1409351489293,1.9375077,9.14226,0.54049104,1.1573402,9.709921,0.740522
1409351489294,2.1942859,8.835801,0.09935937,1.3059169,9.694181,0.69843936
1409351489310,2.3319526,8.413225,-0.07182605,1.4458196,9.676597,0.66594875
1409351489312,2.4307132,7.65127,-0.002992752,1.56956,9.658173,0.65314126
1409351489327,2.3517046,6.715736,0.034117375,1.6786764,9.638779,0.6681343
1409351489345,2.1398177,5.753267,0.059855044,1.7721201,9.61917,0.7082009
1409351489346,2.0332758,5.0421886,0.2705448,1.8505949,9.6,0.765304
1409351489360,1.7363948,4.723161,0.65242,1.9183726,9.580797,0.8358032
1409351489361,1.3976152,4.8147397,1.0971429,1.9784958,9.5609045,0.9192735
1409351489384,1.1426327,4.84766,1.3814543,2.0305514,9.540901,1.0092045
1409351489385,0.9552865,4.7483006,1.4167689,2.073869,9.522014,1.0957611
1409351489392,0.90740246,4.781221,1.3545196,2.1078296,9.505011,1.1756746
1409351489409,0.9684546,4.9302597,1.240795,2.1374354,9.490667,1.2365228
1409351489412,1.1300632,5.217564,1.1540052,2.1583762,9.480543,1.2771499
1409351489425,1.4802152,5.707777,1.1258733,2.1706119,9.4748535,1.2984499
1409351489443,1.8249803,5.931036,1.3239936,2.173274,9.473382,1.3047323
1409351489444,2.0901382,6.1141925,1.5885528,2.165389,9.475487,1.3025469
1409351489461,2.541445,6.699575,1.9644425,2.1454768,9.480681,1.297686
1409351489462,2.9694088,7.726089,2.405574,2.113356,9.48819,1.2955244
1409351489476,3.539827,9.386468,2.815581,2.0701125,9.497325,1.2984142
1409351489494,3.1477766,10.30225,3.74094,2.0191987,9.507077,1.3071815
1409351489495,3.5110967,11.219229,3.8391025,1.9556863,9.517366,1.3286926
1409351489510,3.107674,10.869676,3.3955765,1.8942322,9.526853,1.349577
1409351489512,1.5688007,12.187085,3.7553053,1.8308363,9.538261,1.3564713
1409351489528,-0.6344634,14.987104,4.380192,1.7583721,9.552965,1.3488445
1409351489546,-0.9540894,14.547768,2.1015105,1.6590881,9.5702505,1.3520793
1409351489547,0.45429978,14.137162,-1.1438298,1.5878655,9.584249,1.3383728
1409351489561,3.271078,13.52724,-2.3409307,1.5850459,9.592606,1.2806015
1409351489562,6.0687027,12.339716,-1.4700398,1.6556722,9.589022,1.2164707
1409351489576,8.067263,9.400234,0.5315128,1.7828437,9.568369,1.1992356
1409351489593,8.150461,6.8665705,4.7165775,1.9488794,9.531653,1.2328186
1409351489594,8.093599,7.9822683,8.913014,2.126581,9.484501,1.3008926
1409351489610,6.631939,12.802994,7.374141,2.3105462,9.42899,1.3877672
1409351489612,2.5133133,17.227478,4.1958385,2.4585958,9.383866,1.4383173
1409351489629,-1.4598645,14.700398,3.0759506,2.5035543,9.371356,1.4423358
1409351489644,-3.8576574,13.119627,0.14724341,2.47702,9.376165,1.4568121
1409351489645,-3.0885203,13.214796,-2.130241,2.4171734,9.392695,1.450836
1409351489661,-2.2331917,13.029245,-2.171541,2.3559926,9.412322,1.4240438
1409351489662,-2.296638,12.402563,-2.0841527,2.2938578,9.431664,1.3972564
1409351489677,-2.5983074,11.064803,-1.9674352,2.212778,9.455319,1.367821
1409351489694,-2.2990322,9.972448,-1.1707647,2.1131434,9.482475,1.3370425
1409351489695,-1.8273745,9.534908,-0.48841715,2.016216,9.507413,1.3093361
1409351489708,-1.5460558,9.527725,-0.0077811554,1.9341666,9.52821,1.2816449
1409351489728,-0.90500826,9.448717,0.34237084,1.8633806,9.546393,1.2508389
1409351489729,0.21547815,8.763975,0.3597288,1.7990931,9.56291,1.2183622
1409351489757,0.91697925,8.158242,0.2777274,1.7396417,9.578197,1.1841297
1409351489758,0.9504981,8.239645,0.53211135,1.676424,9.593346,1.152282
1409351489760,0.86969376,8.717288,1.4598645,1.6046555,9.60834,1.129277
1409351489761,0.93373865,9.277532,1.8656816,1.5250226,9.622294,1.1207833
1409351489776,0.8218097,9.6288805,1.2012907,1.4409201,9.636297,1.1117191
1409351489791,0.39444473,9.720459,0.27353755,1.3547835,9.6530695,1.0738784
1409351489793,-0.46267948,9.545084,-0.38307226,1.2647421,9.673274,0.99928755
1409351489809,-0.84694886,8.955511,-0.4782418,1.1664801,9.694783,0.9060253
1409351489813,-1.0001777,8.477868,-0.61052144,1.0672563,9.713969,0.8186264
1409351489828,-0.9379285,8.075643,-0.7793127,0.9703648,9.730664,0.7368477
1409351489844,-0.7930793,8.03554,-0.78050977,0.88461834,9.743797,0.66800624
1409351489845,-0.2908955,8.377911,-0.29508537,0.8141227,9.753498,0.61390406
1409351489868,0.06464344,9.154829,0.17717093,0.7609958,9.7599125,0.5791449
1409351489869,0.3657143,9.707291,0.58538234,0.7228829,9.763619,0.56528527
1409351489873,0.43873745,9.60853,0.6631939,0.6949299,9.765223,0.57260406
1409351489895,0.6099229,9.40203,0.108936176,0.66717356,9.7657795,0.5956506
1409351489897,0.6422446,8.815451,-0.44891283,0.63164544,9.767038,0.61347854
1409351489913,0.41180268,8.5886,-0.49679685,0.57955694,9.770625,0.6077713
1409351489914,0.6955156,8.893262,-0.29628247,0.5058689,9.776284,0.58201545
1409351489922,1.0702082,9.123704,-0.18255788,0.41994202,9.781928,0.5548966
1409351489946,1.7381904,9.301474,-0.22325931,0.33352542,9.786446,0.53350013
1409351489948,2.5264814,9.152434,-0.24241292,0.25027722,9.789399,0.5248241
1409351489953,3.0753522,8.973468,0.14305355,0.1777756,9.790641,0.5311626
1409351489975,3.2980127,9.059061,0.81761986,0.118089356,9.78974,0.5633984
1409351489977,3.0681696,9.214086,1.3479356,0.06961349,9.785829,0.6349264
1409351489994,1.7872716,8.7292595,1.2563573,0.025745122,9.778193,0.74608606
1409351489995,1.1264719,8.365341,1.168969,-0.030146716,9.767161,0.8786539
1409351490008,0.7769185,7.9750857,1.0815806,-0.09846746,9.753382,1.015992
1409351490036,0.84934306,7.7757688,0.8319851,-0.179193,9.737825,1.1458687
1409351490039,1.1091139,8.06008,0.80325466,-0.26622218,9.72161,1.2608845
1409351490042,1.3904326,8.488642,1.2330139,-0.3490102,9.704752,1.366168
1409351490046,1.448492,8.569447,2.1068976,-0.42383316,9.688576,1.4567928
1409351490075,1.2264298,8.480861,2.4720132,-0.48661256,9.672285,1.5428871
1409351490079,0.7350199,8.275558,2.333748,-0.5439553,9.654897,1.6301749
1409351490082,0.86729956,8.2276745,1.714847,-0.60528374,9.636783,1.7136078
1409351490102,1.5682021,8.176199,1.1192893,-0.6688813,9.620363,1.7809079
1409351490103,2.4959552,8.219295,1.1288661,-0.7285361,9.60796,1.8239281
1409351490105,2.9299042,8.655039,1.5490485,-0.78140306,9.599937,1.8441854
1409351490126,2.822764,9.058462,1.9087774,-0.8317965,9.594711,1.8493239
1409351490127,2.4384944,9.452309,2.208651,-0.8841909,9.589934,1.8497996
1409351490147,2.034473,9.791088,2.4396915,-0.93448234,9.584807,1.8516438
1409351490148,1.816002,10.147824,2.7246015,-0.9812519,9.579679,1.8539925
1409351490154,1.5466543,10.433332,3.304597,-1.0121682,9.577351,1.849394
1409351490163,0.85532856,10.45069,3.3782187,-1.0225613,9.579196,1.8340584
1409351490188,0.44651863,10.3770685,2.082357,-1.0158885,9.585351,1.8053771
1409351490190,0.58119243,10.396222,2.2337902,-0.99021524,9.596912,1.7575977
1409351490194,-0.054468088,10.067618,1.377863,-0.944659,9.611937,1.6996108
1409351490215,-0.8523358,9.372701,0.22685061,-0.8912206,9.632005,1.6126428
1409351490217,-1.7172412,8.395866,-0.25797522,-0.82970977,9.656886,1.4921546
1409351490223,-2.4702177,7.8930845,-0.5674258,-0.7579012,9.683848,1.3487223
1409351490249,-3.0909145,8.796297,-0.88645315,-0.6746415,9.710625,1.1912229
1409351490250,-3.4386723,11.899182,-0.6326678,-0.5810072,9.735307,1.0279157
1409351490256,-3.679888,16.242264,0.033518825,-0.486486,9.756031,0.868108
1409351490275,-3.0669725,19.448698,0.014963761,-0.3891976,9.770853,0.7411516
1409351490276,-1.6364368,19.608511,-1.2677298,-0.2826423,9.780593,0.65612113
1409351490290,-2.7455509,19.608511,-1.9548657,-0.1558331,9.788372,0.5778093
1409351490293,-3.3997664,18.121712,-1.0833763,-0.06161774,9.79382,0.49768883
1409351490307,-3.3225534,14.76564,0.47046062,-0.0030259239,9.795791,0.46138477
1409351490323,-2.2080526,11.146805,2.0458453,0.040540393,9.794013,0.49606386
1409351490325,-1.5334862,8.265383,3.5003228,0.0942071,9.788991,0.5806705
1409351490341,-2.6833014,8.307879,5.094861,0.15639168,9.781909,0.67838734
1409351490342,-3.0651767,10.080188,5.5868697,0.20924646,9.774062,0.7709183
1409351490356,-1.8543092,10.254366,4.939238,0.2697019,9.765467,0.85634327
1409351490374,0.36391866,7.453748,2.469619,0.35816923,9.759422,0.8920745
1409351490375,1.1611878,7.215525,1.8836381,0.49970025,9.75598,0.8611498
1409351490390,2.018312,8.257003,1.4059949,0.65686905,9.75169,0.8021511
1409351490393,2.1691468,8.289325,0.25438392,0.8156535,9.745016,0.7346821
1409351490406,2.8856115,8.504205,-0.91578215,0.97509664,9.735358,0.6651362
1409351490423,2.268506,7.992444,-1.2970588,1.1315826,9.722736,0.5986083
1409351490424,2.1428106,7.8649526,-1.0815806,1.2679746,9.708753,0.55023617
1409351490437,1.6256629,7.1251445,-0.64942724,1.3844763,9.693613,0.536179
1409351490442,1.2569559,6.3260794,-0.22385786,1.4814334,9.677743,0.56305534
1409351490460,1.1145009,6.090849,0.22685061,1.5633707,9.661132,0.6235481
1409351490471,1.1737574,5.9843073,0.76554596,1.6387498,9.643415,0.6996049
1409351490473,1.246182,5.8484364,1.3395559,1.7077725,9.62415,0.79347855
1409351490487,1.2838906,5.7640405,1.7405846,1.7706251,9.603778,0.89595634
1409351490494,1.3431472,5.777807,2.0572178,1.8236696,9.583974,0.99602884
1409351490505,1.3120226,5.8484364,2.2110453,1.8659667,9.566018,1.0862136
1409351490523,1.1653777,5.828684,2.136825,1.8962961,9.5514,1.1598271
1409351490524,1.0265139,5.8879404,1.988983,1.913649,9.541382,1.2125895
1409351490538,0.89662856,5.883152,2.011728,1.9178929,9.53647,1.244121
1409351490542,1.1426327,5.856816,1.8830396,1.9089942,9.536364,1.2585452
1409351490556,1.6250644,6.103419,1.8088194,1.8882322,9.540265,1.2602865
1409351490570,2.1619642,6.5577183,1.9668367,1.8563519,9.547189,1.2552059
1409351490573,2.4959552,7.4591355,2.4588451,1.8209141,9.554738,1.2496523
1409351490589,2.6527755,8.537724,2.8999767,1.773359,9.563663,1.2497891
1409351490594,2.8760347,9.743204,3.0388405,1.7142447,9.572997,1.2607477
1409351490606,2.7269957,10.055049,3.1531637,1.6469407,9.5823555,1.2792443
1409351490622,3.0597897,10.081984,2.553416,1.5765096,9.591697,1.2978392
1409351490623,2.0739772,11.919533,2.9885623,1.5172429,9.600481,1.3035084
1409351490640,0.093972415,14.587273,3.788824,1.463149,9.609059,1.3021476
1409351490642,0.4309563,15.446791,1.9476831,1.3990569,9.617845,1.3076982
1409351490654,2.0111294,15.0583315,-0.56203884,1.370533,9.624432,1.2893232
1409351490673,4.138976,14.128783,-1.3162124,1.4113593,9.625636,1.2351538
1409351490674,5.758055,11.971008,0.20111294,1.4960321,9.619481,1.1823153
1409351490686,6.4326215,9.353547,3.702633,1.6239711,9.598861,1.1810973
1409351490695,6.9701195,9.466674,8.287529,1.7709455,9.563949,1.2510124
1409351490713,7.0706763,13.893553,9.287108,1.9475241,9.512015,1.37807
1409351490715,6.0884547,18.517954,5.494693,2.1348934,9.453493,1.4980273
1409351490722,2.9987376,18.061258,2.2870612,2.2848837,9.412825,1.5324603
1409351490747,-2.0266917,12.279262,-0.6147113,2.3569496,9.397864,1.5150381
1409351490748,-2.2780828,10.871471,-1.2587515,2.3609784,9.3991375,1.5007886
1409351490753,-1.7196354,11.428721,-1.2294226,2.3334253,9.403263,1.5179443
1409351490775,-2.4187422,11.304822,-1.0851719,2.2771869,9.412664,1.5448434
1409351490776,-3.0190883,10.372879,-1.0660183,2.1918683,9.4299,1.5630379
1409351490790,-3.2968156,10.246585,-0.3776853,2.1003532,9.449463,1.5705203
1409351490811,-3.0639796,10.635044,0.35913026,1.9917655,9.473552,1.5668724
1409351490813,-2.3127987,10.626065,0.46627077,1.8806282,9.499371,1.5477748
1409351490818,-1.3078327,10.217256,0.5967548,1.7814665,9.524117,1.5125896
1409351490824,-0.11432313,9.923966,0.5758055,1.6937748,9.547705,1.4638504
1409351490846,1.1348516,9.968858,0.5482722,1.6075363,9.570794,1.4093033
1409351490847,1.8435353,10.161591,0.7625532,1.5168163,9.5932865,1.3559248
1409351490854,1.7896658,10.342353,1.1899183,1.4202433,9.61473,1.3077806
1409351490875,1.4508862,10.204087,1.4556746,1.3151722,9.634612,1.2708131
1409351490876,0.95229375,9.685743,1.4670471,1.2052056,9.652434,1.2443489
1409351490889,0.45669398,9.44752,1.3239936,1.0940938,9.668857,1.2192466
1409351490916,0.1352724,9.140464,1.0636241,0.9807319,9.684385,1.1921464
1409351490919,-0.26396075,8.480861,0.7457938,0.869928,9.698923,1.1595395
1409351490921,-0.5674258,7.813477,0.29388827,0.7615365,9.711784,1.1276959
1409351490924,-0.86011696,7.2430587,-0.47405192,0.6571053,9.722976,1.0965146
1409351490948,-0.6596026,7.4986396,-0.6254852,0.5598969,9.733116,1.0598919
1409351490949,-0.31603462,8.292916,-0.30825347,0.4758689,9.74211,1.017462
1409351490954,-0.3824737,9.4535055,0.055066638,0.40945482,9.749326,0.976407
1409351490974,-0.8331822,9.76116,0.25378537,0.3543094,9.754486,0.94597507
1409351490976,-1.0450691,9.683948,0.2777274,0.2974749,9.757295,0.9365543
1409351490990,-1.0486604,9.22067,-0.023942016,0.23064007,9.7581415,0.9465099
1409351491003,-0.93373865,8.878897,-0.1316811,0.15908422,9.758427,0.9582389
1409351491004,-1.1061212,8.966286,0.09995792,0.07625863,9.759012,0.9624381
1409351491020,-1.1109096,8.852561,0.108337626,-0.020890666,9.759795,0.9572569
1409351491024,-0.31902736,8.362348,-0.092176765,-0.12861031,9.7592325,0.95460904
1409351491037,0.19871874,8.124125,-0.038905777,-0.23321109,9.756788,0.95973116
1409351491062,0.85772276,8.264784,0.20470424,-0.32541037,9.75277,0.9736364
1409351491064,1.3724761,8.374918,0.54527944,-0.396759,9.747305,1.0015157
1409351491066,1.661576,8.286931,0.8762778,-0.44760728,9.739761,1.0521792
1409351491074,1.7190368,8.133103,1.2162545,-0.48772097,9.729033,1.130674
1409351491096,1.6280571,7.8290396,1.6178818,-0.5300877,9.714084,1.2352959
1409351491097,1.4993688,7.2550297,1.8489223,-0.58330435,9.695117,1.3545657
1409351491104,1.4293385,6.7265096,1.6831238,-0.6452064,9.673716,1.4742162
1409351491131,2.0153193,6.818088,0.8912416,-0.72170466,9.651801,1.5786984
1409351491132,2.2188265,7.4681134,0.90979666,-0.80399805,9.63308,1.6515906
1409351491134,2.042254,8.304289,1.3323733,-0.8818016,9.618472,1.6964047
1409351491167,2.0177135,9.000402,2.1374235,-0.9498011,9.606227,1.7287837
1409351491169,1.9590555,9.275736,2.2092497,-1.0097878,9.593011,1.7677315
1409351491172,1.5646108,9.2308445,1.7417817,-1.0715343,9.577194,1.8164701
1409351491199,1.1258733,9.351153,2.0452468,-1.1412699,9.559799,1.8649697
1409351491212,1.1258733,9.323022,2.0338743,-1.2141591,9.542522,1.9069471
1409351491215,1.4688427,8.853159,1.4640543,-1.2808459,9.527762,1.9368969
1409351491216,1.9961656,8.699332,1.210269,-1.3350089,9.515905,1.9584868
1409351491218,2.2840683,9.153033,1.8034325,-1.3782878,9.507534,1.9691437
1409351491225,1.8794483,9.731233,2.6013002,-1.4052284,9.501721,1.9781419
1409351491243,1.0354922,10.011953,2.8191724,-1.4240246,9.4957905,1.993111
1409351491245,0.47884035,10.222643,2.4049757,-1.4412616,9.489992,2.008285
1409351491255,0.23044191,10.341754,2.6276364,-1.452401,9.488829,2.0057507
1409351491278,0.16519992,9.8437605,3.2237926,-1.4496996,9.494487,1.9807805
1409351491280,0.8122329,9.55047,2.8514943,-1.4257275,9.506359,1.940836
1409351491286,1.0660183,9.382876,2.0410569,-1.3659142,9.526,1.8867993
1409351491310,2.2469583,9.776723,1.5981296,-1.2758642,9.552393,1.8150411
1409351491312,0.6194997,8.993818,0.077811554,-1.1589227,9.585076,1.7186013
1409351491315,-0.7086837,8.0684595,-0.7811083,-1.0587692,9.617745,1.5963656
1409351491324,-1.9620483,7.8583684,-1.1719618,-0.9608023,9.652289,1.4424101
1409351491346,-3.3452983,9.31524,-1.5071499,-0.86484903,9.687197,1.2572347
1409351491348,-4.6471453,12.7096195,-1.4706384,-0.77457917,9.719295,1.0515432
1409351491354,-5.1200004,17.92898,-1.1468226,-0.6960186,9.744903,0.850183
1409351491369,-4.26946,19.608511,-1.7932571,-0.62183225,9.763535,0.67611
1409351491374,-3.5242648,19.608511,-3.4554317,-0.52296525,9.778237,0.5319798
1409351491388,-5.479729,19.608511,-4.2197804,-0.40482536,9.79065,0.3868851
1409351491410,-6.420052,19.115906,-2.7611132,-0.33622307,9.797781,0.24664369
1409351491412,-5.765238,14.95179,-0.37349546,-0.32531598,9.799598,0.18014088
1409351491415,-4.049194,9.947908,1.4107834,-0.32777745,9.798692,0.22041269
1409351491423,-4.6710877,7.515399,3.5565867,-0.30460832,9.79724,0.30282736
1409351491441,-5.7454853,11.597513,5.5683146,-0.28541523,9.793581,0.4179735
1409351491445,-4.276643,13.016676,5.455787,-0.28237692,9.787009,0.552382
1409351491454,-1.2958617,12.209231,4.3861775,-0.23352355,9.782267,0.65050507
1409351491470,0.75477207,9.648034,2.9981391,-0.1068696,9.782285,0.6825515
1409351491475,1.2838906,7.662044,2.516306,0.058841262,9.784292,0.65920395
1409351491485,2.110489,7.0024414,1.2557588,0.22095644,9.784917,0.6139888
1409351491511,3.13401,7.651869,0.5153519,0.37782013,9.783514,0.5572434
1409351491513,4.137779,8.139089,-0.15861586,0.53798217,9.779226,0.4976707
1409351491517,3.9097314,7.928399,-0.5201403,0.7016334,9.771367,0.4455448
1409351491524,3.1441853,6.867768,-0.45250413,0.8587902,9.760652,0.40316346
1409351491546,1.963844,5.5246205,-0.11611878,1.0028166,9.747312,0.3932944
1409351491548,1.5526398,4.7548847,0.32800564,1.1219264,9.733184,0.4204957
1409351491555,1.2180501,4.0456023,0.6667852,1.2216156,9.718346,0.48146483
1409351491568,0.973243,3.5966895,0.961272,1.3126608,9.701852,0.5669313
1409351491575,0.9696517,3.3566709,1.1761516,1.398392,9.68357,0.665864
1409351491586,0.9840169,3.2944214,1.3120226,1.4772702,9.664171,0.7693226
1409351491611,1.0103531,3.4751837,1.2850877,1.5475352,9.644839,0.86752224
1409351491612,1.0127473,3.892972,1.2276269,1.6082995,9.62678,0.9533576
1409351491615,1.1749545,4.4298716,1.311424,1.657936,9.611244,1.0225556
1409351491623,1.501763,5.159505,1.5059528,1.6954739,9.59894,1.0752227
1409351491647,1.816002,6.1010246,1.6741456,1.727086,9.588101,1.1206635
1409351491648,1.8309658,7.0395517,1.7633295,1.7438115,9.581049,1.154564
1409351491657,1.8046296,7.703344,1.7196354,1.7429225,9.578139,1.1797786
1409351491672,2.1134815,8.186374,1.7190368,1.7226937,9.5796,1.1974913
1409351491685,2.6922798,8.807071,2.1763294,1.686662,9.584828,1.2069126
1409351491693,3.0418332,9.725247,2.3343468,1.639067,9.592573,1.2109511
1409351491712,2.5623944,10.262746,2.8060043,1.5799739,9.602937,1.2073423
1409351491714,2.2038627,10.532093,2.8526914,1.5065525,9.61564,1.2000767
1409351491716,1.5490485,10.225636,2.5408466,1.426606,9.629309,1.1880997
1409351491723,1.3150153,10.6398325,2.3110032,1.3456115,9.643791,1.1649113
1409351491738,-0.11971009,14.045585,3.4326868,1.2730496,9.657667,1.1310108
1409351491754,-0.08319851,15.77719,2.710835,1.1854774,9.671251,1.1099206
1409351491755,1.3311762,15.075689,0.26755205,1.1121168,9.681641,1.0951731
1409351491769,3.1124623,14.1216,-0.85173726,1.0927556,9.68769,1.0606419
1409351491788,5.0140567,12.302606,0.14604631,1.1394802,9.687348,1.0135376
1409351491789,6.427833,10.242993,2.5929205,1.2352957,9.676606,1.0038503
1409351491802,6.4805055,9.989806,7.401076,1.3627971,9.653887,1.0562358
1409351491804,6.775591,14.013861,9.7563715,1.5169581,9.616532,1.17965
1409351491821,6.290765,19.024326,6.2740054,1.6984993,9.566026,1.3329151
1409351491824,3.750517,18.71727,2.2750902,1.8665413,9.525368,1.3977865
1409351491835,0.23044191,16.164454,0.96067345,1.9672697,9.508206,1.3763146
1409351491851,-1.8273745,13.374609,-0.45968673,1.9931864,9.506561,1.3501451
1409351491855,-1.6298528,11.328764,-1.5370775,1.9917151,9.509312,1.3328345
1409351491867,-2.695871,9.172187,1.079785,1.9645365,9.513868,1.340632
1409351491885,-2.7802668,9.097368,1.7824832,1.9048654,9.520519,1.3789772
1409351491886,-2.373851,9.427169,1.4203602,1.822729,9.532886,1.4043425
1409351491908,-1.7411832,9.889849,1.0815806,1.7418115,9.548294,1.4023528
1409351491910,-1.1204864,10.299257,0.84335756,1.6780417,9.562802,1.3810809
1409351491916,-0.7787141,10.478823,0.35075054,1.6315241,9.574655,1.3544465
1409351491924,-0.48841715,10.196306,-0.26515785,1.5915678,9.585605,1.3241969
1409351491945,0.17357962,10.00477,-0.5189432,1.5458349,9.5985985,1.2836148
1409351491946,0.801459,10.302849,-0.42676646,1.4895455,9.614461,1.2303654
1409351491955,0.6404489,10.370484,-0.44711718,1.4294177,9.63066,1.1736838
1409351491971,0.2124854,10.092757,-0.57281274,1.357662,9.648213,1.1131518
1409351491986,-0.15622166,9.640253,-0.5434838,1.2709295,9.665775,1.0620342
1409351491987,-0.57879823,9.159617,-0.3788824,1.1706977,9.682298,1.0261445
1409351492007,-0.712275,9.027337,0.12210429,1.0614845,9.6977825,0.99833065
1409351492009,-0.7966706,9.050681,0.5386954,0.9476895,9.712349,0.97084993
1409351492016,-0.85891986,8.856153,0.49679685,0.832804,9.725861,0.9404519
1409351492024,-0.8499416,8.306683,0.18016368,0.7210104,9.738239,0.9040145
1409351492045,-0.7517793,7.690176,-0.17178397,0.616096,9.749229,0.86216044
1409351492047,-0.5518635,7.36636,-0.42078096,0.5203484,9.758501,0.81931674
1409351492057,-0.38486794,7.8607626,-0.38486794,0.4376304,9.765653,0.7815905
1409351492069,-0.7715315,8.305486,-0.16639702,0.36284402,9.771369,0.74772567
1409351492094,-1.0755951,8.751406,0.107739076,0.29869363,9.775165,0.72616035
1409351492097,-1.2934675,9.056666,-0.10414778,0.2392074,9.777202,0.7207734
1409351492099,-1.371279,9.090185,-0.6847417,0.17549598,9.777999,0.7282278
1409351492104,-1.2623428,9.129689,-0.82599956,0.10210516,9.778481,0.7357108
1409351492125,-0.97264445,9.233239,-0.6087258,0.016869886,9.779259,0.7322575
1409351492127,-0.55126494,9.442133,-0.41120413,-0.08129589,9.779811,0.7204706
1409351492136,0.32621,9.703101,-0.34117374,-0.18643852,9.779038,0.7113801
1409351492157,1.3808558,10.15381,-0.16819267,-0.28474137,9.776661,0.71149
1409351492159,2.2900538,10.1861315,0.08738836,-0.36586934,9.77306,0.7237632
1409351492164,2.698864,9.635465,0.3286042,-0.43322557,9.768717,0.7449077
1409351492203,2.8119898,9.338584,0.7062895,-0.4863269,9.763194,0.7835399
1409351492204,2.8748376,9.387066,0.9983821,-0.5275228,9.755962,0.84457684
1409351492206,2.7808652,9.340978,1.2138603,-0.5604424,9.746276,0.9308184
1409351492207,2.3451207,8.948928,1.258153,-0.59229434,9.73365,1.0371201
1409351492222,1.8016368,8.541913,1.0726024,-0.6341213,9.718155,1.1514134
1409351492234,1.5394717,8.16363,0.91817635,-0.69159716,9.700497,1.2619214
1409351492237,1.922544,7.6650367,1.067814,-0.7612181,9.681552,1.3632594
1409351492250,2.0829554,6.991069,1.827973,-0.83282083,9.662202,1.4555589
1409351492255,1.9668367,6.71813,2.123657,-0.90124553,9.642543,1.542562
1409351492267,1.5394717,6.694188,2.1679497,-0.9643915,9.6228,1.6254379
1409351492285,0.9151836,7.08145,2.5761611,-1.0252731,9.602356,1.7070308
1409351492286,0.8265981,7.645883,2.7060466,-1.0825101,9.581625,1.7863469
1409351492302,1.0965444,8.009203,1.9333179,-1.1304654,9.561751,1.8615456
1409351492306,1.7806876,8.310274,1.5101427,-1.1688584,9.544528,1.9251357
1409351492323,2.1057005,9.264363,1.9135658,-1.1969274,9.531862,1.970124
1409351492324,2.0727801,10.148422,2.35769,-1.2182554,9.524038,1.9947271
1409351492335,1.6831238,10.705673,2.5384524,-1.2386947,9.5187435,2.0073757
1409351492360,1.2084733,11.058219,2.368464,-1.2619647,9.513585,2.017305
1409351492362,0.89423436,11.475409,1.9925743,-1.2857327,9.509239,2.0227814
1409351492365,0.90979666,11.6747265,2.1990743,-1.302264,9.50896,2.0135014
1409351492392,1.2078748,11.349114,2.4821887,-1.3041912,9.513926,1.9886476
1409351492395,1.9189527,10.691308,2.3535004,-1.2963332,9.521178,1.9588422
1409351492396,2.5198972,10.590752,2.1751323,-1.265952,9.533986,1.9159546
1409351492404,2.9191303,10.964247,2.5384524,-1.2109219,9.551866,1.8617011
1409351492421,2.3708582,11.113884,2.4211364,-1.137654,9.572977,1.7984102
1409351492436,-0.20051439,9.686341,0.24839842,-1.0654689,9.595924,1.7185494
1409351492437,-1.8148049,8.748413,-0.060453594,-1.0193151,9.620293,1.6066619
1409351492452,-3.093907,8.197148,-0.54647654,-0.9838924,9.643813,1.4829806
1409351492455,-4.4220905,8.196549,-0.9816227,-0.9541591,9.665769,1.3538516
1409351492467,-5.2205567,9.568427,-0.9720459,-0.925944,9.686209,1.2208055
1409351492483,-5.6377463,12.369643,-0.4237737,-0.89090973,9.705422,1.0869523
1409351492484,-4.6800656,16.33444,0.31244332,-0.8431774,9.721986,0.97078276
1409351492501,-3.3452983,19.279308,0.8535329,-0.77544767,9.736728,0.87477154
1409351492504,-3.5464113,19.488802,0.4417302,-0.6658563,9.749603,0.8199223
1409351492516,-3.933075,17.957111,0.51834464,-0.5493034,9.7594795,0.78817284
1409351492533,-3.8546648,15.334862,1.0456676,-0.44809395,9.765577,0.7766186
1409351492535,-3.247136,12.380417,1.9578584,-0.36438552,9.7677145,0.7933301
1409351492548,-2.6030958,10.071808,2.8455088,-0.29296297,9.76592,0.84344584
1409351492557,-3.0107086,9.488221,3.7235823,-0.23216903,9.761509,0.91074705
1409351492573,-3.3985693,9.986814,3.7858315,-0.18400808,9.756625,0.9719986
1409351492576,-2.557606,10.737396,3.1950622,-0.13557649,9.754323,1.0025866
1409351492584,-1.2910733,10.424355,2.5719712,-0.05599654,9.756288,0.99102473
1409351492615,-0.18136078,9.75697,2.2284033,0.049262043,9.759573,0.9584967
1409351492618,1.1599907,8.986636,1.7824832,0.18758984,9.762929,0.90578157
1409351492621,2.2050598,9.203311,1.5035586,0.34124136,9.76407,0.8467092
1409351492657,2.717419,9.344569,0.74998367,0.49556977,9.762263,0.78931034
1409351492660,1.95307,8.454525,-0.079008654,0.64378786,9.757921,0.7341057
1409351492662,1.5735891,7.5962033,-0.5069722,0.7773009,9.751712,0.6857804
1409351492669,1.2557588,6.519411,-0.43394905,0.8919104,9.744111,0.6536054
1409351492673,1.3640964,5.7706246,0.024540568,0.9896107,9.735007,0.64860713
1409351492705,1.5897499,5.465364,0.6171055,1.0789753,9.723713,0.67500705
1409351492706,1.6262615,5.043386,1.0821792,1.1652106,9.709908,0.72825176
1409351492708,1.70946,4.964976,1.4736311,1.2499031,9.694222,0.7938275
1409351492709,2.0248961,5.141548,1.6436194,1.3326269,9.676255,0.87440443
1409351492715,2.2679076,5.153519,1.4748282,1.4124594,9.656771,0.96027654
1409351492734,2.202067,5.118803,1.2473791,1.4873339,9.636863,1.0436049
1409351492735,2.0578163,5.258864,1.1336545,1.5527649,9.618185,1.1179525
1409351492753,1.9458874,5.445013,1.1563994,1.6073779,9.601396,1.1831968
1409351492771,1.6627731,5.7005944,1.09834,1.6521442,9.586443,1.2413363
1409351492773,1.5406688,6.1106014,1.0378864,1.6862676,9.57398,1.2906641
1409351492790,1.6166847,6.531981,1.0522517,1.7093928,9.564546,1.3296149
1409351492792,1.532289,6.794146,1.4161704,1.7225133,9.55815,1.35835
1409351492795,1.8884265,7.08145,1.6747441,1.7232096,9.554819,1.3807203
1409351492804,2.6114755,7.7374616,2.9712043,1.7201558,9.552567,1.3999808
1409351492818,3.4398694,9.01776,3.3554738,1.7079087,9.551534,1.4218466
1409351492839,4.26527,10.462662,3.4512417,1.6879506,9.552075,1.4419016
1409351492840,4.4382515,11.324574,3.4680011,1.66515,9.55323,1.4606466
1409351492845,4.0665517,11.084556,3.5691562,1.6384169,9.555214,1.4777865
1409351492856,4.9176903,10.664971,3.043629,1.6032343,9.558954,1.4921266
1409351492879,2.2780828,11.743559,4.39336,1.5789517,9.563155,1.4910996
1409351492884,0.57879823,13.854647,4.083311,1.5341413,9.569583,1.4966344
1409351492887,0.7026982,14.348451,1.9201498,1.4694752,9.578252,1.5060312
1409351492906,1.8746599,13.6170225,0.2220622,1.4295657,9.5865345,1.4916865
1409351492907,3.6990416,12.121843,-0.55725044,1.4459292,9.589014,1.4596219
1409351492916,5.4845176,10.056246,0.23343466,1.4958111,9.585006,1.4354893
1409351492936,6.783372,8.380304,2.8658595,1.5851349,9.56795,1.4532903
1409351492937,6.7983356,9.874885,7.2789717,1.7028445,9.537095,1.5213597
1409351492951,3.8217444,14.768035,9.288904,1.8447189,9.491723,1.6354233
1409351492970,3.7714663,19.434933,5.109825,1.9495094,9.449004,1.7567332
1409351492973,0.48123455,18.863914,2.8712463,2.0446372,9.424545,1.7798336
1409351492986,-2.9855695,15.560515,2.2080526,2.0871212,9.42027,1.7529566
1409351492989,-3.4207156,13.542802,-1.7010803,2.0745702,9.4250345,1.7422049
1409351493005,-2.219425,12.28405,-0.6739678,2.0404756,9.434043,1.7336984
1409351493006,-2.630629,11.234193,-1.2198458,1.9945322,9.437801,1.7663995
1409351493016,-2.966416,9.667787,-1.2755109,1.9232008,9.44669,1.79771
1409351493033,-2.7988217,9.264363,-0.077811554,1.8545297,9.457628,1.8122897
1409351493037,-2.2014685,9.671976,0.90740246,1.7785119,9.471873,1.8140866
1409351493058,-1.002572,9.514558,1.4933833,1.7115701,9.486255,1.8033067
1409351493060,0.5602432,8.677784,1.7669208,1.6611079,9.4989605,1.7834897
1409351493065,1.3245921,7.814076,1.459266,1.6195896,9.511813,1.7529228
1409351493091,1.5011644,8.136695,0.9391256,1.5737456,9.527502,1.7089245
1409351493093,1.4287399,9.138668,1.2539631,1.5210444,9.546202,1.6513276
1409351493096,1.3670892,9.855731,1.7316064,1.4621929,9.565545,1.5914491
1409351493105,1.210269,9.60015,1.5071499,1.3956739,9.584137,1.5384482
1409351493117,0.91578215,9.211691,0.87089086,1.3202968,9.6036825,1.4820559
1409351493133,0.30765492,9.294889,0.34356794,1.2378124,9.6246395,1.4158114
1409351493148,-0.11133038,9.278131,0.10474633,1.1434098,9.648911,1.3272183
1409351493162,-0.3274071,8.996812,0.030526072,1.0430584,9.673223,1.2293028
1409351493191,-0.66020113,8.514978,-0.23283611,0.94500023,9.694258,1.1396196
1409351493194,-1.0857705,8.036138,-0.5781997,0.85131025,9.711568,1.0635394
1409351493196,-0.55605334,8.015787,-0.7493851,0.7633612,9.725782,0.99842477
1409351493197,-0.34237084,8.701127,-0.45609543,0.6921867,9.736628,0.94304717
1409351493199,0.01436521,9.466674,-0.037708677,0.6390632,9.744167,0.9017834
1409351493218,0.23642741,9.576208,0.22744916,0.59898865,9.74869,0.88015026
1409351493220,0.29328972,9.083601,-0.11791443,0.56148267,9.750642,0.883236
1409351493235,0.25617957,8.507197,-0.6901286,0.5147402,9.75155,0.90150344
1409351493237,0.26635495,8.631696,-0.7224504,0.4591361,9.752838,0.91747665
1409351493253,0.1604115,8.597578,-0.43394905,0.3822747,9.75614,0.9176006
1409351493256,0.24121583,8.977059,0.039504327,0.28447175,9.760942,0.90193135
1409351493266,0.3854665,8.802282,0.13587095,0.17406464,9.765071,0.88515204
1409351493281,0.91697925,8.265982,-0.11492168,0.0626324,9.7668295,0.8806331
1409351493284,2.212841,8.392874,-0.24420857,-0.038070202,9.765835,0.89299107
1409351493303,2.8407204,8.453327,0.11851298,-0.115896665,9.762749,0.91962713
1409351493320,3.0735564,8.486248,0.91458505,-0.17317688,9.757221,0.9680039
1409351493323,3.0765493,8.491036,1.4041992,-0.2165909,9.74777,1.0509248
1409351493328,2.5725696,8.329428,1.6406267,-0.25548708,9.733874,1.1648207
1409351493337,2.0057425,8.425196,1.5221137,-0.30174893,9.71727,1.2860738
1409351493356,1.5490485,8.596381,1.168969,-0.35571164,9.699547,1.4009517
1409351493357,1.42455,8.3868885,0.7673417,-0.4220849,9.682903,1.4945242
1409351493364,2.0380642,8.99741,1.0929531,-0.4960082,9.667787,1.5678899
1409351493383,2.1978772,9.385869,1.7866731,-0.56202596,9.654099,1.6287696
1409351493401,2.3349452,9.424775,2.4103625,-0.6154186,9.641122,1.6853608
1409351493403,2.3211784,9.238028,2.677316,-0.6571098,9.627802,1.7447237
1409351493418,1.6394296,9.012374,2.259528,-0.6947182,9.613856,1.8059745
1409351493419,1.2599486,9.07582,1.8890251,-0.73721737,9.600333,1.8602403
1409351493431,1.5436616,9.1033535,1.3838485,-0.7811434,9.588051,1.9051194
1409351493436,2.336741,8.8567505,0.6901286,-0.8201354,9.577642,1.940753
1409351493449,3.164536,8.802282,0.8343793,-0.85188365,9.569177,1.9686434
1409351493465,3.177704,9.040505,1.5951369,-0.872801,9.563339,1.9877539
1409351493466,2.2852654,9.322423,1.9363106,-0.8902853,9.559239,1.9996897
1409351493480,1.5514427,9.778519,2.1769278,-0.9124629,9.555588,2.0071232
1409351493485,0.6607997,9.886856,2.9771898,-0.933448,9.552358,2.0128443
1409351493499,-0.2789245,9.6049385,3.4123359,-0.94980484,9.549817,2.0172453
1409351493516,-0.33758244,9.063849,2.9496565,-0.95821,9.549862,2.013052
1409351493518,0.53450555,8.9602995,2.5270798,-0.94489604,9.556388,1.9882168
1409351493531,1.4562732,9.451111,3.165733,-0.9019024,9.571551,1.9345179
1409351493536,1.6418238,10.340557,2.4821887,-0.8359794,9.593101,1.855794
1409351493546,1.0803835,11.28088,0.7009025,-0.76036143,9.620303,1.7441362
1409351493562,0.20829555,11.444284,-0.95349085,-0.6892497,9.649978,1.6041385
1409351493565,-1.3994108,10.557831,-1.1360487,-0.6154925,9.681065,1.4382459
1409351493581,-1.9895816,10.168773,-1.8297687,-0.5501022,9.70862,1.2690531
1409351493585,-3.0903158,10.825383,-2.6970682,-0.4808837,9.73381,1.0918279
1409351493597,-3.6894648,13.739725,-2.6809072,-0.40860564,9.756606,0.90115625
1409351493616,-5.125387,18.112135,-1.8447324,-0.33088163,9.775568,0.7065227
1409351493618,-5.719149,19.608511,-1.2276269,-0.2715442,9.787637,0.54666007
1409351493632,-4.519056,19.608511,-1.4628572,-0.22070305,9.793428,0.4587585
1409351493637,-4.373009,18.964472,-0.9816227,-0.15197174,9.796239,0.42545712
1409351493650,-4.0252514,15.268423,0.6362591,-0.09351269,9.796595,0.43403557
1409351493668,-3.6864722,11.572972,2.5570073,-0.04706512,9.794644,0.48283145
1409351493669,-2.5031378,8.607155,3.9959226,2.5967386E-4,9.789274,0.5835101
1409351493688,-2.4947581,6.3260794,4.9416323,0.050411798,9.78067,0.7115835
1409351493689,-3.6457705,6.8486137,5.6401405,0.10208207,9.770998,0.82919574
1409351493697,-2.3828292,9.432556,5.5120506,0.14454526,9.762954,0.91336805
1409351493716,-0.44831428,10.061034,4.4448357,0.20917599,9.758322,0.9496324
1409351493718,1.1426327,9.32781,3.2010477,0.32597092,9.757502,0.9248206
1409351493733,2.0260932,8.55987,2.0404584,0.47754088,9.758118,0.84939975
1409351493750,2.9735985,8.713697,1.2132617,0.6319947,9.757655,0.7477613
1409351493751,4.8003745,10.009559,-0.362123,0.7834307,9.75411,0.6433926
1409351493765,4.0743327,8.820838,-1.0833763,0.9461132,9.745707,0.5444997
1409351493767,3.1429882,7.5668745,-1.0642227,1.0948285,9.734675,0.455892
1409351493781,2.1691468,6.6708446,-0.6314707,1.2180525,9.722451,0.40084875
1409351493785,1.614889,5.7365074,-0.14544775,1.3139007,9.7104025,0.39006957
1409351493797,1.7788919,5.1601033,0.30107087,1.3919519,9.698056,0.42493924
1409351493811,1.9476831,4.9841294,0.6757634,1.4639177,9.684144,0.4946388
1409351493816,1.8363527,4.706402,0.8726865,1.5359905,9.667938,0.58489484
1409351493830,1.6986861,4.460996,0.94810385,1.6048586,9.650183,0.6846768
1409351493849,1.5209166,4.345476,1.0660183,1.6629488,9.632738,0.7844617
1409351493851,1.3634979,4.3047748,1.18094,1.7068532,9.617063,0.87701374
1409351493871,1.1522095,4.2916064,1.3006501,1.736167,9.60424,0.95637894
1409351493873,1.110311,4.4316673,1.3617022,1.7510344,9.595163,1.0183897
1409351493877,1.2078748,4.794389,1.4155718,1.7594898,9.588071,1.069332
1409351493886,1.3826514,5.2325277,1.650802,1.755249,9.585227,1.1013358
1409351493906,1.5783775,5.710171,1.9488802,1.7393985,9.586451,1.1157336
1409351493908,1.8632874,6.2644286,1.9644425,1.7112144,9.591258,1.1179998
1409351493918,2.4636335,7.049727,1.846528,1.6708362,9.599244,1.1104981
1409351493944,3.280655,9.753978,2.5797524,1.6211596,9.609651,1.0940111
1409351493946,3.2794578,10.864887,3.0226796,1.566925,9.620275,1.0795763
1409351493948,3.3608606,11.642405,3.425504,1.5035092,9.631238,1.0719664
1409351493972,3.2543187,11.593922,2.9161377,1.435525,9.641592,1.0720979
1409351493974,3.072958,12.373833,2.682703,1.3714855,9.652276,1.0597113
1409351493977,0.8487445,15.297153,3.775656,1.3119166,9.662979,1.0373627
1409351494008,0.0035913025,16.70674,2.3229742,1.233736,9.674673,1.0242133
1409351494010,1.0474633,15.732898,-1.5466543,1.1576394,9.684813,1.0171779
1409351494012,3.0364463,13.959393,-3.2495303,1.1352609,9.691003,0.9828765
1409351494018,5.513248,12.29243,-1.7190368,1.1869171,9.689677,0.93369424
1409351494048,5.9561753,10.232818,2.980781,1.2975593,9.6756935,0.9314941
1409351494049,5.7574563,12.142793,8.134899,1.4330041,9.647772,1.0185177
1409351494050,5.976526,17.711706,7.12694,1.5957781,9.603999,1.1777508
1409351494068,3.7600937,19.607914,4.1718965,1.7743851,9.556588,1.3013824
1409351494069,-0.08080431,17.84997,3.0023289,1.9062023,9.524429,1.3498306
1409351494077,-1.9351135,13.469779,2.0111294,1.9504241,9.508213,1.4000468
1409351494085,-2.2505496,9.953894,0.076015905,1.9680972,9.493391,1.4739404
1409351494097,-1.2455834,9.060856,0.049081136,1.9623944,9.477897,1.5776129
1409351494112,-1.3156139,8.269572,1.970428,1.9327649,9.464777,1.6890339
1409351494117,-1.7663223,8.711902,2.1350293,1.8797246,9.458664,1.7806454
1409351494128,-2.2756886,9.023148,2.4289176,1.805309,9.465011,1.823412
1409351494146,-1.9710265,9.130288,1.9548657,1.7246158,9.480291,1.8221359
1409351494147,-1.3162124,9.404425,1.1887212,1.6551182,9.497883,1.7947727
1409351494160,-0.272939,9.8515415,0.29269117,1.5999603,9.514744,1.7550404
1409351494166,0.82779527,10.312426,-0.21787235,1.5546408,9.5324955,1.6985359
1409351494192,1.8100165,10.603321,-0.6823475,1.3973504,9.599806,1.4358056
1409351494193,2.047641,10.854712,-1.0540473,1.3973504,9.599806,1.4358056
1409351494197,1.513734,10.58716,-0.9888053,1.3973504,9.599806,1.4358056
1409351494211,1.0127473,9.814431,-0.65301853,1.3187574,9.622475,1.3561896
1409351494230,0.3345897,9.153631,-0.34955344,1.2249997,9.641241,1.3100586
1409351494231,-0.15382746,9.050082,0.1364695,1.1197695,9.657523,1.2840356
1409351494253,-0.2765303,9.328408,0.7308301,1.0076069,9.67382,1.2539287
1409351494255,-0.3705027,9.475652,1.0073603,0.89172995,9.690429,1.2127818
1409351494257,-0.5434838,9.312846,0.89303726,0.7739979,9.705734,1.1704847
1409351494265,-0.5554548,8.940548,0.51834464,0.6549645,9.718623,1.1356845
1409351494278,-0.40701428,8.324639,0.02633622,0.5388887,9.729025,1.1072727
1409351494297,-0.45968673,7.851186,-0.30107087,0.43332553,9.737289,1.0806483
1409351494299,-0.5398925,8.071452,0.04189853,0.33614773,9.743986,1.0545751
1409351494315,-0.985214,8.103176,0.63206923,0.25878832,9.74804,1.0388082
1409351494318,-1.1240777,7.9301944,0.5967548,0.19959407,9.749208,1.0409107
1409351494340,-1.0887632,7.903858,0.17717093,0.1495416,9.748272,1.0579373
1409351494342,-1.0205284,7.5926123,-0.33518824,0.09761954,9.746622,1.0789952
1409351494347,-0.8158242,7.5590935,-0.65541273,0.039246555,9.746015,1.0881395
1409351494365,-0.40641573,7.7440453,-0.7026982,-0.028211804,9.747271,1.0771756
1409351494366,0.002992752,7.848193,-0.51834464,-0.1046604,9.7497425,1.0497522
1409351494381,0.76434886,7.709928,-0.29688102,-0.18550329,9.752125,1.0158967
1409351494403,1.6651673,7.6704235,0.11671733,-0.26165932,9.753442,0.98605454
1409351494404,2.1392193,8.1480665,0.6865373,-0.3241645,9.752975,0.9720155
1409351494409,2.460641,8.793304,1.3682863,-0.3765086,9.751036,0.97258306
1409351494420,2.6246436,8.558074,1.5574282,-0.41596398,9.746157,1.0048844
1409351494442,2.718616,8.349778,1.5310919,-0.44883823,9.738334,1.0647931
1409351494444,2.6366146,8.328231,1.4796166,-0.4799547,9.728425,1.1391888
1409351494446,2.2906525,8.304887,1.2731167,-0.51626575,9.717086,1.2174206
1409351494472,2.191293,8.377911,0.89303726,-0.56649303,9.70497,1.2895787
1409351494473,2.2948422,8.668207,0.5363012,-0.6300802,9.693545,1.3448317
1409351494478,2.48578,9.17099,0.54647654,-0.69735974,9.683858,1.3809435
1409351494502,2.7647045,9.60015,1.335366,-0.7587686,9.675284,1.4083822
1409351494503,3.0346506,9.931747,2.0452468,-0.80990404,9.665637,1.445653
1409351494506,2.4654293,9.863512,2.356493,-0.8513765,9.654949,1.4924797
1409351494518,1.5975311,9.869498,2.6677392,-0.8959048,9.642179,1.5479437
1409351494537,1.1240777,9.512163,2.3535004,-0.9446031,9.62762,1.6084354
1409351494538,1.0666169,8.883685,1.3760674,-0.9958401,9.613048,1.6637375
1409351494546,1.6077064,8.485051,1.1420342,-1.0472424,9.600041,1.7067169
1409351494566,2.247557,8.610147,1.5711949,-1.0933816,9.589189,1.7385014
1409351494568,2.3523033,8.96449,1.9369092,-1.132285,9.58065,1.7605373
1409351494583,1.804031,9.257181,2.0572178,-1.1661761,9.5741205,1.7738737
1409351494601,0.770933,9.850943,1.6430209,-1.1979126,9.569089,1.7798721
1409351494603,0.10235212,10.454282,1.6825253,-1.2258472,9.566972,1.7722137
1409351494606,-0.19153613,10.594342,2.0901382,-1.241321,9.56914,1.7495868
1409351494618,-0.26515785,10.388441,1.8513165,-1.2477752,9.572945,1.7239977
1409351494633,0.20051439,10.295067,0.6691794,-1.2283465,9.58162,1.6894138
1409351494638,1.0977415,10.40939,1.146224,-1.1764421,9.596816,1.6393595
1409351494649,2.1853075,10.527904,2.1871033,-1.0943449,9.617068,1.5763205
1409351494682,1.1683705,10.006566,1.2880806,-0.9873049,9.640759,1.500459
1409351494689,-0.3764882,9.266159,-0.035314474,-0.87917364,9.6662,1.4007261
1409351494691,-3.0831332,8.611345,-0.6051345,-0.7716953,9.691886,1.2814941
1409351494712,-4.0857053,10.34774,-0.48243165,-0.6730615,9.715488,1.1518232
1409351494713,-4.341286,14.313136,0.14724341,-0.57895154,9.736755,1.0152736
1409351494714,-4.324527,18.942326,0.9427169,-0.48661667,9.754416,0.88597447
1409351494729,-2.8844144,19.608511,-0.020949265,-0.39103082,9.767017,0.78921795
1409351494730,-3.120842,19.608511,-2.2260091,-0.2682615,9.778103,0.69797236
1409351494745,-3.7475243,19.218258,-2.5139117,-0.15312721,9.787122,0.59932375
1409351494746,-3.493739,15.840637,-0.7541735,-0.07095292,9.7931385,0.5097037
1409351494760,-2.2900538,11.815984,1.0696096,-0.019722207,9.794841,0.48074237
1409351494777,-1.1881226,8.075643,2.6342204,0.024080986,9.792449,0.5270237
1409351494778,-2.783858,7.453748,4.408324,0.07587533,9.7868395,0.61842126
1409351494795,-3.0508115,10.940904,5.1289787,0.122773275,9.7795515,0.71813834
1409351494797,-0.83378077,12.230181,4.6513352,0.1748663,9.772495,0.79885787
1409351494811,0.51475334,10.353725,3.430891,0.28671524,9.767436,0.8279016
1409351494830,1.4514848,8.399458,2.532467,0.4452939,9.763937,0.7985136
1409351494831,2.0644004,7.69257,2.2218192,0.61006624,9.759058,0.74766487
1409351494846,2.2050598,7.4549456,1.7429788,0.769464,9.752207,0.68761283
1409351494847,1.9979613,7.397485,1.2318168,0.9178911,9.74315,0.6315823
1409351494862,2.5719712,7.801506,0.7140707,1.0527561,9.732464,0.58416414
1409351494877,2.4073699,7.4447703,-0.05207389,1.1835698,9.7195425,0.5477736
1409351494878,1.2623428,6.541558,0.16759412,1.3054289,9.705046,0.52760756
1409351494892,0.94810385,5.7418942,0.20051439,1.4094951,9.689996,0.5363643
1409351494898,0.9672575,5.052963,0.23642741,1.4991105,9.6744995,0.5719389
1409351494909,1.1737574,4.6782703,0.3429694,1.5797381,9.658162,0.62828857
1409351494929,1.4185646,4.5124717,0.54767364,1.6594799,9.640045,0.697185
1409351494930,1.7244238,4.6004586,0.7541735,1.7371868,9.620533,0.77325
1409351494942,1.6903064,4.8506527,0.7858967,1.811982,9.60014,0.8511422
1409351494947,1.5263035,5.1379566,0.90381116,1.8765229,9.580774,0.92617613
1409351494962,1.6130934,5.473145,1.1767502,1.9275359,9.564083,0.9916075
1409351494968,1.7112557,5.805341,1.3425486,1.9643395,9.550849,1.0454992
1409351494986,1.8351556,6.1608796,1.2940661,1.9855806,9.541859,1.0866613
1409351494987,1.8710686,6.6109896,1.2294226,1.9902395,9.537714,1.1141514
1409351494998,2.0572178,7.223905,1.3162124,1.9753368,9.539043,1.1291981
1409351495020,2.143409,7.6853876,1.4903905,1.9409666,9.545384,1.1352081
1409351495022,2.3080103,7.802105,1.7776948,1.8875853,9.555888,1.1368326
1409351495027,2.4714148,8.111555,2.2679076,1.816761,9.569601,1.136877
1409351495050,2.9484594,9.184157,2.718616,1.7301561,9.585516,1.137921
1409351495051,3.401562,10.501567,3.198055,1.6405507,9.600788,1.1418741
1409351495058,3.2190042,11.575965,4.0641575,1.5460892,9.614978,1.1542121
1409351495080,2.995745,10.094553,3.0789435,1.4504834,9.627058,1.1773785
1409351495082,0.40282443,12.082937,4.2102036,1.3664972,9.638596,1.1834534
1409351495095,-0.9840169,14.98052,4.016872,1.2720063,9.649847,1.1970196
1409351495098,-0.8738836,14.602835,1.0456676,1.1675704,9.660427,1.2179209
1409351495112,1.0354922,13.782222,-2.2774844,1.1017697,9.669733,1.2052994
1409351495130,3.5272577,12.441469,-2.6324248,1.1138605,9.675668,1.1450655
1409351495131,6.405088,10.688913,-1.0821792,1.1926148,9.671241,1.1023511
1409351495146,5.881955,9.494206,4.4538136,1.3209516,9.65215,1.1231501
1409351495147,5.2444987,12.223597,8.92738,1.4554489,9.621865,1.2131582
1409351495162,5.765238,17.235859,6.588843,1.5921131,9.578706,1.3725808
1409351495178,3.957017,19.139847,4.2760444,1.7430501,9.538379,1.4667987
1409351495179,-0.14664486,16.934189,3.8391025,1.8631245,9.514931,1.4714743
1409351495193,-2.961029,13.754689,2.3127987,1.9080727,9.5088,1.4534073
1409351495199,-2.8963854,12.036849,-0.79128367,1.8969104,9.50994,1.4605267
1409351495209,-2.2319946,11.462839,-1.2180501,1.8632232,9.511588,1.4928129
1409351495233,-1.8106151,11.217434,-0.3609259,1.8139,9.5138235,1.5386055
1409351495234,-1.9686323,10.259154,0.39803603,1.7470429,9.519523,1.5801637
1409351495238,-2.0919337,9.161413,0.760159,1.6714348,9.528266,1.6089953
1409351495249,-1.4173675,9.419987,0.664391,1.602874,9.538121,1.6203297
1409351495267,-0.6817489,9.67018,0.24720132,1.5466493,9.547894,1.617403
1409351495269,0.42916065,9.44333,0.19871874,1.4951013,9.558885,1.6008775
1409351495279,1.2785037,8.805874,0.14604631,1.4473132,9.57125,1.5706244
1409351495301,1.4305356,8.735245,0.09636662,1.3952,9.586162,1.5262113
1409351495303,1.3257892,9.1272955,0.58777654,1.329266,9.604264,1.4702281
1409351495308,1.0749966,9.405023,1.062427,1.2478824,9.6236315,1.4138281
1409351495338,0.7613561,9.475053,0.8218097,1.1565621,9.641481,1.3691578
1409351495340,0.32621,9.400833,0.49081135,1.0594002,9.658431,1.32769
1409351495342,-0.15203181,9.638457,0.3842694,0.95918727,9.67605,1.2745278
1409351495346,-0.5650316,9.505579,0.24779987,0.85526043,9.694265,1.2083658
1409351495363,-0.9636662,8.913014,0.022744916,0.74878687,9.711013,1.1427835
1409351495376,-1.0642227,8.283937,-0.40222588,0.6401149,9.725715,1.0821891
1409351495378,-0.95588505,7.7811556,-0.6338649,0.5339847,9.737545,1.0322149
1409351495395,-0.56084174,7.8266454,-0.5374983,0.43728814,9.746626,0.9911767
1409351495399,-0.46028528,8.572439,-0.17836803,0.36021483,9.753157,0.95738435
1409351495409,-0.7422025,9.609129,0.49919105,0.30370998,9.757228,0.9352327
1409351495429,-0.7577648,10.222643,1.0097545,0.2566855,9.758659,0.9343875
1409351495430,-1.1677719,9.504382,-0.13826515,0.2089692,9.757271,0.96042615
1409351495447,-1.1779473,7.890092,-0.6691794,0.1492153,9.755282,0.9912562
1409351495450,-1.1821371,8.208521,-0.5931635,0.07223697,9.754313,1.0092297
1409351495470,-0.6991069,8.760384,-0.25019407,-0.026167,9.755154,1.0033458
1409351495472,-0.26515785,8.991425,0.046686932,-0.12949118,9.755765,0.98927176
1409351495482,0.74758947,8.9519205,0.16220717,-0.23769525,9.755796,0.9686773
1409351495501,1.5460558,8.925584,0.29328972,-0.33642918,9.754115,0.9562679
1409351495503,2.2876596,9.04709,0.45848963,-0.41909257,9.750563,0.9598259
1409351495507,2.5677812,9.075222,0.736217,-0.4809702,9.745521,0.98178226
1409351495530,2.734777,9.012972,1.2126632,-0.52800184,9.73804,1.0306244
1409351495532,2.782661,8.622119,1.4622587,-0.56849533,9.726301,1.1163603
1409351495556,2.6515784,8.166622,1.5143325,-0.61233974,9.709816,1.2308131
1409351495558,2.4570496,7.626131,1.5340848,-0.66703874,9.690113,1.3517238
1409351495560,2.255338,7.162853,1.3251907,-0.7355778,9.669359,1.460421
1409351495583,2.28347,7.0102224,1.2066777,-0.81548303,9.649296,1.548056
1409351495585,2.3014264,7.213131,1.2479776,-0.8970068,9.629443,1.6246827
1409351495587,2.1583729,7.547721,1.7064673,-0.9736756,9.611601,1.6850725
1409351495616,2.023699,7.8853035,2.2068555,-1.0404233,9.594789,1.7401094
1409351495618,1.726818,8.26239,2.2026656,-1.0979038,9.576949,1.8019547
1409351495620,0.81402856,9.276335,2.4863784,-1.1504205,9.55775,1.8698499
1409351495627,1.0522517,9.448118,1.8207904,-1.2030582,9.53824,1.9352076
1409351495655,1.5879543,9.303269,0.98940384,-1.249289,9.522797,1.9814229
1409351495657,2.142212,9.624092,1.0977415,-1.2864152,9.513062,2.0042918
1409351495662,2.509722,10.149619,1.9674352,-1.3119569,9.508415,2.0097744
1409351495696,2.384625,10.404602,2.508525,-1.3263179,9.50612,2.011203
1409351495698,1.8375498,10.371083,2.5761611,-1.3347592,9.503632,2.0173786
1409351495700,1.0929531,10.392631,2.260725,-1.3455635,9.500314,2.0258057
1409351495715,0.65062433,10.301053,2.284667,-1.3549514,9.497979,2.03049
1409351495716,0.60333884,9.974244,2.5773582,-1.3571429,9.4994755,2.0220103
1409351495718,0.44113165,9.415198,2.4582467,-1.3465511,9.506683,1.9950364
1409351495729,0.15682021,9.089587,1.6514006,-1.3215444,9.51943,1.9504858
1409351495743,0.47764325,8.978256,1.7711107,-1.2783843,9.536892,1.8930981
1409351495748,0.7380127,8.704121,2.1559787,-1.214442,9.557705,1.829156
1409351495759,-0.28311434,7.9661074,1.3652935,-1.1385804,9.581433,1.752195
1409351495779,-1.158195,7.2867527,0.3489549,-1.0637857,9.608304,1.6490176
1409351495781,-2.7712884,6.6469026,-0.37110126,-0.9844704,9.637877,1.5206916
1409351495794,-3.6284127,7.4232225,-0.9044097,-0.90852207,9.666574,1.3792601
1409351495812,-4.6375685,10.120291,-0.75836337,-0.8245109,9.695722,1.2180086
1409351495814,-3.3650506,19.540876,1.1336545,-0.7357137,9.721883,1.055525
1409351495828,-0.46986207,19.608511,-0.45669398,-0.620355,9.742787,0.9293249
1409351495831,-1.6693572,19.608511,-3.2920272,-0.43887073,9.762109,0.8240046
1409351495848,-3.3051953,19.608511,-3.544017,-0.27365285,9.778397,0.6917326
1409351495850,-3.752911,17.732056,-1.9434932,-0.1648902,9.789271,0.55978024
1409351495859,-2.7856536,12.668919,0.5434838,-0.11022542,9.793199,0.5015309
1409351495883,-1.9698294,8.028357,3.0651767,-0.06887016,9.790956,0.550304
1409351495885,-3.7499185,7.721899,5.54557,-0.0269062,9.78413,0.66365737
1409351495887,-3.7415388,10.7751045,6.041768,7.6937693E-4,9.774103,0.79831254
1409351495920,-1.5867572,11.108498,4.872799,0.025970856,9.762563,0.92849374
1409351495922,-0.26515785,9.577405,3.6008794,0.104281776,9.755698,0.9929162
1409351495924,0.24899697,8.4425535,3.0621839,0.23963012,9.753775,0.9883529
1409351495928,1.4173675,8.1343,2.8927941,0.39634603,9.752636,0.94836164
1409351495950,1.9303252,7.8906903,2.4480712,0.55442935,9.749082,0.90465695
1409351495951,2.7964275,7.9331875,1.4359225,0.7082088,9.742622,0.86611944
1409351495959,2.9041667,7.9583263,0.5638345,0.85946953,9.733695,0.82878774
1409351495978,2.9011738,7.8607626,-0.053869538,1.0022954,9.722682,0.7970418
1409351495980,2.486977,7.2729864,-0.2885013,1.1320668,9.709634,0.7821926
1409351495993,1.816002,6.345233,-0.11731588,1.2451105,9.694796,0.79437405
1409351496009,1.5035586,4.961983,0.5291186,1.3410273,9.679595,0.8230799
1409351496011,1.602918,4.709395,0.6793547,1.4301758,9.661915,0.8788702
1409351496028,1.5951369,4.5352163,0.6278794,1.5149667,9.642409,0.94828564
1409351496031,1.4790181,4.4005427,0.60812724,1.5966063,9.621733,1.0215181
1409351496056,1.4383167,4.5005007,0.6931214,1.6693361,9.601735,1.0910457
1409351496058,1.4616601,4.6561236,0.8571242,1.7301525,9.58366,1.1534429
1409351496059,1.489792,4.8638206,1.0570401,1.778637,9.568237,1.20651
1409351496082,1.5556326,5.105635,1.2653356,1.8145261,9.556125,1.2483506
1409351496084,1.5873557,5.4863133,1.3545196,1.836662,9.547872,1.2787521
1409351496088,1.513734,5.9597664,1.3640964,1.842395,9.544183,1.297911
1409351496114,1.6077064,6.3925185,1.34195,1.8294525,9.545525,1.3063129
1409351496116,1.8896236,6.7959414,1.5077485,1.8073169,9.549274,1.3097119
1409351496119,2.1134815,7.150882,1.9087774,1.76687,9.557299,1.3063755
1409351496128,2.5420437,7.651869,2.3145945,1.7081549,9.568654,1.3013427
1409351496153,3.0059202,8.622718,2.7736826,1.6339196,9.58217,1.2972084
1409351496155,3.4871547,10.283096,3.157952,1.5471951,9.596729,1.2959061
1409351496159,3.3051953,11.76391,3.739743,1.4556907,9.610669,1.2986159
1409351496182,3.5769374,12.58572,3.306991,1.362397,9.623714,1.3032272
1409351496183,3.304597,11.877036,3.7301662,1.2863662,9.636045,1.2892952
1409351496188,0.35553896,15.824476,3.977966,1.2307512,9.645429,1.2733202
1409351496211,0.010175358,15.069105,1.6454151,1.1581018,9.653606,1.2794915
1409351496212,1.4544775,13.971364,-1.3784616,1.1203953,9.658834,1.273582
1409351496229,3.8253357,12.960412,-1.7010803,1.122893,9.663569,1.2348756
1409351496231,5.6736593,12.467805,1.1318588,1.1901261,9.661033,1.1909862
1409351496239,3.4290953,12.917915,6.2045736,1.299509,9.645073,1.2059172
1409351496263,4.532822,16.45475,4.31076,1.3989999,9.616397,1.3183733
1409351496265,3.1070752,19.040487,3.366846,1.5255201,9.583783,1.412199
1409351496281,-1.3144168,18.83698,3.911527,1.6492739,9.559096,1.4401293
1409351496282,-2.630629,16.229694,2.0147207,1.7091385,9.550737,1.4257073
1409351496287,-2.7431567,12.260108,-1.4460979,1.7299701,9.549,1.412167
1409351496344,-2.1122844,9.088988,-1.1408371,1.7233925,9.545481,1.443654
1409351496348,-1.3108255,8.000225,0.33638534,1.6957723,9.537966,1.5238012
1409351496349,-1.2791022,7.7877398,1.471237,1.655054,9.530807,1.6108699
1409351496351,-1.5215151,7.299921,2.0632033,1.615177,9.527566,1.6694617
1409351496352,-1.0103531,7.2747817,2.0626047,1.5734352,9.530076,1.6948043
1409351496373,-0.12509704,8.735245,2.124854,1.5440422,9.536286,1.6868805
1409351496374,0.42317516,9.891046,1.7280151,1.5242192,9.543975,1.6612306
1409351496376,1.4927847,9.725247,-0.12150574,1.5025926,9.553525,1.6256542
1409351496399,1.3437457,10.298658,-0.85772276,1.471979,9.567896,1.5681214
1409351496401,0.7697359,11.244369,-0.7703344,1.4149103,9.589385,1.4873224
1409351496403,-0.08200141,11.428123,-0.19871874,1.3301424,9.615373,1.3948884
1409351496408,-0.8026561,11.148002,-0.49440265,1.2225499,9.640453,1.3181121
1409351496440,-1.2228385,10.251971,-1.0498575,1.0977789,9.6629305,1.2621652
1409351496442,-1.3587095,9.597756,-0.6979098,0.968258,9.683384,1.2103513
1409351496445,-1.3467385,9.094376,-0.0688333,0.8380308,9.701838,1.1586498
1409351496457,-1.359308,8.263587,0.2136825,0.7100104,9.717878,1.1086533
1409351496459,-1.3227965,7.5644803,0.39923313,0.58648574,9.730152,1.0726562
1409351496472,-1.086369,7.2909427,0.28790274,0.4738016,9.738954,1.0482004
1409351496493,-0.60932434,7.391499,0.17118542,0.380693,9.745679,1.0233371
1409351496495,-0.15801731,8.045714,0.09816227,0.3128636,9.751288,0.9924241
1409351496510,0.14963761,8.950125,0.18974048,0.27136284,9.755903,0.9587089
1409351496511,0.12569559,9.64564,0.6655881,0.25075552,9.758804,0.93447864
1409351496525,-0.28311434,9.873688,0.79487497,0.23420915,9.7591505,0.93515027
1409351496536,-0.41240123,9.337387,0.15622166,0.2016225,9.757577,0.95886785
1409351496566,-0.54767364,8.847773,-0.5614403,0.15813538,9.756125,0.9815286
1409351496568,-0.57640404,8.720282,-0.95468795,0.0913504,9.756736,0.9839555
1409351496569,-0.41359833,9.481637,-0.6392518,0.0022173838,9.759691,0.9585557
1409351496570,0.29328972,9.272144,-0.45310268,-0.10313889,9.762636,0.9223218
1409351496591,1.1707647,8.732851,-0.29269117,-0.20879297,9.763458,0.8953747
1409351496592,1.8543092,8.541314,-0.005985504,-0.3007045,9.7616825,0.88854986
1409351496608,2.420538,8.576031,0.4902128,-0.37270635,9.757668,0.9052076
1409351496609,2.554613,8.2593975,0.8631097,-0.42712522,9.7510395,0.9514304
1409351496624,2.6330233,7.8888946,1.3706805,-0.47383463,9.740675,1.03205
1409351496643,2.3355439,7.727286,1.7561469,-0.51774055,9.725542,1.1472481
1409351496644,1.9686323,7.4268136,1.7465701,-0.56556493,9.706779,1.2763152
1409351496655,1.7770962,6.96593,1.3485341,-0.6192557,9.684189,1.4154092
1409351496659,1.8022354,6.595427,0.8002619,-0.6873623,9.660303,1.5415742
1409351496673,2.107496,6.525397,0.6793547,-0.77105993,9.637352,1.6423504
1409351496690,2.4061728,6.8785415,1.2802993,-0.8597578,9.616876,1.7166625
1409351496691,2.392406,7.1844006,2.4019828,-0.9413378,9.59912,1.7723371
1409351496709,1.9081788,7.526173,2.8754363,-1.0118983,9.582419,1.8231016
1409351496710,0.9696517,7.845799,3.0370448,-1.0766771,9.5649185,1.8771038
1409351496724,0.5823896,8.326435,2.8000188,-1.1414019,9.545763,1.9354619
1409351496728,0.87448215,8.496424,1.8183962,-1.2029645,9.527105,1.9893583
1409351496742,1.8920178,8.359954,0.89543146,-1.258032,9.5130005,2.022524
1409351496756,2.8694508,9.270349,1.6154876,-1.3056659,9.503271,2.038011
1409351496759,2.19249,9.878476,2.2655134,-1.3339447,9.499831,2.0357313
1409351496771,1.1971009,10.353127,2.119467,-1.3587381,9.498596,2.025062
1409351496790,0.85891986,10.712257,2.3930047,-1.3823458,9.4980755,2.0114906
1409351496791,0.28491,10.684125,3.1316159,-1.3953103,9.499074,1.9977789
1409351496806,0.046088383,10.2896805,3.2603042,-1.39761,9.502663,1.97901
1409351496810,0.15861586,10.197504,2.6515784,-1.3834785,9.511239,1.947485
1409351496825,1.0055647,10.533889,2.7748797,-1.3416264,9.526977,1.8992455
1409351496841,2.0057425,10.851719,3.180697,-1.2646607,9.549351,1.838734
1409351496842,1.4269443,10.727221,1.5771804,-1.1607628,9.577117,1.7612089
1409351496855,-0.12509704,10.579379,-0.6159084,-1.0535022,9.610711,1.6415777
1409351496859,-1.216853,10.298658,-1.1779473,-0.95964044,9.645537,1.4876357
1409351496873,-2.6018987,9.783905,-1.4628572,-0.8625245,9.680191,1.3116192
1409351496889,-3.4231098,10.270527,-1.8920178,-0.77049804,9.711061,1.1278362
1409351496890,-3.8983588,13.115437,-1.9303252,-0.67957723,9.738125,0.9367361
1409351496908,-4.196437,18.108545,-1.590947,-0.58581257,9.760926,0.74263275
1409351496909,-3.8845923,19.608511,-1.8734628,-0.49028966,9.777759,0.5704846
1409351496924,-4.4645877,19.608511,-3.2052376,-0.3889101,9.788655,0.44873863
1409351496940,-6.069301,19.608511,-3.5093012,-0.31399325,9.795053,0.3588082
1409351496941,-5.6347537,13.379397,0.80086046,-0.3029474,9.797025,0.31131694
1409351496959,-3.9282866,9.216479,2.9472623,-0.2928896,9.794432,0.39206398
1409351496960,-2.202067,5.2139726,4.2425256,-0.25989634,9.789496,0.51827395
1409351496974,-3.015497,4.983531,5.789778,-0.21163164,9.780757,0.68001467
1409351496990,-3.2638955,8.702923,6.249465,-0.16082513,9.768986,0.84348905
1409351496991,-1.0319009,10.657789,5.5563436,-0.10612076,9.757821,0.9716449
1409351497006,0.81402856,9.753978,4.0815153,-0.0071978755,9.752144,1.0324867
1409351497008,1.8369513,8.013991,2.5965118,0.14989999,9.752739,1.0158862
1409351497033,2.831742,7.9571295,1.9590555,0.33407092,9.755336,0.94457394
1409351497034,3.952827,8.403648,1.246182,0.5195216,9.755605,0.85362583
1409351497040,3.6984432,8.429385,0.5069722,0.70342153,9.751487,0.764253
1409351497059,3.5338416,8.446145,-0.2753332,0.8730422,9.74351,0.68716395
1409351497062,3.3518825,8.152855,-0.587178,1.0262955,9.732518,0.6286428
1409351497076,2.1278467,7.049727,-0.36272156,1.1710635,9.718934,0.58424836
1409351497080,1.3928268,6.0770826,-0.18794483,1.294857,9.703589,0.5780033
1409351497088,1.1659763,5.2768207,0.034117375,1.3987203,9.687239,0.60941786
1409351497109,1.1450269,4.956596,0.3788824,1.4938154,9.668955,0.6709838
1409351497113,1.1348516,4.687248,0.62608373,1.5868677,9.648145,0.752026
1409351497138,1.2695254,4.490924,0.85772276,1.6736275,9.62613,0.84082776
1409351497140,1.4030021,4.5382094,1.0127473,1.7498726,9.604429,0.92913496
1409351497142,1.4263457,4.8907557,1.2090719,1.812442,9.584549,1.0108715
1409351497157,1.5239093,5.446809,1.364695,1.8611169,9.567327,1.082998
1409351497161,1.7286136,6.0878563,1.4293385,1.8964678,9.553533,1.1418571
1409351497173,2.124854,6.619968,1.6711528,1.9184307,9.543883,1.1850369
1409351497210,2.6605566,7.2149267,1.9309237,1.9356467,9.536002,1.2199656
1409351497213,3.2465374,7.801506,1.8219875,1.9394916,9.532223,1.2431864
1409351497215,3.627814,8.218098,1.8968062,1.9310712,9.532561,1.2536587
1409351497220,4.1701007,8.610147,2.2278047,1.9087257,9.536528,1.257703
1409351497224,4.107253,9.148245,3.5595794,1.8736424,9.542805,1.2628298
1409351497258,4.6375685,10.08318,3.8732197,1.8214355,9.550336,1.2821301
1409351497260,4.9164934,11.221623,3.8504748,1.7591717,9.5583515,1.3090544
1409351497262,4.1892543,11.242573,4.437653,1.695192,9.56634,1.3348615
1409351497277,4.341286,9.998186,3.5302503,1.627362,9.574738,1.3588638
1409351497280,1.4437037,10.216059,3.9719806,1.56922,9.5833645,1.3664076
1409351497282,-1.0193313,14.036606,4.3023806,1.4864055,9.594809,1.3786464
1409351497290,-0.092176765,14.762049,1.827973,1.3696749,9.607781,1.4088795
1409351497309,1.5197195,13.68406,-0.9235633,1.2969693,9.616519,1.4180361
1409351497310,4.6980224,11.8818245,2.2343888,1.3047636,9.61846,1.3975837
1409351497330,4.5040917,11.735778,6.0387754,1.3827258,9.601476,1.4388047
1409351497332,4.5280337,14.128783,5.2840033,1.4800513,9.56852,1.5566853
1409351497341,3.8965633,17.55309,2.8263552,1.5995628,9.53178,1.6604075
1409351497378,-0.010773907,17.663223,2.8909986,1.7299601,9.505398,1.680788
1409351497380,-1.733402,14.704588,3.0609868,1.8082879,9.495604,1.6534903
1409351497382,-2.2421699,11.828553,1.2156559,1.8484658,9.490472,1.6384547
1409351497383,-1.5544355,10.274716,0.5919664,1.8535404,9.483473,1.672876
1409351497390,-0.92655605,9.609129,0.79607207,1.8469932,9.473181,1.7371973
1409351497413,-1.0342951,9.09258,1.1318588,1.8176112,9.464514,1.8137457
1409351497415,-1.3634979,8.904634,1.0133458,1.7664939,9.465124,1.8604654
1409351497421,-1.543063,8.88608,1.3994108,1.7051232,9.477173,1.8563755
1409351497451,-0.6889315,9.615712,1.5113398,1.6480161,9.494354,1.8197997
1409351497453,0.06823475,10.312426,0.7739257,1.6037892,9.510411,1.774923
1409351497455,0.6410475,10.42196,-0.019752163,1.5655626,9.525846,1.7255887
1409351497487,1.0067618,10.012551,-0.5494693,1.5208622,9.543547,1.6667701
1409351497489,1.0342951,9.730036,-0.8038532,1.4597429,9.565099,1.5963795
1409351497491,0.5117606,10.171167,-0.94092125,1.3792259,9.589714,1.5183862
1409351497495,-5.985504E-4,10.436924,-0.2645593,1.2804549,9.615273,1.4413024
1409351497517,-0.45489833,9.266159,0.57520694,1.1735611,9.636388,1.390387
1409351497520,-0.5770026,9.003395,0.5069722,1.0670098,9.649865,1.3827386
1409351497522,-0.7392098,8.942344,0.7679402,0.96285796,9.660202,1.3870132
1409351497549,-0.9900024,8.882488,1.1605892,0.8573951,9.671943,1.3743355
1409351497550,-1.2204443,8.750807,1.079785,0.7501291,9.684994,1.3448393
1409351497551,-1.2976574,8.558673,0.4878186,0.64673066,9.697368,1.3088913
1409351497572,-1.4784195,8.024167,-0.5255273,0.5513161,9.708303,1.2709494
1409351497573,-1.0366893,7.5387425,-0.91338795,0.4622738,9.71832,1.2292069
1409351497588,-0.2861071,7.9750857,-0.20829555,0.38554963,9.727234,1.1843443
1409351497591,-0.557849,8.957307,0.4782418,0.33001053,9.73373,1.147164
1409351497609,-0.56802434,9.703699,0.700304,0.2832669,9.738461,1.1191788
1409351497611,-0.38187516,9.492412,0.29628247,0.24461307,9.740472,1.1107535
1409351497620,-0.28790274,8.881889,-0.3226187,0.20445846,9.740481,1.1187673
1409351497635,-0.35254622,8.831013,-0.63206923,0.15302345,9.739754,1.1332196
1409351497643,-0.24480712,8.94773,-0.6572084,0.08052067,9.739777,1.14047
1409351497661,-0.21428105,8.82802,-0.47225627,-0.01264204,9.740685,1.1354712
1409351497663,0.3561375,8.981249,-0.40701428,-0.12140929,9.741457,1.1223563
1409351497669,1.4520833,8.57184,-0.46088383,-0.23190016,9.740856,1.1101089
1409351497687,2.4570496,8.177995,0.51834464,-0.3269665,9.737984,1.111369
1409351497689,3.0903158,8.605958,1.38325,-0.4028744,9.73149,1.1428789
1409351497716,3.0771477,8.604761,2.0165164,-0.4608191,9.72082,1.2098294
1409351497718,2.7257986,8.3150625,2.2930467,-0.51295817,9.706981,1.2968296
1409351497722,2.1254525,8.132504,2.3355439,-0.56310064,9.688471,1.4095582
1409351497749,1.5011644,7.8984714,2.0189106,-0.61904335,9.666807,1.5297184
1409351497750,1.4598645,7.8505874,1.4927847,-0.68812335,9.644146,1.6393027
1409351497752,1.6065093,8.150461,1.1426327,-0.7670549,9.6226845,1.7279952
1409351497772,1.6286557,8.552687,1.1791444,-0.84540164,9.603861,1.7948732
1409351497773,1.721431,8.886678,1.5801731,-0.9134873,9.587348,1.848969
1409351497789,1.9524715,8.86932,2.3732524,-0.96695447,9.571465,1.903274
1409351497790,1.9458874,8.812458,2.1787236,-1.0080745,9.553889,1.9691064
1409351497805,1.520318,8.656835,1.9297266,-1.0441456,9.536511,2.0334945
1409351497824,1.4526819,8.599973,1.7675194,-1.0804126,9.5201235,2.090539
1409351497825,1.8195933,8.321647,1.316811,-1.1142142,9.50739,2.1303625
1409351497837,2.2864625,8.22947,0.9864111,-1.1426516,9.49835,2.155479
1409351497842,2.6252422,8.739435,1.496376,-1.1632867,9.492286,2.1710944
1409351497857,2.658761,9.124901,2.2942438,-1.1737245,9.488846,2.1805017
1409351497875,2.2655134,9.168595,2.653374,-1.1766124,9.486501,2.1891205
1409351497877,1.0821792,9.60853,2.2170308,-1.17742,9.48457,2.197046
1409351497881,0.8750807,9.0716305,2.753332,-1.1802763,9.485919,2.1896775
1409351497893,0.55246204,8.520366,2.854487,-1.1743118,9.492006,2.1663773
1409351497910,0.60333884,8.4587145,2.5121162,-1.1528817,9.503598,2.1267052
1409351497912,1.2066777,8.576629,2.5623944,-1.1037025,9.520435,2.0769074
1409351497920,1.6998832,8.811859,2.3720553,-1.0376079,9.539251,2.0239632
1409351497944,0.7236475,8.802881,0.98102415,-0.9464116,9.562987,1.9554999
1409351497946,-0.11971009,8.758589,0.010175358,-0.8544727,9.592361,1.8511767
1409351497952,-1.6843209,8.258799,-0.54887074,-0.76431113,9.625334,1.7144033
1409351497986,-2.4660277,8.683769,-1.1013328,-0.6770578,9.658802,1.5554893
1409351497989,-2.9293058,10.483012,-1.2156559,-0.5834411,9.692363,1.3740801
