time,acc_x,acc_y,acc_z,gravity_x,gravity_y,gravity_z
1409527169548,0.20111294,9.299678,3.0621839,0.21006812,9.317055,3.052661
1409527169551,0.18974048,9.335591,3.0998926,0.20824951,9.316358,3.0549152
1409527169562,0.20111294,9.34397,3.0945058,0.20629601,9.3159895,3.056172
1409527169569,0.23942018,9.357738,3.1238346,0.20454293,9.315843,3.0567327
1409527169578,0.2124854,9.364322,3.1124623,0.20356075,9.3154955,3.057857
1409527169594,0.22625206,9.3583355,3.1358056,0.20300302,9.315054,3.0592413
1409527169597,0.2885013,9.356541,3.095703,0.20292723,9.314501,3.0609295
1409527169611,0.16819267,9.303867,3.1304188,0.20338418,9.314044,3.0622892
1409527169617,0.19871874,9.266159,3.098097,0.20265897,9.313438,3.0641778
1409527169629,0.18734628,9.270947,3.0813377,0.20162809,9.312852,3.066026
1409527169644,0.16220717,9.291298,3.1142578,0.20055206,9.31256,3.066985
1409527169649,0.17477672,9.320627,3.1016884,0.19999216,9.312903,3.0659802
1409527169663,0.16340427,9.340978,3.1106665,0.19970441,9.313569,3.063978
1409527169669,0.14664486,9.366715,3.1202433,0.198959,9.314379,3.061558
1409527169680,0.15861586,9.370906,3.140594,0.19792324,9.315152,3.0592759
1409527169698,0.15861586,9.390657,3.144784,0.1968004,9.315809,3.05735
1409527169699,0.16938977,9.348759,3.1675289,0.19570188,9.316184,3.0562763
1409527169712,0.18136078,9.324817,3.132813,0.19469373,9.316057,3.0567234
1409527169717,0.1921347,9.297284,3.1381998,0.19351648,9.315708,3.0578623
1409527169733,0.16998832,9.294291,3.1531637,0.19269331,9.31525,3.0593092
1409527169748,0.22505496,9.316438,3.168726,0.19226535,9.314742,3.0608864
1409527169749,0.12988544,9.3026705,3.1878796,0.19223662,9.314194,3.062552
1409527169763,0.130484,9.341577,3.1669302,0.19077505,9.313747,3.0640006
1409527169769,0.12749124,9.376891,3.1381998,0.18899255,9.313386,3.0652099
1409527169783,0.12928689,9.361927,3.1280246,0.18749665,9.313302,3.0655568
1409527169796,0.12330139,9.340978,3.1214404,0.18585478,9.313169,3.0660636
1409527169797,0.12210429,9.325416,3.110068,0.18368809,9.312798,3.0673208
1409527169822,0.11312603,9.305663,3.1070752,0.18160892,9.312311,3.0689192
1409527169824,0.13467385,9.297284,3.1094694,0.17999823,9.311691,3.0708983
1409527169829,0.18016368,9.304466,3.1250317,0.17861433,9.311226,3.0723894
1409527169855,0.20709845,9.294889,3.1304188,0.1782092,9.31079,3.0737321
1409527169857,0.22445641,9.284116,3.12982,0.17856151,9.310374,3.0749693
1409527169858,0.23942018,9.317036,3.1202433,0.17914358,9.309849,3.0765285
1409527169890,0.22744916,9.306262,3.1184478,0.17998944,9.30928,3.078199
1409527169892,0.23403321,9.374496,3.0819361,0.18067926,9.308873,3.07939
1409527169893,0.24720132,9.378088,3.0992942,0.18128265,9.308689,3.0799093
1409527169898,0.25617957,9.398438,3.0986955,0.1821629,9.308438,3.0806148
1409527169924,0.26036942,9.360131,3.0974984,0.18312998,9.30814,3.0814598
1409527169926,0.25258827,9.343372,3.1196449,0.18404892,9.307898,3.0821378
1409527169929,0.22565351,9.3343935,3.110068,0.18474852,9.307596,3.083007
1409527169959,0.17836803,9.320028,3.0735564,0.18549876,9.307249,3.084007
1409527169960,0.15682021,9.312247,3.0442274,0.18577893,9.307,3.0847406
1409527169967,0.1328782,9.312247,3.0466216,0.18572721,9.306805,3.0853333
1409527170006,0.110731825,9.294889,3.05141,0.18563797,9.306567,3.086057
1409527170007,0.10175357,9.308656,3.0184898,0.18543577,9.306302,3.0868685
1409527170008,0.08439561,9.347562,3.0190883,0.18500093,9.305999,3.0878103
1409527170009,0.06344634,9.363723,3.0202854,0.18465431,9.305711,3.0886984
1409527170010,0.040102877,9.412206,2.9987376,0.1843342,9.305441,3.0895286
1409527170019,0.05686229,9.396643,2.9867666,0.18415973,9.305267,3.0900612
1409527170041,0.08798691,9.43914,2.9652188,0.18478553,9.305182,3.0902812
1409527170042,0.12150574,9.440337,2.9454668,0.18607782,9.304969,3.0908465
1409527170049,0.17058687,9.421184,2.9251158,0.1879259,9.304786,3.0912833
1409527170070,0.21547815,9.388862,2.9406781,0.18947266,9.30466,3.0915697
1409527170071,0.24720132,9.314043,2.9352913,0.19106771,9.304402,3.092249
1409527170077,0.29269117,9.284116,2.9682117,0.19298002,9.304102,3.0930321
1409527170102,0.2908955,9.309255,2.9771898,0.19546913,9.303633,3.0942876
1409527170104,0.29508537,9.3343935,2.932897,0.19786564,9.303204,3.095425
1409527170109,0.2896984,9.384672,2.9215245,0.20004104,9.303142,3.095468
1409527170118,0.2885013,9.399636,2.9592333,0.20228843,9.303284,3.0948956
1409527170145,0.28311434,9.371504,2.9909565,0.20404992,9.303477,3.0941997
1409527170147,0.2693477,9.364322,3.067571,0.20530096,9.303937,3.0927353
1409527170149,0.26515785,9.303269,3.1262288,0.20645885,9.304345,3.0914288
1409527170170,0.2645593,9.242816,3.1675289,0.20780842,9.3047085,3.090246
1409527170171,0.26156655,9.204509,3.1986535,0.20958415,9.304969,3.0893426
1409527170177,0.22685061,9.204509,3.1944637,0.21206495,9.305,3.089072
1409527170199,0.19812019,9.221268,3.1974564,0.21479696,9.305012,3.0888531
1409527170202,0.108337626,9.293094,3.1783028,0.21790984,9.305056,3.0885062
1409527170223,0.079008654,9.31524,3.1783028,0.22061533,9.305324,3.0874999
1409527170224,0.049679685,9.31943,3.1789012,0.22290085,9.3056,3.0865045
1409527170229,0.019153614,9.338584,3.165733,0.22540464,9.30584,3.0856001
1409527170256,0.0023942017,9.324219,3.1531637,0.22819234,9.306129,3.0845208
1409527170257,0.039504327,9.297284,3.1435869,0.231537,9.30644,3.0833309
1409527170258,0.0712275,9.277532,3.1603463,0.23573947,9.306564,3.0826423
1409527170281,0.142455,9.271546,3.1932666,0.24033704,9.306365,3.0828886
1409527170282,0.22984336,9.267356,3.2369606,0.24586292,9.306016,3.0835073
1409527170298,0.30346507,9.274539,3.2441432,0.25209215,9.305754,3.0837934
1409527170298,0.350152,9.308656,3.2513258,0.2591003,9.305808,3.0830467
1409527170323,0.41718966,9.285912,3.2435448,0.26658732,9.305971,3.0819201
1409527170325,0.46447513,9.294291,3.2597055,0.27478254,9.306003,3.0811026
1409527170330,0.4878186,9.312846,3.2788591,0.2831487,9.305892,3.080679
1409527170358,0.4961983,9.317036,3.3105824,0.29152092,9.3056965,3.0804923
1409527170359,0.4985925,9.336788,3.3141737,0.29948422,9.305257,3.0810542
1409527170361,0.4854244,9.305065,3.3093853,0.30649146,9.304663,3.0821607
1409527170384,0.49200845,9.267955,3.3399115,0.31211317,9.304128,3.083209
1409527170385,0.52133745,9.255983,3.3722332,0.31629,9.303498,3.0846837
1409527170390,0.504578,9.258378,3.3638535,0.3201222,9.302551,3.0871449
1409527170399,0.51235914,9.294291,3.3279405,0.32283717,9.301642,3.0895975
1409527170423,0.5069722,9.303269,3.2638955,0.32512963,9.300944,3.0914593
1409527170424,0.49200845,9.3343935,3.1902738,0.3269855,9.300407,3.092876
1409527170430,0.480636,9.340978,3.141791,0.32775617,9.300138,3.0936034
1409527170461,0.45489833,9.354146,3.091513,0.3280376,9.300052,3.0938334
1409527170463,0.4381389,9.348759,3.0340521,0.3282642,9.300058,3.0937917
1409527170465,0.39743748,9.336788,3.0418332,0.32772964,9.30025,3.0932755
1409527170487,0.36511576,9.333197,3.0502129,0.3261979,9.300788,3.0918143
1409527170489,0.31783026,9.296086,3.105878,0.32412773,9.301472,3.0899756
1409527170490,0.2777274,9.248202,3.1591492,0.3215376,9.302077,3.0884213
1409527170499,0.25318682,9.214684,3.1842883,0.31801528,9.302809,3.0865839
1409527170527,0.25558102,9.186552,3.210026,0.31415072,9.303721,3.084229
1409527170530,0.24241292,9.148843,3.2136173,0.3099066,9.304847,3.0812652
1409527170533,0.24839842,9.171588,3.163339,0.30524772,9.306223,3.0775697
1409527170561,0.23642741,9.23264,3.132813,0.3007528,9.307775,3.0733194
1409527170565,0.23283611,9.256582,3.115455,0.29627696,9.309326,3.0690467
1409527170567,0.22744916,9.27394,3.086126,0.29187185,9.310978,3.0644584
1409527170584,0.1945289,9.320627,3.0819361,0.28777587,9.312729,3.059521
1409527170585,0.15801731,9.34038,3.0945058,0.2840633,9.314461,3.054594
1409527170592,0.1376666,9.371504,3.116652,0.28065142,9.315988,3.0502448
1409527170598,0.15143326,9.415796,3.0867245,0.27730185,9.317453,3.0460732
1409527170614,0.15023616,9.437943,3.0280666,0.274554,9.319158,3.0411015
1409527170630,0.1592144,9.433753,3.0083144,0.2725871,9.320856,3.0360727
1409527170632,0.19812019,9.399636,2.9682117,0.27153215,9.322378,3.0314875
1409527170652,0.23044191,9.376891,2.9789855,0.27134052,9.323817,3.0270772
1409527170653,0.25857377,9.353547,3.068768,0.27106395,9.325331,3.0224376
1409527170659,0.2885013,9.347562,3.108871,0.27070814,9.326994,3.017333
1409527170686,0.31783026,9.3421755,3.13401,0.2709633,9.328809,3.0116901
1409527170688,0.34715924,9.366715,3.0879216,0.2720244,9.330693,3.005754
1409527170690,0.36750996,9.397242,3.028665,0.2742416,9.332742,2.9991891
1409527170699,0.39564183,9.386468,2.938284,0.27683836,9.334835,2.9924262
1409527170722,0.4261679,9.372701,2.883816,0.27964517,9.33693,2.985618
1409527170724,0.4261679,9.393052,2.8844144,0.28196108,9.33914,2.978484
1409527170730,0.3764882,9.4217825,2.930503,0.28318375,9.341606,2.9706223
1409527170760,0.32920274,9.427169,2.979584,0.2829795,9.344434,2.9617362
1409527170761,0.3286042,9.367314,2.9825768,0.28184348,9.347258,2.9529216
1409527170761,0.26755205,9.26556,3.072958,0.28101417,9.349667,2.9453647
1409527170781,0.2208651,9.224859,3.1262288,0.27938738,9.351417,2.9399567
1409527170782,0.18614918,9.252393,3.1399956,0.2775043,9.352685,2.9360967
1409527170799,0.15203181,9.288305,3.0855274,0.2755615,9.3535795,2.93343
1409527170801,0.14425065,9.367912,3.0520086,0.27353868,9.354394,2.931019
1409527170812,0.16340427,9.4217825,2.9843724,0.2715582,9.355283,2.9283679
1409527170828,0.18076223,9.430161,2.9251158,0.27052948,9.356218,2.9254684
1409527170830,0.22565351,9.440936,2.9071593,0.27052116,9.356933,2.923187
1409527170845,0.27593175,9.404425,2.932897,0.2715498,9.3576355,2.9208393
1409527170871,0.31124622,9.333197,2.954445,0.27378264,9.35812,2.9190772
1409527170873,0.33399114,9.324219,2.9819782,0.27717155,9.358407,2.917836
1409527170874,0.34476504,9.352949,2.992752,0.2814075,9.358489,2.9171708
1409527170879,0.350152,9.361329,2.9819782,0.2859156,9.358519,2.9166384
1409527170902,0.30466217,9.3822775,2.9616275,0.2902597,9.35868,2.91569
1409527170903,0.2657564,9.406818,2.9574378,0.2938977,9.358936,2.914502
1409527170911,0.24121583,9.424176,2.926313,0.29702988,9.359293,2.9130397
1409527170938,0.25139117,9.425972,2.8880057,0.2997069,9.359849,2.9109745
1409527170940,0.25558102,9.419388,2.8939912,0.30209655,9.360867,2.9074552
1409527170941,0.2765303,9.370307,2.9640217,0.30351794,9.3623705,2.9024603
1409527170972,0.3824737,9.339182,3.1310172,0.3048097,9.363907,2.897367
1409527170973,0.41599256,9.337387,3.177704,0.30701122,9.36508,2.8933427
1409527170975,0.45609543,9.345766,3.1597476,0.3099855,9.366356,2.8888931
1409527170979,0.49320555,9.36492,3.1376014,0.31373352,9.367446,2.8849487
1409527171008,0.48841715,9.374496,3.0699651,0.31775242,9.368183,2.882112
1409527171010,0.50038815,9.367912,2.9939492,0.3216525,9.368631,2.8802207
1409527171011,0.4985925,9.394249,2.9783869,0.32518455,9.368688,2.879645
1409527171031,0.4782418,9.399636,2.9819782,0.32760224,9.368637,2.8795314
1409527171033,0.47046062,9.387066,3.0083144,0.32860258,9.368627,2.8794568
1409527171051,0.46686932,9.369708,3.0747535,0.32849643,9.368789,2.8789344
1409527171052,0.45908818,9.370906,3.0585926,0.32806152,9.368792,2.8789809
1409527171059,0.45669398,9.338584,3.063381,0.32756233,9.368828,2.8789186
1409527171080,0.42437226,9.348161,3.043629,0.32732356,9.368738,2.879234
1409527171082,0.3597288,9.34397,3.0418332,0.32705387,9.3686285,2.879621
1409527171117,0.27114335,9.347562,3.015497,0.32619253,9.368563,2.879934
1409527171120,0.23283611,9.372701,2.9466639,0.32454732,9.368613,2.8799553
1409527171123,0.17238252,9.368511,2.9161377,0.322857,9.368663,2.8799858
1409527171125,0.13108255,9.397242,2.8814218,0.3207705,9.368733,2.879985
1409527171160,0.06344634,9.437345,2.822764,0.3137214,9.370548,2.8748572
1409527171162,0.02932897,9.478644,2.8119898,0.3137214,9.370548,2.8748572
1409527171164,0.0035913025,9.457097,2.842516,0.3137214,9.370548,2.8748572
1409527171167,-0.01316811,9.437943,2.8419175,0.31115896,9.3712435,2.8728654
1409527171207,0.018555064,9.456498,2.8419175,0.30925405,9.371958,2.8707392
1409527171208,0.0023942017,9.443929,2.8233624,0.30766392,9.3725605,2.868949
1409527171210,0.019153614,9.420585,2.782661,0.30600637,9.3732,2.8670297
1409527171211,0.044292733,9.328408,2.7910407,0.30481392,9.3740015,2.864539
1409527171212,0.050278235,9.313444,2.7299886,0.30381358,9.374831,2.8619285
1409527171236,0.077213004,9.484032,2.7461493,0.30315378,9.375907,2.8584676
1409527171237,0.0047884034,9.46009,2.7569232,0.3034371,9.3772545,2.854021
1409527171239,0.061650693,9.422979,2.7048495,0.30403027,9.378635,2.8494148
1409527171273,0.15442601,9.339182,2.7012582,0.30471858,9.379976,2.8449242
1409527171274,0.19572599,9.321226,2.7778726,0.30509135,9.381216,2.8407931
1409527171275,0.15143326,9.340978,2.8514943,0.30536652,9.382972,2.8349566
1409527171279,0.13826515,9.333796,2.8137856,0.30464888,9.385284,2.8273678
1409527171302,0.092775315,9.445126,2.8048072,0.3046227,9.388371,2.8171062
1409527171303,-0.025737667,8.963891,2.7431567,0.30501017,9.392158,2.804416
1409527171312,0.29747957,9.075222,2.6072857,0.30392548,9.395896,2.791982
1409527171340,0.39085343,9.603143,2.7383683,0.30697796,9.399194,2.7805269
1409527171342,0.4237737,9.440936,2.7180176,0.3153257,9.401216,2.7727423
1409527171343,0.4345476,9.553463,2.7760768,0.3243667,9.403001,2.7656393
1409527171385,0.4830302,9.609129,2.8335378,0.32820013,9.4057665,2.755759
1409527171387,0.5781997,9.64145,2.8682537,0.32970533,9.409149,2.7440102
1409527171389,0.6955156,9.591172,2.8939912,0.33245268,9.41175,2.7347436
1409527171391,0.7954735,9.484032,2.9652188,0.33628404,9.41349,2.728281
1409527171393,0.84575176,9.422979,2.9885623,0.34043995,9.414557,2.7240744
1409527171420,0.7793127,9.478644,3.016694,0.3448574,9.41525,2.7211263
1409527171422,0.7404069,9.409811,3.0376434,0.34847668,9.415772,2.7188551
1409527171423,0.6835446,9.388862,3.0083144,0.351211,9.416003,2.7177048
1409527171433,0.58657944,9.299079,3.0160956,0.35360533,9.415842,2.717955
1409527171455,0.4770447,9.352949,2.955642,0.3558633,9.4151325,2.72012
1409527171456,0.44592008,9.421184,2.8568811,0.35655951,9.414408,2.7225318
1409527171460,0.38726214,9.384073,2.7509377,0.3577402,9.413724,2.7247415
1409527171494,0.39444473,9.3583355,2.666542,0.35785767,9.41336,2.7259831
1409527171496,0.38965634,9.297882,2.6701334,0.35723075,9.412904,2.7276423
1409527171499,0.362123,9.264363,2.6982653,0.35521045,9.412056,2.7308285
1409527171519,0.3274071,9.226056,2.7617116,0.3507743,9.411126,2.7346044
1409527171520,0.09696517,9.226056,2.8413188,0.34453377,9.410442,2.7377534
1409527171522,0.08499416,8.943541,2.7694929,0.33584887,9.410335,2.7391944
1409527171559,0.38486794,9.527127,2.7473464,0.32596216,9.410798,2.7388024
1409527171561,0.3788824,9.762956,2.7970262,0.32001647,9.411643,2.736597
1409527171562,-0.03172317,9.652225,2.7814639,0.3198242,9.412231,2.734596
1409527171564,0.20530279,9.730036,2.6886885,0.316348,9.412635,2.7336104
1409527171591,0.2112883,9.466674,2.735974,0.3096119,9.413723,2.7306297
1409527171592,0.18315643,9.561244,2.765303,0.30216467,9.414745,2.7279398
1409527171594,0.16879122,9.547478,2.7491422,0.29808414,9.415303,2.7264636
1409527171614,0.17597382,9.563639,2.7395654,0.29436994,9.415351,2.7267041
1409527171615,0.12808979,9.676167,2.719813,0.29097956,9.415184,2.7276437
1409527171619,0.28550854,9.661202,2.6880898,0.28700486,9.415122,2.7282858
1409527171647,-0.040102877,9.673772,2.7617116,0.28359592,9.415268,2.7281306
1409527171648,0.026934769,9.690532,2.7114334,0.2753915,9.415398,2.7285228
1409527171652,0.05686229,9.594764,2.7006595,0.26661476,9.415244,2.7299278
1409527171660,0.08379706,9.496601,2.7138276,0.2588502,9.41483,2.7321
1409527171682,0.10474633,9.487623,2.743755,0.2520354,9.414053,2.7354162
1409527171684,0.14544775,9.446322,2.6964695,0.24496399,9.413158,2.7391336
1409527171691,0.20470424,9.3733,2.6641479,0.23788346,9.412461,2.7421458
1409527171721,0.26874915,9.339182,2.7850552,0.23084553,9.412182,2.7437043
1409527171722,0.29927522,9.32362,2.8455088,0.22452195,9.4120035,2.7448444
1409527171724,0.33638534,9.301474,2.870648,0.2193303,9.411902,2.7456148
1409527171781,0.34596214,9.308058,2.89459,0.21523996,9.411998,2.7456071
1409527171782,0.31483752,9.39365,2.8951883,0.21157026,9.412075,2.7456279
1409527171783,0.32142156,9.454702,2.8742392,0.20786308,9.412053,2.745986
1409527171784,0.30585927,9.461287,2.8245595,0.20428383,9.412068,2.746202
1409527171785,0.29269117,9.451111,2.7850552,0.20023434,9.412306,2.745691
1409527171786,0.31064767,9.43076,2.7641058,0.19609687,9.412695,2.7446523
1409527171791,0.3238158,9.450513,2.7485435,0.1926237,9.412796,2.7445543
1409527171812,0.30406362,9.473856,2.718616,0.1901905,9.41291,2.7443278
1409527171813,0.26515785,9.540894,2.7024553,0.18831351,9.412867,2.7446082
1409527171828,0.25977087,9.523536,2.6964695,0.185943,9.413215,2.7435741
1409527171848,0.26276365,9.48882,2.7335799,0.18299809,9.413882,2.7414849
1409527171849,0.26276365,9.425373,2.7509377,0.17996208,9.414682,2.7389326
1409527171851,0.28491,9.382876,2.802413,0.1772247,9.415361,2.7367792
1409527171859,0.29747957,9.363124,2.8263552,0.17499906,9.415953,2.7348847
1409527171875,0.30466217,9.354146,2.8161798,0.1728416,9.416522,2.7330608
1409527171879,0.30466217,9.379884,2.7563248,0.17079277,9.417029,2.7314458
1409527171893,0.30466217,9.436746,2.7527335,0.16914296,9.417584,2.7296348
1409527171919,0.29388827,9.466674,2.7341783,0.16782361,9.41812,2.7278624
1409527171920,0.26515785,9.496601,2.7192147,0.16663587,9.418656,2.7260854
1409527171921,0.24001873,9.515755,2.7257986,0.16561207,9.419144,2.7244644
1409527171958,0.20949265,9.520543,2.7323828,0.16447665,9.419506,2.7232766
1409527171959,0.49320555,9.028535,2.5839422,0.16334808,9.419797,2.7223377
1409527171960,0.11671733,9.55885,3.244742,0.16467114,9.420097,2.7212212
1409527171961,0.01316811,9.974843,2.5881321,0.16195312,9.419219,2.72442
1409527171977,0.19931729,9.508572,2.4103625,0.1549859,9.419585,2.723563
1409527171983,0.32202014,9.472659,2.8119898,0.15044549,9.419984,2.7224355
1409527172004,0.2837129,9.425373,2.8377275,0.15128121,9.421734,2.7163296
1409527172006,0.2693477,9.439739,2.795829,0.15164003,9.422127,2.714944
1409527172012,0.32202014,9.448118,2.7808652,0.15152328,9.420854,2.7193701
1409527172028,0.32561144,9.449914,2.7688942,0.15224384,9.420747,2.7196996
1409527172055,0.36990416,9.404425,2.8000188,0.15389292,9.421161,2.7181737
1409527172056,0.3657143,9.424775,2.8209682,0.1571875,9.420996,2.7185485
1409527172057,0.29508537,9.415796,2.8042088,0.16115297,9.420465,2.720158
1409527172059,0.29209262,9.381081,2.7090392,0.16508147,9.419671,2.7226694
1409527172076,0.26994625,9.43495,2.6671407,0.1690804,9.4189825,2.7248082
1409527172092,0.24540567,9.46847,2.6779146,0.17244047,9.41854,2.7261288
1409527172093,0.26755205,9.466674,2.7144263,0.17541115,9.418144,2.7273047
1409527172111,0.22864626,9.449914,2.730587,0.17855844,9.417754,2.7284486
1409527172112,0.20949265,9.387665,2.7509377,0.18135749,9.417405,2.729467
1409527172125,0.19871874,9.3583355,2.7976246,0.18367827,9.416918,2.7309885
1409527172142,0.18136078,9.408614,2.7808652,0.18549123,9.416219,2.7332783
1409527172143,0.15442601,9.46847,2.7371712,0.18704109,9.4155035,2.735635
1409527172158,0.1328782,9.475652,2.7323828,0.18830898,9.415094,2.7369578
1409527172159,0.12030864,9.487623,2.718616,0.18909313,9.415045,2.737069
1409527172175,0.37229836,8.811261,2.5845408,0.18885677,9.415237,2.73643
1409527172192,1.7118542,6.9168487,2.2840683,0.19044732,9.415218,2.7363791
1409527172193,2.0093338,6.789956,3.0071173,0.20130898,9.414455,2.738232
1409527172210,-2.7072437,12.439673,4.5244427,0.21268837,9.41162,2.7471013
1409527172211,-1.5969325,12.827534,2.2876596,0.15372568,9.409021,2.7599006
1409527172225,-0.33279404,11.052833,1.5221137,0.082910195,9.418609,2.7300818
1409527172243,0.17597382,10.127473,2.0153193,0.055029083,9.432815,2.6812978
1409527172244,0.2633622,9.020754,2.5839422,0.0715194,9.438017,2.662538
1409527172260,0.2100912,8.453327,2.8353333,0.097629115,9.431954,2.6831143
1409527172261,0.04129998,8.779537,2.8604724,0.11567776,9.423825,2.7108188
1409527172275,0.026934769,9.159617,2.7665,0.12302586,9.418797,2.7279146
1409527172291,0.19512744,9.293094,2.6940753,0.12608692,9.417548,2.732088
1409527172291,0.3465607,9.41041,2.722806,0.12873738,9.419142,2.7264626
1409527172306,0.26635495,9.545084,2.7102363,0.13134111,9.42127,2.7189708
1409527172311,0.03232172,9.873089,2.6300306,0.13111585,9.423345,2.7117848
1409527172322,-0.13946225,9.925163,2.528277,0.126358,9.425553,2.7043216
1409527172340,-0.11911154,9.789292,2.5432408,0.118028924,9.428028,2.696065
1409527172341,-0.02633622,9.55885,2.5803509,0.10922391,9.430184,2.6888835
1409527172357,0.095768064,9.300277,2.6144683,0.103453584,9.431276,2.6852756
1409527172360,0.15442601,9.214684,2.6922798,0.101941206,9.431039,2.6861703
1409527172373,0.16579847,9.284714,2.7024553,0.10262911,9.429903,2.6901298
1409527172389,0.15562311,9.343372,2.7012582,0.10338607,9.428856,2.6937683
1409527172392,0.048482586,9.196728,2.7491422,0.10360344,9.428745,2.6941485
1409527172407,0.1352724,9.8754835,2.5995045,0.10318967,9.429033,2.6931534
1409527172411,0.074818805,9.640253,2.574964,0.104397,9.430129,2.6892629
1409527172425,0.089782566,9.510966,2.6084828,0.10697116,9.430813,2.6867702
1409527172442,0.092775315,9.457097,2.6449943,0.10837116,9.430994,2.6860774
1409527172442,0.12030864,9.398438,2.6868927,0.108897746,9.430628,2.6873403
1409527172456,0.19991584,9.367912,2.747945,0.11033435,9.429789,2.6902213
1409527172460,0.23104046,9.413403,2.8018146,0.11293029,9.429079,2.6926024
1409527172472,0.19512744,9.533113,2.8365304,0.11534802,9.428704,2.6938148
1409527172497,0.12330139,9.589975,2.7910407,0.11756803,9.4284525,2.6945977
1409527172498,0.06284779,9.5971575,2.7736826,0.12013591,9.428151,2.6955388
1409527172500,-0.022146367,9.593566,2.7419596,0.123092346,9.427675,2.6970718
1409527172525,-0.044891283,9.567828,2.695871,0.12522241,9.427311,2.6982472
1409527172526,-0.091578215,9.490616,2.7257986,0.12671617,9.427138,2.6987782
1409527172543,-0.11552023,9.461885,2.767697,0.1275849,9.426663,2.7003932
1409527172546,-0.12868834,9.412206,2.8101943,0.12739334,9.426007,2.7026935
1409527172572,-0.1436521,9.419388,2.8628666,0.12627068,9.425579,2.7042356
1409527172573,-0.1388637,9.412206,2.8407204,0.12445136,9.425474,2.704688
1409527172575,-0.095768064,9.385271,2.822764,0.12236206,9.425647,2.7041852
1409527172601,-0.040102877,9.359533,2.8473043,0.1202778,9.425747,2.7039287
1409527172603,-0.0053869537,9.387066,2.80361,0.11815927,9.425818,2.7037716
1409527172605,0.022744916,9.421184,2.7682958,0.11521781,9.426231,2.702458
1409527172632,0.073621705,9.497798,2.7461493,0.11112616,9.427101,2.6995986
1409527172633,0.11552023,9.529521,2.7311857,0.10703743,9.428243,2.6957674
1409527172634,0.15622166,9.482236,2.7682958,0.1029004,9.429647,2.6910107
1409527172641,0.20709845,9.361329,2.7156234,0.09913031,9.430881,2.6868355
1409527172667,0.19632454,9.4217825,2.7449522,0.09633162,9.431899,2.683354
1409527172670,0.090979666,9.689933,2.790442,0.09446787,9.4328985,2.6799088
1409527172673,0.034715924,9.937134,2.767697,0.09296397,9.433945,2.6762762
1409527172703,0.25258827,9.46009,2.5384524,0.09270196,9.435012,2.6725144
1409527172704,0.3453636,9.228451,2.6204538,0.097400494,9.436331,2.66769
1409527172705,0.46627077,9.199121,2.6503813,0.104885004,9.437365,2.6637475
1409527172733,0.4770447,9.081805,2.5611973,0.1115031,9.436691,2.665864
1409527172735,0.52073884,9.252393,2.6013002,0.11703995,9.433428,2.6771483
1409527172738,0.439336,9.4457245,2.6264393,0.124049865,9.429631,2.6901746
1409527172742,0.34476504,9.533711,2.6246436,0.1309412,9.427368,2.697771
1409527172775,0.32321724,9.661801,2.6641479,0.13586617,9.428008,2.6952941
1409527172782,0.35254622,9.618706,2.6755204,0.13933045,9.429964,2.6882658
1409527172784,0.3657143,9.51336,2.7353754,0.1439193,9.431184,2.6837375
1409527172819,0.3238158,9.478046,2.789245,0.14871925,9.431073,2.6838663
1409527172822,0.2717419,9.436148,2.8622682,0.15209173,9.430355,2.686199
1409527172825,0.30406362,9.254189,2.8550856,0.15362503,9.429462,2.6892438
1409527172830,0.2861071,9.296086,2.7694929,0.15359208,9.428179,2.6937423
1409527172833,0.18614918,9.541492,2.6138697,0.15231007,9.427741,2.6953483
1409527172863,-0.005985504,9.633071,2.6168625,0.14974344,9.428494,2.692852
1409527172864,-0.023343466,9.541492,2.6461914,0.14514454,9.429738,2.6887457
1409527172866,-0.06584055,9.425972,2.7222073,0.13905703,9.429793,2.6888804
1409527172867,-0.090979666,9.300875,2.8221653,0.13145737,9.428809,2.692708
1409527172873,-0.12210429,9.2547865,2.8580782,0.123382345,9.427535,2.6975427
1409527172904,-0.11851298,9.279925,2.843713,0.11598869,9.426568,2.7012475
1409527172905,-0.10534488,9.326612,2.8514943,0.10979386,9.426547,2.7015774
1409527172906,-0.108936176,9.450513,2.8431146,0.10473354,9.427261,2.6992915
1409527172930,-0.14664486,9.565434,2.8072014,0.101046994,9.42766,2.6980367
1409527172933,-0.16220717,9.51755,2.7635074,0.09833945,9.427064,2.7002182
1409527172935,-0.17657238,9.414001,2.7395654,0.09659341,9.425197,2.7067928
1409527172942,-0.21308395,9.442732,2.694674,0.09542305,9.422733,2.7153995
1409527172969,-0.19093758,9.467871,2.610877,0.09495515,9.419972,2.7249794
1409527172970,-0.17956513,9.53012,2.617461,0.09547274,9.418361,2.730523
1409527172975,-0.15322891,9.531916,2.5875335,0.09521606,9.417957,2.731928
1409527173004,-0.12689269,9.499594,2.6060886,0.09441366,9.418335,2.7306478
1409527173005,-0.109534726,9.492412,2.629432,0.09309706,9.419232,2.7275963
1409527173006,-0.038905777,9.487623,2.6844985,0.091399536,9.420232,2.7241979
1409527173030,0.090979666,9.441534,2.7844565,0.0902462,9.421293,2.7205658
1409527173033,0.11432313,9.396643,2.8060043,0.09043676,9.422243,2.717269
1409527173036,0.13467385,9.413403,2.794632,0.090696245,9.42313,2.714183
1409527173044,0.1316811,9.43914,2.7581203,0.09110446,9.423863,2.7116244
1409527173062,0.1412579,9.455899,2.734777,0.0914882,9.42456,2.7091856
1409527173063,0.1316811,9.49301,2.6611552,0.09204035,9.425033,2.7075238
1409527173072,0.15203181,9.545084,2.6234465,0.091975875,9.425363,2.7063732
1409527173091,0.18495208,9.500193,2.6318262,0.091914825,9.425579,2.7056293
1409527173093,0.20530279,9.487024,2.6850972,0.0917322,9.4253235,2.7065215
1409527173106,0.25258827,9.505579,2.7407625,0.09174254,9.424422,2.709656
1409527173122,0.22625206,9.4972,2.7401638,0.092306055,9.423036,2.714459
1409527173123,0.20290859,9.365519,2.7760768,0.09239348,9.421439,2.719992
1409527173143,0.3465607,9.3978405,2.7341783,0.09167466,9.419476,2.7268045
1409527173144,0.52492875,9.474455,2.6683378,0.09133272,9.418091,2.7315972
1409527173154,0.61411273,9.635465,2.7934349,0.0923397,9.417426,2.733857
1409527173174,0.31124622,9.500791,2.9592333,0.09526216,9.416911,2.7355256
1409527173175,0.13347675,9.3661175,2.8963854,0.10075996,9.414408,2.7439344
1409527173189,0.09935937,9.277532,2.8000188,0.10689265,9.410818,2.7559881
1409527173204,0.14604631,9.145252,2.813187,0.10859054,9.408541,2.7636847
1409527173205,0.24241292,9.179369,2.8191724,0.106830366,9.407627,2.7668638
1409527173222,0.2693477,9.248801,2.7670987,0.105175436,9.407745,2.766528
1409527173222,0.29209262,9.285912,2.7730842,0.10513189,9.409271,2.761332
1409527173240,0.25737667,9.291897,2.8401217,0.10693532,9.412594,2.74991
1409527173241,0.25677812,9.375095,2.842516,0.10941837,9.41745,2.7331462
1409527173256,0.26994625,9.502586,2.8072014,0.11230255,9.423359,2.7125804
1409527173273,0.24061728,9.645041,2.7252002,0.11514508,9.429705,2.690318
1409527173274,0.20949265,9.653421,2.7210102,0.11754279,9.436509,2.6662493
1409527173290,0.23762453,9.670779,2.7150247,0.119141385,9.442897,2.6434653
1409527173294,0.28072014,9.696517,2.7461493,0.12046865,9.4479065,2.6254442
1409527173326,0.43993455,9.768942,2.7395654,0.12335783,9.45075,2.6150563
1409527173328,0.46267948,9.794679,2.7802668,0.1306116,9.451353,2.6125176
1409527173331,0.44891283,9.735423,2.8287494,0.14205767,9.449721,2.6178176
1409527173335,0.39504328,9.877877,2.8652608,0.15743798,9.445811,2.6310186
1409527173342,0.27952304,9.733627,2.8742392,0.17441301,9.439772,2.651546
1409527173364,0.32202014,9.829395,2.670732,0.19028474,9.432264,2.677046
1409527173365,0.18794483,9.734225,2.4827871,0.20518209,9.424832,2.7020028
1409527173372,0.05267244,9.413403,2.3750482,0.21755847,9.417907,2.725082
1409527173390,0.049081136,9.542689,2.3020248,0.22922987,9.412143,2.7439778
1409527173407,0.047884032,8.987833,2.6671407,0.24373497,9.408091,2.7565925
1409527173408,0.14903906,8.761581,2.7635074,0.26681173,9.403106,2.7714226
1409527173423,0.20410569,8.994417,2.9346926,0.30593324,9.395883,2.791807
1409527173426,0.28431144,9.507974,2.992752,0.36716834,9.3853855,2.8195913
1409527173444,0.44113165,9.781511,3.1082723,0.45514408,9.3718405,2.8516424
1409527173445,0.4285621,9.328408,3.2357635,0.564258,9.354944,2.887388
1409527173453,0.36272156,8.928576,3.208829,0.673181,9.335547,2.9265647
1409527173482,0.59495914,8.636484,3.0951042,0.76495856,9.31622,2.9653437
1409527173484,0.75118077,8.823232,3.0699651,0.83766174,9.298243,3.0019007
1409527173485,1.1665748,9.38168,2.9269116,0.90281564,9.282638,3.0311651
1409527173515,0.8391677,9.568427,3.0352492,0.9606679,9.271052,3.0487835
1409527173516,0.6847417,9.360131,2.959832,1.0075718,9.262854,3.058547
1409527173517,0.7529764,9.295488,2.8311436,1.0364782,9.258667,3.0615702
1409527173521,0.88405895,9.26556,2.847903,1.0452908,9.258996,3.057575
1409527173545,0.8619126,9.348161,2.9293058,1.044013,9.262821,3.0464008
1409527173546,0.75596917,9.4535055,3.0125043,1.0410914,9.26894,3.0287414
1409527173553,0.7302315,9.643845,2.926313,1.0375652,9.277035,3.005076
1409527173572,0.7236475,9.8276,2.8113914,1.0315795,9.287633,2.9742403
1409527173573,0.8559271,9.909002,2.7623103,1.0205537,9.300201,2.9385588
1409527173590,0.83018947,9.7803135,2.8137856,1.0076306,9.313304,2.901282
1409527173604,0.7691373,9.941922,2.8389246,0.98755413,9.326988,2.8639848
1409527173605,0.7260417,10.056246,2.885013,0.95920086,9.3414545,2.826224
1409527173626,0.6853402,9.762358,2.8993783,0.92209595,9.356584,2.7882729
1409527173627,0.842759,9.755175,2.8060043,0.8744443,9.371967,2.7517176
1409527173648,0.52612585,9.403227,2.8431146,0.81455207,9.387501,2.71693
1409527173649,0.44113165,9.235633,2.8514943,0.7408073,9.402333,2.6865819
1409527173653,0.3405752,9.123106,2.7335799,0.6605597,9.415764,2.660345
1409527173673,0.26396075,9.0476885,2.5169046,0.57923895,9.42742,2.637921
1409527173674,0.24480712,8.982447,2.2026656,0.49866343,9.437354,2.6187925
1409527173688,0.09995792,8.889072,2.1266496,0.42094404,9.446231,2.600373
1409527173708,0.005985504,8.492832,2.285864,0.3455971,9.454347,2.5819166
1409527173709,0.18614918,8.054693,2.2343888,0.2811383,9.46107,2.565058
1409527173713,0.2693477,8.094796,2.2104468,0.23348169,9.4661045,2.551226
1409527173721,0.31483752,8.71669,2.2828712,0.20317346,9.469389,2.5416086
1409527173737,0.45310268,8.959702,2.4265234,0.1902708,9.471189,2.535898
1409527173741,0.5129577,8.9842415,2.552219,0.19280739,9.471858,2.5332081
1409527173765,0.55964464,8.9998045,2.6318262,0.20376806,9.4718275,2.5324554
1409527173766,0.3298013,8.996213,2.8275523,0.21960276,9.471633,2.5318666
1409527173773,0.19273324,8.908825,2.7042508,0.2368623,9.471807,2.5296566
1409527173798,0.12569559,8.860941,2.6102784,0.2568471,9.473082,2.522925
1409527173799,0.08319851,8.892065,2.5306711,0.27798247,9.474889,2.5138812
1409527173803,0.09935937,9.0237465,2.533664,0.30307373,9.477733,2.5002267
1409527173823,0.14664486,9.351752,2.5540147,0.3315813,9.481882,2.4807987
1409527173824,0.15023616,9.640253,2.5677812,0.36420798,9.487958,2.4528334
1409527173839,0.10115502,9.761759,2.4941597,0.40003783,9.496132,2.4153385
1409527173857,0.2741361,9.837176,2.480393,0.4332947,9.505617,2.371896
1409527173858,0.53330845,9.840169,2.5300727,0.45807615,9.515337,2.3278563
1409527173861,0.66020113,9.668385,2.6001031,0.47576752,9.525018,2.284313
1409527173887,0.82121116,9.711481,2.6982653,0.4900025,9.534439,2.2415922
1409527173887,0.95468795,9.949105,2.565387,0.50306827,9.543441,2.200016
1409527173902,1.0109516,10.0029745,2.3648727,0.5162554,9.552347,2.1578987
1409527173903,1.0169371,10.060435,2.1338322,0.5289501,9.561442,2.1141067
1409527173922,1.0642227,10.015544,2.1176715,0.5384773,9.570681,2.0694194
1409527173922,1.1097125,10.196306,2.0296845,0.5447955,9.578966,2.0290375
1409527173939,1.103727,10.412982,1.8722657,0.54998076,9.586283,1.9927642
1409527173954,1.1150994,10.292074,1.7561469,0.55420524,9.593057,1.9587017
1409527173955,1.0720038,10.073005,1.7274165,0.55667424,9.599247,1.9274229
1409527173970,1.0708067,9.981427,1.7471687,0.5569163,9.604529,1.9008566
1409527173973,1.0779893,9.928755,1.721431,0.55588335,9.608622,1.8803724
1409527173988,1.0755951,9.928755,1.7100586,0.55368716,9.61141,1.8667148
1409527174007,1.0444705,9.909601,1.6543933,0.5497261,9.613204,1.8586233
1409527174008,0.842759,9.507375,1.6962919,0.544394,9.614637,1.8527753
1409527174021,1.1061212,10.061034,1.5658079,0.5369907,9.615873,1.8485126
1409527174022,1.0474633,10.2406,1.5676036,0.5325571,9.617448,1.8415889
1409527174042,0.90261406,10.171167,1.5508442,0.5307872,9.618949,1.8342512
1409527174043,0.75596917,10.087969,1.5113398,0.5293071,9.620457,1.8267592
1409527174056,0.7206547,10.231023,1.4766239,0.52375346,9.622163,1.8193505
1409527174076,0.56802434,10.156802,1.5215151,0.514476,9.623628,1.8142519
1409527174078,0.5201403,9.854534,1.1665748,0.50090975,9.624691,1.8124013
1409527174083,0.35553896,9.870695,1.2348095,0.48515782,9.626883,1.8050398
1409527174123,0.22924481,9.738416,1.3341689,0.4673667,9.630388,1.7909757
1409527174126,0.11851298,9.647436,1.3760674,0.44767484,9.633395,1.7798021
1409527174128,0.073621705,9.635465,1.3868413,0.4269338,9.635678,1.7725176
1409527174131,0.014963761,9.562442,1.3946224,0.40551063,9.637094,1.7698525
1409527174134,-0.03232172,9.657611,1.3305776,0.38439423,9.6384,1.7674493
1409527174163,-0.037110128,9.627684,1.3706805,0.36462712,9.640347,1.7610174
1409527174164,-0.054468088,9.850345,1.3030443,0.34666115,9.6427965,1.7511952
1409527174165,-0.02633622,10.07121,1.3006501,0.32945007,9.646175,1.7358493
1409527174173,-0.01316811,9.883265,1.376666,0.31327766,9.650921,1.7122947
1409527174188,0.06823475,9.983223,1.4550761,0.29715917,9.655734,1.687876
1409527174204,0.19033903,9.977836,1.447295,0.2815162,9.659795,1.6671855
1409527174212,0.31244332,9.8994255,1.4850036,0.26855165,9.66288,1.6513705
1409527174229,0.374094,9.850345,1.5765818,0.25841355,9.66497,1.6407136
1409527174230,0.46387658,9.862914,1.6172832,0.24954212,9.666681,1.6319841
1409527174235,0.59136784,9.88506,1.578976,0.24164727,9.6681385,1.6245381
1409527174254,0.7469909,9.969456,1.6561891,0.23506366,9.669445,1.6176974
1409527174255,0.83856916,10.055647,1.726818,0.22984417,9.67037,1.6129171
1409527174269,0.9187749,10.114903,1.7681179,0.22510165,9.670838,1.6107867
1409527174273,0.94211835,10.167576,1.7908629,0.22066563,9.670933,1.6108271
1409527174288,0.9498995,10.11251,1.922544,0.21643122,9.670635,1.6131915
1409527174303,0.95468795,10.015544,2.0404584,0.21165933,9.669639,1.6197755
1409527174304,0.95468795,9.900622,2.1003134,0.20617227,9.667784,1.6315057
1409527174319,0.86370826,9.791686,2.1260512,0.20119375,9.665126,1.6478058
1409527174322,0.694917,9.671976,2.0566192,0.19594657,9.661939,1.667015
1409527174335,0.4261679,9.440337,1.9620483,0.18913397,9.658651,1.68673
1409527174354,0.4818331,9.3978405,1.8471266,0.1812384,9.655025,1.7082317
1409527174355,0.58657944,9.378088,1.7423803,0.1756218,9.651112,1.7307789
1409527174369,0.65900403,9.321226,1.6831238,0.17200434,9.647126,1.7532159
1409527174384,0.6721721,9.274539,1.6675615,0.1695725,9.64322,1.7748065
1409527174385,0.664391,9.2494,1.7022774,0.16763562,9.639567,1.7947289
1409527174400,0.6440403,9.261371,1.7184383,0.16595264,9.636459,1.8114941
1409527174402,0.5835867,9.313444,1.6657659,0.1642608,9.634205,1.8236035
1409527174417,0.51235914,9.394249,1.5825673,0.16282757,9.633014,1.8300076
1409527174422,0.39624038,9.520543,1.5173253,0.16157581,9.6328125,1.8311718
1409527174435,0.32621,9.651626,1.4796166,0.15908231,9.633079,1.8300021
1409527174454,0.24061728,9.802461,1.4796166,0.1565457,9.633753,1.8266562
1409527174454,0.107739076,9.901221,1.5185224,0.15408808,9.634543,1.822697
1409527174468,-0.094570965,9.922769,1.608305,0.150985,9.635015,1.8204623
1409527174489,-0.26156655,9.895834,1.6903064,0.14693287,9.634948,1.8211472
1409527174491,-0.350152,9.873089,1.769315,0.14196466,9.634227,1.8253565
1409527174493,-0.40880993,9.81922,1.8297687,0.13675825,9.632849,1.8330071
1409527174503,-0.44651863,9.782109,1.8668787,0.13137758,9.630802,1.8441248
1409527174527,-0.45549688,9.69532,1.8806454,0.12567659,9.628358,1.8572392
1409527174528,-0.4141969,9.497798,1.9991584,0.11931911,9.62578,1.8709645
1409527174534,-0.42197806,9.3738985,2.055422,0.112659,9.622763,1.8868304
1409527174559,-0.44771573,9.336189,2.0272903,0.10609124,9.619436,1.9040954
1409527174561,-0.49320555,9.357738,1.9919758,0.099719875,9.615635,1.9235396
1409527174563,-0.50278234,9.421184,1.9656396,0.09407464,9.611456,1.9445941
1409527174590,-0.4854244,9.519944,1.9608512,0.089543425,9.607204,1.9657058
1409527174592,-0.46267948,9.552266,2.0201077,0.08638379,9.602938,1.9865791
1409527174596,-0.46926352,9.601347,2.0470424,0.08435703,9.598671,2.0071838
1409527174602,-0.4285621,9.632472,1.9141643,0.082688294,9.594547,2.026874
1409527174624,-0.3417723,9.5971575,1.8237832,0.08182722,9.590863,2.0442722
1409527174625,-0.24241292,9.526528,1.7645266,0.082272775,9.587628,2.0593734
1409527174634,-0.21547815,9.43495,1.8171991,0.08343334,9.584797,2.0724542
1409527174672,-0.2657564,9.408015,1.9578584,0.08423633,9.582079,2.0849574
1409527174675,-0.31004912,9.450513,2.083554,0.08499051,9.579923,2.0948145
1409527174677,-0.28311434,9.522937,2.208651,0.08447741,9.578538,2.101153
1409527174708,-0.22685061,9.5798,2.297835,0.08433515,9.577658,2.105173
1409527174709,-0.16519992,9.655217,2.3002293,0.085065834,9.5768585,2.1087716
1409527174710,-0.06823475,9.673173,2.2996306,0.08680735,9.575913,2.112995
1409527174711,0.020350715,9.653421,2.3774424,0.09072602,9.574652,2.1185367
1409527174714,0.21787235,9.612122,2.415151,0.09679321,9.572883,2.1262472
1409527174722,0.34356794,9.540296,2.4361002,0.105648935,9.57044,2.1367998
1409527174737,0.45370123,9.452309,2.4426842,0.11597181,9.567137,2.1510065
1409527174749,0.5243302,9.40203,2.4660277,0.12705997,9.563267,2.167527
1409527174754,0.5470751,9.360131,2.4714148,0.13772106,9.559234,2.1845982
1409527174768,0.50158525,9.339182,2.4941597,0.14784071,9.555227,2.2013984
1409527174791,0.439336,9.352949,2.5198972,0.1567477,9.551477,2.2169998
1409527174800,0.34237084,9.389461,2.5623944,0.16425501,9.548105,2.230935
1409527174803,0.24420857,9.421184,2.5683799,0.16965647,9.545052,2.243565
1409527174804,0.17537527,9.408614,2.532467,0.17317048,9.542507,2.2540965
1409527174828,0.08559271,9.379884,2.5079262,0.17540191,9.540568,2.262117
1409527174829,0.06464344,9.336189,2.469619,0.1760297,9.5392275,2.2677155
1409527174834,0.1316811,9.296685,2.4654293,0.17602757,9.5385895,2.2704067
1409527174855,0.23343466,9.234436,2.4785974,0.17701577,9.538385,2.2711844
1409527174857,0.32621,9.254189,2.5031378,0.17994237,9.538124,2.2720432
1409527174863,0.42556936,9.339182,2.5342624,0.18427052,9.537725,2.2733705
1409527174890,0.5117606,9.405023,2.5809495,0.1899983,9.537126,2.2754176
1409527174892,0.5793968,9.465476,2.5737667,0.19667111,9.536342,2.2781317
1409527174895,0.59017074,9.446921,2.6372132,0.2034984,9.535658,2.280401
1409527174903,0.5009867,9.390059,2.6449943,0.20943162,9.535033,2.282473
1409527174922,0.45549688,9.336189,2.6539726,0.21340376,9.534661,2.2836535
1409527174923,0.3800795,9.281123,2.5839422,0.215897,9.534424,2.2844157
1409527174934,0.30286652,9.2308445,2.5300727,0.2165837,9.534563,2.2837663
1409527174951,0.22864626,9.14585,2.5031378,0.21593036,9.535132,2.2814548
1409527174977,0.20111294,9.051878,2.4558525,0.21446232,9.536287,2.2767577
1409527174979,0.22146365,8.988432,2.4522612,0.21257202,9.537736,2.2708569
1409527174981,0.2184709,8.996812,2.4660277,0.21103299,9.539459,2.2637584
1409527174983,0.29328972,9.007586,2.4791958,0.20908187,9.541718,2.254394
1409527175011,0.2837129,9.094974,2.3989902,0.2080667,9.5444565,2.2428684
1409527175012,0.19393034,9.197326,2.384625,0.20744105,9.54781,2.228614
1409527175014,0.08559271,9.247005,2.4037786,0.2062792,9.551691,2.21202
1409527175039,-0.031124622,9.329605,2.3720553,0.20483014,9.555644,2.1950207
1409527175041,-0.095768064,9.382876,2.3505075,0.20307364,9.559566,2.1780412
1409527175043,-0.06703765,9.385869,2.2972364,0.2016214,9.563676,2.1600604
1409527175055,-0.050876785,9.396643,2.2936451,0.20121512,9.567796,2.1417758
1409527175075,-0.027533319,9.457097,2.405574,0.20180264,9.571658,2.1243887
1409527175076,0.061650693,9.583391,2.4271219,0.2029492,9.5751,2.1087122
1409527175083,0.25139117,9.955689,2.3277626,0.20490839,9.577995,2.095335
1409527175110,0.4429273,10.096947,2.1290438,0.20838915,9.580655,2.0827913
1409527175112,0.6087258,10.245388,1.9752164,0.21319154,9.583239,2.0703788
1409527175115,0.6584055,10.289082,1.8231846,0.21843386,9.585588,2.0589232
1409527175146,0.64463884,10.226832,1.7010803,0.22212972,9.587553,2.049366
1409527175148,0.62009823,10.079589,1.6053122,0.22340047,9.588778,2.0434866
1409527175152,0.58777654,9.873089,1.4437037,0.22100924,9.588924,2.0430562
1409527175181,0.4770447,9.67018,1.3461399,0.2143312,9.588354,2.0464356
1409527175183,0.36032736,9.384672,1.3904326,0.20214674,9.587458,2.051876
1409527175185,0.40282443,9.0716305,1.4227544,0.18388113,9.585975,2.0605047
1409527175187,0.5746084,8.893861,1.5628152,0.16303788,9.584149,2.0707278
1409527175212,0.82121116,8.783728,1.7878702,0.14039046,9.582284,2.080995
1409527175214,0.9828198,8.794501,1.9303252,0.11747935,9.580984,2.0883822
1409527175215,1.074398,8.845977,2.0452468,0.0957005,9.580874,2.089992
1409527175233,1.1935096,8.966884,2.1703439,0.07678079,9.582244,2.0844896
1409527175234,1.2401965,9.202713,2.3989902,0.06279829,9.585052,2.0720172
1409527175250,1.2018893,9.61272,2.630629,0.05420465,9.588912,2.054316
1409527175274,1.186327,10.131064,2.6569653,0.05136099,9.593729,2.0317748
1409527175275,1.0696096,10.689512,2.528277,0.05431268,9.599864,2.0025103
1409527175276,0.7799112,11.637616,1.8890251,0.06008814,9.607355,1.9660889
1409527175283,0.6584055,11.862671,1.3706805,0.0629228,9.61663,1.9201273
1409527175307,0.6171055,11.891401,0.98341835,0.062623814,9.627064,1.8671149
1409527175308,0.5835867,11.589133,0.79248077,0.055436037,9.638159,1.8092015
1409527175316,0.6697779,11.107899,0.8343793,0.03997529,9.648892,1.7514815
1409527175332,0.75716627,10.518925,0.9504981,0.018680643,9.658303,1.6991805
1409527175334,0.85473,10.127473,1.1091139,-0.0060135066,9.666337,1.6529564
1409527175348,0.9235633,9.776723,1.1617863,-0.032432545,9.673502,1.6101873
1409527175371,0.8948329,9.46009,1.3006501,-0.060864914,9.680245,1.5683001
1409527175373,0.9828198,9.414001,1.389834,-0.09318551,9.686527,1.5273856
1409527175375,0.98700964,9.368511,1.5837644,-0.12816916,9.692368,1.4872702
1409527175383,0.8511387,9.160215,1.7250223,-0.16702469,9.697478,1.4496247
1409527175414,0.83976626,9.111135,1.6262615,-0.20942321,9.701884,1.41421
1409527175415,0.6290765,8.957307,1.6394296,-0.25521272,9.705808,1.3793356
1409527175416,0.43873745,8.822035,1.6472107,-0.3037734,9.708928,1.3471512
1409527175433,0.39683893,8.697536,1.5616181,-0.3542674,9.7109375,1.3200655
1409527175434,0.3824737,8.627506,1.460463,-0.40543035,9.711701,1.2995714
1409527175449,0.30166942,8.659229,1.5113398,-0.45565385,9.711521,1.2841789
1409527175463,0.25617957,8.7053175,1.5358804,-0.50603396,9.710561,1.2725316
1409527175464,0.065242,8.916007,1.4425066,-0.55573297,9.708959,1.2640011
1409527175481,-0.013766659,8.98903,1.412579,-0.6036795,9.707044,1.256682
1409527175483,-0.06464344,9.116522,1.3485341,-0.6491985,9.704869,1.2507813
1409527175505,0.04129998,9.322423,1.1246762,-0.69122577,9.702538,1.2463348
1409527175506,0.12749124,9.512163,1.073201,-0.72995955,9.700434,1.2406245
1409527175515,0.15083471,9.652225,1.1641805,-0.7632057,9.698532,1.2354629
1409527175536,0.08080431,9.733627,1.316811,-0.7912537,9.696571,1.2332267
1409527175538,0.10175357,9.717466,1.352724,-0.815567,9.694157,1.2363588
1409527175543,0.19572599,9.621099,1.2988545,-0.8357674,9.691348,1.2448527
1409527175574,0.3238158,9.437345,1.2587515,-0.85091573,9.688439,1.2571726
1409527175575,0.439336,9.267955,1.1737574,-0.86138713,9.685542,1.2722768
1409527175577,0.6745663,9.3421755,1.0570401,-0.8681747,9.682852,1.2880517
1409527175583,0.82719666,9.378687,1.0899603,-0.872004,9.680757,1.3011333
1409527175604,0.6937199,9.362526,1.292869,-0.8757513,9.679234,1.3099228
1409527175606,0.59376204,9.403227,1.1941081,-0.8826766,9.677472,1.3182523
1409527175615,0.5895722,9.403227,1.1474211,-0.89059013,9.676069,1.3232183
1409527175651,0.43634325,9.425373,1.4089876,-0.9008751,9.674851,1.325178
1409527175653,0.2896984,9.810242,1.4580688,-0.91445434,9.6733055,1.3271499
1409527175655,0.24301147,10.33517,1.2395979,-0.9315258,9.671717,1.3268522
1409527175679,0.05566519,10.861296,0.81522566,-0.9516414,9.670432,1.3219354
1409527175681,0.07182605,10.968436,0.70509243,-0.9775756,9.669439,1.3102323
1409527175682,0.13946225,10.847529,0.74878657,-1.0090443,9.668156,1.2957593
1409527175684,0.25677812,10.7673235,0.82240826,-1.0455145,9.666177,1.2815311
1409527175704,0.46028528,10.770915,0.9056068,-1.0848758,9.663302,1.2704511
1409527175705,0.741604,10.852318,1.0570401,-1.1255033,9.65947,1.2642323
1409527175714,1.2557588,10.949882,1.2132617,-1.1634594,9.655266,1.2619891
1409527175732,1.9045875,11.205462,1.2946646,-1.1979265,9.650813,1.2637839
1409527175734,2.597709,11.486781,1.30484,-1.2251705,9.6470375,1.2664951
1409527175753,3.168726,11.542446,1.3904326,-1.2424566,9.644559,1.268527
1409527175756,3.4183214,11.789049,1.3425486,-1.249354,9.643017,1.2734761
1409527175763,3.537433,11.767501,1.471237,-1.2473795,9.642208,1.2815048
1409527175790,3.4871547,11.622652,1.7316064,-1.2356689,9.641991,1.2944359
1409527175792,3.1962593,11.173739,2.4588451,-1.2134923,9.642309,1.3128986
1409527175795,3.074155,10.45907,3.2321723,-1.1821724,9.642202,1.3419378
1409527175822,2.0733786,9.722255,3.4207156,-1.1365418,9.64189,1.3829765
1409527175824,0.90141696,9.1751795,3.074155,-1.0850357,9.641117,1.4289684
1409527175825,-0.45070848,8.606557,3.0879216,-1.0395963,9.639706,1.4716302
1409527175836,-0.4950012,8.321647,1.8531121,-0.9885203,9.637458,1.5207253
1409527175861,-1.1911154,7.9912467,0.52073884,-0.9197592,9.637982,1.5600477
1409527175862,-1.7735049,7.943961,0.30406362,-0.8379861,9.6421175,1.5804223
1409527175864,-2.2972364,8.376713,1.3922282,-0.74231964,9.648351,1.5901846
1409527175884,-2.4558525,9.89344,2.6461914,-0.6349125,9.653868,1.6031582
1409527175885,-1.6663644,13.062166,2.7036524,-0.5171404,9.658129,1.6197269
1409527175902,-0.623091,15.824476,1.9979613,-0.37925607,9.664158,1.6219108
1409527175903,0.6003461,17.70931,1.1079168,-0.21535197,9.672244,1.6036551
1409527175916,0.28670564,17.013197,1.2617443,-0.033138737,9.67805,1.582604
1409527175934,-0.6171055,15.834652,1.8483237,0.12638599,9.676983,1.5844356
1409527175935,-1.9249382,14.733917,2.2170308,0.2585498,9.665605,1.6369586
1409527175954,-3.3854012,13.549985,2.405574,0.35011014,9.646907,1.72772
1409527175955,-4.3742065,12.846687,2.5755625,0.40663224,9.624358,1.8376026
1409527175963,-4.672883,12.620436,2.6593595,0.43634033,9.601096,1.9490893
1409527176007,-4.3167458,11.919533,2.3523033,0.45438308,9.580301,2.0449388
1409527176009,-3.5889084,11.6190605,2.0380642,0.4817875,9.564072,2.113484
1409527176012,-2.930503,11.0935335,1.75076,0.52532834,9.551139,2.1610513
1409527176016,-2.2505496,10.494983,1.8596961,0.58373636,9.537365,2.2064247
1409527176020,-1.4640543,9.854534,2.236783,0.6543341,9.519193,2.2643383
1409527176044,0.044891283,9.172785,2.5605986,0.7376109,9.495521,2.3369656
1409527176045,0.47524905,7.805696,2.553416,0.83526003,9.4679985,2.4144893
1409527176047,0.973243,7.4776907,2.4259248,0.9348218,9.438524,2.492136
1409527176077,1.0193313,6.823475,2.0033484,1.0335894,9.409198,2.5630271
1409527176078,0.97982705,6.114791,1.638831,1.1315682,9.379259,2.6304865
1409527176080,0.9151836,5.587468,1.460463,1.2260554,9.346812,2.7026439
1409527176087,0.7086837,4.835689,1.4927847,1.3139011,9.310236,2.786312
1409527176125,0.48243165,4.2658687,1.5424645,1.3948213,9.268357,2.8848605
1409527176127,0.2908955,4.0066967,1.5263035,1.4701022,9.221167,2.9965463
1409527176129,0.28491,3.9510314,1.5819688,1.5404396,9.17054,3.1142619
1409527176132,0.32441434,3.8708255,1.6765398,1.6075042,9.11943,3.2283623
1409527176162,0.24839842,3.8522706,1.7196354,1.6707765,9.071701,3.3291378
1409527176164,0.23523031,3.915717,1.804031,1.7324816,9.02622,3.4199786
1409527176166,0.3196259,4.187459,1.9021933,1.7890327,8.988711,3.4889607
1409527176169,0.47405192,4.621408,1.9877859,1.8407258,8.960573,3.5341547
1409527176197,0.55844754,5.2026005,2.1841104,1.8857752,8.942652,3.5557306
1409527176198,0.6955156,5.6509147,2.3876176,1.9231873,8.93511,3.554651
1409527176205,0.8858546,5.855619,2.4361002,1.952192,8.936575,3.535104
1409527176222,1.1408371,5.9202623,2.6138697,1.9710578,8.944829,3.5036237
1409527176224,1.9189527,6.3607955,3.9576154,1.9757069,8.957636,3.4681027
1409527176225,2.5917234,7.3442135,4.404134,1.9657459,8.971231,3.4384947
1409527176254,3.0974984,8.788516,5.2079873,1.9417946,8.988413,3.407089
1409527176255,3.5170822,10.329783,5.483919,1.904958,9.008007,3.375994
1409527176256,3.425504,11.288062,5.3498435,1.8641713,9.031234,3.3364787
1409527176264,3.4715924,11.632229,4.939238,1.810814,9.060581,3.2859123
1409527176282,3.1124623,11.799823,4.9781437,1.7529947,9.093026,3.227116
1409527176285,2.4343045,14.132973,5.0158525,1.6945156,9.122177,3.175672
1409527176301,1.2252327,15.731701,4.4837413,1.64042,9.14797,3.1295469
1409527176320,1.3605051,14.586674,3.5087025,1.5923783,9.174486,3.0762854
1409527176322,2.9215245,12.77965,3.0280666,1.5805956,9.194852,3.02106
1409527176324,4.848857,11.378444,3.2968156,1.6251748,9.197474,2.989259
1409527176356,6.4218473,9.532514,3.7666779,1.7189554,9.175976,3.002836
1409527176357,7.326257,7.7308774,4.9643774,1.8414934,9.133336,3.0596535
1409527176358,7.077859,7.121553,7.8583684,1.9790691,9.078104,3.1371458
1409527176364,5.1906295,8.91481,11.249755,2.1203363,9.008799,3.242859
1409527176392,4.325724,14.766239,9.986814,2.2416515,8.937468,3.3566475
1409527176393,3.3560722,18.451513,5.501277,2.3260453,8.90096,3.3959994
1409527176397,0.6278794,16.018406,3.5913026,2.3623207,8.912085,3.3413448
1409527176431,-3.3979707,11.4598465,1.9099745,2.344829,8.925868,3.3167827
1409527176433,-3.667917,10.609306,1.7435774,2.288304,8.925686,3.3565133
1409527176436,-3.9665937,10.4644575,2.6162639,2.2123241,8.918046,3.427023
1409527176464,-3.9073372,10.565612,1.9596541,2.109393,8.916097,3.4962938
1409527176465,-3.6697125,10.388441,0.6039374,1.9950472,8.927339,3.5345166
1409527176466,-3.3243492,9.706094,0.45010993,1.8863543,8.949026,3.5393503
1409527176467,-2.6647465,9.044097,0.93134445,1.7948861,8.969162,3.535946
1409527176482,-1.8249803,8.580819,1.1941081,1.7109485,8.981032,3.5474062
1409527176484,-0.92655605,8.115147,1.3437457,1.6446216,8.983247,3.5730796
1409527176497,-0.040102877,7.3909006,1.8501194,1.5932887,8.984218,3.5938356
1409527176512,0.56323594,7.023391,2.2409728,1.5504102,8.991781,3.5936725
1409527176515,0.84216046,7.347805,2.367267,1.5080538,9.009033,3.5684013
1409527176528,1.1324574,7.9649105,2.7156234,1.4621993,9.035326,3.5206864
1409527176560,1.1965023,8.79929,2.9173348,1.4126827,9.066945,3.4590805
1409527176561,0.97743285,9.399037,2.496554,1.3566878,9.101417,3.3902826
1409527176562,0.5518635,9.599552,2.11827,1.2944893,9.138031,3.315278
1409527176564,0.018555064,9.75697,1.9776106,1.2237086,9.175728,3.2371213
1409527176583,-0.6452374,10.035296,1.7274165,1.1470959,9.214982,3.1525633
1409527176584,-1.3060371,10.126875,1.3491327,1.0637395,9.256861,3.0576756
1409527176596,-1.7178397,9.791686,1.0714053,0.9797537,9.2993145,2.955204
1409527176622,-1.8405426,9.370906,1.158195,0.90408796,9.33714,2.8584661
1409527176624,-1.8926164,9.277532,1.4867992,0.84176505,9.366576,2.7801204
1409527176625,-1.9686323,9.487024,1.5568297,0.7903505,9.387899,2.7226992
1409527176654,-1.8938135,9.712678,1.055843,0.7443753,9.402904,2.6835957
1409527176656,-1.8034325,9.284116,0.4345476,0.6966276,9.414622,2.6551774
1409527176657,-1.7812861,8.547898,0.29807812,0.63950676,9.425629,2.6303878
1409527176664,-1.6364368,8.158841,0.7404069,0.56938523,9.437981,2.6020632
1409527176692,-1.4951789,7.9870567,1.3724761,0.49619168,9.450881,2.5700295
1409527176693,-0.82779527,8.391078,1.590947,0.41271377,9.468033,2.5211864
1409527176696,0.050278235,8.255207,1.827973,0.3291683,9.488659,2.4550774
1409527176719,1.0139444,8.173206,2.1266496,0.24980874,9.507759,2.3896654
1409527176721,1.6304513,8.222886,2.4061728,0.17362551,9.520402,2.345672
1409527176725,1.9009962,8.248624,2.4157495,0.09726323,9.524702,2.3325882
1409527176755,1.893215,7.757812,2.5378537,0.019706737,9.521479,2.34765
1409527176757,1.7208325,7.5285673,2.6731262,-0.06415896,9.512269,2.3839118
1409527176758,1.3946224,7.5824366,2.5504234,-0.151051,9.499848,2.4290812
1409527176764,1.0989386,7.760206,2.1350293,-0.24110405,9.487232,2.470764
1409527176787,0.95827925,8.045116,1.6591818,-0.3324223,9.475616,2.5045123
1409527176788,1.4921862,8.804677,1.9327193,-0.42473403,9.464306,2.533162
1409527176796,1.8902222,9.274539,2.1428106,-0.50697815,9.45284,2.5606992
1409527176826,2.3427265,9.569624,2.4049757,-0.575374,9.440355,2.5921152
1409527176828,2.5833437,9.263765,2.9532478,-0.62704587,9.426177,2.631425
1409527176829,2.585738,9.128492,3.5218706,-0.6689222,9.409116,2.6816957
1409527176860,2.292448,8.98484,3.6367924,-0.7078562,9.390466,2.736509
1409527176861,2.0901382,9.020155,3.0310593,-0.7485773,9.373931,2.7819831
1409527176862,2.167351,9.181764,2.4971523,-0.78691053,9.362916,2.8083744
1409527176864,2.4785974,9.502586,2.690484,-0.81668675,9.354982,2.8262532
1409527176880,2.8568811,10.141838,3.2016463,-0.8335097,9.346341,2.8498354
1409527176896,2.698864,10.720038,3.4081461,-0.84233373,9.337362,2.8765461
1409527176897,2.4187422,11.250953,3.2148144,-0.8448104,9.33144,2.8949838
1409527176918,2.349909,11.454459,2.5486276,-0.84520316,9.332501,2.8914423
1409527176919,2.224812,11.432313,2.1380222,-0.836737,9.340874,2.866764
1409527176924,1.9776106,11.14441,2.6018987,-0.8142392,9.353981,2.830276
1409527176954,1.7878702,10.439318,3.1196449,-0.77964586,9.367791,2.7941055
1409527176957,1.2054806,9.7641535,2.6024973,-0.73450094,9.380803,2.7625082
1409527176958,0.97384155,9.199121,1.9835961,-0.6797506,9.395235,2.7272484
1409527176965,-0.038905777,8.249821,2.7323828,-0.60962033,9.411555,2.6872642
1409527176988,-1.0486604,7.8888946,1.7477672,-0.5334994,9.427392,2.647653
1409527176989,-2.1158757,7.4226236,0.6817489,-0.45526487,9.448564,2.586074
1409527176996,-3.4225113,7.1431007,0.24720132,-0.38241494,9.472239,2.5101476
1409527177025,-4.6806645,7.4567413,0.8331822,-0.30328968,9.497823,2.4227557
1409527177026,-4.0503907,9.76954,1.4161704,-0.21711825,9.52071,2.3407977
1409527177028,-3.7098155,13.41112,2.0410569,-0.106443994,9.541707,2.2616084
1409527177069,-2.9831753,18.276138,2.2505496,0.027668709,9.560265,2.1842508
1409527177071,-1.5161282,19.608511,2.1452048,0.18166466,9.57478,2.112097
1409527177073,-1.2844892,19.608511,2.6162639,0.35869777,9.579338,2.0683286
1409527177076,-2.932897,19.522919,2.516306,0.5234875,9.571974,2.0672836
1409527177078,-3.5895069,16.745646,2.6839,0.62153447,9.559168,2.0991378
1409527177113,-2.9819782,12.525865,3.1573534,0.66728926,9.537319,2.1828163
1409527177119,-2.154183,8.862138,4.022857,0.6906366,9.503543,2.3186424
1409527177121,-3.0364463,9.114726,5.380968,0.7152119,9.461777,2.4766195
1409527177156,-2.8018146,11.754931,4.935048,0.7172347,9.416587,2.6426995
1409527177157,-1.8531121,11.613075,3.457826,0.7325718,9.383493,2.7538638
1409527177159,-1.0013748,9.141661,2.2170308,0.8106496,9.370584,2.775862
1409527177160,0.089184016,7.745841,2.629432,0.9428762,9.365564,2.7509248
1409527177161,1.4939818,8.004415,4.5274353,1.092165,9.353355,2.737207
1409527177168,1.8429368,8.124125,4.173692,1.2471119,9.3266945,2.761861
1409527177205,2.134431,7.925406,3.454833,1.398612,9.293078,2.8023124
1409527177206,2.0135236,7.061698,2.2535424,1.5425819,9.258364,2.841396
1409527177208,1.9303252,6.1405287,1.4496891,1.6668928,9.227133,2.8726058
1409527177209,1.8309658,5.6748567,1.2060791,1.7754077,9.19667,2.905095
1409527177236,1.2372037,5.00867,1.3150153,1.8649192,9.164956,2.9489043
1409527177237,0.74878657,4.3777976,1.3078327,1.9382039,9.126929,3.0187593
1409527177239,0.5105635,3.8893807,1.3694834,1.9982061,9.0826845,3.111658
1409527177246,0.4950012,3.7720647,1.6430209,2.0473382,9.035102,3.2164788
1409527177268,0.47225627,3.9294837,1.8782512,2.0904567,8.986927,3.3219786
1409527177269,0.3597288,4.107253,2.046444,2.1299753,8.940224,3.4214013
1409527177276,0.3812766,4.2359414,2.1613655,2.164114,8.898309,3.5081494
1409527177296,0.66020113,4.367024,2.4438813,2.1904492,8.864027,3.5778966
1409527177298,0.8170213,4.498705,2.9017725,2.2094872,8.839003,3.6277566
1409527177321,1.091756,4.8422728,3.4488475,2.221472,8.824061,3.6566916
1409527177324,1.4586674,5.401319,3.8738184,2.2317462,8.814185,3.6742122
1409527177328,2.1158757,5.957372,4.1186256,2.2304506,8.816196,3.6701732
1409527177354,2.5246856,6.4338183,4.162918,2.2183313,8.828954,3.646777
1409527177355,3.4129345,8.267777,4.712986,2.1904285,8.852043,3.607459
1409527177357,3.4476504,9.622296,5.153519,2.1468375,8.883131,3.5568867
1409527177369,2.7246015,10.422559,6.166865,2.0841138,8.921207,3.498416
1409527177405,2.2014685,10.410587,6.356007,2.004412,8.960746,3.44351
1409527177407,1.5382746,9.531317,6.3470287,1.9243981,8.997524,3.3928814
1409527177408,1.0905589,13.996503,6.755839,1.8556423,9.0283575,3.348989
1409527177410,1.1210849,18.457499,5.405509,1.7851388,9.0586,3.3053644
1409527177434,1.1282675,16.50383,4.718373,1.7130365,9.09765,3.2355318
1409527177437,2.6940753,14.105439,3.903746,1.6540667,9.122242,3.1967402
1409527177438,4.4101195,11.8094,3.0681696,1.6577507,9.119977,3.2012906
1409527177445,6.52001,8.394072,2.345719,1.7121006,9.090569,3.255865
1409527177468,7.5590935,5.300164,4.103063,1.8045942,9.033719,3.362403
1409527177469,6.6391215,3.702633,9.064447,1.9267858,8.950771,3.5130582
1409527177478,4.7925935,6.6846113,12.813169,2.0745142,8.848105,3.6848087
1409527177502,3.5338416,13.233352,10.070611,2.2211833,8.754123,3.8212645
1409527177505,2.6473885,17.088615,4.881179,2.33496,8.730349,3.8078048
1409527177506,-1.7537527,14.3735895,4.0563765,2.4003394,8.7724285,3.6678696
1409527177541,-3.2597055,12.435484,2.5031378,2.3795538,8.815957,3.5758955
1409527177543,-2.6970682,12.841301,1.2066777,2.322679,8.851404,3.5253634
1409527177545,-2.2541409,14.3694,2.1290438,2.2464821,8.8737335,3.5185995
1409527177546,-2.505532,12.962807,-0.17178397,2.134062,8.898962,3.5248601
1409527177569,-2.598906,11.516708,-0.74998367,2.0130107,8.941975,3.487015
1409527177570,-2.203264,10.947487,0.20829555,1.8974005,8.9939375,3.4175067
1409527177577,-1.4981717,10.575788,0.42317516,1.7914933,9.034058,3.3684938
1409527177598,-1.0600328,10.207679,0.76075757,1.7062076,9.050529,3.3685584
1409527177599,-0.729633,9.43495,1.3186066,1.6409392,9.053478,3.392971
1409527177606,0.035314474,8.329428,2.0231004,1.5872698,9.059382,3.4027317
1409527177628,0.61171854,7.8027034,2.4905684,1.5378238,9.074379,3.385432
1409527177629,0.8265981,7.992444,2.8275523,1.4817226,9.096906,3.3498046
1409527177646,0.9463082,8.5700445,2.7395654,1.414666,9.120409,3.314702
1409527177647,0.6937199,8.59279,2.2182279,1.340024,9.143391,3.2822468
1409527177661,0.20530279,8.199542,1.9818004,1.2547407,9.1644945,3.2569993
1409527177676,-0.34596214,8.082227,1.9183542,1.1585727,9.1874075,3.2279494
1409527177680,-0.8583213,8.330625,1.7250223,1.0532053,9.21801,3.1763878
1409527177701,-1.2844892,8.799889,1.6178818,0.9442291,9.258774,3.0909443
1409527177702,-1.6035166,8.950125,1.3461399,0.83923244,9.303665,2.9846067
1409527177705,-1.7112557,8.759187,0.9792285,0.74265736,9.343993,2.8824713
1409527177725,-1.9375077,8.352173,0.842759,0.6564325,9.374809,2.80222
1409527177726,-2.043451,7.9529395,1.4137762,0.57956934,9.3965435,2.7458062
1409527177741,-1.6849195,8.241441,1.4053963,0.5117857,9.4129715,2.7026722
1409527177745,-1.0181342,8.5778265,0.8948329,0.4510914,9.424803,2.6720815
1409527177760,-0.48482585,8.577228,0.46208093,0.39595118,9.434428,2.6467347
1409527177777,-0.15981296,8.034941,0.4938041,0.34301218,9.442314,2.6259208
1409527177778,0.22266077,7.583634,0.92057055,0.28479478,9.448325,2.611215
1409527177795,0.8230068,7.9930425,1.3916297,0.21687494,9.455191,2.5928202
1409527177797,1.7435774,8.692149,1.8052281,0.14342259,9.466947,2.5547462
1409527177820,2.8443117,9.11293,2.2301989,0.07399149,9.484133,2.4932191
1409527177821,3.6709096,9.124901,2.5833437,0.013879974,9.5026,2.4229748
1409527177826,3.9881415,8.890868,2.8682537,-0.041435666,9.5166445,2.366887
1409527177849,4.0779243,8.602965,3.2040405,-0.09634714,9.521548,2.3454738
1409527177853,3.9677908,8.379706,3.354875,-0.15174755,9.520434,2.3470614
1409527177857,3.5003228,8.055291,3.359065,-0.20678693,9.510269,2.3837786
1409527177874,2.7210102,8.193557,3.1908724,-0.2674322,9.494946,2.4382107
1409527177877,2.0697873,8.762778,2.6222494,-0.33688554,9.478136,2.4943643
1409527177892,1.6807296,8.850166,2.142212,-0.41520157,9.462893,2.540016
1409527177913,1.6597804,8.905233,1.8363527,-0.49770725,9.450125,2.572513
1409527177914,1.8034325,8.400057,2.5372553,-0.5754795,9.43874,2.5979643
1409527177928,1.8620903,8.189367,2.819771,-0.6434337,9.425233,2.630849
1409527177930,1.6280571,8.0606785,2.932897,-0.7021131,9.410204,2.6693633
1409527177952,1.021127,7.875128,3.2118216,-0.7548881,9.394721,2.709197
1409527177955,0.45250413,8.106169,3.2746694,-0.80520433,9.3782835,2.7513325
1409527177957,0.31423897,8.573038,2.7886465,-0.8554115,9.361446,2.7932048
1409527177974,0.6967127,9.34038,1.9698294,-0.899117,9.347249,2.8268194
1409527177977,1.4568717,10.06283,1.8207904,-0.93341595,9.338385,2.84494
1409527177991,2.0763714,10.663176,2.429516,-0.95791525,9.333156,2.8539472
1409527177997,2.0308816,11.055825,2.7844565,-0.97482383,9.330428,2.8571355
1409527178016,1.4269443,11.277887,2.4648306,-0.9877457,9.332538,2.8457878
1409527178018,0.8762778,11.659762,2.718616,-0.9968293,9.340894,2.815038
1409527178025,0.32202014,11.699865,3.5727475,-1.0002811,9.3516445,2.7778742
1409527178047,-0.12749124,11.108498,3.3848026,-0.9979186,9.360562,2.7485292
1409527178048,0.18195933,10.38066,2.3307555,-0.98475325,9.37072,2.7185025
1409527178057,0.82001406,9.827001,2.0566192,-0.9501049,9.384887,2.6817148
1409527178078,1.1258733,9.168595,2.6030958,-0.90190136,9.400084,2.6448772
1409527178081,1.01574,8.921394,2.3133974,-0.83496076,9.415617,2.611395
1409527178101,0.4770447,9.039907,0.91578215,-0.75771326,9.435536,2.5625968
1409527178105,-1.6986861,7.667431,-0.04369418,-0.6735213,9.462423,2.4858184
1409527178106,-2.5061307,7.21373,-0.24720132,-0.5908038,9.490787,2.3971477
1409527178128,-3.0789435,7.5148005,0.38965634,-0.49433732,9.518431,2.307703
1409527178131,-2.7724855,9.574412,1.2066777,-0.37881577,9.544673,2.219483
1409527178146,-2.5498247,13.162723,2.385822,-0.23848405,9.568773,2.1335588
1409527178147,-2.3122003,18.153437,3.084929,-0.07778533,9.586711,2.0638125
1409527178171,-1.9626468,19.608511,2.859874,0.09276721,9.596221,2.0184925
1409527178173,-1.7495629,19.608511,3.095703,0.26961336,9.5996275,1.9861621
1409527178177,-2.52289,18.794483,3.3848026,0.43249273,9.590918,1.9994131
1409527178204,-2.645593,15.563508,3.7391446,0.546918,9.573562,2.0538204
1409527178205,-1.8118122,12.348694,4.1934443,0.6143417,9.547728,2.1526415
1409527178207,-1.2617443,9.431359,4.6920366,0.64935786,9.513116,2.2911508
1409527178236,-2.6767175,8.00621,5.379771,0.6629015,9.473335,2.4468086
1409527178238,-2.472612,12.132018,5.239112,0.65530384,9.436781,2.5861413
1409527178239,-1.501763,12.644378,3.8307228,0.6583212,9.415524,2.6617525
1409527178248,-0.82599956,9.816227,2.1829133,0.7263677,9.413739,2.6503415
1409527178282,0.27832595,8.420407,2.360683,0.84613335,9.419611,2.593335
1409527178284,1.1707647,8.568848,3.3836055,0.98153824,9.417104,2.554433
1409527178286,1.9273324,8.944737,4.042011,1.1172917,9.404903,2.5435877
1409527178287,2.621651,7.8475947,2.9873652,1.2589132,9.378242,2.575675
1409527178313,2.4193408,6.3643866,2.391209,1.396005,9.346152,2.6212592
1409527178314,2.1577742,5.2684407,2.2613235,1.5145471,9.314079,2.6691701
1409527178317,2.0015526,4.717176,2.2200236,1.608723,9.282484,2.7235801
1409527178325,1.7178397,4.144363,2.2140381,1.6840707,9.248799,2.7917774
1409527178342,1.4772224,3.5913026,1.87047,1.7489511,9.210641,2.8767471
1409527178346,1.1569979,3.4494462,1.6519991,1.8051863,9.16858,2.9747045
1409527178366,0.9331401,3.6457705,1.5837644,1.8503178,9.125156,3.078679
1409527178367,0.82001406,3.8145618,1.7136499,1.885284,9.082661,3.1814077
1409527178380,0.7637503,4.03004,1.9698294,1.9117315,9.041622,3.2809691
1409527178393,0.670975,4.2299557,2.1260512,1.934577,9.003568,3.3709898
1409527178411,0.7517793,4.545392,2.32058,1.9487166,8.971258,3.4481041
1409527178412,0.9307459,4.9218802,2.5833437,1.956163,8.946093,3.5087402
1409527178425,1.264737,5.4498014,2.956839,1.9578345,8.929059,3.5509374
1409527178426,1.5747862,5.8095303,3.572149,1.9534663,8.919936,3.5761838
1409527178441,1.7950528,6.035184,4.134786,1.9406066,8.917848,3.5883734
1409527178458,2.2481554,6.491279,4.5920787,1.9157416,8.923204,3.5884197
1409527178459,2.7742813,7.422025,4.9063177,1.8776273,8.938015,3.5716681
1409527178473,3.3883939,8.887876,4.8973393,1.8263688,8.965144,3.5300102
1409527178477,3.3201592,11.120468,5.080496,1.7664857,9.005183,3.457834
1409527178490,2.6509798,10.268731,5.66109,1.704224,9.050725,3.3690364
1409527178507,2.256535,8.4826565,6.217143,1.6300465,9.095105,3.2851791
1409527178508,2.0488381,11.14441,6.767211,1.5671755,9.127853,3.2243803
1409527178522,1.4293385,16.379332,5.9142766,1.5230153,9.148966,3.1854749
1409527178526,1.3012487,16.60319,4.325125,1.4820023,9.175259,3.128689
1409527178539,3.1519666,14.396335,3.3441012,1.4535413,9.202035,3.0627065
1409527178556,5.108628,12.500726,3.9971197,1.4773151,9.207297,3.0353959
1409527178559,6.6804214,10.007763,4.3700166,1.5534405,9.17779,3.086325
1409527178572,6.809708,8.349778,7.60578,1.6584132,9.114542,3.2163908
1409527178577,5.5060654,10.125079,10.779893,1.7797681,9.018032,3.417296
1409527178591,4.5238442,16.106993,9.039309,1.909236,8.906103,3.634076
1409527178609,1.2910733,16.81747,6.117185,2.0333333,8.819478,3.775282
1409527178609,-2.734777,13.904925,4.2754455,2.1082087,8.789242,3.8046112
1409527178623,-3.6733038,12.369643,2.047641,2.1223915,8.798779,3.7745643
1409527178626,-3.0125043,10.329783,1.3874398,2.090678,8.819534,3.7436965
1409527178639,-2.7503393,9.050681,2.2768857,2.0371542,8.825355,3.7594538
1409527178657,-2.5420437,9.263765,2.4396915,1.955821,8.827785,3.7967577
1409527178658,-2.8455088,9.25359,0.92895025,1.857467,8.848939,3.796904
1409527178671,-2.8341362,9.896433,1.1641805,1.7616034,8.894375,3.7359376
1409527178678,-2.4486697,10.629059,0.9307459,1.6745727,8.9442,3.6561582
1409527178687,-1.7986441,10.914567,0.59735334,1.6015604,8.983567,3.591786
1409527178712,-0.6733692,10.412982,0.9032126,1.5414321,9.016894,3.5341191
1409527178713,0.27952304,9.579201,1.6394296,1.4915792,9.042884,3.4888175
1409527178718,0.5351041,9.382876,2.071583,1.4419924,9.071716,3.4343886
1409527178726,0.51235914,9.744401,2.1853075,1.3800577,9.108518,3.3616555
1409527178748,0.7146692,9.6288805,1.8381484,1.3049941,9.148786,3.281328
1409527178750,0.6727707,8.851962,1.5496471,1.2203377,9.184917,3.2122357
1409527178758,0.4141969,8.260594,1.7782934,1.1250315,9.213433,3.1650193
1409527178772,-0.05865794,7.934983,2.0649989,1.0205201,9.237176,3.1310596
1409527178778,-0.664391,7.721899,1.9644425,0.9153636,9.261664,3.0909646
1409527178789,-0.9163807,7.642292,1.6837224,0.8159135,9.290454,3.0318573
1409527178810,-0.94810385,7.5165963,1.30484,0.7288724,9.32194,2.9564419
1409527178811,-1.0959458,7.4148426,0.9600749,0.6474983,9.35315,2.8757153
1409527178836,-1.299453,7.48607,0.8834604,0.57245827,9.382175,2.7959766
1409527178838,-1.282095,8.009203,1.1324574,0.50306696,9.406812,2.7256584
1409527178840,-0.9684546,8.860342,1.7866731,0.44517264,9.426254,2.6679494
1409527178865,-0.39983168,10.071808,0.6374562,0.40066752,9.440003,2.626061
1409527178866,-0.18794483,9.339182,0.10175357,0.36246338,9.452011,2.5881503
1409527178867,0.036511578,8.768166,0.16280572,0.3173677,9.459655,2.566045
1409527178891,0.25378537,8.751406,0.6997054,0.2571784,9.463537,2.5584612
1409527178892,0.6913257,8.871116,1.4676456,0.1842029,9.467864,2.5487304
1409527178911,1.2348095,9.230247,1.905186,0.110261336,9.476427,2.5210245
1409527178912,1.9512744,9.321824,1.8656816,0.044396374,9.489591,2.473077
1409527178920,2.5839422,9.175778,1.9901801,-0.011303631,9.503366,2.4199798
1409527178927,3.0651767,9.035717,2.3642743,-0.059629273,9.51428,2.3759825
1409527178948,3.1130607,8.752005,2.6964695,-0.099372834,9.517013,2.363678
1409527178951,3.003526,8.35337,2.8754363,-0.13315736,9.510395,2.3885224
1409527178959,2.9095535,7.9996266,2.9454668,-0.1665513,9.496044,2.4429076
1409527178990,2.8287494,7.755418,2.8485014,-0.20569308,9.47651,2.5147226
1409527178992,2.7814639,7.4441714,2.6611552,-0.25563034,9.455322,2.5888028
1409527178994,2.819771,7.5327573,2.6635494,-0.31901568,9.435784,2.652285
1409527179015,2.8377275,7.553706,2.6683378,-0.3911256,9.419756,2.6991882
1409527179017,2.8461072,7.5680714,2.7443538,-0.46506718,9.406572,2.7332215
1409527179018,2.7383683,7.796119,3.0424318,-0.5332331,9.39405,2.7636745
1409527179028,2.6001031,8.244433,3.7343562,-0.59652126,9.381624,2.7927942
1409527179048,1.5807717,8.431181,3.8708255,-0.6469688,9.367309,2.8293762
1409527179050,1.1480197,8.770559,3.3967736,-0.69444954,9.351541,2.8699844
1409527179058,1.6645688,9.370906,2.3014264,-0.7374825,9.337639,2.9043078
1409527179078,2.517503,9.744401,1.7830818,-0.7702912,9.329095,2.9231908
1409527179080,3.0101101,10.052654,2.4169466,-0.79031146,9.325823,2.928278
1409527179087,2.7862523,10.441113,2.9975405,-0.80149686,9.325914,2.9249487
1409527179127,1.9656396,10.762535,2.6689363,-0.8101441,9.32959,2.9108098
1409527179129,1.1893197,11.060015,2.2720973,-0.8195066,9.338104,2.8807294
1409527179131,0.7541735,11.436503,2.7311857,-0.8241196,9.350186,2.8399332
1409527179134,0.26874915,11.4359045,2.9520507,-0.825148,9.362137,2.7999878
1409527179163,0.074818805,11.021109,1.9021933,-0.8123707,9.37526,2.7595153
1409527179164,0.5650316,10.763732,1.1845313,-0.77977175,9.391968,2.7116942
1409527179165,1.4520833,10.085575,2.2200236,-0.72021806,9.409363,2.667498
1409527179167,1.6280571,9.153631,2.3786395,-0.63517994,9.422298,2.6433413
1409527179190,0.43155485,7.756615,1.234211,-0.5353115,9.435782,2.6172202
1409527179191,-0.9307459,6.1596823,0.3549404,-0.43028888,9.454572,2.5683265
1409527179208,-2.019509,5.1319714,0.74519527,-0.31489706,9.476038,2.5051842
1409527179209,-2.9813797,5.668871,1.7082629,-0.1829057,9.495405,2.4442182
1409527179222,-3.4380736,8.30369,2.8981812,-0.03549962,9.510245,2.3925622
1409527179228,-3.198055,19.070415,3.551798,0.12549868,9.519247,2.3534229
1409527179264,-1.963844,19.608511,2.6605566,0.27350137,9.529687,2.2979658
1409527179268,-1.4203602,19.608511,3.1741128,0.45096195,9.534092,2.2512505
1409527179270,-2.3463178,19.044079,3.0693667,0.6282367,9.5267515,2.2397952
1409527179273,-2.4504654,16.132132,3.0125043,0.7585091,9.51339,2.256202
1409527179298,-1.5131354,12.862848,3.1705215,0.8426818,9.492101,2.3152297
1409527179299,-0.35793316,10.238804,3.5434184,0.89448476,9.461122,2.4202151
1409527179302,-1.271321,7.097611,4.4556093,0.92799354,9.422327,2.5551898
1409527179307,-1.769315,10.001778,5.1876364,0.94873106,9.38115,2.6952393
1409527179340,-0.62728083,12.185888,4.083311,0.9710003,9.347616,2.8017163
1409527179343,0.16400282,10.600926,2.5187001,1.0497121,9.331371,2.8273687
1409527179347,0.52373165,8.899248,2.0470424,1.1932702,9.3198185,2.8084688
1409527179372,0.9056068,8.720282,2.8700492,1.3517857,9.316594,2.7466607
1409527179373,0.93972415,8.499416,3.767875,1.5052222,9.306717,2.699944
1409527179375,1.0408791,8.270171,4.059369,1.6417243,9.284125,2.6981773
1409527179399,1.0229226,7.3831196,3.6206315,1.7618798,9.251978,2.732598
1409527179401,0.9600749,6.2165446,3.0639796,1.8637222,9.217857,2.7799342
1409527179402,0.9283517,5.394735,2.475006,1.9415834,9.186507,2.8299677
1409527179416,1.049259,4.97156,2.147599,1.9991207,9.157399,2.8837395
1409527179436,1.1246762,4.943428,1.965041,2.046605,9.127082,2.9458764
1409527179437,1.1324574,4.8494554,1.9919758,2.0925744,9.093527,3.0165052
1409527179438,1.0977415,4.5406036,1.9476831,2.1389267,9.057791,3.090598
1409527179460,1.2186487,4.3568487,1.9955671,2.1863027,9.021456,3.162882
1409527179462,1.4933833,4.359243,2.1051018,2.2290845,8.986304,3.232325
1409527179467,1.7645266,4.526837,1.9476831,2.2675045,8.954074,3.2944465
1409527179494,2.2158337,4.6178164,1.882441,2.2999752,8.92744,3.3438485
1409527179496,2.746748,4.80636,2.2559366,2.326325,8.908274,3.3765757
1409527179499,3.110068,5.0691237,2.906561,2.3460941,8.897392,3.3915555
1409527179507,3.328539,5.297171,3.4853592,2.354876,8.89462,3.3927405
1409527179527,3.3500867,5.5743003,4.095282,2.3481956,8.900459,3.3820426
1409527179528,3.4123359,5.775413,4.6004586,2.3205228,8.916109,3.3598473
1409527179539,3.8133647,6.4386067,5.125387,2.2699516,8.941027,3.3280222
1409527179568,4.249708,7.8493905,5.7023897,2.19852,8.973508,3.2883234
1409527179570,4.537012,9.704897,5.8544216,2.1202147,9.007045,3.247805
1409527179571,4.23235,10.759542,6.0405707,2.0313952,9.044792,3.1993043
1409527179612,3.6990416,9.961076,5.7496753,1.9381233,9.081814,3.1519387
1409527179614,2.4702177,9.356541,6.227917,1.8512671,9.1131,3.1136184
1409527179615,0.65541273,14.261063,4.8757915,1.7708178,9.135408,3.0949812
1409527179616,0.57760113,16.279972,3.1621418,1.6769916,9.163643,3.0636196
1409527179619,1.3024458,13.413515,2.6515784,1.604518,9.191874,3.017508
1409527179663,3.4871547,10.994174,2.9753942,1.5881411,9.198739,3.0052311
1409527179665,5.1678843,8.568848,4.602853,1.6219157,9.176835,3.053766
1409527179666,5.171476,6.929418,8.2115135,1.6858246,9.120464,3.1852021
1409527179667,4.1695023,8.881889,11.622652,1.7669159,9.038339,3.3699918
1409527179668,4.4765587,16.311697,9.96766,1.8541713,8.931475,3.600164
1409527179695,2.461838,18.058865,6.4386067,1.9544599,8.852894,3.7385504
1409527179696,-1.7393875,15.297153,4.584896,2.0335417,8.83079,3.748635
1409527179698,-4.0940847,13.017275,2.8377275,2.056601,8.846405,3.6989048
1409527179707,-3.015497,11.391612,0.9139865,2.031907,8.873931,3.6462424
1409527179731,-2.472612,9.853935,1.8800468,1.9935349,8.882788,3.6458619
1409527179733,-2.3570917,9.6767645,3.4991257,1.9298657,8.870125,3.710378
1409527179739,-2.1272483,10.087969,3.0591912,1.8369938,8.861516,3.7774863
1409527179763,-2.0841527,10.107122,1.7597382,1.7393441,8.878462,3.7839134
1409527179765,-1.939902,9.965266,1.1833342,1.6496556,8.914124,3.7399771
1409527179767,-1.893215,10.075998,0.80086046,1.5751216,8.949215,3.6879468
1409527179794,-1.9021933,9.906608,0.30705637,1.5009251,8.972541,3.6621194
1409527179795,-1.0019734,9.214086,0.7577648,1.433645,8.987799,3.6516454
1409527179799,-0.25558102,8.907029,1.5520413,1.3747318,9.005988,3.6294193
1409527179807,0.26156655,9.168595,1.5340848,1.3140527,9.03674,3.5750494
1409527179826,0.61052144,9.127894,1.2761095,1.2432746,9.081158,3.4867184
1409527179828,0.7015011,8.459911,1.2354081,1.1615812,9.129159,3.388155
1409527179839,0.7553706,7.8302364,1.5508442,1.0720904,9.168016,3.3118713
1409527179863,0.599149,7.53156,2.1649568,0.97546893,9.196718,3.261784
1409527179864,0.25977087,7.6387005,2.6479871,0.874297,9.223753,3.2137792
1409527179868,0.050876785,8.002021,2.5073278,0.7742033,9.256198,3.1454377
1409527179895,0.089184016,8.33242,1.9500773,0.67808145,9.291073,3.0637517
1409527179897,0.22385786,8.22528,1.3623008,0.59485203,9.329038,2.9640543
1409527179899,0.008978256,8.069656,1.0995371,0.5231877,9.363461,2.8674526
1409527179907,-0.40641573,8.160038,1.0151415,0.45587474,9.39059,2.7891524
1409527179927,-0.4381389,8.32404,1.590947,0.39193216,9.410574,2.730912
1409527179928,-0.32142156,8.610147,1.9656396,0.33890432,9.423568,2.6929364
1409527179939,-0.18076223,8.8364,1.541866,0.2981289,9.431041,2.6715143
1409527179954,0.22445641,8.723872,0.8798691,0.26113108,9.435573,2.6593575
1409527179977,0.42437226,8.470087,0.48961425,0.21978235,9.438801,2.6516268
1409527179979,0.6619968,8.257602,0.6135142,0.16609366,9.443337,2.639355
1409527179985,1.1067197,8.672996,1.9752164,0.10774972,9.449033,2.6219387
1409527179988,1.7890673,9.116522,2.5127146,0.04220784,9.457497,2.593139
1409527180019,2.7712884,9.67018,2.8191724,-0.02096165,9.469025,2.5509875
1409527180020,3.244742,9.596559,2.795829,-0.07718489,9.480548,2.5067167
1409527180021,3.1705215,9.1255,2.8652608,-0.13056004,9.488915,2.4726229
1409527180039,2.873042,8.56825,2.8814218,-0.18433265,9.491415,2.4595644
1409527180040,2.5582044,8.285135,2.9706059,-0.23956802,9.485998,2.4756472
1409527180054,2.2888567,8.263587,2.896984,-0.29445875,9.472255,2.5219169
1409527180070,2.142212,8.069656,2.5905263,-0.3502491,9.453169,2.5855918
1409527180071,2.19668,8.280347,2.545635,-0.41267514,9.433943,2.6459055
1409527180084,2.3535004,8.589797,2.698864,-0.48065713,9.418592,2.688773
1409527180087,2.5264814,8.612542,2.8742392,-0.54910445,9.405119,2.7226112
1409527180102,2.6102784,8.384495,3.1759086,-0.613565,9.393936,2.747341
1409527180107,2.4887726,8.059482,3.6631286,-0.67376626,9.380587,2.778673
1409527180119,2.1583729,7.9062524,3.3441012,-0.73074317,9.362426,2.8251371
1409527180134,1.3796587,7.928399,3.442862,-0.7883945,9.342458,2.8752902
1409527180139,0.93254155,8.4347725,3.4183214,-0.8485855,9.322295,2.9232013
1409527180153,1.1791444,8.981249,2.112883,-0.90599793,9.304166,2.9634538
1409527180170,1.8249803,9.34038,1.2791022,-0.9551385,9.293558,2.9812503
1409527180171,2.1613655,10.301053,2.8951883,-0.99449813,9.29115,2.9758854
1409527180187,1.8986019,10.980408,2.995745,-1.0244956,9.291556,2.9644194
1409527180188,1.5029601,11.534067,2.7611132,-1.0504827,9.296848,2.9386222
1409527180201,1.168969,11.868656,3.098097,-1.0728343,9.305068,2.9043314
1409527180220,0.6751649,11.867459,3.281852,-1.0843358,9.316254,2.8639212
1409527180221,0.25797522,11.427525,2.4863784,-1.0838358,9.329969,2.8191094
1409527180234,0.39683893,10.977415,1.5580268,-1.0689976,9.347578,2.7659423
1409527180239,1.0187328,10.395025,2.4343045,-1.0319335,9.367427,2.7123446
1409527180249,1.2611457,9.85633,3.2124202,-0.9713294,9.383841,2.6777694
1409527180269,0.65182143,9.490616,2.463035,-0.8965416,9.3992815,2.6495528
1409527180269,-0.5422867,8.754997,1.1821371,-0.8169126,9.420947,2.5978463
1409527180286,-2.0201077,7.85358,0.3369839,-0.7338015,9.448594,2.5211122
1409527180287,-3.2866404,7.105392,0.37588966,-0.64393765,9.477009,2.4376295
1409527180300,-4.0264487,7.0569096,0.93972415,-0.55287457,9.502685,2.3587463
1409527180318,-3.9492357,8.7125,1.6795325,-0.44570476,9.52552,2.2882757
1409527180319,-3.606865,12.219407,2.4408886,-0.3193593,9.546443,2.2212255
1409527180333,-3.2860417,17.547104,3.13401,-0.17648199,9.564195,2.1599627
1409527180339,-2.621651,19.608511,2.7856536,-0.029327145,9.575748,2.1153173
1409527180352,-2.432509,19.608511,2.6210523,0.12056444,9.579113,2.0967689
1409527180375,-2.5408466,15.832257,3.347094,0.24623255,9.572144,2.117504
1409527180377,-1.6250644,11.844116,3.9121256,0.334091,9.5497,2.2049956
1409527180380,-0.42197806,8.684368,4.486734,0.39666343,9.511897,2.353054
1409527180388,-1.1821371,5.7365074,5.4605756,0.4427974,9.461277,2.541365
1409527180409,-1.389834,8.807071,5.466561,0.4682173,9.405882,2.7350566
1409527180410,-0.61650693,11.01632,4.2850223,0.48407736,9.351734,2.9122415
1409527180419,0.008379706,9.502586,2.9334955,0.5247301,9.317254,3.013936
1409527180438,0.6811504,8.063073,2.3301568,0.6227779,9.308449,3.022472
1409527180439,1.1540052,7.8972745,2.96881,0.76384926,9.31465,2.9705644
1409527180453,1.525705,8.078036,3.7774518,0.9169508,9.315498,2.9242234
1409527180469,1.8387469,7.9367785,3.7128084,1.0672909,9.300179,2.9219792
1409527180470,1.6095021,7.3537903,3.0256724,1.20731,9.271358,2.9588373
1409527180486,1.4460979,6.715137,2.1877017,1.327093,9.237358,3.013376
1409527180488,1.3449428,5.9585695,1.5622166,1.424116,9.203077,3.0733805
1409527180504,1.2671312,5.0745106,1.4568717,1.4999309,9.168915,3.1387267
1409527180519,1.2856863,4.7680526,1.5263035,1.5593941,9.1341305,3.2103486
1409527180520,1.0372878,4.2874165,1.5711949,1.6129787,9.096315,3.2902465
1409527180532,0.94690675,4.043208,1.7022774,1.6610931,9.056152,3.3759828
1409527180549,1.0779893,4.594473,1.9566613,1.7077543,9.015492,3.4604712
1409527180550,1.1438298,4.722563,2.0644004,1.7544243,8.975923,3.5390942
1409527180568,0.9528923,4.7141833,2.0003555,1.7993134,8.939565,3.6079144
1409527180569,0.7517793,4.8225207,2.034473,1.8378932,8.909081,3.663439
1409527180583,0.82480246,4.9781437,2.2541409,1.86781,8.885499,3.705348
1409527180610,1.1965023,5.3115363,2.6234465,1.8903604,8.868709,3.734024
1409527180612,1.6406267,5.629367,3.1836896,1.9072688,8.859594,3.7470405
1409527180613,1.9955671,6.10282,3.9001546,1.9174355,8.859459,3.742169
1409527180620,2.0368671,6.432023,4.8901567,1.9245616,8.863264,3.7294805
1409527180644,2.2589293,7.029376,5.597045,1.9161402,8.875881,3.7037172
1409527180646,2.831742,8.209718,6.181829,1.8897678,8.897215,3.6658869
1409527180648,3.5470097,9.853337,6.529587,1.8450235,8.927299,3.6151946
1409527180678,3.6834793,10.774507,6.727108,1.7864755,8.963987,3.553285
1409527180680,3.6050692,10.309433,5.897517,1.717934,9.0030575,3.4877033
1409527180682,2.9975405,9.009381,5.3019595,1.6504154,9.042012,3.418848
1409527180688,2.2014685,10.570999,6.3141084,1.5885844,9.076691,3.3556654
1409527180711,1.8393455,15.43063,6.1243677,1.5335802,9.102569,3.3108554
1409527180713,1.9057846,16.200964,4.501099,1.4855447,9.127691,3.2632499
1409527180722,2.598906,13.809156,3.5631707,1.4663074,9.148083,3.214485
1409527180745,5.9585695,9.627684,3.8229415,1.4716657,9.157126,3.1861622
1409527180747,6.8360443,7.1844006,5.0302176,1.5405004,9.132932,3.2228606
1409527180749,5.393538,6.297349,10.245986,1.6293893,9.07654,3.3364537
1409527180770,3.9294837,11.011532,11.177331,1.7248547,8.982546,3.536829
1409527180771,3.2309752,18.380884,7.9756846,1.8152251,8.889615,3.7215714
1409527180785,-0.41240123,17.662624,5.671265,1.898396,8.853035,3.7669954
1409527180788,-3.5649664,15.370775,4.493318,1.9389975,8.866649,3.7139235
1409527180803,-3.828927,13.5457945,2.1242554,1.9257095,8.898518,3.643954
1409527180820,-3.120842,11.4598465,2.4720132,1.8806454,8.917018,3.6222034
1409527180822,-2.3187842,10.69849,3.6966474,1.8118595,8.901505,3.694691
1409527180837,-2.166154,10.6715555,2.409764,1.7195492,8.874799,3.8015144
1409527180862,-2.5342624,9.7719345,0.58418524,1.627654,8.859793,3.876235
1409527180864,-2.765303,8.901642,0.30047232,1.5294365,8.875099,3.881214
1409527180866,-2.7521348,8.501212,0.46926352,1.4379132,8.9013815,3.8559291
1409527180869,-2.28347,8.533533,0.7457938,1.3584882,8.9159155,3.851149
1409527180893,-1.596334,8.830415,1.3120226,1.2960762,8.921272,3.8602467
1409527180894,-0.6859388,8.701127,1.7675194,1.2457886,8.934762,3.845574
1409527180903,0.61411273,8.630499,2.1709423,1.2006745,8.964862,3.7894619
1409527180924,1.3132197,9.257181,2.4827871,1.1553265,9.007604,3.7011752
1409527180926,1.3844471,10.224439,2.2343888,1.1020979,9.053652,3.60377
1409527180928,1.1779473,9.749189,2.1799207,1.0368196,9.095676,3.5162597
1409527180961,0.6907272,9.427768,2.2864625,0.9614177,9.13186,3.4431407
1409527180962,0.12389994,9.481039,2.3762453,0.87587804,9.16149,3.3867877
1409527180964,-0.3842694,9.465476,2.1068976,0.7795324,9.191203,3.3293407
1409527180968,-0.52253455,9.239224,1.5304934,0.6793915,9.2248745,3.2573805
1409527180986,-0.6135142,9.012972,1.1641805,0.58587337,9.261235,3.1712255
1409527181006,-0.9367314,8.843582,1.1869255,0.4994075,9.2961855,3.0825183
1409527181007,-1.3299791,8.793902,1.1761516,0.41322088,9.325102,3.0070117
1409527181008,-1.1168951,8.767567,1.5634137,0.3266322,9.346398,2.9510252
1409527181020,-0.9672575,8.707711,1.5173253,0.25296563,9.359575,2.9162903
1409527181032,-0.641646,8.513183,1.2761095,0.1942936,9.36735,2.8957539
1409527181046,-0.3196259,8.1343,0.7799112,0.14293274,9.37186,2.884129
1409527181049,-0.16879122,8.091804,0.65421563,0.09183661,9.37543,2.8745878
1409527181075,-0.07062895,8.192958,0.88944596,0.032751877,9.377866,2.867917
1409527181076,0.2088941,8.407239,1.3030443,-0.035635065,9.381998,2.8543375
1409527181083,0.57161564,8.905233,1.7753005,-0.109860726,9.390996,2.8226807
1409527181106,1.1414356,9.239823,1.9871874,-0.18599243,9.405466,2.7700188
1409527181107,2.0470424,9.390059,2.203264,-0.2593293,9.421399,2.7093122
1409527181109,3.4356794,8.882488,2.44029,-0.326554,9.432389,2.6634123
1409527181120,3.5673606,8.323442,2.4372973,-0.38222083,9.434062,2.6500518
1409527181134,3.2261868,7.690176,2.3481133,-0.43710294,9.4255905,2.6716208
1409527181159,2.846706,7.1466923,2.3558946,-0.63219804,9.368909,2.8274114
1409527181165,2.415151,6.8528037,2.4953568,-0.63219804,9.368909,2.8274114
1409527181169,2.1613655,6.5547256,2.5594015,-0.63219804,9.368909,2.8274114
1409527181171,2.046444,6.344036,2.6001031,-0.7022646,9.351024,2.8697696
1409527181210,2.166154,6.51163,2.7934349,-0.77315617,9.336813,2.8976781
1409527181211,2.3822308,6.8743515,3.0454245,-0.8404989,9.324974,2.916988
1409527181213,2.505532,7.3466077,3.0400376,-0.8986957,9.313723,2.9355273
1409527181214,2.5288756,7.78355,3.17531,-0.94713014,9.301621,2.9585755
1409527181220,2.4169466,8.160637,3.1489737,-0.98911166,9.287358,2.989489
1409527181238,2.1517887,8.512584,3.2543187,-1.0304372,9.271445,3.0247118
1409527181240,1.5891514,9.341577,3.5236664,-1.0747119,9.255846,3.056908
1409527181248,1.3036429,10.197504,3.1280246,-1.1215271,9.243639,3.0769653
1409527181274,1.4562732,10.571598,2.4941597,-1.1676219,9.235584,3.0839953
1409527181275,2.0482395,10.66138,2.7898436,-1.2079933,9.233633,3.0742745
1409527181280,2.4139538,11.025299,3.630807,-1.2376931,9.23251,3.0658221
1409527181289,2.4660277,11.246762,4.0078936,-1.2586018,9.23023,3.0641735
1409527181309,1.7531542,11.314399,3.46022,-1.273568,9.229479,3.0602496
1409527181310,1.2204443,10.935516,3.8522706,-1.2891293,9.233331,3.0420616
1409527181321,0.15562311,10.116699,3.7684734,-1.2983786,9.238986,3.0208812
1409527181340,-0.3309984,9.727641,2.31639,-1.3011291,9.246903,2.9953687
1409527181341,0.23702596,9.607333,2.083554,-1.2863275,9.261124,2.9575906
1409527181348,0.7356185,9.03871,3.0969,-1.2442657,9.27877,2.9200387
1409527181373,0.5351041,8.166023,2.8060043,-1.1820214,9.2962885,2.8900247
1409527181374,-0.30107087,7.316082,1.5658079,-1.1195735,9.315482,2.852851
1409527181380,-1.340753,6.7468605,0.79128367,-1.0485086,9.343496,2.7874892
1409527181407,-2.5803509,6.9006877,0.84575176,-0.9647329,9.378876,2.697477
1409527181409,-2.9412768,8.432977,1.5795746,-0.8657085,9.415525,2.6016946
1409527181411,-2.4797945,11.394006,2.2667105,-0.7435666,9.450141,2.5124347
1409527181420,-1.8183962,15.661671,2.5623944,-0.5899586,9.482987,2.42802
1409527181443,-0.9283517,19.422962,2.7419596,-0.40746593,9.514411,2.3410158
1409527181445,-0.5722142,19.608511,3.0005333,-0.20579793,9.540608,2.2593856
1409527181449,-1.8100165,19.608511,3.1465795,-0.010543752,9.552676,2.2173538
1409527181477,-2.5318682,18.877682,2.9526494,0.12907712,9.549441,2.227531
1409527181480,-2.4558525,15.135545,2.8060043,0.20924635,9.5388775,2.2663684
1409527181482,-1.3994108,11.089942,3.892972,0.27407062,9.510692,2.3752882
1409527181509,-2.6916811,8.59279,4.811747,0.31425074,9.465435,2.5450304
1409527181510,-1.7663223,12.992135,3.7493198,0.31915954,9.414783,2.725876
1409527181511,-1.0851719,12.004527,2.1440077,0.32470068,9.379624,2.8438706
1409527181533,-0.7146692,9.785102,1.4024036,0.3845587,9.370324,2.8669713
1409527181534,-0.15801731,8.820838,2.1152773,0.5031412,9.378837,2.8203976
1409527181551,-0.1412579,8.39048,3.5218706,0.6396331,9.384656,2.7729917
1409527181552,0.31364042,8.151658,3.970185,0.7717365,9.374455,2.7738786
1409527181569,0.3250129,7.620744,3.4632127,0.8995453,9.349845,2.8180842
1409527181570,0.39324763,7.20954,2.2798786,1.017777,9.319625,2.877343
1409527181583,0.47046062,6.766014,1.2018893,1.1270767,9.289949,2.9320512
1409527181620,0.4878186,6.153697,0.7757214,1.2188737,9.263968,2.9771855
1409527181625,0.31244332,5.385158,0.93732995,1.2906835,9.23902,3.024076
1409527181627,0.17836803,4.7135844,1.2641385,1.3473467,9.209993,3.0872443
1409527181631,0.14784196,4.344279,1.5514427,1.3965536,9.174842,3.1689599
1409527181633,0.29388827,4.148553,1.6496049,1.4466107,9.133696,3.2639408
1409527181663,0.3573346,4.1371803,1.7968484,1.5011946,9.089558,3.36106
1409527181664,0.4261679,4.3478703,1.9746178,1.5595592,9.046187,3.4503145
1409527181665,0.45609543,4.6202106,2.0362685,1.6171795,9.0073,3.5247188
1409527181669,1.3856442,5.3037553,2.385822,1.6702756,8.97528,3.5811887
1409527181683,2.0769699,5.625177,2.6390088,1.7205604,8.950629,3.6188803
1409527181701,2.4774003,5.9011087,3.0095115,1.7721387,8.929407,3.6463137
1409527181702,2.7647045,6.0244102,3.3967736,1.8132045,8.916683,3.657249
1409527181715,3.1070752,6.0956373,3.915717,1.8404268,8.9120865,3.654856
1409527181733,3.453636,6.4146647,4.3658266,1.8500565,8.91395,3.6454327
1409527181734,3.9396589,7.189189,4.8739963,1.8392178,8.920967,3.6337345
1409527181754,4.156334,8.22109,5.4857144,1.8068775,8.933072,3.6201928
1409527181755,4.1401734,9.156026,5.583278,1.7535987,8.950768,3.6026409
1409527181762,3.8175547,9.578603,5.446809,1.6855266,8.974373,3.5763156
1409527181769,3.4063504,9.218275,5.737106,1.6112347,9.000712,3.5442219
1409527181782,2.0919337,8.137892,6.977901,1.5429622,9.02299,3.5178585
1409527181797,1.1935096,11.364676,7.6470804,1.4791356,9.038831,3.504582
1409527181804,0.57760113,15.598224,6.570288,1.4101129,9.054258,3.4931922
1409527181827,0.6314707,15.91366,4.3598413,1.3457121,9.078645,3.4550915
1409527181829,2.272696,13.958196,2.6743233,1.3173412,9.101751,3.4048681
1409527181831,4.485537,11.806407,3.181894,1.3531538,9.106575,3.377817
1409527181859,5.713164,9.059659,3.9594111,1.4341059,9.079897,3.4160213
1409527181861,5.4976854,6.7504516,6.9491706,1.534356,9.020384,3.5282888
1409527181862,3.6212301,15.054142,9.766547,1.6475141,8.938324,3.6827252
1409527181869,1.9949685,17.279552,5.805939,1.748158,8.868272,3.803693
1409527181882,-1.2246342,14.884752,4.1802764,1.8267651,8.859139,3.7880073
1409527181900,-2.6779146,12.107478,3.2477345,1.8586862,8.882737,3.7165384
1409527181901,-2.1697452,10.220248,2.9071593,1.8599463,8.9075985,3.6559076
1409527181913,-2.1086931,9.697116,3.9725792,1.8422378,8.914326,3.6484697
1409527181932,-2.0602105,10.882844,3.9246953,1.7867943,8.897356,3.7168286
1409527181933,-1.9782091,11.398794,2.0392613,1.7017655,8.885076,3.7854738
1409527181946,-2.03567,10.567408,0.59974754,1.6130689,8.903274,3.7815516
1409527181949,-1.9003977,10.052654,-0.065242,1.5330315,8.942403,3.7220473
1409527181963,-1.7118542,10.015544,-0.49081135,1.4598502,8.976626,3.668709
1409527181969,-1.4000094,9.9951935,-0.1592144,1.3942538,8.995104,3.6489112
1409527181982,-0.6739678,9.719262,0.9995792,1.3378584,9.007277,3.6399853
1409527181994,0.31004912,9.313444,2.0524294,1.2889332,9.026733,3.6093128
1409527182001,1.1504139,9.26197,2.56419,1.2427808,9.05945,3.5429175
1409527182013,1.5933412,9.284116,2.4355016,1.1951758,9.096317,3.4639485
1409527182033,1.5005659,8.792108,2.0207062,1.142424,9.136599,3.3745854
1409527182034,1.2545617,8.264784,1.8830396,1.0774215,9.168214,3.3095913
1409527182049,1.1378443,8.002619,2.3385365,1.0000905,9.189026,3.275977
1409527182050,0.3693056,8.771756,2.7994204,0.9150821,9.207742,3.2481601
1409527182064,0.0077811554,9.16261,2.243367,0.8246622,9.234323,3.196501
1409527182069,-0.40641573,9.349358,1.5155296,0.7362439,9.270643,3.1118321
1409527182081,-0.7870938,9.272144,1.0594343,0.65057904,9.310573,3.0100448
1409527182096,-1.0869676,9.061455,1.0019734,0.5643493,9.346264,2.9153495
1409527182101,-1.42455,9.041702,1.0510546,0.47690147,9.372719,2.8451867
1409527182110,-1.4808137,9.235035,1.3437457,0.3939908,9.39378,2.7878428
1409527182128,-1.3844471,9.192537,1.5370775,0.31630248,9.40757,2.750993
1409527182129,-1.2186487,9.171588,1.1294646,0.24975178,9.416858,2.7259538
1409527182146,-0.6380547,8.86932,0.78529817,0.187744,9.423122,2.709226
1409527182149,-0.11911154,8.264186,0.7038953,0.12667614,9.425752,2.703618
1409527182170,0.15203181,7.751228,1.0869676,0.06324832,9.425602,2.7063718
1409527182171,0.29628247,7.687183,1.7806876,-0.0051477565,9.425928,2.7059653
1409527182181,0.770933,8.06008,2.3451207,-0.07547361,9.4311905,2.686514
1409527182206,1.4850036,8.780735,2.5366566,-0.13964842,9.44318,2.6414466
1409527182208,2.2224178,9.263166,2.463035,-0.1941631,9.459007,2.5806744
1409527182209,2.7168205,9.292496,2.4229321,-0.24269246,9.472288,2.5273023
1409527182236,3.104681,8.743625,2.417545,-0.29017204,9.481562,2.4872081
1409527182237,3.2788591,8.267777,2.7551277,-0.34093338,9.481094,2.482539
1409527182241,2.484583,7.4088573,2.7269957,-0.3954145,9.4713545,2.5114703
1409527182250,2.2888567,7.3849154,2.6030958,-0.4602337,9.456181,2.5571895
1409527182270,2.416348,7.4070616,2.4079683,-0.5274213,9.439868,2.6040602
1409527182271,2.8018146,7.740454,2.3882163,-0.5958477,9.424441,2.6448534
1409527182281,3.1585505,8.077438,2.5737667,-0.66095835,9.410464,2.6789353
1409527182304,3.1711202,8.025364,2.973,-0.7186363,9.397015,2.7111037
1409527182306,3.180697,8.137892,3.650559,-0.770913,9.382399,2.747121
1409527182310,2.6180596,8.012196,4.1000705,-0.81719995,9.366256,2.788519
1409527182337,1.8734628,8.118139,3.7948096,-0.86372405,9.349284,2.8311238
1409527182340,1.1905168,8.380304,3.383007,-0.9146832,9.332947,2.8687742
1409527182344,1.3724761,8.6257105,2.4779987,-0.9673034,9.318604,2.8979862
1409527182351,2.086547,8.925584,1.697489,-1.0147808,9.307708,2.9167044
1409527182370,2.6809072,9.330803,2.1416135,-1.0521337,9.301874,2.9220817
1409527182371,2.7617116,9.706693,2.8341362,-1.0783777,9.3008375,2.9158037
1409527182381,2.0560207,10.075399,2.5181017,-1.0957749,9.304273,2.8983119
1409527182394,1.3192052,10.697892,2.0727801,-1.1078826,9.313171,2.8649347
1409527182402,0.85413146,11.268311,2.5647886,-1.1087254,9.327326,2.8181744
1409527182422,-0.01316811,11.375451,3.0220811,-1.0926508,9.34383,2.7693598
1409527182424,-0.4429273,10.83496,0.88944596,-1.0616741,9.361293,2.7220268
1409527182430,0.9451111,10.176555,1.8387469,-1.0126797,9.384346,2.6606247
1409527182450,1.5101427,8.966884,2.64679,-0.9405195,9.402347,2.6232946
1409527182454,0.86849666,7.566276,1.6998832,-0.8437442,9.414703,2.611871
1409527182465,-0.3393781,5.9890957,1.2467805,-0.7362331,9.428531,2.5944529
1409527182481,-1.5903485,5.1146135,1.6885108,-0.61764103,9.447248,2.5570326
1409527182482,-2.7012582,5.953781,2.4612393,-0.48359272,9.468329,2.5074444
1409527182496,-3.4249055,8.9998045,3.674501,-0.33562428,9.487527,2.4585786
1409527182518,-3.1004913,15.270219,3.970185,-0.17901312,9.50254,2.4166296
1409527182519,-1.4449008,19.585768,3.0119057,-0.011268851,9.51672,2.3669207
1409527182523,0.866701,19.608511,2.468422,0.18573914,9.532697,2.2942443
1409527182530,0.10354923,19.608511,2.961029,0.4086023,9.54273,2.2225506
1409527182547,-1.8656816,19.608511,2.156577,0.60249096,9.545768,2.1646478
1409527182553,-2.4959552,18.028938,1.5897499,0.70972794,9.547734,2.1230733
1409527182575,-2.0608091,13.301586,2.5408466,0.74837714,9.54166,2.1370628
1409527182577,-1.2838906,8.783728,3.815759,0.755523,9.516368,2.2446191
1409527182582,-2.8215668,5.9082913,5.659893,0.7524235,9.475667,2.4116344
1409527182603,-2.2242134,9.980828,5.5222263,0.74392265,9.431253,2.5823286
1409527182604,-1.0199299,10.394426,4.0294414,0.76729035,9.4005785,2.6852875
1409527182610,0.99658644,7.8835077,3.229778,0.8657543,9.392054,2.685183
1409527182627,1.5400703,7.8709383,4.231153,1.0188771,9.390947,2.6348422
1409527182630,1.5646108,7.929596,4.871003,1.1784551,9.37995,2.6073318
1409527182648,1.127669,7.547721,4.5819035,1.3263881,9.355699,2.6233544
1409527182651,1.073201,6.8749504,3.4859576,1.4605529,9.327232,2.6532829
1409527182663,1.103727,5.961562,2.4019828,1.5762894,9.298025,2.689317
1409527182681,1.1839328,5.295376,1.7100586,1.6723933,9.271047,2.724186
1409527182682,1.0265139,4.8177323,1.4095862,1.7482119,9.244193,2.7674987
1409527182697,0.87448215,4.647744,1.3958195,1.8090527,9.212983,2.831726
1409527182713,0.78290397,4.560954,1.3491327,1.8642468,9.174772,2.9186537
1409527182714,0.9127894,4.76925,1.4598645,1.9195383,9.130485,3.019937
1409527182726,0.9403227,4.7638626,1.5879543,1.9762166,9.084188,3.121297
1409527182730,0.9498995,4.6962266,1.7944542,2.0319383,9.040091,3.2122219
1409527182742,0.9804256,4.6495395,1.9967642,2.0819533,9.00186,3.2866995
1409527182752,1.1162965,4.6884456,2.136825,2.1303384,8.966804,3.3508952
1409527182767,1.4359225,4.811747,2.307412,2.1683297,8.940234,3.397195
1409527182770,1.899799,5.0721164,2.5767596,2.1981812,8.923226,3.4226358
1409527182782,2.397793,5.451597,3.0603883,2.2188509,8.916114,3.4278295
1409527182803,2.6222494,5.6904187,3.3315318,2.2272027,8.918483,3.416228
1409527182804,3.0783448,5.613206,4.0025067,2.217251,8.931206,3.3893604
1409527182810,3.5212722,5.963358,4.659715,2.1884923,8.951733,3.3537138
1409527182829,4.1341877,7.0275807,5.424064,2.1392772,8.97796,3.315139
1409527182830,4.4795513,8.662222,6.0124393,2.071866,9.007882,3.2765589
1409527182846,4.408324,10.201694,6.1644707,1.9897742,9.04068,3.2368631
1409527182871,3.8732197,10.420763,6.108207,1.8967385,9.075113,3.196107
1409527182872,3.05141,9.70789,5.825691,1.8006094,9.108846,3.1554923
1409527182873,2.4929626,12.16434,6.3601966,1.701121,9.138735,3.1241195
1409527182902,2.0284874,16.092028,5.708974,1.6087617,9.163258,3.1011298
1409527182904,1.033098,16.051327,5.0302176,1.5218968,9.1911745,3.0621107
1409527182905,1.0145429,13.971963,3.980959,1.4510752,9.213954,3.0278447
1409527182910,2.5103204,11.991958,3.3758245,1.4235736,9.221151,3.0189772
1409527182931,4.2401314,9.701305,3.2160115,1.4462867,9.20625,3.0534608
1409527182932,5.54138,7.0724716,3.5452142,1.5050966,9.167087,3.1415923
1409527182953,4.9823337,5.3606176,6.517017,1.5884799,9.109613,3.2652833
1409527182955,4.3119574,6.463746,10.6398325,1.6833302,9.042748,3.400807
1409527182972,3.8726213,12.953828,11.529279,1.7859707,8.971909,3.5334914
1409527182985,3.120842,18.41261,6.9605427,1.8850948,8.91237,3.6313193
1409527182986,-0.7745243,16.9294,4.6662993,1.950248,8.919304,3.5795197
1409527182990,-3.086126,13.843274,1.6531962,1.9423769,8.962367,3.474698
1409527183019,-2.7257986,12.404359,1.115698,1.8957654,9.006343,3.385595
1409527183020,-2.77069,10.861895,2.307412,1.8332379,9.024433,3.3718295
1409527183022,-2.4187422,10.705074,1.9045875,1.7431209,9.02239,3.4246762
1409527183030,-2.2319946,10.119692,0.34955344,1.6362445,9.027028,3.4649503
1409527183052,-2.0973208,9.898827,0.12090719,1.5389096,9.050596,3.4480195
1409527183053,-1.8644845,10.276512,0.5482722,1.4562436,9.081641,3.4019926
1409527183063,-1.2689269,10.647614,0.7020996,1.3875711,9.10305,3.3733513
1409527183082,-0.24660277,10.11251,0.94570965,1.3331089,9.117464,3.3563488
1409527183084,0.80086046,8.9602995,1.543063,1.2892314,9.124197,3.3551893
1409527183104,1.5514427,8.550891,2.532467,1.2479942,9.134505,3.342711
1409527183105,1.3982137,8.947132,2.8431146,1.1978042,9.153446,3.309092
1409527183110,1.0169371,9.050681,2.4121583,1.1326255,9.179582,3.2592716
1409527183126,0.56682724,8.197148,2.0697873,1.055661,9.2061205,3.2098799
1409527183130,0.12749124,7.422025,2.1122844,0.9653954,9.226992,3.1782148
1409527183142,-0.47644615,7.29214,2.1625626,0.86103666,9.245723,3.1536648
1409527183167,-1.174356,7.547721,1.9027919,0.74909884,9.271157,3.1072311
1409527183169,-1.4568717,7.8613615,1.4191631,0.64019585,9.305629,3.027512
1409527183173,-1.3730747,8.027759,0.40581718,0.54361886,9.343213,2.9290328
1409527183182,-1.7441759,7.933786,0.6991069,0.45654786,9.379717,2.825395
1409527183201,-1.8022354,8.067263,1.0420763,0.3762067,9.4092455,2.73769
1409527183204,-1.726818,8.835801,1.4275428,0.3007994,9.431219,2.6705844
1409527183210,-1.3976152,9.664794,1.7106571,0.2338969,9.448429,2.6158895
1409527183228,-0.9923966,9.918579,1.2354081,0.1823788,9.463652,2.5644581
1409527183230,-0.50158525,9.471462,0.51595044,0.14425583,9.477658,2.5146754
1409527183247,-0.1933318,8.732851,0.25617957,0.10867189,9.488072,2.4769015
1409527183268,0.14065935,8.263587,0.6572084,0.06343545,9.4936905,2.4568698
1409527183269,0.5566519,8.300098,1.3742718,0.0066464525,9.497664,2.4422712
1409527183271,1.3126211,8.823831,1.5849615,-0.057135783,9.5049715,2.4130144
1409527183282,2.1936872,9.384672,1.6065093,-0.119710796,9.518233,2.3578138
1409527183304,3.0496144,9.667787,1.9452889,-0.17480242,9.533308,2.292572
1409527183305,3.6978445,9.48044,2.4744074,-0.225124,9.547452,2.2284253
1409527183310,3.8780081,8.990826,2.8233624,-0.2717715,9.554384,2.193234
1409527183330,3.7684734,8.3312235,2.879626,-0.3148349,9.551374,2.2005703
1409527183331,3.457826,7.771579,2.7832594,-0.35366943,9.539504,2.2457001
1409527183346,3.0867245,7.6470804,2.7263973,-0.39269504,9.522136,2.3119547
1409527183362,2.895787,7.85358,2.6198552,-0.43689844,9.502781,2.3825738
1409527183363,3.0119057,8.186374,2.6982653,-0.48577216,9.484694,2.4443884
1409527183376,3.3554738,8.294113,2.906561,-0.5372066,9.4694805,2.4921334
1409527183394,3.4859576,8.076241,3.366846,-0.58751774,9.456821,2.5285842
1409527183395,3.3979707,7.9307933,3.9839516,-0.6368134,9.443706,2.5654006
1409527183419,2.6743233,7.976283,4.31914,-0.68131447,9.428887,2.6081183
1409527183421,1.5077485,8.122928,4.347272,-0.72418714,9.411744,2.6580093
1409527183424,0.7386112,8.495825,3.7612908,-0.766408,9.392684,2.7130256
1409527183431,0.9415198,8.803479,2.0691888,-0.8060211,9.372995,2.769061
1409527183454,1.8902222,8.770559,0.9211691,-0.83998334,9.3568735,2.8131394
1409527183455,3.0346506,8.893262,1.520318,-0.8686544,9.346126,2.840029
1409527183462,3.3542767,9.263166,2.5007436,-0.8956491,9.34025,2.8509538
1409527183478,2.7940333,9.838972,2.6372132,-0.9270658,9.338601,2.8463056
1409527183482,1.9327193,10.555437,2.3582888,-0.9610327,9.34209,2.8235047
1409527183495,1.4700398,10.91337,2.7263973,-0.987051,9.350915,2.7850528
1409527183523,0.81881696,10.884041,3.1896753,-1.00411,9.360574,2.7462394
1409527183524,0.5758055,10.718841,2.72939,-1.00169,9.371861,2.7083628
1409527183525,1.0061632,10.180145,2.2182279,-0.9744001,9.387101,2.6651952
1409527183532,1.3102269,9.7641535,2.6180596,-0.91663206,9.404153,2.6252766
1409527183559,1.2599486,9.540894,2.8874073,-0.8342491,9.419223,2.5985854
1409527183560,-0.50278234,7.963713,1.1366472,-0.737561,9.436126,2.5663075
1409527183562,-1.775899,6.9102645,0.7074866,-0.6413839,9.4609,2.5000787
1409527183578,-2.8281507,7.0126166,1.2174516,-0.5305371,9.490217,2.413442
1409527183595,-3.8684313,8.96449,2.4492683,-0.40331042,9.518086,2.3267503
1409527183596,-3.8205473,13.800777,3.1184478,-0.27013275,9.540155,2.2545216
1409527183617,-3.4835634,19.017143,2.7988217,-0.13092852,9.559021,2.1859455
1409527183618,-2.1811178,19.608511,1.8267759,0.011820494,9.576779,2.1108189
1409527183622,-2.2661119,19.608511,1.8608932,0.17844343,9.590572,2.0394742
1409527183631,-3.5338416,19.567211,1.2401965,0.32941142,9.597285,1.9884652
1409527183654,-3.7421372,17.302896,1.0684125,0.42460495,9.600606,1.9540931
1409527183655,-2.9095535,13.67987,2.4378958,0.47364718,9.595165,1.9694875
1409527183662,-1.4257472,11.313202,4.088698,0.49969438,9.574433,2.061777
1409527183677,-1.572392,7.7230964,5.2516813,0.52295345,9.539812,2.2110784
1409527183699,-2.4396915,8.283937,6.1746464,0.552605,9.498904,2.373991
1409527183701,-1.352724,11.042058,5.3474493,0.5896528,9.462352,2.507311
1409527183702,-0.6691794,9.948506,4.146757,0.6709693,9.441466,2.56494
1409527183711,0.03232172,8.1402855,3.3147724,0.7825384,9.429145,2.578614
1409527183729,0.7248446,7.389105,3.402759,0.9296777,9.425906,2.5413363
1409527183734,1.4305356,7.8128786,4.232949,1.0752839,9.421268,2.5007722
1409527183775,1.8130093,8.096592,3.435081,1.2123435,9.4078665,2.4885032
1409527183778,1.3054385,7.053318,2.432509,1.3410455,9.3879385,2.49772
1409527183784,1.3694834,6.2327056,1.8752584,1.4487536,9.366383,2.5184085
1409527183786,1.353921,5.6904187,1.5292963,1.5326966,9.344991,2.548018
1409527183814,1.2006922,5.3199162,1.4131776,1.5957334,9.32212,2.5927026
1409527183816,1.2312182,4.948815,1.1761516,1.6472191,9.294821,2.6577003
1409527183818,1.2240356,4.3927617,1.0582372,1.6933484,9.26304,2.7384427
1409527183821,1.0929531,4.2263646,1.210269,1.738147,9.227661,2.8283463
1409527183824,1.2384008,4.19524,1.5424645,1.7828071,9.190595,2.9197507
1409527183844,1.3581109,4.32333,1.9357121,1.8256967,9.15215,3.0125353
1409527183845,1.4562732,4.6375685,2.1098902,1.8672233,9.114579,3.099728
1409527183876,1.3958195,4.8626237,2.1667526,1.9052918,9.081009,3.1741965
1409527183878,1.435324,5.0559554,2.3529017,1.9352171,9.054343,3.2317455
1409527183881,1.6717514,5.3438582,2.653374,1.953432,9.036056,3.2717245
1409527183915,1.9327193,5.589264,3.0148985,1.9582487,9.026572,3.2949462
1409527183916,2.0745757,5.720945,3.503914,1.9487768,9.025767,3.3027558
1409527183918,2.2876596,5.783194,4.064756,1.9232765,9.033272,3.2971811
1409527183920,2.6144683,5.93762,4.6261964,1.8820455,9.048193,3.280016
1409527183923,3.232771,6.7486563,5.216367,1.8262818,9.067258,3.258823
1409527183954,3.803788,9.607333,5.8322754,1.7667277,9.091679,3.2234209
1409527183955,3.4596214,10.327389,5.765238,1.696519,9.123184,3.171706
1409527183957,3.2668881,9.598953,5.5365915,1.614185,9.16007,3.1077178
1409527183987,2.618658,9.1829605,6.397307,1.5331619,9.193933,3.0481818
1409527183989,2.4774003,13.7367325,6.417658,1.4595007,9.216148,3.0170963
1409527183991,1.1947067,16.354193,5.222951,1.4020376,9.231972,2.9958897
1409527183993,1.8614918,15.583261,3.3213563,1.3497261,9.253169,2.9542313
1409527184014,3.675698,13.925874,2.8030117,1.3435465,9.271425,2.8993046
1409527184015,5.727529,11.502343,3.5930982,1.3993136,9.269865,2.8778348
1409527184023,7.0605006,8.915408,5.4126916,1.4967239,9.236055,2.9369192
1409527184044,6.1381345,8.492832,10.018537,1.6120366,9.178418,3.0542364
1409527184045,5.08708,13.304579,11.022904,1.7317622,9.082106,3.2690585
1409527184068,3.7942111,19.362507,8.412027,1.8523724,8.983078,3.4703636
1409527184070,-1.0420763,18.574217,5.7867856,1.9555812,8.933928,3.5399177
1409527184072,-4.481347,16.047136,3.8325183,1.9936401,8.939008,3.5057008
1409527184105,-3.7086184,12.993333,0.81402856,1.9720994,8.965038,3.4509845
1409527184106,-2.484583,9.694122,0.89303726,1.9338157,8.974085,3.4491382
1409527184111,-2.1296425,7.5124063,2.755726,1.8701783,8.953657,3.5362198
1409527184112,-1.5520413,7.551312,3.110068,1.7799717,8.925648,3.6517012
1409527184134,-1.8207904,7.499837,1.7872716,1.6925194,8.918625,3.7099745
1409527184135,-1.460463,7.6847887,1.7980455,1.6189433,8.936751,3.699174
1409527184144,-0.90620536,8.359954,1.340753,1.565625,8.957594,3.6716104
1409527184168,-0.05327099,9.030929,1.134253,1.5196384,8.972049,3.6556044
1409527184170,0.7637503,9.293094,1.299453,1.48866,8.981309,3.6455991
1409527184172,1.2401965,9.535507,1.7328035,1.4617667,8.999281,3.6120057
1409527184201,1.2958617,10.392631,2.2529438,1.4288092,9.033931,3.537938
1409527184204,1.0187328,11.063007,2.088941,1.3835305,9.083195,3.4280906
1409527184206,0.90381116,11.170148,1.5795746,1.323062,9.137664,3.3049934
1409527184212,0.62368953,9.968858,1.2563573,1.2475997,9.184686,3.202409
1409527184236,0.29209262,9.024344,1.7040731,1.1562102,9.216741,3.1440835
1409527184238,-0.22505496,8.568848,2.236783,1.0551856,9.238532,3.115526
1409527184244,-0.60812724,8.473679,2.541445,0.95024437,9.257968,3.0915115
1409527184267,-0.581791,8.51019,2.4552538,0.8466193,9.281797,3.0498993
1409527184268,-0.32800564,8.494628,1.9452889,0.7558355,9.311186,2.983446
1409527184272,-0.31364042,8.477868,1.5496471,0.68093777,9.342717,2.9017835
1409527184297,-0.66020113,8.525752,1.4856021,0.6149272,9.371965,2.8210807
1409527184299,-1.1061212,8.756793,1.733402,0.54958725,9.395684,2.754896
1409527184304,-0.7374141,9.127894,1.8722657,0.4846867,9.41141,2.713087
1409527184312,-0.51954174,8.764574,1.1264719,0.42823336,9.419909,2.6930134
1409527184332,-0.47345337,8.378509,0.6302736,0.37773347,9.425047,2.682572
1409527184334,-0.29568392,7.9756846,0.60333884,0.32176334,9.4286175,2.6773193
1409527184344,-0.36631286,7.413047,0.93972415,0.2533178,9.431752,2.6736207
1409527184371,-0.39803603,7.795521,1.6885108,0.1789478,9.434686,2.6692848
1409527184373,0.035314474,8.412027,2.0667946,0.09395179,9.441131,2.6507747
1409527184375,0.9115923,9.297284,2.0805612,0.011063177,9.452883,2.6102278
1409527184414,1.9111716,9.214086,2.0949266,-0.05893424,9.468826,2.5511253
1409527184415,2.8856115,8.862736,2.3529017,-0.11809883,9.484128,2.4915397
1409527184416,3.34051,8.080431,2.6060886,-0.17296018,9.492667,2.4555528
1409527184417,3.3279405,7.5531077,2.8113914,-0.22709855,9.490346,2.4601133
1409527184423,2.9137435,7.401076,2.939481,-0.27915677,9.477633,2.503386
1409527184445,2.4462755,7.2460513,2.930503,-0.33330482,9.457603,2.5715842
1409527184446,2.0410569,7.019799,2.6126726,-0.39251587,9.435301,2.6441298
1409527184462,2.1559787,7.105392,2.4271219,-0.4581698,9.41628,2.7007682
1409527184463,2.5929205,7.5950065,2.5743654,-0.52562726,9.399772,2.7456145
1409527184471,2.9005754,8.103774,2.9131448,-0.58652484,9.38784,2.7739556
1409527184494,2.9083564,8.685565,3.2279825,-0.63804626,9.37792,2.7960546
1409527184495,2.27928,8.7771435,3.596091,-0.6794278,9.367273,2.8218694
1409527184518,1.8836381,8.74961,3.433884,-0.71963793,9.352987,2.8590505
1409527184519,1.3090298,8.834005,3.0657754,-0.7633292,9.336685,2.9006941
1409527184524,1.0103531,9.179369,2.505532,-0.81487584,9.322153,2.9332263
1409527184551,1.2671312,9.390059,1.922544,-0.8704988,9.313135,2.9458706
1409527184554,2.1643584,9.471462,1.917157,-0.92225885,9.309447,2.9417737
1409527184555,2.9628246,9.855133,2.4247277,-0.9621704,9.308122,2.9331744
1409527184577,3.1573534,10.374076,2.7665,-0.9875016,9.307709,2.9260538
1409527184578,3.1429882,10.69849,2.8712463,-1.0055969,9.309605,2.913833
1409527184593,2.8574798,10.927735,2.8820202,-1.0166057,9.315443,2.8912659
1409527184594,2.541445,10.853515,3.316568,-1.0224379,9.32367,2.8625438
1409527184607,1.8417397,10.423157,3.887585,-1.0216619,9.33117,2.8382838
1409527184612,0.92176765,9.94312,3.3931823,-1.0149274,9.338208,2.8174787
1409527184624,0.25917232,9.759365,2.3654714,-0.9987557,9.348954,2.7874615
1409527184643,0.13946225,9.713875,2.52289,-0.96592,9.363648,2.7494478
1409527184644,0.24600422,9.67856,3.05141,-0.91381305,9.378949,2.7148952
1409527184659,-0.005985504,9.413403,2.191293,-0.84454715,9.397472,2.6729486
1409527184673,-1.0923545,8.64666,0.82121116,-0.76140106,9.424702,2.6010838
1409527184673,-2.3894134,7.9032598,-0.110731825,-0.68030065,9.455392,2.5106072
1409527184692,-3.940856,7.964312,0.40880993,-0.58493674,9.488434,2.4078755
1409527184697,-3.271078,10.276512,1.3144168,-0.47823185,9.518957,2.30893
1409527184713,-2.8048072,14.626777,2.345719,-0.34354594,9.547023,2.215117
1409527184714,-1.8968062,19.239206,2.9352913,-0.18539259,9.5707,2.1301892
1409527184723,-1.2234371,19.608511,3.004723,-0.0058232993,9.587351,2.0622978
1409527184750,-1.9093759,19.608511,3.1142578,0.18203224,9.592561,2.0297866
1409527184752,-2.8550856,19.413385,3.0304608,0.33752003,9.5876875,2.0329077
1409527184753,-2.7126305,15.791555,3.1477766,0.43395075,9.575569,2.0713656
1409527184779,-2.0033484,11.77648,3.9606082,0.48869756,9.550761,2.1712942
1409527184780,-1.3299791,8.74542,4.522647,0.5167994,9.509653,2.3387678
1409527184783,-2.5192988,6.1064115,5.319318,0.53992987,9.459419,2.5294764
1409527184792,-2.2188265,9.394249,4.900931,0.54684585,9.403402,2.7289877
1409527184818,-1.5412674,10.445902,4.0533834,0.56402147,9.358782,2.874973
1409527184819,-0.8319851,9.056067,3.0334535,0.63516,9.33728,2.9295318
1409527184824,0.024540568,8.543709,2.8868086,0.76781356,9.335571,2.903093
1409527184849,0.7793127,8.061875,3.0585926,0.92796504,9.337165,2.8507235
1409527184852,1.4820108,7.9343843,3.4715924,1.0876265,9.329128,2.82043
1409527184853,1.5334862,7.7009497,3.402759,1.2341049,9.308567,2.828064
1409527184881,1.5693992,7.453748,2.8880057,1.3602707,9.279714,2.864781
1409527184882,1.3371617,5.613206,1.5466543,1.4641838,9.248897,2.9128122
1409527184884,1.2940661,4.9637785,1.632247,1.5417349,9.22105,2.9606862
1409527184892,1.2551602,4.4663835,1.6609775,1.6066626,9.19269,3.01388
1409527184909,1.2401965,4.226963,1.5424645,1.652983,9.163407,3.0773377
1409527184928,1.2587515,4.0264487,1.4053963,1.6908877,9.131272,3.1513755
1409527184929,1.2862848,3.721188,1.3994108,1.72646,9.096601,3.231344
1409527184932,1.2497733,3.4823663,1.4933833,1.761374,9.060734,3.3122609
1409527184944,1.2234371,3.4554317,1.5346833,1.7942575,9.026287,3.3878007
1409527184962,1.4652514,3.594894,1.7058687,1.8241649,8.996182,3.4513063
1409527184964,1.685518,3.8265328,2.0290859,1.8521737,8.972272,3.4983084
1409527184972,1.8082209,4.225766,2.4959552,1.8769367,8.956318,3.5258846
1409527184996,2.0572178,4.9494133,3.2908301,1.8958204,8.949674,3.5326514
1409527184998,2.2996306,5.8185086,3.9653966,1.9133135,8.9469795,3.5300438
1409527185004,2.771887,7.055712,4.585495,1.9206812,8.953853,3.5085473
1409527185031,3.1196449,7.800309,5.234922,1.91671,8.969575,3.47035
1409527185033,3.5314474,8.239047,5.7149596,1.8972433,8.991979,3.4227426
1409527185034,3.8600516,8.855554,6.364985,1.8595132,9.01917,3.371526
1409527185066,4.390966,10.083779,6.6163764,1.8022901,9.048734,3.323032
1409527185067,4.5675383,11.198878,6.05733,1.7330148,9.079024,3.2769444
1409527185068,3.6816838,10.96664,5.957971,1.6588749,9.108715,3.2326207
1409527185073,2.9753942,13.366828,5.835268,1.5789676,9.131394,3.2085679
1409527185097,2.1266496,15.2013855,5.261258,1.5057412,9.145107,3.2047048
1409527185098,1.8549078,14.319121,3.7936125,1.4459085,9.151885,3.212905
1409527185104,2.4139538,12.785636,3.3135753,1.3983198,9.157602,3.2176745
1409527185139,3.5805287,11.162367,3.822343,1.3918521,9.154687,3.2287552
1409527185141,4.5807066,8.983045,5.0403934,1.4217705,9.137016,3.2655647
1409527185143,4.9386396,7.4327993,8.661025,1.4823043,9.092794,3.3606904
1409527185145,4.2024226,8.862736,11.892598,1.5699455,9.012123,3.5337389
1409527185171,5.064934,14.933234,8.623915,1.6683652,8.907562,3.7473035
1409527185172,2.457648,17.274763,5.595249,1.785264,8.837383,3.8579628
1409527185173,-1.2198458,15.4084835,3.9857473,1.8757173,8.819524,3.8559139
1409527185196,-4.1078515,12.460623,4.0641575,1.91877,8.834186,3.8007774
1409527185197,-2.1200657,11.401787,1.8429368,1.9084762,8.85325,3.7613912
1409527185204,-1.8255788,10.270527,1.5777789,1.8877257,8.871657,3.728346
1409527185226,-2.0189106,9.405622,2.2535424,1.8536327,8.882702,3.7191453
1409527185227,-1.8644845,9.184157,2.148796,1.7764379,8.899598,3.7164245
1409527185238,-2.148796,9.357738,1.0390835,1.6804274,8.929739,3.688675
1409527185258,-2.132635,8.634688,0.96187055,1.5893234,8.970058,3.630772
1409527185260,-1.6609775,8.415619,0.7493851,1.5170991,8.999256,3.5891788
1409527185278,-0.79248077,8.048109,0.748188,1.4678416,9.008033,3.5876405
1409527185280,0.3693056,7.946954,1.0121487,1.4358355,9.007996,3.6006627
1409527185284,1.365892,8.104373,1.5592239,1.4056743,9.0190115,3.5849562
1409527185293,1.5688007,8.795698,2.0398598,1.3648847,9.049316,3.5238261
1409527185315,1.1563994,9.680356,2.248754,1.307176,9.094715,3.4275122
1409527185318,0.724246,9.800665,1.8716671,1.2341412,9.143115,3.3242626
1409527185324,0.43394905,9.330803,1.5885528,1.154016,9.1875725,3.22911
1409527185336,0.18195933,9.276335,2.099715,1.0684925,9.220105,3.1651816
1409527185359,-0.16519992,9.676167,2.5629928,0.97940266,9.24447,3.1226494
1409527185363,-0.40402153,9.983223,2.4229321,0.8887812,9.269938,3.0738726
1409527185387,-0.33279404,9.9550905,1.8740613,0.80192196,9.301178,3.0025668
1409527185388,-0.16639702,9.489418,1.3628993,0.72506076,9.3344965,2.9175096
1409527185390,-0.32142156,8.978855,1.0181342,0.6605376,9.363441,2.8390186
1409527185395,-0.7870938,8.868722,1.1725603,0.6028447,9.386192,2.7760377
1409527185411,-0.931943,9.063251,1.7848774,0.54581213,9.403374,2.729291
1409527185413,-0.4309563,9.145252,2.190096,0.49228576,9.41489,2.6996098
1409527185424,0.0077811554,9.209895,1.7561469,0.44797012,9.423032,2.6788423
1409527185435,0.109534726,8.933964,0.57999533,0.4113627,9.427912,2.667519
1409527185464,-0.02873042,8.867524,0.51954174,0.37136042,9.432656,2.6565914
1409527185466,-0.051475335,8.558074,0.7745243,0.31702498,9.439017,2.6409934
1409527185468,0.23463176,8.407239,1.359308,0.24779466,9.449536,2.6106095
1409527185473,0.7906851,8.546701,1.894412,0.170344,9.465144,2.559771
1409527185497,1.2174516,8.555679,2.280477,0.093973875,9.4839945,2.4930706
1409527185498,1.8315643,8.772355,2.6360161,0.022116665,9.501536,2.4270792
1409527185505,2.6282349,8.655638,2.7401638,-0.042538892,9.512933,2.3817406
1409527185534,3.0711622,8.350976,2.7329812,-0.099430576,9.515178,2.3710532
1409527185536,3.0747535,7.8966756,2.6641479,-0.1541191,9.512243,2.3798883
1409527185537,2.9783869,7.6387005,2.545635,-0.21149352,9.500985,2.42011
1409527185586,2.8580782,7.7230964,2.4588451,-0.27552587,9.484905,2.4761002
1409527185588,2.7647045,7.9092455,2.4708161,-0.34756342,9.466825,2.5355127
1409527185591,2.7551277,8.1343,2.6090813,-0.42768532,9.44984,2.5861177
1409527185594,2.7287915,8.422203,2.7042508,-0.5134977,9.436248,2.619912
1409527185595,2.954445,8.770559,2.6252422,-0.5982985,9.426244,2.63787
1409527185596,3.1477766,8.886678,2.6868927,-0.6724225,9.417962,2.6495676
1409527185618,3.2255883,8.619126,3.177704,-0.72975117,9.407282,2.672249
1409527185620,3.1064768,8.541314,3.6433764,-0.77164227,9.390554,2.718904
1409527185624,2.542642,7.94037,3.2489316,-0.8028928,9.369514,2.7817154
1409527185647,2.9233203,7.709928,2.0308816,-0.83890337,9.348445,2.8413413
1409527185648,3.4751837,7.608773,1.8405426,-0.8705262,9.333548,2.8805346
1409527185653,3.7008374,7.890092,2.6354175,-0.89737934,9.324604,2.9011848
1409527185680,3.1040826,8.831013,3.153762,-0.9203257,9.318753,2.9127655
1409527185682,1.9931729,10.326192,2.6821043,-0.9437344,9.316337,2.91301
1409527185685,1.3186066,11.767501,2.4372973,-0.96570575,9.32098,2.8908708
1409527185693,0.66858083,12.374432,2.908955,-0.9731353,9.332714,2.850236
1409527185716,-0.17417817,12.158954,2.7353754,-0.9605445,9.34705,2.807204
1409527185718,-0.5279215,11.343728,2.0015526,-0.93190724,9.363452,2.7618306
1409527185728,0.12330139,10.921151,2.6611552,-0.885526,9.38154,2.7153144
1409527185757,0.6123171,10.833164,3.7882257,-0.81442386,9.3961525,2.6868987
1409527185761,0.51116204,10.648212,2.6330233,-0.73306704,9.406933,2.672568
1409527185762,-0.7374141,9.905411,0.97384155,-0.63881886,9.422987,2.6400046
1409527185780,-1.9680338,8.788516,0.10654198,-0.5412083,9.448308,2.5704012
1409527185782,-2.8341362,7.835025,0.5363012,-0.43393862,9.477383,2.4822004
1409527185786,-3.4680011,8.120534,1.4065934,-0.31282473,9.502671,2.4024525
1409527185813,-3.6942532,10.627263,2.1110873,-0.18010567,9.523094,2.334234
1409527185815,-3.58412,15.074492,2.3953989,-0.04371128,9.539723,2.2720425
1409527185817,-2.966416,19.608511,1.8668787,0.09077055,9.553219,2.21318
1409527185828,-3.8786068,19.603125,1.8297687,0.21942952,9.565523,2.1501217
1409527185857,-4.4244847,17.931374,2.0817583,0.31175724,9.570419,2.116665
1409527185860,-3.810372,15.020623,3.2213984,0.38717008,9.568496,2.112908
1409527185863,-2.4995465,12.331934,4.4993033,0.4261068,9.551804,2.1798863
1409527185891,-1.151611,9.545682,5.04578,0.4467249,9.518893,2.3154943
1409527185897,-1.8501194,6.4380083,5.884948,0.46592283,9.473129,2.4926157
1409527185898,-1.287482,9.965864,5.5587378,0.4822435,9.421645,2.6777635
1409527185922,-0.7098808,10.348338,4.2556934,0.50901085,9.376863,2.8259077
1409527185924,-0.047884032,8.302493,2.918532,0.57742625,9.350627,2.8987532
1409527185926,1.0378864,6.95755,2.5881321,0.6986911,9.342686,2.8976645
1409527185927,2.0207062,6.91625,3.1705215,0.84568286,9.341177,2.8631475
1409527185944,2.8018146,7.4244194,3.8510735,1.0000409,9.333637,2.8378737
1409527185946,2.6312277,7.6291237,3.8792052,1.1558956,9.314368,2.8419783
1409527185953,2.2056582,7.0850415,2.8550856,1.3030683,9.289489,2.8596897
1409527185976,1.6837224,6.297349,2.2260091,1.4331738,9.262544,2.8847356
1409527185977,1.5993267,5.7424927,1.6160861,1.5391517,9.2364025,2.9138067
