time,acc_x,acc_y,acc_z,gravity_x,gravity_y,gravity_z
1409526867378,0.53809685,9.560047,2.5689783,0.4746327,9.4837265,2.4503183
1409526867380,0.55725044,9.532514,2.5330653,0.47094563,9.482783,2.4546692
1409526867396,0.54767364,9.542689,2.5019407,0.4675406,9.482466,2.4565516
1409526867410,0.56203884,9.49301,2.5863364,0.46420982,9.482813,2.45584
1409526867411,0.56443304,9.418191,2.6515784,0.46135354,9.483443,2.4539468
1409526867426,0.56443304,9.435549,2.6431987,0.45831487,9.483712,2.4534736
1409526867428,0.57999533,9.44333,2.6264393,0.455058,9.483429,2.455175
1409526867444,0.58119243,9.464279,2.6042929,0.452255,9.482983,2.45742
1409526867449,0.58298814,9.508572,2.5899277,0.4500376,9.48265,2.4591079
1409526867468,0.6027403,9.503185,2.5743654,0.44832385,9.482327,2.460667
1409526867469,0.6290765,9.496002,2.5629928,0.44772413,9.481867,2.462548
1409526867480,0.6356605,9.4457245,2.52289,0.447193,9.481282,2.4648943
1409526867506,0.6099229,9.441534,2.5312698,0.4468776,9.480681,2.4672623
1409526867507,0.58538234,9.426571,2.5611973,0.44658175,9.480089,2.469592
1409526867508,0.5398925,9.416994,2.586935,0.44618484,9.479647,2.4713554
1409526867529,0.5177461,9.472659,2.5917234,0.44553885,9.479165,2.47332
1409526867530,0.49200845,9.553463,2.581548,0.44530457,9.478937,2.4742362
1409526867545,0.45010993,9.5013895,2.5181017,0.44491163,9.479068,2.473813
1409526867548,0.45310268,9.518148,2.5372553,0.44423598,9.479349,2.4728527
1409526867560,0.4794389,9.515156,2.552219,0.444056,9.479289,2.4731114
1409526867573,0.46447513,9.446921,2.5181017,0.44394505,9.479135,2.4737203
1409526867591,0.47225627,9.461287,2.5360582,0.44336256,9.479092,2.473992
1409526867592,0.47345337,9.463681,2.552219,0.44299036,9.479078,2.474112
1409526867610,0.47644615,9.471462,2.541445,0.44320044,9.479137,2.4738472
1409526867611,0.46148238,9.496601,2.4881742,0.44420314,9.47926,2.4731934
1409526867630,0.46986207,9.510367,2.4779987,0.44562408,9.479486,2.4720693
1409526867631,0.4357447,9.534309,2.457648,0.4475333,9.479856,2.470317
1409526867644,0.44352585,9.534908,2.4426842,0.44907966,9.480405,2.4679234
1409526867651,0.41958386,9.513959,2.4343045,0.4508882,9.481008,2.4652772
1409526867670,0.43035775,9.522937,2.4468741,0.4526528,9.481609,2.4626384
1409526867671,0.45789108,9.510367,2.4420857,0.45425832,9.482167,2.460191
1409526867680,0.49081135,9.502586,2.468422,0.45592847,9.482601,2.4582105
1409526867690,0.5530606,9.528923,2.4708161,0.45787024,9.482949,2.4565096
1409526867717,0.5859809,9.534908,2.505532,0.46038705,9.4832735,2.4547813
1409526867718,0.5943606,9.533113,2.498948,0.46319076,9.4834585,2.4535427
1409526867720,0.6075287,9.509171,2.5073278,0.46599028,9.483588,2.4525092
1409526867728,0.5979519,9.498397,2.5025394,0.46866542,9.483609,2.4519184
1409526867745,0.5907693,9.509171,2.5061307,0.471118,9.483731,2.4509706
1409526867763,0.55964464,9.551069,2.5133133,0.4736492,9.483908,2.4498062
1409526867764,0.55844754,9.567828,2.5091233,0.4757835,9.484126,2.448546
1409526867775,0.5805939,9.581595,2.516306,0.4777358,9.484449,2.4469092
1409526867780,0.61770403,9.5798,2.5103204,0.47980505,9.484737,2.4453964
1409526867792,0.6440403,9.552266,2.4708161,0.48245284,9.484941,2.4440815
1409526867807,0.6679823,9.523536,2.4732103,0.48581147,9.485036,2.443041
1409526867808,0.7128736,9.458893,2.433706,0.48983136,9.484763,2.4433064
1409526867825,0.7691373,9.393052,2.417545,0.4943899,9.4843025,2.4441726
1409526867828,0.8451532,9.407417,2.5061307,0.49962133,9.483899,2.444679
1409526867842,0.9283517,9.434352,2.6060886,0.50556433,9.483333,2.44565
1409526867866,1.0043676,9.452907,2.6479871,0.51196426,9.482551,2.447351
1409526867867,1.0456676,9.466674,2.6850972,0.51859164,9.481675,2.4493415
1409526867869,1.079785,9.456498,2.6767175,0.5253572,9.48086,2.4510567
1409526867880,1.146224,9.450513,2.6635494,0.5324116,9.480131,2.4523592
1409526867904,1.168969,9.442133,2.6563668,0.53968364,9.479404,2.4535728
1409526867905,1.1569979,9.443929,2.6491842,0.5471585,9.478616,2.4549663
1409526867908,0.9235633,9.411008,2.6144683,0.5535992,9.477727,2.4569516
1409526867922,0.78529817,9.399636,2.5737667,0.557076,9.477002,2.4589589
1409526867928,0.641646,9.377489,2.5516205,0.55908227,9.476349,2.4610274
1409526867943,0.52133745,9.374496,2.5187001,0.5600638,9.475754,2.4630954
1409526867962,0.41299978,9.379285,2.4809916,0.56034803,9.475211,2.4651139
1409526867964,0.35673606,9.4217825,2.4432828,0.5600621,9.474715,2.4670851
1409526867978,0.33039984,9.43914,2.4366987,0.5600568,9.474144,2.469277
1409526867997,0.31483752,9.445126,2.4624364,0.5604477,9.473593,2.4713082
1409526867999,0.3250129,9.494805,2.5073278,0.56124234,9.473113,2.4729633
1409526868001,0.22804771,9.466674,2.5450363,0.5622755,9.472822,2.473837
1409526868008,0.25617957,9.519346,2.5755625,0.5630489,9.472676,2.4742215
1409526868025,0.24301147,9.548675,2.5941176,0.5646807,9.472618,2.4740713
1409526868028,0.2657564,9.552865,2.5773582,0.56729436,9.472619,2.4734747
1409526868042,0.31244332,9.518747,2.557606,0.5710105,9.472904,2.4715273
1409526868061,0.4297592,9.496002,2.5462334,0.57514024,9.473319,2.4689696
1409526868062,0.35673606,9.520543,2.6767175,0.5802006,9.4736,2.4667113
1409526868075,0.40880993,9.522339,2.6755204,0.5838733,9.473697,2.4654746
1409526868094,0.45070848,9.530719,2.6898856,0.5876485,9.474028,2.4633026
1409526868095,0.46327803,9.545682,2.7371712,0.5914719,9.474634,2.460051
1409526868109,0.42556936,9.57561,2.7210102,0.5953525,9.4752035,2.4569259
1409526868110,0.43514615,9.601946,2.6839,0.59843165,9.475831,2.4537535
1409526868130,0.45250413,9.592369,2.6408045,0.601231,9.476486,2.4505415
1409526868131,0.48722005,9.52593,2.630629,0.60339767,9.4770975,2.4476378
1409526868140,0.516549,9.461885,2.6623523,0.6044237,9.477747,2.4448698
1409526868176,0.5243302,9.446921,2.7138276,0.60462445,9.478285,2.4427319
1409526868178,0.5710171,9.460688,2.747945,0.6039381,9.478892,2.44055
1409526868181,0.6099229,9.489418,2.759916,0.60292566,9.479804,2.437252
1409526868204,0.62129533,9.519944,2.767697,0.6023798,9.480865,2.4332566
1409526868207,0.61291564,9.507375,2.7216089,0.6023243,9.481831,2.4295044
1409526868209,0.62488663,9.541492,2.6862943,0.6022229,9.482694,2.426161
1409526868212,0.6398504,9.536704,2.6252422,0.6023482,9.483602,2.422575
1409526868251,0.6793547,9.516354,2.5899277,0.6029352,9.484477,2.4189992
1409526868254,0.7038953,9.536105,2.5755625,0.60417336,9.485134,2.4161136
1409526868259,0.7356185,9.528324,2.586935,0.6056937,9.485719,2.4134316
1409526868261,0.7745243,9.518148,2.5833437,0.60762745,9.486039,2.4116948
1409526868262,0.79248077,9.505579,2.5887306,0.6101279,9.486315,2.4099684
1409526868287,0.81522566,9.507375,2.5713725,0.6129363,9.486469,2.4086542
1409526868288,0.84335756,9.498397,2.5629928,0.61634654,9.48649,2.407698
1409526868289,0.94810385,9.482835,2.5192988,0.6199251,9.486549,2.4065473
1409526868316,1.0019734,9.466674,2.5115175,0.62390304,9.486706,2.4048986
1409526868317,1.021127,9.440936,2.5354595,0.6280253,9.486872,2.4031775
1409526868321,1.0319009,9.4295635,2.5791538,0.6319737,9.486881,2.4021049
1409526868329,1.049259,9.437943,2.60968,0.63560337,9.486793,2.4014928
1409526868355,1.0582372,9.459491,2.6270378,0.6390732,9.486785,2.4006035
1409526868357,1.0773908,9.476251,2.6156654,0.64274746,9.486713,2.3999043
1409526868361,1.1145009,9.518747,2.6204538,0.64686257,9.486602,2.399239
1409526868386,1.174356,9.546879,2.5611973,0.6512977,9.486532,2.398313
1409526868387,1.3042414,9.578004,2.5390508,0.6565629,9.486503,2.3969984
1409526868389,1.1133038,9.433155,2.5264814,0.6631704,9.486358,2.3957493
1409526868418,1.0169371,9.509171,2.5683799,0.66798437,9.486121,2.3953516
1409526868419,1.1575965,9.55047,2.4905684,0.67171204,9.485667,2.396102
1409526868421,0.94451255,9.505579,2.480393,0.676985,9.485151,2.3966668
1409526868429,1.0055647,9.519346,2.4875755,0.6819407,9.484376,2.3983266
1409526868456,1.0929531,9.475053,2.4582467,0.68722457,9.483231,2.4013433
1409526868458,0.9223662,9.504981,2.5342624,0.69376105,9.481777,2.4052
1409526868460,1.0839748,9.512762,2.4785974,0.69918966,9.480416,2.4089866
1409526868476,0.7589619,9.409213,2.4498668,0.70667714,9.4791975,2.411601
1409526868494,0.7218518,9.376292,2.4037786,0.71214277,9.478244,2.4137375
1409526868496,0.6183026,9.469068,2.441487,0.717282,9.47743,2.4154134
1409526868516,0.59376204,9.406818,2.3720553,0.7218253,9.476621,2.4172351
1409526868517,0.4842273,9.515755,2.4193408,0.7259045,9.476118,2.417986
1409526868521,0.50397944,9.488221,2.3702598,0.72868353,9.475964,2.4177523
1409526868550,0.516549,9.487623,2.3415294,0.73154277,9.476035,2.4166102
1409526868552,0.46627077,9.585785,2.3870192,0.7346481,9.476466,2.4139688
1409526868553,0.54767364,9.566033,2.31639,0.7370332,9.477354,2.409759
1409526868562,0.6536171,9.656414,2.2732944,0.739254,9.4785595,2.4043257
1409526868595,0.6889315,9.55885,2.3008277,0.7419911,9.47997,2.3979192
1409526868598,0.7428011,9.548077,2.3421278,0.74415505,9.481608,2.3907592
1409526868601,0.7368156,9.636064,2.3953989,0.74516994,9.483327,2.3836138
1409526868602,0.81522566,9.589376,2.3798366,0.7439669,9.485021,2.3772483
1409526868610,0.85173726,9.51336,2.4193408,0.7424336,9.48694,2.3700514
1409526868648,0.8798691,9.601347,2.4558525,0.74046993,9.489043,2.362232
1409526868652,0.9528923,9.594165,2.472612,0.7380088,9.491235,2.3541877
1409526868654,1.1091139,9.473258,2.468422,0.733883,9.493693,2.3455536
1409526868656,1.2401965,9.435549,2.4372973,0.73016983,9.496206,2.3365111
1409526868702,1.1348516,9.497798,2.5360582,0.7266283,9.498914,2.326593
1409526868704,1.1378443,9.726444,2.3570917,0.72069144,9.501775,2.3167338
1409526868706,1.1839328,9.448717,2.2768857,0.71444595,9.505103,2.3049932
1409526868709,0.8451532,9.433155,2.4271219,0.70934033,9.508518,2.2924473
1409526868714,0.6823475,8.564059,2.5007436,0.7013017,9.511472,2.2826424
1409526868716,1.0384849,10.113108,2.445677,0.6917618,9.512948,2.2794027
1409526868748,0.8403648,10.192117,2.432509,0.69076586,9.514323,2.2739635
1409526868750,0.70509243,9.5798,2.2625206,0.6971926,9.515686,2.266277
1409526868754,0.7739257,9.487024,2.2391772,0.70377016,9.517144,2.2581131
1409526868755,0.76075757,9.515156,2.2361844,0.70631963,9.518943,2.2497182
1409526868762,0.7146692,9.552865,2.2098482,0.7054183,9.520739,2.242392
1409526868775,0.46088383,9.901221,2.2679076,0.7057088,9.522132,2.2363782
1409526868790,0.12150574,10.2417965,2.1751323,0.7047736,9.523546,2.2306435
1409526868791,0.5859809,9.598953,1.8752584,0.7001013,9.525257,2.2248042
1409526868815,1.3006501,8.425795,2.0452468,0.69931275,9.526308,2.2205422
1409526868817,1.0265139,9.438541,2.7407625,0.6998998,9.524939,2.2262216
1409526868821,0.6332663,9.251195,2.597709,0.68703645,9.522262,2.2416348
1409526868851,0.8391677,9.209297,2.3798366,0.66703695,9.521956,2.2489576
1409526868854,0.85772276,9.7007065,2.4492683,0.65479136,9.524331,2.2424905
1409526868862,0.9247604,9.928755,2.3116016,0.645311,9.527344,2.2324166
1409526868891,0.57281274,9.662399,2.2852654,0.64027447,9.53125,2.2171428
1409526868906,0.54647654,9.859921,2.2619221,0.63536185,9.535196,2.2015326
1409526868907,0.5446809,9.703699,2.058415,0.63045275,9.538246,2.189698
1409526868908,0.7326257,9.4457245,2.0530279,0.62568337,9.541014,2.1789837
1409526868921,0.8678981,9.297882,2.1769278,0.6254276,9.543607,2.1676695
1409526868922,1.0827777,9.19553,2.2691047,0.6257848,9.545273,2.1602137
1409526868923,0.60333884,9.353547,2.3307555,0.6259753,9.545401,2.1596029
1409526868943,0.545878,9.821015,2.2481554,0.62054384,9.545523,2.160627
1409526868945,0.54049104,9.778519,2.0033484,0.61294746,9.546625,2.1579165
1409526868963,0.3274071,9.997588,2.0524294,0.605709,9.548465,2.1518152
1409526868964,0.3728969,9.93893,1.9973627,0.5982841,9.55087,2.143204
1409526868970,1.1109096,8.859743,1.8435353,0.59118265,9.552943,2.1359274
1409526868995,1.2952632,8.582016,2.3110032,0.5897982,9.553453,2.134025
1409526868996,0.91219085,9.440936,2.7790697,0.5876403,9.552161,2.1403944
1409526869013,0.7164649,10.041282,2.6821043,0.5778734,9.550581,2.1500835
1409526869014,-0.89902276,12.444462,2.918532,0.5672731,9.55104,2.1508756
1409526869023,-0.12868834,12.233772,1.5059528,0.5430874,9.553999,2.1439564
1409526869046,0.6751649,8.136695,1.0121487,0.5355921,9.558476,2.1258101
1409526869048,0.9720459,8.188768,2.4947581,0.5399762,9.558199,2.1259468
1409526869052,0.9283517,8.596381,2.7688942,0.53259647,9.551853,2.156119
1409526869092,0.66020113,8.572439,2.5983074,0.52077067,9.544341,2.1919725
1409526869096,0.4854244,9.182362,2.6761189,0.5056954,9.540039,2.2141275
1409526869098,0.38845924,9.826403,2.541445,0.49247012,9.540249,2.2161932
1409526869100,0.29209262,10.204686,2.2840683,0.48008975,9.542641,2.2085965
1409526869123,0.29269117,10.129868,2.1212628,0.4694065,9.546741,2.1931298
1409526869125,0.42078096,9.950901,2.1338322,0.4590672,9.551763,2.173354
1409526869126,0.58119243,9.833585,2.247557,0.44778216,9.555787,2.1579664
1409526869147,0.7368156,9.645041,2.333748,0.43602648,9.558178,2.149766
1409526869149,0.6901286,9.633071,2.4432828,0.42444658,9.559352,2.146864
1409526869150,0.6889315,9.561244,2.3948002,0.4113128,9.559843,2.1472318
1409526869174,0.76195467,9.502586,2.3535004,0.39773235,9.560115,2.148586
1409526869175,0.8984242,9.54209,2.3834279,0.3856165,9.560324,2.1498597
1409526869191,1.0241197,9.510966,2.4133554,0.37679914,9.560437,2.1509225
1409526869192,1.0851719,9.509171,2.4522612,0.36946258,9.560206,2.1532204
1409526869216,1.1115081,9.500791,2.4642322,0.36246437,9.559572,2.1572201
1409526869217,1.1300632,9.526528,2.4067712,0.3559604,9.559139,2.1602213
1409526869221,1.1510124,9.585785,2.3876176,0.3512516,9.559068,2.1613028
1409526869247,1.1731589,9.613917,2.3511062,0.34919214,9.558688,2.163316
1409526869249,1.1288661,9.554062,2.2709002,0.34963042,9.557928,2.1666043
1409526869251,1.01574,9.494206,2.1894975,0.35145757,9.556804,2.171263
1409526869284,0.8762778,9.3738985,2.1122844,0.35312465,9.555709,2.17581
1409526869285,0.74399817,9.260174,2.0350714,0.3531316,9.554835,2.1796358
1409526869287,0.5931635,9.4062195,2.2379801,0.3533315,9.554258,2.1821327
1409526869290,0.3776853,9.105747,1.7136499,0.3528533,9.553383,2.1860433
1409526869318,0.40043023,9.367912,1.6639702,0.35086614,9.553191,2.1871967
1409526869320,0.2172738,9.466075,1.822586,0.34862742,9.553963,2.1841817
1409526869322,0.01316811,9.494805,1.8255788,0.3451931,9.555971,2.1759243
1409526869354,-0.18255788,9.582792,1.8644845,0.34138083,9.557239,2.1709552
1409526869355,-0.31184477,9.634866,1.8183962,0.3368097,9.557549,2.1702998
1409526869357,-0.38965634,9.636662,1.8507179,0.33277237,9.558247,2.1678503
1409526869380,-0.45609543,9.623494,1.903989,0.3302256,9.559297,2.1636097
1409526869382,-0.5177461,9.5971575,1.9955671,0.3289673,9.560155,2.1599996
1409526869384,-0.5482722,9.560646,2.054225,0.32821083,9.560711,2.1576586
1409526869390,-0.55246204,9.549872,2.136825,0.32783505,9.561028,2.1563098
1409526869413,-0.5177461,9.592369,2.0260932,0.32792398,9.561691,2.1533535
1409526869414,-0.44831428,9.7162695,1.9680338,0.32825768,9.563534,2.1451068
1409526869422,-0.4914099,9.826403,2.1853075,0.32857016,9.566399,2.1322455
1409526869451,-0.43514615,9.7402115,1.9991584,0.3273429,9.568583,2.1226108
1409526869453,-0.34356794,9.652225,1.9758149,0.3252393,9.570083,2.1161594
1409526869462,-0.24899697,9.572019,1.9740193,0.3230919,9.57231,2.106396
1409526869483,-0.107739076,9.470264,2.0500352,0.3212519,9.575555,2.0918777
1409526869484,0.037110128,9.507974,2.0937295,0.31864005,9.578662,2.0779996
1409526869485,0.20410569,9.674371,2.0727801,0.31404662,9.581636,2.0649476
1409526869495,0.29867667,9.783307,1.9925743,0.3096819,9.584624,2.0516946
1409526869517,0.28072014,9.931747,2.0626047,0.30234468,9.5880995,2.0364964
1409526869519,0.35673606,9.932345,2.1440077,0.29267272,9.591869,2.020087
1409526869522,0.47884035,9.815628,2.2457612,0.28262466,9.595522,2.0041106
1409526869549,0.5793968,9.742006,2.3648727,0.27391744,9.598677,1.9901664
1409526869550,0.623091,9.731233,2.3529017,0.26676202,9.600677,1.9814774
1409526869552,0.64823014,9.660006,2.2810757,0.26041207,9.601651,1.9775949
1409526869586,0.6811504,9.623494,2.2762873,0.2544916,9.60232,1.9751152
1409526869587,0.84934306,9.458893,2.243367,0.24852785,9.602735,1.9738566
1409526869588,0.9864111,9.343372,2.2361844,0.2429806,9.602835,1.9740671
1409526869590,0.90500826,9.515156,2.336741,0.23773997,9.602767,1.9750327
1409526869615,0.8110358,9.704298,2.3187842,0.23070404,9.602443,1.9774371
1409526869616,0.84575176,9.7162695,2.2397757,0.22062552,9.602415,1.978728
1409526869622,0.81163436,9.655217,2.1709423,0.21167926,9.602873,1.9774778
1409526869651,0.7182605,9.561244,2.087744,0.20498335,9.603412,1.9755619
1409526869654,0.61770403,9.473856,2.0518308,0.19964531,9.603597,1.9752119
1409526869655,0.44352585,9.509769,2.0721815,0.19608931,9.603619,1.9754574
1409526869677,0.26036942,9.379285,2.3774424,0.19292244,9.603659,1.9755826
1409526869678,0.39624038,9.1751795,2.2050598,0.1882284,9.602977,1.9793367
1409526869682,0.5021838,9.613318,1.340753,0.1837758,9.602563,1.9817687
1409526869690,0.22625206,10.131064,1.5628152,0.17990719,9.606332,1.9637713
1409526869714,-0.049081136,10.121488,1.8112136,0.1734412,9.612048,1.9361961
1409526869716,-0.1364695,9.983223,1.8357542,0.16521285,9.618326,1.9054877
1409526869722,-0.1436521,9.837176,1.7172412,0.1562896,9.620185,1.8968402
1409526869749,-0.18315643,9.745598,1.785476,0.148734,9.618845,1.9042264
1409526869751,-0.07182605,9.280524,1.3730747,0.14350618,9.617128,1.9132804
1409526869754,0.049081136,9.285313,1.5478514,0.1416614,9.617505,1.9115227
1409526869777,0.061052144,9.31524,1.7711107,0.14101024,9.619924,1.899356
1409526869778,0.074220255,9.408015,1.9057846,0.13939759,9.622144,1.8882037
1409526869782,0.020949265,9.516354,1.8782512,0.13672249,9.622795,1.8850727
1409526869790,0.02633622,9.506777,1.7753005,0.1332052,9.622817,1.8852175
1409526869813,0.074818805,9.473258,1.8219875,0.12984997,9.623083,1.8840908
1409526869814,0.3321955,9.47206,1.7794905,0.12704891,9.623717,1.8810433
1409526869822,0.1945289,9.665392,1.7717092,0.12534451,9.624448,1.8774177
1409526869848,0.11552023,9.580399,1.721431,0.120259754,9.625456,1.8725691
1409526869849,0.007182605,9.57142,1.7549498,0.112416856,9.626756,1.8663685
1409526869851,0.022146367,9.717466,1.7447745,0.102442764,9.627932,1.8608658
1409526869879,0.023343466,8.67958,1.6430209,0.09191169,9.628925,1.8562692
1409526869880,0.8499416,9.202713,1.7064673,0.08016528,9.629423,1.8542272
1409526869882,0.7272388,9.712079,2.0284874,0.07379534,9.629556,1.853803
1409526869890,0.50158525,9.822212,2.0979192,0.0690092,9.628786,1.8579876
1409526869920,0.3453636,9.998186,2.034473,0.06467739,9.628289,1.8607156
1409526869922,-0.004189853,10.345944,1.9728222,0.059582036,9.628565,1.8594619
1409526869928,-0.12389994,10.702681,1.8034325,0.052438155,9.63014,1.8514954
1409526869963,-0.18794483,10.734404,1.6801311,0.048017964,9.632112,1.8413315
1409526869965,-0.19632454,10.484808,1.6376339,0.047099642,9.633127,1.836044
1409526869968,-0.14784196,10.166978,1.697489,0.04874215,9.632345,1.8400902
1409526869970,-0.11971009,9.89763,1.8644845,0.051067743,9.6297655,1.8534877
1409526869973,0.046088383,9.591172,2.006341,0.05321356,9.625896,1.8734136
1409526870003,0.08678981,9.605537,2.134431,0.055789657,9.621433,1.8961287
1409526870005,0.18674773,9.506178,2.0727801,0.058232885,9.616757,1.9196286
1409526870007,0.61770403,9.109938,2.010531,0.06324231,9.612317,1.9415833
1409526870038,0.5105635,9.494206,2.2104468,0.0732719,9.608366,1.9606947
1409526870040,0.17956513,9.486425,2.3523033,0.08256438,9.60457,1.9788393
1409526870043,0.36391866,9.685743,2.1386206,0.089503855,9.601044,1.9955816
1409526870072,0.35434186,9.735423,2.1122844,0.09886453,9.598389,2.0078788
1409526870073,0.31124622,9.553463,2.0649989,0.10895141,9.596826,2.0148177
1409526870075,0.44891283,9.43914,2.0620062,0.11999007,9.59633,2.0165496
1409526870083,0.60812724,9.20391,2.0973208,0.13152502,9.596133,2.0167634
1409526870119,0.6398504,9.300277,2.2092497,0.14424466,9.59543,2.0192316
1409526870120,0.4818331,9.560047,2.3145945,0.15699615,9.593963,2.0252464
1409526870122,0.2136825,9.560646,2.3026235,0.16689649,9.592214,2.0327294
1409526870122,0.33518824,10.061633,2.0602105,0.17221257,9.59113,2.0373907
1409526870123,0.065242,10.104729,2.0003555,0.17708978,9.591146,2.0368884
1409526870139,-0.23882163,9.944916,1.905186,0.17900106,9.592047,2.0324888
1409526870156,-0.2908955,9.877877,1.8471266,0.17843466,9.593283,2.0266898
1409526870157,-0.12928689,9.8198185,1.7878702,0.17540322,9.59454,2.0209973
1409526870172,-0.037110128,9.706094,1.8255788,0.17356782,9.595648,2.0158927
1409526870173,-0.009576807,9.63726,1.927931,0.17341508,9.596387,2.012382
1409526870185,0.04309563,9.589376,1.9859903,0.17421818,9.596493,2.0117998
1409526870194,0.17118542,9.665991,1.9818004,0.17501707,9.596468,2.0118573
1409526870227,0.15981296,9.6049385,1.9734207,0.1757372,9.5969,2.009734
1409526870229,0.15981296,9.570822,1.9794062,0.1753687,9.597347,2.007627
1409526870232,0.15622166,9.528923,1.9602526,0.17413251,9.597402,2.0074668
1409526870234,0.12150574,9.495404,1.9847932,0.17237927,9.597314,2.0080488
1409526870265,0.26276365,9.357738,2.0171149,0.1696673,9.597137,2.0091193
1409526870266,0.9068039,8.135497,1.8034325,0.16798535,9.597144,2.0092304
1409526870268,0.89662856,6.519411,1.9931729,0.17119953,9.59718,2.0087879
1409526870271,-0.9247604,11.218032,3.305794,0.17322025,9.596581,2.011471
1409526870308,-0.4441244,12.925696,2.19668,0.14275782,9.594933,2.0216994
1409526870309,-0.06943185,10.998364,0.91937345,0.0910771,9.59823,2.008994
1409526870311,-0.077213004,10.077195,1.0929531,0.069091074,9.607827,1.963484
1409526870312,0.022146367,9.464279,1.8231846,0.08561295,9.616675,1.9190142
1409526870323,0.16460137,9.3104515,2.280477,0.10818678,9.618132,1.9105595
1409526870353,0.36511576,9.305065,2.421735,0.1255812,9.61467,1.9268465
1409526870355,0.3417723,8.723872,2.3223755,0.1412274,9.610773,1.9451185
1409526870360,0.61052144,8.907029,2.4181437,0.14886786,9.608671,1.9549088
1409526870404,0.57520694,9.15423,2.3989902,0.15099522,9.607818,1.9589378
1409526870405,0.4794389,9.028535,2.2679076,0.15091376,9.6074915,1.9605443
1409526870406,-0.077811554,9.2494,2.3373394,0.15031415,9.60819,1.9571738
1409526870408,-0.56084174,10.126276,2.2882583,0.14252818,9.609703,1.9502993
1409526870409,-0.8571242,10.594941,1.9405005,0.123848975,9.612049,1.939996
1409526870423,-0.85054016,10.152014,1.4544775,0.098043576,9.615482,1.9243966
1409526870425,-0.62847793,9.639056,1.3623008,0.078371674,9.619938,1.902901
1409526870437,-0.33997664,9.53012,1.5801731,0.07140428,9.624436,1.8802958
1409526870457,-0.28431144,9.391854,1.8908207,0.0731075,9.628107,1.8613435
1409526870458,-0.3878607,9.202713,2.1033063,0.07573753,9.629901,1.8519377
1409526870464,-0.41299978,9.335591,2.2062569,0.074114926,9.630172,1.850593
1409526870471,-0.4141969,9.496601,2.2284033,0.06613906,9.630207,1.8507124
1409526870492,-0.08439561,9.391256,2.098518,0.05174334,9.631081,1.8466238
1409526870493,-0.09756372,9.734824,2.1745336,0.035495386,9.632877,1.8376132
1409526870504,-0.25498247,9.812635,2.1577742,0.0181855,9.634937,1.8270301
1409526870534,-0.30885202,9.546879,1.9812019,0.0046712435,9.637128,1.815524
1409526870536,-0.4237737,9.421184,1.8806454,-0.0032938174,9.639743,1.8015924
1409526870538,-0.44711718,9.5798,1.903989,-0.00913078,9.642466,1.7869469
1409526870576,-0.31783026,9.720459,1.8249803,-0.0132476045,9.644584,1.7754573
1409526870579,-0.14305355,9.723452,1.6741456,-0.015558146,9.646494,1.7650245
1409526870581,0.031124622,9.657013,1.650802,-0.015566403,9.648151,1.7559456
1409526870584,0.2148796,9.879075,1.6603789,-0.013922252,9.649634,1.7477831
1409526870586,0.3357868,9.879075,1.5891514,-0.012081848,9.651134,1.7395012
1409526870612,0.4201824,9.7863,1.596334,-0.012333485,9.652848,1.7299658
1409526870613,0.40402153,9.830592,1.678934,-0.013790771,9.654637,1.7199389
1409526870613,0.3357868,9.855133,1.6819267,-0.016176278,9.656181,1.7112273
1409526870624,0.17836803,9.779117,1.5987282,-0.02100779,9.657479,1.7038369
1409526870634,0.14844051,9.709086,1.4951789,-0.028995903,9.65887,1.695817
1409526870662,0.15562311,9.592968,1.441908,-0.037471216,9.660349,1.6872016
1409526870664,0.18914193,9.51755,1.501763,-0.043385334,9.661494,1.6804922
1409526870672,0.20949265,9.5971575,1.4969746,-0.04754848,9.662215,1.6762242
1409526870675,0.22924481,9.71986,1.4598645,-0.049591567,9.662385,1.6751901
1409526870702,0.27593175,9.85633,1.4263457,-0.05078246,9.662614,1.6738347
1409526870704,0.31244332,9.94312,1.3245921,-0.05107764,9.663355,1.6695342
1409526870708,0.3716998,9.983821,1.3030443,-0.050377056,9.664598,1.6623476
1409526870730,0.35913026,9.967062,1.3467385,-0.048678108,9.666139,1.6534148
1409526870731,0.31603462,9.913192,1.3922282,-0.04686178,9.667861,1.6433625
1409526870733,0.260968,9.85214,1.388637,-0.045361858,9.669636,1.6329379
1409526870764,0.23223756,9.776723,1.4449008,-0.044523984,9.671498,1.6218873
1409526870765,0.16220717,9.711481,1.4933833,-0.044535127,9.67316,1.6119497
1409526870767,0.08499416,9.512762,1.6394296,-0.046060216,9.674592,1.6032872
1409526870771,0.059855044,9.5385,1.7022774,-0.048457485,9.675662,1.5967538
1409526870797,-0.025139118,9.580399,1.7250223,-0.0512865,9.676646,1.5906825
1409526870798,-0.06943185,9.642049,1.6340426,-0.054697476,9.677604,1.5847313
1409526870803,-0.11911154,9.71986,1.5747862,-0.057750948,9.678809,1.577253
1409526870820,-0.092775315,9.818622,1.5831659,-0.060740814,9.680162,1.568817
1409526870838,-0.019153614,9.916783,1.6089035,-0.06309322,9.681525,1.5602807
1409526870839,0.089782566,9.988609,1.6753427,-0.06464827,9.682858,1.5519216
1409526870885,0.16699557,10.043676,1.7124528,-0.064773425,9.685349,1.5362995
1409526870887,0.22505496,10.065224,1.6687586,-0.064773425,9.685349,1.5362995
1409526870891,0.26515785,10.007763,1.690905,-0.064773425,9.685349,1.5362995
1409526870891,0.26755205,9.951499,1.7770962,-0.06484167,9.685789,1.5335141
1409526870892,0.3489549,9.845556,1.839944,-0.06494108,9.6858835,1.5329236
1409526870909,0.45729253,9.794081,1.8285716,-0.06437789,9.685617,1.5346184
1409526870912,0.54168814,9.759963,1.7782934,-0.06314031,9.685085,1.5380259
1409526870913,0.50757074,9.730036,1.7088615,-0.061848298,9.68446,1.5420158
1409526870953,0.37828386,9.72824,1.5765818,-0.06076602,9.683598,1.5474564
1409526870954,0.25438392,9.716867,1.5101427,-0.060767774,9.682513,1.5542346
1409526870955,0.23163901,9.618107,1.5089456,-0.06177297,9.681158,1.5626024
1409526870956,0.31364042,9.4972,1.6723499,-0.061600022,9.679417,1.5733744
1409526870977,0.29388827,9.512163,1.6956934,-0.059974905,9.677272,1.5865734
1409526870977,0.24839842,9.592369,1.6011224,-0.058580603,9.675141,1.5995569
1409526870983,0.2136825,9.758766,1.4449008,-0.05760522,9.673229,1.6111196
1409526871007,0.23343466,9.849746,1.2557588,-0.05581848,9.671927,1.6189748
1409526871008,0.29029694,9.858724,1.1444284,-0.052487876,9.671379,1.6223613
1409526871011,0.27114335,9.840169,1.0989386,-0.048585862,9.67103,1.6245698
1409526871037,0.18495208,9.809643,1.1252748,-0.046073988,9.670871,1.6255789
1409526871037,0.0796072,9.752182,1.1372458,-0.046339873,9.671422,1.6223018
1409526871056,-0.089184016,9.674969,1.2192472,-0.049147844,9.672489,1.6158395
1409526871057,-0.25498247,9.610924,1.3096284,-0.0545318,9.673406,1.6101685
1409526871063,-0.18435353,9.583989,1.4065934,-0.062219396,9.674022,1.6061882
1409526871072,-0.25498247,9.5385,1.5304934,-0.06903171,9.674413,1.6035423
1409526871086,-0.2148796,9.55047,1.673547,-0.076027885,9.674642,1.6018482
1409526871106,-0.20111294,9.555259,1.7345991,-0.08225429,9.674799,1.6005939
1409526871106,-0.3645172,9.582792,1.6962919,-0.08780078,9.674953,1.5993614
1409526871111,-0.28191724,9.657013,1.6915035,-0.09379951,9.675097,1.5981511
1409526871136,-0.3172317,9.68275,1.6627731,-0.09770645,9.675214,1.5972068
1409526871137,-0.26515785,9.783307,1.6591818,-0.09994046,9.675227,1.5969939
1409526871163,-0.14065935,9.887454,1.590947,-0.100555815,9.675058,1.5979831
1409526871165,-0.027533319,9.946113,1.5903485,-0.099544704,9.674831,1.5994152
1409526871166,-0.0023942017,9.931747,1.6136919,-0.09791377,9.6745,1.601514
1409526871172,0.045489833,9.848549,1.6944963,-0.0958232,9.674016,1.6045707
1409526871208,0.07062895,9.746795,1.8387469,-0.094013005,9.673166,1.6097827
1409526871210,0.092775315,9.722853,1.9728222,-0.09239991,9.67198,1.6169932
1409526871213,0.090381116,9.704298,2.0159178,-0.09144881,9.670667,1.6248716
1409526871215,0.05865794,9.697714,2.0518308,-0.09135906,9.669571,1.6313971
1409526871254,0.04070143,9.685743,2.007538,-0.091974415,9.66842,1.6381658
1409526871255,0.03232172,9.615712,1.9177556,-0.092903875,9.667213,1.645219
1409526871256,0.05207389,9.582792,1.8968062,-0.093732655,9.666126,1.6515491
1409526871258,0.109534726,9.580399,1.9189527,-0.094838455,9.66499,1.6581187
1409526871290,0.27473465,9.622296,1.8782512,-0.09626703,9.663528,1.6665343
1409526871292,0.49799395,9.685144,1.9033904,-0.09613986,9.661864,1.6761602
1409526871293,0.6715736,9.720459,1.9578584,-0.09366956,9.660009,1.686953
1409526871295,0.7637503,9.716867,2.0171149,-0.08934406,9.6580105,1.6986068
1409526871327,0.75237787,9.668385,2.0111294,-0.08427534,9.655887,1.7108908
1409526871328,0.6889315,9.6288805,1.9859903,-0.078096986,9.653565,1.7242281
1409526871329,0.5554548,9.549872,1.9351135,-0.07190412,9.651001,1.7387979
1409526871332,0.093972415,9.370906,1.8249803,-0.06660532,9.648202,1.7544674
1409526871355,-0.22146365,9.296685,1.6567876,-0.065368876,9.645447,1.7696013
1409526871356,-0.46686932,9.247604,1.54845,-0.06745923,9.643289,1.7812455
1409526871365,-0.6631939,9.279327,1.4203602,-0.072227396,9.641968,1.7881956
1409526871392,-0.7206547,9.3499565,1.2802993,-0.078383,9.641803,1.7888259
1409526871393,-0.6751649,9.485827,1.09834,-0.08414054,9.642689,1.7837775
1409526871394,-0.6159084,9.664794,0.98581254,-0.088084124,9.644666,1.7728729
1409526871404,-0.51714754,9.75697,0.9995792,-0.090799555,9.647234,1.7587041
1409526871432,-0.46028528,9.872491,1.0510546,-0.0925118,9.650348,1.7414484
1409526871433,-0.38606504,9.931747,1.1085154,-0.093156315,9.6535635,1.7234879
1409526871435,-0.32561144,9.911396,1.2336124,-0.09271142,9.656813,1.7052187
1409526871463,-0.32800564,9.910199,1.371279,-0.091910556,9.659677,1.6889664
1409526871464,-0.29688102,9.965266,1.4736311,-0.09105609,9.661795,1.676846
1409526871465,-0.26396075,9.999383,1.5191209,-0.08999069,9.663259,1.6684495
1409526871489,-0.16400282,9.981427,1.5119383,-0.088754535,9.664207,1.6630142
1409526871490,-0.089782566,9.911396,1.5873557,-0.08698325,9.664615,1.6607416
1409526871492,-0.04309563,9.828198,1.6741456,-0.08485154,9.664476,1.6616527
1409526871504,0.011971008,9.737218,1.839944,-0.083467096,9.663758,1.6658896
1409526871521,0.01316811,9.700109,2.0991163,-0.082381606,9.662625,1.6725062
1409526871524,-0.011971008,9.77373,2.0428526,-0.08275588,9.661139,1.68105
1409526871532,-0.0676362,9.829993,1.9303252,-0.084408544,9.659974,1.6876501
1409526871558,-0.12928689,9.811439,1.8656816,-0.08793412,9.659173,1.6920522
1409526871559,-0.11492168,9.738416,1.785476,-0.09328045,9.658887,1.6934004
1409526871564,-0.0077811554,9.660006,1.8052281,-0.09986648,9.658927,1.6927928
1409526871592,0.16400282,9.594165,1.8962077,-0.10674743,9.658899,1.6925337
1409526871593,0.37708676,9.509171,1.9782091,-0.11278774,9.658771,1.69287
1409526871595,0.5943606,9.458294,2.0775685,-0.11692692,9.658344,1.6950223
1409526871604,0.7721301,9.390657,2.1625626,-0.119525775,9.657556,1.6993326
1409526871637,0.85054016,9.3733,2.2409728,-0.12061277,9.656582,1.7047843
1409526871638,0.8972271,9.376891,2.3080103,-0.12081815,9.65555,1.710599
1409526871640,0.90859956,9.4457245,2.3038206,-0.120545805,9.654715,1.7153289
1409526871666,0.8535329,9.535507,2.232593,-0.12052527,9.6543255,1.7175164
1409526871666,0.7140707,9.6049385,2.144606,-0.121682405,9.654292,1.7176274
1409526871667,0.53929394,9.634268,2.0207062,-0.12523912,9.654362,1.7169708
1409526871686,0.3812766,9.594764,1.9608512,-0.13127503,9.65434,1.7166512
1409526871687,0.25079262,9.584588,1.9165585,-0.13945837,9.654023,1.7177783
1409526871704,0.17357962,9.590573,1.9297266,-0.14937402,9.653542,1.7196507
1409526871705,0.05267244,9.613917,1.8632874,-0.15985137,9.652973,1.7219007
1409526871712,-0.05267244,9.6767645,1.763928,-0.17106764,9.65267,1.7225311
1409526871736,-0.18016368,9.673173,1.6531962,-0.18304062,9.652653,1.7213855
1409526871738,-0.31184477,9.631873,1.5544355,-0.19618124,9.652921,1.7184345
1409526871757,-0.4225766,9.615712,1.4957775,-0.21013205,9.653336,1.7144521
1409526871758,-0.5327099,9.593566,1.4862007,-0.2244481,9.654059,1.7085524
1409526871764,-0.6362591,9.589975,1.4335283,-0.23911346,9.655037,1.7010236
1409526871799,-0.6278794,9.58818,1.3180081,-0.25326195,9.656152,1.6926274
1409526871804,-0.57400984,9.573814,1.2886791,-0.265099,9.65747,1.6832656
1409526871805,-0.4854244,9.578603,1.3497312,-0.2740856,9.658819,1.674065
1409526871830,-0.3705027,9.611523,1.4568717,-0.28064242,9.660027,1.6659824
1409526871832,-0.25019407,9.673772,1.6053122,-0.28495592,9.661187,1.6585138
1409526871834,-0.13946225,9.73662,1.6819267,-0.2873604,9.662418,1.6509067
1409526871835,-0.08020575,9.777321,1.7423803,-0.28817073,9.663618,1.6437265
1409526871859,-0.0700304,9.749189,1.7878702,-0.28864738,9.664757,1.6369337
1409526871860,-0.09995792,9.704897,1.7322049,-0.28884885,9.665853,1.6304122
1409526871864,-0.11731588,9.667787,1.6927006,-0.28913885,9.666876,1.6242884
1409526871882,-0.18435353,9.584588,1.6274586,-0.28896904,9.667921,1.6180825
1409526871887,-0.17776948,9.566631,1.4754268,-0.2888899,9.668879,1.6123635
1409526871909,-0.13826515,9.408614,1.388637,-0.28876278,9.669782,1.6069595
1409526871909,-0.1436521,9.290101,1.4550761,-0.28883606,9.670671,1.601588
1409526871912,-0.18016368,9.176376,1.553837,-0.28930873,9.671323,1.5975572
1409526871935,-0.19871874,9.127894,1.5490485,-0.29015076,9.671722,1.594993
1409526871936,-0.092176765,9.171588,1.6035166,-0.29087973,9.672119,1.5924453
1409526871954,-0.0688333,9.316438,1.661576,-0.29019654,9.6725,1.5902585
1409526871955,-0.08499416,9.53012,1.6561891,-0.28888452,9.672816,1.5885736
1409526871964,-0.036511578,9.733627,1.6663644,-0.2873341,9.673268,1.5861056
1409526871985,-0.061650693,9.935937,1.6011224,-0.28511348,9.674402,1.5795692
1409526871986,0.047285482,10.036493,1.496376,-0.28242442,9.6764345,1.5675615
1409526872002,0.08798691,9.987412,1.3982137,-0.27826062,9.679092,1.5518191
1409526872017,0.13826515,9.856929,1.240795,-0.273657,9.682087,1.533847
1409526872018,0.14604631,9.640852,1.1552023,-0.2683345,9.685379,1.5138744
1409526872031,0.19752164,9.4295635,1.0564415,-0.26207477,9.688624,1.4940699
1409526872032,0.3309984,9.332599,1.0360907,-0.25529557,9.691591,1.4759043
1409526872048,0.3824737,9.342773,1.039682,-0.24860096,9.694414,1.458389
1409526872054,0.3537433,9.395446,1.0414777,-0.24244389,9.697401,1.4394562
1409526872071,0.24301147,9.5013895,1.1049241,-0.23779261,9.700853,1.4167819
1409526872072,0.1604115,9.622296,1.1647792,-0.23436496,9.704833,1.3898492
1409526872086,-0.0688333,9.861118,1.1210849,-0.23149244,9.70914,1.3599252
1409526872101,-0.23463176,9.978435,1.0043676,-0.22950947,9.713778,1.326756
1409526872128,-0.2705448,10.21965,0.9756372,-0.2287415,9.718657,1.2906548
1409526872131,-0.23163901,10.403405,0.801459,-0.2293653,9.723567,1.2530022
1409526872133,-0.17178397,10.58297,0.7428011,-0.23150629,9.728544,1.2133445
1409526872134,-0.05865794,10.7116585,0.6961141,-0.2348093,9.733286,1.1740513
1409526872156,0.03232172,10.822391,0.63206923,-0.23794091,9.73759,1.1371526
1409526872158,0.06464344,10.765528,0.6135142,-0.24078192,9.741629,1.101401
1409526872165,0.18255788,10.689512,0.6841431,-0.24441385,9.745137,1.0690992
1409526872188,0.28790274,10.550649,0.7787141,-0.24726853,9.7479925,1.042057
1409526872190,0.48722005,10.410587,0.9139865,-0.25082222,9.750116,1.0211363
1409526872193,0.7344214,10.304645,0.9828198,-0.25330356,9.751562,1.0066074
1409526872226,0.97862995,10.306439,1.0690111,-0.25477955,9.75242,0.997884
1409526872227,1.163582,10.307637,1.1605892,-0.2526507,9.752929,0.9934361
1409526872229,1.258153,10.284892,1.2204443,-0.25067714,9.75297,0.99353385
1409526872233,1.2575544,10.220847,1.258153,-0.24828684,9.75255,0.9982449
1409526872258,1.1336545,10.095152,1.3239936,-0.24931209,9.751623,1.0070121
1409526872259,0.931943,9.998785,1.3934253,-0.2542113,9.749962,1.0217777
1409526872267,0.7368156,9.884461,1.3395559,-0.26318255,9.74778,1.040162
1409526872307,0.56323594,9.646238,1.2330139,-0.27643886,9.744882,1.0636101
1409526872309,0.56203884,9.47206,1.1558008,-0.29576042,9.741333,1.0905789
1409526872311,0.5907693,9.32362,1.0989386,-0.31748223,9.73725,1.120503
1409526872313,0.5883751,9.263765,1.1192893,-0.3432546,9.73279,1.1512487
1409526872314,0.56682724,9.230247,1.163582,-0.3712755,9.72809,1.181866
1409526872340,0.5279215,9.244013,1.1420342,-0.40030006,9.723219,1.2120926
1409526872342,0.5153519,9.309854,1.1701661,-0.43031102,9.718181,1.241846
1409526872345,0.45310268,9.374496,1.2395979,-0.45997998,9.712945,1.2718077
1409526872374,0.3250129,9.5013895,1.1228806,-0.49012572,9.70733,1.3030593
1409526872375,0.26874915,9.539697,1.062427,-0.5201425,9.701571,1.3339217
1409526872377,0.3489549,9.428965,1.2916719,-0.54968286,9.695393,1.3666025
1409526872385,0.533907,9.36911,1.4915876,-0.57690907,9.688239,1.4055566
1409526872410,0.6889315,9.27394,1.6118963,-0.60015607,9.680109,1.4510952
1409526872411,0.7092823,9.290101,1.6992847,-0.6241817,9.671256,1.4991964
1409526872413,0.8158242,9.226056,1.7986441,-0.64753056,9.66198,1.5483143
1409526872431,0.86490536,9.425972,1.7393875,-0.67329514,9.652076,1.59828
1409526872433,0.9624691,9.718064,1.7866731,-0.7008843,9.642311,1.644688
1409526872451,1.0779893,10.131663,1.7262194,-0.72928435,9.633176,1.6853634
1409526872453,1.2797008,10.529699,1.6567876,-0.7581617,9.624672,1.720837
1409526872464,1.2785037,10.814011,1.7818847,-0.78659666,9.616673,1.752501
1409526872507,1.146224,10.678739,1.7699136,-0.8150467,9.608482,1.7841438
1409526872509,1.0384849,10.454881,1.6950948,-0.84590715,9.599632,1.8171215
1409526872511,1.1001357,10.327389,1.6897079,-0.8781483,9.589956,1.8525661
1409526872514,1.2856863,10.465654,1.6484078,-0.90938216,9.579693,1.8902131
1409526872516,1.4227544,10.597335,1.4155718,-0.9382006,9.56947,1.9275342
1409526872544,1.7723078,10.465654,1.049259,-0.96457404,9.56056,1.9584912
1409526872546,2.3008277,10.208876,0.79487497,-0.984852,9.554108,1.9797659
1409526872547,2.718616,9.8677025,0.96067345,-0.9931778,9.550529,1.9928318
1409526872571,2.9239187,9.585187,1.3132197,-0.98997295,9.548391,2.0046391
1409526872573,3.152565,9.326612,1.894412,-0.98021924,9.546448,2.0186381
1409526872574,3.1423898,8.957307,2.8407204,-0.9616145,9.5444975,2.0367327
1409526872602,2.7072437,8.508394,3.5595794,-0.9371558,9.541442,2.0622878
1409526872604,1.8842367,8.037335,3.5936968,-0.9032712,9.538346,2.091519
1409526872605,0.9175778,7.767389,3.3632548,-0.8609654,9.536017,2.1197922
1409526872613,0.43993455,7.49445,3.306991,-0.8086099,9.535205,2.1439254
1409526872637,0.20171149,7.043741,2.9897594,-0.7421793,9.537066,2.1596115
1409526872638,-0.12389994,6.399701,2.0231004,-0.6624355,9.543308,2.1579719
1409526872644,-0.5530606,5.7257333,1.4191631,-0.57244486,9.555659,2.1288662
1409526872679,-2.0296845,6.194997,0.8265981,-0.4712608,9.572961,2.0752623
1409526872680,-2.5073278,8.087015,1.0887632,-0.36260933,9.593626,2.0003078
1409526872682,-2.5300727,11.861474,1.678934,-0.24619149,9.615669,1.9101521
1409526872707,-2.3750482,16.46253,1.8866309,-0.13198744,9.636424,1.8144765
1409526872708,-1.258153,19.106329,1.2372037,-0.014511651,9.6554575,1.715322
1409526872709,0.073621705,18.996195,-0.22445641,0.120487794,9.67074,1.6225498
1409526872713,-0.6548142,17.802086,-1.0313023,0.27599987,9.681855,1.5348914
1409526872733,-2.256535,16.57087,-0.18674773,0.41370004,9.689056,1.4565135
1409526872734,-3.3135753,15.58745,1.8142064,0.51367426,9.691663,1.406495
1409526872752,-3.822343,15.262437,3.8672342,0.5783585,9.688211,1.4051442
1409526872769,-4.172495,13.578116,4.684854,0.62569314,9.67774,1.4561043
1409526872769,-3.6661212,11.300632,4.5579615,0.6716414,9.66294,1.531946
1409526872773,-2.9251158,9.536704,4.1060557,0.7283355,9.648045,1.5984905
1409526872798,-2.135628,8.726267,3.5853171,0.79920626,9.635123,1.6419601
1409526872798,-1.4413095,8.350377,3.1555579,0.8805559,9.62264,1.673265
1409526872818,-0.11611878,9.3260145,3.288436,0.9772384,9.609916,1.692612
1409526872819,1.2234371,10.682928,3.7367504,1.0903817,9.593898,1.7142361
1409526872824,2.0626047,10.496181,3.6822822,1.2174935,9.572718,1.7467585
1409526872833,2.5504234,10.305243,3.040636,1.3459935,9.548462,1.7848127
1409526872849,2.5983074,8.820838,1.4257472,1.4604409,9.525869,1.8153058
1409526872869,2.4396915,8.236652,1.0408791,1.5571327,9.507531,1.831011
1409526872870,2.1918917,7.697957,1.0103531,1.6360245,9.491667,1.8444736
1409526872873,2.03148,7.314286,1.0301052,1.7019165,9.476595,1.8622657
1409526872899,1.8950106,6.6109896,1.1360487,1.7605444,9.460867,1.887556
1409526872899,1.7950528,5.9519854,1.3239936,1.816795,9.442925,1.9237483
1409526872914,1.7441759,5.3983264,1.5023615,1.8725865,9.423094,1.9670064
1409526872915,1.6041151,5.1529207,1.6723499,1.9286276,9.399973,2.0227
1409526872929,1.4466964,5.092467,1.8064252,1.985019,9.374231,2.0865977
1409526872933,1.270124,5.0882773,1.8118122,2.0414517,9.347063,2.1529768
1409526872948,1.0660183,5.203199,1.8489223,2.095762,9.320762,2.21395
1409526872967,0.91338795,5.3127337,1.8698715,2.145205,9.297737,2.2628708
1409526872967,0.9900024,5.345654,1.7657237,2.1878655,9.279855,2.2951963
1409526872973,1.2246342,5.2474914,1.5975311,2.2228646,9.268369,2.3079467
1409526873011,1.6484078,5.1702785,1.4850036,2.2478657,9.264016,2.3011935
1409526873013,2.0931308,5.246893,1.4065934,2.26157,9.266367,2.278188
1409526873014,2.4121583,5.3516393,1.2725182,2.2701588,9.271415,2.2489204
1409526873016,2.5881321,5.631162,1.4317327,2.26359,9.281792,2.2124426
1409526873041,2.8048072,6.157288,1.678934,2.2386165,9.296638,2.1752012
1409526873048,3.750517,8.2995,2.3756466,2.1952991,9.315213,2.1395938
1409526873054,4.019266,9.752182,2.9125464,2.1407402,9.335549,2.1059837
1409526873073,3.5954924,10.770316,4.0078936,2.0736487,9.357541,2.075287
1409526873074,2.510919,10.460267,5.2008047,1.9932784,9.378764,2.0581563
1409526873075,1.0600328,9.800665,5.513248,1.903779,9.3966675,2.0612302
1409526873106,-0.0724246,12.474988,4.7668557,1.815881,9.412265,2.0693622
1409526873107,-0.5482722,14.498687,3.2034419,1.7301686,9.430499,2.0597594
1409526873109,0.019153614,13.96059,1.5532384,1.6583594,9.450222,2.0281901
1409526873113,2.7850552,14.220361,0.44651863,1.6141819,9.465794,1.9908683
1409526873134,5.626374,14.016854,0.62608373,1.656327,9.464126,1.9639988
1409526873135,7.5950065,11.413758,2.1051018,1.7769858,9.443105,1.9597222
1409526873145,8.7538,9.954493,5.0787005,1.9414755,9.404696,1.9881506
1409526873174,9.152434,11.319786,7.939771,2.13231,9.351138,2.0444684
1409526873176,8.474875,14.696807,8.157643,2.3408785,9.286256,2.1109548
1409526873177,6.7013707,17.570448,6.3548098,2.532106,9.227726,2.146602
1409526873205,3.5087025,15.329475,4.8787847,2.6732547,9.188513,2.1436737
1409526873206,1.2318168,13.36204,3.1573534,2.7576025,9.158097,2.1668584
1409526873207,0.504578,12.566566,1.0151415,2.799373,9.128082,2.2387514
1409526873214,0.11492168,10.823587,0.9223662,2.8130846,9.102995,2.3221684
1409526873234,-0.46267948,8.294113,1.650802,2.8128614,9.078686,2.41571
1409526873235,-1.0881647,7.6608467,1.3928268,2.7906556,9.063382,2.4975505
1409526873245,-1.5496471,7.3729444,2.5731683,2.7428567,9.064489,2.5460093
1409526873274,-2.03148,7.5165963,3.4153287,2.6731431,9.076131,2.5784771
1409526873275,-2.1254525,7.952341,3.0490158,2.5910027,9.09094,2.6099603
1409526873276,-1.8608932,8.306085,2.2254105,2.516007,9.105123,2.6337917
1409526873309,-1.5310919,8.387487,1.163582,2.4570732,9.119642,2.6391854
1409526873310,-1.049259,8.957307,0.3597288,2.4074905,9.13961,2.6157036
1409526873310,-0.15861586,10.427945,-0.021547815,2.3519638,9.170559,2.5572436
1409526873313,0.47345337,11.822568,-0.08619126,2.2810245,9.211621,2.4725149
1409526873333,0.46686932,12.061988,-0.22744916,2.1992373,9.254901,2.383394
1409526873334,0.036511578,11.206659,-0.089782566,2.0977643,9.296834,2.3105505
1409526873347,-0.4345476,10.113707,0.4818331,1.9792817,9.331316,2.2758274
1409526873369,-0.5267244,9.36911,1.0552444,1.854793,9.357155,2.2745981
1409526873370,-0.38367084,9.170391,1.7016789,1.7361434,9.378898,2.2786987
1409526873374,-0.19991584,9.519346,2.3600843,1.6247933,9.4018545,2.2661805
1409526873409,0.0017956513,9.91798,2.4301147,1.5186949,9.426635,2.2366245
1409526873410,0.26156655,9.676167,2.1266496,1.4193496,9.45176,2.1954634
1409526873412,0.43394905,8.996812,1.5478514,1.3307952,9.474363,2.1530962
1409526873414,-0.25079262,8.400655,1.328782,1.2525839,9.492235,2.1210654
1409526873441,-0.5823896,8.3390045,1.3204023,1.180799,9.503796,2.1104474
1409526873443,-0.7727286,8.328231,0.95947635,1.1145592,9.51183,2.1102653
1409526873446,-1.1246762,8.316259,0.7835025,1.0574249,9.515289,2.1240313
1409526873467,-1.4221559,8.333617,0.79607207,1.0047783,9.517557,2.139379
1409526873468,-1.4329298,8.302493,0.7104794,0.94909596,9.52109,2.1490638
1409526873474,-1.3245921,8.273763,0.54647654,0.8851856,9.527955,2.1459024
1409526873497,-0.89662856,8.371326,0.59615624,0.8119242,9.5395975,2.1230302
1409526873497,-0.47405192,8.304887,0.7116765,0.73141634,9.555382,2.0808928
1409526873514,0.14664486,8.350377,1.0947487,0.64410734,9.573082,2.0277166
1409526873516,0.985214,8.678383,1.6723499,0.5558059,9.589614,1.9750371
1409526873532,1.4646529,8.996812,2.0931308,0.47787654,9.601627,1.9366978
1409526873534,1.7663223,8.963293,2.134431,0.41350594,9.609546,1.9120808
1409526873545,1.785476,8.845378,2.0536265,0.35675666,9.610326,1.9195707
1409526873569,1.5394717,8.64666,2.0021513,0.30345047,9.603582,1.962016
1409526873570,1.3569138,8.817844,1.8668787,0.24596636,9.589819,2.0359895
1409526873575,1.4311341,9.0716305,1.6765398,0.18162806,9.571141,2.1285295
1409526873599,1.6980876,9.320028,1.5340848,0.1139243,9.55111,2.2211926
1409526873600,2.1320367,9.391854,1.4161704,0.04516078,9.533308,2.298785
1409526873606,2.8700492,10.13286,2.010531,-0.022624578,9.519584,2.3552969
1409526873614,2.815581,10.539276,2.532467,-0.08145857,9.50847,2.3984926
1409526873637,2.4301147,10.4967785,3.016694,-0.13405001,9.497081,2.4408772
1409526873638,2.019509,10.095152,3.7128084,-0.18284278,9.481684,2.496923
1409526873650,1.4688427,9.218275,3.9163153,-0.23192537,9.461912,2.5668688
1409526873684,0.83856916,8.4826565,3.5661635,-0.29024285,9.436137,2.6543262
1409526873686,0.4441244,8.082825,3.3680432,-0.36126843,9.408066,2.7437537
1409526873701,0.84814596,8.059482,2.6264393,-0.43714386,9.38254,2.8190882
1409526873702,1.6950948,8.392874,1.6699557,-0.5024581,9.364554,2.867587
1409526873704,2.5953147,8.866327,1.6705543,-0.54839927,9.355558,2.8884516
1409526873727,3.205836,9.522339,2.321777,-0.5713936,9.353091,2.891988
1409526873728,3.105878,10.1143055,2.6342204,-0.5755159,9.353249,2.8906646
1409526873730,2.5689783,10.68652,2.4983494,-0.5712543,9.353429,2.8909225
1409526873760,1.7459716,10.984597,2.4319103,-0.5647125,9.35286,2.8940463
1409526873761,1.1953052,11.0139265,2.6874914,-0.55869573,9.352016,2.8979385
1409526873762,0.94570965,10.861895,3.1256304,-0.5531132,9.35127,2.901413
1409526873778,0.7290344,10.266935,2.9951463,-0.5339633,9.353417,2.8980792
1409526873779,0.5279215,9.799467,2.4169466,-0.49948457,9.360297,2.8819678
1409526873795,0.7374141,9.200318,2.56419,-0.45034507,9.371773,2.8526218
1409526873796,0.061650693,7.921815,2.40318,-0.38776,9.385182,2.8175159
1409526873810,-1.3982137,7.241862,1.0887632,-0.32703662,9.401924,2.7689836
1409526873814,-2.9311013,6.4386067,0.6745663,-0.27195665,9.4267235,2.6894853
1409526873827,-3.900753,6.0327897,0.41120413,-0.2181751,9.456935,2.5863426
1409526873843,-4.2730513,6.615179,0.23283611,-0.15934655,9.489599,2.468299
1409526873846,-4.256292,8.528745,0.37469256,-0.08892321,9.524282,2.3346355
1409526873860,-4.0162735,12.297218,0.9498995,-0.0037981502,9.558989,2.1899989
1409526873876,-3.739743,17.30529,1.7046716,0.08497951,9.592874,2.0346863
1409526873877,-3.0017304,19.608511,1.6172832,0.1807494,9.620785,1.8916173
1409526873892,-1.8848352,19.608511,1.5825673,0.29738733,9.639113,1.7802912
1409526873894,-2.007538,19.482218,2.2511482,0.4359868,9.64673,1.7090578
1409526873909,-2.1859062,15.282189,2.9101522,0.55637974,9.644968,1.6838685
1409526873926,-1.4389153,11.439496,4.4286747,0.6520791,9.63235,1.7213439
1409526873926,-0.83737206,10.946889,6.303933,0.7291823,9.607144,1.8279634
1409526873942,-1.6938977,12.046426,7.141305,0.7988293,9.572656,1.9739666
1409526873946,-2.1829133,10.712257,5.679645,0.8616452,9.541642,2.0940454
1409526873959,-1.6065093,8.7771435,3.7511156,0.9302977,9.528014,2.1264722
1409526873975,-0.90740246,7.9822683,2.7222073,1.0116476,9.523567,2.109178
1409526873976,0.37948096,9.073426,3.256713,1.1191076,9.52586,2.043527
1409526873990,1.7645266,8.940548,3.2866404,1.2479872,9.522836,1.9820501
1409526873994,2.2307975,9.420585,2.742558,1.3927567,9.51041,1.9449203
1409526874015,2.3840263,9.263765,1.6932992,1.5316471,9.492804,1.9264325
1409526874016,2.2882583,7.65127,1.0247183,1.6540631,9.475455,1.9105533
1409526874026,2.332551,6.7612257,1.1055226,1.7532963,9.460035,1.8984451
1409526874051,2.1021092,6.132149,1.3706805,1.8303005,9.444857,1.9013379
1409526874054,1.963844,5.2780175,1.4036007,1.8948166,9.426653,1.9282907
1409526874055,1.738789,4.7255554,1.2970588,1.9566212,9.403623,1.9783585
1409526874077,1.496376,4.5238442,1.2515689,2.017291,9.37675,2.0438852
1409526874078,1.4706384,4.3622355,1.1504139,2.076446,9.347743,2.1162317
1409526874092,1.5436616,4.4801497,1.1468226,2.135277,9.316225,2.1952069
1409526874094,1.483208,4.6202106,1.2384008,2.189562,9.284307,2.2754953
1409526874108,1.2725182,4.742315,1.471237,2.2383075,9.2537985,2.3510838
1409526874125,1.1007342,4.9416323,1.7154455,2.280985,9.226822,2.4152162
1409526874126,1.1605892,5.1571107,1.7944542,2.3172717,9.205787,2.460517
1409526874143,1.4401124,5.5401826,1.834557,2.3474314,9.192025,2.4832711
1409526874146,1.7040731,6.010045,1.9937714,2.3694425,9.186045,2.4844937
1409526874159,1.887828,6.3601966,2.4025815,2.37932,9.187248,2.4705637
1409526874175,2.0027497,6.737882,2.7934349,2.3724704,9.194828,2.4488604
1409526874176,2.7814639,8.039131,3.526659,2.345175,9.208203,2.424782
1409526874192,3.390788,9.233837,3.9073372,2.3111591,9.223551,2.398967
1409526874194,3.7954082,10.492589,4.494515,2.2581716,9.24313,2.3739386
1409526874209,3.8307228,10.980408,4.941034,2.1905394,9.264391,2.3543606
1409526874224,3.9031472,10.221446,4.671686,2.1159737,9.285464,2.3394878
1409526874226,3.3602622,10.029909,4.6920366,2.0485437,9.305401,2.3202138
1409526874246,1.963844,14.122797,5.1744685,1.9902848,9.324689,2.2933247
1409526874269,0.9403227,15.376162,4.0773253,1.9262697,9.345667,2.2623804
1409526874270,1.6639702,14.670471,2.1146786,1.8669723,9.364565,2.2337716
1409526874271,4.3197384,13.623607,0.9307459,1.8587446,9.369237,2.2210085
1409526874274,7.018004,12.658743,0.97623575,1.9306773,9.353214,2.2271628
1409526874292,8.1480665,9.31105,1.0911574,2.050793,9.322712,2.2475905
1409526874294,8.139089,6.8893156,4.06296,2.2037137,9.276184,2.2948737
1409526874309,7.426215,7.3885064,8.76996,2.365507,9.220382,2.357826
1409526874324,5.6736593,11.864467,10.7673235,2.530625,9.159242,2.4237628
1409526874326,4.748899,16.935984,5.463568,2.660651,9.111135,2.4654691
1409526874340,2.722806,16.005836,3.7140055,2.741093,9.102075,2.4101942
1409526874365,-0.6099229,12.902951,4.598663,2.768142,9.103169,2.374889
1409526874366,-1.8842367,11.580155,2.0153193,2.745558,9.09978,2.413778
1409526874367,-2.3008277,12.530055,2.224812,2.6993847,9.101972,2.4571989
1409526874375,-2.6916811,12.848483,0.7918822,2.6125693,9.116168,2.498065
1409526874396,-3.093907,11.671733,-0.91578215,2.493208,9.146913,2.507646
1409526874397,-3.4404678,10.078392,-1.0630256,2.3731818,9.183673,2.4896877
1409526874406,-3.2974143,9.624691,-0.5129577,2.2529259,9.222845,2.4563873
1409526874424,-2.742558,9.415198,-0.013766659,2.1424606,9.25423,2.437104
1409526874428,-2.0530279,9.217078,0.7649474,2.052003,9.272507,2.4454656
1409526874441,-1.0833763,8.428787,1.4790181,1.9840827,9.2815895,2.4669573
1409526874464,-0.053869538,7.626131,1.8950106,1.9348909,9.287956,2.4820304
1409526874465,0.6937199,7.590218,2.3259668,1.8885064,9.296702,2.4850066
1409526874467,1.1815386,8.22109,2.6683378,1.8316354,9.308119,2.484838
1409526874475,1.3844471,9.087193,2.5845408,1.7627635,9.319037,2.493712
1409526874497,1.2318168,9.547478,2.1458032,1.6839746,9.330096,2.506781
1409526874498,0.7541735,9.713875,1.7052702,1.5965307,9.343837,2.5128083
1409526874506,0.12629414,9.97604,1.3281834,1.5031245,9.36514,2.4910164
1409526874523,-0.39923313,10.408792,1.0013748,1.405097,9.396233,2.4304168
1409526874526,-0.88525605,10.598533,0.700304,1.3040146,9.433685,2.3399825
1409526874540,-1.1833342,10.378265,0.5057751,1.2029727,9.471244,2.2402654
1409526874564,-1.2384008,9.883863,0.40521863,1.109372,9.50273,2.1535554
1409526874566,-1.2515689,9.481039,0.74998367,1.030062,9.525451,2.0916822
1409526874567,-1.2964603,9.528923,0.9564836,0.96656495,9.53888,2.0605655
1409526874575,-0.9403227,9.415198,1.1617863,0.9139152,9.544629,2.057965
1409526874594,-0.664391,8.86932,1.1803415,0.8687031,9.543434,2.0829332
1409526874596,-0.42796355,8.400655,1.1097125,0.82259023,9.53681,2.1314363
1409526874610,-0.2885013,8.180388,1.1641805,0.77435714,9.528173,2.1873922
1409526874622,-0.219668,8.126519,1.417966,0.7138465,9.519562,2.2447183
1409526874627,0.029927522,8.136096,1.5634137,0.63885546,9.515381,2.2846844
1409526874641,0.54647654,8.693945,1.4568717,0.5518707,9.518101,2.2960005
1409526874656,1.1073183,8.869919,1.2563573,0.45871872,9.5261545,2.283055
1409526874657,1.6095021,9.002198,1.3467385,0.3665943,9.534641,2.264199
1409526874673,2.0057425,8.965687,1.7154455,0.2805529,9.53919,2.2573261
1409526874674,1.9369092,8.327033,2.005144,0.2024975,9.536306,2.277774
1409526874689,1.6328455,7.7063365,2.2068555,0.1265718,9.523989,2.334101
1409526874694,1.4694413,7.505822,2.2828712,0.047888435,9.503124,2.4204788
1409526874711,1.4514848,7.37055,2.291251,-0.031476323,9.477245,2.5201633
1409526874726,1.4921862,7.2670007,2.030283,-0.11241279,9.449544,2.6199033
1409526874727,1.8489223,7.253833,1.7244238,-0.1924228,9.423487,2.707634
1409526874744,2.2649148,7.409456,1.6597804,-0.2683772,9.401467,2.7768288
1409526874759,2.5234885,8.303091,2.396596,-0.33258215,9.383252,2.830965
1409526874760,2.4881742,8.729858,2.7694929,-0.37809828,9.3662195,2.8812122
1409526874773,2.3750482,9.012374,3.2662897,-0.40805247,9.348621,2.933795
1409526874775,2.1625626,9.054273,3.6379895,-0.42952535,9.328572,2.9939346
1409526874792,1.6944963,8.855554,3.288436,-0.45233133,9.306318,3.0591226
1409526874795,1.5753847,8.919,3.0184898,-0.48471832,9.284946,3.1185236
1409526874811,1.8962077,9.250597,2.533664,-0.52172935,9.267634,3.1637244
1409526874828,2.6701334,9.576208,2.1212628,-0.55456316,9.254096,3.197586
1409526874829,3.4129345,9.947908,2.5689783,-0.5782485,9.246378,3.2156646
1409526874835,3.4314895,10.396222,3.152565,-0.58957314,9.242079,3.225954
1409526874856,3.0819361,10.753557,3.3650506,-0.5955154,9.240043,3.2306914
1409526874857,2.6138697,10.87207,3.376423,-0.60220516,9.238675,3.2333624
1409526874870,2.1775265,10.788872,3.169923,-0.61000675,9.236079,3.2393107
1409526874875,1.7890673,10.553042,3.156755,-0.6162771,9.233848,3.2444792
1409526874890,1.567005,10.057443,3.650559,-0.61748827,9.2354965,3.239554
1409526874911,1.1617863,9.399037,3.6343982,-0.60949785,9.24225,3.2217567
1409526874912,0.24720132,9.162011,2.6898856,-0.59098023,9.25489,3.1887527
1409526874928,-0.14963761,8.819042,2.532467,-0.56396705,9.274183,3.1371732
1409526874929,-0.16160862,8.065467,2.4432828,-0.5352054,9.295023,3.080017
1409526874936,-1.7112557,6.9485717,1.1869255,-0.49160907,9.319987,3.0110724
1409526874961,-2.7509377,6.007651,0.4842273,-0.4443964,9.352946,2.9146717
1409526874963,-3.0813377,5.397728,0.021547815,-0.38532826,9.392552,2.7931805
1409526874969,-3.0400376,5.707178,-0.11911154,-0.30665112,9.434225,2.6592753
1409526874976,-2.8538885,7.3777328,0.30107087,-0.20543574,9.476282,2.5156052
1409526874991,-2.6874914,10.710462,1.5993267,-0.08462182,9.516995,2.36432
1409526875012,-2.4396915,16.08724,2.9317,0.050429445,9.551178,2.2232478
1409526875013,-1.6334441,19.598337,2.3391352,0.19220226,9.574608,2.1119528
1409526875016,-0.5243302,19.608511,1.401805,0.3520335,9.590828,2.015565
1409526875027,-0.96426475,19.608511,1.5682021,0.5305582,9.600902,1.9265453
1409526875043,-1.9901801,18.166603,2.3349452,0.6949505,9.606083,1.8467832
1409526875061,-1.9500773,12.300211,3.6643257,0.8085196,9.603877,1.8116978
1409526875062,-1.0360907,10.1143055,5.653309,0.88749033,9.587532,1.8606465
1409526875067,-1.553837,11.436503,6.7588315,0.9447249,9.558323,1.9789734
1409526875075,-2.2140381,11.3964,5.191228,0.9996613,9.526619,2.1010969
1409526875089,-1.4885949,9.901221,3.0358477,1.0708498,9.512125,2.1314707
1409526875111,-0.58897364,8.3312235,1.9273324,1.1743621,9.516898,2.054243
1409526875113,1.0995371,9.228451,2.6527755,1.3073711,9.524201,1.9366835
1409526875116,2.2900538,9.609129,3.4075475,1.4629643,9.519473,1.8465511
1409526875127,3.5140896,9.877279,2.707842,1.6287241,9.501314,1.8007348
1409526875143,3.3153708,9.1590185,1.7136499,1.7884128,9.479112,1.7658994
1409526875160,3.052607,7.792528,1.163582,1.9325216,9.455593,1.739971
1409526875161,2.9173348,6.6762314,1.2467805,2.0450802,9.43488,1.7236769
1409526875167,2.6473885,5.855619,1.42455,2.129325,9.415391,1.7282274
1409526875175,2.3265655,5.1846437,1.4317327,2.1960692,9.393578,1.7630563
1409526875187,1.9919758,5.0020857,1.3670892,2.2548878,9.367465,1.8266051
1409526875208,1.5682021,4.8506527,1.2324153,2.31035,9.337285,1.9099185
1409526875209,1.3443443,4.7548847,1.1162965,2.362347,9.304827,2.0024767
1409526875225,1.1881226,4.7740383,1.1563994,2.4084969,9.272776,2.0940714
1409526875242,0.973243,4.8542438,1.4107834,2.4461722,9.2434025,2.178562
1409526875243,0.9068039,4.984728,1.7417817,2.4742713,9.218074,2.2528837
1409526875258,1.0546459,5.1026425,1.882441,2.4982846,9.195094,2.3193135
1409526875259,1.3138182,5.221754,1.8501194,2.5114136,9.178747,2.3693423
1409526875268,1.6657659,5.4791307,1.8962077,2.513566,9.1705265,2.3987103
1409526875275,2.0638018,5.8143187,2.131438,2.502868,9.170577,2.4096844
1409526875287,2.417545,6.1141925,2.2828712,2.4765255,9.177963,2.4087775
1409526875309,2.7210102,6.432023,2.6324248,2.4315574,9.191857,2.4015987
1409526875311,3.2872388,7.173627,3.6727054,2.3662772,9.211386,2.391961
1409526875332,4.302979,9.6528225,3.9785647,2.2835374,9.233995,2.3851998
1409526875333,3.9264908,10.328587,4.598663,2.1935742,9.258143,2.3760102
1409526875336,3.4314895,9.846154,5.0810947,2.0944932,9.283103,2.3680122
1409526875361,2.8802247,8.832211,4.8799815,1.9993409,9.306812,2.357174
1409526875362,2.1086931,10.635642,4.9224787,1.9116169,9.330317,2.336942
1409526875367,0.29807812,13.888165,4.5238442,1.8307773,9.353478,2.3089159
1409526875385,-0.42916065,14.058752,3.5380316,1.7390314,9.3796625,2.273343
1409526875413,0.94930094,13.691841,0.9355343,1.6576874,9.399151,2.2535338
1409526875416,4.296395,13.937845,-0.7080852,1.6353832,9.405283,2.2442303
1409526875417,6.6744356,12.597691,0.24839842,1.7036519,9.395544,2.2342134
1409526875418,7.4723034,10.065823,3.913921,1.8323071,9.365637,2.2578492
1409526875445,6.783372,10.755353,9.19553,1.9815285,9.315326,2.3385122
1409526875446,5.8143187,16.630125,8.911219,2.135028,9.251028,2.455717
1409526875448,4.1539397,19.606716,5.109825,2.2679718,9.2044525,2.5109267
1409526875456,0.439336,17.913418,4.1718965,2.359385,9.190352,2.4781284
1409526875483,-2.5797524,14.472949,2.815581,2.3972003,9.19371,2.4288895
1409526875485,-3.093907,12.067974,0.3597288,2.3925097,9.198116,2.416806
1409526875488,-2.6916811,10.38066,1.3215994,2.363879,9.195828,2.4534075
1409526875513,-1.8872294,9.794081,2.3373394,2.3132827,9.18248,2.5497367
1409526875514,-1.9662381,8.499416,1.1354501,2.245443,9.168375,2.6588101
1409526875516,-2.1619642,7.809886,1.2216414,2.1679785,9.167198,2.7263067
1409526875542,-2.0248961,7.727286,1.0534488,2.0860336,9.177184,2.756472
1409526875543,-1.8531121,8.252214,0.8996213,2.012061,9.188446,2.7738893
1409526875562,-1.1540052,9.475053,1.2000936,1.9516724,9.198286,2.7844045
1409526875563,-0.0712275,10.566211,1.3006501,1.8969165,9.213847,2.770764
1409526875567,0.94331545,10.33936,1.3060371,1.8445551,9.234508,2.737129
1409526875576,1.2036849,9.841965,1.3928268,1.789864,9.264337,2.6718647
1409526875588,1.0905589,10.0269165,1.5879543,1.7199162,9.297363,2.6021795
1409526875608,0.7469909,9.997588,1.5556326,1.6301637,9.326998,2.5534394
1409526875609,0.42197806,9.405023,1.4173675,1.5271164,9.350465,2.5312274
1409526875628,0.12629414,8.652645,1.6573862,1.4179662,9.36995,2.5226564
1409526875630,-0.24660277,8.368334,1.9015948,1.304882,9.389293,2.5117412
1409526875636,-0.6302736,8.576629,1.6950948,1.1875021,9.411797,2.4856224
1409526875658,-0.82899237,8.862138,1.3204023,1.0690457,9.438278,2.4385285
1409526875659,-0.6003461,8.972271,0.9427169,0.95618033,9.466079,2.3768556
1409526875670,-0.59735334,8.546103,0.40162733,0.8571963,9.49123,2.313474
1409526875677,-0.75596917,8.237251,0.3369839,0.7673457,9.513697,2.2519145
1409526875693,-1.2719196,8.901043,1.4053963,0.69033,9.53,2.2074704
1409526875696,-1.3096284,9.13388,1.3581109,0.6238808,9.538477,2.1905758
1409526875708,-1.0702082,9.030929,1.1587936,0.56742764,9.540906,2.1953397
1409526875723,-0.78290397,8.664616,0.99060094,0.51086724,9.538834,2.21812
1409526875743,-0.5895722,8.417415,0.8858546,0.44261524,9.533594,2.2550125
1409526875745,-0.50158525,8.365341,0.89064306,0.35585168,9.528245,2.2926662
1409526875748,-0.046088383,8.398261,1.0684125,0.25222018,9.526715,2.3126779
1409526875757,0.66498953,8.66701,1.3054385,0.14241588,9.530561,2.306188
1409526875785,1.3425486,8.929175,1.4227544,0.0394861,9.538361,2.2778273
1409526875787,1.9925743,9.090185,1.6089035,-0.049437363,9.546287,2.2441852
1409526875789,2.5330653,9.224859,1.9207484,-0.12774657,9.552417,2.2148113
1409526875825,2.77069,9.089587,2.1416135,-0.19304672,9.55262,2.2092066
1409526875828,2.8209682,8.537724,2.304419,-0.25112516,9.544417,2.238628
1409526875831,2.7114334,8.048708,2.3157916,-0.30605927,9.527608,2.3024817
1409526875858,2.4384944,7.6243353,2.190096,-0.35850275,9.504877,2.3872967
1409526875859,2.272696,7.269395,2.0853498,-0.41335526,9.479781,2.4765449
1409526875860,2.295441,7.052121,1.9572599,-0.47290918,9.45533,2.5580204
1409526875861,2.8341362,6.8408327,1.9428947,-0.53656507,9.433508,2.6251547
1409526875877,3.2932243,6.8360443,2.154183,-0.5973623,9.41514,2.6774375
1409526875878,3.0765493,7.61416,3.2357635,-0.64952236,9.399759,2.7190096
1409526875888,2.5905263,7.7967176,3.994127,-0.6940397,9.383812,2.7627456
1409526875914,1.8207904,7.923012,4.324527,-0.7342011,9.366566,2.8104804
1409526875915,0.9008184,8.224083,4.6722846,-0.7733365,9.346563,2.8660238
1409526875917,0.4165911,9.017162,4.1922474,-0.8157339,9.3239,2.9274342
1409526875945,0.45789108,10.068815,2.682703,-0.8607127,9.303533,2.978901
1409526875946,0.95708215,11.043854,1.6621746,-0.90632474,9.291473,3.0029185
1409526875954,1.6089035,11.368268,2.03567,-0.94583434,9.288951,2.9985287
1409526875957,1.7687165,11.608287,2.4199393,-0.97479594,9.292049,2.979596
1409526875985,1.5035586,11.918935,2.5067291,-0.9940312,9.299296,2.9504845
1409526875987,1.049259,12.155362,2.569577,-1.003322,9.309499,2.9149551
1409526875989,0.5153519,12.1811,2.5360582,-1.0036119,9.319649,2.882239
1409526876008,0.45190558,11.902175,2.80361,-1.0028771,9.328781,2.8528023
1409526876009,0.60932434,11.183915,2.9107506,-0.9909724,9.336755,2.830789
1409526876020,0.8702923,10.763732,2.1505916,-0.9631628,9.34615,2.8093064
1409526876037,0.85891986,10.378864,1.5340848,-0.919343,9.360759,2.775141
1409526876038,0.9127894,9.434352,2.995745,-0.8637093,9.379719,2.7286
1409526876052,0.33399114,8.643068,3.3141737,-0.79875135,9.397196,2.6879535
1409526876056,-0.96546185,7.9152308,1.9686323,-0.7321199,9.4165,2.638922
1409526876069,-3.0621839,5.9741316,0.95588505,-0.66582924,9.44203,2.5641987
1409526876087,-3.544017,6.1357403,0.6961141,-0.59667516,9.471279,2.4716835
1409526876088,-3.8684313,7.5561004,0.90021986,-0.51326156,9.503659,2.3637698
1409526876105,-3.8696284,10.654198,1.4383167,-0.41613665,9.536866,2.2461982
1409526876110,-4.0641575,15.330672,1.6687586,-0.317046,9.570855,2.1139042
1409526876131,-3.3859997,19.354128,1.4915876,-0.21526149,9.603266,1.9751842
1409526876132,-2.2038627,19.608511,1.2641385,-0.09818048,9.630161,1.849523
1409526876136,-1.8680758,19.608511,1.5478514,0.04819436,9.646476,1.7645333
1409526876163,-1.7070658,17.861942,1.958457,0.19477406,9.651751,1.7251616
1409526876166,-1.8207904,11.952454,2.2774844,0.31784838,9.645842,1.7398596
1409526876169,-0.78529817,8.678383,4.1401734,0.4067391,9.62818,1.8174399
1409526876208,-0.6548142,8.658031,5.8221,0.47037834,9.600366,1.9447631
1409526876210,-1.3186066,11.668142,6.5828576,0.5268217,9.569905,2.075997
1409526876212,-1.988983,10.445304,4.355053,0.5911695,9.548838,2.1542068
1409526876215,-1.5035586,7.9834657,2.475006,0.66162723,9.541128,2.1678355
1409526876243,-0.55844754,7.777564,2.2499511,0.7546739,9.550654,2.0942385
1409526876245,0.789488,9.5732155,3.1974564,0.8636833,9.561729,1.9994428
1409526876247,1.4640543,9.764751,3.289633,0.9933921,9.561893,1.937457
1409526876250,1.7004818,9.530719,2.8951883,1.1336464,9.551334,1.9123927
1409526876256,1.7082629,7.6105685,0.8702923,1.2668854,9.53572,1.906684
1409526876273,1.9357121,6.503849,1.0348936,1.384042,9.520748,1.9000418
1409526876287,1.9716251,5.6161985,1.4083891,1.4839827,9.504529,1.9058123
1409526876288,2.0189106,5.096657,1.6376339,1.5704192,9.485412,1.9316169
1409526876304,1.7860745,4.601057,1.5981296,1.6516796,9.462157,1.9773532
1409526876326,1.7142484,4.551976,1.4706384,1.729247,9.4359665,2.0353522
1409526876328,1.5861586,4.602853,1.2198458,1.8040149,9.408395,2.0971534
1409526876330,1.5197195,4.7866077,1.0660183,1.8752602,9.380315,2.1595101
1409526876337,1.5562311,5.069722,1.1605892,1.9392931,9.353274,2.219416
1409526876360,1.5406688,5.410896,1.4012065,1.9924767,9.328184,2.2771475
1409526876363,1.3587095,5.671265,1.6310499,2.0343878,9.305419,2.332558
1409526876368,1.1899183,5.831078,1.7501614,2.0647247,9.286318,2.3815136
1409526876388,1.22224,5.961562,1.745373,2.0830808,9.272615,2.4186294
1409526876389,1.3838485,6.0250087,1.6747441,2.0894608,9.265774,2.4392579
1409526876405,1.5658079,6.1507044,2.0248961,2.083938,9.26594,2.4433477
1409526876424,1.7753005,6.3578024,2.6180596,2.0637271,9.272204,2.4367228
1409526876426,2.0021513,6.8761473,3.1399956,2.035716,9.28076,2.427701
1409526876429,2.349909,7.8368206,3.8061821,1.988403,9.294737,2.4134047
1409526876437,2.89459,9.157822,4.18686,1.9237721,9.312902,2.3956919
1409526876463,3.6828809,11.200075,4.6232033,1.8485868,9.333713,2.3738003
1409526876464,3.807978,10.485406,4.1359835,1.7729696,9.354787,2.3483887
1409526876469,3.3734303,9.3499565,3.7606924,1.7035522,9.37607,2.3146555
1409526876493,2.3642743,13.083116,4.9613843,1.6437083,9.397038,2.2725062
1409526876495,1.0947487,15.037981,4.2598834,1.5878022,9.416805,2.230034
1409526876497,1.3988123,14.385561,2.6569653,1.5296636,9.438202,2.1796458
1409526876529,3.366846,13.019669,0.5847838,1.503988,9.451152,2.141062
1409526876530,6.4392056,12.451645,-0.24959552,1.549844,9.448524,2.1198473
1409526876537,7.98586,10.815806,0.9415198,1.6504859,9.434952,2.104275
1409526876538,7.9691005,7.747637,4.4939165,1.7960943,9.404578,2.1209252
1409526876566,7.189189,8.58022,10.404602,1.9474362,9.359909,2.1840315
1409526876568,6.2913637,15.127764,9.952098,2.1045375,9.298791,2.2964756
1409526876569,5.199009,19.549255,4.759673,2.2407012,9.250995,2.359826
1409526876585,1.2797008,17.168821,4.1401734,2.3404393,9.238825,2.3101609
1409526876590,-2.367267,13.713388,3.954024,2.3755372,9.235759,2.2864726
1409526876606,-3.3063924,12.493543,1.1994951,2.3573909,9.229401,2.3305082
1409526876625,-3.426701,11.000758,1.3084313,2.303424,9.224053,2.404465
1409526876627,-3.3105824,10.309433,2.44029,2.2188807,9.215938,2.5126574
1409526876629,-2.9658175,10.229825,1.3090298,2.1112902,9.209989,2.6246822
1409526876637,-2.6354175,8.119336,-0.030526072,2.0058799,9.210227,2.7052836
1409526876666,-2.581548,8.18398,0.7787141,1.9049027,9.221218,2.740599
1409526876668,-2.0566192,8.862736,1.1851299,1.8113126,9.234998,2.7576013
1409526876670,-1.021127,9.076419,1.5179238,1.7362589,9.245084,2.7720404
1409526876693,0.14544775,8.642469,1.8435353,1.6831027,9.253841,2.7756019
1409526876695,0.9792285,8.611943,2.0991163,1.6463053,9.266783,2.7544184
1409526876697,1.2306197,9.256582,2.3588872,1.6125399,9.286564,2.7073693
1409526876734,1.3467385,10.3226,2.5378537,1.5697823,9.310669,2.6490757
1409526876736,1.1976994,10.920552,2.2176294,1.5149645,9.333932,2.59865
1409526876738,0.65541273,10.720636,1.738789,1.4469894,9.354733,2.5623422
1409526876740,0.044292733,10.288484,1.3311762,1.3683951,9.375241,2.5303655
1409526876764,-0.51834464,10.1544075,1.043872,1.2778581,9.397472,2.4949937
1409526876766,-1.1180922,10.176555,0.86011696,1.1772968,9.424925,2.4403188
1409526876771,-1.5975311,9.988011,0.62728083,1.0704935,9.456378,2.366717
1409526876793,-1.7423803,9.45171,0.41599256,0.9651813,9.486862,2.288724
1409526876794,-1.6460136,8.944737,0.31364042,0.87187403,9.511515,2.222904
1409526876797,-1.7531542,8.578424,0.4333505,0.7944619,9.52906,2.1762865
1409526876823,-1.910573,8.686164,0.8631097,0.73117876,9.54015,2.1497195
1409526876824,-1.7830818,9.030331,1.2425907,0.67681515,9.545352,2.1444306
1409526876829,-1.3461399,8.710705,1.0001777,0.6258626,9.545043,2.1612108
1409526876837,-0.93493575,8.321647,0.75836337,0.5736847,9.540317,2.196276
1409526876862,-0.7290344,8.062474,0.75118077,0.5203995,9.533822,2.237369
1409526876864,-0.44532153,7.9966335,1.0534488,0.45466897,9.526923,2.280657
1409526876869,-0.029927522,8.654441,1.3994108,0.37501642,9.523522,2.3091695
1409526876894,0.6159084,9.340978,1.2988545,0.28471005,9.525897,2.3122764
1409526876897,1.536479,9.283517,1.1695676,0.19250233,9.533305,2.2911656
1409526876899,2.2224178,8.866926,1.2611457,0.106215775,9.541623,2.2619803
1409526876934,2.8209682,8.415619,1.5454572,0.02735811,9.545627,2.2473667
1409526876937,3.1531637,8.27077,1.9141643,-0.043519773,9.541395,2.2650073
1409526876940,3.2273839,7.952341,2.055422,-0.106021956,9.527559,2.3205042
1409526876942,3.0190883,7.5267715,2.0787656,-0.16439067,9.505043,2.4078038
1409526876966,2.698864,7.297527,2.15957,-0.22466561,9.476927,2.511529
1409526876968,2.6803088,7.357382,2.1775265,-0.2900332,9.4464855,2.6172857
1409526876969,2.718616,7.40766,2.0751743,-0.35477543,9.417002,2.713783
1409526876990,2.7593174,7.4322004,1.9949685,-0.41902843,9.391709,2.7911663
1409526876991,2.7970262,7.753622,2.1691468,-0.4773803,9.371479,2.8491895
1409526876998,2.5953147,8.313866,2.731784,-0.5230024,9.354435,2.8967938
1409526877025,1.9405005,8.696938,3.70802,-0.55555207,9.337198,2.945928
1409526877027,1.5221137,8.71669,3.383007,-0.5854028,9.315471,3.008273
1409526877029,1.2671312,8.775348,2.8353333,-0.6215499,9.29057,3.0772355
1409526877037,1.4377182,8.945934,1.9321208,-0.66761935,9.265486,3.142523
1409526877055,2.0177135,9.304466,1.4766239,-0.71770024,9.245858,3.1889522
1409526877088,2.5570073,9.87668,2.0925324,-0.7641783,9.23105,3.2208965
1409526877091,2.574964,10.703279,2.8568811,-0.8002596,9.223767,3.2329698
1409526877093,2.3259668,11.197681,3.1399956,-0.8272091,9.222476,3.2298706
1409526877095,2.1134815,11.145607,3.0843303,-0.84776396,9.223975,3.2202415
1409526877113,1.9476831,10.885837,2.6270378,-0.8622015,9.224011,3.216309
1409526877117,1.9428947,10.390237,2.5187001,-0.87110466,9.222507,3.2182195
1409526877118,1.7675194,9.879673,2.9454668,-0.8725262,9.222972,3.2164996
1409526877141,1.4036007,9.457695,3.3303347,-0.86309373,9.229637,3.1998837
1409526877142,0.51235914,9.391854,2.8101943,-0.8405788,9.243672,3.165175
1409526877149,0.047884032,9.518148,2.8095956,-0.80844927,9.263087,3.1164083
1409526877167,0.20470424,9.002198,4.033033,-0.76447266,9.283924,3.0650826
1409526877169,-0.17058687,8.478467,3.3728316,-0.7153435,9.301868,3.022233
1409526877190,-1.2090719,7.591415,1.8525136,-0.6580924,9.324468,2.965065
1409526877191,-2.223615,6.1159883,1.352724,-0.59770703,9.355729,2.8781013
1409526877197,-3.6367924,5.5707088,1.246182,-0.52628016,9.392134,2.7715106
1409526877229,-3.549404,7.7183075,1.4820108,-0.4419058,9.431851,2.648642
1409526877231,-3.2908301,11.639412,2.1057005,-0.33662358,9.474997,2.5062938
1409526877232,-3.1435869,17.07844,3.0478187,-0.21232568,9.517351,2.3548584
1409526877238,-1.7166426,19.608511,2.9041667,-0.07594618,9.552226,2.2180173
1409526877263,0.06943185,19.608511,2.6366146,0.093641594,9.575878,2.1128573
1409526877264,-0.14724341,19.608511,2.8520927,0.2962011,9.587353,2.040915
1409526877269,-0.7272388,18.008587,2.5240872,0.4769237,9.5917225,1.9853977
1409526877290,-0.89603,11.496957,2.7952304,0.6322319,9.58824,1.9586551
1409526877291,0.02813187,9.376292,5.1463366,0.7386102,9.572807,1.9965512
1409526877297,-0.43993455,10.59554,6.8246717,0.8053395,9.543939,2.105957
1409526877332,-1.6298528,12.045827,6.1596823,0.8554901,9.507986,2.244264
1409526877333,-1.7238252,10.523713,3.6290112,0.91036755,9.484585,2.3204033
1409526877335,-1.417966,7.9511437,2.1697452,0.9869015,9.486691,2.2801533
1409526877340,-0.40821138,8.063671,2.665345,1.0837666,9.5001545,2.1778214
1409526877363,0.24720132,8.860941,3.413533,1.1946832,9.5059395,2.0929017
1409526877364,0.58119243,8.614338,3.578733,1.318473,9.497924,2.0546255
1409526877369,0.8194155,8.546103,2.908955,1.4445463,9.480791,2.048968
1409526877388,0.9660604,8.154651,1.697489,1.5652857,9.461926,2.0474937
1409526877389,1.3970166,5.753267,0.85532856,1.670933,9.444965,2.042296
1409526877398,1.6184803,5.5419784,1.2090719,1.7601649,9.428996,2.0411408
1409526877421,1.553837,5.1822495,1.3144168,1.8328971,9.411787,2.0564833
1409526877423,1.5442601,5.0284224,1.2240356,1.8984649,9.390924,2.0920715
1409526877430,1.4209588,4.999093,1.2132617,1.9602082,9.366563,2.143708
1409526877438,1.2940661,5.08708,1.0935516,2.0157177,9.340684,2.2042968
1409526877455,1.2725182,5.2265425,1.0726024,2.063645,9.315499,2.265666
1409526877458,1.3317747,5.180454,1.2060791,2.1030955,9.292622,2.322622
1409526877469,1.38325,5.3181205,1.590947,2.1342003,9.273056,2.3719242
1409526877489,1.620276,5.45459,1.9626468,2.1576922,9.257309,2.4118464
1409526877491,1.8004397,5.589264,2.0871453,2.1799066,9.243406,2.4449573
1409526877498,2.1110873,6.013636,2.1272483,2.1946442,9.234984,2.4635382
1409526877524,2.4498668,6.5122285,2.1751323,2.2023537,9.232935,2.464334
1409526877525,2.6862943,6.83365,2.3822308,2.1992488,9.237911,2.4484093
1409526877530,2.902371,7.1131735,2.429516,2.1803172,9.249837,2.4201474
1409526877538,3.2866404,7.638102,2.6791117,2.1414244,9.268448,2.3833988
1409526877557,3.8540661,8.579621,3.0992942,2.0826073,9.292009,2.343443
1409526877559,4.2580876,9.729437,3.5260606,2.0083458,9.318303,2.3035111
1409526877570,4.1162314,10.651803,4.309563,1.9253802,9.344974,2.266006
1409526877588,2.8616695,9.147048,4.907515,1.8392949,9.368975,2.2382386
1409526877590,2.6521769,8.831013,4.220379,1.752646,9.390542,2.217279
1409526877598,1.7531542,13.470976,4.03004,1.674268,9.410332,2.193828
1409526877622,0.79367787,14.693814,3.4506433,1.598171,9.430784,2.1625342
1409526877624,1.1372458,13.995306,2.1649568,1.5256606,9.448773,2.1362238
1409526877630,3.5075054,14.018649,0.24480712,1.4894127,9.454482,2.1365395
1409526877658,5.9980736,13.614628,-0.4441244,1.5343335,9.445459,2.1446447
1409526877660,7.0610995,9.991004,0.89064306,1.6557088,9.4234705,2.1510918
1409526877661,7.431602,7.7159133,5.1421466,1.8049606,9.386881,2.1906586
1409526877672,6.619369,9.755175,10.539276,1.9655119,9.335155,2.272021
1409526877694,6.1123967,16.08784,9.467272,2.131189,9.270514,2.384542
1409526877699,5.319318,18.386871,4.808754,2.2745273,9.225042,2.4280648
1409526877701,1.5711949,15.510836,5.121197,2.3890042,9.207516,2.384261
1409526877724,-2.4983494,12.7096195,5.1666875,2.4380763,9.199391,2.3658829
1409526877726,-3.37762,12.398374,2.2200236,2.416938,9.192619,2.4134068
1409526877730,-3.6128504,12.798205,2.6862943,2.3556614,9.190246,2.4820607
1409526877749,-3.5523968,13.39077,2.7162218,2.2561922,9.1905775,2.5716283
1409526877752,-3.271078,12.80838,0.13587095,2.1270921,9.198043,2.6536555
1409526877771,-3.1842883,10.64881,-1.1761516,1.9954002,9.218491,2.6848102
1409526877772,-2.7168205,9.48463,-0.3728969,1.8759006,9.239326,2.6993043
1409526877778,-2.1972785,9.611523,0.11611878,1.7744156,9.247839,2.7384849
1409526877804,-1.4059949,9.372103,0.86849666,1.689384,9.249725,2.785488
1409526877805,-0.35673606,8.525752,1.5352819,1.6177342,9.254127,2.813263
1409526877810,0.61650693,7.6213427,2.1051018,1.5568337,9.259869,2.8286939
1409526877818,0.9295488,7.4322004,2.480393,1.498122,9.272335,2.8195436
1409526877839,0.80325466,7.902063,2.493561,1.4318078,9.287431,2.8042736
1409526877841,0.5650316,8.124723,2.1972785,1.3536772,9.301053,2.797922
1409526877852,0.23942018,8.072051,2.0566192,1.2654259,9.313953,2.7963145
1409526877875,-0.27593175,8.238448,1.8902222,1.1688875,9.33001,2.78478
1409526877877,-0.75477207,8.841188,1.4556746,1.0658705,9.3534355,2.7472858
1409526877879,-1.158195,9.053674,0.8714894,0.9564773,9.386273,2.6745877
1409526877907,-1.3120226,9.03452,0.3824737,0.8430167,9.42346,2.5803313
1409526877909,-1.2336124,8.688558,0.05207389,0.73170567,9.456869,2.4905071
1409526877911,-1.4221559,8.384495,-0.17597382,0.6335231,9.484881,2.409575
1409526877919,-1.8177977,8.286931,0.5734113,0.5453328,9.505351,2.3497448
1409526877945,-2.3678656,8.5473,1.2264298,0.46949822,9.518297,2.3134341
1409526877947,-2.35769,8.670602,1.3012487,0.4003508,9.525294,2.297583
1409526877950,-2.0272903,8.561666,0.9900024,0.3350558,9.52758,2.2985535
1409526877964,-1.1001357,8.06008,0.3824737,0.2707449,9.525745,2.3145788
1409526877970,-0.60573304,8.004415,0.7104794,0.2071279,9.520614,2.3420944
1409526877986,0.059855044,8.1720085,1.1318588,0.13647604,9.513569,2.3756616
1409526878004,0.83617496,8.847174,1.2210429,0.058426853,9.507729,2.4020994
1409526878005,1.9614497,9.576208,1.210269,-0.022658883,9.505969,2.4096544
1409526878010,3.067571,10.0987425,1.4263457,-0.097459145,9.509266,2.394736
1409526878018,3.3423057,10.149619,1.7555484,-0.16077003,9.514165,2.371754
1409526878032,3.008913,9.52174,2.094328,-0.2211947,9.518922,2.3476765
1409526878046,2.5737667,8.981848,2.5384524,-0.28457126,9.516743,2.3496835
1409526878051,2.3451207,8.418612,2.8670566,-0.35179102,9.503442,2.394002
1409526878071,2.2517467,7.9744873,2.697667,-0.4236412,9.480462,2.4721956
1409526878073,2.2948422,7.6105685,2.327164,-0.4993513,9.45401,2.5578763
1409526878078,2.5222914,7.41604,2.0769699,-0.5776459,9.429373,2.631279
1409526878101,2.8580782,7.5680714,2.0470424,-0.65450364,9.40837,2.6878593
1409526878104,3.0867245,7.946954,2.1284454,-0.72381794,9.390874,2.7309263
1409526878116,3.3039982,8.316259,2.4265234,-0.779275,9.376644,2.7643554
1409526878118,3.4620156,8.746018,2.6749218,-0.8188601,9.363917,2.7958734
1409526878132,3.4560301,9.205107,3.4284968,-0.8489959,9.351356,2.8287356
1409526878148,2.949058,9.282919,3.8355112,-0.86775756,9.336798,2.8708208
1409526878150,1.3736732,9.303269,4.1742907,-0.8836573,9.319322,2.9222944
1409526878165,1.2252327,9.06744,3.269881,-0.9063841,9.298979,2.9795709
1409526878180,1.6717514,8.962694,2.2176294,-0.925082,9.280403,3.031294
1409526878181,2.3953989,9.020754,2.3235726,-0.9385648,9.265213,3.0733232
1409526878196,2.5600002,9.38168,2.961029,-0.9466775,9.253096,3.1071556
1409526878198,1.9841946,10.213066,3.032855,-0.95238703,9.245008,3.1294045
1409526878213,1.050456,11.316195,2.867655,-0.95940924,9.243834,3.1307275
1409526878218,0.33638534,12.023083,3.0759506,-0.967269,9.249374,3.11189
1409526878230,-0.15981296,11.834539,3.0238767,-0.9697664,9.257092,3.0880737
1409526878245,-0.27712885,11.153389,2.2643163,-0.96882737,9.265846,3.0620055
1409526878250,0.029927522,10.644621,1.5807717,-0.95183736,9.278846,3.027776
1409526878259,0.88166475,10.1226845,2.9215245,-0.9117977,9.297294,2.9831765
1409526878281,1.4526819,9.746795,4.3742065,-0.849034,9.315711,2.9439893
1409526878282,1.1115081,9.930551,3.481768,-0.7722613,9.333814,2.9075642
1409526878310,-0.59615624,9.546281,1.9656396,-0.6928254,9.358141,2.8487875
1409526878311,-2.2535424,8.452729,1.1390414,-0.6196193,9.38772,2.7671618
1409526878313,-3.2674868,7.5411367,0.9792285,-0.5457273,9.418845,2.6754282
1409526878319,-3.8420951,7.4962454,1.0899603,-0.46231627,9.452552,2.570202
1409526878333,-4.0761285,8.758589,1.9207484,-0.36676124,9.489331,2.4471319
1409526878349,-4.2598834,16.218323,2.3002293,-0.26571873,9.523914,2.3226821
1409526878353,-4.1054573,19.406801,1.6328455,-0.1715833,9.558286,2.1863465
1409526878369,-3.5793316,19.608511,1.0319009,-0.070889466,9.588388,2.0562541
1409526878370,-2.907758,19.172169,1.0522517,0.042734213,9.609567,1.9557087
1409526878378,-2.1583729,15.198991,1.6454151,0.15856592,9.619601,1.8996117
1409526878396,-0.9032126,9.718064,2.834735,0.26602292,9.614021,1.915783
1409526878398,0.83138657,8.147469,5.168483,0.36109725,9.59277,2.0046818
1409526878428,0.8475474,9.487623,6.742072,0.44956774,9.558718,2.1445732
1409526878430,-0.31483752,11.787253,6.6486983,0.54716337,9.520181,2.2884839
1409526878432,-0.91817635,9.821015,4.39755,0.6522028,9.492606,2.3739145
1409526878456,-0.4285621,7.6249337,2.9215245,0.766695,9.486405,2.3644664
1409526878457,0.33997664,6.5367694,2.6246436,0.8858095,9.48751,2.317948
1409526878458,1.4736311,7.675212,3.3333273,1.019954,9.490986,2.247498
1409526878481,1.8596961,7.773973,3.4111388,1.165272,9.485228,2.2006814
1409526878482,1.9937714,7.952341,3.107674,1.3162061,9.469361,2.1838462
1409526878496,1.7902644,7.6069775,1.9967642,1.4579532,9.4486475,2.1835372
1409526878498,1.6921021,6.4906807,1.2036849,1.5772717,9.429554,2.1831446
1409526878518,1.6310499,5.37199,1.2629414,1.6725156,9.41295,2.1839097
1409526878519,1.4574703,4.783615,1.3826514,1.7514342,9.396026,2.1948965
1409526878537,1.2515689,4.7147818,1.2192472,1.8240026,9.376617,2.2186575
1409526878539,1.1725603,4.7387238,1.2761095,1.8949853,9.354851,2.2508152
1409526878551,1.2419921,4.782418,1.3634979,1.9623293,9.3321085,2.2872245
1409526878564,1.240795,5.039196,1.5179238,2.026121,9.307762,2.3304043
1409526878580,1.3634979,5.4863133,1.6849195,2.082961,9.283292,2.377427
1409526878581,1.6274586,5.899313,1.8495208,2.1314418,9.259961,2.4249637
1409526878597,1.9237411,6.3979053,1.934515,2.1696208,9.239515,2.4687023
1409526878599,2.2541409,6.9132576,2.0177135,2.197213,9.223919,2.5023918
1409526878613,2.5246856,7.2298903,2.236783,2.2128813,9.215106,2.5209825
1409526878631,2.8078,7.4286094,2.2930467,2.213651,9.214237,2.5234847
1409526878632,2.9592333,7.6147585,2.4001873,2.1969504,9.2218895,2.5100882
1409526878646,2.9879637,7.7081323,2.8496985,2.1594515,9.237536,2.4849665
1409526878651,3.152565,8.03554,3.8456864,2.1002033,9.259533,2.4536915
1409526878663,3.5098996,8.801085,4.710592,2.0319018,9.28227,2.4251254
1409526878679,3.7205894,9.710882,5.1289787,1.9484726,9.307641,2.396175
1409526878680,3.555988,10.217256,5.795165,1.8576579,9.334466,2.3637354
1409526878695,3.6349967,9.261371,5.4300494,1.7702185,9.358856,2.3342116
1409526878699,3.264494,7.674015,4.8626237,1.7015121,9.380352,2.2987463
1409526878711,0.44951138,13.301586,3.5625722,1.6519139,9.4001,2.2538207
1409526878727,1.2006922,15.844827,1.6178818,1.5844053,9.425293,2.1963408
1409526878730,3.4213142,14.143746,-0.12389994,1.5398177,9.4445505,2.1447227
1409526878744,5.5300074,12.783241,0.17836803,1.5733392,9.442725,2.128362
1409526878764,6.529587,9.91439,1.6543933,1.6812105,9.418418,2.153448
1409526878765,6.7624226,6.585252,5.429451,1.820571,9.375877,2.2245955
1409526878780,6.037578,9.0794115,10.702681,1.9738097,9.319208,2.3295593
1409526878781,5.897517,16.682798,9.624092,2.1260183,9.247213,2.4778001
1409526878797,5.853823,18.94891,3.750517,2.2584136,9.197116,2.5461764
1409526878799,1.4520833,15.451579,5.237316,2.3707337,9.184296,2.4897254
1409526878812,-3.4781766,12.426505,5.8262897,2.4141846,9.172023,2.4932115
1409526878829,-4.4765587,11.559804,1.2749124,2.389802,9.162294,2.5517848
1409526878830,-3.8893807,12.5743475,1.2689269,2.3362916,9.165511,2.5895035
1409526878845,-3.779846,13.526043,2.582745,2.2500947,9.177459,2.623307
1409526878871,-3.3482912,12.481572,0.20410569,2.12836,9.195362,2.6619189
1409526878872,-2.955642,10.626664,-1.0570401,2.0034785,9.223554,2.6613085
1409526878873,-2.586935,9.466075,-0.8295909,1.8873209,9.252595,2.6453528
1409526878879,-2.0458453,9.519944,-0.28550854,1.7857492,9.273467,2.6427844
1409526878894,-1.5011644,9.935339,0.4417302,1.6922692,9.281793,2.6748743
1409526878899,-0.20350714,9.370307,1.6765398,1.6117197,9.285646,2.7110002
1409526878912,0.59855044,8.497022,2.0248961,1.5462509,9.293256,2.723034
1409526878930,0.99538934,8.268375,2.3900118,1.4853835,9.309972,2.69972
1409526878932,0.8984242,8.357559,2.5264814,1.4186168,9.330329,2.6651227
1409526878946,0.7386112,8.544906,2.3780408,1.34039,9.346537,2.6487725
1409526878962,0.40102878,8.298303,2.0841527,1.2515004,9.35786,2.6522837
1409526878963,-0.077213004,8.150461,1.7208325,1.1524086,9.36986,2.6548207
1409526878975,-0.5243302,8.337808,1.4000094,1.0448616,9.388401,2.6337335
1409526878979,-0.89423436,8.535329,1.0827777,0.9303071,9.410938,2.5959916
1409526878992,-1.0827777,8.209119,0.6380547,0.8136225,9.439758,2.529694
1409526878999,-1.0534488,7.6853876,0.24061728,0.6987003,9.468911,2.4539626
1409526879012,-1.0486604,7.2514386,0.18076223,0.5926797,9.493516,2.3858502
1409526879028,-1.2910733,7.394492,0.7433996,0.50082946,9.512449,2.330856
1409526879031,-1.6729485,8.270171,1.3736732,0.42591116,9.526071,2.2897587
1409526879049,-1.8543092,9.144653,1.4562732,0.36443275,9.535605,2.2604868
1409526879067,-1.7609353,9.279925,1.062427,0.3080804,9.542071,2.2415102
1409526879069,-1.3599066,8.837597,0.65541273,0.24913795,9.544477,2.238588
1409526879072,-0.98341835,8.544906,0.4866215,0.18150078,9.541828,2.2563133
1409526879080,-0.5518635,8.428188,0.4782418,0.10012665,9.536298,2.2845953
1409526879102,0.95708215,8.421604,0.7266402,0.01446162,9.530235,2.3118808
1409526879104,1.9434932,9.052477,1.0480618,-0.07088053,9.526037,2.3280876
1409526879113,2.9071593,9.512163,1.5921441,-0.15077807,9.525212,2.3276615
1409526879140,3.5104983,9.7641535,2.1458032,-0.21857359,9.526779,2.3158362
1409526879141,3.5859156,9.735423,2.6198552,-0.2724885,9.527934,2.3053405
1409526879142,3.328539,9.572617,2.9484594,-0.31697986,9.524481,2.3139071
1409526879175,2.8975825,9.244612,3.153762,-0.35781085,9.512841,2.355468
1409526879177,2.4420857,8.641273,3.241749,-0.4024729,9.491212,2.4341962
1409526879180,2.1769278,8.151658,2.9125464,-0.45493647,9.461417,2.538705
1409526879182,2.3385365,7.838018,2.558803,-0.51498985,9.428608,2.6469846
1409526879213,2.7329812,7.547721,2.3660698,-0.576987,9.395893,2.7485735
1409526879215,2.9759927,7.5465236,2.1511903,-0.6360814,9.366107,2.8358145
1409526879220,2.9640217,7.9810715,2.2002714,-0.68845576,9.341603,2.903597
1409526879257,2.5797524,8.364143,2.6563668,-0.7306634,9.322051,2.9556532
1409526879258,2.3612814,8.318055,3.5895069,-0.76595676,9.304177,3.0026636
1409526879259,1.7866731,8.356362,3.3476925,-0.79832745,9.283976,3.0562818
1409526879262,0.92176765,8.724471,3.5206735,-0.8340904,9.264249,3.1061835
1409526879264,0.6039374,9.223063,3.29502,-0.87250936,9.246761,3.14746
1409526879294,0.85173726,9.697116,1.8100165,-0.9070744,9.233493,3.1765091
1409526879300,2.8604724,10.159795,1.8327614,-0.9348979,9.227302,3.1864223
1409526879301,2.9340942,10.102334,2.7635074,-0.94019794,9.225863,3.1890209
1409526879302,2.030283,10.426748,3.0681696,-0.9449172,9.223059,3.195732
1409526879313,0.88286185,11.109096,3.1519666,-0.9525052,9.221223,3.198781
1409526879329,0.24959552,11.253945,3.2758665,-0.96380615,9.220691,3.1969268
1409526879331,-0.031124622,10.754754,3.4284968,-0.97102344,9.220284,3.1959126
1409526879349,-0.03172317,10.045472,2.5839422,-0.9667099,9.221068,3.1949587
1409526879412,0.24301147,9.797672,1.5239093,-0.94363165,9.22904,3.1787994
1409526879414,0.86370826,9.239823,2.1751323,-0.89758044,9.245978,3.142708
1409526879415,1.5155296,8.104373,3.2148144,-0.83157873,9.265596,3.1028337
1409526879417,1.1480197,7.356185,2.5677812,-0.7535912,9.286153,3.061025
1409526879419,-0.5674258,6.293758,1.5652094,-0.67345536,9.313285,2.9965944
1409526879420,-2.2930467,5.073313,1.163582,-0.59490705,9.3461075,2.9097672
1409526879424,-3.1256304,4.7189717,1.0229226,-0.5179653,9.379127,2.816748
1409526879454,-3.5458126,5.637148,1.09834,-0.4240065,9.415433,2.709286
1409526879455,-3.7002387,8.24563,1.7429788,-0.30963135,9.456198,2.579701
1409526879456,-3.9001546,13.207015,2.6737247,-0.17667268,9.498055,2.4343648
1409526879457,-3.9324763,18.884266,2.8054059,-0.037211724,9.534399,2.2943888
1409526879459,-2.4480712,19.608511,1.9357121,0.09815836,9.564666,2.1628532
1409526879480,-1.258153,19.608511,2.1763294,0.25585118,9.587533,2.045517
1409526879481,-1.234211,16.75223,2.396596,0.41722187,9.600269,1.9573406
1409526879495,-0.70509243,10.937312,3.477578,0.5474601,9.600427,1.9241802
1409526879499,0.11432313,9.380483,5.467758,0.64503527,9.584092,1.9747136
1409526879513,-0.0023942017,11.079767,6.859388,0.71780354,9.558713,2.0703053
1409526879528,-1.2030864,12.305598,5.9262476,0.7851927,9.522797,2.2068584
1409526879531,-1.3371617,9.41041,3.347094,0.85481274,9.495558,2.2965386
1409526879541,-0.7954735,7.569867,2.2972364,0.94848204,9.489227,2.2858992
1409526879566,0.11492168,8.66282,3.140594,1.0540688,9.496623,2.2075992
1409526879567,0.7356185,8.479664,3.5871127,1.1690474,9.500019,2.1338632
1409526879571,1.2024878,8.2995,3.4757824,1.2967024,9.490647,2.1015637
1409526879579,1.5891514,8.300697,2.5611973,1.4232471,9.474055,2.094527
1409526879593,1.8100165,7.7614036,1.6412252,1.5349333,9.4579935,2.088234
1409526879621,2.0500352,7.0467343,1.365892,1.6269101,9.443832,2.0826871
1409526879623,1.9961656,6.527791,1.5472529,1.6995836,9.4292,2.0909317
1409526879624,1.8351556,5.9388175,1.6454151,1.7653506,9.412703,2.1106777
1409526879632,1.6059108,5.329493,1.6753427,1.8209751,9.392379,2.1535244
1409526879651,1.5029601,5.058948,1.5622166,1.8733882,9.368333,2.2124949
1409526879655,1.5352819,4.9548006,1.3634979,1.9265912,9.34161,2.2788084
1409526879660,1.6681601,5.3276973,1.1971009,1.98173,9.313313,2.3463533
1409526879678,1.8429368,5.61979,1.2814964,2.0344012,9.285514,2.4105697
1409526879680,1.9991584,5.7562594,1.5077485,2.0788975,9.259622,2.471432
1409526879694,2.0739772,5.681441,1.8124107,2.1124222,9.237348,2.5257597
1409526879720,2.095525,5.544971,1.9440918,2.1333067,9.220377,2.5698304
1409526879722,2.2409728,5.668871,2.1146786,2.1388175,9.210907,2.599045
1409526879723,2.3169887,5.949591,2.2882583,2.1274822,9.21008,2.6112516
1409526879732,2.4103625,6.203975,2.6617537,2.1063855,9.213515,2.6162353
1409526879754,2.4223335,6.4858923,3.317765,2.0652099,9.225186,2.6079195
1409526879755,2.504335,6.927024,4.1222167,2.0014517,9.244245,2.5900846
1409526879760,2.949058,7.9541364,4.7375264,1.9157816,9.269028,2.56618
1409526879782,3.532046,9.366715,4.995502,1.8137305,9.2976465,2.5366406
1409526879783,3.5865142,10.341156,5.3582234,1.7064731,9.327113,2.5026596
1409526879791,3.5290532,10.271724,5.395932,1.603886,9.353387,2.472262
1409526879826,3.3848026,8.859145,4.76087,1.517544,9.3746,2.4462867
1409526879827,3.1555579,9.970653,4.23235,1.4566166,9.391435,2.4186015
1409526879829,1.2785037,13.81215,3.0777464,1.4199352,9.405345,2.3861341
1409526879853,0.061650693,14.102447,2.1039047,1.3811402,9.422901,2.339188
1409526879854,0.62129533,13.098079,1.0690111,1.3417754,9.439035,2.2966635
1409526879856,5.7885814,11.590929,-0.3669114,1.3534957,9.442826,2.2740886
1409526879860,6.693589,7.6907744,1.4814123,1.4648501,9.428294,2.2653685
1409526879882,7.433398,6.2380924,6.3907228,1.5993521,9.396895,2.3045201
1409526879883,6.5643024,10.353127,11.339538,1.754157,9.348093,2.3888237
1409526879892,6.4002995,17.996616,7.0850415,1.9097688,9.289244,2.4966204
1409526879923,5.175067,19.208082,3.2237926,2.038089,9.267851,2.4745758
1409526879925,-0.6859388,14.781202,5.662287,2.11949,9.274165,2.3807554
1409526879926,-3.8857894,12.567164,2.9622262,2.1202345,9.276548,2.370789
1409526879955,-3.4763808,13.019071,0.80445176,2.0870168,9.283815,2.3718143
1409526879956,-3.031658,12.831724,2.3349452,2.0435462,9.2952585,2.3648398
1409526879956,-2.9221232,12.859258,2.0829554,1.9768604,9.302511,2.3928437
1409526879960,-2.6797101,11.862671,0.142455,1.8733889,9.310628,2.4439726
1409526879982,-2.5079262,10.532093,-0.56922144,1.7631869,9.325613,2.468707
1409526879983,-2.3307555,10.557233,-0.25079262,1.6588892,9.344978,2.4677637
1409526879992,-2.154183,11.08276,0.35673606,1.5608501,9.362067,2.46695
1409526880016,-1.6172832,10.672154,0.8379706,1.4769912,9.372787,2.4778464
1409526880017,-0.43993455,9.73662,1.3545196,1.4108845,9.379396,2.4913285
1409526880020,0.5291186,8.978855,2.0266917,1.3519813,9.386642,2.4966915
1409526880048,1.0217255,8.808268,2.3523033,1.2841617,9.396705,2.4946458
1409526880049,0.9139865,10.133459,2.8095956,1.2026399,9.408883,2.4893706
1409526880053,0.3196259,9.712678,2.5480292,1.1100239,9.420584,2.4881406
1409526880061,-0.24779987,8.99322,2.367267,1.00658,9.429987,2.4965036
1409526880085,-0.694917,8.7053175,1.8273745,0.8940254,9.436817,2.5134833
1409526880086,-0.8655039,8.800487,1.079785,0.779359,9.44778,2.5104752
1409526880092,-1.1994951,8.707711,0.48003745,0.66843116,9.467707,2.4670048
1409526880121,-1.340753,8.536526,0.42556936,0.55911726,9.49252,2.39788
1409526880123,-1.134253,8.45213,0.34237084,0.45423067,9.5140915,2.333698
1409526880125,-0.91099375,8.543709,0.86131406,0.36068964,9.529904,2.2849996
1409526880156,-1.1079168,9.321824,1.4077905,0.28535017,9.539972,2.2534237
1409526880159,-1.1546037,10.469844,1.6334441,0.22680882,9.544965,2.2388847
1409526880161,-1.1755531,10.55005,1.3299791,0.17995517,9.546974,2.2345722
1409526880163,-1.1803415,9.618706,0.7290344,0.13418312,9.541561,2.260749
1409526880185,-1.151611,8.467094,0.47524905,0.078476414,9.527613,2.321393
1409526880187,-1.2473791,7.9583263,0.8535329,0.00249916,9.507539,2.4035592
1409526880195,-1.1893197,7.865551,1.2354081,-0.09467143,9.487149,2.4810123
1409526880226,-0.5153519,7.803302,1.0486604,-0.20565847,9.471616,2.5330937
1409526880228,0.6572084,7.506421,0.79248077,-0.31745824,9.462427,2.5557902
1409526880232,1.6561891,7.145495,0.7799112,-0.42142949,9.455769,2.5653877
1409526880258,2.1428106,6.217742,2.3403323,-0.51446193,9.446726,2.5816853
1409526880259,2.0560207,6.165668,3.0466216,-0.5983078,9.429733,2.6253638
1409526880260,2.0691888,6.1237693,3.2519245,-0.6755266,9.405349,2.6932235
1409526880261,2.1613655,5.9729347,2.718616,-0.7470849,9.3774,2.7706723
1409526880276,2.348712,5.7065797,1.9698294,-0.8167639,9.347623,2.8504825
1409526880280,2.5390508,5.6227827,1.54845,-0.887853,9.319388,2.9208057
1409526880292,2.9532478,5.873575,1.5454572,-0.96198344,9.294515,2.9760664
1409526880311,3.478775,6.530185,1.834557,-1.034512,9.274245,3.0147264
1409526880312,3.8510735,7.513005,2.2529438,-1.0979452,9.259764,3.0367234
1409526880327,3.7912183,8.731653,2.6611552,-1.1478125,9.252328,3.0409472
1409526880347,3.2968156,10.017939,3.1226375,-1.1837778,9.251734,3.028946
1409526880348,2.5851393,11.079168,3.41473,-1.2099535,9.254221,3.0109472
1409526880351,1.7423803,11.66515,3.3315318,-1.2325526,9.254058,3.0022683
1409526880360,1.2150574,11.810597,3.1118636,-1.2598169,9.247977,3.009681
1409526880379,1.4407109,11.476007,2.7670987,-1.2927125,9.239014,3.0232322
1409526880380,2.3020248,11.194689,2.8443117,-1.3245727,9.226103,3.0487556
1409526880397,3.0723593,11.33056,3.7972038,-1.3453583,9.212316,3.0811791
1409526880403,3.0801406,11.505935,4.489128,-1.3486078,9.199387,3.1181622
1409526880412,2.5342624,11.401189,4.5687356,-1.3390588,9.18863,3.1537886
1409526880436,0.8924387,10.646417,4.437054,-1.3239379,9.178869,3.1884067
1409526880437,0.078410104,9.998785,5.0116625,-1.3146055,9.166863,3.226581
1409526880441,-0.80445176,9.651626,4.164714,-1.2983865,9.154668,3.2675118
1409526880466,-0.7445967,9.428965,2.9125464,-1.2725023,9.151961,3.2852309
1409526880467,-0.19871874,9.062652,2.6964695,-1.2260671,9.164658,3.2674456
1409526880472,0.0035913025,8.112154,2.40318,-1.1698722,9.183575,3.2347717
1409526880493,-0.35553896,6.803124,1.5059528,-1.0964042,9.212299,3.1783347
1409526880494,-1.0767922,5.6706667,1.062427,-1.0183256,9.250302,3.0927846
1409526880516,-1.7842789,5.531803,1.0875661,-0.936931,9.296342,2.9783504
1409526880517,-2.3624785,6.9222355,1.1282675,-0.8472702,9.347177,2.8430293
1409526880521,-2.7659016,9.883863,1.460463,-0.74515,9.399219,2.6962585
1409526880552,-2.9963434,14.51784,2.0326772,-0.62807995,9.448015,2.551645
1409526880554,-2.755726,19.050663,1.7178397,-0.4962128,9.489725,2.422662
1409526880556,-1.8501194,19.608511,1.1623849,-0.3465455,9.526423,2.3016374
1409526880570,-1.917157,19.608511,1.7884687,-0.17193036,9.556106,2.1958337
1409526880603,-2.9801826,17.586609,2.585738,-0.01607428,9.571961,2.1325283
1409526880605,-3.1992521,13.286622,3.2561142,0.109238826,9.575078,2.1157408
1409526880607,-2.7383683,10.184934,4.371214,0.18902367,9.558649,2.1833215
1409526880610,-2.44448,10.691906,5.8083334,0.24687424,9.528064,2.307695
1409526880614,-3.1429882,11.742961,3.9211037,0.3011373,9.497473,2.4243996
1409526880642,-2.4067712,9.223063,2.15538,0.36160445,9.488772,2.4500737
1409526880644,-1.3551182,9.247604,2.5354595,0.45040303,9.501312,2.3859172
1409526880647,-0.1328782,9.913192,3.323152,0.56283575,9.51822,2.2928345
1409526880668,0.45669398,8.626907,3.5996823,0.6964305,9.52452,2.2291043
1409526880669,0.8487445,8.180987,3.4883518,0.8405108,9.518575,2.204692
1409526880672,0.83497787,8.1343,2.879626,0.978693,9.5064125,2.200152
1409526880690,0.7332243,7.4591355,1.9021933,1.1049107,9.493863,2.1945672
1409526880692,0.748188,6.5936313,1.1773487,1.221552,9.48236,2.1824448
1409526880714,0.9498995,5.9477954,1.0785879,1.3216631,9.473478,2.1625946
1409526880716,0.95827925,5.378574,1.2252327,1.4044973,9.463467,2.1541948
1409526880721,0.95588505,5.0224366,1.4239515,1.4746867,9.449079,2.1703892
1409526880751,0.919972,4.9775453,1.7196354,1.5353658,9.430324,2.2095327
1409526880753,0.95468795,5.0840874,1.8004397,1.5908006,9.40819,2.2640028
1409526880754,0.94092125,5.310938,1.7435774,1.6432621,9.384668,2.3233747
1409526880761,0.830788,5.4964886,1.7058687,1.6921406,9.362027,2.3789728
1409526880782,0.9259575,5.4899044,1.7687165,1.7351415,9.341747,2.4272242
1409526880784,0.9008184,5.5288105,1.8148049,1.7730902,9.324131,2.4672153
1409526880793,0.94331545,5.707178,1.9434932,1.8096062,9.308124,2.5009127
1409526880816,1.258153,5.885546,2.131438,1.8392406,9.29628,2.5232472
1409526880818,1.4550761,6.1183825,2.099715,1.8628973,9.289661,2.5302565
1409526880822,1.5861586,6.345233,2.2828712,1.8762867,9.289907,2.5194352
1409526880858,1.9327193,6.573281,2.379238,1.875008,9.297129,2.4936204
1409526880861,2.4522612,7.211934,2.3169887,1.8564684,9.31107,2.4551754
1409526880891,3.0364463,8.314464,2.4552538,1.6948179,9.383205,2.2920382
1409526880893,3.4955344,9.7863,3.1411927,1.6948179,9.383205,2.2920382
1409526880894,3.4662056,11.098921,3.9983168,1.6948179,9.383205,2.2920382
1409526880897,3.0998926,11.183915,4.1623197,1.6151246,9.40756,2.24935
1409526880899,2.9508536,10.261548,3.3243492,1.5323466,9.4279585,2.2216864
1409526880915,3.0442274,9.648633,3.2202013,1.4569713,9.4467,2.192603
1409526880916,2.710835,11.769896,3.7738605,1.3963466,9.459403,2.1772265
1409526880921,1.9806033,13.293206,3.596091,1.3540453,9.467202,2.1700315
1409526880943,2.7623103,13.193249,2.4037786,1.3299209,9.47206,2.163738
1409526880944,4.587889,13.499107,1.0995371,1.3549111,9.472649,2.14558
1409526880968,6.145916,12.762292,1.0749966,1.4440377,9.467091,2.1117153
1409526880970,7.1586633,10.303447,2.4714148,1.577674,9.449552,2.0945978
1409526880973,7.7590094,9.017162,6.5487404,1.7330346,9.417928,2.1141536
1409526881000,6.355408,17.621325,6.8426285,1.9127456,9.371743,2.1638474
1409526881002,4.7285485,19.608511,2.8419175,2.076419,9.335394,2.1700926
1409526881003,0.5638345,18.230648,4.1413703,2.1957362,9.325782,2.0925884
1409526881030,-3.015497,15.3605995,2.2373815,2.2414038,9.322241,2.059695
1409526881032,-4.0976763,13.464991,0.45250413,2.2396657,9.32171,2.0639865
1409526881033,-4.5046906,11.811195,2.2026656,2.1978602,9.320338,2.1144972
1409526881041,-4.5034933,12.269087,1.8483237,2.1104145,9.317154,2.2152174
1409526881067,-4.3760023,11.183915,0.24779987,1.9822,9.321167,2.3145406
1409526881068,-4.4382515,9.4217825,0.06584055,1.8534328,9.330332,2.3832972
1409526881073,-4.2000284,8.50181,0.66259533,1.7384518,9.336656,2.4443922
1409526881097,-3.7684734,7.8787193,0.95468795,1.6391201,9.333192,2.5249162
1409526881098,-2.9538465,7.355586,1.436521,1.5634421,9.32083,2.616902
1409526881102,-1.5514427,7.5094137,2.0638018,1.5083696,9.308504,2.6920185
1409526881130,0.2100912,7.7847466,2.202067,1.4663771,9.298831,2.7480662
1409526881132,1.4227544,7.875128,2.018312,1.428652,9.301881,2.7575986
1409526881141,1.9512744,8.215703,1.7465701,1.386466,9.318215,2.7237735
1409526881143,2.3092074,9.491813,1.7741034,1.3297883,9.344561,2.6610606
1409526881172,2.2631192,10.609306,1.6693572,1.2602619,9.375345,2.5855446
1409526881174,1.7483658,10.509348,1.620276,1.1818237,9.406731,2.5074134
1409526881175,1.0061632,9.929952,1.6346412,1.093728,9.436275,2.4353375
1409526881194,0.81043726,9.76116,1.3982137,0.9954258,9.464259,2.367984
1409526881196,0.3776853,9.185355,1.3275849,0.89234406,9.491604,2.2986045
1409526881214,0.044891283,8.644265,1.3850456,0.78785735,9.516737,2.2318995
1409526881215,-0.076015905,8.364143,1.1911154,0.6914552,9.537234,2.1756454
1409526881221,-0.17298107,8.172607,1.1336545,0.6029293,9.554655,2.1249526
1409526881245,-0.56563014,8.748413,1.3628993,0.5366334,9.566832,2.087622
1409526881247,-1.0887632,9.475053,1.5346833,0.48943287,9.574084,2.0658548
1409526881253,-1.3557167,9.437943,1.3670892,0.44577327,9.57626,2.0656557
1409526881284,-1.4239515,8.719683,0.9888053,0.39391273,9.572392,2.0939307
1409526881286,-1.3263878,7.740454,0.8110358,0.32477337,9.563179,2.147221
1409526881287,-1.2671312,7.144298,1.0127473,0.23701727,9.551077,2.2115874
1409526881293,-1.1605892,7.2245035,1.4975731,0.13319576,9.54009,2.2670128
1409526881312,-0.59256494,7.7410526,1.875857,0.02205783,9.533846,2.2968833
1409526881313,0.010773907,8.643068,1.9746178,-0.083256885,9.533683,2.2961655
1409526881322,0.62249243,9.268554,1.7190368,-0.1785257,9.535709,2.2822707
1409526881347,1.3245921,9.607333,1.8237832,-0.26665562,9.540169,2.2548795
1409526881348,2.2272062,9.821015,2.1829133,-0.34923717,9.541171,2.2393055
1409526881353,2.556409,9.235633,2.3133974,-0.42503217,9.534196,2.2558467
1409526881385,2.058415,7.867347,1.9369092,-0.49908453,9.517225,2.3116539
1409526881386,1.5759833,7.3406224,1.8459295,-0.58092356,9.490802,2.399502
1409526881387,1.3880384,7.15986,1.7968484,-0.67069846,9.458179,2.5026753
1409526881393,1.4317327,7.2819643,1.6927006,-0.7653084,9.426041,2.5950813
1409526881419,1.7411832,7.678205,1.6370354,-0.8609986,9.399909,2.659095
1409526881421,2.1350293,8.052897,1.9937714,-0.95027405,9.380893,2.6955914
1409526881424,2.2230163,8.289924,2.5288756,-1.0272175,9.365241,2.7216678
1409526881455,1.9542671,8.444948,3.151368,-1.095007,9.348948,2.7510967
1409526881457,1.5693992,8.475474,3.300407,-1.1575276,9.330112,2.7891808
1409526881460,0.86849666,8.403648,3.128623,-1.2188877,9.307993,2.8365457
1409526881497,0.2777274,8.652645,2.5899277,-1.2841835,9.2824955,2.8907692
1409526881500,0.34715924,8.845977,1.8495208,-1.3503237,9.257291,2.9410179
1409526881504,1.0684125,8.954314,1.6567876,-1.4098471,9.236622,2.9778447
1409526881505,1.9021933,9.536704,2.2852654,-1.4549913,9.221793,3.0019846
1409526881505,2.3139958,10.505158,2.8951883,-1.4811847,9.212836,3.0166438
1409526881524,2.457648,11.5077305,2.9442697,-1.4893688,9.209712,3.0221446
1409526881525,2.3505075,12.120048,2.9299042,-1.482656,9.211508,3.019981
1409526881541,2.321777,12.011111,3.5691562,-1.4637865,9.2156515,3.0165381
1409526881542,2.2577322,11.218631,4.252701,-1.4387448,9.218131,3.021001
1409526881563,1.541866,9.683349,3.478775,-1.4016379,9.21961,3.0339098
1409526881564,1.4437037,9.284116,3.2794578,-1.3591325,9.225701,3.034729
1409526881573,1.1145009,8.990826,3.465607,-1.2982252,9.2381935,3.023377
1409526881596,0.43754035,8.788516,2.6330233,-1.2271824,9.255473,3.000106
1409526881597,-0.75716627,8.043321,1.4969746,-1.1599972,9.281092,2.9472263
1409526881602,-2.03148,6.678027,1.590947,-1.1036055,9.316255,2.856547
1409526881636,-3.3943794,5.8885393,2.2457612,-1.0519146,9.355767,2.7447174
1409526881638,-4.1515455,6.555923,2.593519,-0.99962467,9.395276,2.6267757
1409526881639,-4.3520603,8.729858,2.259528,-0.937016,9.436159,2.5002625
1409526881642,-4.5920787,12.534245,1.7932571,-0.85244775,9.4795685,2.3625274
1409526881673,-4.272453,17.782335,1.7399861,-0.76044077,9.525222,2.205057
1409526881674,-3.4261026,19.608511,1.9614497,-0.6480608,9.570439,2.038898
1409526881676,-2.961029,19.608511,2.0560207,-0.50511414,9.6071205,1.9022312
1409526881699,-3.2728736,18.87469,2.4438813,-0.35282883,9.631078,1.813356
1409526881701,-3.252523,13.549386,2.6503813,-0.2283444,9.640242,1.7843745
1409526881704,-2.0141222,9.603143,3.7391446,-0.13361421,9.635046,1.8216603
1409526881730,-1.7711107,9.230247,5.7562594,-0.057356685,9.6183195,1.9118129
1409526881735,-2.771887,11.972205,6.242881,0.0062818932,9.594827,2.0272226
1409526881736,-2.3930047,11.314399,3.8899791,0.062246725,9.577283,2.1076431
1409526881742,-0.36032736,9.742006,1.459266,0.14331922,9.580816,2.0875347
1409526881778,0.22864626,9.452309,2.1709423,0.25326976,9.594003,2.015285
1409526881779,0.8415619,8.819042,2.3750482,0.39475638,9.609769,1.9149249
1409526881781,1.7788919,9.181165,2.5408466,0.55344427,9.616678,1.8394549
1409526881782,1.988983,8.972271,1.8950106,0.716521,9.6119795,1.8074477
1409526881817,1.7962499,8.499416,1.1139023,0.86971927,9.6004305,1.8015853
1409526881818,1.2665327,7.338228,0.33399114,1.001234,9.586824,1.8057537
1409526881820,0.7326257,5.7909756,0.010773907,1.100952,9.574437,1.8134116
1409526881823,0.42078096,4.7818193,0.4357447,1.1761642,9.561406,1.8348132
1409526881848,0.4842273,4.2078094,0.87807345,1.2400817,9.544075,1.8823488
1409526881850,0.7350199,3.8313212,1.2060791,1.3012257,9.521663,1.9532468
1409526881854,0.9696517,3.8115692,1.4227544,1.3620129,9.496437,2.0329838
1409526881891,1.0576386,3.934272,1.5167267,1.4232106,9.470212,2.1118586
1409526881894,1.1546037,4.006098,1.5903485,1.4828914,9.445478,2.1804507
1409526881896,1.073201,4.2359414,1.7489643,1.5409511,9.42407,2.2322106
1409526881917,1.2366052,4.4514194,1.9009962,1.5955665,9.406647,2.2670596
1409526881919,1.3664906,4.9039235,1.9093759,1.6476896,9.392702,2.287505
1409526881920,1.5502456,5.5844755,1.726818,1.6964563,9.382641,2.293134
1409526881922,2.0093338,6.1010246,1.7585411,1.7398794,9.377376,2.2821178
1409526881949,2.7323828,6.8264675,2.2589293,1.7773633,9.376795,2.255463
1409526881951,3.1651347,7.4483614,2.5797524,1.8061007,9.379966,2.2191458
1409526881954,3.6014779,8.3312235,2.9239187,1.8188138,9.387081,2.1783042
1409526881980,3.9228995,9.348161,3.3554738,1.81196,9.397436,2.1390224
1409526881982,3.8899791,10.314819,4.1012673,1.7957376,9.407961,2.1061819
1409526881983,3.5691562,10.925341,4.9506106,1.7598538,9.419344,2.0854955
1409526882012,3.1741128,11.192294,5.3462524,1.7090626,9.430402,2.0777435
1409526882014,3.1124623,11.396998,4.9506106,1.6508334,9.442062,2.0718653
1409526882015,2.5761611,12.766482,5.0781016,1.5931299,9.45559,2.0552747
1409526882022,1.2180501,14.192827,4.571728,1.5315558,9.469363,2.038603
1409526882050,0.55365914,14.622587,3.2932243,1.4572533,9.481904,2.0347753
1409526882051,1.6041151,13.866019,1.0546459,1.3929154,9.487302,2.0545762
1409526882055,3.9893386,13.459004,-0.109534726,1.387626,9.484164,2.0725625
1409526882082,5.699397,11.940482,0.7368156,1.4537017,9.471969,2.0830173
1409526882084,6.497265,9.058462,3.176507,1.5544404,9.449912,2.110275
1409526882085,6.8587894,7.767389,6.769605,1.680102,9.413366,2.1762788
1409526882114,5.9567738,10.657789,10.943896,1.8333744,9.365365,2.2581146
1409526882116,4.775235,15.828666,8.716091,1.991278,9.311543,2.3452864
1409526882117,3.693056,17.134703,4.5082817,2.1066396,9.283391,2.356083
1409526882123,-3.0831332,12.598887,3.6792896,2.1802912,9.277591,2.3115
1409526882149,-3.743933,11.39221,1.103727,2.1797996,9.277888,2.3107684
1409526882154,-3.0986955,10.779295,1.1001357,2.158328,9.279396,2.3248272
1409526882156,-2.8862102,11.492766,1.276708,2.104922,9.282001,2.3630836
1409526882187,-2.9867666,11.680712,-0.029927522,2.0108469,9.291557,2.4070415
1409526882189,-3.0113072,11.511322,-0.8206126,1.8990861,9.312071,2.4185104
1409526882194,-3.0460231,11.617864,-0.49320555,1.7918327,9.33687,2.4047015
1409526882220,-2.8502972,11.399393,0.13826515,1.6872588,9.363064,2.3783598
1409526882222,-2.183512,11.153389,0.62488663,1.6010574,9.381618,2.3647974
1409526882224,-1.3784616,10.199898,1.0684125,1.5340266,9.392211,2.3671796
1409526882225,-0.45729253,9.349358,1.661576,1.4773604,9.39995,2.3724992
1409526882255,0.30047232,9.028535,2.0482395,1.4182142,9.410003,2.3687372
1409526882256,0.94092125,9.653421,2.408567,1.3487945,9.423044,2.3574095
1409526882257,1.2210429,10.29806,2.5605986,1.269231,9.436107,2.3493292
1409526882272,1.2557588,10.354922,2.3594859,1.1819967,9.44641,2.3534243
1409526882274,0.8774749,10.1065235,2.1697452,1.0891796,9.454593,2.3653224
1409526882286,0.30526072,9.739613,2.0907366,0.9906976,9.462763,2.3759282
1409526882305,-0.17058687,9.339781,1.7872716,0.8864835,9.473813,2.373062
1409526882305,-0.50517654,8.936956,1.0935516,0.7805343,9.489454,2.3476424
1409526882330,-0.6955156,8.063073,0.45549688,0.6736795,9.508189,2.3045368
1409526882331,-0.6895301,7.705738,0.65660983,0.5706909,9.525817,2.2590914
1409526882334,-0.6087258,7.921815,0.8571242,0.47712567,9.53903,2.22478
1409526882359,-0.36152446,8.632295,1.1659763,0.39746088,9.548333,2.200399
1409526882361,-0.10115502,9.085996,1.2348095,0.33538076,9.554332,2.1846395
1409526882363,-0.110731825,9.191938,1.0354922,0.28607744,9.55622,2.1833856
1409526882374,-0.39085343,8.768166,0.90859956,0.23629557,9.552213,2.2067544
1409526882389,-0.49919105,8.279149,0.89902276,0.17339002,9.540957,2.2606268
1409526882410,-0.6871359,8.042722,0.79726917,0.101694524,9.526238,2.3261178
1409526882411,-0.8984242,8.215105,0.91937345,0.011520548,9.509858,2.3943384
1409526882414,-0.90859956,8.379706,0.96067345,-0.09593411,9.49765,2.4404562
1409526882423,-0.31603462,8.303091,0.7691373,-0.2141052,9.492051,2.454691
1409526882442,0.45190558,7.949947,0.670975,-0.33231056,9.490978,2.4456646
1409526882460,1.1599907,7.471705,0.97623575,-0.44541755,9.4896345,2.4328656
1409526882461,1.6729485,6.884527,1.4191631,-0.54801023,9.483671,2.4351757
1409526882463,1.9117701,6.5505357,1.893215,-0.6345559,9.471461,2.461537
1409526882476,1.9536686,6.563704,2.2134395,-0.70538247,9.453716,2.5099978
1409526882495,1.6915035,6.801927,2.2026656,-0.7659505,9.4323845,2.5717354
1409526882496,1.3281834,7.092224,1.9919758,-0.8215685,9.410125,2.6353319
1409526882503,1.1031284,7.748235,1.5891514,-0.87709165,9.387891,2.6960351
1409526882527,1.541866,8.05589,1.6220716,-0.93042266,9.367505,2.7485554
1409526882529,1.9476831,8.300098,1.8722657,-0.97729623,9.34916,2.7943633
1409526882537,2.2822728,8.732252,2.4702177,-1.016346,9.332952,2.8343356
1409526882563,2.3810337,9.111733,3.1597476,-1.0463291,9.317712,2.8732975
1409526882565,2.348712,9.530719,3.6469676,-1.067849,9.30152,2.9175036
1409526882566,2.2319946,9.878476,3.627814,-1.0825456,9.283224,2.9698884
1409526882615,2.3301568,9.983821,3.0131028,-1.0939223,9.263864,3.0256517
1409526882618,2.8634653,9.873089,2.5761611,-1.1040317,9.245575,3.077474
1409526882621,3.6762967,9.913192,2.914342,-1.1103559,9.22863,3.1256797
1409526882625,4.0797195,10.257359,3.6894648,-1.1087719,9.212082,3.174678
1409526882627,3.6948519,10.477625,3.9564183,-1.102793,9.195842,3.2234645
1409526882629,2.7168205,10.605117,3.6134489,-1.099382,9.1814995,3.2652428
1409526882653,1.9452889,10.79366,3.6104562,-1.1083848,9.16975,3.2950819
1409526882655,1.4814123,10.480618,4.483143,-1.1227967,9.158676,3.3209002
1409526882656,0.57161564,9.697116,5.08708,-1.1322478,9.147696,3.347845
1409526882681,-0.09696517,9.381081,4.923077,-1.1319864,9.141846,3.3638744
1409526882682,0.24600422,9.913791,5.09546,-1.1130648,9.148226,3.3528302
1409526882684,0.8415619,10.456078,4.7925935,-1.0688655,9.167354,3.3147466
1409526882721,-0.3633201,10.176555,1.5334862,-1.0046611,9.19861,3.2475529
1409526882723,-1.311424,9.112331,0.5758055,-0.94510204,9.24522,3.1309867
1409526882726,-2.0751743,7.545925,0.18315643,-0.89515686,9.293209,3.000891
1409526882727,-2.3026235,6.8049197,0.035314474,-0.83757114,9.341722,2.863756
1409526882748,-2.3948002,7.5028296,0.15741876,-0.769406,9.389495,2.723197
1409526882749,-2.6443958,9.782109,1.0085574,-0.68332946,9.438434,2.5728295
1409526882755,-3.144784,13.579912,2.2343888,-0.5804417,9.485814,2.4192574
1409526882776,-3.4153287,18.313847,2.540248,-0.4698522,9.5257635,2.2824223
1409526882778,-3.2034419,19.608511,1.8309658,-0.3547979,9.557818,2.166242
1409526882784,-3.5230677,19.516933,1.8662802,-0.22433972,9.582469,2.0727644
1409526882812,-3.9067385,16.2279,2.5510218,-0.10081943,9.595784,2.0201845
1409526882814,-3.5541923,10.995371,3.6912606,-0.0033165773,9.591473,2.0430439
1409526882815,-2.7222073,8.462905,4.8763905,0.07435615,9.567587,2.1508458
1409526882825,-2.1996727,8.97287,5.7682304,0.15185492,9.534178,2.2905805
1409526882849,-2.943671,11.465234,5.835268,0.22481772,9.496781,2.435359
1409526882850,-3.0071173,11.436503,4.453215,0.2976645,9.472874,2.5192144
1409526882855,-2.0901382,9.651027,2.7180176,0.38150895,9.473401,2.505897
1409526882871,-1.1384429,8.659229,2.2349873,0.48837247,9.490751,2.4202342
1409526882889,-0.06404489,8.5622635,2.6102784,0.6130978,9.507794,2.3230066
1409526882890,1.7669208,9.734225,3.2273839,0.74904513,9.514851,2.2532067
1409526882903,1.8471266,9.425373,2.6886885,0.898895,9.511592,2.2117891
1409526882909,1.7417817,8.81605,1.7729063,1.0389508,9.504769,2.1795278
1409526882932,1.6723499,7.6800003,1.2354081,1.1549954,9.499295,2.144707
1409526882933,1.8357542,6.621165,1.2503718,1.2481042,9.495363,2.1096685
1409526882935,1.9231426,6.015432,1.6071079,1.330744,9.490241,2.0820215
1409526882954,1.7950528,5.5365915,1.769315,1.3987881,9.482592,2.0722558
1409526882955,1.5951369,5.445612,1.7615339,1.4575686,9.470742,2.085894
1409526882970,1.6112977,5.4791307,1.8255788,1.5104132,9.454465,2.1218271
1409526882986,1.7304093,5.5084596,1.8525136,1.5597575,9.434494,2.174362
1409526882986,1.851915,5.555745,1.8189948,1.6075143,9.411774,2.2371402
1409526883004,1.6723499,5.6563015,1.721431,1.6523334,9.38806,2.3031497
1409526883005,1.5167267,5.6359506,1.6693572,1.6895316,9.3658,2.3659422
1409526883016,1.5532384,5.7538652,1.6537948,1.717773,9.346583,2.4209628
1409526883024,1.5879543,5.789778,1.632247,1.7381972,9.331292,2.4649677
1409526883039,1.5741876,5.6724625,1.7124528,1.755851,9.31836,2.5011094
1409526883049,1.567005,5.5258174,2.0667946,1.7633635,9.3107815,2.5239434
1409526883055,1.7561469,5.5389857,2.4540567,1.7594099,9.308592,2.5347526
1409526883070,2.1589713,5.8634,2.504335,1.7428849,9.311883,2.5340865
1409526883083,3.0974984,7.8182654,2.7641058,1.7125756,9.321968,2.5176167
1409526883084,3.2890346,8.868123,3.3387144,1.6710383,9.338015,2.4858644
1409526883103,3.2267854,9.633071,4.0880995,1.6170294,9.357235,2.4490364
1409526883103,2.9885623,9.929353,4.824915,1.5544603,9.375837,2.4182096
1409526883120,2.7449522,9.852738,5.145738,1.4921932,9.390876,2.399001
1409526883137,2.5103204,10.912771,5.0254292,1.4419986,9.402549,2.3839238
1409526883137,1.6418238,13.569139,4.598663,1.4084699,9.412783,2.363501
1409526883153,0.9696517,14.683041,3.9013517,1.3695229,9.425321,2.3362675
1409526883155,1.6825253,14.432846,2.4863784,1.337886,9.435401,2.3137984
1409526883170,3.8085763,13.874997,1.0187328,1.3463196,9.436584,2.3040643
1409526883187,5.8520274,12.904747,1.1384429,1.4183657,9.426545,2.301932
1409526883188,7.045537,10.266336,3.086126,1.5378599,9.403063,2.3211656
1409526883204,7.390302,9.734824,7.6243353,1.6808096,9.363018,2.3831024
1409526883204,6.7851677,13.252505,10.483012,1.8478681,9.303467,2.490237
1409526883219,5.3366756,18.924368,6.6612678,2.022847,9.237024,2.5992064
1409526883237,2.4588451,18.898033,3.122039,2.1591694,9.205879,2.6000285
1409526883238,-0.90381116,14.97633,3.7894228,2.2288759,9.2042055,2.546583
1409526883252,-3.304597,11.416152,2.5833437,2.23926,9.203992,2.5382347
1409526883268,-3.165733,9.895834,0.7194576,2.2275634,9.197077,2.5733485
1409526883269,-2.6126726,9.123106,2.8006175,2.1877387,9.187861,2.6395802
1409526883285,-2.3139958,9.247005,1.8495208,2.116645,9.177575,2.7317257
1409526883285,-2.0925324,9.221268,1.2491747,2.0249364,9.178392,2.7977052
1409526883300,-1.8650831,9.433753,0.9295488,1.9314015,9.191358,2.821173
1409526883303,-1.887828,10.064027,0.8475474,1.8452632,9.210194,2.8173945
1409526883316,-1.7250223,10.608109,0.79008657,1.7706771,9.227586,2.8083396
1409526883330,-0.96905315,10.885837,0.8062474,1.7095826,9.243714,2.7931118
1409526883335,0.04129998,10.891822,0.9403227,1.657303,9.264206,2.7564864
1409526883349,0.7266402,10.837354,1.2539631,1.6027918,9.293044,2.6908665
1409526883355,1.1001357,11.015123,1.2252327,1.5420378,9.324083,2.6180112
1409526883368,1.2587515,10.633847,1.2372037,1.4660258,9.358672,2.5370061
1409526883384,1.2120646,9.654618,1.192911,1.374753,9.387757,2.4800127
1409526883385,0.9540894,8.713697,1.3395559,1.2729329,9.405898,2.4655864
1409526883398,0.7074866,8.159439,1.7304093,1.165277,9.416725,2.4774587
1409526883404,0.3842694,7.750031,2.0644004,1.0551225,9.428696,2.4812927
1409526883416,-0.02813187,7.521983,2.0817583,0.94512916,9.445973,2.4598212
1409526883435,-0.45789108,7.3286514,1.7357962,0.8391691,9.46758,2.414772
1409526883437,-0.60932434,6.9946604,1.2054806,0.74141634,9.490063,2.3578382
1409526883451,-0.55605334,6.8103065,0.6607997,0.65524805,9.510354,2.300918
1409526883467,-0.56203884,7.256227,1.0295067,0.58519644,9.526646,2.251875
1409526883468,-0.94451255,8.529344,1.5077485,0.52449423,9.540001,2.2099059
1409526883487,-0.9888053,9.586982,1.7429788,0.47281477,9.548982,2.1826117
1409526883493,-1.0773908,9.527725,1.2431892,0.4242957,9.553844,2.1712708
1409526883512,-0.7212533,9.165603,0.7164649,0.3698063,9.554977,2.17625
1409526883513,-0.533907,9.201516,0.48003745,0.3051402,9.553306,2.1935415
1409526883515,-0.39025488,8.962095,0.43514615,0.22439815,9.551391,2.2115536
1409526883533,-0.018555064,8.668207,0.6278794,0.12645234,9.551856,2.2173054
1409526883535,0.79846627,8.435969,1.0283096,0.022074735,9.5556345,2.2044928
1409526883547,1.5951369,8.397064,1.5113398,-0.07230152,9.560723,2.1812217
1409526883576,2.5689783,8.762778,2.0404584,-0.14980033,9.56394,2.1631012
1409526883577,3.2794578,9.312846,2.2092497,-0.20867904,9.564709,2.1548119
1409526883579,3.554791,9.449914,2.3481133,-0.25541568,9.560256,2.1694808
1409526883585,3.3836055,9.093777,2.4408886,-0.29359978,9.548242,2.2170415
1409526883608,3.0083144,8.7849245,2.542642,-0.3344743,9.527805,2.2977042
1409526883609,2.6527755,8.718486,2.598906,-0.38441345,9.500916,2.3990054
1409526883617,2.2284033,8.748413,2.3636756,-0.44457224,9.471513,2.502636
1409526883631,2.107496,8.725668,2.0410569,-0.5168624,9.4433155,2.5936544
1409526883636,2.1625626,8.618527,2.2481554,-0.5952356,9.418879,2.664736
1409526883647,2.3187842,8.238448,2.694674,-0.6720524,9.396569,2.72456
1409526883669,2.248754,8.224083,3.502717,-0.74115986,9.373516,2.785365
1409526883671,1.8231846,8.172607,3.9612067,-0.8005783,9.347666,2.8549302
1409526883688,1.0827777,8.19236,3.716998,-0.8570632,9.319534,2.9295228
1409526883689,0.55246204,8.4425535,2.983774,-0.91535574,9.290672,3.002651
1409526883696,0.9175778,8.902241,1.8531121,-0.97432905,9.26536,3.061728
1409526883704,1.821389,9.260772,1.06123,-1.0267851,9.247538,3.0982497
1409526883718,2.77069,9.628283,1.4425066,-1.0673313,9.237228,3.1152565
1409526883736,2.9897594,10.068815,2.15538,-1.0948645,9.231731,3.121989
1409526883738,2.5187001,10.387842,2.463035,-1.1152389,9.229212,3.1222231
1409526883754,1.7208325,10.742185,2.6677392,-1.1334366,9.228537,3.1176665
1409526883768,1.0426749,11.099519,3.2040405,-1.1468512,9.2284775,3.1129286
1409526883768,0.46686932,10.8948145,3.8133647,-1.1487705,9.229342,3.109654
1409526883784,0.20111294,10.409989,3.6206315,-1.1350348,9.233233,3.103142
