time,acc_x,acc_y,acc_z,gravity_x,gravity_y,gravity_z
1409351298817,0.51595044,9.487024,2.4396915,0.54674685,9.491956,2.4029644
1409351298818,0.5189432,9.458294,2.4307132,0.5483166,9.492058,2.402198
1409351298830,0.55605334,9.439739,2.4474726,0.5496312,9.492409,2.4005134
1409351298848,0.57879823,9.442732,2.468422,0.5514079,9.492738,2.398806
1409351298862,0.60214174,9.467272,2.44448,0.5532614,9.493064,2.3970857
1409351298863,0.635062,9.479243,2.3894134,0.55515,9.493361,2.3954706
1409351298879,0.64583594,9.503783,2.385822,0.55710405,9.493802,2.39327
1409351298880,0.6254852,9.52593,2.369661,0.5588003,9.494307,2.390875
1409351298899,0.59495914,9.488221,2.355296,0.5602505,9.494798,2.3885815
1409351298901,0.5590461,9.439739,2.391209,0.5615984,9.495225,2.3865714
1409351298919,0.5446809,9.416994,2.4893713,0.562887,9.49551,2.3851264
1409351298921,0.4961983,9.41879,2.5474305,0.5643401,9.495611,2.3843853
1409351298931,0.41000703,9.42238,2.5031378,0.5656097,9.495487,2.384581
1409351298954,0.3633201,9.436148,2.457648,0.5662521,9.495281,2.3852415
1409351298956,0.3537433,9.46847,2.4019828,0.5667179,9.495091,2.385884
1409351298970,0.3477578,9.493608,2.3780408,0.56783086,9.495119,2.3855157
1409351298999,0.38606504,9.539098,2.3247697,0.5698381,9.495232,2.3845904
1409351299001,0.44831428,9.616311,2.297835,0.5725845,9.495401,2.383256
1409351299002,0.6194997,9.694721,2.2517467,0.57598585,9.495701,2.3812406
1409351299004,0.6362591,9.679757,2.2768857,0.5810481,9.496242,2.3778543
1409351299016,0.64823014,9.644443,2.2972364,0.58598936,9.496815,2.3743467
1409351299029,0.623091,9.616311,2.3876176,0.59030455,9.497472,2.370646
1409351299032,0.61411273,9.569624,2.4474726,0.59359807,9.497975,2.367804
1409351299052,0.623091,9.494206,2.4947581,0.59611034,9.49834,2.3657134
1409351299053,0.6159084,9.347562,2.4372973,0.5981588,9.498734,2.3636072
1409351299059,0.55605334,9.375694,2.5049336,0.600045,9.499459,2.3602192
1409351299083,0.5201403,9.397242,2.5462334,0.6017133,9.500966,2.3537135
1409351299084,0.52612585,9.436148,2.5079262,0.603741,9.502847,2.345593
1409351299098,0.5422867,9.647436,2.4372973,0.6059812,9.504577,2.3379912
1409351299100,0.5021838,9.707291,2.3942018,0.60885644,9.506014,2.3313918
1409351299120,0.46387658,9.630676,2.4366987,0.61118984,9.507322,2.3254385
1409351299122,0.480636,9.514558,2.4366987,0.6123086,9.50844,2.3205712
1409351299131,0.4758476,9.518747,2.4211364,0.6126842,9.509241,2.3171885
1409351299155,0.45729253,9.487623,2.4552538,0.6127409,9.509941,2.3142953
1409351299157,0.40821138,9.433753,2.4821887,0.61361414,9.510232,2.3128679
1409351299159,0.3441665,9.416994,2.4791958,0.6156553,9.509946,2.3135026
1409351299192,0.35254622,9.414001,2.441487,0.61826926,9.5096245,2.3141303
1409351299195,0.44472298,9.392453,2.3720553,0.62145144,9.509575,2.3134756
1409351299198,0.4369418,9.412804,2.3409307,0.6254446,9.509896,2.3110793
1409351299201,0.45429978,9.463082,2.321777,0.62901837,9.510367,2.308169
1409351299233,0.44651863,9.483433,2.284667,0.6322756,9.510842,2.3053205
1409351299236,0.46028528,9.476251,2.2583308,0.6353081,9.511237,2.3028574
1409351299239,0.47524905,9.433155,2.2703018,0.6382535,9.511677,2.3002305
1409351299244,0.46926352,9.409811,2.2613235,0.6409449,9.511985,2.2982016
1409351299264,0.46986207,9.390657,2.256535,0.64317167,9.512142,2.2969284
1409351299265,0.545878,9.348161,2.2894554,0.6451558,9.512223,2.2960348
1409351299280,0.60573304,9.3343935,2.343325,0.64763594,9.512234,2.2952995
1409351299281,0.705691,9.406818,2.3535004,0.6501462,9.51242,2.2938147
1409351299296,0.86849666,9.526528,2.3720553,0.65256697,9.512936,2.2909827
1409351299301,1.049259,9.624691,2.3451207,0.65513563,9.513549,2.2877047
1409351299323,1.2246342,9.612122,2.2810757,0.6588269,9.514314,2.283461
1409351299324,1.4281414,9.566631,2.28347,0.66271746,9.515435,2.277652
1409351299334,1.5646108,9.583989,2.319383,0.66655076,9.516798,2.2708342
1409351299357,1.5490485,9.652225,2.3493104,0.6697426,9.518244,2.263817
1409351299359,1.4460979,9.685144,2.3062148,0.67112523,9.519762,2.2570145
1409351299361,1.2952632,9.680955,2.35769,0.6700614,9.521483,2.250061
1409351299389,0.8810662,9.74859,2.381632,0.6666034,9.522899,2.2450871
1409351299390,0.7290344,9.82341,2.3660698,0.6590154,9.524091,2.2422733
1409351299393,0.6063316,9.846753,2.3080103,0.650344,9.524985,2.2410097
1409351299401,0.50517654,9.787497,2.1799207,0.6417489,9.52582,2.23994
1409351299422,0.45370123,9.6767645,2.0979192,0.63281834,9.526824,2.2381992
1409351299423,0.4417302,9.585785,2.0524294,0.62496847,9.527766,2.2364047
1409351299431,0.44113165,9.503783,2.0416555,0.61858726,9.528742,2.2340164
1409351299448,0.4890157,9.44752,2.0626047,0.6138959,9.52978,2.2308757
1409351299465,0.54767364,9.391256,2.107496,0.61156714,9.530789,2.2271998
1409351299466,0.6302736,9.297882,2.1721394,0.6121806,9.531631,2.2234254
1409351299482,0.7445967,9.23264,2.2391772,0.61622286,9.532143,2.2201188
1409351299486,0.87328506,9.24521,2.3235726,0.62376904,9.532473,2.2165911
1409351299491,0.95349085,9.336189,2.4007857,0.63477004,9.532777,2.2121565
1409351299499,1.0307038,9.456498,2.4181437,0.6487857,9.533301,2.2058196
1409351299520,1.1312603,9.540894,2.4121583,0.66474754,9.534156,2.1973634
1409351299521,1.2593501,9.61691,2.4091654,0.68187666,9.535069,2.1881313
1409351299531,1.3551182,9.7240505,2.4061728,0.699934,9.536019,2.178259
1409351299551,1.4197617,9.812635,2.3241713,0.7183061,9.536993,2.1679964
1409351299553,1.4407109,9.822212,2.1865046,0.7366794,9.538144,2.1567385
1409351299560,1.4131776,9.8276,2.148796,0.7544088,9.539479,2.144667
1409351299591,1.389834,9.886856,2.082357,0.76995677,9.540652,2.1338937
1409351299593,1.3395559,9.979631,2.088941,0.7838602,9.54176,2.123865
1409351299595,1.2551602,10.075399,2.078167,0.795593,9.542779,2.1148944
1409351299600,1.158195,10.116699,2.079364,0.80487204,9.543652,2.1074405
1409351299620,1.0594343,10.096947,2.0620062,0.8117793,9.5439415,2.1034734
1409351299622,0.9528923,10.019135,2.0290859,0.8163959,9.54399,2.101463
1409351299648,0.8463503,9.925761,1.9794062,0.8189754,9.543454,2.1028883
1409351299651,0.7433996,9.882666,1.9363106,0.81910455,9.542635,2.106555
1409351299668,0.65301853,9.813234,1.857302,0.8164859,9.541636,2.112095
1409351299670,0.5351041,9.718663,1.8148049,0.81154114,9.540513,2.1190608
1409351299672,0.45789108,9.618706,1.7956513,0.8040765,9.5395355,2.1262848
1409351299680,0.38187516,9.503783,1.7597382,0.7941955,9.538723,2.1336422
1409351299702,0.33877954,9.419388,1.7806876,0.7830156,9.538174,2.14021
1409351299704,0.3250129,9.357738,1.8710686,0.77171504,9.537899,2.145539
1409351299711,0.30047232,9.367314,1.9309237,0.76061845,9.537651,2.1506028
1409351299737,0.29149407,9.4217825,1.9446903,0.75025284,9.537537,2.1547453
1409351299739,0.30047232,9.442133,1.9003977,0.74085903,9.537607,2.1576772
1409351299741,0.374094,9.43076,1.8267759,0.7325179,9.538156,2.158104
1409351299774,0.4902128,9.476849,1.7812861,0.72635967,9.539067,2.1561534
1409351299776,0.57760113,9.551667,1.7250223,0.72246206,9.540208,2.1524124
1409351299779,0.6655881,9.614515,1.7256209,0.7206676,9.541609,2.146794
1409351299782,0.7745243,9.685743,1.7483658,0.72093004,9.543113,2.1400137
1409351299807,0.8499416,9.7641535,1.8022354,0.7231296,9.544593,2.1326656
1409351299808,0.92895025,9.821614,1.8980033,0.7267583,9.545721,2.1263633
1409351299816,0.96665895,9.876082,1.9249382,0.7320257,9.546374,2.1216233
1409351299839,0.98341835,9.894038,1.9357121,0.7381986,9.546799,2.1175692
1409351299841,0.96905315,9.872491,1.9363106,0.74442077,9.547077,2.1141362
1409351299844,0.92176765,9.848549,1.9189527,0.7502333,9.547285,2.1111388
1409351299861,0.866701,9.809643,1.8968062,0.7553148,9.547298,2.109266
1409351299862,0.8463503,9.797672,1.8896236,0.75924253,9.547118,2.108665
1409351299877,0.8283938,9.799467,1.8423382,0.76192224,9.546723,2.109484
1409351299880,0.81522566,9.773131,1.7956513,0.76236707,9.546408,2.1107547
1409351299904,0.7918822,9.7324295,1.7776948,0.76081485,9.546374,2.1114686
1409351299906,0.7679402,9.698911,1.8100165,0.7574781,9.546423,2.112445
1409351299912,0.7314286,9.667787,1.8447324,0.752612,9.546369,2.1144302
1409351299937,0.6979098,9.649231,1.8309658,0.74665046,9.546325,2.116739
1409351299939,0.6362591,9.594165,1.8082209,0.7398831,9.546416,2.1187055
1409351299942,0.61890113,9.586982,1.8237832,0.73223525,9.546653,2.1202977
1409351299969,0.5907693,9.563639,1.8166006,0.72448915,9.547002,2.1213844
1409351299972,0.581791,9.589975,1.8363527,0.7164178,9.547301,2.1227813
1409351299974,0.60573304,9.601946,1.821389,0.7081635,9.5476,2.1242092
1409351299980,0.61411273,9.582193,1.8249803,0.7002242,9.548046,2.1248336
1409351300000,0.66259533,9.537901,1.827973,0.6924273,9.548623,2.1247938
1409351300012,0.7026982,9.482835,1.8381484,0.68529433,9.549232,2.1243718
1409351300014,0.7188591,9.464279,1.8543092,0.6791361,9.5499325,2.123194
1409351300054,0.7553706,9.457097,1.8980033,0.67370564,9.550635,2.1217654
1409351300056,0.78050977,9.458893,1.9303252,0.669301,9.551258,2.120352
1409351300057,0.80205756,9.469068,1.9440918,0.6659414,9.5517435,2.1192234
1409351300074,0.80684596,9.514558,1.9363106,0.6631234,9.552179,2.1181471
1409351300075,0.8146271,9.520543,1.934515,0.66123545,9.552756,2.1161354
1409351300076,0.84335756,9.533113,1.9129672,0.660316,9.55341,2.1134698
1409351300080,0.8631097,9.5732155,1.9075803,0.66003394,9.55414,2.1102521
1409351300102,0.8607155,9.613917,1.8956091,0.66001904,9.554937,2.1066415
1409351300104,0.8391677,9.631873,1.9375077,0.66103816,9.555758,2.1025913
1409351300114,0.7966706,9.627684,1.99437,0.66249216,9.556483,2.0988388
1409351300135,0.7398083,9.609129,1.9764135,0.6642083,9.556852,2.0966182
1409351300138,0.7140707,9.603143,1.9387048,0.6657538,9.557035,2.0952866
1409351300140,0.7170634,9.586384,1.9446903,0.6673165,9.557209,2.0940018
1409351300164,0.7116765,9.57142,1.9506758,0.6689745,9.557384,2.0926774
1409351300166,0.7218518,9.598953,1.929128,0.67061937,9.557536,2.0914514
1409351300176,0.7308301,9.611523,1.9357121,0.67256844,9.557695,2.0900996
1409351300181,0.6919243,9.633669,1.965041,0.67491674,9.557849,2.0886383
1409351300196,0.670975,9.635465,2.0189106,0.6770166,9.557996,2.0872862
1409351300215,0.6434417,9.654618,2.0362685,0.6784569,9.55811,2.0862994
1409351300218,0.59495914,9.668385,2.0015526,0.67969143,9.558243,2.0852818
1409351300220,0.5847838,9.65821,1.9758149,0.68026865,9.558469,2.0840545
1409351300251,0.57760113,9.628283,2.0099323,0.6804259,9.558917,2.0819523
1409351300253,0.60094464,9.6049385,2.007538,0.6804896,9.559295,2.0802011
1409351300254,0.57520694,9.6288805,2.0147207,0.6805773,9.5596,2.0787604
1409351300260,0.5650316,9.631873,2.0099323,0.6802315,9.560003,2.0770261
1409351300276,0.54887074,9.63726,2.030283,0.6795494,9.560608,2.074463
1409351300280,0.5315128,9.644443,1.9925743,0.67913175,9.561151,2.0720928
1409351300294,0.5398925,9.652225,2.0021513,0.67884004,9.561746,2.069439
1409351300309,0.557849,9.659407,1.9608512,0.67841744,9.562244,2.067275
1409351300311,0.581791,9.665991,1.9405005,0.67813486,9.562839,2.0646203
1409351300325,0.623091,9.671976,1.963844,0.67791533,9.563596,2.061182
1409351300344,0.6733692,9.668983,1.9937714,0.6780305,9.5642805,2.0579596
1409351300345,0.7104794,9.66659,2.0159178,0.6785449,9.564694,2.0558677
1409351300361,0.7541735,9.655217,2.055422,0.6791063,9.565017,2.0541847
1409351300362,0.7763199,9.61691,2.0452468,0.6798674,9.565207,2.0530438
1409351300379,0.7978677,9.566033,2.0721815,0.68060356,9.565355,2.052105
1409351300381,0.82719666,9.555259,2.067393,0.68158495,9.5654125,2.0515187
1409351300393,0.86610246,9.585785,2.0392613,0.6833035,9.565431,2.0508618
1409351300409,0.9283517,9.5732155,2.0416555,0.6854145,9.565557,2.0495682
1409351300431,1.009156,9.558251,2.0572178,0.688243,9.565601,2.0484097
1409351300432,1.0510546,9.570822,2.0913353,0.69198716,9.565481,2.0477083
1409351300434,1.0905589,9.566033,2.0937295,0.6962068,9.565292,2.047164
1409351300440,1.1174936,9.527127,2.1164744,0.7009876,9.564993,2.0469315
1409351300461,1.103727,9.528324,2.1152773,0.70616645,9.56461,2.0469425
1409351300462,1.049259,9.533113,2.12246,0.71192193,9.564235,2.046697
1409351300477,1.0079589,9.543886,2.1499932,0.71800536,9.563847,2.0463932
1409351300480,0.95588505,9.582792,2.1003134,0.72368693,9.563427,2.0463498
1409351300498,0.82480246,9.6528225,2.0201077,0.7294386,9.5631075,2.045801
1409351300500,0.75836337,9.598953,2.0141222,0.73458886,9.562971,2.0445898
1409351300512,0.70509243,9.596559,2.0326772,0.73948336,9.562967,2.0428503
1409351300534,0.6937199,9.596559,2.0362685,0.74437606,9.56285,2.041617
1409351300536,0.6751649,9.583989,2.0500352,0.7495529,9.562682,2.0405068
1409351300540,0.6278794,9.565434,2.0452468,0.7547642,9.562353,2.04013
1409351300567,0.58298814,9.555259,2.0626047,0.75966805,9.561904,2.0404122
1409351300569,0.521936,9.540296,2.0913353,0.764042,9.561493,2.040705
1409351300572,0.46208093,9.543886,2.0883424,0.76766926,9.561166,2.040881
1409351300582,0.42197806,9.548675,2.1272483,0.7708435,9.560905,2.0409002
1409351300604,0.36870706,9.601946,2.1398177,0.7733272,9.56063,2.041255
1409351300606,0.30645782,9.630676,2.1523874,0.77487147,9.560542,2.0410802
1409351300613,0.2873042,9.656414,2.1721394,0.7747998,9.560614,2.0407822
1409351300634,0.25857377,9.694721,2.1547816,0.7738591,9.560945,2.0395827
1409351300636,0.25139117,9.69951,2.1631613,0.7719781,9.561504,2.0376673
1409351300642,0.27593175,9.694122,2.1428106,0.76965517,9.562037,2.0360441
1409351300666,0.29328972,9.697116,2.1362264,0.76729023,9.56264,2.0341077
1409351300668,0.29688102,9.665392,2.1296425,0.76471364,9.563289,2.0320244
1409351300673,0.3369839,9.57561,2.1511903,0.7624346,9.563935,2.029833
1409351300702,0.39743748,9.569026,2.2218192,0.760807,9.5646105,2.0272682
1409351300704,0.44771573,9.537901,2.2140381,0.76003015,9.565188,2.0248306
1409351300706,0.41718966,9.541492,2.291251,0.75963414,9.565826,2.0219624
1409351300738,0.4758476,9.59177,2.3014264,0.7594138,9.566312,2.0197499
1409351300740,0.51116204,9.621698,2.2056582,0.7592039,9.566652,2.0182061
1409351300742,0.54527944,9.627684,2.19249,0.75892514,9.567137,2.0160172
1409351300744,0.5518635,9.607931,2.1877017,0.75890434,9.567924,2.012293
1409351300758,0.45489833,9.607931,2.1631613,0.7584432,9.568877,2.0079238
1409351300761,0.39444473,9.610326,2.1068976,0.75659406,9.570033,2.0031092
1409351300777,0.38187516,9.628283,2.086547,0.7536396,9.571576,1.9968367
1409351300791,0.3345897,9.683948,2.0931308,0.75057817,9.573134,1.9905127
1409351300793,0.3716998,9.6528225,2.034473,0.7474226,9.574624,1.9845155
1409351300807,0.5626374,9.557653,2.0057425,0.7448194,9.57622,1.9777942
1409351300813,0.7314286,9.576807,2.099715,0.74422175,9.577979,1.9694747
1409351300825,0.85173726,9.674969,2.124854,0.74508685,9.579594,1.9612756
1409351300842,0.7398083,9.894637,2.1535845,0.74618953,9.581359,1.9522166
1409351300843,0.6667852,9.944916,2.1272483,0.745382,9.583771,1.9406554
1409351300861,0.6655881,9.860519,2.0590134,0.7433987,9.586316,1.9288036
1409351300863,0.66498953,9.803658,2.0141222,0.74051297,9.58854,1.9188358
1409351300875,0.47225627,9.943718,1.9644425,0.7363459,9.590473,1.91076
1409351300897,0.7284359,9.713875,1.79206,0.7289359,9.592885,1.9014754
1409351300900,0.98222125,9.4535055,1.8842367,0.72334296,9.595373,1.8910307
1409351300902,0.9911995,9.466075,2.0260932,0.72014445,9.597231,1.882803
1409351300913,0.99419224,9.49301,2.0099323,0.71682346,9.598191,1.8791695
1409351300936,0.94930094,9.603143,1.9285295,0.71073216,9.598878,1.8779713
1409351300938,0.81163436,9.904214,1.8884265,0.702109,9.600428,1.8732997
1409351300942,0.7870938,9.953295,1.7902644,0.6917472,9.603102,1.8634161
1409351300963,0.7769185,9.8916445,1.7986441,0.68096715,9.606296,1.8508862
1409351300965,0.8882488,9.74859,1.7884687,0.67119104,9.609187,1.8394016
1409351300972,0.99898064,9.609129,1.7968484,0.66453445,9.611216,1.8312001
1409351300994,1.0540473,9.604341,1.8237832,0.66018975,9.612398,1.8265702
1409351300998,1.073201,9.615712,1.8501194,0.6567404,9.613251,1.8233207
1409351301019,1.0708067,9.497798,1.7992426,0.6539052,9.614194,1.819359
1409351301021,1.0875661,9.650429,1.8537107,0.65123457,9.615297,1.8144858
1409351301023,1.039682,9.664794,1.857302,0.64836925,9.616477,1.8092484
1409351301063,0.9648633,9.621698,1.8363527,0.64443946,9.61758,1.8047856
1409351301069,0.93134445,9.600749,1.8219875,0.6402283,9.618618,1.8007494
1409351301072,0.9708488,9.564836,1.8549078,0.63611734,9.619397,1.7980391
1409351301078,1.1001357,9.478046,1.9003977,0.6317481,9.619872,1.7970442
1409351301082,1.3215994,9.28232,1.9087774,0.6278417,9.620024,1.797603
1409351301109,1.2180501,9.299079,2.0913353,0.6247458,9.6201315,1.7981015
1409351301111,0.7697359,9.572019,2.1589713,0.6188763,9.6203375,1.7990274
1409351301113,0.42916065,10.209475,1.9913772,0.6058017,9.621226,1.7987276
1409351301129,0.2837129,10.248979,1.7166426,0.5860878,9.623198,1.7947009
1409351301130,0.26755205,10.034698,1.584363,0.5649223,9.626414,1.7842145
1409351301135,0.30645782,9.8916445,1.5933412,0.5478014,9.629903,1.7706717
1409351301141,0.35913026,9.772532,1.5783775,0.5364634,9.632172,1.7617782
1409351301156,0.41180268,9.649231,1.6154876,0.5282552,9.632941,1.7600603
1409351301161,0.31543607,9.7162695,1.7525556,0.52093965,9.632811,1.7629479
1409351301174,0.14963761,9.822212,1.83336,0.5123045,9.632424,1.7675755
1409351301189,0.047285482,9.883265,1.7986441,0.50149,9.632135,1.7722529
1409351301195,-0.017956512,9.958682,1.6927006,0.48958063,9.632223,1.7751048
1409351301206,0.093972415,9.919776,1.6214731,0.47782707,9.632847,1.7749242
1409351301223,0.24600422,9.837176,1.5717934,0.4690268,9.6335535,1.7734354
1409351301224,0.3286042,9.701904,1.6543933,0.46288115,9.634175,1.7716689
1409351301239,0.38965634,9.634268,1.7130513,0.459125,9.633853,1.7743957
1409351301241,0.66738373,9.560047,1.7298107,0.455598,9.632933,1.7802942
1409351301258,0.7469909,9.655815,1.780089,0.45395988,9.631798,1.7868396
1409351301261,0.770933,9.727641,1.7902644,0.45329177,9.630741,1.7926906
1409351301273,0.7386112,9.796474,1.785476,0.4521534,9.629994,1.7969811
1409351301292,0.7350199,9.810242,1.7729063,0.449948,9.629675,1.7992501
1409351301293,0.7380127,9.770139,1.7501614,0.44780982,9.62953,1.8005595
1409351301306,0.7445967,9.683948,1.751957,0.44616732,9.629117,1.8031718
1409351301324,0.694917,9.65821,1.7687165,0.44487494,9.628231,1.8082279
1409351301325,0.6859388,9.632472,1.7298107,0.44326547,9.627058,1.8148534
1409351301341,0.5710171,9.623494,1.7340006,0.44143942,9.625882,1.8215122
1409351301342,0.57161564,9.581595,1.6609775,0.4382298,9.624896,1.8274919
1409351301356,0.5542577,9.60015,1.6741456,0.4330004,9.624293,1.8319092
1409351301361,0.54647654,9.645041,1.7046716,0.42626873,9.623697,1.8366152
1409351301375,0.6422446,9.662998,1.6597804,0.41996816,9.623072,1.8413293
1409351301390,0.8912416,9.469068,1.5819688,0.41527972,9.622434,1.8457232
1409351301393,1.1731589,9.339781,1.6035166,0.41356736,9.62178,1.8495085
1409351301406,1.0336965,9.427169,1.9877859,0.41371086,9.6209755,1.8536639
1409351301421,0.88525605,9.321824,1.982399,0.4104729,9.619751,1.8607215
1409351301423,0.5255273,9.809643,1.5544355,0.40494305,9.620063,1.8603239
1409351301442,0.053869538,10.22384,1.3976152,0.39657035,9.623177,1.8459681
1409351301443,-0.13347675,10.225636,1.4478935,0.38331777,9.629991,1.8129438
1409351301459,-0.21787235,10.289082,1.3730747,0.36744392,9.635074,1.7890608
1409351301475,-0.078410104,10.009559,1.2791022,0.351779,9.63657,1.7841398
1409351301476,0.7811083,9.16261,1.5304934,0.34072074,9.635431,1.79242
1409351301488,0.79008657,8.749012,2.2535424,0.34284636,9.631739,1.8117625
1409351301507,0.55006784,8.925584,2.1631613,0.34880525,9.624937,1.8464386
1409351301508,0.5386954,9.135675,1.9027919,0.3508365,9.617529,1.8842648
1409351301527,0.4961983,9.384672,1.8734628,0.34949294,9.613174,1.9066017
1409351301528,0.3657143,9.714474,1.8034325,0.34759998,9.612013,1.9127924
1409351301532,0.23582886,9.895236,1.6418238,0.34361675,9.612181,1.9126667
1409351301541,0.076614454,9.953894,1.5179238,0.33735535,9.612954,1.9098978
1409351301556,0.09756372,9.888053,1.4460979,0.32944912,9.614554,1.9032068
1409351301573,0.23642741,9.81084,1.5011644,0.32422087,9.616307,1.8952363
1409351301576,0.26874915,9.7803135,1.6651673,0.3246952,9.617383,1.8896856
1409351301593,0.2208651,9.675568,1.7555484,0.32836306,9.617652,1.887679
1409351301594,0.17298107,9.534908,1.8417397,0.331568,9.617365,1.8885885
1409351301610,0.16579847,9.461885,1.8794483,0.33211336,9.616552,1.8926206
1409351301617,0.3226187,9.347562,1.8064252,0.32979426,9.6153965,1.8988872
1409351301621,0.35793316,9.405622,1.8118122,0.32731473,9.614273,1.9049914
1409351301642,0.32800564,9.506777,1.8285716,0.32559946,9.613366,1.9098628
1409351301643,0.35075054,9.497798,1.87047,0.3246271,9.612696,1.9133968
1409351301657,0.4985925,9.442133,1.8632874,0.32454264,9.612061,1.916607
1409351301670,0.682946,9.32781,1.9189527,0.32637775,9.611671,1.9182402
1409351301675,0.50876784,9.610326,2.0811598,0.330802,9.611438,1.9186453
1409351301690,0.219668,9.981427,2.0470424,0.3338833,9.611495,1.9178392
1409351301693,0.19931729,9.902418,1.809418,0.33357525,9.61248,1.9129443
1409351301706,0.2837129,9.881469,1.7603368,0.33366525,9.614443,1.9030437
1409351301723,0.39025488,9.82341,1.7962499,0.33629182,9.616285,1.8932431
1409351301724,0.4165911,9.880871,1.8381484,0.34138855,9.617082,1.8882799
1409351301741,0.37708676,9.977836,1.8357542,0.34754094,9.617093,1.887102
1409351301742,0.6135142,9.19134,1.6801311,0.35290596,9.6171875,1.885622
1409351301758,0.34237084,9.703699,1.9985598,0.35888124,9.617316,1.8838294
1409351301773,0.4842273,9.64145,1.9231426,0.3618097,9.616931,1.8852415
1409351301774,0.54168814,9.742605,1.9434932,0.36532208,9.61631,1.8877305
1409351301789,0.55964464,9.801862,1.9662381,0.36986178,9.616343,1.8866806
1409351301806,0.6841431,9.5492735,1.8531121,0.37664488,9.616659,1.8837253
1409351301807,0.7380127,9.464878,1.9554642,0.38556203,9.616612,1.8821553
1409351301823,0.82121116,9.289502,2.0081367,0.39442018,9.616105,1.8829163
1409351301824,0.88046765,9.300277,2.0817583,0.4017454,9.6154,1.8849651
1409351301840,0.89303726,9.350554,2.1021092,0.40549365,9.614528,1.8886049
1409351301842,0.19273324,10.42615,2.4181437,0.40601623,9.613583,1.8933039
1409351301856,0.26396075,10.855909,1.9327193,0.39666563,9.612819,1.8991549
1409351301874,0.48722005,10.427945,1.4736311,0.385866,9.613403,1.8984154
1409351301875,0.66738373,9.969456,1.5993267,0.37787822,9.615315,1.8903269
1409351301887,0.7870938,9.522937,1.917157,0.3818547,9.616465,1.8836639
1409351301902,0.91219085,9.044097,2.144606,0.3929466,9.615187,1.8878988
1409351301903,0.88525605,8.942942,2.3157916,0.40371847,9.612002,1.9017946
1409351301925,0.682946,9.172187,2.3888147,0.41032648,9.608484,1.918087
1409351301926,0.45130703,9.527725,2.3600843,0.4092162,9.605822,1.9316193
1409351301941,0.36391866,9.809045,2.211644,0.4010086,9.604518,1.9398009
1409351301942,0.39803603,9.903017,2.0099323,0.39178398,9.604926,1.9396628
1409351301955,0.47884035,9.920973,1.9578584,0.38673168,9.606703,1.9318613
1409351301971,0.5363012,9.762358,2.0506337,0.38460985,9.6084795,1.9234331
1409351301987,0.47884035,9.60853,2.171541,0.38248572,9.609696,1.9177696
1409351301988,0.29688102,9.509171,2.2798786,0.37711045,9.609968,1.9174657
1409351302004,-0.44651863,9.687539,2.0392613,0.36782795,9.6098385,1.9199288
1409351302005,-0.11312603,9.1590185,1.5795746,0.35115182,9.610713,1.9186715
1409351302022,0.12808979,9.799467,2.043451,0.3403104,9.612631,1.9110014
1409351302023,0.007182605,9.92636,2.0386627,0.33190438,9.61361,1.9075499
1409351302039,0.3549404,9.238028,2.0320787,0.32181787,9.6141815,1.9063954
1409351302042,-0.29328972,9.210494,2.6839,0.32058483,9.615404,1.9004309
1409351302054,-0.45310268,9.333796,2.445677,0.31543636,9.616514,1.8956683
1409351302070,-0.05566519,8.500613,2.0452468,0.30694267,9.618281,1.8880806
1409351302073,-0.6835446,8.854357,2.7688942,0.30427316,9.620518,1.8770887
1409351302090,-0.24540567,8.938752,2.0099323,0.29650927,9.622037,1.8705314
1409351302106,-0.0023942017,8.747216,1.982399,0.2872244,9.624318,1.8602176
1409351302107,-0.42078096,9.136872,2.6910827,0.27910015,9.627402,1.845431
1409351302127,-0.17477672,8.991425,2.2110453,0.26583064,9.630304,1.8322079
1409351302129,-0.20590134,9.215881,2.5157075,0.24935763,9.633274,1.8188621
1409351302133,-0.17417817,10.10413,2.207454,0.23501638,9.635685,1.8079584
1409351302165,0.16400282,10.21127,1.9231426,0.22170916,9.639199,1.7908267
1409351302167,0.36032736,10.433332,1.958457,0.2118135,9.6435175,1.7686387
1409351302169,0.4261679,10.465654,1.9596541,0.20719285,9.646385,1.753492
1409351302174,0.5033809,10.394426,1.8423382,0.2060618,9.647431,1.7478596
1409351302197,0.6757634,9.89344,1.9752164,0.20584348,9.647999,1.7447505
1409351302199,0.7326257,9.808446,2.1960814,0.20634645,9.647039,1.7499902
1409351302202,0.6332663,9.679159,2.32058,0.20730186,9.644499,1.7638183
1409351302227,0.40402153,9.2547865,2.574964,0.20626463,9.640515,1.7855893
1409351302229,0.22146365,8.859145,2.5378537,0.20198739,9.636029,1.8101217
1409351302233,0.25977087,8.582016,2.3409307,0.19598025,9.633033,1.8266509
1409351302242,0.504578,8.620922,2.0679917,0.18912119,9.632349,1.8309786
1409351302267,0.75477207,9.003395,1.9015948,0.1807824,9.6344795,1.82058
1409351302269,0.84216046,9.276335,1.8171991,0.17072248,9.639162,1.796607
1409351302301,0.81043726,9.425373,1.690905,0.15930296,9.645949,1.7608728
1409351302303,0.5386954,9.324219,1.7052702,0.14777854,9.654744,1.7130291
1409351302305,-0.017357962,9.48882,1.6262615,0.13414544,9.664086,1.6606799
1409351302308,-0.059855044,10.496181,0.8984242,0.113568224,9.674489,1.6005454
1409351302345,1.8405426,11.319187,-0.25019407,0.08682605,9.685441,1.5346365
1409351302346,1.4508862,8.8567505,1.1827357,0.077808045,9.696021,1.4668021
1409351302347,0.20290859,9.183559,1.6460136,0.06410364,9.700281,1.4390403
1409351302348,-0.29867667,9.912594,1.5993267,0.030675124,9.70059,1.4380542
1409351302353,-0.3728969,10.1861315,1.3892355,-0.013037177,9.699171,1.4478707
1409351302373,-0.015562311,10.355521,0.4357447,-0.050418813,9.698474,1.4517121
1409351302375,-0.14544775,10.214263,0.25917232,-0.07648557,9.701387,1.4309646
1409351302391,-0.14724341,9.93893,0.16819267,-0.09427257,9.706905,1.3919302
1409351302396,0.30107087,9.676167,0.15741876,-0.108308695,9.713115,1.3468788
1409351302402,0.59855044,9.695918,0.32561144,-0.11718027,9.719409,1.2999054
1409351302423,0.99778354,9.931747,0.38367084,-0.12766324,9.724229,1.2623317
1409351302425,1.0097545,9.991004,0.61171854,-0.1383838,9.727784,1.2334692
1409351302437,0.66139823,10.223241,0.9528923,-0.15050825,9.73061,1.2095418
1409351302460,0.34596214,10.235811,1.1312603,-0.16510698,9.733431,1.1846809
1409351302463,0.046686932,10.389638,1.0749966,-0.18455139,9.736232,1.1585048
1409351302465,-0.2837129,10.718243,0.86490536,-0.20930092,9.738789,1.1325141
1409351302474,-0.7577648,10.624868,0.8002619,-0.2377648,9.741259,1.1053187
1409351302497,-0.9020155,9.830592,0.51834464,-0.26783055,9.743705,1.0765064
1409351302500,-0.8218097,9.451111,0.2693477,-0.29204878,9.746634,1.0431956
1409351302503,-0.5057751,9.713875,0.16879122,-0.31103784,9.749901,1.0065234
1409351302531,-0.41359833,10.183139,0.11372458,-0.31961071,9.753911,0.96409464
1409351302534,-0.49440265,10.22384,-0.019752163,-0.32302696,9.758458,0.9157143
1409351302536,-0.76315176,10.237606,0.09696517,-0.32812867,9.762815,0.86612934
1409351302563,-1.3856442,9.962274,0.32561144,-0.3385013,9.76602,0.8250246
1409351302565,-1.4646529,10.505757,-0.24181437,-0.35470366,9.767855,0.7959873
1409351302567,-0.39504328,10.793061,-0.50038815,-0.3637357,9.769825,0.7672101
1409351302599,0.7338228,11.090541,-0.33638534,-0.34546298,9.772631,0.7394266
1409351302602,1.0726024,11.209652,0.18495208,-0.29842883,9.775672,0.7194319
1409351302607,1.0247183,10.974422,0.51834464,-0.24241059,9.777561,0.7148025
1409351302609,0.37349546,10.33517,0.8762778,-0.19361645,9.778393,0.7182874
1409351302649,-0.21068975,9.592369,1.0109516,-0.15512247,9.778281,0.7290771
1409351302652,-0.19991584,9.207501,0.88645315,-0.12660189,9.778137,0.73649174
1409351302655,0.30286652,9.583989,0.5530606,-0.09825755,9.778534,0.73554134
1409351302656,0.48123455,10.122087,0.3681085,-0.06416648,9.779487,0.72658116
1409351302658,0.6159084,10.4171715,0.47225627,-0.027692309,9.7805,0.71515375
1409351302684,0.59136784,10.433332,0.75477207,0.008934417,9.7810135,0.70859367
1409351302686,0.3764882,10.381857,0.86251116,0.045035075,9.780607,0.71280164
1409351302688,0.53211135,10.552444,1.0013748,0.08335458,9.77941,0.7256553
1409351302711,0.32561144,10.237008,1.009156,0.12733576,9.777727,0.74176353
1409351302713,0.32202014,10.505757,0.8690952,0.17053895,9.775871,0.75739074
1409351302714,0.35254622,10.484808,0.55605334,0.21154374,9.774001,0.771068
1409351302722,0.6937199,10.247183,0.22445641,0.24910161,9.772035,0.78465754
1409351302741,0.9235633,9.936536,0.272939,0.28978607,9.76937,0.80363697
1409351302743,1.0720038,9.767146,0.85054016,0.3350389,9.765645,0.83086455
1409351302756,0.9756372,9.65821,0.93254155,0.38372722,9.760603,0.8681986
1409351302772,0.7044938,9.003395,0.97623575,0.43074325,9.754948,0.9087743
1409351302774,0.99538934,9.285313,1.062427,0.46804628,9.7492895,0.9500883
1409351302789,0.97144735,9.444528,1.1659763,0.49911126,9.743699,0.9907588
1409351302806,0.8463503,9.382876,1.1270704,0.5230068,9.738494,1.0288767
1409351302808,0.52373165,9.150041,1.1001357,0.544099,9.733456,1.0649749
1409351302816,0.17776948,8.792706,1.1198878,0.5632345,9.728129,1.103032
1409351302822,0.08798691,8.743026,1.0941502,0.57854635,9.722385,1.1449474
1409351302838,0.03232172,8.749012,0.91458505,0.58765376,9.715668,1.1961884
1409351302854,-0.012569559,8.7532015,1.0199299,0.5863132,9.708643,1.2525498
1409351302855,0.107140526,9.173384,1.1174936,0.5783863,9.701701,1.3087621
1409351302868,0.05267244,9.213487,1.0199299,0.57219654,9.6951885,1.3587966
1409351302887,0.1592144,9.178771,0.91338795,0.5691006,9.689771,1.3981636
1409351302888,-0.12749124,8.907029,0.99179804,0.5684459,9.68522,1.4296097
1409351302906,-0.16759412,8.661623,1.2072762,0.5608847,9.681267,1.459062
1409351302907,0.11312603,8.747814,1.204882,0.5420973,9.678009,1.4875025
1409351302914,0.24241292,8.914211,1.1629834,0.5146502,9.676633,1.5060897
1409351302940,0.26276365,9.20391,1.115698,0.47864875,9.676733,1.5172774
1409351302944,-0.12749124,9.43495,1.2808979,0.43876392,9.679394,1.5123663
1409351302946,-0.31483752,9.564238,1.340753,0.3907773,9.684559,1.4923136
1409351302954,-0.47465047,9.745,1.311424,0.3419405,9.691489,1.4589398
1409351302976,-0.557849,9.935339,1.3024458,0.29527417,9.699536,1.4149989
1409351302978,-0.6745663,9.843162,1.1599907,0.25101388,9.707674,1.3669132
1409351302982,-0.62368953,9.81503,1.0354922,0.20687939,9.715396,1.3185908
1409351303009,-0.5009867,9.848549,0.8846575,0.16202319,9.722572,1.2711089
1409351303011,-0.43155485,9.795278,0.729633,0.11849077,9.7292795,1.2237101
1409351303014,-0.37469256,9.667188,0.8026561,0.0792733,9.735346,1.1777725
1409351303023,-0.35254622,9.628283,1.0450691,0.043744598,9.740232,1.1385931
1409351303046,-0.45250413,9.603143,1.316811,0.0098896725,9.744022,1.1064924
1409351303048,-1.0324994,9.533711,1.4694413,-0.022050211,9.746137,1.0875223
1409351303070,-1.1264719,9.566033,1.5831659,-0.057095367,9.747097,1.0775994
1409351303071,-1.0941502,9.74859,1.4909891,-0.09408647,9.747446,1.0718349
1409351303087,-0.7763199,9.892242,1.2156559,-0.13208346,9.747536,1.0670061
1409351303088,-0.66259533,10.04607,0.76315176,-0.16765681,9.747906,1.058596
1409351303112,-0.31902736,10.206482,0.64703304,-0.20135698,9.748872,1.0437281
1409351303113,0.12749124,10.157401,0.8074445,-0.22703762,9.749996,1.027828
1409351303116,0.24480712,10.085575,1.0851719,-0.23893782,9.750786,1.0175942
1409351303123,0.04189853,9.949105,1.1833342,-0.24163926,9.750967,1.0152111
1409351303148,-0.13587095,9.746197,1.371279,-0.24233934,9.750668,1.0179098
1409351303149,-0.23822308,9.633669,1.4047978,-0.24368636,9.749953,1.0244102
1409351303154,-0.4189853,9.667188,1.3730747,-0.24769792,9.748718,1.0351503
1409351303170,-0.57281274,9.617508,1.4754268,-0.25344506,9.747254,1.0474603
1409351303188,-0.5470751,9.654019,1.3611037,-0.25904053,9.745809,1.0594875
1409351303189,-0.5410896,9.609727,1.2856863,-0.26075125,9.744836,1.067991
1409351303204,-0.60573304,9.552865,1.2791022,-0.2573878,9.744398,1.0727783
1409351303205,-0.6194997,9.588778,1.3545196,-0.25223866,9.743941,1.0781506
1409351303221,-0.3441665,9.802461,1.2838906,-0.24602684,9.742958,1.0884212
1409351303233,-0.34117374,9.887454,1.447295,-0.23382732,9.741709,1.1021991
1409351303238,-0.54168814,9.871294,1.5586253,-0.21763031,9.740315,1.1177135
1409351303252,-0.7098808,9.772532,1.5939398,-0.2019781,9.7389,1.1328835
1409351303254,-0.7589619,9.674969,1.4502877,-0.1883032,9.737895,1.1438334
1409351303267,-0.66259533,9.60853,1.364695,-0.17725995,9.73753,1.1486937
1409351303284,-0.54288524,9.522937,1.4754268,-0.1688494,9.737489,1.1503075
1409351303285,-0.51834464,9.569624,1.4706384,-0.16070397,9.737342,1.1527005
1409351303301,-0.4381389,9.60853,1.4478935,-0.1532769,9.737359,1.1535867
1409351303303,-0.1945289,9.2865095,1.6454151,-0.14832896,9.737681,1.1515139
1409351303321,-0.6194997,9.835979,1.1007342,-0.14434731,9.737989,1.1493939
1409351303337,-0.39444473,10.375872,1.0181342,-0.14740208,9.739095,1.1395997
1409351303338,-0.1933318,10.089765,1.0426749,-0.1559708,9.740865,1.1232172
1409351303354,-0.15981296,9.920973,1.0833763,-0.16470903,9.7427025,1.1059008
1409351303369,-0.19752164,9.828198,1.1216835,-0.17044994,9.744128,1.0923867
1409351303370,0.18195933,10.669162,0.8265981,-0.17236272,9.744515,1.0886189
1409351303386,-0.22445641,10.653599,1.3772645,-0.1676715,9.74454,1.0891466
1409351303387,-0.05686229,11.002554,1.2988545,-0.1667904,9.7436,1.0976579
1409351303404,-0.3465607,10.278308,1.1378443,-0.16709487,9.744082,1.0933243
1409351303405,-0.3854665,10.223241,0.5554548,-0.17396171,9.745685,1.0778595
1409351303419,-0.39624038,10.118495,0.65660983,-0.18495433,9.748721,1.048146
1409351303432,-0.30945057,9.955689,0.8062474,-0.19942056,9.75189,1.0155127
1409351303434,-0.045489833,9.640852,0.8655039,-0.21598886,9.752935,1.0019927
1409351303451,0.08439561,9.629479,0.8463503,-0.23135479,9.752666,1.0011733
1409351303455,0.3369839,9.618107,0.7637503,-0.2455093,9.752274,1.0016344
1409351303466,0.38187516,9.623494,0.8367735,-0.25770023,9.752029,1.0009458
1409351303484,0.46148238,9.562442,0.9911995,-0.2698239,9.751821,0.9998118
1409351303486,0.47884035,9.583989,1.1204864,-0.2816492,9.751395,1.0006909
1409351303504,0.3309984,9.772532,1.0019734,-0.29389566,9.750746,1.0034815
1409351303506,0.25378537,9.850943,0.8331822,-0.30691427,9.750248,1.0044091
1409351303525,0.2657564,9.595961,0.9672575,-0.31931412,9.7500725,1.0022528
1409351303526,0.18555063,9.905411,0.6919243,-0.32927766,9.749883,1.0008751
1409351303537,0.23642741,9.859921,0.74878657,-0.33641493,9.749928,0.99804485
1409351303551,0.2765303,9.939528,0.81343,-0.34122533,9.749775,0.9979367
1409351303555,0.30047232,9.993398,0.8822633,-0.34420398,9.749341,1.0011364
1409351303568,0.2777274,9.983821,0.9552865,-0.34636316,9.748683,1.00677
1409351303586,0.30346507,9.933543,1.0444705,-0.34676787,9.747602,1.0170412
1409351303587,0.3196259,9.894637,1.0570401,-0.3453906,9.746247,1.0304186
1409351303601,0.28491,9.871892,1.0600328,-0.34301785,9.744805,1.0447434
1409351303603,0.25318682,9.829993,1.1174936,-0.33985332,9.743362,1.0591245
1409351303615,0.24899697,9.818622,1.1210849,-0.33583763,9.741893,1.073841
1409351303636,0.2753332,9.829993,1.0660183,-0.33171597,9.7403555,1.0889724
1409351303639,0.2789245,9.791088,1.027711,-0.3275786,9.738853,1.1035464
1409351303656,0.23283611,9.702502,1.0073603,-0.3237383,9.737455,1.1169482
1409351303658,0.14724341,9.738416,0.9403227,-0.32117143,9.7362585,1.1280559
1409351303663,0.10175357,9.635465,1.0067618,-0.31972864,9.735292,1.1367793
1409351303680,0.095768064,9.567828,1.055843,-0.31918538,9.734246,1.1458493
1409351303683,0.094570965,9.524733,1.2485762,-0.31947175,9.733059,1.155809
1409351303699,0.037110128,9.501988,1.3245921,-0.3200317,9.731577,1.1680741
1409351303703,-0.013766659,9.559449,1.3006501,-0.32131752,9.729934,1.1813328
1409351303718,-0.047884032,9.513959,1.2773066,-0.3233744,9.728382,1.1934844
1409351303734,-0.037708677,9.436148,1.198298,-0.32568085,9.727007,1.2040222
1409351303736,-0.06823475,9.352949,1.1474211,-0.32786444,9.725917,1.212209
1409351303748,-0.14664486,9.296685,1.1737574,-0.33030576,9.725096,1.2181238
1409351303763,-0.23044191,9.272743,1.2234371,-0.33278844,9.724505,1.2221423
1409351303764,-0.29328972,9.276335,1.1965023,-0.33495972,9.724175,1.2241824
1409351303783,-0.3657143,9.247005,1.1456255,-0.33681607,9.724194,1.2235289
1409351303784,-0.2100912,9.1590185,1.3838485,-0.33889514,9.724415,1.2211884
1409351303805,-0.43754035,9.224859,1.2006922,-0.3386794,9.724656,1.2193314
1409351303807,-0.23163901,9.270349,1.1145009,-0.33925086,9.725233,1.2145412
1409351303815,-0.23942018,9.284116,1.2545617,-0.33812037,9.726295,1.2063282
1409351303835,-0.18495208,9.3738985,1.3509283,-0.33624697,9.727553,1.1966794
1409351303838,-0.078410104,9.502586,1.4323312,-0.33208847,9.728755,1.1880361
1409351303856,0.036511578,9.6845455,1.5095441,-0.32632017,9.729801,1.1810552
1409351303857,0.21068975,9.898229,1.5101427,-0.31930736,9.7307205,1.1753782
1409351303863,0.31663316,10.086772,1.3108255,-0.31145906,9.731724,1.1691571
1409351303883,0.15801731,10.443508,0.98940384,-0.30424613,9.732963,1.1607313
1409351303884,0.0796072,10.625467,0.9540894,-0.29951268,9.734469,1.1492403
1409351303902,-0.05626374,10.551247,0.86370826,-0.2969711,9.735764,1.1389111
1409351303904,-0.24839842,10.470443,0.6697779,-0.29770532,9.736611,1.1314316
1409351303925,-0.3681085,10.406996,0.557849,-0.30331776,9.736995,1.1266519
1409351303927,-0.47225627,10.234015,0.4985925,-0.31339893,9.736964,1.1241467
1409351303935,-0.52133745,10.128072,0.53450555,-0.3272904,9.736619,1.1231852
1409351303961,-0.46267948,10.018537,0.6853402,-0.34433892,9.735909,1.124232
1409351303963,-0.42317516,9.921572,0.6835446,-0.36341152,9.734792,1.1279104
1409351303965,-0.4938041,9.805453,0.7906851,-0.38466954,9.73343,1.1325872
1409351303990,-0.5626374,9.725846,0.89782566,-0.4082083,9.731901,1.1374807
1409351303992,-0.58538234,9.667188,0.8439561,-0.4334235,9.73048,1.1403087
1409351304027,-0.664391,9.541492,0.84814596,-0.5100534,9.727046,1.1378964
1409351304028,-0.8714894,9.318831,0.88166475,-0.5100534,9.727046,1.1378964
1409351304031,-1.0402806,9.221268,0.7200562,-0.5100534,9.727046,1.1378964
1409351304033,-1.0833763,9.3661175,0.7978677,-0.53562415,9.7261915,1.1334406
1409351304036,-0.8774749,9.640852,0.96426475,-0.55973613,9.725738,1.1256653
1409351304068,-0.7835025,9.783307,0.88166475,-0.5814181,9.725675,1.1151673
1409351304071,-0.46986207,9.394848,0.74519527,-0.6038688,9.726006,1.1002631
1409351304073,-0.11312603,9.36492,0.6302736,-0.6263442,9.726816,1.0803531
1409351304099,0.14544775,9.24521,0.75716627,-0.646861,9.728,1.0573546
1409351304101,0.3890578,9.238028,0.7978677,-0.66398144,9.729304,1.034495
1409351304105,0.65062433,9.41041,0.87208796,-0.677557,9.730734,1.0119957
1409351304130,0.89184016,9.44752,0.93613285,-0.6885642,9.732244,0.98979896
1409351304133,1.0259154,9.416395,0.98940384,-0.69747245,9.733673,0.9692998
1409351304135,1.1456255,9.421184,1.0408791,-0.70532984,9.734884,0.95127374
1409351304165,1.2270284,9.521142,1.0899603,-0.71325964,9.735913,0.93469375
1409351304166,1.2138603,9.647436,1.1168951,-0.72144043,9.736876,0.91823775
1409351304167,1.1007342,9.796474,1.1186907,-0.7297322,9.737643,0.9034423
1409351304169,0.91697925,9.935937,0.9780314,-0.7396038,9.737943,0.8921032
1409351304188,0.7062895,10.035895,0.93732995,-0.752318,9.737734,0.88371235
1409351304203,0.52373165,10.051457,0.9959879,-0.76769954,9.736927,0.8793448
1409351304204,0.39983168,10.032304,1.0420763,-0.7847269,9.735594,0.8790958
1409351304215,0.29747957,9.985617,1.039682,-0.802593,9.734,0.8806249
1409351304217,0.2088941,9.865907,1.091756,-0.82087046,9.732069,0.8851
1409351304230,0.19093758,9.697714,1.0941502,-0.8407034,9.729591,0.89369714
1409351304235,0.16639702,9.52174,1.1013328,-0.86060447,9.726673,0.9064146
1409351304246,0.11911154,9.213487,0.98222125,-0.8814605,9.723393,0.92144734
1409351304261,0.109534726,9.115923,0.99299514,-0.9037055,9.719949,0.9361159
1409351304264,0.107140526,9.008782,0.9840169,-0.9257099,9.716464,0.9506764
1409351304278,5.985504E-4,9.037513,1.1240777,-0.94721,9.713096,0.96383864
1409351304284,-0.23642741,9.032125,0.74399817,-0.96856713,9.709776,0.9759686
1409351304296,-0.21308395,9.050681,0.7649474,-0.99217564,9.7067585,0.9822587
1409351304315,-0.17956513,9.106945,0.56443304,-1.0162013,9.703792,0.9870044
1409351304331,0.010773907,9.127894,0.4758476,-1.0385151,9.701106,0.9901684
1409351304332,-0.2172738,9.163807,0.23942018,-1.0565475,9.698813,0.9935481
1409351304336,0.05626374,9.349358,0.43634325,-1.0761819,9.696583,0.9942367
1409351304347,0.24959552,9.675568,0.5734113,-1.0950997,9.694393,0.9949276
1409351304363,0.427365,9.812037,0.6206968,-1.1100547,9.692526,0.9965508
1409351304365,0.5638345,9.777321,0.7302315,-1.1213484,9.690835,1.0003426
1409351304382,0.6194997,9.792884,0.79487497,-1.1324213,9.689051,1.0051626
1409351304385,0.7260417,9.974843,0.79846627,-1.1443986,9.687338,1.0080857
1409351304411,0.81761986,10.370484,0.5662287,-1.1565441,9.685886,1.0081624
1409351304413,1.0001777,10.857106,0.23882163,-1.1686934,9.684873,1.0038906
1409351304416,1.0031705,11.312603,0.24959552,-1.1802937,9.684367,0.9951462
1409351304440,0.93493575,11.71842,0.20051439,-1.1921647,9.683821,0.9862907
1409351304443,0.9816227,11.877036,0.21428105,-1.2066702,9.682749,0.97915834
1409351304445,1.4371196,11.891401,0.59855044,-1.2219791,9.681096,0.9765
1409351304470,1.7016789,11.841123,1.0432734,-1.2311922,9.679123,0.9844389
1409351304471,2.1709423,11.959038,1.6753427,-1.2351348,9.676418,1.0058657
1409351304475,1.9500773,12.029667,1.9021933,-1.2307026,9.672927,1.0441513
1409351304484,1.3120226,12.03625,2.2188265,-1.2250676,9.668116,1.0941455
1409351304508,0.40462008,11.808203,2.9191303,-1.2178613,9.66199,1.1546289
1409351304510,-0.36152446,11.53706,3.3716345,-1.2125828,9.653646,1.2276539
1409351304516,-0.92895025,11.183915,3.3806129,-1.2102541,9.643903,1.3041478
1409351304544,-1.4568717,10.84334,3.1387985,-1.2132429,9.633518,1.3761499
1409351304547,-1.9596541,10.650007,2.8353333,-1.2120485,9.62452,1.4387246
1409351304550,-2.4355016,10.629657,2.417545,-1.202959,9.6184635,1.4860908
1409351304583,-2.7934349,10.827179,1.8818425,-1.1859313,9.616605,1.5115801
1409351304588,-2.790442,10.901998,1.3275849,-1.1610717,9.62025,1.5076778
1409351304591,-2.5761611,10.654198,0.7469909,-1.122909,9.629717,1.4758143
1409351304592,-2.296638,10.483611,0.39743748,-1.066921,9.643456,1.4268191
1409351304607,-1.8788497,10.769718,0.45190558,-0.99550015,9.659119,1.3714199
1409351304608,-1.6035166,11.380837,0.31543607,-0.91055083,9.67478,1.3190619
1409351304617,-1.1725603,11.891401,0.82779527,-0.8179734,9.689022,1.2744249
1409351304633,-1.2683283,11.572374,1.3682863,-0.71967226,9.700084,1.249342
1409351304654,-1.2210429,11.694478,1.9482816,-0.6234617,9.708076,1.2389351
1409351304656,-1.5460558,11.593922,2.621651,-0.5314628,9.712249,1.2490672
1409351304658,-1.9494787,11.003751,3.0591912,-0.44452217,9.712736,1.2788848
1409351304665,-2.0841527,10.559028,3.228581,-0.35737845,9.710566,1.321967
1409351304690,-2.1290438,9.844957,3.2980127,-0.2689929,9.706618,1.3709885
1409351304700,-2.1739352,9.391854,3.2932243,-0.17663054,9.701259,1.4229548
1409351304701,-2.0398598,9.413403,3.1262288,-0.07927725,9.694841,1.474498
1409351304716,-1.678934,9.85214,2.6007016,0.025765434,9.687922,1.5211481
1409351304717,-1.2844892,9.842564,1.7741034,0.14264409,9.681506,1.555152
1409351304734,-0.7517793,9.51336,0.8702923,0.27161592,9.676044,1.5718834
1409351304749,-0.17298107,9.331401,0.24181437,0.40628245,9.670364,1.577776
1409351304751,0.36152446,9.237429,-0.011971008,0.54393035,9.664036,1.5750983
1409351304764,0.7715315,9.167398,0.16579847,0.6805961,9.655719,1.5729893
1409351304765,1.0636241,9.053674,0.6607997,0.8164608,9.644061,1.5798359
1409351304782,0.9995792,8.804078,1.115698,0.94951886,9.628192,1.6020974
1409351304785,0.6781576,8.087613,1.6448165,1.0748814,9.608546,1.640387
1409351304799,0.25378537,7.1844006,1.7986441,1.1871516,9.586197,1.6928988
1409351304820,0.19931729,6.135142,2.0512323,1.2854751,9.562461,1.7542268
1409351304822,0.2633622,6.0262055,2.2260091,1.3758188,9.536779,1.8241041
1409351304825,0.45370123,5.9627595,2.15538,1.4629629,9.508713,1.9011785
1409351304859,0.670975,5.8741736,2.0787656,1.5480639,9.479168,1.9797179
1409351304861,0.83737206,6.0226145,2.100912,1.6324358,9.448738,2.0559447
1409351304864,0.99898064,6.4416,2.0320787,1.7131127,9.419466,2.1235113
1409351304866,1.1994951,6.9826894,2.0027497,1.7912477,9.392757,2.1766784
1409351304893,1.4012065,7.423821,1.887828,1.8653463,9.369899,2.2126667
1409351304895,1.5711949,7.6506715,1.6543933,1.9332149,9.3517275,2.2312071
1409351304897,1.763928,7.630321,1.4921862,1.9925084,9.338431,2.234726
1409351304924,2.0667946,7.451354,1.3162124,2.0411954,9.329276,2.2290163
1409351304926,2.5438392,7.169437,1.163582,2.0774226,9.32315,2.2211697
1409351304928,3.1244333,6.964134,1.2096704,2.1008816,9.318983,2.2165813
1409351304964,3.7630866,7.019201,1.6885108,2.1099834,9.316454,2.2185664
1409351304966,3.968988,7.309498,2.463035,2.105575,9.31443,2.2312224
1409351304970,4.1120415,7.6883802,3.1370027,2.0941744,9.311892,2.25244
1409351304971,4.028843,8.160637,3.6888664,2.0677981,9.310485,2.2824287
1409351304992,3.8534677,8.871715,4.0162735,2.0300822,9.310692,2.3152058
1409351304993,3.6314054,9.424775,4.184466,1.9867984,9.31284,2.3439393
1409351304996,2.6390088,9.097966,5.003283,1.9447029,9.316114,2.3661237
1409351305021,0.7410054,10.283096,5.175067,1.9032263,9.318215,2.3914444
1409351305023,-0.82719666,12.0159,4.2413282,1.8563693,9.321418,2.4156718
1409351305025,-0.14903906,13.010691,2.328361,1.8049825,9.329295,2.4241905
1409351305071,1.5406688,12.604275,1.033098,1.7860286,9.339328,2.3994706
1409351305074,3.8845923,11.78845,0.83378077,1.8282577,9.342438,2.3551474
1409351305077,6.0519433,10.288484,1.2348095,1.9300256,9.33203,2.3148663
1409351305079,6.8557963,8.653243,3.177704,2.064302,9.307288,2.2985716
1409351305082,6.745663,7.765593,5.3282957,2.2141678,9.266477,2.3238487
1409351305109,5.8143187,9.423578,7.3166804,2.3627245,9.217704,2.3710465
1409351305110,4.299388,13.754689,7.3657618,2.491886,9.172433,2.4139965
1409351305112,3.1920695,17.022774,3.98874,2.5743277,9.146159,2.4271336
1409351305117,1.0372878,15.626356,2.6132712,2.6135986,9.146093,2.3850546
1409351305146,-1.4065934,13.585897,2.2098482,2.6138816,9.15556,2.3481314
1409351305147,-1.7723078,13.070545,0.7493851,2.5771275,9.170628,2.3298907
1409351305148,-1.7585411,12.455834,1.2749124,2.5183792,9.191676,2.3111095
1409351305182,-2.349909,12.088325,2.1583729,2.436016,9.214552,2.308301
1409351305188,-2.9340942,12.319963,1.9656396,2.3375168,9.2388115,2.3131752
1409351305191,-2.9340942,11.90457,0.79248077,2.2174847,9.272113,2.298066
1409351305194,-1.3970166,9.56304,0.8511387,2.1032343,9.309511,2.25384
1409351305219,-1.1857284,8.640076,1.06123,2.0255418,9.333549,2.2254088
1409351305221,-0.5105635,7.8954787,1.1881226,1.9654578,9.346428,2.2252316
1409351305224,0.6853402,7.4723034,1.5179238,1.916626,9.353391,2.2385323
1409351305226,1.7429788,7.6710224,1.8764555,1.8713062,9.360846,2.245704
1409351305256,2.0931308,8.373122,1.9764135,1.8261663,9.3714285,2.2387125
1409351305258,1.8632874,8.886678,2.047641,1.7763244,9.385101,2.2214725
1409351305260,1.5394717,8.981249,2.0213048,1.7161657,9.400095,2.2053053
1409351305265,1.2413936,9.019556,1.7136499,1.6426787,9.415557,2.195297
1409351305286,0.9151836,9.144653,1.2401965,1.5609893,9.432092,2.183886
1409351305288,0.5315128,9.391256,1.0187328,1.4708892,9.453436,2.1539352
1409351305297,0.23463176,9.515156,0.8810662,1.3736478,9.48048,2.0985687
1409351305313,-0.11911154,9.412206,0.6769605,1.2721465,9.51054,2.025259
1409351305317,-0.47764325,9.235035,0.4333505,1.1695822,9.539955,1.9472394
1409351305328,-0.7787141,8.792706,0.20709845,1.0677943,9.566648,1.8733524
1409351305354,-0.92535895,8.619126,0.2184709,0.97199255,9.588865,1.8108792
1409351305356,-1.2108675,8.630499,0.44592008,0.88639677,9.605479,1.7662013
1409351305358,-1.3946224,8.683171,0.7266402,0.81173724,9.615779,1.7459272
1409351305365,-1.4700398,8.5886,0.7930793,0.7455326,9.620402,1.7499796
1409351305386,-1.4838065,8.381501,0.7380127,0.68217707,9.622638,1.7634792
1409351305388,-1.4227544,8.401254,0.801459,0.6193122,9.62242,1.7877047
1409351305415,-1.210269,8.557475,0.93732995,0.55084276,9.622303,1.8105899
1409351305418,-0.8750807,8.676587,0.97862995,0.4738149,9.624054,1.8230356
1409351305420,-0.24660277,8.855554,0.87089086,0.39265552,9.627787,1.8226124
1409351305440,0.5279215,8.613739,0.82121116,0.3141434,9.632194,1.8145418
1409351305441,1.1803415,8.4587145,1.2228385,0.24375382,9.634981,1.8105565
1409351305445,1.8124107,8.683769,1.7735049,0.18293855,9.633778,1.8240795
1409351305467,2.0853498,8.983644,2.1188686,0.13441958,9.626902,1.8641666
1409351305468,2.1086931,9.033323,2.2254105,0.09671894,9.613965,1.9320214
1409351305477,1.9458874,8.692149,2.154183,0.06256533,9.596049,2.0204735
1409351305501,1.7022774,8.30369,1.9716251,0.024475686,9.575902,2.1146886
1409351305503,1.4772224,8.286931,1.7729063,-0.021616424,9.554406,2.2098095
1409351305519,1.4490906,8.467094,1.6394296,-0.07831344,9.534646,2.2923317
1409351305521,1.6675615,8.702325,1.5927427,-0.14360571,9.518516,2.3553414
1409351305525,1.9147629,9.064447,1.7220296,-0.21320564,9.506422,2.3985183
1409351305554,1.9369092,9.491813,2.1021092,-0.2799307,9.497175,2.428101
1409351305556,1.7130513,9.763555,2.666542,-0.34189233,9.487533,2.4576871
1409351305558,0.49320555,9.301474,3.4237084,-0.4011452,9.474041,2.5004053
1409351305567,-0.38606504,9.000402,3.0107086,-0.46952462,9.45464,2.5611944
1409351305585,-0.60333884,8.885481,2.505532,-0.5444185,9.433659,2.6229947
1409351305587,-0.025737667,8.881291,1.5502456,-0.6192236,9.41375,2.677361
1409351305597,1.1121067,8.825027,0.98341835,-0.6867836,9.396802,2.720082
1409351305621,2.2164323,8.700529,1.4838065,-0.74030936,9.385268,2.745735
1409351305623,2.136825,8.957906,1.9859903,-0.77897525,9.379065,2.7562172
1409351305626,1.5855601,9.405023,2.212841,-0.8119022,9.377528,2.7519374
1409351305659,0.5363012,9.834782,1.9806033,-0.8424572,9.378613,2.7390258
1409351305661,0.11911154,10.275913,1.9057846,-0.8720919,9.381014,2.7214768
1409351305663,0.41180268,10.334572,2.3241713,-0.89061415,9.386105,2.6978211
1409351305667,0.6631939,10.09994,2.60549,-0.8879118,9.395371,2.666271
1409351305695,0.83018947,10.119094,2.2703018,-0.8611561,9.408908,2.627022
1409351305697,1.5867572,10.1460285,2.9867666,-0.8078218,9.426347,2.5810447
1409351305699,1.7160441,9.640852,3.9402575,-0.7351221,9.443265,2.5406163
1409351305714,1.0702082,9.257181,3.3039982,-0.6464912,9.459785,2.5029812
1409351305731,-0.4758476,9.178172,1.7938557,-0.5600005,9.480202,2.4459279
1409351305733,-1.9309237,8.813056,1.0151415,-0.48163837,9.506599,2.3585985
1409351305752,-3.0065188,8.668207,0.7811083,-0.40997577,9.536017,2.2509325
1409351305753,-4.1371803,11.839926,1.1049241,-0.3436625,9.565872,2.132226
1409351305759,-4.167108,15.705963,0.8822633,-0.293749,9.595467,2.0027754
1409351305765,-3.2668881,19.294273,0.2753332,-0.24724866,9.624795,1.8634874
1409351305780,-3.1292217,19.608511,-0.54049104,-0.18445377,9.652765,1.7206156
1409351305798,-3.8385038,19.608511,-0.5859809,-0.1114101,9.676341,1.5894705
1409351305799,-4.162918,18.400038,0.39683893,-0.0550228,9.693181,1.4864825
1409351305813,-4.063559,14.554352,1.4443022,-0.006073402,9.702549,1.4250971
1409351305827,-3.626617,10.999561,2.8095956,0.033594813,9.700859,1.4361784
1409351305828,-4.0138793,7.643489,4.1635165,0.067967474,9.689233,1.511462
1409351305844,-4.0037036,7.7985134,5.5222263,0.09359635,9.670552,1.6254368
1409351305845,-3.342904,8.400655,5.7179523,0.122168876,9.648322,1.7508131
1409351305863,-1.5927427,8.394072,4.656722,0.18577045,9.630058,1.843333
1409351305867,-0.2908955,7.790134,3.3943794,0.3090615,9.621765,1.8699049
1409351305880,0.6895301,7.5375457,2.8670566,0.47186977,9.621564,1.8366432
1409351305895,1.6873137,7.9511437,2.5839422,0.64504415,9.622436,1.7785008
1409351305897,2.4079683,8.738836,2.2661119,0.81389683,9.619175,1.726116
1409351305912,2.7383683,8.731055,1.513734,0.9749979,9.612192,1.6809295
1409351305930,3.043629,8.607754,0.9427169,1.1286597,9.600835,1.6493933
1409351305931,2.834735,8.285135,0.57281274,1.2688245,9.586579,1.6303351
1409351305947,1.654992,6.2195373,0.62967503,1.3916395,9.56977,1.6288795
1409351305948,1.2635399,5.605425,0.93134445,1.4920263,9.55049,1.6529928
1409351305959,1.050456,5.3683987,1.146224,1.5779207,9.528283,1.700701
1409351305965,1.1198878,5.2798133,1.3210008,1.6581914,9.502423,1.7676942
1409351305978,1.0833763,5.2594624,1.4526819,1.7359302,9.473826,1.8448675
1409351305992,0.9175778,5.1355624,1.6525977,1.8095456,9.443988,1.9253672
1409351305998,0.95588505,5.1062336,1.851915,1.8748405,9.414453,2.005853
1409351306010,1.0360907,5.1343656,1.9955671,1.9290589,9.386767,2.082724
1409351306027,1.2533646,5.2744265,2.0763714,1.9762894,9.36012,2.1570385
1409351306028,1.448492,5.4683566,2.2158337,2.0111468,9.337338,2.2225673
1409351306045,1.5508442,5.6700683,2.408567,2.032268,9.3197565,2.2764919
1409351306046,1.620276,5.7790046,2.5893292,2.039017,9.308138,2.3176234
1409351306060,1.9297266,6.0303955,2.8257565,2.0307515,9.302686,2.3465936
1409351306065,2.420538,6.593033,3.1028855,2.0081077,9.302632,2.3662026
1409351306079,2.955642,7.507618,3.4446578,1.9730991,9.307074,2.37816
1409351306095,3.3464954,8.593987,3.8055837,1.9270884,9.315721,2.382029
1409351306097,3.6332011,9.785701,4.010288,1.8700234,9.329001,2.3755302
1409351306112,3.6631286,10.586561,4.3065705,1.8062288,9.346283,2.356886
1409351306133,2.8820202,10.523115,4.2556934,1.7419449,9.365127,2.3303287
1409351306134,0.85652566,11.927913,5.1726727,1.6741492,9.385427,2.2981267
1409351306137,-0.6823475,15.215751,4.8285065,1.5858741,9.406355,2.2750573
1409351306149,0.065242,14.88176,1.5999253,1.473826,9.429922,2.2527363
1409351306171,2.208651,13.585897,-0.5626374,1.3996165,9.455283,2.1929672
1409351306172,4.6926355,11.984776,-0.16819267,1.4071156,9.474729,2.1023715
1409351306178,6.3500214,9.545682,0.94331545,1.4903573,9.476069,2.0379713
1409351306197,7.277176,7.3633676,3.7714663,1.6133289,9.454841,2.0429268
1409351306198,7.052121,7.233482,8.629301,1.7624786,9.413329,2.1102824
1409351306211,5.1301756,11.1096945,10.716447,1.934825,9.354373,2.218685
1409351306230,4.2221746,18.137276,6.9264255,2.087046,9.3000765,2.307209
1409351306231,2.2870612,19.22903,4.161721,2.1976917,9.27487,2.305935
1409351306245,-1.2066777,15.650298,3.264494,2.259202,9.274394,2.2476661
1409351306247,-3.271078,13.263279,0.943914,2.2577066,9.280978,2.2218466
1409351306262,-3.2944214,12.951434,0.35553896,2.203519,9.29404,2.221652
1409351306278,-2.7563248,13.390172,0.36152446,2.1182723,9.312031,2.2292087
1409351306279,-2.9496565,12.559383,-0.623091,2.0139673,9.3366375,2.2229514
1409351306294,-3.264494,10.916962,-0.8619126,1.8997114,9.369046,2.1868782
1409351306312,-2.6581624,10.156802,-0.16699557,1.7932694,9.400662,2.1405852
1409351306313,-0.85413146,10.175357,0.39444473,1.7122254,9.422335,2.1114702
1409351306328,0.21428105,9.34397,0.7026982,1.6637253,9.433531,2.1002095
1409351306329,1.3922282,8.020576,1.1761516,1.6302979,9.440892,2.0933394
1409351306342,1.9488802,7.137714,1.5119383,1.6020597,9.446332,2.090598
1409351306346,1.8579005,7.297527,2.0027497,1.5651515,9.453507,2.0861206
1409351306361,1.5376761,8.438962,2.5743654,1.51296,9.462432,2.0841608
1409351306375,1.2282255,9.312846,2.3307555,1.4483943,9.472484,2.0843658
1409351306377,0.88166475,9.543886,1.6400281,1.3740643,9.48648,2.071002
1409351306395,0.32321724,9.375095,1.1348516,1.2868553,9.507506,2.0302024
1409351306413,-0.14185645,9.308058,0.8936358,1.1838082,9.5342045,1.9667058
1409351306415,-0.41000703,9.019556,0.801459,1.0680819,9.562899,1.8922417
1409351306435,-0.62488663,8.640076,0.66020113,0.9488405,9.590031,1.8169817
1409351306438,-0.7906851,8.189367,0.46028528,0.83483684,9.61394,1.7451544
1409351306440,-0.85173726,7.9278,0.2717419,0.7350758,9.633196,1.6827322
1409351306448,-1.0181342,7.9331875,0.32800564,0.6451637,9.649274,1.6265544
1409351306461,-1.2306197,8.422203,0.75237787,0.5710709,9.659904,1.5907629
1409351306477,-1.4676456,9.099164,1.1145009,0.50727004,9.665138,1.5805577
1409351306502,-1.4395138,9.311649,1.1432313,0.4471914,9.666135,1.5925679
1409351306504,-1.6514006,8.931569,0.6278794,0.3866212,9.66475,1.6166385
1409351306506,-1.1444284,8.343194,0.13227965,0.3171946,9.663282,1.6403484
1409351306508,-0.7835025,8.029554,0.29149407,0.23877895,9.662858,1.6560645
1409351306532,-0.54887074,7.86615,0.57281274,0.15073563,9.663487,1.6627403
1409351306534,-0.12330139,7.94037,1.0947487,0.055108726,9.664597,1.662209
1409351306540,0.4189853,8.204929,1.6101006,-0.04272855,9.664129,1.6652783
1409351306548,1.168969,8.345589,1.845331,-0.1339185,9.661395,1.6762797
1409351306565,1.95307,8.624513,1.9075803,-0.21413054,9.655273,1.7030092
1409351306567,2.2301989,8.838196,2.0536265,-0.27936158,9.646201,1.7444658
1409351306578,2.0679917,8.7532015,2.1733365,-0.3338944,9.634033,1.801199
1409351306598,1.6370354,8.587403,2.2260091,-0.3885418,9.617475,1.8771307
1409351306601,1.2814964,8.516175,2.1021092,-0.45333737,9.595945,1.9704614
1409351306607,1.0869676,8.404845,1.8255788,-0.5316048,9.571034,2.0695689
1409351306632,0.9744401,8.343793,1.5167267,-0.61937606,9.54622,2.157883
1409351306638,1.0420763,8.613739,1.5544355,-0.7091352,9.524162,2.2266264
1409351306640,1.1073183,9.087193,1.95307,-0.78972965,9.505478,2.2787318
1409351306649,1.0055647,9.624092,2.5300727,-0.8569559,9.4879,2.3271863
1409351306676,0.91817635,9.978435,3.289633,-0.9161946,9.46912,2.3804953
1409351306678,0.5386954,9.894038,3.003526,-0.971707,9.44728,2.4443994
1409351306682,0.16998832,9.51755,2.1823149,-1.0305742,9.424342,2.5080023
1409351306701,1.0588357,8.628104,1.4670471,-1.0948427,9.403305,2.5592134
1409351306702,2.03148,8.173206,1.3688848,-1.1520953,9.386266,2.5963597
1409351306707,2.4438813,8.079233,1.8555063,-1.1983649,9.373671,2.6208005
1409351306732,2.0979192,8.598177,2.3989902,-1.23455,9.365583,2.632896
1409351306733,1.4933833,9.341577,2.5169046,-1.2662443,9.360949,2.634325
1409351306738,0.7858967,9.923966,1.9997569,-1.2961073,9.358157,2.6297154
1409351306748,0.2825158,10.439917,1.4347254,-1.3225085,9.357708,2.6181438
1409351306767,0.4441244,10.89661,1.7357962,-1.338302,9.362559,2.592651
1409351306768,1.0785879,10.720038,2.961029,-1.3417314,9.370599,2.5616503
1409351306799,0.90740246,9.89344,3.003526,-1.3189588,9.382971,2.5279665
1409351306801,0.7613561,9.227253,1.9213469,-1.2771835,9.398182,2.492668
1409351306803,1.0600328,8.665813,2.4265234,-1.212606,9.416184,2.4567106
1409351306807,1.0127473,8.0127945,3.2291796,-1.1221441,9.435188,2.4266047
1409351306835,-0.034715924,7.064092,2.486977,-1.020874,9.455773,2.3909278
1409351306838,-1.5885528,6.2141504,1.5664065,-0.92387295,9.481335,2.3283308
1409351306841,-2.7952304,6.139332,1.0067618,-0.8292089,9.513424,2.23105
1409351306847,-3.846285,7.4375877,1.122282,-0.7300183,9.550743,2.1025622
1409351306868,-4.654328,10.871471,2.303222,-0.6282598,9.587316,1.9644566
1409351306870,-3.304597,19.608511,2.814384,-0.53323513,9.618236,1.8372885
1409351306878,-1.8776526,19.608511,0.10175357,-0.42111677,9.645096,1.7219706
1409351306904,-3.478775,19.608511,-1.7753005,-0.2727125,9.672313,1.5944928
1409351306907,-4.502895,19.528904,-0.82001406,-0.15237485,9.69816,1.4466789
1409351306909,-4.1437645,15.604808,0.98940384,-0.079491176,9.716305,1.3257009
1409351306940,-3.0585926,10.068815,2.9059622,-0.038725235,9.720435,1.2969308
1409351306942,-3.1723173,7.7811556,5.4354362,-0.010113471,9.710673,1.36862
1409351306944,-4.311359,7.8912888,7.043143,0.0044905166,9.690243,1.5065157
1409351306947,-3.1824925,9.7162695,7.031172,0.015245281,9.665564,1.6574188
1409351306970,-1.3263878,9.321226,5.5264163,0.06638463,9.647713,1.7571634
1409351306972,0.3716998,8.798691,3.86903,0.18767707,9.643975,1.768879
1409351306979,1.1540052,7.603985,2.6156654,0.34108698,9.645834,1.7354952
1409351307001,1.3461399,7.1089835,2.4013844,0.5173976,9.650567,1.6641064
1409351307002,1.7328035,7.253833,2.135628,0.68077576,9.651175,1.6005518
1409351307006,1.9596541,7.4088573,2.0248961,0.8295209,9.646212,1.5597681
1409351307031,2.1380222,7.7769656,1.7956513,0.969339,9.635992,1.5422236
1409351307032,2.0739772,7.821857,1.270124,1.1012226,9.62187,1.5418595
1409351307038,1.7968484,7.304111,0.62488663,1.2220321,9.604851,1.5568829
1409351307063,1.2144588,6.096236,0.5267244,1.3281007,9.585053,1.5916392
1409351307066,0.80684596,5.2863975,0.8074445,1.4169816,9.562027,1.6523248
1409351307068,0.86131406,5.1636944,0.7074866,1.495718,9.535767,1.7327439
1409351307079,0.8002619,5.00448,0.7344214,1.569972,9.507947,1.8178315
1409351307098,0.6488287,4.997896,1.0079589,1.6407303,9.479457,1.9021821
1409351307100,0.6183026,5.168483,1.4359225,1.7016596,9.452559,1.9808717
1409351307107,0.75477207,5.306748,1.7088615,1.7521665,9.428287,2.051275
1409351307131,1.1821371,5.5701103,1.8513165,1.7942724,9.407298,2.1103854
1409351307139,1.6346412,5.9867015,2.0141222,1.8294295,9.390168,2.1559916
1409351307141,2.03567,6.3099184,2.2278047,1.8547983,9.377989,2.1871097
1409351307165,2.3744495,6.393117,2.2822728,1.8660803,9.371505,2.2052276
1409351307167,2.6982653,6.365584,2.4355016,1.8591964,9.371705,2.2101831
1409351307175,3.0232782,6.651691,2.722806,1.8332623,9.378136,2.2045646
1409351307180,3.3093853,7.1688385,3.1621418,1.7904665,9.388866,2.194037
1409351307205,3.5128925,8.026561,3.5434184,1.7418368,9.400214,2.184573
1409351307207,3.4278982,8.885481,3.6056678,1.6782974,9.413494,2.1771162
1409351307208,3.1370027,9.448717,3.5326445,1.6027747,9.42991,2.162941
1409351307231,2.5115175,9.457097,3.6343982,1.5227306,9.449922,2.1332238
1409351307232,2.0057425,10.095152,4.3239284,1.444138,9.472095,2.0890913
1409351307238,1.3748703,13.948021,5.142745,1.3729459,9.490284,2.0542414
1409351307263,1.1402385,13.925874,3.1675289,1.3072215,9.499501,2.0545237
1409351307265,2.8167782,12.533646,1.4454993,1.279905,9.503402,2.0536802
1409351307267,5.0810947,11.525687,1.3377602,1.326297,9.498552,2.0466614
1409351307280,6.5152216,9.817424,4.4298716,1.4318475,9.479492,2.0638423
1409351307300,5.667674,11.177331,10.177153,1.5750816,9.440192,2.1382856
1409351307302,3.804985,17.679384,8.1756,1.72871,9.379839,2.280477
1409351307307,3.430891,19.608511,2.8167782,1.8631126,9.335846,2.3539727
1409351307333,0.81163436,18.107946,2.27928,1.9974259,9.324043,2.289739
1409351307336,-1.6406267,12.983756,1.8656816,2.0736692,9.319843,2.238484
1409351307339,-1.2749124,10.390237,1.1324574,2.094624,9.305777,2.2771676
1409351307367,-1.3916297,9.824008,2.5773582,2.0777647,9.285746,2.372381
1409351307369,-1.7184383,9.854534,3.5446155,2.0233386,9.272376,2.4697225
1409351307371,-2.1990743,10.302849,2.5007436,1.9439675,9.274968,2.5231636
1409351307400,-2.569577,10.275315,1.6705543,1.8573806,9.296037,2.5108302
1409351307401,-2.4636335,9.841965,1.5783775,1.7760569,9.323111,2.4689322
1409351307403,-1.9524715,9.731233,1.5316905,1.7063773,9.346692,2.4285834
1409351307407,-1.115698,10.199299,1.4173675,1.647217,9.362304,2.4092193
1409351307425,0.0712275,10.311827,1.3072342,1.5902491,9.375514,2.3960931
1409351307427,2.248754,10.288484,1.1001357,1.5301089,9.392431,2.3688376
1409351307444,2.0901382,10.354922,0.7128736,1.4693863,9.414218,2.320299
1409351307458,1.5921441,9.888053,0.7062895,1.3935496,9.4403925,2.2599587
1409351307460,1.0342951,9.259575,0.81522566,1.3045275,9.463748,2.214964
1409351307473,0.54288524,8.704121,0.961272,1.2038869,9.480961,2.1982834
1409351307479,0.17058687,8.779537,1.2695254,1.0958554,9.495648,2.1913784
1409351307496,-0.22266077,9.15423,1.4269443,0.98062724,9.514109,2.16576
1409351307502,-0.7248446,8.814254,1.3742718,0.8588348,9.536861,2.1168525
1409351307507,-1.3275849,7.996035,1.1348516,0.7317429,9.559296,2.062717
1409351307526,-1.6454151,7.3460093,0.6931214,0.60496145,9.5793,2.010331
1409351307528,-1.5783775,6.801927,0.1448492,0.47946563,9.595313,1.967347
1409351307546,-1.3724761,6.509236,-0.10295067,0.3602876,9.607864,1.9311949
1409351307547,-1.2000936,6.613384,0.3705027,0.25242564,9.617231,1.9014539
1409351307562,-1.4784195,7.043741,0.93014735,0.16243586,9.6225395,1.8843408
1409351307575,-1.5562311,7.4603324,0.99419224,0.087694794,9.624165,1.8809991
1409351307589,-1.5478514,7.6770077,0.6099229,0.020229865,9.623923,1.8841672
1409351307590,-1.7980455,7.750031,0.22864626,-0.0494507,9.623327,1.8866748
1409351307614,-1.4933833,8.318654,0.093373865,-0.13111703,9.622563,1.8866554
1409351307616,-1.0827777,8.37013,0.15981296,-0.22350451,9.6222725,1.8794436
1409351307622,0.02813187,8.4587145,1.0187328,-0.31560296,9.621876,1.8682314
1409351307628,0.83138657,8.860941,1.3844471,-0.40415964,9.621101,1.8551182
1409351307655,1.5011644,9.083003,1.7208325,-0.48485973,9.619594,1.8435669
1409351307659,1.9746178,9.220071,2.2290018,-0.5526674,9.61597,1.8433933
1409351307662,2.291251,9.323022,2.5073278,-0.60667485,9.608663,1.8643875
1409351307685,2.2816741,9.427768,2.6234465,-0.6473583,9.597386,1.9082694
1409351307687,1.8501194,9.2308445,2.5558102,-0.6761805,9.581888,1.9749902
1409351307688,1.328782,8.977059,2.3750482,-0.7035668,9.5616865,2.061437
1409351307708,0.84575176,8.723274,2.0799627,-0.74071425,9.537938,2.156269
1409351307711,0.58657944,8.789114,1.8076223,-0.79378736,9.513527,2.2434611
1409351307721,0.59376204,9.099762,1.5711949,-0.85808927,9.489678,2.319498
1409351307729,0.7254431,9.543288,1.560421,-0.9244553,9.469739,2.3748283
1409351307745,0.8559271,9.84795,1.8363527,-0.98490715,9.453071,2.4165678
1409351307747,1.0313023,9.715671,2.3762453,-1.0379146,9.436046,2.4605215
1409351307759,1.1869255,9.007586,2.6036944,-1.0866096,9.4151125,2.5189924
1409351307771,0.86610246,8.376713,2.3026235,-1.1369419,9.389557,2.5911381
1409351307788,0.54168814,8.046313,2.1529858,-1.1926899,9.362714,2.6622376
1409351307789,0.7493851,7.8452005,1.714847,-1.2491734,9.337686,2.723522
1409351307813,1.4873978,7.868544,1.3976152,-1.2983772,9.317822,2.7681746
1409351307815,2.0925324,9.093777,2.6701334,-1.3373507,9.305318,2.7915843
1409351307820,1.501763,9.722255,2.8748376,-1.3638413,9.298362,2.8019297
1409351307847,0.60932434,10.226832,2.5839422,-1.3927828,9.293184,2.8048658
1409351307849,0.25917232,10.655395,2.7868507,-1.424792,9.291371,2.7947822
1409351307851,0.46327803,10.272921,3.3261447,-1.4483006,9.291981,2.7806327
1409351307883,0.62488663,9.661202,3.265691,-1.4541701,9.294954,2.767596
1409351307885,0.84216046,9.582193,2.8048072,-1.4378067,9.303079,2.7487843
1409351307886,1.496376,9.765948,3.0945058,-1.3912095,9.318423,2.7206485
1409351307888,2.219425,10.044274,3.4105403,-1.3095086,9.339751,2.687872
1409351307920,1.9871874,10.287885,2.630629,-1.2006823,9.367401,2.6420734
1409351307923,0.9576807,10.226234,1.282095,-1.0836645,9.403836,2.5620196
1409351307928,-0.5363012,9.294889,0.78649527,-0.9705637,9.447546,2.4438248
1409351307952,-1.8136078,8.478467,0.9744401,-0.86352986,9.492266,2.3068635
1409351307954,-2.8592753,8.750209,1.1953052,-0.7645678,9.533237,2.1686866
1409351307955,-4.1521444,10.667964,1.785476,-0.667036,9.57177,2.0264995
1409351307958,-4.9374423,15.076288,2.6252422,-0.5802917,9.604482,1.8940912
1409351307975,-4.5459905,19.400814,2.8921957,-0.5035789,9.628969,1.7887878
1409351307992,-3.799598,19.608511,1.5466543,-0.41547316,9.647592,1.7093074
1409351307994,-4.382586,19.608511,0.74639237,-0.30739436,9.664966,1.6322798
1409351308008,-3.843891,14.9068985,1.8656816,-0.22606432,9.678855,1.5617466
1409351308010,-2.7898436,10.958859,3.217807,-0.1657873,9.680334,1.5601492
1409351308024,-2.932897,6.941389,4.256292,-0.12417985,9.669691,1.6285154
1409351308040,-3.2962172,7.0982094,5.6431336,-0.097600505,9.651202,1.736427
1409351308047,-3.1615434,9.048885,5.884948,-0.07792437,9.628589,1.8586581
1409351308064,-1.5861586,10.244789,4.935048,-0.051521715,9.608245,1.9619834
1409351308066,-0.2657564,9.19553,3.5895069,0.030641131,9.599591,2.0043204
1409351308068,0.40821138,7.657854,2.5755625,0.17165035,9.603498,1.9783202
1409351308095,0.99299514,7.2298903,2.4199393,0.33730027,9.613353,1.9078958
1409351308097,1.678934,7.6231384,2.472612,0.49760553,9.621189,1.831801
1409351308102,2.0907366,7.7757688,2.123657,0.64658755,9.622728,1.7763457
1409351308108,2.1960814,7.8446016,1.6651673,0.78520507,9.618561,1.7427456
1409351308130,2.1092918,7.4848733,1.1677719,0.9066908,9.611029,1.7252281
1409351308133,1.650802,6.691195,0.99060094,1.0085882,9.601057,1.7241923
1409351308144,1.3443443,5.7119665,1.1240777,1.0901158,9.587923,1.7475095
1409351308162,1.2485762,5.1146135,1.2797008,1.1622205,9.572477,1.7853081
1409351308164,1.2198458,4.7081976,1.395221,1.224913,9.553638,1.8433623
1409351308168,1.1821371,4.5256395,1.3850456,1.2870268,9.531907,1.9122541
1409351308191,1.4065934,4.9458222,1.6514006,1.3497401,9.508887,1.9823406
1409351308196,1.347337,5.047576,1.7561469,1.4116501,9.4856825,2.0492659
1409351308211,1.3742718,5.185841,1.7579426,1.468036,9.463909,2.1094356
1409351308213,1.5029601,5.369596,1.6406267,1.5155041,9.444753,2.161082
1409351308220,1.7004818,5.535394,1.6382325,1.5531002,9.42875,2.2038434
1409351308237,1.7597382,5.5964465,1.6903064,1.5802159,9.4164095,2.2370822
1409351308239,2.0129251,5.789778,2.0566192,1.59395,9.408704,2.2596483
1409351308265,2.1972785,6.1046157,2.5605986,1.592387,9.405818,2.2727275
1409351308267,2.40318,6.706159,2.8275523,1.5833292,9.404878,2.2829275
1409351308269,2.5917234,7.6135616,3.004723,1.5567813,9.409006,2.2841666
1409351308298,2.7898436,8.832211,3.1423898,1.513106,9.418455,2.274556
1409351308299,2.9370868,10.067618,3.425504,1.4529014,9.432716,2.254626
1409351308301,2.8473043,10.760739,3.7193923,1.3796299,9.449628,2.2296996
1409351308308,2.4570496,10.338163,3.645172,1.301234,9.466796,2.203851
1409351308331,1.4646529,9.702502,4.0378213,1.2283076,9.48361,2.1731975
1409351308333,-0.6356605,12.954427,5.331289,1.1589618,9.499066,2.1435862
1409351308341,-0.8535329,15.530588,4.5280337,1.0703006,9.511029,2.1366262
1409351308360,0.46088383,14.891934,2.0350714,1.0003057,9.520224,2.1295846
1409351308361,2.6384103,13.756484,0.45669398,1.0060241,9.52708,2.0959616
1409351308368,6.18961,9.36492,1.685518,1.0642427,9.528829,2.0589356
1409351308389,6.821679,7.5824366,5.3438582,1.186594,9.508592,2.0854437
1409351308390,6.0645127,9.033323,10.683527,1.3375152,9.466987,2.1811996
1409351308410,4.3514614,15.282788,10.5207205,1.516429,9.4023075,2.3382578
1409351308412,3.4087446,19.608511,5.0236335,1.6838343,9.346688,2.4442747
1409351308419,0.6715736,18.599955,3.3740287,1.8245442,9.330979,2.4029737
1409351308447,-2.0392613,14.185645,2.1380222,1.8938456,9.330034,2.352485
1409351308449,-2.0087352,11.980585,0.08559271,1.900876,9.324777,2.3676147
1409351308450,-2.2098482,10.96664,1.3054385,1.8754236,9.315799,2.422616
1409351308482,-2.4570496,10.470443,2.4546554,1.8164922,9.308447,2.4947066
1409351308484,-2.3535004,10.442909,1.9470845,1.7414612,9.304055,2.5636442
1409351308486,-2.4588451,9.986814,1.4718355,1.6466876,9.315593,2.5842872
1409351308488,-2.135628,9.479243,1.5693992,1.5505297,9.339044,2.5590088
1409351308513,-1.4281414,9.231443,1.6328455,1.465703,9.361017,2.5285342
1409351308515,-0.7398083,9.246407,1.4562732,1.3992152,9.373864,2.5185845
1409351308521,0.14544775,9.267356,1.4790181,1.34728,9.381689,2.5177667
1409351308550,1.6065093,9.103952,1.8417397,1.2986186,9.392217,2.5040522
1409351308551,2.7138276,9.138069,1.9991584,1.2520801,9.406358,2.47449
1409351308553,2.6539726,9.561843,1.8800468,1.2066112,9.421346,2.4398184
1409351308571,1.5699978,10.113707,1.5119383,1.1517006,9.435939,2.4097822
1409351308572,1.0600328,10.180145,1.2234371,1.0750693,9.451721,2.383187
1409351308590,0.46926352,10.292673,1.1659763,0.98528004,9.468332,2.3559067
1409351308594,-0.10115502,10.392631,1.2539631,0.8795792,9.487727,2.319426
1409351308611,-0.56922144,10.143036,1.0941502,0.7608416,9.509305,2.2725832
1409351308612,-0.86490536,9.448717,0.78050977,0.6344272,9.530812,2.2206957
1409351308619,-1.0576386,8.619126,0.533907,0.50537556,9.549901,2.1712668
1409351308639,-1.2348095,7.848193,0.3286042,0.3769665,9.564983,2.1305795
1409351308667,-1.5053543,7.543531,0.3345897,0.25409168,9.575472,2.101473
1409351308673,-1.7244238,7.578247,0.62728083,0.14148703,9.581693,2.0836365
1409351308677,-1.9093759,7.5800424,0.82599956,0.04383958,9.583822,2.0781765
1409351308679,-2.0608091,7.467515,0.8439561,-0.041893706,9.582303,2.0852165
1409351308696,-2.3235726,7.1604586,0.6404489,-0.122837424,9.578906,2.0975814
1409351308697,-2.327164,7.0994067,0.47165772,-0.20638198,9.573544,2.115434
1409351308709,-2.349909,7.32925,0.35075054,-0.29611397,9.567859,2.130443
1409351308710,-2.0147207,7.60997,0.32202014,-0.39578286,9.563398,2.1342835
1409351308723,-1.4622587,7.8146744,0.3477578,-0.502395,9.56029,2.1257536
1409351308735,-0.7128736,7.89907,0.55006784,-0.6096854,9.557155,2.1117437
1409351308740,0.008978256,7.7069354,0.825401,-0.70753396,9.551993,2.1045747
1409351308753,1.4808137,7.773973,1.4407109,-0.7907452,9.543652,2.112783
1409351308772,1.893215,7.8428063,1.8602947,-0.85293156,9.532783,2.137513
1409351308773,2.1110873,8.010999,2.2068555,-0.90327775,9.519201,2.1769917
1409351308790,2.1775265,8.146272,2.2511482,-0.9465382,9.502435,2.2311862
1409351308792,1.9734207,8.059482,2.1859062,-0.98863566,9.483969,2.2907069
1409351308806,1.7782934,8.116942,2.1170728,-1.0363262,9.463584,2.3530793
1409351308820,1.6089035,8.429984,2.147599,-1.0922481,9.443561,2.4076006
1409351308824,1.4347254,8.9519205,2.19249,-1.1535335,9.425555,2.4492188
1409351308837,1.2880806,9.603143,2.1559787,-1.215788,9.409691,2.4799154
1409351308841,1.1426327,10.046669,2.1883004,-1.2735815,9.394802,2.5072062
1409351308855,1.1252748,10.10413,2.669535,-1.3282987,9.378261,2.5405233
1409351308870,0.83617496,9.895236,2.6629508,-1.3834718,9.357506,2.5871751
1409351308871,0.29508537,9.580399,2.532467,-1.4449215,9.333677,2.6391387
1409351308887,-0.011372458,9.389461,2.2529438,-1.5130938,9.309207,2.6869326
1409351308888,0.110133275,9.256582,1.8860323,-1.5795103,9.286913,2.725584
1409351308901,0.84455466,8.977059,2.1152773,-1.6384839,9.266678,2.759428
1409351308918,1.4969746,9.162011,2.658761,-1.6816698,9.249795,2.7899218
1409351308920,1.733402,9.459491,3.0298622,-1.7087206,9.2368555,2.81623
1409351308940,1.4544775,9.764751,3.116652,-1.726077,9.22762,2.835856
1409351308943,0.40940848,10.113707,2.5198972,-1.7388018,9.220464,2.8513184
1409351308948,0.7272388,10.153211,2.9975405,-1.7517005,9.216026,2.8577626
1409351308970,1.0061632,9.865907,3.582923,-1.7469258,9.21707,2.8573172
1409351308971,0.9463082,9.56304,3.3357215,-1.720963,9.22564,2.8453872
1409351308983,1.1695676,9.499594,3.0723593,-1.6744012,9.2429695,2.8167858
1409351308988,1.5065514,9.754577,3.6523547,-1.6029674,9.267621,2.777066
1409351309012,1.0851719,10.24419,3.2668881,-1.5183735,9.293775,2.7369123
1409351309014,0.14544775,10.228628,1.7651252,-1.4204351,9.32603,2.6791625
1409351309021,-0.9487024,9.700109,0.6907272,-1.3254802,9.365489,2.5886512
1409351309051,-2.1691468,8.775348,0.46447513,-1.2374741,9.408986,2.471846
1409351309053,-3.0699651,8.483255,0.29149407,-1.1553782,9.452001,2.3441854
1409351309055,-4.0120835,9.449316,0.36750996,-1.0723047,9.4948015,2.206653
1409351309078,-4.6764746,12.467805,0.6344634,-0.9903389,9.53699,2.0580192
1409351309080,-4.5418005,17.714699,1.3431472,-0.9100618,9.576248,1.9072541
1409351309082,-3.6727054,19.608511,1.4694413,-0.8187676,9.609841,1.7750965
1409351309089,-3.627814,19.608511,0.39983168,-0.7001559,9.63604,1.6813387
1409351309112,-4.1341877,19.55584,0.16699557,-0.5871493,9.6559,1.6091111
1409351309113,-3.9725792,16.448765,0.87807345,-0.4953856,9.670295,1.5525463
1409351309121,-3.5751417,11.547235,3.9624038,-0.4396144,9.671894,1.5593659
1409351309146,-4.184466,6.952163,5.813122,-0.41222924,9.6568575,1.6569805
1409351309147,-3.4853592,8.4108305,6.1782374,-0.40633374,9.6313305,1.8007659
1409351309149,-2.0272903,9.279925,5.3486466,-0.38631585,9.605308,1.9388708
1409351309174,-0.47225627,9.667787,4.7441106,-0.30749497,9.593282,2.0111632
1409351309182,0.63206923,8.88608,3.7523127,-0.16508608,9.598053,2.0051253
1409351309184,0.93613285,7.541735,3.1429882,0.006589169,9.61042,1.9519734
1409351309192,1.2964603,7.351396,2.7682958,0.16940592,9.620755,1.8928187
1409351309232,1.8423382,7.639898,2.0901382,0.3100766,9.626539,1.8449996
1409351309234,2.220622,7.5148005,1.5251064,0.44294918,9.62959,1.8014357
1409351309236,2.3540988,7.4645224,1.1067197,0.57337105,9.628696,1.7691438
1409351309237,2.0171149,7.193379,0.6619968,0.6941284,9.625022,1.7457203
1409351309258,1.5376761,6.55293,0.46387658,0.7989853,9.618604,1.7362264
1409351309260,1.1480197,6.0262055,0.59615624,0.88902134,9.607912,1.7515888
1409351309261,0.9283517,5.7095723,0.99898064,0.965544,9.592391,1.795598
1409351309269,0.8972271,5.4474072,1.2054806,1.0348442,9.572368,1.862603
1409351309285,0.8242039,5.2277393,1.2090719,1.1011822,9.549186,1.9418718
1409351309290,0.81642276,5.203199,1.2521675,1.1627483,9.524637,2.0247738
1409351309302,0.60453594,5.361216,1.3204023,1.2170004,9.500355,2.1053643
1409351309319,0.6063316,5.619191,1.6190789,1.2612146,9.477741,2.1799428
1409351309320,0.84096336,5.761048,1.6514006,1.2999419,9.455809,2.2512743
1409351309336,1.1115081,5.971139,1.6514006,1.3306947,9.436534,2.3133242
1409351309351,1.3359646,6.2345014,1.951873,1.3546585,9.420613,2.363757
1409351309352,1.4993688,6.4469867,2.4199393,1.3693746,9.408773,2.402122
1409351309368,1.7250223,6.577471,2.9412768,1.3715647,9.401484,2.4292583
1409351309369,2.0248961,6.8450227,3.5063083,1.359433,9.398562,2.447322
1409351309388,2.3110032,7.409456,4.0815153,1.3321508,9.399676,2.4580193
1409351309390,2.6767175,8.346188,4.5118732,1.2904428,9.40433,2.4624639
1409351309403,3.1555579,9.667787,4.5896845,1.2374911,9.412013,2.4602883
1409351309449,3.6008794,10.548853,4.446631,1.1801299,9.422487,2.44835
1409351309452,3.867833,10.225037,4.144363,1.1297301,9.43458,2.4254484
1409351309454,3.1519666,10.046669,4.643554,1.0891294,9.447184,2.3947704
1409351309459,1.0121487,14.0629425,5.8280854,1.0493461,9.459055,2.3654964
1409351309461,0.2896984,15.579669,4.1784806,0.9880216,9.468766,2.3530087
1409351309490,1.4454993,14.462774,1.6597804,0.9329383,9.480772,2.3270104
1409351309495,3.259107,13.150751,0.89782566,0.9414609,9.49289,2.2735593
1409351309496,5.0787005,11.193492,1.5981296,1.0113707,9.493435,2.2410295
1409351309497,6.351817,8.905233,3.6373909,1.1147374,9.475147,2.2692163
1409351309509,4.909311,12.835316,9.433753,1.2461832,9.441995,2.337983
1409351309510,3.6326025,18.626888,5.919065,1.3915777,9.393624,2.448215
1409351309520,0.9911995,19.094955,4.167108,1.5212533,9.371896,2.4543374
1409351309539,-2.1015105,15.993866,3.2016463,1.5998275,9.367576,2.420633
1409351309552,-2.8622682,13.705607,0.29927522,1.6336418,9.369884,2.38891
1409351309553,-2.5504234,11.729793,0.36032736,1.6398703,9.37389,2.3688416
1409351309568,-2.3403323,10.234613,1.2868834,1.6117324,9.370112,2.4028544
1409351309569,-2.404377,9.7240505,1.3227965,1.5502485,9.3645,2.4644017
1409351309585,-2.783858,8.900445,0.79008657,1.4651562,9.367897,2.503242
1409351309589,-2.5187001,8.335413,1.2204443,1.3779184,9.38269,2.4973674
1409351309611,-1.9494787,8.462905,1.9955671,1.3051888,9.399911,2.471549
1409351309612,-1.3802572,8.954913,1.882441,1.2509613,9.412029,2.453404
1409351309620,-0.3854665,9.225458,1.5586253,1.2102143,9.420548,2.4411213
1409351309635,1.0588357,9.141661,1.5676036,1.1728799,9.431021,2.4187973
1409351309658,1.858499,9.320028,1.3682863,1.1376971,9.442654,2.3900545
1409351309660,1.673547,10.247183,1.18094,1.0963475,9.459165,2.3436341
1409351309667,1.151611,10.84334,1.311424,1.0413122,9.478834,2.2886107
1409351309670,0.80086046,10.868479,1.4275428,0.9693799,9.49713,2.2439258
1409351309705,0.37828386,10.254965,1.1953052,0.8783564,9.51179,2.2191672
1409351309707,-0.760159,9.714474,1.2719196,0.76940763,9.526798,2.1951158
1409351309709,-0.97743285,9.559449,1.3485341,0.64437133,9.546283,2.1502686
1409351309710,-1.1988965,8.913014,1.0971429,0.5165651,9.568776,2.083772
1409351309737,-1.2671312,8.131308,0.74399817,0.39260167,9.589968,2.0121634
1409351309739,-1.192911,7.5201874,0.44113165,0.27449834,9.607209,1.948478
1409351309761,-1.2120646,7.1981673,0.23702596,0.1637392,9.620101,1.8966427
1409351309763,-1.2497733,7.3950906,0.5021838,0.057415396,9.630588,1.8490181
1409351309765,-1.3724761,7.900267,1.0456676,-0.036815673,9.637927,1.8109185
1409351309769,-1.4736311,8.507795,1.3371617,-0.11779373,9.641734,1.7870325
1409351309792,-1.6172832,8.439561,1.1246762,-0.18974954,9.641649,1.7812849
1409351309794,-1.8118122,7.687183,0.7272388,-0.26022717,9.636828,1.7983944
1409351309801,-1.8231846,7.466318,0.50757074,-0.33608124,9.626914,1.8384717
1409351309824,-1.7591397,7.109582,0.427365,-0.42211154,9.614667,1.8842479
1409351309826,-1.6968905,7.3047094,0.7158663,-0.5176446,9.603741,1.9158881
1409351309829,-1.3760674,8.021174,1.1731589,-0.61949503,9.59551,1.9268653
1409351309860,-0.53091425,8.511387,1.2216414,-0.72094566,9.58873,1.9253316
1409351309862,0.5895722,8.611943,1.2270284,-0.8139538,9.582067,1.9214281
1409351309864,1.4879963,8.781333,1.4221559,-0.89480984,9.575647,1.9174709
1409351309869,1.6454151,8.966884,2.328361,-0.96087974,9.568257,1.9223809
1409351309895,1.5556326,9.165603,2.2816741,-1.0116277,9.556092,1.9565532
1409351309896,1.3389573,8.953117,2.019509,-1.0533637,9.538099,2.0212638
1409351309929,0.98700964,8.678981,1.7579426,-1.0974444,9.514996,2.104962
1409351309931,0.961272,8.637681,1.5358804,-1.1547496,9.4894085,2.1881664
1409351309932,1.6005238,8.705916,1.3617022,-1.2242676,9.464865,2.2556384
1409351309933,1.9734207,9.018359,1.3634979,-1.2958777,9.443713,2.3037767
1409351309960,2.0787656,9.522339,1.6118963,-1.3600457,9.426573,2.3367467
1409351309962,2.0847511,9.840768,2.1458032,-1.4143862,9.411277,2.365957
1409351309964,2.1906946,9.752182,2.7497406,-1.4629228,9.394896,2.4012873
1409351309970,1.8656816,9.295488,2.8574798,-1.5097147,9.374691,2.450781
1409351309995,0.9708488,9.006987,3.256713,-1.5603799,9.350607,2.5103276
1409351309996,0.09935937,8.940548,3.7804444,-1.6171333,9.323128,2.575767
1409351310001,-0.055066638,8.959103,3.2345665,-1.6758497,9.293593,2.6440597
1409351310017,0.59256494,8.91481,2.259528,-1.7307392,9.26535,2.7070699
1409351310033,1.875857,8.808268,2.2816741,-1.7771854,9.241724,2.7572694
1409351310034,2.4271219,9.065644,2.7096379,-1.8109888,9.224071,2.794141
1409351310050,1.99437,9.450513,3.074155,-1.835632,9.2121,2.8174574
1409351310051,0.7858967,9.959879,2.7712884,-1.8565695,9.203443,2.8319986
1409351310066,-0.09876082,10.697892,3.3889925,-1.8743352,9.199221,2.8340077
1409351310069,-0.4842273,9.991602,3.9360676,-1.8874928,9.19669,2.8334908
1409351310092,-0.5518635,9.548675,3.016694,-1.881924,9.199426,2.8283057
1409351310093,0.44651863,9.19134,2.585738,-1.8507127,9.211286,2.8102427
1409351310101,1.2521675,8.871116,2.9592333,-1.7824647,9.23254,2.7844987
1409351310117,0.60094464,8.950723,1.8441339,-1.6829802,9.262793,2.745662
1409351310138,-0.362123,8.901043,0.4794389,-1.5781463,9.304014,2.6674306
1409351310139,-1.5705963,8.384495,0.18854338,-1.4804118,9.354827,2.5428293
1409351310144,-2.5181017,8.260594,0.31783026,-1.3911319,9.408691,2.389909
1409351310150,-3.4638114,9.095572,0.4201824,-1.304313,9.462436,2.2206905
1409351310192,-4.6501384,11.9333,0.5638345,-1.2208184,9.5138445,2.0412614
1409351310195,-5.2325277,16.99943,0.9720459,-1.1420832,9.5613985,1.8562568
1409351310196,-4.5872903,19.608511,0.9708488,-1.0681407,9.602666,1.6787667
1409351310198,-3.8959646,19.608511,-0.26755205,-0.96729463,9.637483,1.5341642
1409351310202,-4.661511,19.608511,-0.7613561,-0.84527934,9.667529,1.4123563
1409351310219,-5.1666875,18.152838,0.22984336,-0.75145084,9.68884,1.3160878
1409351310239,-4.703409,13.770849,1.9195513,-0.7055565,9.6956835,1.2908558
1409351310241,-3.515885,9.497798,3.1998506,-0.68340254,9.687066,1.3653221
1409351310242,-3.5128925,6.0130377,4.5621514,-0.6584221,9.668655,1.5013258
1409351310250,-3.900753,8.99741,6.381146,-0.62846947,9.647127,1.6457098
1409351310266,-2.2996306,10.117298,5.4641666,-0.59166634,9.627945,1.7671996
1409351310271,-1.2120646,8.290522,3.8815994,-0.49844798,9.625317,1.8097593
1409351310284,-0.05805939,7.6081743,2.80361,-0.37360054,9.632525,1.8014702
1409351310308,0.74519527,7.4986396,2.558803,-0.21385786,9.649042,1.7379951
1409351310310,1.311424,7.5842323,2.3983915,-0.052744772,9.664157,1.6648324
1409351310312,1.6759412,7.4872675,1.9506758,0.09954423,9.67359,1.6069057
1409351310340,1.8058267,7.2340803,1.3533225,0.23575522,9.677729,1.5672821
1409351310345,1.6927006,6.973711,0.86729956,0.35391253,9.678339,1.5410681
1409351310346,1.2425907,6.3991027,0.6973112,0.45511678,9.676425,1.5264521
1409351310351,0.8882488,5.792771,0.7966706,0.54275036,9.671615,1.5282944
1409351310383,0.7332243,5.28939,1.0241197,0.6217964,9.663145,1.5515835
1409351310386,0.7092823,5.120599,1.1599907,0.6992298,9.650553,1.596337
1409351310390,0.6278794,5.4126916,1.340753,0.7788791,9.634383,1.6560248
1409351310415,0.789488,5.662287,1.4885949,0.85841376,9.616198,1.7211236
1409351310417,0.9504981,5.9448028,1.6406267,0.9370219,9.596056,1.791116
1409351310421,1.0588357,6.39192,1.7244238,1.0105501,9.574979,1.8625236
1409351310440,1.1162965,6.863578,1.894412,1.076853,9.554174,1.9309435
1409351310446,1.1731589,7.1544733,2.0159178,1.1349723,9.534464,1.9940474
1409351310447,1.5801731,7.548918,2.0775685,1.1828831,9.516817,2.04973
1409351310450,1.6490064,7.5441294,2.0901382,1.2196916,9.501862,2.096985
1409351310468,1.6837224,7.2221093,2.0847511,1.2399472,9.490915,2.1343484
1409351310483,1.8794483,6.7905545,2.3600843,1.2407582,9.484662,2.1615064
1409351310484,2.1960814,6.6349316,3.0178912,1.2207332,9.482847,2.1807868
1409351310500,2.557606,6.994062,3.8774097,1.1917033,9.482201,2.1995695
1409351310502,2.926313,7.8463974,4.565144,1.1449658,9.484625,2.2138941
1409351310517,3.4045548,9.060856,4.678869,1.0844711,9.489995,2.2213316
1409351310535,3.6978445,10.238205,4.3341036,1.0178423,9.498448,2.2167292
1409351310536,3.4979286,10.608707,3.7355533,0.95409274,9.509815,2.19625
1409351310555,3.2890346,10.549451,3.8337154,0.9008901,9.522824,2.1620862
1409351310556,2.6437972,12.78384,4.546589,0.8684198,9.533615,2.1275394
1409351310562,1.234211,15.101427,4.1958385,0.85761344,9.540192,2.1022913
1409351310582,1.1623849,15.002068,2.8496985,0.8538685,9.54665,2.0743103
1409351310583,2.0141222,13.306973,1.6950948,0.8793613,9.553354,2.0323663
1409351310597,3.5631707,11.578958,1.8962077,0.9479333,9.553359,2.0012848
1409351310601,5.04578,10.119094,3.8073792,1.0403252,9.544487,1.9977182
1409351310616,5.21517,10.427945,8.6095495,1.1609699,9.517777,2.057778
1409351310635,2.4636335,14.253282,4.2299557,1.2994118,9.469988,2.1911821
1409351310636,-0.92895025,18.826805,2.891597,1.4160244,9.440884,2.2438848
1409351310652,-2.859874,15.611392,1.8339585,1.484256,9.434202,2.2278275
1409351310653,-2.8898015,12.151771,0.2693477,1.5340228,9.433385,2.1973703
1409351310661,-2.6833014,9.177573,1.110311,1.5591793,9.427045,2.2068484
1409351310681,-2.3038206,7.8475947,2.4558525,1.5440619,9.4085245,2.2947676
1409351310683,-2.236783,7.680599,2.8293478,1.4924461,9.389084,2.4058459
1409351310706,-2.15538,7.563882,2.0751743,1.422311,9.382074,2.4746933
1409351310708,-1.7603368,8.107366,1.8920178,1.3511174,9.384906,2.5036798
1409351310711,-1.0923545,9.093777,2.3666685,1.2891406,9.401413,2.4742584
1409351310739,-0.43993455,10.067618,2.1841104,1.2346542,9.421891,2.423632
1409351310743,0.42197806,10.327389,1.5239093,1.1970941,9.439122,2.3749363
1409351310746,1.2862848,10.209475,1.1025299,1.167347,9.453234,2.333256
1409351310750,1.7351977,10.4967785,0.76554596,1.1278858,9.468622,2.2898576
1409351310766,1.5634137,11.194689,0.57640404,1.06921,9.489291,2.2317128
1409351310783,0.98222125,12.266692,0.58119243,0.98999816,9.514963,2.1577218
1409351310784,0.34476504,12.260707,0.48362875,0.8916234,9.5411,2.0839486
1409351310799,-0.3453636,10.848726,0.6572084,0.77987146,9.561504,2.03465
1409351310814,-0.7284359,9.490616,1.1923125,0.66078013,9.573456,2.0205712
1409351310815,-0.9068039,8.417415,1.7340006,0.5386918,9.580895,2.0215404
1409351310831,-0.9451111,7.657854,1.6304513,0.4179604,9.58694,2.0214567
1409351310832,-0.9504981,6.977901,1.2719196,0.3001511,9.595359,2.0023487
1409351310846,-1.0067618,6.5146227,0.7356185,0.19029403,9.604794,1.9703035
1409351310850,-1.0540473,6.381745,0.28909984,0.08991072,9.613819,1.9330759
1409351310863,-1.0660183,6.519411,0.4237737,-0.0018820143,9.622511,1.8914732
1409351310876,-1.5867572,7.28795,0.65182143,-0.08551117,9.630881,1.8464047
1409351310882,-2.018312,8.136096,0.712275,-0.16399844,9.638341,1.8016397
1409351310903,-2.2786815,8.608353,0.45070848,-0.2412145,9.643267,1.7662498
1409351310920,-2.4420857,7.9331875,0.020949265,-0.319604,9.644115,1.7490853
1409351310923,-2.5061307,7.52737,-0.11731588,-0.40089974,9.640503,1.7522534
1409351310925,-2.7030537,7.802105,0.19512744,-0.48498446,9.6348505,1.7620535
1409351310931,-2.219425,8.002619,0.57999533,-0.5840112,9.6273155,1.7731694
1409351310962,-1.1965023,8.702325,0.8870517,-0.6897636,9.6199465,1.775172
1409351310965,-0.44113165,8.802881,0.8655039,-0.78623754,9.614098,1.7667373
1409351310970,0.6865373,8.510789,0.8182184,-0.8678297,9.609264,1.7547879
1409351310982,1.614889,8.465299,1.1013328,-0.93414986,9.604377,1.7474867
1409351311007,2.2918496,8.920795,1.7645266,-0.9839536,9.597669,1.7569858
1409351311010,2.6234465,9.466674,2.3127987,-1.0169749,9.585744,1.8026884
1409351311012,2.754529,9.411607,2.183512,-1.0410777,9.56707,1.8861837
1409351311014,2.5145104,9.088988,1.8082209,-1.0697275,9.54342,1.987261
1409351311054,2.4408886,9.029133,1.5227122,-1.1144665,9.517281,2.0856016
1409351311057,2.460641,9.384672,1.5586253,-1.1692029,9.491621,2.1708295
1409351311060,2.409764,9.810242,1.9117701,-1.2307719,9.468912,2.2350159
1409351311064,2.1733365,9.978435,2.3624785,-1.293083,9.449753,2.2804642
1409351311067,1.9907787,9.80665,3.1932666,-1.3524718,9.431792,2.3200188
1409351311097,1.733402,9.238028,3.4422636,-1.4100647,9.409852,2.3741906
1409351311098,1.0672154,8.391078,3.4644098,-1.4704863,9.38118,2.449805
1409351311100,0.4758476,7.5525093,3.4997244,-1.5378691,9.346004,2.541174
1409351311116,0.38486794,7.2406645,2.717419,-1.6065634,9.309004,2.632831
1409351311119,1.0785879,7.1460934,2.172738,-1.6679785,9.276762,2.7073867
1409351311133,1.7950528,7.3537903,2.5025394,-1.7137711,9.252725,2.7605217
1409351311135,1.834557,8.054693,3.1172507,-1.7492043,9.233157,2.803481
1409351311153,1.3102269,9.148843,3.217807,-1.769092,9.222441,2.8261826
1409351311155,0.22984336,10.165182,2.6396074,-1.7809604,9.219594,2.8280094
1409351311165,-0.6937199,11.11987,1.95307,-1.7893243,9.223097,2.811264
1409351311183,-0.5117606,11.614272,2.2397757,-1.7898513,9.233493,2.776586
1409351311187,-0.011971008,11.204864,3.3973722,-1.7684925,9.250375,2.733747
1409351311206,0.8463503,10.031705,2.4480712,-1.7212027,9.270431,2.6957338
1409351311207,1.4221559,9.790489,3.3171666,-1.6477549,9.297655,2.6474364
1409351311210,1.09834,9.831789,2.9861681,-1.5452793,9.328821,2.5991502
1409351311230,0.2160767,9.885659,1.3263878,-1.4320527,9.36478,2.533867
1409351311231,-0.92057055,9.434352,0.46507367,-1.3247467,9.40701,2.4338493
1409351311247,-1.9626468,8.709507,0.40641573,-1.2328321,9.449232,2.3157132
1409351311251,-2.879626,8.555081,0.46746787,-1.1430914,9.490893,2.1878445
1409351311265,-3.887585,10.046669,0.9151836,-1.0550122,9.5308075,2.0545256
1409351311285,-4.626795,14.173076,1.6867151,-0.96841496,9.569158,1.9140999
1409351311286,-4.6297874,19.104532,1.8872294,-0.88450235,9.603922,1.775594
1409351311293,-3.9228995,19.608511,0.7918822,-0.79013216,9.633928,1.653322
1409351311320,-4.420295,19.608511,-0.5374983,-0.6718131,9.65899,1.55659
1409351311322,-5.192425,18.892048,-0.12808979,-0.57187766,9.678046,1.4760692
1409351311324,-5.3079453,14.810532,1.1767502,-0.5192536,9.685288,1.4477351
1409351311331,-4.220379,10.484209,2.5127146,-0.4982073,9.677279,1.5074697
1409351311356,-3.46022,6.8318543,3.8480806,-0.48114058,9.661144,1.6128157
1409351311358,-3.9653966,5.7903767,5.406706,-0.45667687,9.638319,1.7506214
1409351311363,-3.9510314,8.650849,6.205172,-0.4311593,9.615823,1.8762854
1409351311390,-1.0055647,9.598953,4.0557775,-0.3807331,9.602417,1.9542338
1409351311392,0.7517793,9.076419,3.015497,-0.25347233,9.609842,1.938322
1409351311395,1.7160441,8.969876,2.368464,-0.077241376,9.627894,1.8622816
1409351311424,1.9063832,8.382699,2.3403323,0.110963956,9.645065,1.7694056
1409351311426,2.1625626,8.02297,1.8992004,0.2827619,9.655504,1.6916414
1409351311428,2.2301989,7.487866,1.4945804,0.4251602,9.660068,1.6348441
1409351311431,1.99437,6.495469,1.2862848,0.54444796,9.660107,1.5988526
1409351311454,1.685518,6.105214,1.3964181,0.6455053,9.656246,1.5844975
1409351311455,1.359308,5.358822,1.4089876,0.7368517,9.650027,1.5825422
1409351311463,1.1899183,5.0930657,1.5454572,0.81523883,9.640553,1.6017209
1409351311478,0.9427169,4.903325,1.6280571,0.8845988,9.628202,1.6387814
1409351311482,0.9804256,4.812944,1.4143747,0.94857234,9.613583,1.6880882
1409351311495,0.9528923,4.7518916,1.2078748,1.0114394,9.597479,1.7423534
1409351311511,1.0348936,4.699818,1.0576386,1.0702448,9.581086,1.7966017
1409351311512,1.0247183,4.6471453,1.009156,1.1219908,9.565036,1.8497576
1409351311527,0.94331545,4.6657004,1.1779473,1.1652458,9.54992,1.9004285
1409351311532,0.95588505,4.887164,1.3263878,1.2009598,9.536042,1.9473008
1409351311552,1.1258733,5.336077,1.3401544,1.2291765,9.524696,1.9848604
1409351311553,1.3718776,5.873575,1.3557167,1.2496262,9.517412,2.0069087
1409351311562,1.7585411,6.9078703,1.8842367,1.2667245,9.512562,2.019156
1409351311581,1.8788497,7.3310456,2.4654293,1.2710718,9.512314,2.0175884
1409351311606,2.1452048,7.8326306,3.2549171,1.2582895,9.516079,2.0078163
1409351311608,2.5582044,8.759187,4.06296,1.2280685,9.52258,1.9956694
1409351311611,2.984971,10.107122,4.7500963,1.1840991,9.530509,1.9843712
1409351311613,3.1334114,11.2725,5.064934,1.130721,9.539535,1.9720962
1409351311640,3.1106665,11.735778,4.754286,1.0727197,9.55003,1.953613
1409351311645,2.9508536,11.179725,3.9749734,1.0143,9.563589,1.9181607
1409351311646,2.4013844,12.621035,4.1455603,0.95602095,9.579931,1.8658377
1409351311663,1.2683283,16.050728,4.5423994,0.8944313,9.593247,1.8275708
1409351311664,0.7613561,16.038757,2.8963854,0.82839674,9.603146,1.8065883
1409351311680,1.9416976,14.750078,0.58897364,0.77168053,9.611196,1.7888072
1409351311683,3.5883098,13.247717,0.04070143,0.7754475,9.61787,1.7508968
1409351311697,5.1116204,11.085154,0.5614403,0.8364989,9.617387,1.7252625
1409351311714,6.217742,9.097966,2.908955,0.93163335,9.604465,1.7483518
1409351311715,6.0363812,8.376115,8.190564,1.0557623,9.5777235,1.8229028
1409351311732,4.3185415,12.291832,10.73979,1.2076868,9.536187,1.9424288
1409351311733,3.080739,18.627487,5.410896,1.3532164,9.4934435,2.0527358
1409351311747,1.4101849,19.025524,2.7659016,1.4655364,9.482365,2.0266626
1409351311764,-3.9312792,12.444462,1.1683705,1.5233021,9.484606,1.9728748
1409351311765,-4.1718965,10.639234,0.11671733,1.5033127,9.482848,1.9965
1409351311783,-4.2359414,9.987412,1.4903905,1.4661969,9.477006,2.0511003
1409351311784,-4.0372224,10.534488,1.7776948,1.3941181,9.467808,2.1418333
1409351311791,-3.9013517,10.156802,-0.062249243,1.2916337,9.46476,2.2181933
1409351311813,-3.6774938,9.132683,-0.51116204,1.182652,9.473069,2.2433624
1409351311814,-3.1830912,8.430583,0.3274071,1.0813018,9.487166,2.2349148
1409351311826,-2.4289176,8.522759,0.7020996,0.99445546,9.498303,2.2279396
1409351311831,-1.3922282,9.145252,0.6326678,0.9224884,9.505103,2.2298973
1409351311845,-0.23403321,9.366715,0.7218518,0.860801,9.51321,2.2199674
1409351311862,0.55485624,9.120112,1.01574,0.8026254,9.526409,2.184881
1409351311863,0.6823475,9.115324,1.3443443,0.74102926,9.543343,2.1321115
1409351311879,0.47884035,9.436746,1.9111716,0.6720764,9.560359,2.0780392
1409351311897,0.3585317,9.845556,2.510919,0.5968176,9.575139,2.0324628
1409351311899,0.26994625,10.172364,2.4199393,0.5181573,9.586017,2.0025427
1409351311913,0.076015905,10.31901,2.098518,0.43708766,9.595122,1.9781215
1409351311914,-0.33997664,10.281899,1.8656816,0.3541206,9.605192,1.9455758
1409351311927,-0.7248446,9.91439,1.5873557,0.26915333,9.616664,1.9020255
1409351311931,-0.9660604,9.396045,0.8170213,0.1815718,9.628062,1.8541379
1409351311947,-0.9175778,8.667608,0.7158663,0.092711605,9.638283,1.8070202
1409351311961,-0.97503865,8.328231,0.7374141,0.0074549923,9.645914,1.7682443
1409351311963,-1.0696096,8.461707,0.9588778,-0.0707555,9.65143,1.7364585
1409351311978,-1.1528081,8.710705,1.2384008,-0.14053105,9.654901,1.7127632
1409351311993,-1.287482,8.835801,1.3174095,-0.2042714,9.656647,1.6964298
1409351311994,-1.4820108,8.56825,1.2605472,-0.26135787,9.654907,1.6984886
1409351312013,-1.5328877,8.115746,1.0384849,-0.31799248,9.648539,1.7248119
1409351312014,-1.3090298,7.5327573,0.79128367,-0.3794418,9.638059,1.7703824
1409351312026,-1.1336545,7.442376,0.81522566,-0.445904,9.626189,1.8188071
1409351312031,-0.96187055,7.8446016,1.0498575,-0.52006406,9.615783,1.8538276
1409351312043,-0.44472298,8.526351,1.2719196,-0.602289,9.607797,1.8702544
1409351312061,0.2896984,8.606557,1.2443863,-0.6879592,9.601036,1.8754286
1409351312078,1.0546459,8.374918,1.3413515,-0.7732856,9.594267,1.8768232
1409351312079,1.7298107,8.385093,1.7052702,-0.85827774,9.585373,1.8853105
1409351312094,2.0446482,8.146272,1.9614497,-0.9378221,9.57207,1.9147751
1409351312095,2.0123265,8.024766,2.0111294,-1.0120893,9.555565,1.958889
1409351312112,1.508347,8.02716,2.1152773,-1.0822672,9.533628,2.0270717
1409351312113,0.85054016,7.802105,2.247557,-1.1533027,9.5059,2.1161668
1409351312126,0.5907693,7.294534,1.5807717,-1.2319733,9.473728,2.213845
1409351312131,0.9451111,7.5136037,1.2856863,-1.322731,9.442072,2.2952163
1409351312144,1.4155718,8.015787,1.4502877,-1.4171981,9.415893,2.3458261
1409351312163,1.7675194,8.545505,1.8567034,-1.5022533,9.396805,2.3693216
1409351312164,1.894412,9.106346,2.3953989,-1.5679411,9.38226,2.3843536
1409351312177,1.9662381,9.301474,2.8844144,-1.6142017,9.367655,2.4107635
1409351312197,1.9267339,9.3822775,2.7168205,-1.6479367,9.349537,2.457817
1409351312198,1.7543513,9.281123,2.6886885,-1.6769637,9.328576,2.5171149
1409351312213,1.4389153,9.208099,2.5731683,-1.7071801,9.306709,2.5770273
1409351312214,1.2360066,9.2547865,2.2170308,-1.7362493,9.285907,2.6320648
1409351312225,1.34195,9.213487,2.5941176,-1.7649113,9.268754,2.6731403
1409351312231,1.5424645,9.532514,3.4967315,-1.7883167,9.254534,2.7066422
1409351312247,1.5310919,10.051457,3.8780081,-1.8009388,9.243764,2.7349288
1409351312258,1.0815806,10.422559,3.6445735,-1.8041503,9.237763,2.7530315
1409351312263,0.31902736,10.641628,2.9759927,-1.8024806,9.236013,2.759982
1409351312275,-0.16101007,10.74817,2.4319103,-1.7985817,9.238665,2.7536488
1409351312294,0.29328972,10.307637,2.9580362,-1.7863045,9.247828,2.730787
1409351312295,0.51954174,9.25359,3.8031895,-1.7534152,9.263043,2.7003627
1409351312307,0.16759412,8.627506,2.8119898,-1.7127976,9.278362,2.6737065
1409351312311,1.6160861,8.376115,3.5021186,-1.6579453,9.299004,2.6363149
1409351312327,0.90141696,7.8027034,2.9011738,-1.5718141,9.323108,2.6037412
1409351312333,-0.41000703,7.4375877,1.1587936,-1.4780616,9.351191,2.5575318
1409351312358,-1.9189527,7.1604586,0.729633,-1.3879293,9.386258,2.4783502
1409351312360,-3.2196028,7.863157,1.3018472,-1.3012972,9.42762,2.3657997
1409351312389,-4.1880574,10.371083,2.1362264,-1.2140104,9.4722595,2.229996
1409351312391,-4.4502225,15.158888,2.4103625,-1.1250863,9.516579,2.0831015
1409351312393,-3.369839,19.458275,1.6238673,-1.028298,9.5592375,1.9323487
1409351312394,-2.532467,19.608511,-0.4866215,-0.8964103,9.602879,1.7752608
1409351312410,-3.9713821,19.608511,-1.8034325,-0.7421258,9.645113,1.6097908
1409351312412,-5.385158,19.519926,-0.97982705,-0.6155793,9.680896,1.4393455
1409351312426,-5.4342394,16.056713,0.7326257,-0.5479686,9.702024,1.3194162
1409351312442,-4.2981906,11.04146,2.3122003,-0.52070206,9.70636,1.2983997
1409351312443,-4.0054994,6.9545574,4.2945995,-0.5040655,9.697762,1.3673896
1409351312459,-5.401319,7.849989,6.4427967,-0.4908199,9.680621,1.4883149
1409351312463,-3.731962,10.800842,6.194997,-0.48928866,9.658717,1.6248645
1409351312478,-1.5089456,9.882068,4.348469,-0.43641296,9.646602,1.7096809
1409351312495,0.25198972,9.267356,3.1052797,-0.29954955,9.652792,1.7041864
1409351312496,1.5304934,8.607155,2.6844985,-0.12159442,9.66623,1.6491269
1409351312511,2.0566192,7.2352777,2.8485014,0.054453805,9.675957,1.5947751
1409351312512,2.5246856,7.41604,2.130241,0.21047916,9.680951,1.5508921
1409351312526,2.7048495,7.307702,1.4850036,0.35899776,9.681628,1.519076
1409351312543,2.484583,7.1634517,0.97144735,0.50092316,9.679061,1.495068
1409351312550,1.8531121,6.9252286,0.5626374,0.6355563,9.673117,1.4823177
1409351312572,1.0187328,6.3009405,0.40402153,0.7551108,9.66335,1.4899317
1409351312574,0.43275195,5.708974,0.55725044,0.8567428,9.649485,1.5244144
1409351312575,0.23702596,5.466561,0.90261406,0.9450739,9.631441,1.5851153
1409351312597,0.33997664,5.429451,1.1731589,1.0273899,9.60956,1.664702
1409351312598,0.3274071,5.398925,1.2401965,1.1083428,9.584742,1.7534786
1409351312612,0.30945057,5.422867,1.2946646,1.1845093,9.559007,1.8419378
1409351312614,0.3788824,5.61141,1.5454572,1.2516268,9.534389,1.9233512
1409351312629,0.6907272,5.843648,1.8130093,1.312513,9.510248,2.0007238
1409351312642,1.067814,6.1225724,1.9363106,1.3643038,9.488356,2.0688586
1409351312643,1.3970166,6.4164605,1.9249382,1.4048554,9.469684,2.1264696
1409351312656,1.5759833,6.6026096,2.1906946,1.4302104,9.455433,2.172488
1409351312664,1.4945804,6.570288,2.4708161,1.4365041,9.445696,2.2103584
1409351312678,1.6214731,6.5361705,2.7096379,1.4202044,9.44033,2.2435691
1409351312693,1.9674352,6.745663,3.0909145,1.3825425,9.439478,2.2705128
1409351312695,2.6994624,7.7626004,4.144962,1.3273758,9.442372,2.2912972
1409351312710,2.7515364,8.637681,4.417302,1.2610536,9.446711,2.3107986
1409351312712,2.6282349,9.359533,4.4675803,1.1829362,9.454231,2.3213253
1409351312732,2.8215668,9.4295635,3.8043866,1.1006471,9.465007,2.3178918
1409351312733,2.765303,8.234857,3.9384618,1.0261921,9.478024,2.2987802
1409351312744,1.3521254,11.108498,5.333683,0.96176094,9.492648,2.2660623
1409351312767,0.025139118,15.745467,5.075109,0.9000463,9.506372,2.2336524
1409351312769,0.5494693,14.868591,2.1332338,0.82847285,9.519978,2.2031915
1409351312772,2.8939912,13.669096,0.12689269,0.7969857,9.532413,2.1606326
1409351312801,5.593454,12.150574,-0.15622166,0.8473592,9.538798,2.1127498
1409351312802,7.3831196,9.492412,1.0043676,0.96991473,9.531604,2.0924141
1409351312803,7.7320743,6.8492126,4.9284644,1.1322243,9.5068655,2.123204
1409351312812,6.4487824,7.2747817,10.967239,1.3245237,9.46599,2.1934178
1409351312826,4.2197804,13.891158,10.073005,1.5374782,9.409413,2.295536
1409351312842,3.4464533,19.591154,4.332308,1.7105633,9.365415,2.3523154
1409351312844,1.0737995,19.14224,3.1932666,1.8454261,9.3578615,2.2793033
1409351312857,-2.110489,15.383345,2.5839422,1.9070857,9.357652,2.2288527
1409351312874,-2.8191724,13.0998745,0.5386954,1.8885286,9.351411,2.2704577
1409351312875,-2.5965118,11.933898,1.5903485,1.8264337,9.344287,2.3492181
1409351312889,-3.1591492,10.585364,0.664391,1.7324268,9.340608,2.4335465
1409351312892,-3.5625722,9.14585,0.49919105,1.6178964,9.351297,2.4710388
1409351312907,-3.1794999,8.413225,1.2449849,1.5065562,9.37233,2.461728
1409351312914,-2.5438392,8.310873,1.7645266,1.4175673,9.391042,2.4432015
1409351312932,-1.8058267,8.701127,1.7016789,1.3563038,9.400125,2.443049
1409351312933,-0.7577648,9.035717,1.5628152,1.3123674,9.405019,2.4482114
1409351312944,0.6278794,9.098565,1.6717514,1.2741164,9.41074,2.4464235
1409351312961,1.5915456,9.474455,1.650802,1.2328266,9.422168,2.423487
1409351312987,1.822586,10.559028,1.6525977,1.1806399,9.440525,2.377593
1409351312989,1.632247,11.316195,1.4478935,1.1165711,9.463707,2.3155806
1409351312993,1.0929531,11.011532,1.1067197,1.0423076,9.486972,2.2541883
1409351312994,0.4961983,10.198102,1.0414777,0.956406,9.506074,2.211383
1409351313015,-0.12749124,9.7479925,1.4496891,0.859907,9.521567,2.1841981
1409351313016,-0.6919243,9.623494,1.6681601,0.75339603,9.538289,2.1503122
1409351313031,-1.1599907,9.106945,1.4311341,0.6400923,9.557583,2.1007757
1409351313053,-1.4341269,8.276755,1.1378443,0.52724546,9.576224,2.0465386
1409351313055,-1.5029601,7.6800003,0.81402856,0.42085314,9.590803,2.0024445
1409351313056,-1.3245921,7.199963,0.45729253,0.3179029,9.602676,1.9641654
1409351313063,-1.3455414,7.6883802,0.7302315,0.22455636,9.61134,1.9344606
1409351313081,-1.5556326,8.643068,1.0301052,0.13974866,9.617976,1.9092916
1409351313085,-1.7046716,9.107543,0.8655039,0.06365897,9.622777,1.8890544
1409351313092,-1.6747441,8.714894,0.6171055,-0.007398586,9.625469,1.8763516
1409351313114,-1.5981296,8.120534,0.36511576,-0.077177055,9.624774,1.8783466
1409351313116,-1.70946,8.124723,0.38367084,-0.15186083,9.619935,1.8984728
1409351313124,-1.7286136,8.391078,0.59974754,-0.2379805,9.612488,1.9271319
1409351313159,-1.4371196,8.412027,0.94451255,-0.33475816,9.604971,1.9500924
1409351313163,-0.6392518,8.588001,1.228824,-0.43203285,9.598768,1.9614725
1409351313165,0.5590461,8.401254,1.2521675,-0.52069825,9.59266,1.9698125
1409351313189,1.7381904,8.21271,1.1390414,-0.5973612,9.586474,1.9781455
1409351313191,2.4971523,8.233061,1.2605472,-0.6629664,9.578691,1.9948844
1409351313194,2.7275944,8.465299,1.6927006,-0.71751755,9.567659,2.0286593
1409351313196,2.493561,8.536526,2.2290018,-0.7609164,9.550773,2.0914433
1409351313227,1.822586,8.413823,2.5629928,-0.79876184,9.526316,2.1867046
1409351313229,1.2024878,8.123527,2.4510639,-0.8419413,9.495295,2.3023698
1409351313231,0.94331545,7.65965,2.1637597,-0.8985197,9.462256,2.4142876
1409351313253,1.1498153,7.4525514,1.8854338,-0.9720716,9.431714,2.5036464
1409351313254,1.6729485,7.5327573,1.9512744,-1.0556984,9.40673,2.56307
1409351313255,2.0159178,8.27077,2.9747956,-1.1364957,9.386672,2.6017618
1409351313277,1.8076223,8.467094,3.6122518,-1.2073663,9.366537,2.642091
1409351313278,1.4826094,8.599374,3.1729157,-1.2718896,9.344289,2.6901598
1409351313294,1.1234791,8.786121,2.597709,-1.3331823,9.31916,2.7470467
1409351313296,1.1510124,8.95611,2.0123265,-1.3937864,9.292691,2.8060021
1409351313308,1.6956934,8.908825,1.447295,-1.4503084,9.269822,2.8526106
1409351313322,2.5258827,8.90643,1.5705963,-1.5000525,9.253754,2.8789382
1409351313340,2.7006595,9.269152,2.552219,-1.5392624,9.244402,2.8882678
1409351313341,2.2517467,9.578603,3.3560722,-1.5687524,9.239198,2.889055
1409351313348,1.0205284,10.003573,3.3446999,-1.5903659,9.235753,2.8882513
1409351313374,-5.985504E-4,10.620679,3.2064347,-1.6087028,9.233276,2.8860166
1409351313376,-0.17058687,10.501567,3.7379475,-1.6168128,9.234392,2.877899
1409351313378,-0.47884035,9.706094,3.8792052,-1.616861,9.237159,2.8689826
1409351313398,-0.44891283,9.309255,2.8431146,-1.5942782,9.247191,2.8492334
1409351313400,0.6667852,9.551069,2.554613,-1.5430753,9.2680235,2.809459
1409351313404,1.6226702,9.394249,2.8341362,-1.4532307,9.297716,2.7588007
1409351313423,1.3724761,8.766968,2.1559787,-1.3350884,9.333707,2.6962686
1409351313425,0.42317516,8.096592,1.1414356,-1.213097,9.37716,2.601469
1409351313439,-0.6655881,7.450157,1.4209588,-1.0933554,9.427195,2.470418
1409351313461,-2.9454668,9.166202,2.0727801,-0.97073466,9.477187,2.3261516
1409351313463,-4.582502,12.987347,2.8592753,-0.8537185,9.523614,2.177686
1409351313486,-5.0918684,18.433558,2.9891608,-0.7501054,9.563839,2.0348845
1409351313488,-3.651756,19.608511,1.5275006,-0.65047264,9.6009865,1.8890105
1409351313490,-3.309984,19.608511,-0.64703304,-0.5220659,9.635003,1.7505928
1409351313497,-4.697424,19.608511,-1.1384429,-0.3796008,9.666142,1.6099709
1409351313534,-4.7321396,18.55985,0.30585927,-0.27498963,9.69045,1.4798534
1409351313537,-3.317765,14.030022,2.1577742,-0.21664545,9.701359,1.4167134
1409351313540,-1.4460979,9.600749,3.7666779,-0.18120836,9.695285,1.4625351
1409351313551,-2.0721815,6.479907,5.7185507,-0.14226678,9.676755,1.5844741
1409351313553,-4.3837833,8.07265,7.5441294,-0.104991674,9.651952,1.7318151
1409351313579,-3.0627825,11.334749,6.9569516,-0.08831249,9.625749,1.8728491
1409351313581,-1.2797008,10.438121,4.92607,-0.032086305,9.611616,1.9458196
1409351313583,-0.005985504,7.9870567,2.8550856,0.09857502,9.615786,1.922849
1409351313585,0.88046765,7.5255747,2.2768857,0.2503988,9.625575,1.8590386
1409351313593,1.2425907,7.2831616,2.4372973,0.40741965,9.63496,1.7809967
1409351313609,1.5634137,7.515998,2.3062148,0.55053115,9.637736,1.7266561
1409351313628,1.7298107,7.36217,1.8315643,0.6813952,9.635122,1.6942595
1409351313630,1.9566613,7.399879,1.0313023,0.7990111,9.630213,1.6706308
1409351313633,1.553837,6.75524,0.7278373,0.90509415,9.624264,1.6506689
1409351313664,1.1575965,5.7825956,0.56563014,0.99728304,9.615885,1.6463825
1409351313666,0.7410054,5.192425,0.5518635,1.0754498,9.603878,1.6671289
1409351313668,0.65421563,5.1319714,0.94092125,1.1405208,9.5876665,1.7164737
1409351313673,0.7206547,4.985925,1.1767502,1.2018225,9.566714,1.7899656
1409351313699,0.81043726,4.6896424,1.2234371,1.2636421,9.542264,1.8758425
1409351313701,0.736217,4.3634324,1.4000094,1.3250217,9.516291,1.9633962
1409351313706,0.6721721,4.2503066,1.6519991,1.3792663,9.490902,2.0471418
1409351313738,0.5057751,4.453215,1.8920178,1.423784,9.467689,2.122759
1409351313741,0.6811504,4.8243165,1.9728222,1.4563135,9.447882,2.187942
1409351313745,1.1947067,5.1241903,1.988983,1.4779937,9.432558,2.2389224
1409351313776,1.7328035,5.530606,2.1511903,1.4892095,9.42286,2.2720845
1409351313782,2.066196,5.9172697,2.3253684,1.4876112,9.419504,2.2869987
1409351313786,2.1691468,6.2225304,2.593519,1.4701622,9.422641,2.2853608
1409351313789,2.2996306,6.5924344,3.0418332,1.4338418,9.431752,2.2707975
1409351313824,2.633622,7.419631,3.590704,1.3787767,9.445295,2.2484996
1409351313830,3.0998926,8.815451,4.047398,1.3170071,9.459512,2.2256541
1409351313834,3.481768,10.527904,4.362834,1.2439605,9.475831,2.1980865
1409351313837,3.181894,11.595717,4.585495,1.1642116,9.493473,2.165407
1409351313841,2.4426842,10.519524,4.572925,1.0809444,9.511381,2.129698
1409351313858,0.9504981,13.724163,5.3683987,1.0007683,9.528203,2.0933728
1409351313859,-0.36631286,15.708358,4.947019,0.9188807,9.5413065,2.0711148
1409351313861,0.27593175,14.462774,2.2050598,0.8384517,9.550216,2.0641608
1409351313880,2.4779987,13.607446,0.49200845,0.80952615,9.556405,2.0470004
1409351313881,4.4556093,12.582129,0.8086416,0.85723233,9.557806,2.02086
1409351313884,5.5641246,10.172364,2.7551277,0.96049774,9.547166,2.024715
1409351313896,5.907094,9.0315275,7.5854297,1.0886724,9.520312,2.085387
1409351313919,5.275025,12.623428,9.813234,1.2352823,9.476473,2.2002175
1409351313921,4.744709,18.814835,6.2045736,1.3866097,9.4239435,2.3317356
1409351313926,2.134431,19.136854,3.4524388,1.5342184,9.396311,2.350731
1409351313955,-1.2755109,15.31092,3.2674868,1.6315737,9.395542,2.2873914
1409351313957,-2.5103204,12.551602,1.738789,1.6600085,9.399601,2.2499492
1409351313962,-2.6701334,11.42932,0.88286185,1.640475,9.399558,2.2644093
1409351313980,-3.0280666,10.325593,1.7340006,1.5823394,9.396288,2.318696
1409351313983,-3.192668,10.232818,2.1631613,1.4938198,9.395717,2.3789544
1409351313987,-3.0520086,10.072407,1.4401124,1.391298,9.404542,2.4060915
1409351314030,-2.7114334,9.432556,1.2114661,1.2928375,9.421194,2.3958466
1409351314033,-1.6968905,8.617929,1.0295067,1.0495493,9.45717,2.3729322
1409351314042,-0.94331545,8.803479,0.78649527,1.0495493,9.45717,2.3729322
1409351314047,0.0676362,8.853758,0.789488,1.0495493,9.45717,2.3729322
1409351314049,1.3688848,8.814254,1.2384008,1.0495493,9.45717,2.3729322
1409351314075,2.1481974,8.897452,1.6316484,0.99799633,9.468841,2.3485026
1409351314077,2.0213048,8.920197,1.7381904,0.93696773,9.484825,2.3088076
1409351314079,1.7052702,8.774151,1.8986019,0.86229867,9.502045,2.2667117
1409351314080,1.2988545,8.695142,1.8130093,0.7742786,9.516444,2.237897
1409351314096,0.8086416,8.520366,1.6699557,0.6782754,9.527354,2.2225757
1409351314097,0.31783026,8.445546,1.774702,0.58079076,9.538384,2.2027977
1409351314107,-0.29328972,8.323442,1.7579426,0.48512453,9.552289,2.1653671
1409351314121,-0.7392098,8.057686,1.483208,0.38588077,9.5671625,2.1191666
1409351314125,-0.89662856,7.9325886,1.1282675,0.28824747,9.58326,2.061178
1409351314137,-0.8900445,7.843405,0.7332243,0.19147286,9.598329,2.001455
1409351314155,-0.90979666,7.7069354,0.5398925,0.098598614,9.611346,1.9449165
1409351314156,-1.0773908,7.817667,0.54049104,0.013200112,9.622118,1.8934289
1409351314171,-1.3036429,8.432379,0.9235633,-0.06123846,9.630932,1.8471085
1409351314173,-1.5999253,9.345766,1.2024878,-0.1244358,9.636771,1.8131571
1409351314190,-2.2014685,9.108741,0.45429978,-0.18166605,9.638055,1.801472
1409351314194,-2.4187422,8.4826565,0.11851298,-0.24449587,9.634737,1.8117578
1409351314214,-1.965041,8.1163435,0.19812019,-0.31855273,9.626911,1.8416029
1409351314215,-1.6693572,8.166622,0.57879823,-0.40242973,9.617275,1.8752187
1409351314255,-1.496376,8.327033,0.93254155,-0.4897047,9.607437,1.904661
1409351314257,-1.0241197,8.408437,1.0666169,-0.5825658,9.599974,1.9161166
1409351314263,-0.36511576,8.655638,0.92057055,-0.6747921,9.594858,1.9114778
1409351314266,0.39803603,9.464878,0.84216046,-0.7615398,9.589972,1.9033874
1409351314295,0.7260417,9.414001,1.3221979,-0.83726907,9.582876,1.9073125
1409351314296,0.7392098,9.060258,1.8357542,-0.9051669,9.569732,1.9419776
1409351314297,0.45549688,8.863934,2.1799207,-0.9685308,9.548467,2.0147336
1409351314298,0.15861586,8.504205,2.473809,-1.0347904,9.518306,2.1216648
1409351314305,-0.046686932,7.7865424,2.1212628,-1.1135978,9.480533,2.2471764
1409351314324,0.08499416,7.445369,1.377863,-1.2120103,9.440586,2.361517
1409351314327,0.54168814,7.723695,1.0223241,-1.3191471,9.402351,2.454794
1409351314344,1.0103531,8.196549,1.1414356,-1.4202315,9.374255,2.5053315
1409351314347,1.4143747,8.883087,1.6071079,-1.5022196,9.35657,2.523554
1409351314353,1.6112977,9.39365,2.0745757,-1.5612166,9.344262,2.5333278
1409351314373,1.8441339,9.376891,2.823961,-1.6057408,9.331566,2.5522277
1409351314375,1.6705543,8.748413,2.908955,-1.6454436,9.3140745,2.5905478
1409351314389,1.3557167,8.664616,2.9095535,-1.6878524,9.293657,2.636185
1409351314415,1.536479,8.760384,2.5378537,-1.7269106,9.274869,2.6767473
1409351314417,1.9381063,8.892664,2.2457612,-1.7533667,9.260188,2.7101686
1409351314419,2.2272062,9.217676,2.498948,-1.7660965,9.249193,2.7392964
1409351314426,2.1667526,9.604341,2.9059622,-1.7683886,9.242586,2.7600324
1409351314449,1.6627731,9.99639,2.8203697,-1.7700891,9.238143,2.7737901
1409351314450,1.1569979,10.38904,2.4073699,-1.7705113,9.238221,2.7732594
1409351314453,0.8499416,10.840945,2.4361002,-1.767498,9.242203,2.76189
1409351314470,1.477821,10.69849,3.594894,-1.7513194,9.25062,2.7439597
1409351314473,1.3670892,9.89763,4.225766,-1.7090424,9.263888,2.725795
1409351314485,0.4950012,9.67018,2.955642,-1.6480997,9.281405,2.7036376
1409351314511,0.8367735,9.740809,2.9370868,-1.5733166,9.305621,2.6646745
1409351314513,1.22224,9.621698,3.3039982,-1.4730461,9.335125,2.6183858
1409351314523,0.7870938,8.656835,2.0949266,-1.3542496,9.369478,2.559159
1409351314552,-0.61530983,7.455544,1.0007763,-1.2370058,9.411113,2.4639726
1409351314553,-1.9147629,7.0245876,0.7128736,-1.1281934,9.458071,2.3329098
1409351314554,-3.0867245,7.6931686,0.95827925,-1.0261046,9.504004,2.188935
1409351314556,-4.2742486,10.093356,2.2080526,-0.92106307,9.549105,2.033872
1409351314571,-4.5244427,19.36969,2.291251,-0.8203576,9.587843,1.889622
1409351314574,-3.6816838,19.608511,0.48841715,-0.72220224,9.623859,1.7407284
1409351314588,-4.7417164,19.608511,-1.4987702,-0.59501356,9.6577425,1.5951036
1409351314603,-6.3272767,19.607315,-0.92655605,-0.48026386,9.6880665,1.4426048
1409351314605,-6.1566896,16.736069,0.9816227,-0.41621503,9.706653,1.3334458
1409351314620,-4.313753,11.603498,2.581548,-0.38635728,9.708245,1.3308301
1409351314642,-3.4243069,6.71394,4.0426097,-0.35749906,9.695215,1.4301772
1409351314643,-4.994903,6.241684,6.405687,-0.32427675,9.6733055,1.5787288
1409351314646,-4.669292,10.318411,7.047333,-0.30444488,9.644537,1.749467
1409351314653,-2.8526914,10.463859,5.4761376,-0.2817237,9.617107,1.8979677
1409351314671,-0.8230068,9.220071,3.3662477,-0.19392899,9.608032,1.9540912
1409351314674,0.56203884,8.02297,2.2816741,-0.03728782,9.617976,1.9140409
1409351314686,0.95468795,7.0407486,2.1865046,0.13846292,9.632562,1.8343823
1409351314703,1.4544775,6.8162923,2.1320367,0.29712975,9.641895,1.7652164
1409351314706,2.1841104,6.963536,1.9321208,0.43538743,9.645033,1.7187668
1409351314723,2.7383683,7.219715,1.6891093,0.5677911,9.643373,1.6891905
1409351314726,3.0352492,7.101801,1.1558008,0.69585395,9.6380005,1.6718694
1409351314747,2.8520927,6.67683,0.7589619,0.8123044,9.629841,1.6663516
1409351314748,1.4622587,5.2444987,1.1085154,0.91128194,9.618322,1.6816087
1409351314754,0.95109665,4.663905,1.1959038,0.99417543,9.604224,1.7149072
1409351314776,0.78410107,4.3580456,1.1881226,1.0658771,9.585318,1.7765076
1409351314778,0.7505822,4.347272,1.2294226,1.1324068,9.562141,1.8583587
1409351314786,0.7410054,4.44723,1.3174095,1.1946908,9.53638,1.9495021
1409351314810,0.7649474,4.711789,1.501763,1.2518209,9.50954,2.0425463
1409351314812,0.80564886,5.094861,1.5879543,1.3014923,9.48348,2.1307518
1409351314815,0.88286185,5.427655,1.5873557,1.3412538,9.459924,2.209359
1409351314843,1.2018893,5.8400564,1.7046716,1.3705822,9.440333,2.2742023
1409351314846,1.5478514,6.3218894,2.047641,1.3896768,9.425361,2.3241725
1409351314848,1.7250223,6.7444663,2.4079683,1.3958745,9.415344,2.3607693
1409351314855,1.8082209,7.1646485,2.7910407,1.3847938,9.410987,2.3845453
1409351314883,2.0829554,7.590218,3.2082303,1.3641993,9.409472,2.4023318
1409351314884,2.4833858,8.080431,3.6828809,1.3218014,9.414015,2.408228
1409351314887,2.9831753,9.0554695,4.2161894,1.2621591,9.423586,2.4027913
1409351314923,3.25791,10.301651,4.57113,1.1919003,9.437071,2.3856764
1409351314929,3.3997664,11.133636,4.609437,1.1195006,9.45392,2.3538277
1409351314932,3.3273418,11.080964,4.3927617,1.0561655,9.473309,2.3046384
1409351314963,3.2423477,10.916962,4.4484267,1.0091119,9.49287,2.2444384
1409351314967,1.186327,16.534357,4.68246,0.9776069,9.508032,2.1936255
1409351314970,1.903989,14.903906,2.4349031,0.931924,9.519163,2.1650586
1409351314973,3.3626564,13.41112,1.049259,0.92631495,9.527075,2.13241
1409351314979,4.9021277,11.461043,1.4293385,0.9753812,9.53015,2.0964913
1409351314982,5.840655,8.800487,3.4823663,1.0534956,9.522988,2.0912294
1409351315006,5.8723783,7.8727336,7.7757688,1.1546298,9.496903,2.1554718
1409351315014,5.029021,10.806828,8.9842415,1.2793719,9.448969,2.2914188
1409351315015,4.0426097,17.560272,5.686229,1.422626,9.396178,2.4204018
1409351315045,0.61291564,18.873491,3.918111,1.5684346,9.369183,2.4349144
1409351315046,-3.1561563,15.437813,3.9959226,1.6591135,9.370176,2.370135
1409351315047,-4.355053,12.999917,1.4610616,1.6782846,9.376881,2.329774
1409351315049,-3.7187939,11.183915,-0.18914193,1.6458223,9.377496,2.3503706
1409351315054,-3.1669302,9.454702,1.0085574,1.5859768,9.367094,2.4315884
1409351315074,-2.7964275,9.416395,1.4706384,1.5050845,9.354683,2.528837
1409351315076,-2.9759927,9.309854,0.9151836,1.4191716,9.347072,2.6054935
1409351315086,-2.896984,9.35235,1.1432313,1.3234783,9.358879,2.61346
1409351315113,-2.168548,9.864111,1.6005238,1.2396561,9.382012,2.5712802
1409351315114,-1.4826094,10.180145,1.5885528,1.1804191,9.402028,2.5256448
1409351315116,-0.26036942,10.002377,1.7082629,1.1393806,9.414748,2.496942
1409351315153,1.6095021,8.738237,1.5975311,1.1024433,9.424017,2.4784908
1409351315155,1.5801731,8.950125,1.4873978,1.0600005,9.435835,2.451894
1409351315159,1.2665327,9.821614,1.8806454,0.99736214,9.454297,2.4066484
1409351315161,1.0378864,10.498574,1.9788077,0.92021066,9.475254,2.3543947
1409351315185,0.7068881,10.204087,1.6166847,0.8360202,9.493237,2.3129907
1409351315188,0.2753332,9.564836,1.3461399,0.74770916,9.506381,2.2891192
1409351315191,-0.25797522,9.32362,1.3204023,0.6555388,9.517713,2.2701964
1409351315209,-0.6607997,9.105149,1.2719196,0.55881184,9.530748,2.241191
