time,acc_x,acc_y,acc_z,gravity_x,gravity_y,gravity_z
1409351397019,0.23822308,9.56723,2.4079683,0.23671913,9.526498,2.3152103
1409351397024,0.2184709,9.546281,2.405574,0.23467605,9.525647,2.3189154
1409351397037,0.19692309,9.519944,2.409764,0.23245223,9.524946,2.3220186
1409351397050,0.18674773,9.502586,2.4265234,0.22982904,9.524765,2.3230207
1409351397054,0.20470424,9.5013895,2.4265234,0.22695667,9.524966,2.3224795
1409351397068,0.24001873,9.473258,2.405574,0.22417931,9.525258,2.3215556
1409351397072,0.26276365,9.438541,2.40318,0.22216628,9.525583,2.3204145
1409351397084,0.2633622,9.485827,2.3810337,0.22147204,9.52598,2.3188488
1409351397109,0.26156655,9.505579,2.368464,0.22163668,9.526468,2.3168242
1409351397111,0.25617957,9.547478,2.3403323,0.22246456,9.52685,2.3151753
1409351397116,0.18495208,9.53012,2.3505075,0.22413626,9.527148,2.3137841
1409351397125,0.17836803,9.555858,2.3169887,0.22511049,9.527387,2.3127089
1409351397146,0.18076223,9.570223,2.3175871,0.22624479,9.527569,2.3118474
1409351397149,0.18136078,9.564238,2.3157916,0.22718138,9.527751,2.311004
1409351397153,0.19393034,9.531317,2.336741,0.22797932,9.528032,2.309767
1409351397167,0.21906945,9.53012,2.3355439,0.22897588,9.528398,2.3081615
1409351397189,0.26635495,9.548077,2.3397336,0.23075332,9.528825,2.3062167
1409351397193,0.32680854,9.561843,2.3523033,0.23337519,9.529148,2.3046188
1409351397215,0.3537433,9.566631,2.360683,0.23667896,9.529345,2.303472
1409351397217,0.37349546,9.552865,2.3942018,0.2402965,9.529559,2.3022127
1409351397219,0.37229836,9.51755,2.4001873,0.24405766,9.52974,2.301057
1409351397226,0.3549404,9.487024,2.4259248,0.24790286,9.529803,2.3003886
1409351397249,0.29568392,9.564238,2.4486697,0.25165883,9.529648,2.3006225
1409351397250,0.24001873,9.638457,2.4486697,0.25510654,9.529451,2.3010557
1409351397253,0.20530279,9.671378,2.4079683,0.25609875,9.529314,2.3015199
1409351397268,0.1352724,9.696517,2.4522612,0.2584533,9.529482,2.3005552
1409351397273,0.046686932,9.465476,2.3810337,0.25982964,9.529799,2.2990906
1409351397287,0.06344634,9.552266,2.2451627,0.2592777,9.52977,2.2992692
1409351397300,0.08140286,9.576807,2.3642743,0.25767696,9.530683,2.2956698
1409351397304,0.11611878,9.520543,2.3702598,0.25664106,9.531542,2.2922168
1409351397317,0.10115502,9.564836,2.3780408,0.25671095,9.530975,2.2945633
1409351397324,0.046088383,9.588778,2.3708582,0.25675625,9.529893,2.2990444
1409351397338,-0.036511578,9.589975,2.3385365,0.25626996,9.52903,2.3026767
1409351397355,-0.09876082,9.561843,2.309806,0.25433862,9.528786,2.3039024
1409351397356,-0.12509704,9.483433,2.2589293,0.25136423,9.529071,2.3030424
1409351397369,-0.07062895,9.534908,2.28347,0.24737935,9.530066,2.299356
1409351397373,-0.017357962,9.555259,2.3546975,0.24293604,9.531596,2.2934756
1409351397385,0.04369418,9.561244,2.4067712,0.23918897,9.5331335,2.2874792
1409351397400,0.095169514,9.57142,2.408567,0.23687339,9.533928,2.2844079
1409351397404,0.13587095,9.55047,2.433706,0.2351679,9.534128,2.2837398
1409351397416,0.17417817,9.532514,2.4462755,0.23359288,9.5342865,2.283248
1409351397435,0.2220622,9.539697,2.4797945,0.23206739,9.534484,2.2825768
1409351397436,0.25917232,9.540894,2.4947581,0.23056753,9.534678,2.2819128
1409351397463,0.28550854,9.543288,2.5330653,0.22954863,9.53483,2.2813833
1409351397467,0.30945057,9.546281,2.5635915,0.22886258,9.534811,2.2815332
1409351397468,0.29628247,9.57142,2.5629928,0.22866707,9.53478,2.281689
1409351397495,0.32142156,9.628283,2.5145104,0.22881234,9.534768,2.2817147
1409351397496,0.36750996,9.554062,2.493561,0.22933728,9.534868,2.2812433
1409351397497,0.46447513,9.542689,2.4558525,0.23061574,9.53491,2.2809458
1409351397505,0.49200845,9.5253315,2.4289176,0.232858,9.534884,2.2808244
1409351397525,0.5201403,9.512163,2.4462755,0.23533957,9.534832,2.2807837
1409351397527,0.53570265,9.611523,2.433706,0.23770668,9.534888,2.280307
1409351397535,0.5434838,9.691729,2.3864205,0.24002486,9.535338,2.278178
1409351397558,0.5470751,9.566631,2.396596,0.24236713,9.535924,2.275483
1409351397559,0.6123171,9.481637,2.4079683,0.24474977,9.536134,2.2743454
1409351397565,0.66259533,9.500791,2.4396915,0.24759524,9.535759,2.2756057
1409351397573,0.7068881,9.422979,2.4791958,0.25079685,9.53485,2.2790685
1409351397597,0.7799112,9.436746,2.508525,0.2543069,9.533486,2.2843726
1409351397598,0.8158242,9.494805,2.504335,0.26041985,9.532059,2.2896333
1409351397605,0.8379706,9.534908,2.5061307,0.26605615,9.531004,2.2933702
1409351397624,0.81881696,9.566033,2.4821887,0.27155885,9.530208,2.2960398
1409351397625,0.8194155,9.578004,2.4372973,0.27762818,9.529437,2.2985103
1409351397633,0.80445176,9.548077,2.408567,0.28408194,9.528467,2.3017383
1409351397659,0.7739257,9.527127,2.3756466,0.29060182,9.527331,2.3056204
1409351397661,0.74519527,9.510367,2.3391352,0.29630858,9.526179,2.3096592
1409351397668,0.6721721,9.509769,2.2828712,0.3021375,9.524931,2.3140433
1409351397675,0.5835867,9.515755,2.268506,0.30727285,9.523686,2.318486
1409351397703,0.40641573,9.58818,2.2481554,0.31136557,9.522379,2.3233066
1409351397704,0.3298013,9.598354,2.255338,0.3139711,9.521225,2.327679
1409351397707,0.24301147,9.607931,2.2822728,0.3166462,9.520118,2.3318405
1409351397721,0.17537527,9.607333,2.2535424,0.31885514,9.518857,2.3366838
1409351397736,0.12270284,9.576807,2.2254105,0.32093522,9.517665,2.3412495
1409351397738,0.076614454,9.561843,2.1996727,0.3231188,9.516497,2.3456898
1409351397752,0.034715924,9.5253315,2.1829133,0.32499704,9.515226,2.350584
1409351397754,-0.038905777,9.507974,2.190096,0.3268234,9.513981,2.3553658
1409351397768,-0.10474633,9.465476,2.1763294,0.328281,9.51282,2.3598468
1409351397787,-0.18555063,9.46009,2.1948843,0.32913586,9.511832,2.3637042
1409351397790,-0.26276365,9.465476,2.2002714,0.32925037,9.510867,2.3675697
1409351397801,-0.30166942,9.460688,2.1990743,0.3289803,9.510066,2.3708277
1409351397806,-0.31902736,9.485229,2.1948843,0.32904378,9.509433,2.373356
1409351397819,-0.29029694,9.476251,2.2026656,0.32915613,9.509073,2.3747764
1409351397835,-0.27832595,9.516952,2.1894975,0.3292754,9.508851,2.3756506
1409351397836,-0.2220622,9.570822,2.1625626,0.32969224,9.508924,2.3753033
1409351397850,-0.13946225,9.596559,2.1721394,0.3307987,9.509448,2.3730493
1409351397853,-0.11552023,9.587581,2.191293,0.33275503,9.510264,2.3695061
1409351397868,-0.047884032,9.541492,2.2224178,0.3359369,9.511096,2.3657146
1409351397884,0.054468088,9.452907,2.272696,0.34064654,9.511923,2.3617094
1409351397885,0.09935937,9.460688,2.3068132,0.34633252,9.5127125,2.3576994
1409351397902,0.14425065,9.506178,2.32058,0.3525825,9.51344,2.3538277
1409351397906,0.21308395,9.542689,2.3403323,0.35914367,9.514256,2.3495398
1409351397919,0.27353755,9.546281,2.304419,0.36609733,9.515189,2.3446789
1409351397939,0.3453636,9.56304,2.2768857,0.37352088,9.516328,2.3388875
1409351397940,0.39923313,9.5971575,2.271499,0.38145715,9.517648,2.3322284
1409351397952,0.4369418,9.61691,2.2637177,0.38935196,9.51904,2.3252225
1409351397968,0.5021838,9.613917,2.2457612,0.39666066,9.520591,2.3176317
1409351397970,0.54408234,9.626487,2.2637177,0.40421274,9.522176,2.3097987
1409351397986,0.5422867,9.655217,2.2876596,0.4118105,9.523671,2.302281
1409351397987,0.5614403,9.705495,2.2936451,0.4186288,9.525107,2.295097
1409351398010,0.56922144,9.713875,2.3062148,0.42492506,9.52658,2.2878177
1409351398012,0.59735334,9.727641,2.2948422,0.43068746,9.527986,2.2808757
1409351398016,0.6326678,9.69113,2.2936451,0.43647873,9.529213,2.2746372
1409351398047,0.6739678,9.680955,2.2691047,0.44226724,9.530245,2.2691882
1409351398048,0.7278373,9.633669,2.2840683,0.44799915,9.531273,2.263741
1409351398049,0.7793127,9.597756,2.3247697,0.45371473,9.532036,2.2593842
1409351398054,0.84335756,9.564238,2.3642743,0.45923415,9.53241,2.2567022
1409351398073,0.88286185,9.595961,2.385822,0.46451196,9.532564,2.2549593
1409351398076,0.86370826,9.633071,2.3654714,0.46916038,9.5326185,2.25377
1409351398085,0.8487445,9.632472,2.3157916,0.47299108,9.532727,2.252507
1409351398108,0.8499416,9.622296,2.273893,0.47656786,9.532891,2.2510557
1409351398109,0.8230068,9.636064,2.2200236,0.47985274,9.533013,2.2498462
1409351398114,0.8074445,9.602545,2.2104468,0.4821839,9.533118,2.2488983
1409351398159,0.8062474,9.55047,2.2391772,0.48394927,9.533103,2.248584
1409351398163,0.7858967,9.519944,2.280477,0.4856958,9.53288,2.2491577
1409351398168,0.7835025,9.490616,2.3139958,0.48706412,9.532517,2.250397
1409351398172,0.7787141,9.448717,2.3307555,0.48852375,9.532054,2.252038
1409351398177,0.76554596,9.448118,2.3720553,0.49062154,9.531455,2.254113
1409351398213,0.7721301,9.466075,2.345719,0.49310154,9.5307,2.2567728
1409351398216,0.760159,9.484032,2.2852654,0.4962158,9.529984,2.2591066
1409351398219,0.75118077,9.528923,2.2290018,0.49952486,9.52947,2.260547
1409351398225,0.7236475,9.557653,2.1667526,0.50332254,9.529103,2.2612503
1409351398228,0.7098808,9.55885,2.094328,0.50730187,9.528767,2.261779
1409351398257,0.6805518,9.59177,2.0231004,0.5115489,9.528619,2.261445
1409351398259,0.65900403,9.61272,1.9381063,0.5161134,9.528735,2.2599144
1409351398260,0.61650693,9.657013,1.7340006,0.52092534,9.528966,2.257841
1409351398262,0.6362591,9.603742,1.6603789,0.5257899,9.529531,2.254332
1409351398265,0.635062,9.42238,1.6944963,0.5314581,9.530167,2.2503064
1409351398295,0.59735334,9.188348,1.8297687,0.5376214,9.530576,2.2471035
1409351398296,0.59495914,9.009979,2.0326772,0.5449346,9.530556,2.2454257
1409351398297,0.712275,8.953716,2.2786815,0.5536076,9.53006,2.2454104
1409351398323,0.8415619,9.015965,2.4378958,0.56515473,9.52897,2.247164
1409351398326,0.94092125,9.114127,2.4498668,0.57942325,9.527508,2.2497215
1409351398327,0.9947908,9.237429,2.4510639,0.5953486,9.526141,2.2513533
1409351398334,1.0606314,9.379884,2.385822,0.6123393,9.525175,2.2508817
1409351398362,1.1318588,9.527127,2.345719,0.6304727,9.524985,2.246673
1409351398365,1.1683705,9.634866,2.309806,0.65021265,9.525391,2.2393131
1409351398369,1.1767502,9.711481,2.345719,0.6707844,9.52617,2.2299132
1409351398396,1.1552023,9.730036,2.3678656,0.69129854,9.527091,2.219698
1409351398398,1.1210849,9.691729,2.428319,0.7110161,9.527967,2.2096841
1409351398399,1.0851719,9.69113,2.509722,0.73000205,9.528589,2.2007918
1409351398427,1.0163386,9.660604,2.557606,0.7483628,9.528911,2.1932158
1409351398429,0.9864111,9.618706,2.5611973,0.7660651,9.529005,2.1866891
1409351398432,0.9840169,9.57561,2.6024973,0.7829273,9.528946,2.180964
1409351398438,0.84216046,9.52593,2.5803509,0.79947543,9.528468,2.1770375
1409351398459,0.7032967,9.534908,2.5833437,0.8137458,9.527834,2.1745324
1409351398461,0.64583594,9.575011,2.5647886,0.8260116,9.527246,2.1724823
1409351398466,0.557849,9.638457,2.5103204,0.83686966,9.526816,2.17021
1409351398496,0.54767364,9.565434,2.3798366,0.8455267,9.526691,2.1673992
1409351398497,0.30705637,9.369708,2.4169466,0.85292107,9.526976,2.163249
1409351398499,0.4297592,9.744401,2.4211364,0.8565722,9.52746,2.159666
1409351398521,0.40701428,9.5385,2.3642743,0.8597286,9.527939,2.156304
1409351398523,0.3250129,9.597756,2.3050177,0.86219674,9.527988,2.155096
1409351398540,0.3716998,9.387665,2.2936451,0.86305636,9.528535,2.1523361
1409351398541,0.43634325,9.436148,2.2403743,0.86243534,9.529587,2.1479247
1409351398547,0.362123,9.6528225,2.1637597,0.8603686,9.5307865,2.1434252
1409351398572,0.40222588,9.621099,1.9339164,0.85466856,9.532648,2.1374214
1409351398575,0.3345897,9.5492735,1.8734628,0.8485693,9.53544,2.127371
1409351398576,0.36511576,9.560047,1.8656816,0.84385526,9.538736,2.1144328
1409351398586,0.24361002,9.484032,1.9722236,0.8407134,9.542296,2.0995584
1409351398606,0.44232875,9.664794,2.0907366,0.8370898,9.546138,2.0834892
1409351398608,0.41479546,9.805453,2.321777,0.8355477,9.5498295,2.0671232
1409351398617,0.4770447,9.828796,2.658761,0.83527344,9.553018,2.0524545
1409351398644,0.6015432,9.797672,2.3481133,0.83576035,9.555507,2.0406282
1409351398646,0.7469909,9.720459,2.44029,0.8371039,9.559328,2.0220988
1409351398647,0.8403648,9.733627,2.2679076,0.8374403,9.565886,1.9907092
1409351398672,0.89902276,9.988011,1.9375077,0.83571756,9.57514,1.9464453
1409351398674,0.91937345,9.81084,1.9698294,0.832921,9.585094,1.8980432
1409351398676,0.9864111,9.929353,1.7908629,0.831296,9.595168,1.8471813
1409351398685,0.9032126,9.838972,1.7441759,0.8342821,9.60439,1.7972347
1409351398706,0.9648633,9.784504,1.7669208,0.8435563,9.611397,1.7549505
1409351398727,0.973243,9.722853,2.0045455,0.8602922,9.616035,1.7210943
1409351398729,0.89902276,9.648034,2.1416135,0.8803631,9.617956,1.7000885
1409351398730,0.8265981,9.51755,2.0524294,0.8986741,9.618724,1.6861053
1409351398738,0.8475474,10.874464,-0.044292733,0.90870726,9.619581,1.675797
1409351398757,1.0648212,10.964846,0.39025488,0.9076386,9.626405,1.636736
1409351398759,0.92535895,8.963293,3.8552632,0.9020864,9.634029,1.5943977
1409351398766,1.2515689,8.075044,3.1729157,0.88738585,9.626284,1.6485183
1409351398787,1.2970588,8.881291,1.9249382,0.87199473,9.603001,1.7867306
1409351398788,0.9235633,10.139444,1.9285295,0.86377716,9.590084,1.8586502
1409351398802,0.6619968,10.530896,1.963844,0.858725,9.594485,1.8381664
1409351398818,0.79607207,10.204686,1.6849195,0.8553227,9.601473,1.802927
1409351398820,1.3257892,9.351153,1.804031,0.8538404,9.604213,1.7889742
1409351398836,1.395221,9.332599,1.929128,0.85612655,9.604043,1.7887992
1409351398838,1.340753,9.456498,1.99437,0.8583403,9.601651,1.8005307
1409351398853,1.2904748,9.58818,1.965041,0.85989475,9.599775,1.8097835
1409351398866,1.2569559,9.642049,1.917157,0.86057514,9.599418,1.8113526
1409351398867,1.2922704,9.639056,1.9135658,0.8608224,9.600287,1.8066202
1409351398880,1.2988545,9.633669,1.9800048,0.8633159,9.601383,1.7995913
1409351398887,1.2773066,9.572617,2.0284874,0.8675175,9.601853,1.7950518
1409351398899,1.2306197,9.526528,2.030283,0.8712162,9.60181,1.7934897
1409351398921,1.2096704,9.458294,1.9841946,0.87247723,9.601725,1.7933358
1409351398922,1.086369,9.501988,1.9710265,0.87121445,9.601777,1.7936773
1409351398926,0.95708215,9.653421,1.939902,0.86662614,9.601915,1.7951548
1409351398934,0.7104794,9.950901,1.8902222,0.8595164,9.602185,1.7971293
1409351398957,1.2252327,9.3343935,1.666963,0.8486948,9.602687,1.7995857
1409351398958,1.1605892,8.950723,1.9500773,0.84282905,9.602706,1.8022403
1409351398966,1.0336965,9.729437,2.0817583,0.8379444,9.601915,1.8087244
1409351398995,0.90500826,9.846154,1.9506758,0.8294366,9.601289,1.815955
1409351398996,0.35075054,10.375872,2.7922378,0.81835645,9.60212,1.8165781
1409351398998,0.51595044,10.048465,1.5023615,0.80319023,9.603188,1.8177129
1409351399021,0.44651863,9.872491,2.0171149,0.79274994,9.607478,1.7995274
1409351399022,0.6051345,9.512762,1.8441339,0.78416693,9.611909,1.7795211
1409351399026,0.8062474,9.297284,1.8016368,0.77792704,9.612428,1.7794533
1409351399057,0.88645315,9.365519,1.910573,0.7741967,9.610752,1.7901013
1409351399059,0.85413146,9.633071,2.0380642,0.7708322,9.609284,1.7994105
1409351399061,0.6751649,9.866506,1.887828,0.7656944,9.608788,1.8042469
1409351399067,0.6314707,10.204686,1.7723078,0.75707656,9.609409,1.8045665
1409351399092,0.6254852,10.149619,1.6861166,0.7466421,9.611069,1.8000743
1409351399095,0.61052144,9.925163,1.6466122,0.7376153,9.612953,1.7937278
1409351399098,0.62847793,9.781511,1.7208325,0.730735,9.614004,1.7909074
1409351399117,0.5518635,9.749189,1.7986441,0.7235388,9.614042,1.7936175
1409351399119,0.47285482,9.757569,1.8321629,0.71521866,9.613403,1.8003653
1409351399135,0.439336,9.764751,1.8189948,0.70628357,9.612602,1.8081602
1409351399136,0.42437226,9.750386,1.8608932,0.69746894,9.611793,1.8158733
1409351399154,0.47345337,9.722853,1.8507179,0.6888661,9.610848,1.8241373
1409351399157,0.4818331,9.657611,1.8501194,0.68077016,9.609782,1.8327698
1409351399166,0.52133745,9.605537,1.8393455,0.6724116,9.608784,1.8410721
1409351399179,0.58298814,9.52174,1.8375498,0.66386294,9.607991,1.8482939
1409351399201,0.7332243,9.367314,1.869273,0.6562107,9.6073475,1.8543563
1409351399204,0.82001406,9.349358,1.9363106,0.65087634,9.60674,1.8593776
1409351399224,1.2946646,8.884883,1.9608512,0.6474158,9.606386,1.8624177
1409351399227,0.7320272,9.7402115,2.333748,0.650001,9.605786,1.8646083
1409351399229,0.682946,9.903615,2.0039468,0.6488359,9.605105,1.8685073
1409351399238,0.66498953,9.909002,1.7340006,0.64659387,9.605204,1.8687935
1409351399261,0.8499416,9.677961,1.6047137,0.6462711,9.606281,1.8633579
1409351399266,1.0049661,9.652225,1.6962919,0.648384,9.607566,1.8559881
1409351399270,1.0456676,9.483433,1.8650831,0.6532179,9.608417,1.8498747
1409351399287,0.9780314,9.4457245,1.963844,0.65744036,9.608425,1.8483353
1409351399288,0.89902276,9.594764,2.0003555,0.66034454,9.607843,1.8503244
1409351399295,0.84455466,9.787497,1.9662381,0.6611456,9.607457,1.8520328
1409351399319,0.85473,9.800665,1.8872294,0.66056705,9.607833,1.8502972
1409351399320,0.8690952,9.743802,1.8477252,0.6596996,9.608626,1.8464836
1409351399339,0.9223662,9.689334,1.881244,0.659443,9.6091585,1.8438051
1409351399342,0.9091981,9.643845,1.8860323,0.6596331,9.609269,1.8431587
1409351399348,0.8643068,9.706693,1.9255368,0.65923715,9.609231,1.8434908
1409351399364,0.75237787,9.7563715,1.9153614,0.6582982,9.609106,1.8444785
1409351399366,0.6991069,9.80665,1.905186,0.65593994,9.609018,1.8457768
1409351399379,0.6979098,9.849746,1.9129672,0.65287143,9.608922,1.8473662
1409351399396,0.6338649,9.816227,1.9261353,0.6495079,9.60854,1.85054
1409351399397,0.6075287,9.7240505,1.9147629,0.6454115,9.607786,1.8558738
1409351399414,0.62728083,9.588778,1.9273324,0.64102703,9.606797,1.8625091
1409351399415,0.6338649,9.440936,1.9692309,0.6370267,9.605522,1.8704362
1409351399429,0.59855044,9.40203,2.0488381,0.63287854,9.60405,1.8793869
1409351399435,1.3682863,8.233061,1.8764555,0.62800366,9.602487,1.8889778
1409351399449,1.9542671,5.7281275,2.1577742,0.62919706,9.600745,1.8974206
1409351399464,-0.18495208,9.460688,3.292626,0.631787,9.598508,1.9078535
1409351399466,-1.5071499,14.079701,2.8892028,0.6120358,9.596448,1.924579
1409351399486,-0.7266402,11.467029,0.8571242,0.538902,9.600281,1.9273311
1409351399487,-0.2896984,9.652225,0.5979519,0.4709043,9.609867,1.8971323
1409351399495,-0.002992752,9.882068,1.335366,0.44645557,9.6186285,1.8582395
1409351399515,0.44951138,9.986814,1.9500773,0.4558293,9.620537,1.8460468
1409351399518,0.6536171,8.66282,2.3373394,0.47637358,9.616554,1.8615468
1409351399537,0.7344214,8.327033,2.6252422,0.49715352,9.611094,1.8841727
1409351399539,0.705691,9.0716305,2.556409,0.5090927,9.6063595,1.9050165
1409351399546,0.4201824,9.419388,2.2301989,0.5104428,9.604075,1.9161342
1409351399564,0.45669398,9.604341,1.8980033,0.5041291,9.605406,1.9111298
1409351399567,0.6356605,10.8948145,1.7764976,0.49450147,9.608928,1.8958851
1409351399586,0.17717093,10.071808,1.4329298,0.48474786,9.613222,1.876529
1409351399587,-0.08439561,9.439739,1.5352819,0.46959677,9.617774,1.8569558
1409351399596,0.065242,9.600749,1.8507179,0.45047623,9.622186,1.8387483
1409351399620,-0.10474633,9.721656,2.147599,0.4288303,9.626192,1.8228914
1409351399622,0.6979098,9.622296,1.7100586,0.40911114,9.627876,1.8185309
1409351399629,0.6943185,9.304466,1.6364368,0.40453082,9.627931,1.8192538
1409351399659,0.9684546,9.800066,1.7699136,0.40068308,9.627983,1.8198243
1409351399661,1.2234371,9.5492735,2.1284454,0.39468852,9.629518,1.8130107
1409351399665,0.97862995,10.203489,2.130241,0.3908879,9.631008,1.8058934
1409351399669,0.8439561,9.946113,1.6112977,0.38732818,9.6317625,1.8026347
1409351399694,0.41180268,9.879075,1.6711528,0.38377488,9.632974,1.796923
1409351399697,0.30765492,9.949704,1.6765398,0.37853536,9.634548,1.7895787
1409351399699,0.3657143,9.810242,1.7513585,0.3740954,9.635514,1.7853106
1409351399724,1.1887212,9.267955,1.7782934,0.37011337,9.6341505,1.7934786
1409351399726,1.2623428,9.269152,1.9309237,0.37097266,9.630699,1.8117423
1409351399728,0.62608373,9.397242,1.6244658,0.3649553,9.627298,1.8309425
1409351399764,0.7966706,9.710283,1.7190368,0.34490132,9.626893,1.8369468
1409351399768,0.45908818,9.916184,1.9129672,0.32993644,9.627833,1.8347615
1409351399770,0.40761283,9.562442,2.1583729,0.32064262,9.628115,1.8349373
1409351399772,0.4321534,9.186552,2.2343888,0.31732175,9.627591,1.8382616
1409351399797,0.5542577,8.991425,2.1410148,0.31821516,9.626623,1.8431665
1409351399799,0.75477207,8.825027,2.0129251,0.3192109,9.625668,1.8479736
1409351399800,0.81642276,8.730456,2.0308816,0.32040867,9.625257,1.8499147
1409351399815,0.66259533,8.788516,2.1523874,0.318326,9.625594,1.8485074
1409351399817,0.5315128,9.132683,2.1212628,0.31033054,9.626258,1.8464167
1409351399832,0.24241292,9.387066,1.9249382,0.29516447,9.627827,1.84071
1409351399850,-0.1945289,9.677961,1.7220296,0.27234048,9.631668,1.8240529
1409351399851,-0.8194155,10.405799,1.4209588,0.24281906,9.63868,1.7908859
1409351399855,-0.15382746,10.260351,0.81402856,0.20619786,9.648697,1.7408388
1409351399867,0.16579847,10.351331,0.7236475,0.17927249,9.659483,1.683042
1409351399888,0.40162733,9.915586,0.9283517,0.15692146,9.668676,1.6317043
1409351399889,0.4902128,10.084377,0.5141548,0.13321221,9.676298,1.5880548
1409351399895,0.46986207,9.976639,0.973243,0.110148184,9.684277,1.540467
1409351399918,-0.6338649,8.983045,1.846528,0.08549176,9.690766,1.5007063
1409351399919,-0.770933,9.798869,1.4736311,0.056597784,9.693614,1.4835925
1409351399927,-0.5710171,9.853337,1.2485762,0.035029594,9.69495,1.4755087
1409351399948,-0.36152446,10.239402,0.90979666,0.027743528,9.695634,1.4711559
1409351399949,-0.21428105,10.197504,0.8098387,0.03518619,9.696312,1.4665189
1409351399969,0.061650693,10.20289,0.9427169,0.05436661,9.696605,1.4639974
1409351399971,-0.08259996,10.361506,0.99658644,0.08119854,9.697117,1.4593503
1409351399976,-0.31783026,10.330381,0.91937345,0.10679608,9.698573,1.447987
1409351400011,-0.30945057,10.268731,0.93732995,0.12501551,9.700992,1.4302211
1409351400014,0.14724341,9.98442,0.81881696,0.13582234,9.703737,1.4104681
1409351400017,0.35254622,9.691729,0.99060094,0.14659233,9.706372,1.3911319
1409351400019,0.23822308,9.729437,1.3503298,0.15247297,9.706889,1.3868872
1409351400047,0.21906945,10.016143,1.3491327,0.1491919,9.704532,1.4036386
1409351400049,0.39504328,10.086772,1.1905168,0.13469695,9.70106,1.4288752
1409351400050,0.38367084,10.0508585,1.1647792,0.11251297,9.697968,1.4516156
1409351400070,-0.12928689,10.290278,1.3628993,0.08069752,9.695411,1.4706839
1409351400072,-0.5979519,9.902418,1.4077905,0.033049576,9.692742,1.4899787
1409351400075,-0.65541273,9.561843,2.2481554,-0.028721005,9.689547,1.5107043
1409351400102,0.587178,9.228451,2.9550436,-0.10029382,9.684673,1.5386485
1409351400104,0.055066638,9.184756,1.7537527,-0.16660145,9.678803,1.5695217
1409351400107,0.06584055,9.144653,1.3221979,-0.23443687,9.674665,1.5862775
1409351400129,0.44232875,9.433753,1.4143747,-0.2872944,9.673081,1.5872477
1409351400131,0.45010993,9.770737,1.62686,-0.31679398,9.673246,1.5806164
1409351400146,0.40581718,9.670779,1.6346412,-0.32956162,9.673688,1.5752943
1409351400148,0.22744916,9.795278,1.6472107,-0.3375349,9.673382,1.5754755
1409351400161,-0.16400282,9.967062,1.9147629,-0.3496539,9.67179,1.582598
1409351400182,-0.50996494,10.3226,2.2391772,-0.36205763,9.66894,1.5971538
1409351400183,-0.3561375,10.951677,2.1906946,-0.3659345,9.665125,1.619214
1409351400198,-0.19093758,11.54065,2.1086931,-0.34910598,9.662142,1.6405909
1409351400199,-0.19093758,11.862072,1.9333179,-0.3068579,9.661637,1.6519614
1409351400215,0.40043023,11.858481,1.596334,-0.2444999,9.663434,1.651866
1409351400216,0.8194155,10.985196,0.9792285,-0.16834585,9.666196,1.6451993
1409351400230,1.3772645,9.714474,0.5231331,-0.07091161,9.669831,1.630869
1409351400248,1.7818847,9.235035,1.115698,0.046449345,9.672595,1.6152908
1409351400250,1.9907787,9.897031,1.5077485,0.17268273,9.671562,1.6129038
1409351400264,1.4359225,9.339781,1.7812861,0.29969376,9.665943,1.6279157
1409351400279,1.168969,8.780136,2.7192147,0.42147598,9.655827,1.660645
1409351400280,-0.22445641,8.361151,2.333748,0.53998786,9.640311,1.7155814
1409351400300,-0.08559271,8.653243,3.052607,0.63895684,9.622588,1.7798649
1409351400301,-0.4285621,9.549872,2.1428106,0.73318404,9.601317,1.8567469
1409351400307,-0.44951138,9.24521,2.1092918,0.82365155,9.580922,1.9230049
1409351400317,-0.8062474,9.662399,2.3181858,0.9130525,9.560399,1.9838041
1409351400332,-0.7350199,9.667188,2.0853498,0.987164,9.542235,2.0351062
1409351400347,-0.37948096,9.278131,1.958457,1.0411518,9.527243,2.0779922
1409351400351,-0.19273324,9.169792,2.0655975,1.077615,9.515314,2.1137471
1409351400367,-0.0664391,8.986037,2.167351,1.0906471,9.506465,2.146627
1409351400369,-0.017956512,9.241618,2.180519,1.0766059,9.499882,2.182557
1409351400376,-0.362123,9.61272,2.1296425,1.0346204,9.496005,2.2194247
1409351400400,-0.3657143,9.855133,2.0799627,0.96602005,9.496184,2.2493746
1409351400401,-0.9792285,9.242816,1.6346412,0.87253535,9.500389,2.269734
1409351400407,-0.45609543,8.916606,1.8866309,0.74220854,9.509199,2.2791748
1409351400436,-0.04309563,8.944737,2.0308816,0.5767311,9.520086,2.2816086
1409351400437,0.9247604,9.546281,2.405574,0.39490095,9.52986,2.279528
1409351400439,0.3513491,9.881469,1.9117701,0.19042484,9.5401125,2.2628288
1409351400447,0.8738836,9.950302,2.4702177,-0.030431753,9.552708,2.2170343
1409351400467,0.30585927,9.462483,1.714847,-0.24639863,9.564432,2.1520483
1409351400468,0.87208796,9.643246,2.1535845,-0.45754787,9.575346,2.0673194
1409351400478,1.3365631,9.519346,2.0614076,-0.6431154,9.582141,1.9847913
1409351400497,0.81522566,9.831789,1.2360066,-0.7884657,9.586366,1.9105829
1409351400498,0.27473465,10.107721,1.471237,-0.88260394,9.591671,1.8415352
1409351400525,0.08439561,9.930551,1.8405426,-0.9132127,9.598966,1.7878206
1409351400528,0.2789245,9.886257,1.8291701,-0.8985883,9.606266,1.7557204
1409351400530,0.44113165,9.612122,1.8112136,-0.8603127,9.611728,1.7449802
1409351400556,0.47405192,9.713276,1.7890673,-0.81138813,9.616269,1.743387
1409351400558,0.23523031,9.742006,1.7531542,-0.7364723,9.62001,1.7559618
1409351400559,0.027533319,9.85633,1.6059108,-0.64611906,9.623002,1.7750306
1409351400585,-0.16460137,10.007165,1.6819267,-0.5479032,9.6252985,1.7955078
1409351400587,-0.30585927,9.934141,2.0308816,-0.44532064,9.626042,1.8197162
1409351400588,-0.91697925,9.865907,1.9393034,-0.34377518,9.624589,1.8491927
1409351400599,-1.4036007,9.724648,1.8315643,-0.25428128,9.622184,1.8759841
1409351400614,-1.3132197,9.584588,1.8429368,-0.18300569,9.619273,1.8990734
1409351400630,-1.151611,9.478046,1.9147629,-0.13011107,9.615054,1.9246309
1409351400633,-0.7727286,9.376891,2.111686,-0.09605151,9.609142,1.9559032
1409351400649,-0.49440265,9.24521,2.1649568,-0.06689288,9.602237,1.9907223
1409351400650,-0.2717419,9.124303,2.1817162,-0.047159646,9.595114,2.025327
1409351400658,-0.11731588,9.022549,2.166154,-0.032073885,9.589635,2.0513966
1409351400677,-0.19931729,8.905831,2.166154,-0.021306526,9.586747,2.0649974
1409351400678,-0.20231004,8.829816,2.3666685,-0.015687207,9.586182,2.0676715
1409351400700,-0.2633622,8.768166,2.405574,-0.012056522,9.586678,2.0653996
1409351400702,-0.4441244,8.615535,2.4349031,-0.009721818,9.587453,2.061804
1409351400710,-0.3728969,8.649054,2.31639,-0.0095085455,9.588384,2.057469
1409351400734,-0.557849,8.543709,2.331354,-0.008321656,9.59044,2.0478685
1409351400736,-0.6027403,8.553286,2.1589713,-0.008485564,9.593811,2.0320225
1409351400738,-0.32321724,8.549694,2.0015526,-0.009999229,9.598869,2.0079868
1409351400749,-0.39983168,8.494029,2.0638018,-0.0102593135,9.604748,1.9796697
1409351400765,-0.39324763,8.509591,2.2679076,-0.011170296,9.611627,1.9459924
1409351400784,-0.5303157,8.791509,2.3570917,-0.012586917,9.619003,1.909198
1409351400785,-0.57400984,9.109938,2.2158337,-0.014879735,9.627017,1.868341
1409351400788,-0.49440265,9.235633,2.1212628,-0.017205164,9.635741,1.8227986
1409351400796,-0.7092823,9.389461,2.0135236,-0.022306534,9.644275,1.7770432
1409351400812,-0.45489833,9.7641535,1.6364368,-0.036015492,9.651708,1.7359806
1409351400831,-0.4369418,9.915586,1.4700398,-0.05479174,9.658524,1.697147
1409351400832,-0.61770403,10.238205,1.4730326,-0.077878766,9.664843,1.6598598
1409351400846,-0.3573346,10.592546,1.2012907,-0.10634793,9.670294,1.6261954
1409351400869,-0.3842694,10.7673235,0.88765025,-0.13375965,9.675755,1.5913132
1409351400871,-0.35553896,10.955867,0.9780314,-0.16012822,9.681212,1.5552741
1409351400873,-0.034715924,10.634445,1.4059949,-0.18332846,9.685864,1.5234154
1409351400877,0.15023616,10.506355,1.5448587,-0.1972066,9.688681,1.5036485
1409351400912,0.15382746,10.316016,1.5676036,-0.20102091,9.690159,1.4935952
1409351400914,0.17118542,10.226234,1.3389573,-0.19828546,9.690878,1.4892839
1409351400917,0.1328782,10.081984,1.6406267,-0.19318613,9.691461,1.4861562
1409351400946,0.18255788,9.704298,1.6777369,-0.1913085,9.691081,1.4888692
1409351400948,0.28909984,9.595362,1.7280151,-0.19212331,9.690458,1.49281
1409351400950,0.45848963,9.712678,2.1188686,-0.19290003,9.689421,1.4994358
1409351400965,0.54168814,9.88506,1.763928,-0.19232385,9.6872015,1.513781
1409351400966,0.7457938,10.495582,1.3198037,-0.19143476,9.685427,1.5252019
1409351400968,0.8439561,10.959458,1.3329718,-0.18896095,9.685542,1.5247749
1409351400976,0.516549,9.942521,1.335366,-0.18777643,9.687757,1.5107946
1409351400995,0.32920274,9.994595,1.5047557,-0.19137746,9.6904545,1.492936
1409351400997,0.31423897,10.384252,1.4580688,-0.19532925,9.69254,1.4788187
1409351401011,0.2088941,9.737218,1.6807296,-0.19875802,9.693054,1.4749887
1409351401031,0.17537527,9.621099,1.7459716,-0.20599422,9.691096,1.4868141
1409351401032,0.14963761,9.70789,1.7100586,-0.21590818,9.687884,1.5062137
1409351401036,0.18016368,9.733028,1.6089035,-0.22509485,9.684997,1.523342
1409351401060,0.22505496,9.694122,1.6071079,-0.2321037,9.6828985,1.5355746
1409351401061,0.260968,9.76116,1.6537948,-0.237828,9.68099,1.5466954
1409351401076,0.29448682,9.7084875,1.6460136,-0.24337552,9.6789875,1.5583167
1409351401078,0.28909984,9.701305,1.6873137,-0.24863987,9.676875,1.5705541
1409351401094,0.23582886,9.664794,1.7411832,-0.2534455,9.674652,1.5834368
1409351401097,0.15382746,9.5809965,1.7543513,-0.2586886,9.672263,1.5971285
1409351401110,0.061650693,9.470863,1.7477672,-0.26462632,9.66979,1.6110699
1409351401129,-0.012569559,9.330204,1.7603368,-0.2713846,9.667272,1.6249902
1409351401130,-0.074220255,9.178172,1.7848774,-0.27861297,9.664663,1.6392219
1409351401145,-0.1388637,9.057863,1.858499,-0.2860889,9.66201,1.6535174
1409351401160,-0.20530279,8.994417,1.9422961,-0.2934603,9.659308,1.6679417
1409351401162,-0.28670564,8.948329,2.0284874,-0.3006404,9.65671,1.6816602
1409351401177,-0.35254622,8.94773,2.0614076,-0.3076258,9.654229,1.6945862
1409351401178,-0.2908955,8.81964,2.2655134,-0.31460416,9.65216,1.7050637
1409351401192,-0.54408234,8.939949,1.9560628,-0.32008094,9.650222,1.7149844
1409351401209,-0.46387658,9.021951,2.0015526,-0.3269149,9.649183,1.7195313
1409351401210,-0.3669114,8.892065,2.0470424,-0.33344078,9.6487,1.7209859
1409351401225,-0.27832595,8.862138,2.0620062,-0.3386686,9.648938,1.7186326
1409351401228,-0.18255788,8.930372,2.0590134,-0.34038812,9.649947,1.7126144
1409351401242,-0.048482586,8.992621,2.0757728,-0.33969358,9.651681,1.7029548
1409351401260,0.16938977,9.267955,2.208651,-0.3368121,9.653994,1.6903692
1409351401262,0.29568392,9.514558,2.2182279,-0.331122,9.656607,1.6765136
1409351401277,0.37110126,9.698313,2.244564,-0.32342225,9.659544,1.6610255
1409351401279,0.41718966,9.879075,2.2421699,-0.31431943,9.662561,1.6451465
1409351401293,0.46986207,10.053253,2.2888567,-0.3042146,9.665645,1.6288539
1409351401297,0.45310268,10.168175,2.2403743,-0.29316816,9.668628,1.6130997
1409351401312,0.39205053,10.238205,1.9991584,-0.28248006,9.671468,1.5979062
1409351401331,0.3812766,10.281899,1.857302,-0.27315414,9.674311,1.5822395
1409351401332,0.32142156,10.287286,1.7663223,-0.26533824,9.677081,1.5665559
1409351401337,0.24839842,10.222643,1.6597804,-0.25979,9.679671,1.5514013
1409351401364,0.14544775,10.105327,1.6783354,-0.2569178,9.68183,1.5383655
1409351401366,-0.0077811554,10.043676,1.6304513,-0.25740543,9.683482,1.5278407
1409351401368,-0.18435353,10.003573,1.4077905,-0.26137665,9.684948,1.5178504
1409351401379,-0.3417723,9.857527,1.3263878,-0.2686265,9.686414,1.5071846
1409351401395,-0.42437226,9.673772,1.4287399,-0.2778902,9.687756,1.4968469
1409351401419,-0.43275195,9.508572,1.5179238,-0.28834817,9.688608,1.4893421
1409351401421,-0.45310268,9.363723,1.4173675,-0.2993068,9.688928,1.4850814
1409351401423,-0.5291186,9.233837,1.2413936,-0.31066847,9.68923,1.480777
1409351401452,-0.52253455,9.107543,1.0199299,-0.3231059,9.6900015,1.4730402
1409351401454,-0.41599256,9.156026,0.94690675,-0.3362878,9.6915655,1.4597491
1409351401455,-0.3417723,9.375694,0.729633,-0.3492289,9.694092,1.4397982
1409351401457,-0.22266077,9.609129,0.59974754,-0.36248022,9.697659,1.4122429
1409351401477,-0.06344634,9.843162,0.45549688,-0.37536156,9.701907,1.3793188
1409351401479,0.091578215,10.019135,0.23942018,-0.38728574,9.706608,1.3424498
1409351401493,0.25857377,10.136452,0.14784196,-0.39798406,9.711519,1.3032246
1409351401509,0.4357447,10.207679,0.19692309,-0.40685558,9.716495,1.2627679
1409351401510,0.44532153,10.184336,0.26396075,-0.41417935,9.721197,1.2235954
1409351401527,0.39444473,10.108918,0.34596214,-0.42176777,9.725412,1.1869612
1409351401529,0.2220622,10.02572,0.53689975,-0.43069565,9.729097,1.1530803
1409351401544,-0.019752163,9.977237,0.7625532,-0.44211435,9.732208,1.1220669
1409351401557,-0.35434186,10.053851,0.7703344,-0.45560178,9.734725,1.0945126
1409351401559,-0.7410054,10.167576,0.7422025,-0.47154674,9.736939,1.0677367
1409351401574,-0.90021986,10.235811,0.79487497,-0.49009392,9.738998,1.0402578
1409351401577,-0.99179804,10.247183,0.7266402,-0.5086776,9.740883,1.0133324
1409351401592,-1.0809821,10.243592,0.57041854,-0.5266695,9.742644,0.9868685
1409351401617,-0.98222125,10.247183,0.4961983,-0.5447132,9.744312,0.9602335
1409351401619,-0.6075287,10.344149,0.6631939,-0.56166834,9.745771,0.93535924
1409351401620,0.40162733,10.268731,0.7529764,-0.5752381,9.746999,0.91406393
1409351401628,0.5734113,9.941324,0.9307459,-0.5801561,9.748371,0.8961536
1409351401642,0.6973112,9.835979,0.9163807,-0.5845978,9.749456,0.88130814
1409351401658,0.91458505,9.838972,0.81402856,-0.5902571,9.75044,0.86654496
1409351401659,0.9008184,9.61272,0.74998367,-0.5983413,9.751374,0.85033876
1409351401673,0.86610246,9.464279,0.60932434,-0.6095404,9.752085,0.8340824
1409351401680,0.830788,9.115324,0.57640404,-0.62611014,9.752395,0.81802475
1409351401700,0.32800564,9.537901,0.1921347,-0.64871323,9.752068,0.8041994
1409351401701,0.0664391,9.727641,0.28909984,-0.6796737,9.751112,0.79009306
1409351401708,-0.089782566,9.635465,0.23463176,-0.71585035,9.749507,0.7778431
1409351401727,-0.2789245,9.545084,0.3369839,-0.7570724,9.747144,0.7683916
1409351401730,-0.4854244,9.554062,0.5398925,-0.79918635,9.74422,0.7628112
1409351401746,-0.58657944,9.619304,0.66618663,-0.8422181,9.740685,0.76165354
1409351401748,-0.7212533,9.572019,0.7787141,-0.8856926,9.736732,0.76289046
1409351401757,-0.866701,9.3978405,0.8295909,-0.9291602,9.732541,0.76466197
1409351401774,-0.9660604,9.234436,0.88645315,-0.9730752,9.72812,0.7662917
1409351401777,-1.0205284,9.136872,0.86131406,-1.0175862,9.723429,0.76801634
1409351401793,-1.0061632,9.132084,0.74399817,-1.061829,9.718599,0.76925653
1409351401807,-0.84934306,9.087791,0.5919664,-1.1049927,9.7138,0.7690899
1409351401809,-0.39205053,8.977059,0.47046062,-1.1457963,9.709228,0.76709527
1409351401828,-0.4782418,9.279327,0.5153519,-1.1823652,9.705233,0.7621444
1409351401844,-0.24660277,9.3978405,0.4770447,-1.218491,9.701306,0.75520587
1409351401845,-0.10534488,9.384672,0.4441244,-1.2533754,9.697561,0.7461687
1409351401860,-0.10594343,9.552865,0.43514615,-1.2845615,9.694168,0.7371427
1409351401861,-0.21188685,9.736021,0.50757074,-1.3087885,9.691432,0.7304712
1409351401879,-0.35673606,9.896433,0.51834464,-1.3292394,9.688829,0.728077
1409351401880,-0.4878186,10.104729,0.480636,-1.3491858,9.685937,0.72987336
1409351401889,-0.55365914,10.324995,0.5931635,-1.3700141,9.682646,0.7347432
1409351401919,-0.54288524,10.495582,0.5590461,-1.3933055,9.678692,0.7429919
1409351401921,-0.57520694,10.564415,0.3597288,-1.420198,9.6740885,0.7519767
1409351401923,-0.53091425,10.536881,0.22804771,-1.4493872,9.669178,0.7593731
1409351401951,-0.41000703,10.495582,0.28909984,-1.4827383,9.663589,0.7661319
1409351401952,-0.22984336,10.538677,0.29029694,-1.518874,9.657169,0.77620447
1409351401953,0.009576807,10.572196,0.31483752,-1.5567106,9.649986,0.7904672
1409351401957,0.15382746,10.548254,0.44711718,-1.5952412,9.642147,0.8090822
1409351401977,0.18136078,10.461464,0.5374983,-1.6345634,9.633546,0.83270735
1409351401992,0.14065935,10.33936,0.58119243,-1.6751388,9.624186,0.85987616
1409351401993,0.13946225,10.286089,0.7445967,-1.7154453,9.614433,0.88899434
1409351402007,0.31483752,10.476428,1.055843,-1.7540011,9.604553,0.9200172
1409351402009,0.6596026,10.511743,0.86370826,-1.7880768,9.595052,0.9529774
1409351402025,0.9528923,10.532692,0.7380127,-1.8167934,9.586743,0.98183465
1409351402041,1.2156559,10.631453,0.6428431,-1.8414389,9.579378,1.0074881
1409351402042,1.347337,10.99178,0.74998367,-1.8626019,9.573168,1.0274032
1409351402059,1.5286977,11.2371855,1.3790601,-1.8830513,9.567395,1.0437692
1409351402060,1.6430209,11.151593,2.0386627,-1.8983539,9.562472,1.0610132
1409351402077,1.4496891,10.839748,2.5073278,-1.9047917,9.558942,1.0811056
1409351402078,0.7206547,10.897807,2.6839,-1.9039195,9.55599,1.108399
1409351402089,-0.08200141,11.228806,3.2411506,-1.8961662,9.552961,1.1471093
1409351402110,-0.4758476,11.499949,4.015076,-1.883409,9.54885,1.2011012
1409351402111,-0.8702923,11.352706,3.9971197,-1.8669677,9.543889,1.2645154
1409351402127,-1.4987702,11.086351,3.2034419,-1.851856,9.539745,1.3169101
1409351402129,-1.6531962,10.829573,2.356493,-1.8452631,9.536706,1.3478239
1409351402137,-1.8489223,10.638037,1.7034745,-1.8331897,9.538873,1.3489637
1409351402167,-2.1787236,10.365098,1.0474633,-1.8099617,9.547313,1.3203235
1409351402170,-2.469619,9.97604,0.23942018,-1.7775276,9.560062,1.271221
1409351402172,-2.7401638,9.908403,-0.4914099,-1.7416834,9.574873,1.2077811
1409351402180,-3.0933087,10.353725,-1.0941502,-1.7044239,9.590857,1.1317276
1409351402204,-3.1334114,12.03266,-0.86849666,-1.6653675,9.607184,1.0483052
1409351402205,-2.9352913,12.754511,-0.78290397,-1.6175247,9.623296,0.9727056
1409351402209,-2.8616695,12.960412,-0.7098808,-1.5562112,9.638934,0.91626257
1409351402232,-2.9753942,12.604874,-0.5315128,-1.4844046,9.653346,0.88309896
1409351402234,-3.5793316,11.914146,-0.034117375,-1.4087039,9.665615,0.87283677
1409351402238,-4.203021,11.183316,0.6572084,-1.3372946,9.675117,0.8798539
1409351402263,-4.7524905,10.539276,1.5436616,-1.2725277,9.681013,0.9105311
1409351402265,-5.1642933,9.67018,2.3630772,-1.2120621,9.683065,0.96930325
1409351402269,-5.3205147,8.686164,2.9765913,-1.1502932,9.681776,1.0537691
1409351402296,-5.163096,8.020576,3.3039982,-1.0808392,9.678126,1.1558822
1409351402298,-4.7189717,7.904457,3.2279825,-0.9971868,9.673714,1.2630396
1409351402300,-3.9414546,8.032547,2.5115175,-0.894184,9.670552,1.3605996
1409351402311,-2.7419596,8.149862,1.5693992,-0.77215767,9.670255,1.4353837
1409351402335,-1.3676877,8.331821,0.8948329,-0.6345743,9.672688,1.4855404
1409351402338,-0.024540568,8.616732,0.47524905,-0.48670837,9.675852,1.5203307
1409351402343,1.1976994,9.147048,0.2645593,-0.3322177,9.677923,1.5484929
1409351402379,2.030283,9.556456,0.24061728,-0.17240788,9.678114,1.5731415
1409351402381,2.086547,9.602545,0.1592144,-0.012277809,9.676121,1.5946586
1409351402383,0.7529764,9.2069025,0.40940848,0.13642573,9.672055,1.6134226
1409351402385,0.17417817,7.3765354,0.9295488,0.2583283,9.665724,1.636282
1409351402390,-0.092176765,6.609194,1.4622587,0.36053947,9.656182,1.6728902
1409351402411,-0.29269117,6.199785,1.9554642,0.4515662,9.642832,1.7269212
1409351402412,-0.3226187,5.9507885,2.285864,0.53853905,9.625152,1.7991158
1409351402418,-0.047285482,5.7418942,2.565387,0.62614816,9.603182,1.8860637
1409351402444,0.22146365,5.6305637,2.7928362,0.7153274,9.578132,1.9794167
1409351402445,0.45370123,5.6898203,2.9113493,0.8060741,9.551815,2.0696528
1409351402449,0.6171055,6.023213,2.8173769,0.89733356,9.524681,2.1553783
1409351402458,0.82899237,6.4583592,2.6222494,0.9894656,9.499218,2.2262554
1409351402473,1.0737995,6.919243,2.4420857,1.079624,9.477159,2.277778
1409351402490,1.2360066,7.233482,2.303222,1.1644845,9.459589,2.308797
1409351402492,1.3916297,7.280169,1.9818004,1.2408521,9.446624,2.3220637
1409351402505,1.7226281,7.213131,1.697489,1.3071897,9.438133,2.3201861
1409351402523,2.2296004,7.1221514,1.46585,1.3621099,9.433155,2.3088164
1409351402524,2.842516,7.113772,1.3102269,1.4038795,9.430425,2.2949138
1409351402541,3.4356794,7.3986816,1.5759833,1.4315265,9.4287195,2.2848182
1409351402542,3.815759,7.824251,2.32058,1.4470252,9.426635,2.283654
1409351402556,3.8893807,8.323442,3.3746274,1.4512676,9.423125,2.2954102
1409351402558,4.004901,9.528923,4.5016975,1.4507537,9.417657,2.3180683
1409351402574,3.8055837,10.29387,4.7177744,1.4401599,9.410386,2.353924
1409351402590,3.13401,10.817003,5.1607018,1.4193965,9.405219,2.3869596
1409351402591,1.9440918,10.25257,5.4917,1.3869025,9.403009,2.4146028
1409351402605,-0.2693477,10.9103775,5.3558292,1.3435775,9.404114,2.4347134
1409351402611,-1.9859903,12.800001,3.9193082,1.2847452,9.410293,2.4425838
1409351402628,-1.1324574,13.558364,1.4371196,1.2153479,9.423759,2.426127
1409351402630,1.2545617,12.966996,0.18914193,1.1820008,9.440358,2.3775864
1409351402638,3.6074634,11.512519,0.92535895,1.2178322,9.449306,2.3233411
1409351402666,5.310938,9.770139,2.5462334,1.3120115,9.441062,2.3055127
1409351402669,6.1447186,8.8328085,5.2929816,1.4396693,9.418102,2.3231635
1409351402671,5.8442464,10.166379,7.6333137,1.5868027,9.377025,2.3924546
1409351402697,4.2401314,13.543999,6.8569937,1.739173,9.324721,2.4890275
1409351402699,2.778471,16.289549,4.736928,1.8682474,9.285231,2.5425487
1409351402700,0.3645172,15.136143,4.4244847,1.9567182,9.26933,2.53401
1409351402710,-2.4929626,12.685678,3.787627,1.993668,9.263073,2.5280745
1409351402726,-3.5410242,11.892,1.5035586,1.9816492,9.259891,2.5490942
1409351402730,-3.2513258,11.942278,1.3910311,1.9349066,9.263686,2.5711143
1409351402738,-2.9801826,11.81778,1.8058267,1.8643272,9.272037,2.593073
1409351402768,-3.3183637,11.313202,0.078410104,1.776721,9.286367,2.6032743
1409351402771,-2.9735985,10.762535,0.09636662,1.6788951,9.313301,2.5718
1409351402774,-2.0679917,10.449493,0.2873042,1.5918977,9.341045,2.5260882
1409351402800,-1.3497312,10.056246,0.39324763,1.5116193,9.367677,2.476298
1409351402801,-0.5542577,9.562442,0.16400282,1.4469773,9.388398,2.4361115
1409351402803,0.19512744,8.989629,0.090979666,1.3929935,9.40541,2.4017117
1409351402825,0.51834464,8.738836,0.23403321,1.338676,9.423641,2.3607867
1409351402832,0.29747957,9.088389,0.7757214,1.2734412,9.445544,2.3087687
1409351402834,0.038307227,9.467871,1.7322049,1.1932068,9.468815,2.2557037
1409351402838,-0.06284779,9.527725,2.223615,1.1018168,9.48895,2.2172542
1409351402863,-0.22625206,9.3661175,1.8806454,1.0045714,9.50469,2.1959257
1409351402864,-0.5141548,9.320028,1.4790181,0.9033719,9.519995,2.173476
1409351402872,-1.0127473,9.578603,1.3862427,0.7984403,9.538702,2.1321473
1409351402887,-1.3850456,9.501988,1.2378023,0.68769556,9.558805,2.0800714
1409351402890,-1.6346412,9.138668,1.0588357,0.5758468,9.580197,2.0146065
1409351402913,-1.827973,8.686762,0.8511387,0.46674892,9.599458,1.9501245
1409351402915,-1.8046296,8.156446,0.45010993,0.36336628,9.615755,1.8909277
1409351402919,-1.3868413,8.010401,0.30645782,0.2682627,9.630096,1.8329368
1409351402945,-0.97982705,8.201338,0.7200562,0.1865742,9.641897,1.7802855
1409351402947,-0.8882488,8.561067,1.2635399,0.12070409,9.648995,1.7472064
1409351402950,-0.8900445,7.941567,1.0869676,0.06349989,9.650207,1.7435156
1409351402959,-0.9696517,7.326257,0.78649527,0.0052896217,9.647045,1.762066
1409351402974,-1.0163386,7.5411367,0.8283938,-0.06264016,9.6428,1.7840545
1409351402990,-0.7398083,7.699154,1.0061632,-0.14428589,9.639096,1.7992779
1409351402996,-0.6302736,8.181585,1.1695676,-0.22883907,9.639232,1.7897669
1409351403016,-0.17178397,8.59698,1.033098,-0.3172317,9.642704,1.7572708
1409351403018,0.6039374,8.6496525,0.82001406,-0.40178975,9.6468525,1.716742
1409351403020,1.453879,8.535329,0.7691373,-0.47886002,9.649073,1.6841859
1409351403047,2.1871033,8.574833,0.9792285,-0.5444483,9.648653,1.6665754
1409351403048,2.4570496,8.996812,1.5795746,-0.59433734,9.6460905,1.6643553
1409351403052,2.3995886,9.396643,2.0739772,-0.62932587,9.640572,1.6833638
1409351403070,2.2415714,9.392453,2.3277626,-0.6578568,9.630809,1.727753
1409351403071,1.9446903,9.318831,2.2230163,-0.68939763,9.616874,1.7918906
1409351403086,1.632247,9.080608,1.8417397,-0.7302024,9.601007,1.8595278
1409351403090,1.411382,8.783728,1.3413515,-0.77996594,9.585153,1.920128
1409351403108,1.3126211,8.717288,0.9876082,-0.8375547,9.571264,1.9646362
1409351403110,1.2360066,8.994417,1.0283096,-0.89874554,9.560414,1.9902602
1409351403121,1.2970588,9.526528,1.4670471,-0.9553192,9.551764,2.0053866
1409351403144,1.0965444,10.09156,2.569577,-1.0001866,9.543691,2.02188
1409351403146,0.86490536,9.670779,2.4474726,-1.0354701,9.533778,2.0506778
1409351403150,0.20290859,9.516952,2.3187842,-1.0689219,9.522302,2.0865188
1409351403169,-0.29209262,9.741408,2.2643163,-1.106007,9.508675,2.1289048
1409351403170,0.06464344,9.739613,2.0416555,-1.1449211,9.493555,2.175304
1409351403187,1.2228385,9.529521,2.1380222,-1.1782705,9.478387,2.2231154
1409351403190,1.6448165,9.539697,2.6013002,-1.1981941,9.465077,2.2686994
1409351403211,1.3533225,9.76116,2.9418752,-1.2141767,9.452589,2.3118677
1409351403213,0.46567222,9.831191,2.6408045,-1.2293851,9.442438,2.3450725
1409351403219,-0.4878186,9.959281,2.0530279,-1.250888,9.434943,2.3637965
1409351403245,-1.0468647,10.099341,2.1338322,-1.273974,9.431141,2.3666399
1409351403246,-1.1468226,10.098145,2.1823149,-1.2933683,9.431618,2.3541834
1409351403250,-0.55844754,9.950901,1.6759412,-1.3049458,9.436933,2.3263292
1409351403269,0.7739257,9.849746,1.5825673,-1.2949724,9.447777,2.2875626
1409351403271,1.2850877,9.8916445,2.179322,-1.250072,9.462989,2.2493434
1409351403286,0.6703765,9.896433,1.8608932,-1.1867758,9.479954,2.2118866
1409351403290,-0.3705027,9.664794,0.4842273,-1.1262983,9.499655,2.158334
1409351403310,-1.46585,9.058462,-0.10654198,-1.0687709,9.522555,2.0854435
1409351403312,-2.6605566,8.421604,0.42078096,-1.0181999,9.546298,2.0004609
1409351403319,-4.771644,8.282143,0.5710171,-0.9646417,9.568226,1.9206588
1409351403351,-5.3779755,10.429143,0.8098387,-0.9189289,9.588483,1.8403683
1409351403353,-5.355231,14.76564,1.1695676,-0.8700952,9.609412,1.7528584
1409351403354,-4.617218,19.013554,1.2946646,-0.81197053,9.63015,1.6647339
1409351403373,-4.148553,19.608511,0.5686229,-0.7304966,9.648982,1.5918176
1409351403374,-4.4621935,19.601929,-0.31483752,-0.6377467,9.664391,1.5372698
1409351403395,-4.7949877,17.67699,-0.19991584,-0.5673409,9.677033,1.4844356
1409351403396,-4.9135003,14.081497,0.57879823,-0.522144,9.684218,1.453846
1409351403399,-4.4795513,10.588956,2.098518,-0.4906755,9.6825,1.4760885
1409351403420,-4.1814733,8.144476,3.6882677,-0.45423013,9.674275,1.540271
1409351403421,-4.3903675,7.1568675,4.84766,-0.43077573,9.657635,1.6476973
1409351403437,-4.1341877,8.63828,5.34326,-0.41095576,9.637868,1.7643801
1409351403439,-2.5887306,9.813234,4.887164,-0.37223828,9.622116,1.8565323
1409351403454,-0.8972271,9.400833,3.4111388,-0.27889717,9.618303,1.8923081
1409351403471,-0.33638534,8.5622635,2.4959552,-0.12695333,9.626951,1.8644311
1409351403472,0.6398504,8.733449,2.0482395,0.043802463,9.638827,1.8059635
1409351403487,1.3257892,9.135675,1.7836803,0.21189854,9.647538,1.7465656
1409351403490,1.501763,9.01417,1.3006501,0.37022868,9.650888,1.701087
1409351403504,1.0468647,8.398261,0.6655881,0.50974816,9.649583,1.6721483
1409351403519,0.6793547,6.96174,0.79487497,0.62201613,9.644963,1.6607754
1409351403520,0.31483752,5.6521115,0.9864111,0.72085214,9.637516,1.6640464
1409351403535,0.36870706,4.744709,1.0773908,0.8009165,9.626061,1.6934764
1409351403539,0.57760113,4.449025,1.3317747,0.86846197,9.611226,1.7436969
1409351403551,0.9900024,4.5807066,1.8351556,0.9288561,9.593943,1.8066149
1409351403570,1.4383167,4.757279,2.1529858,0.9902881,9.574444,1.8760997
1409351403571,1.7298107,5.08289,2.2774844,1.0537318,9.553741,1.9457805
1409351403584,1.5939398,5.365406,2.3092074,1.114848,9.534319,2.006054
1409351403609,1.3108255,5.6221843,2.2278047,1.1685835,9.519078,2.0474293
1409351403611,1.2258313,6.1159883,1.9710265,1.2130663,9.509032,2.0681305
1409351403613,1.4036007,6.619369,1.5807717,1.2498785,9.503886,2.0698662
1409351403620,1.6627731,7.1706343,1.271321,1.2815783,9.501391,2.0619192
1409351403647,1.9267339,7.6111674,1.0408791,1.3114008,9.501532,2.0424268
1409351403649,2.046444,7.7530236,0.98341835,1.334448,9.503666,2.0174177
1409351403651,2.0524294,7.6440873,1.0408791,1.3466542,9.506937,1.9937543
1409351403676,2.0919337,7.638102,1.3694834,1.3432487,9.511189,1.9756917
1409351403679,2.0901382,7.973889,2.1080947,1.3207588,9.516226,1.9665773
1409351403681,2.0392613,8.642469,3.3321302,1.2782444,9.521425,1.969503
1409351403691,2.1362264,10.31901,5.0254292,1.2169775,9.525776,1.9871991
1409351403716,1.7106571,10.5207205,5.2905874,1.140612,9.527639,2.0232346
1409351403718,1.3784616,10.527904,5.369596,1.0492761,9.529624,2.0629268
1409351403720,1.3192052,10.857106,5.81791,0.95186967,9.531174,2.1026351
1409351403749,0.8074445,12.689269,5.9519854,0.860247,9.53044,2.1450148
1409351403752,-0.2825158,14.7315235,3.828927,0.78236395,9.526383,2.192334
1409351403754,-0.08559271,14.44781,0.65421563,0.73126966,9.52531,2.2145176
1409351403778,1.8986019,13.109451,-1.0540473,0.73331445,9.531615,2.1865337
1409351403780,3.946243,11.503541,-0.20111294,0.79370093,9.538367,2.1354177
1409351403783,5.1361613,10.320207,3.989937,0.8914934,9.531971,2.1253572
1409351403814,3.7702692,12.392388,9.255385,1.0148047,9.502706,2.199809
1409351403816,2.2122424,16.903662,7.6530657,1.1468714,9.450604,2.3539658
1409351403819,1.8776526,19.098547,3.6828809,1.262773,9.408624,2.4604053
1409351403821,0.18555063,16.558897,2.5995045,1.3603939,9.393336,2.4667697
1409351403855,-1.4850036,12.917915,1.1312603,1.4139156,9.386546,2.4625149
1409351403857,-1.8854338,10.833763,0.3172317,1.4346228,9.380771,2.472528
1409351403869,-2.0201077,9.809643,2.529474,1.4180899,9.375108,2.5033488
1409351403902,-2.0685902,9.597756,4.720767,1.3616639,9.369038,2.556833
1409351403904,-1.7711107,10.301053,3.8373067,1.2801262,9.365746,2.6104596
1409351403907,-1.6843209,9.743802,2.167351,1.1926864,9.372326,2.6281915
1409351403909,-1.5765818,9.364322,1.6873137,1.1077492,9.386989,2.6129906
1409351403910,-1.4407109,9.742605,0.74639237,1.0245671,9.402281,2.5918674
1409351403928,-1.0773908,10.45907,-0.2148796,0.9463274,9.417519,2.5661669
1409351403930,-0.3681085,10.955867,-0.64703304,0.86924565,9.436962,2.5216157
1409351403932,-0.49200845,10.833763,-0.61291564,0.7875241,9.46189,2.4541461
1409351403941,-1.2216414,10.371682,-0.0011971008,0.69628894,9.48708,2.383461
1409351403953,-1.8291701,9.402629,0.8655039,0.5898725,9.508633,2.3255868
1409351403970,-1.9099745,8.117541,1.6226702,0.46932787,9.520399,2.3048007
1409351403973,-1.7902644,7.477092,2.0386627,0.3456235,9.521641,2.3214862
1409351403987,-1.8154035,7.543531,2.1787236,0.22511134,9.517989,2.3510847
1409351404001,-1.8339585,7.7997108,2.1930888,0.10934297,9.517093,2.3629167
1409351404002,-1.8459295,7.666234,2.0213048,0.0012431685,9.522791,2.3423986
1409351404016,-1.9237411,7.3579803,1.6448165,-0.09669075,9.533534,2.2962549
1409351404020,-1.9746178,7.2191167,1.0881647,-0.18733695,9.546582,2.2356324
1409351404033,-1.970428,7.156269,0.50757074,-0.27149615,9.560575,2.1661274
1409351404040,-1.9027919,7.293337,0.073621705,-0.3465999,9.575489,2.0881264
1409351404054,-1.8291701,7.6692266,-0.023343466,-0.41441563,9.590325,2.0060704
1409351404065,-1.7848774,8.280945,0.17836803,-0.4710823,9.604185,1.9256428
1409351404071,-1.7866731,8.600571,0.43514615,-0.5177973,9.614381,1.8617072
1409351404082,-1.8596961,8.171411,0.30885202,-0.5618105,9.618571,1.8269871
1409351404106,-1.738789,7.6255326,0.28909984,-0.7432921,9.607579,1.8199822
1409351404107,-1.3802572,7.5968018,0.46387658,-0.7432921,9.607579,1.8199822
1409351404111,-0.93613285,8.326435,0.82360536,-0.7432921,9.607579,1.8199822
1409351404119,-0.4842273,9.506178,1.0893618,-0.8198864,9.604998,1.8006173
1409351404137,-0.036511578,9.180567,1.0139444,-0.89525723,9.603429,1.7728645
1409351404164,0.7032967,9.044097,0.95708215,-0.96904576,9.601592,1.7437806
1409351404165,1.1049241,9.227852,1.1641805,-1.0355291,9.599692,1.7157977
1409351404167,1.1629834,9.469068,1.7489643,-1.0936923,9.597252,1.6932282
1409351404173,1.1061212,9.414001,2.2230163,-1.1381633,9.591902,1.6942296
1409351404196,1.0977415,9.065644,2.195483,-1.1725345,9.58168,1.7282838
1409351404197,0.91697925,8.606557,2.1942859,-1.2039652,9.567614,1.7837045
1409351404201,0.7392098,8.35337,2.0213048,-1.2424735,9.551389,1.8432633
1409351404217,0.62488663,8.2593975,1.7112557,-1.294468,9.535,1.8917025
1409351404219,0.7134721,8.532935,1.4263457,-1.3602102,9.520135,1.9202262
1409351404233,0.8810662,9.248801,1.3736732,-1.4313387,9.507484,1.9311651
1409351404253,0.9307459,9.905411,1.5442601,-1.4980615,9.496207,1.9360418
1409351404255,0.92176765,10.21127,1.7872716,-1.5579815,9.484328,1.9469424
1409351404268,0.87567925,9.977237,2.5917234,-1.6150883,9.471077,1.9648346
1409351404272,0.7009025,9.673173,3.0753522,-1.6753372,9.453547,1.9985241
1409351404286,0.20231004,9.640852,2.7024553,-1.7386342,9.432954,2.0413063
1409351404301,-0.109534726,9.416994,2.2732944,-1.8014508,9.412185,2.082292
1409351404302,0.56323594,8.893861,1.6136919,-1.8583772,9.392807,2.1194365
1409351404314,1.8980033,8.437167,1.5113398,-1.901058,9.376863,2.1519303
1409351404333,2.6013002,8.522161,2.0548236,-1.9257891,9.364233,2.184688
1409351404340,2.5246856,8.963293,2.6503813,-1.9366581,9.355025,2.2143273
1409351404362,1.4347254,9.400234,2.734777,-1.9403954,9.349636,2.233736
1409351404363,0.4297592,10.025121,2.5725696,-1.9453722,9.346904,2.2408254
1409351404365,0.41359833,10.20289,3.0813377,-1.9449636,9.348253,2.2355437
1409351404373,0.557849,10.004171,3.6493618,-1.9354528,9.351813,2.2288985
1409351404388,0.66498953,9.771336,3.0262709,-1.9052806,9.360755,2.2173326
1409351404392,1.0001777,9.579201,2.4438813,-1.8534704,9.3760805,2.196396
1409351404400,0.9744401,9.463082,2.5330653,-1.7761196,9.397379,2.1691117
1409351404416,0.5686229,9.946113,2.3558946,-1.6821617,9.423464,2.1305025
1409351404420,-0.073023155,10.290877,1.2695254,-1.5847925,9.455101,2.0639462
1409351404436,-0.9463082,10.128671,0.038307227,-1.4920645,9.492109,1.9606067
1409351404460,-2.2637177,9.831191,-1.2401965,-1.4057758,9.531065,1.831117
1409351404462,-4.84766,10.867282,-1.5233108,-1.3268485,9.569085,1.685962
1409351404464,-5.6239796,13.516466,-1.4688427,-1.2664082,9.6034775,1.5296484
1409351404472,-6.0046577,17.578827,-1.3030443,-1.20709,9.635853,1.3651562
1409351404496,-6.178836,19.608511,-1.0893618,-1.1476344,9.665301,1.1980239
1409351404498,-6.411672,19.608511,-1.1875241,-1.0843886,9.688601,1.0609117
1409351404500,-6.6026096,19.18354,-1.0971429,-1.0251633,9.7042885,0.9727374
1409351404519,-6.728904,15.951967,-0.18674773,-0.9848006,9.712367,0.93298477
1409351404520,-6.3643866,12.067375,1.2138603,-0.96409535,9.71208,0.9572944
1409351404536,-5.557541,8.650849,2.7455509,-0.9530122,9.703946,1.0467001
1409351404551,-5.825093,6.917447,4.532822,-0.941914,9.689182,1.1844589
1409351404552,-6.6947865,8.097789,5.719149,-0.93288475,9.669285,1.3435203
1409351404566,-5.451597,10.023924,5.6407394,-0.9205916,9.648769,1.4913629
1409351404572,-3.5128925,9.57561,4.6124296,-0.859804,9.6391115,1.5870279
1409351404588,-1.460463,8.955511,3.3482912,-0.75405896,9.638828,1.6415813
1409351404592,0.090979666,8.056489,2.4821887,-0.59314847,9.650239,1.6405717
1409351404600,1.0253168,7.6626425,2.4289176,-0.41393554,9.664493,1.6114029
1409351404616,1.8369513,7.8691425,2.0685902,-0.242582,9.675761,1.5783498
1409351404622,2.2110453,7.963713,1.3946224,-0.08217764,9.683238,1.5487189
1409351404636,2.3690627,8.037335,0.79846627,0.06693901,9.687438,1.5229766
1409351404656,1.7393875,7.219715,0.6278794,0.20306648,9.688245,1.5056885
1409351404658,1.2515689,6.1387334,0.66738373,0.31829885,9.684766,1.508113
1409351404660,1.0905589,5.631761,0.9684546,0.41173503,9.6772585,1.533476
1409351404697,0.8355764,5.2929816,1.3401544,0.48902836,9.666,1.5810392
1409351404699,0.5410896,4.9338512,1.5891514,0.5588671,9.651119,1.6474066
1409351404702,0.59495914,4.687248,1.7244238,0.623863,9.634308,1.7208387
1409351404706,0.770933,4.597466,1.9237411,0.68342185,9.615595,1.8010162
1409351404728,0.91578215,4.7758336,1.9985598,0.7366582,9.595955,1.8829151
1409351404732,1.0720038,5.043386,2.0111294,0.78500026,9.576092,1.9628061
1409351404734,1.192911,5.2343235,1.9680338,0.8280238,9.557107,2.0362933
1409351404755,1.3144168,5.54557,1.9614497,0.8643437,9.540189,2.0995502
1409351404756,1.3000516,5.8334723,2.0242975,0.8923974,9.526399,2.1498244
1409351404760,1.4101849,6.035184,2.1733365,0.9103047,9.516208,2.187131
1409351404784,1.7836803,6.2925606,2.2601264,0.917018,9.509773,2.2121687
1409351404785,2.0949266,6.4924765,2.463035,0.9127413,9.507157,2.225136
1409351404806,2.360683,6.739079,3.1591492,0.8950259,9.5069475,2.2332196
1409351404808,2.4025815,7.28795,4.0360255,0.8721846,9.508344,2.2363148
1409351404815,2.3355439,8.305486,4.779425,0.83362496,9.511459,2.2377617
1409351404821,2.1493945,10.477027,5.305551,0.783177,9.516518,2.2344837
1409351404848,1.9093759,10.444705,5.3103395,0.72789913,9.523585,2.2230356
1409351404849,1.9488802,10.304046,4.657321,0.67903304,9.532052,2.2021134
1409351404855,-0.11851298,14.967352,5.2929816,0.65148544,9.542122,2.1665354
1409351404867,-1.412579,17.942148,4.372411,0.61821854,9.553043,2.1278024
1409351404883,-0.038307227,16.906654,1.1150994,0.57400554,9.565493,2.0838091
1409351404884,2.7593174,15.134946,-0.3357868,0.57963485,9.579468,2.0169868
1409351404901,5.1648917,12.929886,0.22984336,0.6575077,9.585909,1.9617435
1409351404902,6.7743936,10.422559,3.2788591,0.7692949,9.58077,1.946133
1409351404917,6.925827,9.680356,8.93935,0.9083124,9.550871,2.0313075
1409351404937,5.4803276,12.113463,10.348338,1.0761684,9.490212,2.2244303
1409351404938,4.0497923,15.954362,6.6864066,1.2537714,9.420598,2.4188416
1409351404940,1.4580688,16.196177,5.4378304,1.4137475,9.378141,2.4944289
1409351404952,-2.3355439,13.336302,4.7459064,1.5161908,9.358848,2.5066974
1409351404972,-4.072537,11.183915,1.7884687,1.5439557,9.347589,2.531634
1409351404974,-3.9294837,10.328587,0.40043023,1.523993,9.341462,2.5661073
1409351404982,-3.1423898,10.376471,0.51235914,1.4737827,9.341289,2.595895
1409351405009,-2.534861,10.43872,0.059855044,1.4012835,9.348404,2.6103935
1409351405012,-2.4654293,9.76116,-0.973243,1.3168298,9.365051,2.5946424
1409351405014,-2.747945,9.224859,-0.010773907,1.2385616,9.386082,2.5569189
1409351405046,-2.5192988,9.635465,0.5823896,1.1529269,9.408333,2.5148435
1409351405047,-1.8579005,9.713875,0.5638345,1.0753294,9.42814,2.474721
1409351405048,-0.9032126,9.395446,0.5177461,1.0101682,9.446407,2.432149
1409351405052,-0.27952304,9.056666,0.54408234,0.95398444,9.465592,2.379679
1409351405064,-0.01316811,9.317036,0.79128367,0.8966088,9.486658,2.3172812
1409351405083,0.019752163,10.128072,1.283292,0.83321995,9.50821,2.251677
1409351405084,-0.2112883,10.51713,1.532289,0.76386887,9.528084,2.191462
1409351405099,-0.32441434,9.976639,1.5837644,0.68738085,9.5447235,2.1438627
1409351405102,-0.4830302,9.721656,1.7561469,0.6038613,9.558266,2.108384
1409351405113,-0.7404069,9.681553,1.8626889,0.51406336,9.570554,2.0762086
1409351405129,-0.9127894,9.461885,1.9033904,0.42132637,9.583611,2.0364878
1409351405132,-1.0767922,9.098565,1.785476,0.32767823,9.598013,1.9852394
1409351405145,-1.1575965,8.717288,1.3724761,0.23599352,9.61217,1.9289613
1409351405152,-1.0510546,8.571242,0.7398083,0.14910875,9.625296,1.8713207
1409351405163,-0.7314286,8.533533,0.374094,0.06930046,9.638148,1.8087755
1409351405178,-0.60453594,8.673594,0.42317516,-7.2156487E-4,9.650933,1.74066
1409351405180,-0.4866215,9.063251,0.7200562,-0.061983615,9.66241,1.6746399
1409351405199,-0.34835634,9.518148,0.7715315,-0.11514041,9.670713,1.623098
1409351405201,-0.17956513,8.950125,0.47524905,-0.16456829,9.674984,1.5931067
1409351405220,0.18016368,8.47308,0.6159084,-0.21860246,9.67482,1.5876019
1409351405223,0.21188685,8.110957,0.8367735,-0.2770798,9.672263,1.594038
1409351405233,-0.21547815,8.2115135,1.1192893,-0.3497639,9.667276,1.6099125
1409351405255,-0.20051439,8.694544,1.3036429,-0.4404764,9.662274,1.6176583
1409351405256,0.25977087,8.78672,1.3305776,-0.54131615,9.657677,1.614518
1409351405260,0.6919243,8.412626,1.2282255,-0.6397554,9.651914,1.6129656
1409351405282,1.1881226,8.176199,1.2425907,-0.7302831,9.643278,1.6261239
1409351405283,1.5975311,8.163031,1.2910733,-0.81475836,9.631055,1.6581148
1409351405299,1.7112557,8.1959505,1.4975731,-0.893629,9.615718,1.705808
1409351405300,1.4449008,8.020576,1.8154035,-0.9665532,9.596809,1.7712805
1409351405314,0.94810385,7.693767,2.0991163,-1.0373361,9.572857,1.8586881
1409351405330,0.3800795,7.44896,2.1799207,-1.1129978,9.544367,1.9587513
1409351405332,-0.11791443,7.2430587,1.9177556,-1.1954983,9.513822,2.0562944
1409351405349,-0.40162733,7.373543,1.6376339,-1.2848364,9.484313,2.1371508
1409351405353,-0.29568392,7.9325886,1.6304513,-1.3742627,9.458547,2.1949215
1409351405367,0.0011971008,8.544906,1.9997569,-1.4545178,9.436749,2.2366335
1409351405384,0.24181437,8.795698,2.4558525,-1.5216633,9.417151,2.2742443
1409351405386,0.45429978,8.801684,2.356493,-1.5805277,9.397431,2.3152995
1409351405406,0.5638345,8.600571,1.388637,-1.6381874,9.3781595,2.353056
1409351405407,0.89064306,8.605958,1.3150153,-1.697429,9.361555,2.377058
1409351405413,1.4616601,8.856153,1.4951789,-1.750487,9.347326,2.394508
1409351405437,2.054225,9.501988,1.8890251,-1.7894939,9.336468,2.408002
1409351405440,2.0991163,10.13705,2.48578,-1.8092607,9.329487,2.4202604
1409351405444,1.821389,10.477027,3.0125043,-1.8194786,9.325748,2.4269936
1409351405472,1.3940239,10.685921,3.1423898,-1.8209996,9.324088,2.4322324
1409351405473,1.0815806,10.785878,3.3704374,-1.819148,9.323082,2.4374583
1409351405475,0.56084174,10.4171715,3.5769374,-1.8122178,9.323432,2.4412792
1409351405482,-0.092176765,9.835979,3.1136594,-1.8011812,9.3271675,2.4351804
1409351405503,-0.42916065,9.755774,2.2900538,-1.7838364,9.337138,2.4096
1409351405505,-0.23582886,10.327988,2.532467,-1.7493322,9.3543415,2.3678086
1409351405513,0.011372458,11.143213,3.0747535,-1.6920345,9.37681,2.3200986
1409351405536,-0.23403321,11.554418,2.2780828,-1.6177624,9.404239,2.2613163
1409351405538,-0.61890113,11.390414,1.0749966,-1.536201,9.438055,2.1756835
1409351405542,-1.4269443,10.793061,0.4830302,-1.4576018,9.474398,2.0691965
1409351405574,-2.4797945,9.592369,0.13587095,-1.3721445,9.512648,1.9486265
1409351405576,-3.3476925,8.804677,-0.3788824,-1.2834264,9.550264,1.8208913
1409351405578,-4.2916064,9.750985,-0.5129577,-1.1886007,9.587775,1.6829154
1409351405582,-5.425261,18.109741,0.5530606,-1.0908414,9.623717,1.5376925
1409351405603,-4.6621094,19.608511,0.7882909,-1.0049043,9.653609,1.4029819
1409351405604,-4.3460746,19.608511,-0.4309563,-0.89591676,9.675361,1.324815
1409351405612,-4.9464207,19.383457,-0.92176765,-0.78108567,9.691475,1.2789066
1409351405633,-5.037999,15.869966,-0.08319851,-0.6974045,9.70123,1.2530589
1409351405634,-4.0043025,11.431116,1.2850877,-0.6529773,9.700732,1.2805516
1409351405647,-2.7856536,7.1700354,2.8167782,-0.62627006,9.688798,1.3803517
1409351405664,-3.1944637,4.881179,4.917092,-0.591953,9.67079,1.515202
1409351405665,-4.9164934,7.076063,6.531382,-0.56983876,9.645335,1.6772544
1409351405681,-3.6032736,10.163386,6.5655,-0.56115645,9.617377,1.8334485
1409351405682,-1.4371196,9.519346,5.127183,-0.5132823,9.599237,1.9394716
1409351405701,-0.25977087,6.731298,3.1022868,-0.3876452,9.600104,1.9642167
1409351405702,0.94570965,6.55712,2.545635,-0.2168158,9.613478,1.9246845
1409351405715,1.9165585,7.611766,2.4612393,-0.040454615,9.626517,1.870543
1409351405728,2.3104045,8.170214,2.1523874,0.13625126,9.633481,1.8297158
1409351405732,2.4863784,8.252214,1.5179238,0.30510128,9.634568,1.8034396
1409351405749,2.486977,7.9810715,0.8714894,0.4555137,9.632145,1.7845631
1409351405764,2.0093338,7.339425,0.6206968,0.5931419,9.627368,1.7698469
1409351405765,1.2497733,6.5241995,0.8846575,0.7080219,9.618625,1.7751535
1409351405782,0.58538234,5.1259856,1.0887632,0.7976651,9.605149,1.8097606
1409351405783,0.7715315,5.2756233,1.4891934,0.86631685,9.5873165,1.871703
1409351405795,0.93732995,5.3342814,1.7262194,0.92436147,9.566073,1.9509466
1409351405803,0.9355343,5.243302,1.8207904,0.9780642,9.542595,2.0378067
1409351405819,0.92057055,5.2265425,1.9847932,1.0258301,9.518727,2.1241233
1409351405822,1.0151415,5.2079873,2.2649148,1.0662972,9.495865,2.2049887
1409351405832,1.0552444,5.187038,2.4372973,1.1005608,9.474533,2.2786787
1409351405847,1.271321,5.3755813,2.4600422,1.1288166,9.455953,2.3411767
1409351405870,1.484405,5.7245364,2.3265655,1.1508541,9.4416685,2.3876376
1409351405872,1.6112977,6.043564,2.3570917,1.1709645,9.430116,2.4232497
1409351405874,1.7250223,6.2380924,2.5582044,1.1797994,9.424664,2.4401228
1409351405883,1.917157,6.3697734,2.6928782,1.1755315,9.424883,2.441331
1409351405905,2.1721394,6.6079965,2.9466639,1.1565534,9.430171,2.4299507
1409351405906,2.4169466,7.345411,3.5380316,1.1235528,9.439728,2.4082267
1409351405913,2.6330233,8.792108,4.2293572,1.0783658,9.452111,2.3801515
1409351405938,2.7150247,10.460866,4.394557,1.0246315,9.46572,2.3496091
1409351405941,2.6874914,11.468824,4.642357,0.9683718,9.479444,2.3179297
1409351405944,2.7623103,10.7673235,5.0547585,0.9197984,9.490908,2.2906353
1409351405965,-0.59974754,13.730148,6.3105173,0.8897337,9.498723,2.2700305
1409351405967,-1.839944,15.544953,5.282806,0.82769704,9.506219,2.2621021
1409351405984,-0.79846627,14.53041,1.6621746,0.7432809,9.515932,2.2505486
1409351405985,1.7166426,13.859435,-0.19572599,0.69050896,9.527781,2.2169774
1409351406006,4.4382515,12.754511,0.74639237,0.7121693,9.537954,2.1657882
1409351406008,6.5241995,10.511144,2.8658595,0.8001266,9.534743,2.1491597
1409351406013,7.08145,9.050681,7.229292,0.92264414,9.50749,2.2196321
1409351406042,5.952584,10.611102,9.857527,1.0729997,9.453693,2.3762853
1409351406045,4.2078094,14.729129,7.8487916,1.2385412,9.389505,2.544328
1409351406046,1.6968905,16.998833,5.2199583,1.3924066,9.347598,2.6180172
1409351406065,-1.2132617,15.560515,4.10845,1.4999518,9.3372,2.595615
1409351406068,-2.8078,12.376227,2.2469583,1.5436022,9.337951,2.5671704
1409351406085,-2.5187001,10.469246,0.7338228,1.5555031,9.337743,2.5607326
1409351406086,-1.8525136,10.350733,1.9255368,1.5469649,9.328109,2.6007094
1409351406093,-1.6699557,10.727221,2.4480712,1.5096518,9.314057,2.6720164
1409351406111,-1.8435353,10.618883,1.4437037,1.4455565,9.308163,2.727427
1409351406115,-2.44448,10.067618,1.1540052,1.3649074,9.317721,2.7363315
1409351406132,-2.8616695,9.430161,1.3575124,1.2758684,9.335911,2.7172298
1409351406134,-2.7856536,9.357738,1.2970588,1.1897268,9.3515415,2.7025223
1409351406144,-1.7729063,9.528923,0.30346507,1.1152613,9.362747,2.6954665
1409351406162,-1.0259154,9.425373,0.10414778,1.0560049,9.377129,2.6692123
1409351406164,-0.01436521,9.844358,0.25617957,0.99861735,9.398648,2.6150665
1409351406181,0.6302736,10.505158,0.55485624,0.935013,9.4255085,2.5408509
1409351406183,0.5590461,10.575788,0.8295909,0.8651483,9.452353,2.464741
1409351406202,0.32800564,10.059238,0.961272,0.7841478,9.476728,2.3973162
1409351406204,0.07062895,9.4774475,1.3150153,0.69257444,9.495821,2.3494906
1409351406213,-0.27353755,9.180567,1.9063832,0.5971374,9.510807,2.3148131
1409351406234,-0.32680854,9.312846,2.4229321,0.5027328,9.5251665,2.2779016
1409351406236,-0.439336,9.123106,2.3307555,0.4121013,9.540293,2.2323573
1409351406244,-0.4902128,8.598776,1.7471687,0.32444403,9.555606,2.1807113
1409351406264,-0.5793968,8.02716,1.1563994,0.24010834,9.5702915,2.1265643
1409351406267,-0.6194997,7.828441,0.75477207,0.16102313,9.583989,2.0716226
1409351406287,-0.5931635,8.194754,0.8062474,0.091514856,9.596522,2.017113
1409351406289,-0.6853402,8.869919,1.1414356,0.034968484,9.607767,1.9646856
1409351406296,-0.7745243,9.552865,1.1827357,-0.015492068,9.616255,1.9229604
1409351406313,-0.9564836,9.135675,0.7314286,-0.062545925,9.621054,1.897845
1409351406314,-1.1312603,8.376115,0.40282443,-0.11736072,9.621535,1.8927885
1409351406330,-0.9911995,8.045714,0.28790274,-0.18921392,9.618211,1.9038469
1409351406333,-1.1186907,8.294113,0.8738836,-0.277906,9.613944,1.9144783
1409351406351,-1.1264719,8.87351,1.0283096,-0.38056284,9.61063,1.9134682
1409351406354,-0.374094,8.9279785,0.9235633,-0.4903373,9.608578,1.8987284
1409351406364,0.5243302,8.565855,0.9959879,-0.59573454,9.60614,1.8808347
1409351406386,1.1665748,8.620922,1.323395,-0.6900092,9.601546,1.8720547
1409351406388,1.3569138,8.902241,1.7328035,-0.7689695,9.593786,1.8810457
1409351406395,1.3299791,8.729858,2.1057005,-0.8367539,9.583538,1.9042103
1409351406417,1.079785,8.245032,2.2996306,-0.89347404,9.567638,1.9576551
1409351406419,0.7134721,7.526173,2.0991163,-0.9478555,9.545213,2.039825
1409351406424,0.480636,6.9581485,1.7782934,-1.0106157,9.518559,2.1321495
1409351406451,0.6817489,6.733692,1.5628152,-1.0859153,9.492464,2.2100477
1409351406454,1.0953473,6.613982,1.407192,-1.1705247,9.471006,2.2583838
1409351406456,1.4395138,6.9186444,1.283292,-1.2548387,9.455169,2.2793753
1409351406462,1.4454993,7.479486,1.3126211,-1.3299398,9.443585,2.2848074
1409351406487,1.1061212,8.091804,1.6460136,-1.3959676,9.43366,2.2864227
1409351406489,0.8511387,8.613141,2.0440497,-1.4600284,9.422644,2.291832
1409351406495,0.65660983,9.013571,2.2535424,-1.5254862,9.409741,2.3021834
1409351406526,0.38307226,9.172785,2.8646624,-1.591072,9.395917,2.3142233
1409351406529,-0.2765303,9.197326,3.0119057,-1.6566602,9.380545,2.3305047
1409351406536,-1.1719618,9.828796,2.5031378,-1.722601,9.364333,2.3478312
1409351406553,-0.56982,9.97185,1.6621746,-1.7863771,9.349255,2.3602383
1409351406554,0.6931214,9.882666,1.5987282,-1.8349885,9.338194,2.366714
1409351406556,1.1360487,10.009559,2.304419,-1.8630085,9.332085,2.3689215
1409351406562,0.8678981,10.174759,2.9119477,-1.8778248,9.330715,2.3626106
1409351406583,0.35314476,10.503962,2.730587,-1.8867713,9.332641,2.3478289
1409351406584,-0.04070143,10.988788,2.5306711,-1.8895493,9.337433,2.326448
1409351406595,-0.48362875,11.206061,2.7072437,-1.8798274,9.34643,2.2980196
1409351406617,-0.7032967,10.904391,2.2583308,-1.855508,9.35907,2.2661202
1409351406619,-0.08319851,10.389638,1.2132617,-1.8254749,9.375527,2.2220576
1409351406623,1.1306617,10.04607,1.4377182,-1.7718104,9.39864,2.1671815
1409351406650,1.7824832,9.685743,2.3702598,-1.6877427,9.426091,2.1144104
1409351406651,1.7136499,9.404425,2.0398598,-1.5812835,9.455132,2.066498
1409351406655,0.66259533,8.919,0.81163436,-1.4656781,9.486464,2.0072868
1409351406664,-0.60693014,8.019978,0.41240123,-1.3512738,9.5206995,1.923727
1409351406678,-1.762731,7.347805,0.6015432,-1.2380604,9.555813,1.8231914
1409351406682,-2.6647465,7.771579,0.8888474,-1.1219859,9.590825,1.711021
1409351406700,-3.5476084,9.813833,1.4239515,-1.0018803,9.624615,1.5916771
1409351406702,-4.1521444,13.909115,2.1392193,-0.87971395,9.6536665,1.4843159
1409351406714,-2.0278888,19.608511,1.917157,-0.7605835,9.677259,1.3937614
1409351406744,-2.0266917,19.608511,0.2801216,-0.5965638,9.698585,1.3236127
1409351406747,-2.8670566,19.14703,0.16579847,-0.42666727,9.71574,1.2620517
1409351406752,-2.8173769,16.21114,1.1617863,-0.2916566,9.725572,1.2241669
1409351406773,-2.03148,12.536638,2.3517046,-0.20288587,9.726014,1.2384938
1409351406775,-1.3623008,8.690952,3.3237505,-0.14892365,9.717087,1.313936
1409351406777,-2.3648727,6.976105,4.735132,-0.11207393,9.701534,1.4276075
1409351406783,-4.175488,8.881889,5.674258,-0.08771475,9.682846,1.5508708
1409351406804,-3.1196449,10.324995,5.2235494,-0.07469616,9.66454,1.661768
1409351406805,-1.3455414,9.890448,4.0599675,-0.0214955,9.653638,1.7254679
1409351406813,0.17417817,9.044097,3.0609868,0.09914984,9.653153,1.7254562
1409351406830,0.95349085,8.480861,2.3546975,0.2476661,9.655467,1.6973562
1409351406846,1.163582,8.543709,1.9997569,0.41319633,9.658023,1.6499343
1409351406847,1.62686,8.665813,1.5149311,0.5662653,9.657241,1.6085509
1409351406860,1.9327193,8.360553,0.7942764,0.70365995,9.653341,1.5774145
1409351406862,1.9333179,7.8182654,0.35075054,0.82483643,9.646936,1.5577667
1409351406878,1.8082209,7.489063,0.42676646,0.9299578,9.637327,1.558034
1409351406911,1.5640123,6.9330096,0.6967127,1.0211319,9.623254,1.5876607
1409351406914,1.3186066,6.3745623,0.94690675,1.1011436,9.604627,1.6459132
1409351406917,1.2922704,5.7245364,1.0696096,1.173028,9.582505,1.7233747
1409351406920,1.3461399,5.6628857,1.2892777,1.2390002,9.557908,1.811536
1409351406944,1.3084313,5.686229,1.4670471,1.2981066,9.532044,1.9040544
1409351406945,1.3575124,5.651513,1.6693572,1.3523221,9.504596,2.0010726
1409351406947,1.4454993,5.651513,1.8183962,1.3980234,9.477125,2.097628
1409351406961,1.5658079,5.6586957,1.9117701,1.4345632,9.451574,2.1863534
1409351406963,1.6579847,5.7335143,1.9339164,1.4617883,9.429451,2.2625275
1409351406978,1.7375919,5.849633,2.136825,1.4787049,9.412029,2.3232539
1409351407000,1.8136078,5.9370217,2.4145525,1.4841493,9.399939,2.368301
1409351407002,1.7860745,5.9783216,2.7299886,1.4756681,9.393344,2.399561
1409351407004,1.8602947,6.0860605,3.0813377,1.4501235,9.392048,2.4201198
1409351407032,2.1033063,6.5044475,3.7457285,1.4064655,9.395747,2.4314997
1409351407034,2.3660698,7.306505,4.471172,1.3470706,9.40286,2.4376276
1409351407036,2.345719,8.315661,4.991312,1.2832977,9.409885,2.4449146
1409351407043,2.2720973,9.135675,5.205593,1.2065898,9.418758,2.449806
1409351407071,2.4259248,9.596559,4.4807487,1.1253495,9.429475,2.4472406
1409351407074,2.7688942,9.285313,3.5482068,1.0525103,9.443372,2.4259706
1409351407076,1.276708,11.165958,4.722563,0.99774206,9.45845,2.3901064
1409351407110,-0.10354923,15.216349,3.0119057,0.94284946,9.467625,2.3760269
1409351407116,1.54845,14.392743,0.078410104,0.88614374,9.476657,2.3618033
1409351407119,3.5404258,12.555792,-0.015562311,0.8951686,9.485227,2.323694
1409351407123,5.2636523,10.16578,2.1428106,0.9682091,9.48357,2.301053
1409351407149,6.136339,8.037335,6.3284736,1.0756931,9.458978,2.353935
1409351407151,5.182848,10.01734,10.703877,1.2074516,9.407876,2.4908419
1409351407152,2.7287915,15.79814,9.475053,1.3533773,9.336566,2.6771793
1409351407154,0.7649474,18.736423,4.669292,1.4685825,9.284611,2.7945766
1409351407162,-1.7992426,16.354792,3.1399956,1.5500175,9.28007,2.7655277
1409351407182,-3.177704,13.224373,2.8694508,1.5838481,9.29174,2.706538
1409351407183,-2.854487,11.31799,1.1779473,1.5733063,9.291402,2.7138479
1409351407198,-2.2379801,11.1073,1.7567455,1.5320097,9.278176,2.7818692
1409351407224,-2.2409728,11.277288,2.1589713,1.4658382,9.263363,2.8656273
1409351407227,-2.5791538,10.782288,0.8098387,1.3796749,9.261305,2.9146404
1409351407235,-3.0753522,9.909002,0.037110128,1.2843586,9.278082,2.9048247
1409351407256,-3.3608606,8.884284,0.9127894,1.1906741,9.302973,2.864852
1409351407258,-3.2118216,8.294712,1.2665327,1.1105483,9.323277,2.8308265
1409351407277,-2.5025394,8.600571,1.4580688,1.0362277,9.33726,2.8128626
1409351407279,-1.4377182,8.96449,1.578976,0.97531664,9.351586,2.78693
1409351407292,0.82240826,9.606135,1.3293805,0.92079663,9.372654,2.7342052
1409351407293,0.98700964,9.9712515,1.0815806,0.873281,9.400692,2.652316
1409351407295,0.5662287,9.734824,0.7978677,0.8162951,9.431861,2.55814
1409351407309,0.22146365,9.361927,0.7194576,0.74751425,9.459099,2.4773052
1409351407330,0.22266077,9.330204,0.919972,0.6689953,9.478638,2.424516
1409351407332,0.20949265,9.583989,1.3365631,0.58318424,9.4944315,2.384546
1409351407334,-0.15562311,9.798869,1.477821,0.4913329,9.512218,2.3338118
1409351407343,-0.49320555,9.758167,1.365892,0.39240566,9.533191,2.2659867
1409351407366,-0.82480246,9.318831,1.0127473,0.28948477,9.553816,2.1934407
1409351407368,-1.1055226,8.778939,0.52612585,0.18535122,9.572903,2.1202722
1409351407377,-0.89543146,8.475474,0.29568392,0.0822355,9.5888195,2.0538144
1409351407397,-0.5279215,8.323442,0.46926352,-0.01434999,9.601391,1.9958638
1409351407398,-0.5291186,8.338406,0.8086416,-0.096475996,9.610344,1.9499712
1409351407403,-0.7823054,8.497022,0.9696517,-0.1633152,9.615197,1.9213812
1409351407425,-1.002572,8.184579,0.8912416,-0.22254369,9.615862,1.9120816
1409351407426,-0.7727286,7.719505,0.7218518,-0.28355694,9.612602,1.9203912
1409351407443,-0.6428431,7.394492,0.52073884,-0.35171968,9.606986,1.9371442
1409351407445,-0.89902276,7.6764092,0.80445176,-0.43155092,9.601406,1.948624
1409351407464,-0.7368156,8.455123,1.0301052,-0.52466613,9.596661,1.9491591
1409351407466,0.090381116,8.661623,0.760159,-0.6193965,9.592063,1.9439791
1409351407475,0.62967503,8.613739,0.9343372,-0.7080511,9.589091,1.9283161
1409351407498,1.3335704,9.163807,1.4903905,-0.7886517,9.585803,1.9133189
1409351407499,1.8112136,10.234613,1.9853917,-0.85708153,9.580415,1.9108832
1409351407505,1.6819267,10.043077,2.067393,-0.9108222,9.571309,1.9315389
1409351407525,1.4760253,9.349358,1.9434932,-0.9584461,9.556839,1.97955
1409351407526,1.0139444,8.972271,1.8243817,-1.0060481,9.537485,2.0480816
1409351407544,0.7009025,8.662222,1.7399861,-1.05842,9.516121,2.119803
1409351407548,0.8206126,8.344392,1.7369933,-1.1165129,9.495723,2.1806068
1409351407561,1.3724761,8.246229,1.903989,-1.1793003,9.477913,2.224589
1409351407582,1.774702,8.366538,2.03148,-1.241318,9.461532,2.2602894
1409351407584,1.8525136,8.535329,2.2637177,-1.2992129,9.448028,2.2841203
1409351407586,1.7178397,8.619126,2.6372132,-1.3529053,9.434881,2.307182
1409351407595,1.5346833,8.681973,2.9053638,-1.403408,9.419086,2.3412917
1409351407613,1.3210008,8.808268,3.514688,-1.4521395,9.400059,2.3875842
1409351407625,0.8146271,8.831013,3.41892,-1.4995649,9.378982,2.4405704
1409351407626,0.16639702,8.845378,2.8670566,-1.5500224,9.35855,2.487039
1409351407641,0.10055647,8.8364,2.2319946,-1.6036259,9.340403,2.5210438
1409351407643,1.2982559,8.874707,1.2898762,-1.653739,9.3248005,2.5462961
1409351407661,1.7489643,9.231443,1.8722657,-1.6902006,9.314056,2.561628
1409351407672,1.5077485,9.418191,2.3948002,-1.7172862,9.306699,2.5703447
1409351407674,0.7493851,9.625888,2.4408886,-1.7443323,9.30031,2.5752535
1409351407692,0.15562311,9.949704,2.3630772,-1.7713214,9.296648,2.5700495
1409351407694,-0.09995792,9.828198,2.7748797,-1.7926799,9.295987,2.5575936
1409351407706,-0.29568392,9.496601,3.0256724,-1.8000406,9.299384,2.5400233
1409351407726,-0.24241292,9.062652,2.3786395,-1.7870713,9.309048,2.513649
1409351407727,0.38845924,8.790312,1.774702,-1.7475588,9.326173,2.477689
1409351407747,1.1288661,8.608353,2.2619221,-1.6764903,9.350012,2.4366062
1409351407749,1.389834,8.346786,2.3229742,-1.5784887,9.378327,2.3928537
1409351407754,0.9923966,7.854179,1.4796166,-1.469101,9.411351,2.332085
1409351407763,0.016759412,7.3226657,0.7906851,-1.3593172,9.44952,2.242594
1409351407780,-1.2228385,7.1700354,0.7260417,-1.2503746,9.488881,2.137311
1409351407782,-2.4929626,7.9487495,0.8343793,-1.1458641,9.528769,2.014933
1409351407794,-3.8175547,10.399215,1.3515269,-1.037794,9.5675955,1.8853374
1409351407816,-4.3155484,15.264233,2.2038627,-0.93251365,9.60205,1.7610902
1409351407818,-4.032434,19.470846,2.0632033,-0.8255717,9.630462,1.6562139
1409351407823,-2.8520927,19.608511,0.20231004,-0.7044516,9.655089,1.566322
1409351407851,-4.5663414,19.601929,-1.7495629,-0.56487244,9.680029,1.4657208
1409351407852,-4.766257,17.265785,-0.3681085,-0.47454095,9.702577,1.3435793
1409351407854,-3.7960067,13.320141,1.4041992,-0.42018008,9.711762,1.2944211
1409351407875,-2.677316,9.375095,3.0735564,-0.38316494,9.706441,1.3448398
1409351407877,-2.2840683,6.423643,4.2874165,-0.34846726,9.691225,1.4591495
1409351407892,-3.25372,6.003461,5.2397103,-0.30971014,9.672374,1.5873383
1409351407894,-2.956839,8.885481,5.436035,-0.27466407,9.652748,1.7086318
1409351407906,-1.4167689,9.891046,4.735731,-0.2277542,9.638168,1.7956172
1409351407928,0.11312603,9.160814,3.8001966,-0.13553141,9.633232,1.831084
1409351407929,1.1198878,8.505402,3.3596635,0.009953714,9.636441,1.8191487
1409351407935,2.0883424,9.110536,3.17531,0.17874318,9.640865,1.7866642
1409351407944,2.345719,9.302073,2.8245595,0.34935033,9.641623,1.7571169
1409351407963,2.2643163,8.804078,1.9620483,0.50704646,9.638262,1.73701
1409351407965,2.1649568,8.020576,1.2150574,0.6411314,9.632698,1.723516
1409351407975,1.8513165,7.467515,0.9391256,0.74899495,9.625104,1.7224326
1409351407996,1.2970588,7.038953,0.9995792,0.83733267,9.61376,1.7449542
1409351407997,0.6344634,6.535572,1.0600328,0.9156787,9.599553,1.7833971
1409351408003,0.2801216,5.995081,0.82599956,0.9828765,9.580537,1.8486919
1409351408020,0.19512744,5.7987566,0.6703765,1.0428234,9.5582075,1.9296625
1409351408023,0.45549688,5.90889,1.1540052,1.1008594,9.533391,2.0181556
1409351408039,0.30406362,6.093243,1.5508442,1.1580434,9.5063715,2.1114478
1409351408045,0.09636662,6.3584013,1.9249382,1.207345,9.478952,2.2050374
1409351408063,0.11252748,6.5403605,2.0871453,1.244455,9.453513,2.2919047
1409351408065,0.3585317,6.725911,2.0871453,1.2699184,9.43213,2.364878
1409351408075,0.5662287,6.7767878,2.0338743,1.28421,9.416344,2.41944
1409351408095,0.9115923,6.817489,2.0446482,1.2854997,9.406727,2.4558868
1409351408097,1.1127052,6.545149,2.2337902,1.2727212,9.4013,2.4831634
1409351408104,1.1773487,6.282984,2.6240451,1.2533085,9.400463,2.4961774
1409351408124,1.311424,6.177639,3.0496144,1.2171726,9.404196,2.499999
1409351408126,1.5382746,6.4900823,3.6553473,1.1648316,9.411174,2.4986758
1409351408140,1.8537107,7.413047,4.3903675,1.0973969,9.419998,2.4959512
1409351408145,2.172738,8.86932,4.8440685,1.0161947,9.429304,2.495186
1409351408167,2.2559366,10.143634,4.8386817,0.9253411,9.438554,2.4955678
1409351408170,2.2307975,10.275913,3.9803603,0.8301123,9.447823,2.4939852
1409351408175,2.3953989,8.9040365,3.0358477,0.74152434,9.457426,2.4854784
1409351408197,1.5029601,7.9008656,3.4835634,0.67331445,9.465955,2.4724011
1409351408199,-0.7691373,11.8818245,4.872799,0.62345433,9.472503,2.460367
1409351408204,-1.1719618,14.180857,3.228581,0.563223,9.47788,2.4541721
1409351408230,2.5833437,12.828133,0.82360536,0.5238734,9.488585,2.4212992
1409351408233,4.5118732,10.892421,2.372654,0.5782724,9.498764,2.3684342
1409351408235,5.662287,8.89805,5.7083755,0.6906064,9.490357,2.3720386
1409351408253,5.0439844,10.289082,10.135853,0.831436,9.455571,2.4639924
1409351408303,4.1521444,15.676036,8.316259,0.9872117,9.397806,2.6224146
1409351408306,3.176507,19.475035,4.0019083,1.1455625,9.356033,2.7060513
1409351408309,0.37828386,18.404228,3.0298622,1.2864349,9.351974,2.6563232
1409351408313,-1.7447745,14.596251,2.5887306,1.3644937,9.360753,2.5855055
1409351408316,-1.977012,11.842918,1.2294226,1.3824735,9.359577,2.5802107
1409351408319,-1.939902,10.474034,2.5198972,1.3592309,9.3464365,2.6395109
1409351408346,-1.9381063,9.7402115,3.9683893,1.314132,9.326334,2.7318373
1409351408350,-2.1033063,9.23683,3.233968,1.2445453,9.30708,2.8283849
1409351408351,-2.7928362,8.5538845,2.544438,1.165174,9.30208,2.8782077
1409351408353,-3.0346506,8.242638,2.2523453,1.0827061,9.311667,2.879406
1409351408355,-2.6192567,8.723872,2.0033484,1.0055214,9.325249,2.8634007
1409351408375,-1.7932571,9.454702,1.6938977,0.94225705,9.336946,2.8467524
1409351408378,-0.6500258,9.939528,1.1988965,0.8923978,9.35089,2.8168929
1409351408395,0.5734113,10.104729,1.1258733,0.84560823,9.372701,2.758229
1409351408417,1.5514427,10.318411,1.0127473,0.79485106,9.401558,2.6738183
1409351408419,0.9900024,10.632051,0.7260417,0.7367514,9.434328,2.5731401
1409351408421,0.5710171,9.750386,0.7152678,0.6609157,9.467343,2.4704244
1409351408424,0.24420857,8.945934,0.92775315,0.5744873,9.494093,2.3880012
1409351408449,-0.037110128,8.5778265,1.412579,0.48156908,9.511565,2.338504
1409351408451,-0.38606504,8.583213,1.958457,0.38320544,9.523677,2.3071914
1409351408457,-0.74998367,8.510789,2.059612,0.2811263,9.53501,2.2748532
1409351408478,-1.0588357,8.038532,1.6412252,0.17698607,9.546625,2.2362983
1409351408480,-1.1079168,7.587225,1.0648212,0.07471463,9.557813,2.1938634
1409351408484,-0.98461545,7.5531077,0.5069722,-0.023551958,9.568378,2.1484804
1409351408511,-0.8858546,7.828441,0.4189853,-0.11611263,9.578693,2.098942
1409351408514,-1.1821371,8.152257,0.5979519,-0.20029849,9.588113,2.0489912
1409351408530,-1.441908,8.48146,0.7469909,-0.2789125,9.594844,2.0078814
1409351408532,-1.8058267,8.496424,0.57041854,-0.35577387,9.599207,1.9746021
1409351408536,-2.1865046,8.055291,0.21787235,-0.4358043,9.599217,1.9584447
1409351408545,-2.35769,7.93199,-0.092176765,-0.52314734,9.595621,1.954677
1409351408559,-2.3122003,7.8146744,-0.24420857,-0.6195214,9.591485,1.9467926
1409351408573,-2.3666685,8.106169,0.062249243,-0.721525,9.589233,1.9226009
1409351408575,-2.1888988,8.696938,0.7727286,-0.825669,9.588759,1.8826421
1409351408590,-0.10414778,9.687539,1.3012487,-0.9268335,9.587584,1.8410882
1409351408618,0.8924387,9.462483,1.2078748,-1.0036086,9.585411,1.8119191
1409351408620,1.5143325,9.155427,1.4041992,-1.0618737,9.581582,1.798918
1409351408622,1.7926586,9.121908,1.8872294,-1.1071111,9.574631,1.8086265
1409351408624,1.5861586,8.990228,2.1775265,-1.144088,9.562328,1.8502231
1409351408650,1.2707225,8.55149,2.2403743,-1.1800902,9.546306,1.9094074
1409351408651,0.97384155,8.139089,2.1853075,-1.2222365,9.523693,1.9939488
1409351408655,0.842759,7.8847046,1.9949685,-1.2789491,9.496688,2.0850878
1409351408673,0.9947908,7.8050976,1.8237832,-1.3512264,9.469079,2.1635902
1409351408675,1.2689269,7.9702973,1.8788497,-1.4332831,9.4436455,2.221187
1409351408688,1.2976574,8.149862,2.219425,-1.5160218,9.421019,2.2619662
1409351408710,1.1522095,8.32404,2.7563248,-1.5939363,9.399398,2.2980628
1409351408712,0.84575176,8.362348,2.9741971,-1.6663845,9.375805,2.3426173
1409351408716,0.39683893,8.312668,2.6797101,-1.7345883,9.349561,2.3973596
1409351408733,-0.025139118,8.222886,2.3660698,-1.800365,9.323155,2.4510953
1409351408758,-0.06404489,8.326435,2.0171149,-1.8621712,9.298424,2.4984014
1409351408760,0.31064767,8.522759,1.7016789,-1.9196593,9.277462,2.5325844
1409351408762,0.736217,9.003994,1.7316064,-1.9653238,9.262723,2.551448
1409351408776,0.8888474,9.73662,2.2870612,-1.998495,9.254573,2.5552444
1409351408777,0.6183026,10.557831,2.8904,-2.020943,9.250977,2.5506098
1409351408791,0.5315128,10.795456,2.5019407,-2.0356534,9.248922,2.546357
1409351408804,0.504578,10.974422,2.5971103,-2.043177,9.249478,2.5382998
1409351408806,0.61650693,10.893618,3.1812954,-2.0393145,9.253856,2.525419
1409351408822,0.85054016,10.327988,3.3327289,-2.0207715,9.262954,2.506902
1409351408826,0.5638345,9.723452,2.4265234,-1.9880271,9.27778,2.478091
1409351408838,0.3465607,9.978435,1.9255368,-1.9446647,9.298108,2.4359517
1409351408850,0.6147113,10.733206,3.1507695,-1.896105,9.320817,2.386953
1409351408855,0.55725044,11.113286,2.854487,-1.8249581,9.34592,2.343864
1409351408868,-0.23283611,10.688913,1.1043255,-1.7445555,9.376307,2.282934
1409351408875,-1.4377182,9.744401,0.13227965,-1.6674532,9.412873,2.1881113
1409351408886,-2.645593,8.589797,0.076614454,-1.5940472,9.452127,2.0704305
1409351408911,-3.7068229,7.8888946,0.11372458,-1.5203638,9.490398,1.9471107
1409351408913,-4.5555673,8.520964,0.5590461,-1.4446973,9.526542,1.82435
1409351408916,-5.04159,11.142016,1.1486182,-1.3662595,9.560207,1.7047545
1409351408924,-4.7279496,15.444397,1.809418,-1.2809236,9.590653,1.596557
1409351408950,-3.86903,19.234417,2.0524294,-1.1768583,9.617432,1.5134116
1409351408952,-3.6828809,19.608511,0.76195467,-1.0465059,9.641474,1.4550699
1409351408956,-4.550779,19.608511,-0.44232875,-0.9140432,9.664371,1.3909901
1409351408982,-4.0659533,14.019248,0.9223662,-0.81659085,9.681744,1.3294466
1409351408985,-2.92751,9.419388,2.3145945,-0.7425085,9.686196,1.3404002
1409351408987,-2.429516,6.2422824,4.010886,-0.68640906,9.678548,1.4230024
1409351409013,-4.0892963,7.2406645,5.799355,-0.6491054,9.661069,1.5533267
1409351409015,-3.9097314,10.655395,6.045958,-0.6353823,9.636845,1.7023219
1409351409017,-2.3038206,10.332776,4.6459484,-0.605521,9.616337,1.8247751
1409351409024,-0.4357447,9.657611,3.3722332,-0.50737643,9.613279,1.870242
1409351409041,0.94211835,8.856153,2.4091654,-0.3432851,9.625426,1.8449131
1409351409056,1.2270284,8.167819,2.1859062,-0.15547785,9.6403475,1.791626
1409351409057,1.8189948,8.364143,1.8986019,0.023636604,9.651145,1.739326
1409351409071,2.379238,8.297705,1.3736732,0.19222434,9.656138,1.700723
1409351409088,2.5635915,8.009203,0.7302315,0.34877545,9.655763,1.677792
1409351409089,2.2936451,7.447763,0.30286652,0.4900109,9.65122,1.6686038
1409351409104,1.6232687,6.5008564,0.31663316,0.6075692,9.642995,1.6774635
1409351409106,1.1528081,5.8083334,0.51595044,0.6987796,9.630484,1.7134398
1409351409119,0.86131406,5.4539914,0.8391677,0.76903737,9.613565,1.7771761
1409351409124,0.5255273,5.2247467,1.043872,0.8291452,9.592302,1.8629731
1409351409136,0.34117374,4.9536033,1.027711,0.8828391,9.56789,1.9612454
1409351409152,0.29987377,4.6938324,1.4275428,0.92897415,9.542024,2.063293
1409351409155,0.26396075,4.768651,1.6843209,0.967517,9.515401,2.1659715
1409351409170,0.3573346,4.9542017,1.9602526,1.001496,9.488064,2.268056
1409351409185,0.59974754,5.1984105,2.144606,1.0288992,9.461876,2.3631961
1409351409186,0.8182184,5.4922986,2.2762873,1.0499496,9.43887,2.444527
1409351409202,0.8774749,5.889736,2.5181017,1.0632578,9.421311,2.5057478
1409351409204,0.94092125,6.213552,2.7048495,1.0657544,9.410069,2.5465958
1409351409221,1.0414777,6.4164605,2.949058,1.0554292,9.405038,2.569382
1409351409226,1.3180081,6.7085533,3.3201592,1.0309508,9.405249,2.5785353
1409351409244,1.6944963,7.2604165,3.8696284,0.99310535,9.409237,2.5788357
1409351409246,1.9428947,8.32404,4.5256395,0.9443362,9.415946,2.5726652
1409351409256,2.2619221,9.813234,4.7884035,0.88718367,9.424934,2.5600634
1409351409272,2.4648306,11.16955,4.856638,0.8294519,9.436267,2.5375686
1409351409288,2.574964,11.307216,4.4418426,0.77926207,9.44834,2.5083883
1409351409289,2.5785553,10.1143055,4.085107,0.7386328,9.462284,2.4677892
1409351409305,0.88944596,13.261483,5.390545,0.713296,9.475708,2.423339
1409351409307,-0.30885202,15.528193,4.671686,0.6803521,9.484442,2.398514
1409351409321,0.39624038,14.952388,1.846528,0.6394106,9.490679,2.3850737
1409351409324,2.4534583,14.259267,0.004189853,0.64067554,9.499432,2.3496227
1409351409338,6.2165446,12.720992,2.8760347,0.70204353,9.504176,2.3126173
1409351409353,6.6307416,7.7548194,6.7001734,0.82493466,9.481942,2.362764
1409351409360,4.8428717,8.8645315,11.696274,0.9584033,9.433902,2.5006757
1409351409376,2.5079262,14.9625635,10.23222,1.1024281,9.366803,2.686645
1409351409378,1.0761937,19.501371,5.4444146,1.2261269,9.313954,2.8137658
1409351409384,-1.7902644,18.582596,3.928885,1.3171015,9.307593,2.7936256
1409351409415,-3.9318779,14.784196,2.160767,1.3507026,9.322195,2.728127
1409351409417,-3.980959,12.058995,-0.4950012,1.3414395,9.328062,2.7125957
1409351409419,-3.5063083,10.811018,0.21308395,1.3034164,9.317613,2.7665157
1409351409447,-2.9412768,10.386645,1.7016789,1.2331786,9.297385,2.8650153
1409351409448,-2.9777884,9.991602,0.9600749,1.140663,9.281953,2.9520533
1409351409449,-3.3488896,8.854955,0.3716998,1.0420566,9.283636,2.983051
1409351409456,-3.2549171,7.6309195,0.85772276,0.9537054,9.29562,2.975279
1409351409470,-2.814384,7.264008,1.151611,0.8861774,9.303781,2.9706461
1409351409486,-1.9596541,7.438186,1.1976994,0.8373538,9.307011,2.974689
1409351409487,-0.9032126,7.5830355,1.0911574,0.8001743,9.310263,2.9747446
1409351409503,0.2753332,7.6704235,1.2838906,0.7676363,9.319956,2.9528892
1409351409504,1.0426749,8.004415,1.472434,0.73423284,9.338355,2.9028277
1409351409519,1.2695254,8.684967,1.8381484,0.69585055,9.363406,2.8306897
1409351409540,1.1486182,9.584588,1.9015948,0.6513481,9.390555,2.7502036
1409351409542,1.0049661,9.809643,1.7304093,0.59953576,9.416795,2.6711297
1409351409545,0.44831428,10.205285,1.7705121,0.54083794,9.442481,2.591804
1409351409556,-0.05207389,10.503363,1.6962919,0.47565338,9.469523,2.5044508
1409351409570,-0.5021838,10.289082,1.3640964,0.40551156,9.497897,2.4074662
1409351409587,-1.079785,9.680955,0.9600749,0.33115017,9.524764,2.3107564
1409351409588,-1.6106992,9.217078,0.80445176,0.2526966,9.54906,2.2185626
1409351409614,-1.6675615,8.943541,0.79487497,0.17133656,9.568402,2.1416645
1409351409616,-1.3365631,8.998607,0.9295488,0.097245194,9.582965,2.0803156
1409351409618,-1.0043676,9.292496,1.1252748,0.038966496,9.593339,2.0338929
1409351409625,-0.8846575,9.419388,1.1133038,-0.0029527855,9.59962,2.004414
1409351409647,-0.83737206,9.098565,0.83018947,-0.037658006,9.601528,1.9948984
1409351409648,-0.7374141,8.264186,0.55605334,-0.07800505,9.598916,2.0062685
1409351409656,-0.6422446,7.3549876,0.7739257,-0.13387641,9.592976,2.0315735
1409351409671,-0.6991069,7.394492,1.1468226,-0.20909643,9.587065,2.053015
1409351409686,-0.8996213,7.768586,1.6053122,-0.30095598,9.584996,2.051258
1409351409687,-0.8295909,8.619126,1.9099745,-0.39986676,9.587372,2.0230653
1409351409712,-0.17717093,9.567828,1.7040731,-0.49571812,9.590748,1.9854983
1409351409714,0.439336,9.372103,1.4077905,-0.58262813,9.595482,1.9384624
1409351409719,1.9500773,8.915408,1.714847,-0.66372514,9.596408,1.9075704
1409351409751,2.0296845,9.0315275,2.0775685,-0.7361261,9.59015,1.9124745
1409351409752,1.804031,8.887277,2.268506,-0.8051405,9.575979,1.9551878
1409351409754,1.204882,8.55149,2.2290018,-0.8721611,9.554479,2.0301924
1409351409756,0.46507367,8.083424,1.9470845,-0.9430204,9.526929,2.1257308
1409351409772,0.01616086,7.521983,1.4377182,-1.0231038,9.496089,2.2243946
1409351409796,0.051475335,7.280169,1.1216835,-1.1131775,9.465939,2.30808
1409351409797,0.62728083,7.6692266,1.2862848,-1.2061738,9.439802,2.3676276
1409351409798,0.86969376,8.247426,1.7609353,-1.2881991,9.419502,2.404975
1409351409805,0.87089086,8.441956,2.3295584,-1.3593287,9.401181,2.4372988
1409351409822,0.93014735,8.312668,3.0783448,-1.4234489,9.3843975,2.4652112
1409351409838,0.7320272,8.218696,2.7060466,-1.4813151,9.365171,2.503927
1409351409839,0.40043023,8.203134,2.1284454,-1.5413978,9.344364,2.545062
1409351409849,0.4866215,8.486248,1.6531962,-1.6031716,9.324477,2.5796015
1409351409857,1.1025299,8.847773,1.0648212,-1.657683,9.308765,2.6018023
1409351409869,1.9285295,8.825626,1.2300211,-1.6967908,9.299507,2.6096826
1409351409886,1.9494787,9.068638,2.106299,-1.7181427,9.296594,2.6060908
1409351409887,1.2348095,9.270947,2.7216089,-1.7298156,9.297494,2.5951374
1409351409904,0.42317516,9.445126,2.6767175,-1.740171,9.299425,2.5812583
1409351409919,-0.062249243,9.660604,2.5761611,-1.7492125,9.302313,2.5646877
1409351409920,-0.41180268,9.424176,2.8904,-1.7573686,9.30739,2.5405848
1409351409938,-0.37828386,8.848371,2.143409,-1.755196,9.317031,2.5065172
1409351409939,0.05925649,8.456321,0.8738836,-1.7361279,9.33395,2.4563487
1409351409951,0.97264445,8.47727,1.3150153,-1.6891418,9.35789,2.3973095
1409351409956,1.8351556,8.537724,2.397793,-1.6068466,9.386261,2.3423371
1409351409970,1.8363527,8.49343,2.1440077,-1.497427,9.418521,2.2846355
1409351409985,0.58657944,7.9541364,1.3581109,-1.3772786,9.455504,2.2061138
1409351409986,-1.186327,7.5830355,0.59735334,-1.2570184,9.495839,2.1022172
1409351410000,-2.8095956,8.051701,0.48602295,-1.1333756,9.5386915,1.9746432
1409351410005,-4.011485,9.980828,1.3000516,-1.0037429,9.581745,1.8311362
1409351410019,-4.907515,14.404116,2.5582044,-0.87855744,9.620054,1.6891016
1409351410036,-4.7907977,19.296667,2.6330233,-0.7603517,9.651761,1.5606954
1409351410037,-3.3494883,19.608511,0.50517654,-0.6400104,9.67817,1.4469883
1409351410052,-4.56694,19.608511,-2.682703,-0.49488395,9.704573,1.3216506
1409351410057,-6.769605,19.608511,-3.252523,-0.39259326,9.731376,1.1474187
1409351410072,-7.1341224,18.976442,-1.4670471,-0.37969223,9.750342,0.9782876
1409351410088,-5.793968,15.285182,0.9307459,-0.4235575,9.754927,0.9123698
1409351410089,-2.754529,10.581773,3.9785647,-0.45954216,9.747287,0.97447187
1409351410103,-2.9095535,4.4538136,5.7604494,-0.4536598,9.732568,1.1143186
1409351410107,-3.052607,8.471284,6.6385226,-0.43518037,9.7156925,1.2594885
1409351410121,-0.99898064,10.682928,5.90889,-0.40078664,9.69944,1.3894755
1409351410137,1.0971429,10.039486,4.6621094,-0.33062875,9.686642,1.493342
1409351410138,2.180519,8.1720085,3.8546648,-0.19749042,9.68319,1.5385734
1409351410162,2.7353754,7.4591355,2.9352913,-0.02816442,9.685376,1.5372423
1409351410165,2.9520507,6.9862804,2.2379801,0.1377789,9.687995,1.5146469
1409351410167,3.3381157,6.861782,1.8267759,0.28317437,9.689008,1.4877228
1409351410198,3.3812113,7.221511,1.389834,0.41338733,9.687603,1.4662318
1409351410200,2.9586349,7.2849574,0.9403227,0.5307065,9.683115,1.4580851
1409351410202,2.5839422,6.885724,0.7386112,0.6342012,9.675179,1.4693904
1409351410208,2.0859482,6.157288,0.66259533,0.7266429,9.663042,1.5059935
1409351410230,1.5478514,5.5707088,0.6841431,0.8123187,9.646193,1.568921
1409351410232,1.228824,5.4180784,0.58657944,0.895286,9.626361,1.643786
1409351410237,1.0540473,5.5288105,0.54408234,0.97636926,9.602317,1.7356865
1409351410258,0.93014735,5.707777,0.7517793,1.0562477,9.575222,1.8357158
1409351410259,0.8631097,5.843049,1.1737574,1.1300873,9.547053,1.9357386
1409351410266,0.9463082,5.864597,1.5161282,1.1917763,9.520011,2.0296504
1409351410286,1.0336965,6.1824274,2.2774844,1.2363672,9.49683,2.109982
1409351410288,1.0869676,6.395511,2.7850552,1.2610335,9.479224,2.1735935
1409351410303,1.1324574,6.609194,2.9682117,1.2651243,9.4681015,2.219214
1409351410306,1.4101849,6.7504516,3.0693667,1.2480497,9.463586,2.2479582
1409351410321,1.6921021,6.731298,3.3554738,1.2105367,9.465431,2.2606719
1409351410339,2.1164744,6.6229606,3.4685998,1.1535492,9.471939,2.2632039
1409351410340,2.5300727,7.067085,2.9999347,1.0894876,9.479637,2.262722
1409351410352,2.7485435,7.98167,3.0220811,1.0087141,9.491051,2.2522962
1409351410369,2.8245595,8.884284,3.4913447,0.9120385,9.505792,2.2312589
1409351410370,2.4863784,9.353547,4.185663,0.80382764,9.521679,2.204966
1409351410385,1.7106571,9.275137,5.1421466,0.6923205,9.535134,2.1845598
1409351410386,1.4490906,8.69155,4.89315,0.5877903,9.543982,2.1765354
1409351410399,1.5263035,9.333796,4.8757915,0.5091128,9.551339,2.1640496
1409351410406,-0.84934306,15.103223,5.840655,0.4655159,9.558561,2.14187
1409351410425,-1.8818425,16.720507,3.2872388,0.41765758,9.562486,2.1342013
1409351410427,0.44891283,15.198392,-0.026934769,0.3825379,9.569764,2.1079984
1409351410439,3.1956608,13.318345,-0.38606504,0.42369637,9.578916,2.057974
1409351410467,5.415684,11.067796,1.8555063,0.5107567,9.581232,2.0272002
1409351410469,6.5511346,9.316438,6.92044,0.64090985,9.562714,2.0770524
1409351410470,4.818331,15.646707,7.739856,0.8047448,9.518436,2.2185903
1409351410498,3.028665,17.7141,4.9877205,0.9839017,9.47223,2.3407612
1409351410499,-0.34955344,15.640122,4.481347,1.1481955,9.452106,2.347286
1409351410500,-2.2720973,12.8371105,2.855684,1.253783,9.448096,2.3090878
1409351410518,-2.747945,11.121665,1.1695676,1.303128,9.443747,2.2995436
1409351410519,-2.742558,10.4644575,1.3820529,1.3019904,9.4337015,2.3410459
1409351410536,-2.4492683,10.73979,1.9393034,1.2618647,9.4252615,2.3963583
1409351410537,-2.356493,10.913968,0.6183026,1.1970019,9.424852,2.4309986
1409351410552,-2.8461072,10.147225,-0.038307227,1.1188267,9.432811,2.4373536
1409351410568,-3.2477345,9.107543,0.23463176,1.0369191,9.44667,2.419836
1409351410569,-3.0226796,9.03452,0.3788824,0.9576814,9.458037,2.4080606
1409351410583,-2.3535004,9.56304,0.45070848,0.88810015,9.463492,2.4132898
1409351410585,-1.4460979,9.782109,0.46148238,0.82781875,9.468342,2.4157014
1409351410600,-0.5746084,9.8198185,0.47465047,0.77014303,9.479727,2.389987
1409351410620,-0.44352585,9.9951935,0.6374562,0.7053617,9.499195,2.331983
1409351410623,-0.6745663,10.295067,0.9959879,0.6258254,9.522369,2.2590306
1409351410644,-0.80325466,9.940127,1.4646529,0.53122956,9.542088,2.19926
1409351410645,-0.8283938,9.248202,1.2156559,0.42839432,9.552869,2.1747575
1409351410647,-0.8726865,8.836999,1.246182,0.3223863,9.559718,2.1629262
1409351410669,-1.4586674,8.817844,1.9428947,0.21501565,9.566386,2.146724
1409351410670,-1.5478514,8.413225,1.6783354,0.10472564,9.575139,2.1156902
1409351410681,-1.5191209,7.9726915,1.1115081,-0.002975317,9.585196,2.0722952
1409351410689,-1.4957775,7.8733325,0.52732295,-0.10611722,9.595402,2.021727
1409351410710,-1.4149733,8.038532,0.30286652,-0.20423016,9.605592,1.9650184
1409351410712,-1.1935096,8.486847,0.4429273,-0.29485863,9.61554,1.9039085
1409351410718,-1.1150994,9.060856,0.8948329,-0.37219492,9.624819,1.8424742
1409351410746,-1.2479776,9.545682,1.0606314,-0.43619567,9.6317,1.791788
1409351410747,-1.5047557,9.41879,0.75237787,-0.4941044,9.634648,1.7606262
1409351410748,-1.7310078,8.986636,0.2777274,-0.5569773,9.632607,1.7530141
1409351410766,-1.6436194,8.7771435,-0.051475335,-0.6323158,9.626365,1.7617303
1409351410767,-1.4347254,8.702325,-0.074220255,-0.7138557,9.619187,1.7697569
1409351410785,-1.0265139,8.849568,0.26396075,-0.8051846,9.613076,1.7637583
1409351410787,-0.57400984,9.000402,0.6979098,-0.9008079,9.609364,1.7375441
1409351410805,0.142455,9.169194,0.9947908,-0.99477553,9.606536,1.7015516
1409351410808,0.973243,9.490616,1.1953052,-1.0815789,9.602253,1.6725214
1409351410817,1.4526819,9.165004,1.5580268,-1.1537375,9.595712,1.661813
1409351410832,1.9387048,8.874108,1.8082209,-1.2128845,9.586468,1.673008
1409351410839,1.8782512,8.562862,2.202067,-1.2603852,9.574837,1.7042105
1409351410857,1.6358383,8.391078,2.0560207,-1.30287,9.55943,1.7578995
1409351410858,1.3724761,8.073847,1.8357542,-1.345359,9.540082,1.8295448
1409351410868,1.1587936,7.620744,1.6472107,-1.3932585,9.518406,1.9050366
1409351410882,1.091756,7.4088573,1.4257472,-1.4470594,9.49446,1.9828343
1409351410886,1.1115081,7.4950485,1.4454993,-1.5119615,9.470379,2.048486
1409351410908,1.228824,7.78355,1.697489,-1.5855881,9.44751,2.0978274
1409351410910,1.1994951,8.083424,2.1068976,-1.6608404,9.426301,2.1346738
1409351410918,1.1713632,8.277354,2.4917655,-1.7325033,9.405909,2.1674151
1409351410949,0.99898064,8.271368,2.5647886,-1.7994444,9.384927,2.203535
1409351410950,0.52492875,8.35337,2.5540147,-1.8637176,9.3622,2.2463636
1409351410952,-0.011372458,8.627506,2.5210943,-1.927954,9.337378,2.294939
1409351410970,-0.19812019,8.883087,2.391209,-1.9911546,9.312139,2.3430269
1409351410971,0.14305355,8.99741,2.0326772,-2.048805,9.289038,2.384657
1409351410979,0.8888474,9.177573,1.8764555,-2.0998356,9.268593,2.4195597
1409351411007,1.54845,9.762956,2.367267,-2.13817,9.254102,2.4413548
1409351411009,1.654992,10.380061,3.044826,-2.1596577,9.24676,2.450249
1409351411010,1.3227965,10.69849,3.1711202,-2.1656027,9.244744,2.4526064
1409351411018,0.8230068,10.738593,2.8748376,-2.1611829,9.245817,2.452452
1409351411039,0.6452374,10.005369,3.3758245,-2.1499321,9.249765,2.4474523
1409351411041,0.46327803,9.217078,3.6649241,-2.1297576,9.256245,2.4405818
1409351411048,0.38606504,8.622119,3.2381577,-2.0985918,9.266679,2.4279563
1409351411064,0.7422025,8.622119,2.8868086,-2.052373,9.282736,2.4060273
1409351411066,1.1300632,8.689157,3.4111388,-1.9829192,9.3055105,2.3761158
1409351411081,1.0109516,8.62152,3.0801406,-1.8917916,9.334232,2.3374388
1409351411086,0.22325931,8.69993,1.4437037,-1.7995913,9.3658695,2.2830627
1409351411105,-0.9187749,8.783129,0.43873745,-1.7003844,9.405523,2.1943588
1409351411109,-2.0153193,9.068638,0.14903906,-1.5981224,9.450605,2.0742328
1409351411118,-2.822764,10.222044,0.54767364,-1.4900934,9.497661,1.9350672
1409351411148,-3.6140475,13.082517,1.0941502,-1.373653,9.544498,1.784944
1409351411149,-3.205836,18.070835,1.2599486,-1.252074,9.588862,1.6298493
1409351411151,-2.042254,19.608511,0.92775315,-1.1108152,9.630416,1.4804028
1409351411167,-2.3822308,19.608511,-0.9271546,-0.94275486,9.665892,1.3609301
1409351411168,-4.1742907,19.608511,-2.0129251,-0.7918955,9.693949,1.253262
1409351411188,-5.2049947,18.87828,-1.7088615,-0.7090843,9.710779,1.1697713
1409351411189,-5.0822916,14.116213,-0.76315176,-0.6648026,9.719481,1.1225411
1409351411198,-4.4208937,9.0794115,1.0109516,-0.65768886,9.715424,1.1612041
1409351411226,-4.305373,5.837662,2.9514523,-0.6653311,9.701092,1.2714397
1409351411228,-4.9733553,9.102755,4.9637785,-0.68196917,9.680751,1.4100997
1409351411230,-3.2932243,10.137649,4.040814,-0.70374596,9.658468,1.5456854
1409351411258,-1.894412,9.03452,2.9370868,-0.662684,9.649552,1.6178311
1409351411259,-0.5781997,8.639477,2.4271219,-0.5429727,9.6571045,1.6173743
1409351411261,0.11791443,8.15106,2.095525,-0.38232026,9.671012,1.5797946
1409351411266,0.28670564,7.98167,1.9949685,-0.21988603,9.681856,1.5439276
1409351411285,0.58119243,7.642292,1.0773908,-0.071150854,9.687048,1.5252684
1409351411298,0.64823014,6.7839704,0.41299978,0.06413177,9.688175,1.5184076
1409351411299,0.48841715,6.281188,0.40880993,0.19204453,9.686681,1.5171361
1409351411318,0.3657143,5.728726,0.7164649,0.30592117,9.681135,1.5337671
1409351411319,0.18614918,5.134964,0.9660604,0.40995735,9.67086,1.5737783
1409351411333,0.29448682,4.9536033,1.1665748,0.5089653,9.656085,1.6344367
1409351411351,0.65301853,5.1235914,1.3730747,0.6053509,9.638108,1.7061136
1409351411352,0.99060094,5.3606176,1.5801731,0.7016773,9.617605,1.7831724
1409351411366,1.1899183,5.668871,1.7633295,0.79541504,9.595561,1.8608894
1409351411367,1.2737153,5.925649,2.0039468,0.88179106,9.573253,1.9353704
1409351411381,1.1665748,6.2632318,2.2798786,0.95687807,9.551785,2.0045342
1409351411387,1.2629414,6.5271926,2.4528596,1.0183219,9.532198,2.0665414
1409351411401,1.2683283,6.7330937,2.4995465,1.0659521,9.514383,2.1238306
1409351411420,1.3970166,7.0503254,2.2146366,1.1057994,9.499553,2.169355
1409351411421,1.5149311,7.153276,2.3493104,1.1290641,9.489525,2.201025
1409351411426,1.6747441,7.165247,2.6862943,1.1341354,9.483534,2.224123
1409351411453,1.9752164,7.2089415,2.9897594,1.1206913,9.480331,2.2444952
1409351411455,2.3385365,7.4070616,3.441665,1.0906618,9.478745,2.2658827
1409351411458,2.5647886,7.9966335,4.0587707,1.045051,9.478178,2.289627
1409351411469,2.6755204,8.99741,4.5220485,0.9838713,9.478563,2.3149998
1409351411487,2.6354175,9.755774,4.8506527,0.90935177,9.4805975,2.33704
1409351411488,2.392406,10.008362,5.246893,0.82776237,9.484555,2.3512595
1409351411498,2.308609,9.209297,5.2744265,0.74940455,9.48941,2.3579333
1409351411525,1.525705,9.330803,5.351041,0.6816055,9.494235,2.3590858
1409351411528,-0.5943606,13.150751,5.377377,0.6249999,9.499081,2.3552535
1409351411530,-0.919972,14.487913,3.5290532,0.5640098,9.505432,2.3450062
1409351411563,0.4321534,13.937246,1.4670471,0.52511495,9.518606,2.3001778
1409351411565,2.4732103,12.700043,0.91697925,0.5503969,9.535241,2.224107
1409351411567,4.5142674,11.589133,2.1571758,0.63580364,9.541343,2.1746082
1409351411571,5.774216,10.351331,5.3725886,0.75543135,9.527176,2.1983209
1409351411597,5.473145,11.472416,9.153033,0.8966517,9.490947,2.2996466
1409351411599,4.4274774,15.6712475,7.9505453,1.0536819,9.438887,2.4428587
1409351411601,0.830788,16.041151,2.9346926,1.2075651,9.4006,2.5181122
1409351411624,-1.0546459,12.497733,2.5971103,1.3053757,9.396661,2.4837742
1409351411627,-1.887828,10.314221,2.3894134,1.3700248,9.394231,2.458023
1409351411629,-1.8423382,9.5809965,3.0921116,1.3934834,9.387376,2.470987
1409351411672,-1.5753847,9.727043,3.448249,1.3769714,9.371538,2.539414
1409351411674,-1.7310078,10.237008,2.333748,1.336582,9.3553295,2.6194978
1409351411675,-2.19668,10.152613,1.2150574,1.2797257,9.35171,2.66049
1409351411677,-2.4193408,9.701904,0.7691373,1.2130538,9.361941,2.6557367
1409351411679,-2.31639,9.638457,0.56443304,1.1444354,9.37648,2.6348202
1409351411706,-1.8674773,9.993398,0.6362591,1.0781144,9.388945,2.618354
1409351411708,-1.039682,10.221446,0.83378077,1.0168623,9.40076,2.6004097
1409351411710,0.039504327,10.226832,0.9498995,0.95882297,9.416591,2.5649362
1409351411720,0.5255273,10.157401,0.7823054,0.8992939,9.434846,2.518994
1409351411747,0.29448682,10.432734,0.44831428,0.8343893,9.458591,2.4513736
1409351411748,-0.13467385,10.081385,0.7404069,0.75553787,9.485128,2.3731606
1409351411750,-0.3866636,9.160814,1.1300632,0.6639345,9.50697,2.312378
1409351411772,-0.48003745,8.631097,1.6238673,0.56650287,9.520966,2.2805
1409351411774,-0.4950012,8.612542,2.3235726,0.46659556,9.531587,2.2586627
1409351411779,-0.7493851,8.568848,2.4420857,0.36708906,9.543221,2.2276838
1409351411808,-1.1246762,7.928399,1.8722657,0.26900998,9.557013,2.182095
1409351411810,-1.2096704,7.395689,0.9247604,0.17602062,9.571534,2.1272397
1409351411812,-1.1210849,7.173627,0.2208651,0.08957107,9.585439,2.069241
1409351411841,-1.1312603,7.445369,0.17717093,0.008640549,9.598342,2.010509
1409351411845,-1.3928268,7.978079,0.53570265,-0.06947868,9.610216,1.9517479
1409351411846,-1.7208325,8.759786,0.7254431,-0.14183804,9.620294,1.8974221
1409351411848,-1.9381063,9.045294,0.6733692,-0.20859717,9.627991,1.851669
1409351411865,-1.9979613,8.659229,0.3645172,-0.2734639,9.632279,1.8206599
1409351411867,-1.9566613,8.028955,0.046088383,-0.34264264,9.632345,1.8085678
1409351411882,-1.9003977,8.170812,0.1592144,-0.42117196,9.629036,1.8096004
1409351411899,-1.8525136,8.639477,0.6422446,-0.51194185,9.625002,1.8076582
1409351411903,-1.3928268,9.425972,0.9211691,-0.6129299,9.621976,1.7922868
1409351411926,-0.5374983,9.618706,0.6889315,-0.7162016,9.619888,1.764995
1409351411928,0.41599256,9.269152,0.5410896,-0.81303203,9.617364,1.73657
1409351411930,1.4281414,9.49301,0.99778354,-0.8994193,9.61229,1.7220023
1409351411969,1.6400281,9.596559,1.5879543,-0.9721947,9.605207,1.7219821
1409351411971,1.5693992,9.334992,1.7274165,-1.0316588,9.593296,1.7534939
1409351411973,1.4083891,8.896853,1.7363948,-1.0819138,9.576598,1.8134583
1409351411975,1.0995371,7.9846625,1.8632874,-1.132873,9.555738,1.8907219
1409351411980,1.192911,7.8326306,1.8034325,-1.1955206,9.532224,1.9692217
1409351412003,1.4173675,7.8092875,1.7806876,-1.2672966,9.50949,2.0332088
1409351412005,1.4772224,7.958925,1.9722236,-1.3444613,9.489041,2.0786817
1409351412009,1.3742718,8.304887,2.1823149,-1.4213989,9.470998,2.109554
1409351412038,1.1869255,8.664616,2.3840263,-1.4925193,9.45488,2.1326098
1409351412040,0.99060094,8.995016,2.7461493,-1.5549845,9.4393425,2.1566677
1409351412043,0.97503865,9.040505,3.288436,-1.6097617,9.423438,2.1858346
1409351412047,0.6697779,8.935161,2.8018146,-1.6608418,9.405458,2.2247136
1409351412069,0.2148796,8.94773,2.6042929,-1.7107147,9.387967,2.260516
1409351412070,0.15682021,9.098565,2.4187422,-1.76082,9.371768,2.289074
1409351412078,0.5650316,9.200318,1.8483237,-1.8070934,9.357377,2.311771
1409351412100,1.3275849,9.129689,1.8806454,-1.845715,9.345386,2.3297036
1409351412102,1.4227544,9.540894,2.3624785,-1.8743595,9.335981,2.344486
1409351412107,0.83737206,10.118495,2.7234044,-1.8977389,9.329595,2.351095
1409351412135,0.11911154,10.42196,2.4809916,-1.9195597,9.325767,2.348566
1409351412146,-0.581791,10.50037,1.6472107,-1.9388795,9.324045,2.339513
1409351412148,-0.7398083,10.6954975,1.4682442,-1.9536511,9.325921,2.3196676
1409351412149,-0.53689975,10.622475,1.8884265,-1.964005,9.330366,2.292888
1409351412162,0.1340753,9.878476,1.0761937,-1.9581838,9.339539,2.2602956
1409351412167,1.1174936,9.630077,1.6980876,-1.9314213,9.354508,2.2210817
1409351412181,1.827973,9.600749,3.4063504,-1.8746465,9.372792,2.1924572
1409351412202,1.4203602,9.528324,2.7724855,-1.7906146,9.39364,2.1733892
1409351412203,0.05327099,9.069236,1.5682021,-1.7007724,9.419832,2.1317928
1409351412206,-1.6603789,8.498219,1.4856021,-1.6193135,9.450186,2.059663
1409351412230,-3.0280666,8.279748,1.3802572,-1.5460926,9.481588,1.9696345
1409351412232,-3.8498764,9.108142,1.6430209,-1.4757208,9.51352,1.8669771
1409351412253,-4.3927617,11.601105,1.9075803,-1.4009147,9.5462675,1.7540237
1409351412254,-4.437054,15.461755,2.1051018,-1.3170931,9.579467,1.6338618
1409351412259,-3.6409822,19.242199,2.0494366,-1.2253934,9.61113,1.5149298
1409351412268,-3.181894,19.608511,1.1988965,-1.1071,9.641841,1.4069886
1409351412287,-3.602675,19.608511,0.39205053,-0.97399294,9.669221,1.31449
1409351412289,-3.9031472,18.39525,0.54168814,-0.8588601,9.689815,1.2410706
1409351412301,-3.530849,14.401123,1.3826514,-0.78284997,9.69933,1.2167746
1409351412325,-2.7712884,9.815628,2.31639,-0.73902816,9.696706,1.2641699
1409351412328,-2.544438,7.1071877,4.198831,-0.71156406,9.6845045,1.3690989
1409351412329,-4.3783965,7.00723,5.701193,-0.69261116,9.665565,1.5058379
1409351412356,-4.453215,9.656414,5.571906,-0.6840732,9.644086,1.6413598
1409351412358,-1.9596541,8.695142,2.8395233,-0.6441073,9.632082,1.7258406
1409351412360,-1.0893618,8.67958,2.247557,-0.52443826,9.63472,1.7514408
1409351412382,-0.28491,9.015367,2.3104045,-0.38029397,9.646684,1.7225686
1409351412384,-0.01316811,8.833407,2.1739352,-0.21961284,9.658873,1.6817688
1409351412402,0.23463176,8.826224,1.5682021,-0.06132073,9.666063,1.6534405
1409351412404,0.3716998,8.558673,0.7164649,0.08503011,9.668598,1.6374869
1409351412408,0.29029694,7.9032598,-0.034117375,0.21609563,9.668061,1.6285818
1409351412443,-0.0676362,6.9066734,-0.07182605,0.33102834,9.664592,1.6298677
1409351412445,-0.5129577,5.7903767,0.37229836,0.42850527,9.65696,1.652242
1409351412448,-0.44592008,5.3103395,0.84814596,0.50957686,9.644584,1.700799
1409351412452,-0.034117375,5.4049106,1.3856442,0.5818148,9.628187,1.7691556
1409351412476,0.2621651,5.453393,1.6771383,0.6525534,9.608829,1.8479615
1409351412479,0.44891283,5.483919,1.7585411,0.7236361,9.587717,1.9293592
1409351412481,0.7428011,5.693412,1.9422961,0.7878306,9.566383,2.0084875
1409351412504,1.0043676,5.761048,2.0919337,0.8428878,9.546226,2.080747
1409351412505,1.0726024,5.7808,2.2080526,0.8900363,9.52779,2.144631
1409351412507,1.2060791,5.921459,2.3020248,0.92862105,9.511747,2.1987977
1409351412531,1.2509704,6.165668,2.3505075,0.95873386,9.498823,2.241334
1409351412533,1.2360066,6.301539,2.1721394,0.98036057,9.4894905,2.271315
1409351412550,1.328782,6.5966244,2.3870192,0.99220383,9.484107,2.288591
1409351412551,1.4059949,6.6056023,2.4546554,0.99325204,9.481854,2.297449
1409351412559,1.6394296,6.6864066,2.540248,0.9817862,9.482421,2.300044
1409351412580,1.9542671,7.0132155,2.942474,0.95723855,9.485668,2.296998
1409351412581,2.1392193,7.5842323,3.6302083,0.92716986,9.489589,2.293128
1409351412596,2.2637177,8.470686,4.079121,0.88536,9.495076,2.2869346
1409351412619,2.493561,9.526528,4.2957964,0.83354497,9.502047,2.277432
1409351412626,2.7760768,10.157999,4.5525746,0.77856463,9.509993,2.263684
1409351412628,2.9903579,9.606734,4.4801497,0.7301618,9.517129,2.2497807
1409351412629,2.15538,10.132261,4.8440685,0.69517475,9.523402,2.2342632
1409351412656,0.11971009,14.842255,5.2642508,0.6680659,9.529117,2.2181175
1409351412657,-0.42317516,15.336658,2.8060043,0.6248827,9.534707,2.2066479
1409351412660,0.53330845,13.954006,0.57161564,0.59501916,9.544511,2.1722438
1409351412685,2.0057425,12.938865,1.1701661,0.6200785,9.554191,2.122113
1409351412687,3.0178912,12.442666,4.5992613,0.67575693,9.556045,2.0966108
1409351412689,2.6856956,13.921684,8.075643,0.7661545,9.535415,2.158535
1409351412699,2.8431146,17.538725,4.9679685,0.87149173,9.493079,2.3005114
1409351412716,1.7878702,19.57619,3.5087025,1.0059925,9.46021,2.3796587
1409351412719,-1.5310919,18.673576,2.8736405,1.1453823,9.443938,2.3812895
1409351412728,-1.5035586,10.920552,1.6938977,1.2247216,9.438816,2.3620317
1409351412747,-1.1540052,7.9744873,3.1052797,1.2831488,9.419249,2.4086685
1409351412749,-0.48602295,6.0663085,4.3742065,1.2935125,9.385307,2.5324352
1409351412772,-0.21547815,5.955577,4.5178585,1.2705914,9.349164,2.6737843
1409351412774,-0.6811504,6.457162,3.8989575,1.2329303,9.329421,2.7590184
1409351412784,-1.1234791,6.76781,3.2237926,1.1870692,9.335695,2.7579052
1409351412809,-0.89543146,7.8930845,2.6366146,1.1408873,9.353017,2.7184248
1409351412811,-0.26276365,9.463681,2.2661119,1.0914626,9.379474,2.6466134
1409351412813,0.34117374,10.115502,2.0536265,1.0542232,9.402914,2.5776393
1409351412846,0.7625532,10.625467,1.555034,1.0286987,9.421609,2.519014
1409351412851,1.2276269,11.470022,0.6607997,0.9979385,9.443313,2.44915
1409351412854,0.80684596,12.600085,-0.110731825,0.9480705,9.474419,2.346686
1409351412856,0.01616086,13.254899,-0.6727707,0.8700063,9.51325,2.2162042
1409351412894,-0.9888053,11.90457,-0.8319851,0.7684692,9.549497,2.0945132
1409351412896,-1.3796587,9.930551,-0.3286042,0.6503112,9.572454,2.028695
1409351412898,-1.3192052,8.875306,0.6428431,0.52629036,9.58171,2.0209599
1409351412900,-1.1300632,8.883685,1.560421,0.40403673,9.585331,2.0318878
1409351412923,-1.0516531,8.838196,2.078167,0.28521228,9.588271,2.0381634
1409351412924,-1.1192893,7.984064,1.8207904,0.17684944,9.59407,2.0231028
1409351412927,-0.8774749,7.724293,1.2419921,0.08096764,9.602247,1.9901464
1409351412929,-0.46507367,7.290344,0.7793127,-0.004002477,9.611634,1.9459898
1409351412956,-0.492607,7.3460093,0.8511387,-0.07988829,9.621494,1.8949554
1409351412957,-0.93613285,7.8942814,1.2324153,-0.14635976,9.630843,1.8427807
1409351412961,-1.1671734,8.476072,1.1300632,-0.20287451,9.6380005,1.7994977
1409351412976,-1.3784616,8.108562,0.7613561,-0.25310382,9.642286,1.7699224
1409351412979,-1.7160441,7.4405804,0.4237737,-0.3042211,9.643171,1.7570101
1409351412992,-2.0470424,7.1873937,0.2657564,-0.36529434,9.640867,1.7580205
1409351413010,-1.9177556,7.8146744,0.4261679,-0.43579358,9.637235,1.7618697
1409351413011,-1.785476,8.331821,0.7433996,-0.51983494,9.633153,1.7614001
1409351413024,-1.484405,8.926781,1.0127473,-0.60876757,9.6305,1.7473593
1409351413030,-0.6452374,9.223662,1.2384008,-0.69383967,9.629556,1.720652
1409351413045,0.12868834,8.913613,1.1378443,-0.7679979,9.628928,1.6924316
1409351413060,0.8559271,8.701726,1.258153,-0.83257216,9.626171,1.677513
1409351413061,1.2533646,8.928576,1.7058687,-0.893632,9.618514,1.6899726
1409351413079,1.3060371,9.109938,2.1643584,-0.95143783,9.604281,1.7386615
1409351413080,1.0773908,9.018359,2.3373394,-1.0052187,9.583508,1.8210783
1409351413096,0.736217,8.768764,2.203264,-1.0617576,9.558004,1.9203175
1409351413111,0.60333884,8.22947,1.3533225,-1.1271064,9.531686,2.0117145
1409351413120,0.91338795,8.492832,1.1994951,-1.1991634,9.506947,2.0857584
1409351413151,1.2036849,8.875904,1.4754268,-1.2727438,9.487834,2.1287405
1409351413152,1.2210429,9.0315275,1.9021933,-1.3440986,9.473708,2.1477017
1409351413153,1.1420342,9.107543,2.1284454,-1.4111261,9.460832,2.1614292
1409351413154,1.1953052,9.087193,2.5288756,-1.4759482,9.445922,2.1832387
1409351413160,1.0594343,8.881291,2.7443538,-1.5388514,9.42732,2.2199063
1409351413177,0.7433996,8.690952,2.731784,-1.6002744,9.405833,2.267118
1409351413180,0.45250413,8.635287,2.5671828,-1.659716,9.384089,2.3140023
1409351413193,0.39983168,8.750807,2.1894975,-1.7153298,9.364171,2.353789
1409351413208,1.0259154,8.893861,1.9656396,-1.7629328,9.346955,2.3868108
1409351413210,1.7010803,9.101558,2.272696,-1.7957311,9.33386,2.4134562
1409351413224,1.6879122,9.48463,2.7700913,-1.8183722,9.32353,2.4363286
1409351413228,0.94810385,9.921572,2.9592333,-1.8319899,9.317649,2.4485955
1409351413244,0.3184288,10.320207,2.5049336,-1.8449131,9.314779,2.4498093
1409351413258,0.25019407,10.64881,2.3690627,-1.8533674,9.315814,2.4394736
1409351413260,0.29508537,10.761338,2.8580782,-1.847254,9.323368,2.415131
1409351413276,0.35314476,10.397419,2.658761,-1.8219082,9.337991,2.3776047
1409351413280,0.7230489,10.1304655,2.2026656,-1.7775263,9.3590145,2.3280103
1409351413292,1.6837224,10.661979,3.3608606,-1.7116659,9.384812,2.272857
1409351413310,1.429937,10.864887,2.6713305,-1.620047,9.412271,2.2259836
1409351413312,0.760159,10.4728365,1.501763,-1.5237789,9.443025,2.1628232
1409351413325,-0.15322891,9.6923275,1.009156,-1.4369586,9.47506,2.0805707
1409351413330,-1.4203602,8.564658,0.93613285,-1.3512057,9.508875,1.9814005
1409351413353,-2.5917234,7.875128,0.5602432,-1.2694448,9.542225,1.8721226
1409351413354,-3.5362358,8.552089,0.3393781,-1.1855943,9.575501,1.75344
