time,acc_x,acc_y,acc_z,gravity_x,gravity_y,gravity_z
1409526543349,1.1180922,9.586982,1.8118122,1.2547758,9.568563,1.743133
1409526543364,1.1552023,9.524135,1.8716671,1.2544398,9.568063,1.7461295
1409526543369,1.2659341,9.455301,1.9153614,1.2546403,9.56743,1.7494447
1409526543393,1.3078327,9.598354,1.8644845,1.25604,9.566738,1.7522166
1409526543395,1.270124,9.673772,1.9087774,1.2587115,9.566217,1.7531496
1409526543396,1.2904748,9.668983,1.9596541,1.2622943,9.565941,1.7520831
1409526543401,1.30484,9.642049,1.9015948,1.267016,9.565897,1.7489072
1409526543418,1.3180081,9.650429,1.785476,1.2718716,9.565542,1.7473218
1409526543420,1.3569138,9.7007065,1.8926164,1.2763343,9.565204,1.7459203
1409526543432,1.3054385,9.599552,1.8674773,1.2806879,9.565229,1.7425827
1409526543448,1.3497312,9.648633,1.8926164,1.2849737,9.565174,1.7397354
1409526543467,1.3042414,9.623494,1.9405005,1.2896315,9.564974,1.737391
1409526543468,1.3072342,9.629479,1.9069817,1.2933774,9.564612,1.7365959
1409526543489,1.292869,9.639654,1.8602947,1.2966318,9.564096,1.737014
1409526543490,1.2940661,9.6288805,1.8303672,1.2996731,9.563448,1.7383059
1409526543492,1.4838065,9.760562,1.8650831,1.3032829,9.562967,1.7382462
1409526543501,1.0953473,9.449914,1.8375498,1.3087019,9.562149,1.738684
1409526543519,1.1845313,9.563639,1.7806876,1.3110458,9.561599,1.7399402
1409526543520,1.2533646,9.60015,1.75076,1.3132912,9.561335,1.739707
1409526543532,1.2677298,9.647436,1.7184383,1.3170199,9.560888,1.739332
1409526543545,1.2976574,9.642648,1.7328035,1.3214161,9.560411,1.7386199
1409526543560,1.2348095,9.643845,1.7220296,1.3259215,9.559889,1.7380538
1409526543561,1.2425907,9.662998,1.6861166,1.3296732,9.559451,1.7376015
1409526543583,1.2964603,9.638457,1.6639702,1.3327482,9.559193,1.7366742
1409526543585,1.3371617,9.622296,1.7100586,1.3360431,9.559051,1.734922
1409526543593,1.4161704,9.590573,1.8088194,1.3396976,9.558812,1.7334176
1409526543619,1.4359225,9.565434,1.8920178,1.3437805,9.558207,1.7335876
1409526543621,1.4203602,9.563639,1.9261353,1.3476306,9.557593,1.7339869
1409526543622,1.4065934,9.561244,1.9416976,1.3511496,9.557066,1.7341455
1409526543653,1.3970166,9.555259,1.9542671,1.3544986,9.556618,1.7340133
1409526543655,1.3808558,9.57142,1.905186,1.3580132,9.556141,1.7338831
1409526543656,1.3946224,9.578004,1.9255368,1.361711,9.555661,1.7336345
1409526543661,1.3718776,9.587581,1.9434932,1.3660803,9.554971,1.7340019
1409526543683,1.3455414,9.599552,1.9686323,1.3706733,9.554228,1.7344671
1409526543684,1.3533225,9.570822,1.9973627,1.3749931,9.553463,1.7352588
1409526543692,1.3293805,9.562442,2.0308816,1.3794805,9.552495,1.7370325
1409526543718,1.2946646,9.568427,2.0458453,1.383833,9.551386,1.7396642
1409526543719,1.2797008,9.581595,2.0566192,1.3884853,9.550323,1.7417902
1409526543721,1.2671312,9.578004,2.0171149,1.3929682,9.549311,1.7437638
1409526543732,1.2509704,9.570223,2.0446482,1.3970063,9.54838,1.7456279
1409526543751,1.1420342,9.551667,2.0697873,1.401201,9.547328,1.7480209
1409526543753,1.1468226,9.576208,2.0649989,1.4046803,9.546298,1.7508584
1409526543761,1.4760253,9.779716,2.0470424,1.4075668,9.545436,1.7532253
1409526543786,0.88525605,9.43495,2.144606,1.4131902,9.544289,1.754954
1409526543788,1.0145429,9.615114,2.0093338,1.4140579,9.543558,1.758222
1409526543792,1.0905589,9.665991,1.9015948,1.4152662,9.543057,1.7599696
1409526543824,1.1378443,9.656414,1.8752584,1.4167712,9.542808,1.7601064
1409526543826,1.0534488,9.627684,1.8716671,1.4204087,9.54236,1.7595894
1409526543828,1.0229226,9.619903,1.7872716,1.4229697,9.541932,1.7598562
1409526543834,1.0468647,9.662399,1.7501614,1.4247612,9.541672,1.7598133
1409526543857,1.0001777,9.654618,1.6927006,1.4271003,9.541435,1.7592065
1409526543859,1.0773908,9.64983,1.6340426,1.4290693,9.541312,1.758264
1409526543861,1.1767502,9.634268,1.6178818,1.4312339,9.541257,1.7568057
1409526543902,1.5987282,9.739613,1.6136919,1.434225,9.541147,1.7549586
1409526543903,1.3108255,9.433753,1.6166847,1.4406449,9.540784,1.7516696
1409526543905,1.5771804,9.829993,1.6400281,1.4444015,9.5409355,1.7477567
1409526543906,1.5837644,9.706693,1.6825253,1.4503924,9.541088,1.7419455
1409526543913,1.6298528,9.679757,1.7375919,1.458416,9.54075,1.7371024
1409526543923,1.6525977,9.564238,1.8483237,1.4666513,9.540294,1.7326647
1409526543934,1.7076644,9.537302,1.8662802,1.4751071,9.539452,1.7301193
1409526543971,1.7525556,9.511565,1.8734628,1.4846756,9.538299,1.7282885
1409526543982,1.8010383,9.44752,1.8411411,1.4950662,9.537022,1.7263721
1409526543985,1.8255788,9.414599,1.8393455,1.506002,9.535748,1.723917
1409526543988,1.875857,9.4062195,1.797447,1.5165136,9.534588,1.7211095
1409526543993,2.0380642,9.380483,1.8004397,1.5268477,9.533383,1.7186382
1409526544039,1.7513585,9.237429,1.8339585,1.53802,9.531993,1.716385
1409526544041,1.7705121,9.345168,1.8237832,1.5460037,9.530968,1.7149053
1409526544042,1.7741034,9.473856,1.7753005,1.5523981,9.530197,1.7134122
1409526544043,1.7549498,9.58818,1.7064673,1.5587726,9.529588,1.7110204
1409526544045,1.7555484,9.634866,1.6867151,1.5656004,9.528998,1.7080605
1409526544046,1.6460136,9.700109,1.6705543,1.5719442,9.528364,1.7057699
1409526544070,1.6101006,9.76116,1.726818,1.5772127,9.527947,1.7032351
1409526544071,1.5933412,9.7958765,1.7776948,1.582254,9.527538,1.7008541
1409526544073,1.6059108,9.807847,1.769315,1.5878564,9.526866,1.6994001
1409526544081,1.6095021,9.750985,1.7525556,1.593794,9.52611,1.6980734
1409526544101,1.6112977,9.704298,1.7561469,1.5994178,9.525441,1.6965431
1409526544102,1.6514006,9.642648,1.7304093,1.60519,9.524686,1.6953281
1409526544112,1.7938557,9.533711,1.6232687,1.6114862,9.523763,1.6945351
1409526544136,1.9506758,9.656414,1.6196774,1.6193491,9.522525,1.694
1409526544137,1.3784616,9.409213,1.8124107,1.6287103,9.521047,1.693327
1409526544141,1.5705963,9.682152,1.721431,1.6334053,9.520044,1.6944402
1409526544175,1.4939818,9.752182,1.7178397,1.63826,9.519443,1.6931324
1409526544177,1.4891934,9.746795,1.751957,1.6427573,9.519185,1.69022
1409526544179,1.5945383,9.671976,1.7878702,1.6471618,9.519055,1.6866686
1409526544181,1.5400703,9.55047,1.858499,1.6514442,9.518813,1.683841
1409526544205,1.4814123,9.520543,1.882441,1.6546254,9.518493,1.6825243
1409526544206,1.4921862,9.551667,1.858499,1.6562732,9.518464,1.681059
1409526544213,1.5999253,9.604341,1.8082209,1.6579067,9.518622,1.6785653
1409526544230,1.7495629,9.674371,1.7280151,1.6610686,9.518756,1.6746776
1409526544245,1.1833342,9.461287,1.8459295,1.6655064,9.518831,1.6698258
1409526544246,1.3210008,9.635465,1.6352397,1.662745,9.519924,1.6663419
1409526544269,1.471237,9.668385,1.5993267,1.6599087,9.521345,1.6610476
1409526544270,1.352724,9.642049,1.6454151,1.6604946,9.522361,1.65463
1409526544273,1.4891934,9.7958765,1.6298528,1.6589801,9.523417,1.6500567
1409526544281,1.5652094,9.722853,1.520318,1.6580983,9.52408,1.6471119
1409526544305,1.7669208,9.702502,1.6011224,1.6589024,9.524887,1.6416305
1409526544306,1.3437457,9.547478,1.4024036,1.6595025,9.52584,1.6354939
1409526544313,1.5089456,9.852738,1.4347254,1.6531298,9.528232,1.627989
1409526544337,1.572392,9.842564,1.4867992,1.6480343,9.530646,1.6189919
1409526544338,1.6519991,9.490017,1.483208,1.6468939,9.53251,1.6091658
1409526544341,1.6813282,9.509769,1.5975311,1.6477821,9.533641,1.601536
1409526544366,1.6478093,9.599552,1.5987282,1.6465058,9.534951,1.5950258
1409526544368,1.7244238,9.68275,1.6101006,1.6409068,9.537213,1.5872549
1409526544373,1.738789,9.792884,1.6514006,1.6340593,9.54,1.5775332
1409526544382,1.7764976,9.737817,1.6136919,1.6282797,9.542936,1.5657135
1409526544402,1.8016368,9.694721,1.5526398,1.6244514,9.545421,1.5545075
1409526544404,1.8177977,9.719262,1.4610616,1.6215079,9.547343,1.5457504
1409526544413,1.8393455,9.735423,1.412579,1.618466,9.54906,1.5383186
1409526544439,1.899799,9.667787,1.3640964,1.6154569,9.550685,1.5313798
1409526544442,1.9135658,9.6288805,1.3467385,1.6127137,9.552218,1.5246835
1409526544443,1.9147629,9.595362,1.4239515,1.6097369,9.5538435,1.5176377
1409526544475,1.929128,9.500193,1.5209166,1.6057973,9.555577,1.5108795
1409526544477,2.0308816,9.507375,1.5927427,1.6010647,9.557343,1.504727
1409526544478,1.9955671,9.488221,1.6693572,1.5964193,9.559019,1.4989921
1409526544482,1.9249382,9.524135,1.6597804,1.5921041,9.560564,1.4937234
1409526544503,1.881244,9.449914,1.6801311,1.5883063,9.56197,1.4887713
1409526544504,1.8818425,9.398438,1.6867151,1.5853304,9.563096,1.4846847
1409526544513,1.8614918,9.460688,1.6424223,1.5841833,9.563748,1.4817188
1409526544531,1.910573,9.448118,1.6250644,1.5845276,9.563936,1.4801238
1409526544535,1.9871874,9.387665,1.5855601,1.5856644,9.563841,1.4795278
1409526544541,2.0979192,9.163208,1.6609775,1.5890166,9.563234,1.4798455
1409526544567,2.0679917,9.31943,1.7645266,1.5950179,9.561873,1.4822012
1409526544569,2.088941,9.479841,1.7687165,1.6010108,9.560375,1.4853892
1409526544576,2.1906946,9.340978,1.7902644,1.6066595,9.558935,1.4885575
1409526544609,2.0296845,9.671976,1.827973,1.6138927,9.557154,1.492164
1409526544611,1.8471266,9.918579,1.6944963,1.6198274,9.555603,1.4956608
1409526544613,1.7118542,9.909002,1.5682021,1.6239959,9.554578,1.4976927
1409526544614,1.6226702,9.844957,1.5107412,1.6275091,9.553812,1.4987632
1409526544632,1.5496471,9.776723,1.5340848,1.6300715,9.552793,1.502468
1409526544633,1.5125369,9.691729,1.5652094,1.6318709,9.551269,1.5101832
1409526544641,1.5867572,9.592369,1.6525977,1.63344,9.5494795,1.5197679
1409526544666,1.5861586,9.564238,1.6250644,1.636427,9.547051,1.5317589
1409526544667,1.4664485,9.545682,1.5586253,1.6405658,9.544518,1.5430876
1409526544673,1.5209166,9.413403,1.3964181,1.64522,9.542505,1.550562
1409526544706,1.3688848,9.450513,1.3826514,1.6503364,9.541115,1.5536741
1409526544708,1.4185646,9.707291,1.2623428,1.6520203,9.540341,1.5566264
1409526544709,1.4772224,9.715671,1.4221559,1.6519771,9.539865,1.559609
1409526544731,1.4341269,9.724648,1.5179238,1.6509476,9.539737,1.5614729
1409526544732,1.4377182,9.943718,1.5622166,1.6481247,9.540239,1.5613822
1409526544733,1.4514848,10.071808,1.5520413,1.6446686,9.540915,1.5608939
1409526544741,1.4820108,9.873089,1.5628152,1.6422763,9.541954,1.5570583
1409526544762,1.5352819,9.586982,1.5795746,1.6411617,9.542883,1.5525428
1409526544763,1.5286977,9.324219,1.6891093,1.6415086,9.543195,1.550251
1409526544784,1.5574282,9.324817,1.7292122,1.6419741,9.542802,1.5521666
1409526544785,1.6843209,9.197925,1.6651673,1.6411661,9.542237,1.5564877
1409526544793,1.6903064,9.165004,1.6436194,1.6396512,9.541776,1.560909
1409526544828,1.6591818,9.470264,1.5688007,1.6370348,9.541728,1.5639497
1409526544833,1.6286557,9.665991,1.5197195,1.632826,9.542527,1.5634712
1409526544835,1.4993688,9.797672,1.5179238,1.6280078,9.544183,1.5583845
1409526544863,1.4305356,9.742605,1.4341269,1.623748,9.546016,1.5515854
1409526544865,1.3736732,9.937733,1.3976152,1.620965,9.547482,1.5454664
1409526544868,1.4347254,9.941922,1.2551602,1.6177224,9.549032,1.5392667
1409526544869,1.4526819,9.589975,1.3928268,1.6147105,9.5508795,1.5309536
1409526544882,1.5209166,9.746197,1.4772224,1.6115185,9.55248,1.5243034
1409526544883,1.5125369,9.636662,1.5221137,1.6078265,9.553714,1.5204668
1409526544895,1.5239093,9.622296,1.5807717,1.6041375,9.554425,1.5199019
1409526544909,1.4873978,9.631275,1.6220716,1.5986952,9.555335,1.5199186
1409526544916,1.5891514,9.374496,1.6124948,1.590267,9.556825,1.5193886
1409526544936,1.3682863,9.084799,1.6831238,1.5817167,9.558254,1.519317
1409526544937,1.6047137,9.633071,1.5873557,1.5714573,9.559968,1.519185
1409526544942,1.5831659,9.783307,1.5652094,1.5630627,9.561944,1.5154026
1409526544969,1.2797008,9.621698,1.5119383,1.5584623,9.563619,1.5095655
1409526544971,1.3263878,9.653421,1.5466543,1.5532485,9.565537,1.502757
1409526544973,1.6466122,9.883265,1.376666,1.5477108,9.567546,1.4956715
1409526545023,1.1384429,9.770139,1.5466543,1.545102,9.569092,1.4884712
1409526545024,1.3958195,9.730635,1.4359225,1.5382136,9.570848,1.484297
1409526545025,1.5634137,9.639654,1.4760253,1.5322809,9.572592,1.4791818
1409526545027,1.46585,9.652225,1.602918,1.5290548,9.573853,1.4743526
1409526545028,1.4508862,9.929952,1.1833342,1.524467,9.575011,1.4715778
1409526545060,1.460463,10.107122,1.5927427,1.5183839,9.57794,1.458758
1409526545061,1.3221979,9.90601,1.3970166,1.5121298,9.57965,1.4540131
1409526545063,1.2324153,9.801862,1.3060371,1.5040563,9.5797825,1.4614902
1409526545064,1.2551602,9.780912,1.4215573,1.4954798,9.58026,1.4671488
1409526545080,1.2904748,9.724648,1.4873978,1.4874266,9.580621,1.4729736
1409526545082,1.3431472,9.628283,1.5586253,1.4805156,9.5808,1.4787594
1409526545093,1.3964181,9.537901,1.6256629,1.4740278,9.580877,1.4847206
1409526545111,1.4131776,9.438541,1.6753427,1.4680451,9.580821,1.4910089
1409526545132,1.3748703,9.42238,1.7447745,1.4620357,9.580692,1.497718
1409526545134,1.2826935,9.577405,1.7543513,1.4553262,9.580533,1.5052562
1409526545135,1.1761516,9.717466,1.6891093,1.4473023,9.580608,1.5124955
1409526545142,1.1641805,9.781511,1.5873557,1.4387686,9.581072,1.5177022
1409526545169,1.1641805,9.779117,1.5370775,1.431566,9.581626,1.5210023
1409526545183,1.2192472,9.717466,1.4694413,1.426118,9.582009,1.5237073
1409526545184,1.2401965,9.714474,1.471237,1.4217842,9.582224,1.5264016
1409526545206,1.2401965,9.722853,1.4885949,1.4184743,9.5821,1.5302459
1409526545207,1.2425907,9.782708,1.484405,1.4153461,9.581902,1.5343943
1409526545220,1.2797008,9.655815,1.4975731,1.412184,9.581981,1.5368056
1409526545235,1.3700819,9.537302,1.6017209,1.4098765,9.5821085,1.5381346
1409526545236,1.4383167,9.478046,1.70946,1.4089067,9.581838,1.5407052
1409526545237,1.4598645,9.555858,1.745373,1.4087201,9.581206,1.5447904
1409526545242,1.412579,9.792285,1.7196354,1.4087099,9.580475,1.5493342
1409526545263,1.3730747,9.811439,1.6364368,1.4074806,9.580128,1.5525913
1409526545264,1.2689269,9.71986,1.6023195,1.404776,9.5801935,1.5546407
1409526545273,1.2240356,9.624092,1.5975311,1.399285,9.580664,1.5566835
1409526545300,1.2324153,9.58818,1.5915456,1.3926661,9.58113,1.5597461
1409526545302,1.2216414,9.595961,1.5616181,1.3858523,9.581135,1.5657705
1409526545304,1.1845313,9.651626,1.5460558,1.3799384,9.580917,1.5723165
1409526545333,1.1354501,9.7162695,1.5005659,1.3750273,9.580716,1.5778365
1409526545334,1.1522095,9.816227,1.4862007,1.3705446,9.580552,1.5827228
1409526545336,1.2791022,9.801862,1.4748282,1.3661691,9.580356,1.587688
1409526545342,1.7226281,9.457097,1.4814123,1.3625436,9.580161,1.5919735
1409526545367,1.8004397,9.343372,1.7896658,1.3625454,9.579497,1.5959647
1409526545369,1.3994108,9.606734,1.894412,1.3628587,9.578271,1.6030443
1409526545374,1.3910311,9.632472,1.7136499,1.3594774,9.57753,1.6103188
1409526545407,1.4095862,9.664794,1.6711528,1.3559278,9.577716,1.6122079
1409526545408,1.417966,9.56304,1.6597804,1.3517537,9.578248,1.6125551
1409526545410,1.4981717,9.5385,1.6256629,1.3475083,9.578713,1.6133436
1409526545430,1.5825673,9.500193,1.6089035,1.3442715,9.578739,1.6158808
1409526545431,1.5580268,9.561244,1.6005238,1.3423927,9.578616,1.61817
1409526545436,1.42455,9.627085,1.5514427,1.3407769,9.578626,1.6194514
1409526545443,1.3706805,9.67018,1.5382746,1.3377812,9.578961,1.6199479
1409526545477,1.3144168,9.67018,1.4885949,1.3338201,9.579506,1.6199878
1409526545480,1.2467805,9.634866,1.4622587,1.3294878,9.580256,1.6191213
1409526545483,1.1773487,9.607333,1.4269443,1.3250464,9.58097,1.6185361
1409526545514,1.1737574,9.603742,1.4371196,1.3202996,9.581676,1.6182398
1409526545515,1.1761516,9.583989,1.4508862,1.3153993,9.582367,1.6181352
1409526545517,1.2324153,9.531317,1.501763,1.3105329,9.58304,1.6180903
1409526545518,1.3066356,9.491813,1.54845,1.3066739,9.583542,1.6182481
1409526545522,1.3808558,9.412206,1.5717934,1.3038969,9.584005,1.6177378
1409526545544,1.4610616,9.390059,1.5897499,1.302593,9.584462,1.6160923
1409526545545,1.5233108,9.485827,1.590947,1.3036541,9.584773,1.6133755
1409526545559,1.5029601,9.582792,1.5903485,1.3071388,9.584893,1.6098481
1409526545562,1.4407109,9.634866,1.5693992,1.311984,9.58496,1.6055071
1409526545580,1.377863,9.615712,1.5622166,1.3173031,9.58503,1.6007257
1409526545582,1.3856442,9.601347,1.5664065,1.3219548,9.585114,1.5963737
1409526545594,1.376666,9.607931,1.6041151,1.3254381,9.585399,1.5917741
1409526545610,1.4329298,9.587581,1.5741876,1.3281136,9.585807,1.587082
1409526545639,1.7046716,9.309854,1.5215151,1.3298577,9.586612,1.5807421
1409526545642,1.328782,9.163208,2.3948002,1.3326848,9.58751,1.5728966
1409526545644,0.5327099,11.837532,1.8327614,1.3301604,9.587746,1.5735886
1409526545646,0.6961141,11.435306,0.7589619,1.3034115,9.591982,1.5701504
1409526545670,0.7835025,11.077971,0.7410054,1.2603698,9.599944,1.5565821
1409526545671,0.9540894,10.261548,1.2132617,1.2262223,9.608573,1.5303898
1409526545675,1.1270704,9.598354,1.6723499,1.2264016,9.612724,1.5039605
1409526545700,1.18094,9.194333,1.8076223,1.246419,9.611602,1.494643
1409526545702,1.2078748,9.029133,1.8441339,1.2638271,9.608438,1.5003527
1409526545703,1.2437878,9.011177,1.8788497,1.271467,9.606016,1.5093776
1409526545735,1.2300211,9.152434,1.8956091,1.2750307,9.6039915,1.5192238
1409526545736,1.0720038,9.661801,1.8986019,1.2725421,9.603313,1.52558
1409526545737,1.210269,9.832987,1.5849615,1.2651106,9.604236,1.5259541
1409526545742,1.2611457,9.767146,1.5658079,1.2571795,9.606293,1.5195383
1409526545761,1.0833763,9.7402115,1.5939398,1.2480314,9.608656,1.5121262
1409526545763,1.0737995,9.338584,1.5334862,1.2340102,9.611169,1.5076648
1409526545774,1.0696096,9.198523,1.714847,1.218623,9.613389,1.5060194
1409526545794,1.0528502,9.218874,1.7549498,1.2031691,9.615312,1.5061758
1409526545796,0.9900024,9.466674,1.7405846,1.188494,9.617191,1.505826
1409526545802,1.1180922,10.038888,1.5406688,1.1762171,9.61943,1.5011505
1409526545839,1.2856863,9.98442,1.4077905,1.1657275,9.622337,1.4906734
1409526545842,1.4610616,10.044274,1.5424645,1.15593,9.626421,1.4718195
1409526545844,1.4496891,9.711481,1.520318,1.1488155,9.630182,1.4526523
1409526545845,1.4688427,9.749788,1.5400703,1.1474468,9.63155,1.4446486
1409526545869,1.4287399,9.589975,1.5676036,1.1493345,9.631202,1.4454651
1409526545869,1.3970166,9.451111,1.5969325,1.1505271,9.63052,1.4490516
1409526545874,1.4059949,9.466674,1.6681601,1.1492493,9.62953,1.4566199
1409526545894,1.3754689,9.610924,1.6807296,1.1455226,9.628513,1.4662611
1409526545895,1.2970588,9.814431,1.726818,1.1410129,9.628052,1.472781
1409526545902,1.2808979,10.031705,1.6292542,1.136326,9.628417,1.4740198
1409526545926,1.2569559,10.015544,1.5233108,1.1309017,9.629881,1.4686248
1409526545927,1.1755531,9.801263,1.4526819,1.1247177,9.631878,1.4602562
1409526545939,1.0809821,9.896433,1.4167689,1.1157359,9.634599,1.4491472
1409526545942,0.95708215,9.986814,1.3802572,1.103089,9.638053,1.4357953
1409526545958,0.8936358,9.887454,1.4526819,1.0882009,9.641746,1.4223056
1409526545972,0.9235633,9.887454,1.4437037,1.0721533,9.644612,1.4150321
1409526545976,0.9487024,9.969456,1.4197617,1.0552117,9.646494,1.4149452
1409526545995,0.9331401,10.234015,1.3557167,1.0373694,9.648048,1.4175423
1409526545996,0.78170687,10.245986,1.1851299,1.0187212,9.649649,1.42017
1409526546002,0.7978677,9.848549,1.0570401,0.99593294,9.651153,1.4260944
1409526546025,0.78170687,9.553463,1.0666169,0.96951514,9.652028,1.4383348
1409526546026,0.7990648,9.791088,1.1719618,0.94108486,9.652673,1.4528029
1409526546049,0.93732995,9.547478,1.2545617,0.9129896,9.653603,1.464522
1409526546050,0.85173726,9.917382,1.3982137,0.8910286,9.654574,1.4716146
1409526546055,0.75956047,9.731233,1.4101849,0.87575996,9.654934,1.4784113
1409526546080,0.82480246,9.758167,1.3964181,0.8639739,9.654384,1.4888965
1409526546082,0.8038532,9.812037,1.3485341,0.8549419,9.652737,1.5047109
1409526546083,0.8583213,9.691729,1.3425486,0.84736574,9.649968,1.5265859
1409526546116,0.97264445,9.771336,1.3856442,0.8419469,9.646567,1.550882
1409526546117,0.88046765,10.484209,1.4065934,0.8387867,9.6429,1.5752177
1409526546119,0.9295488,10.38904,1.4514848,0.83524626,9.63963,1.5969595
1409526546123,0.94810385,10.325593,1.4682442,0.8316788,9.636879,1.6153233
1409526546146,0.90620536,10.6398325,1.4999673,0.8274347,9.634388,1.6322751
1409526546147,0.7224504,10.140641,1.46585,0.81871635,9.632821,1.6458515
1409526546156,0.57041854,9.481039,1.3455414,0.8003043,9.632852,1.6547121
1409526546182,0.42796355,8.8567505,1.2551602,0.7722217,9.634713,1.6572253
1409526546184,0.30705637,8.468291,1.2360066,0.73650396,9.638112,1.6537064
1409526546185,0.5374983,8.830415,1.3718776,0.69886863,9.642265,1.6458032
1409526546218,0.5482722,9.175778,1.3748703,0.6666692,9.64615,1.6363828
1409526546219,0.63087213,9.405622,1.3138182,0.63922197,9.650076,1.6241422
1409526546220,0.7433996,9.169792,1.3521254,0.61479694,9.654717,1.6058829
1409526546223,0.87328506,9.17099,1.4251486,0.5927693,9.659695,1.584081
1409526546238,0.9235633,9.356541,1.4688427,0.5733435,9.664681,1.5606403
1409526546244,0.93254155,9.598953,1.5753847,0.5558027,9.669646,1.536034
1409526546263,0.8367735,9.7863,1.7723078,0.5406984,9.674678,1.5095141
1409526546266,0.82240826,10.165182,1.7621324,0.52550745,9.679261,1.485305
1409526546275,0.9127894,10.392631,1.6376339,0.5079391,9.683347,1.4646497
1409526546297,1.353921,11.130644,1.3850456,0.48565024,9.6872635,1.4461867
1409526546299,1.3012487,11.392809,1.2838906,0.45851418,9.69165,1.425508
1409526546303,1.002572,11.106103,1.292869,0.4215504,9.69716,1.3992152
1409526546329,0.98700964,11.687894,1.2144588,0.37007153,9.70358,1.3689378
1409526546330,0.6997054,11.37186,1.3533225,0.3048136,9.710332,1.3367554
1409526546337,0.6242881,10.047267,1.536479,0.22308497,9.71627,1.3094738
1409526546368,0.45130703,8.723274,1.2282255,0.11778431,9.721159,1.286695
1409526546369,0.25977087,8.628104,1.0402806,6.442162E-4,9.724995,1.262889
1409526546369,0.3405752,9.364322,1.0588357,-0.123654515,9.727219,1.2394729
1409526546375,0.061650693,10.807426,1.54845,-0.22984439,9.727676,1.2206024
1409526546393,0.022744916,10.707469,1.3928268,-0.31373078,9.726098,1.2144841
1409526546399,-0.10354923,9.929353,1.2114661,-0.38700333,9.723006,1.218103
1409526546405,-0.20829555,9.193734,0.9708488,-0.46745425,9.718313,1.2273058
1409526546442,-0.439336,8.718486,0.87089086,-0.5548974,9.712851,1.2341046
1409526546445,-0.42317516,8.7849245,0.9768343,-0.6396727,9.707449,1.235579
1409526546447,-0.5021838,9.063849,1.18094,-0.7064902,9.702705,1.2364361
1409526546487,-0.46746787,9.800665,1.3736732,-0.74961346,9.698753,1.2420391
1409526546489,-0.50397944,10.146626,1.5580268,-0.77981883,9.695136,1.2516485
1409526546491,-0.44951138,9.958682,1.6274586,-0.7903907,9.691998,1.2691885
1409526546494,-0.56922144,9.562442,1.5664065,-0.7869977,9.689193,1.2925056
1409526546495,-0.6811504,9.251195,1.4562732,-0.7763408,9.686759,1.3169684
1409526546513,-0.82240826,9.171588,1.417966,-0.7557546,9.685657,1.3368958
1409526546519,-0.973243,9.233837,1.4119805,-0.7219566,9.686462,1.3496833
1409526546520,-1.0594343,9.214086,1.2467805,-0.6756301,9.688861,1.3564309
1409526546524,-1.0654198,9.2547865,1.2024878,-0.6206654,9.692715,1.355166
1409526546557,-0.95827925,9.882068,1.2862848,-0.55828947,9.6978655,1.3454069
1409526546561,-0.92775315,10.222044,1.1234791,-0.48223594,9.704299,1.3283148
1409526546563,-0.8631097,9.968259,0.7990648,-0.39128926,9.711677,1.3040693
1409526546589,-0.54527944,9.569624,0.57999533,-0.29344836,9.718921,1.275483
1409526546591,-0.736217,10.056845,0.47165772,-0.18330242,9.725897,1.242471
1409526546594,-0.5686229,10.1161,0.3286042,-0.079998635,9.731494,1.2091488
1409526546620,-0.39923313,10.314221,0.47285482,0.007265114,9.7348995,1.184085
1409526546622,-0.18375498,9.968259,0.4985925,0.079415046,9.736089,1.1716007
1409526546623,-0.30166942,9.689334,0.75237787,0.1385155,9.735634,1.1698918
1409526546624,-0.27593175,9.812037,0.8858546,0.17884634,9.733618,1.1811345
1409526546647,-0.39863458,10.059238,1.447295,0.19940856,9.730483,1.2034642
1409526546648,-0.33997664,9.202713,1.3443443,0.20181584,9.72609,1.2380701
1409526546655,-0.17357962,9.522937,1.4437037,0.19133693,9.721388,1.2760847
1409526546677,-0.078410104,10.0664215,1.6334441,0.16987622,9.7167635,1.3137852
1409526546678,0.05566519,9.989208,1.4173675,0.14329983,9.712478,1.3482085
1409526546683,0.11133038,9.58818,1.1988965,0.10397072,9.709087,1.3759463
1409526546716,0.15801731,9.276335,1.0390835,0.04678883,9.706607,1.3964117
1409526546717,0.011372458,8.932168,1.0666169,-0.028071783,9.704537,1.4112296
1409526546718,0.034117375,9.510367,1.1073183,-0.112827085,9.702291,1.4224035
1409526546723,0.05626374,9.556456,1.3120226,-0.19643722,9.699704,1.4309167
1409526546742,0.17597382,9.113529,1.246182,-0.27431795,9.696141,1.4422125
1409526546759,0.31004912,9.28232,1.1869255,-0.34401327,9.692055,1.4546944
1409526546761,0.10354923,9.285912,1.6328455,-0.39616567,9.688733,1.4635245
1409526546763,0.0676362,9.412206,1.8249803,-0.42816848,9.686151,1.471582
1409526546776,0.02932897,9.392453,1.917157,-0.44974887,9.683827,1.4804037
1409526546795,-0.035913024,9.551667,1.927931,-0.45499238,9.68182,1.4918883
1409526546797,-0.21188685,9.60853,1.8938135,-0.45114964,9.679921,1.5053228
1409526546803,-0.44651863,9.485827,1.8746599,-0.44834808,9.678331,1.5163456
1409526546827,-0.58538234,9.272144,1.8405426,-0.44523737,9.67734,1.523568
1409526546828,-0.6218939,9.039907,1.797447,-0.4448243,9.676382,1.5297586
1409526546835,-0.6877344,8.992621,1.775899,-0.4462414,9.675241,1.5365402
1409526546863,-0.7751228,9.036914,1.7226281,-0.44875547,9.674112,1.5429065
1409526546865,-0.82240826,9.009979,1.697489,-0.4526284,9.673344,1.5465928
1409526546867,-0.89902276,8.926781,1.7010803,-0.4583491,9.673116,1.5463367
1409526546898,-0.93732995,8.92738,1.6753427,-0.4663944,9.67359,1.5409504
1409526546900,-0.93254155,8.953716,1.6424223,-0.4749659,9.674488,1.5326726
1409526546902,-0.89543146,9.167996,1.5179238,-0.48406896,9.676292,1.5183582
1409526546904,-0.84096336,9.287707,1.417966,-0.49158475,9.679173,1.4974414
1409526546945,-0.76315176,9.213487,1.3754689,-0.49598786,9.682701,1.4729874
1409526546947,-0.6697779,9.388862,1.4544775,-0.49493572,9.686461,1.4484137
1409526546949,-0.70509243,9.807249,1.460463,-0.48595825,9.690339,1.4253299
1409526546951,-0.8774749,9.889849,1.4909891,-0.4701477,9.694315,1.4034176
1409526546956,-0.717662,10.195708,1.869273,-0.45283777,9.697757,1.3852282
1409526546978,-0.6691794,10.328587,1.7717092,-0.4347818,9.699331,1.3799671
1409526546979,-0.50278234,10.477625,1.5460558,-0.41924903,9.699335,1.3847489
1409526546983,-0.49440265,10.287885,1.4263457,-0.40640765,9.699216,1.3893957
1409526547013,-0.43754035,10.260351,1.0313023,-0.39563668,9.699157,1.3929148
1409526547016,-0.073621705,10.493786,0.75716627,-0.38672462,9.699528,1.3928332
1409526547017,-0.38965634,10.174759,1.4227544,-0.37502962,9.700388,1.3900409
1409526547024,-0.3573346,10.015544,1.5310919,-0.36428997,9.699867,1.3965096
1409526547044,-0.17657238,10.086772,1.702876,-0.35373095,9.699048,1.404899
1409526547045,-0.12090719,9.958682,1.9596541,-0.34173518,9.698376,1.4124948
1409526547059,-0.50278234,9.481637,1.6178818,-0.32918346,9.697435,1.4218863
1409526547079,-0.38965634,9.72824,1.614889,-0.32328978,9.697392,1.4235401
1409526547080,-0.4297592,9.609129,1.903989,-0.3196058,9.698191,1.4189156
1409526547084,-0.50757074,9.440936,1.9955671,-0.31541133,9.698008,1.4211164
1409526547115,-0.50397944,9.451111,1.9219455,-0.31178382,9.697104,1.4280523
1409526547117,-0.44771573,9.595362,1.7872716,-0.3081983,9.695806,1.4376199
1409526547118,-0.40940848,9.727641,1.6861166,-0.3044465,9.695118,1.4430517
1409526547126,-0.47285482,9.870096,1.654992,-0.30124477,9.695013,1.444419
1409526547150,-0.34715924,9.737218,1.6561891,-0.29887533,9.69508,1.4444666
1409526547151,-0.3890578,9.706094,1.7447745,-0.29532117,9.69509,1.4451333
1409526547156,-0.43155485,9.618107,1.8130093,-0.29233286,9.694696,1.4483739
1409526547179,-0.53689975,9.518747,1.965041,-0.28966245,9.693977,1.4537191
1409526547180,-0.66498953,9.491214,2.0907366,-0.28810987,9.693006,1.460482
1409526547184,-0.7769185,9.456498,2.1110873,-0.28815088,9.691842,1.4681764
1409526547213,-0.85473,9.412804,2.1296425,-0.28961346,9.690758,1.4750373
1409526547215,-0.86370826,9.349358,2.0925324,-0.29185426,9.689612,1.4821078
1409526547217,-0.83138657,9.306861,2.030283,-0.29456857,9.6888485,1.4865493
1409526547224,-0.842759,9.266758,1.9955671,-0.2969426,9.688633,1.4874836
1409526547248,-0.8062474,9.348161,2.0338743,-0.29970238,9.688888,1.485272
1409526547249,-0.75357497,9.415796,2.0913353,-0.30222178,9.689553,1.4804088
1409526547255,-0.6823475,9.46009,2.0913353,-0.30428523,9.690465,1.4740067
1409526547286,-0.6039374,9.540894,2.0751743,-0.30548918,9.691559,1.4665482
1409526547288,-0.65421563,9.375694,2.0548236,-0.30609658,9.692854,1.457822
1409526547292,-0.37349546,9.824607,2.11827,-0.30656663,9.694301,1.4480834
1409526547321,-0.4165911,9.634866,2.1871033,-0.3020395,9.6959,1.4383043
1409526547322,-0.3250129,9.59177,2.2379801,-0.29669794,9.697348,1.4296145
1409526547325,-0.12808979,9.634866,2.4468741,-0.29040706,9.698556,1.4226897
1409526547326,-0.04070143,9.667188,2.4349031,-0.282255,9.699366,1.4188066
1409526547346,0.026934769,9.710882,2.273893,-0.27215806,9.700082,1.4158847
1409526547347,0.026934769,9.634268,2.2786815,-0.26069933,9.700993,1.4117992
1409526547355,0.018555064,9.505579,2.1003134,-0.24909434,9.702126,1.4060906
1409526547376,5.985504E-4,9.512762,1.7711107,-0.2376367,9.703544,1.3982731
1409526547377,-0.05327099,9.458294,1.2814964,-0.2266798,9.705353,1.3874907
1409526547383,-0.14185645,9.400234,1.115698,-0.21732953,9.708137,1.369397
1409526547406,-0.17417817,9.377489,1.389834,-0.21009745,9.711457,1.3467956
1409526547408,-0.08559271,9.518747,1.553837,-0.20424296,9.714519,1.3254445
1409526547429,0.142455,9.807847,1.3162124,-0.19765759,9.717396,1.3052024
1409526547430,0.29448682,10.063428,0.7625532,-0.19024792,9.720832,1.2804819
1409526547436,0.15502456,10.06283,0.42078096,-0.18429717,9.725317,1.2468457
1409526547478,-0.051475335,9.911995,0.19931729,-0.18340923,9.730319,1.2073288
1409526547479,-0.18734628,9.844358,0.108936176,-0.1865578,9.735353,1.1655445
1409526547481,-0.2124854,9.812635,0.09756372,-0.19233333,9.740332,1.122213
1409526547482,-0.18854338,9.825804,0.074220255,-0.19950792,9.745189,1.077901
1409526547485,-0.16160862,9.859323,0.04309563,-0.20741796,9.749871,1.0331328
1409526547513,-0.15502456,9.852738,-0.002992752,-0.21597818,9.754298,0.98864
1409526547514,-0.15981296,9.8042555,-0.094570965,-0.2237834,9.758315,0.9463612
1409526547516,-0.0664391,9.825804,-0.061052144,-0.22937706,9.76198,0.90640056
1409526547552,-0.109534726,9.800066,-0.18016368,-0.23323984,9.765395,0.8677846
1409526547553,0.074220255,9.969456,-0.17657238,-0.23534936,9.76867,0.82951045
1409526547554,0.11552023,10.014347,-0.2705448,-0.23403205,9.771818,0.7919644
1409526547558,0.1328782,10.114903,-0.3184288,-0.23021114,9.77482,0.75514984
1409526547585,0.074220255,10.1939125,-0.3513491,-0.22360972,9.777755,0.7182713
1409526547586,-0.05746084,10.247183,-0.2789245,-0.21544032,9.780591,0.68119663
1409526547592,-0.18794483,10.282497,-0.20530279,-0.20683017,9.78323,0.64501417
1409526547619,-0.2657564,10.334572,-0.17357962,-0.19857444,9.785649,0.6099372
1409526547620,-0.30286652,10.392033,-0.2208651,-0.19071223,9.78786,0.5760422
1409526547621,-0.24600422,10.43872,-0.30107087,-0.18377109,9.789877,0.5430886
1409526547647,-0.17477672,10.396821,-0.2741361,-0.17719942,9.791768,0.5101583
1409526547651,-0.11552023,10.370484,-0.26874915,-0.17010303,9.793466,0.47905147
1409526547652,0.019752163,10.353127,-0.14903906,-0.16246335,9.794983,0.4498116
1409526547656,0.077213004,10.337564,-0.11372458,-0.1542899,9.796257,0.4242114
1409526547679,0.13108255,10.358514,-0.10354923,-0.1467748,9.797267,0.40297192
1409526547680,0.10534488,10.333375,0.011372458,-0.13996229,9.798048,0.38611794
1409526547685,0.08080431,10.332776,0.15682021,-0.13514452,9.798507,0.3760053
1409526547718,-0.035913024,10.21965,0.2621651,-0.13284403,9.798646,0.37323278
1409526547719,-0.010773907,10.153211,0.28431144,-0.13430423,9.798494,0.3766585
1409526547720,0.04309563,10.084976,0.25498247,-0.13791806,9.798113,0.3851648
1409526547739,0.073023155,9.989208,0.39564183,-0.1430012,9.797556,0.3972913
1409526547740,0.15861586,9.901819,0.55006784,-0.14887118,9.796855,0.41213834
1409526547744,0.27712885,9.844358,0.59376204,-0.15575276,9.795957,0.4305394
1409526547756,0.36990416,9.784504,0.6548142,-0.16259384,9.794953,0.45041424
1409526547776,0.3309984,9.715072,0.641646,-0.16909908,9.793883,0.47075918
1409526547778,0.30945057,9.638457,0.63087213,-0.17584917,9.792747,0.49150357
1409526547784,0.30226797,9.594165,0.6410475,-0.18234491,9.7914715,0.51404774
1409526547813,0.2741361,9.536105,0.52133745,-0.18883234,9.790033,0.5385082
1409526547814,0.2669535,9.549872,0.36511576,-0.19495864,9.788513,0.5633484
1409526547819,0.21188685,9.60853,0.2208651,-0.20044258,9.787019,0.5869277
1409526547840,0.219668,9.73662,0.13227965,-0.20590724,9.785604,0.6082638
1409526547841,0.2621651,9.821015,0.10654198,-0.2109494,9.784305,0.6271202
1409526547844,0.31064767,9.8754835,0.076614454,-0.2158159,9.783077,0.64438146
1409526547856,0.33997664,9.918579,0.092176765,-0.21985985,9.78209,0.65786886
1409526547882,0.23403321,9.904214,0.08140286,-0.22276998,9.78138,0.6673744
1409526547885,0.005985504,9.849147,0.074818805,-0.22578709,9.780922,0.67305154
1409526547886,-0.57281274,9.8683,0.25737667,-0.23012018,9.780656,0.6754254
1409526547920,-0.80564886,9.974843,0.3477578,-0.23861071,9.780299,0.6776491
1409526547920,-0.98820674,10.01315,0.3465607,-0.24814902,9.779955,0.6791741
1409526547921,-1.0995371,9.959281,0.27114335,-0.2586904,9.779629,0.67995775
1409526547941,-1.1695676,9.852738,0.29269117,-0.26956934,9.779236,0.681369
1409526547943,-1.2395979,9.734824,0.34715924,-0.28097394,9.778706,0.68437356
1409526547945,-1.2982559,9.636662,0.3854665,-0.29287943,9.778087,0.68821084
1409526547973,-1.2886791,9.5971575,0.44711718,-0.3048237,9.777341,0.6936102
1409526547974,-1.3078327,9.598953,0.52971715,-0.31565264,9.776448,0.701282
1409526547977,-1.0468647,9.742006,0.74519527,-0.32555488,9.775398,0.71133655
1409526547984,-1.1384429,9.7402115,0.89603,-0.33256567,9.774159,0.72496104
1409526548005,-1.0079589,9.835979,0.98341835,-0.33833742,9.77275,0.7411328
1409526548006,-1.0714053,9.7479925,1.0636241,-0.34068874,9.771281,0.75921714
1409526548016,-1.1713632,9.586982,1.0935516,-0.34056804,9.769656,0.7798898
1409526548040,-0.96426475,9.637859,1.1408371,-0.33854014,9.76791,0.80231124
1409526548041,-1.1019313,9.534908,1.0648212,-0.33247685,9.766373,0.82331437
1409526548045,-1.1216835,9.52593,1.0360907,-0.32550794,9.765232,0.83945024
1409526548073,-1.0648212,9.594764,0.9648633,-0.31853083,9.764291,0.8529619
1409526548074,-0.8595184,9.709685,0.83497787,-0.31123912,9.763768,0.8615996
1409526548077,-0.4261679,9.815628,0.8367735,-0.3037356,9.763791,0.8640172
1409526548085,-0.21308395,9.812037,0.8062474,-0.29517812,9.764294,0.86130434
1409526548125,-0.065242,9.813833,0.79367787,-0.28824067,9.765078,0.8547549
1409526548127,0.08499416,9.841965,0.8230068,-0.2840134,9.765955,0.8460899
1409526548130,0.14784196,9.846154,0.9056068,-0.28190958,9.766809,0.83687544
1409526548132,0.17717093,9.815628,1.0079589,-0.28173777,9.767513,0.8286651
1409526548139,0.21308395,9.764751,1.0911574,-0.28293163,9.767888,0.82384366
1409526548168,0.31364042,9.751583,1.198298,-0.28501004,9.767767,0.82456
1409526548169,0.44831428,9.774927,1.2360066,-0.28727505,9.767163,0.8308725
1409526548171,0.52971715,9.82341,1.271321,-0.28893444,9.766392,0.83936226
1409526548194,0.6548142,9.842564,1.2425907,-0.29029298,9.765244,0.8521275
1409526548196,0.6793547,9.817424,1.1941081,-0.2913858,9.763797,0.86820644
1409526548197,0.58418524,9.777321,1.0271125,-0.29351476,9.76211,0.88625425
1409526548215,0.46567222,9.75697,0.90620536,-0.29797012,9.760336,0.90413994
1409526548254,0.3513491,9.750386,0.9828198,-0.30425203,9.758564,0.9210124
1409526548255,0.24241292,9.747394,1.0911574,-0.31093204,9.756661,0.9387585
1409526548257,0.14963761,9.764751,1.1839328,-0.3171117,9.754548,0.95846796
1409526548258,-0.008978256,9.772532,1.2372037,-0.3220204,9.752244,0.980003
1409526548276,-0.20410569,9.782708,1.2509704,-0.3252176,9.749885,1.0021996
1409526548277,-0.54767364,9.758766,1.3545196,-0.32705802,9.747548,1.0240854
1409526548278,-0.7152678,9.694721,1.4275428,-0.33035564,9.74511,1.0460023
1409526548285,-0.7625532,9.578603,1.4101849,-0.33193728,9.742676,1.0679356
1409526548305,-0.7433996,9.510367,1.389834,-0.3311974,9.740373,1.088965
1409526548306,-0.66618663,9.486425,1.3503298,-0.32680762,9.738297,1.1086633
1409526548319,-0.5291186,9.490616,1.2348095,-0.31843284,9.736507,1.1266838
1409526548346,-0.40222588,9.512163,1.1085154,-0.3065757,9.73492,1.1435667
1409526548347,-0.38726214,9.53012,1.0845734,-0.29208758,9.733727,1.1574268
1409526548348,-0.38606504,9.610326,1.1139023,-0.27701092,9.732925,1.1678263
1409526548376,-0.41000703,9.693524,1.1300632,-0.2619903,9.732363,1.1759628
1409526548377,-0.28431144,9.83957,1.1569979,-0.24798304,9.73202,1.1818123
1409526548378,-0.4985925,9.822212,1.228824,-0.23308691,9.7318125,1.1865423
1409526548385,-0.5554548,9.921572,1.1959038,-0.22167197,9.731799,1.1888311
1409526548414,-0.5327099,9.941324,1.1815386,-0.21323468,9.732268,1.186548
1409526548417,-0.5201403,9.989208,1.1504139,-0.20684731,9.733117,1.1807067
1409526548418,-0.43514615,10.060435,1.1133038,-0.20183545,9.734215,1.172483
1409526548437,-0.2789245,10.07121,1.0965444,-0.19828154,9.735516,1.1622458
1409526548438,-0.046686932,10.073005,1.1821371,-0.19535401,9.736854,1.1514868
1409526548445,0.09995792,10.009559,1.2479776,-0.19266532,9.73808,1.1415184
1409526548480,-0.0796072,9.751583,1.073201,-0.19212338,9.739052,1.1332871
1409526548482,-0.1933318,9.599552,1.0809821,-0.19692157,9.739852,1.1255757
1409526548483,-0.31304187,9.484032,1.1659763,-0.2062205,9.740279,1.1201862
1409526548486,-0.45848963,9.401431,1.3275849,-0.21857423,9.740363,1.1171111
1409526548518,-0.5847838,9.3499565,1.4143747,-0.23467673,9.739842,1.1183878
1409526548519,-0.65541273,9.354745,1.3928268,-0.25336617,9.739053,1.1211779
1409526548520,-0.6332663,9.379285,1.3180081,-0.2729862,9.738343,1.1227494
1409526548545,-0.5482722,9.416994,1.2270284,-0.29187363,9.737904,1.1217996
1409526548546,-0.46806642,9.481039,1.1695676,-0.3090329,9.737805,1.118048
1409526548548,-0.40521863,9.618107,1.1174936,-0.3245197,9.737984,1.1120943
1409526548577,-0.3573346,9.7719345,1.0139444,-0.33717102,9.738525,1.1035453
1409526548578,-0.33997664,9.934141,0.93014735,-0.34669462,9.739461,1.0922868
1409526548579,-0.35793316,10.073604,0.85891986,-0.35400862,9.7406225,1.0795064
1409526548585,-0.30825347,10.192716,0.8738836,-0.3596896,9.741871,1.0662966
1409526548611,-0.22625206,10.196905,1.06123,-0.36383757,9.743017,1.0543544
1409526548613,-0.12808979,10.059238,1.2156559,-0.36542755,9.743884,1.0457435
1409526548617,-0.025737667,9.947908,1.2743138,-0.36509737,9.744461,1.040484
1409526548640,5.985504E-4,9.884461,1.2689269,-0.3635629,9.744907,1.036811
1409526548642,-0.017956512,9.843162,1.1186907,-0.36209437,9.745339,1.0332563
1409526548645,-0.10534488,9.809643,1.1043255,-0.3615348,9.74585,1.0286343
1409526548674,-0.12988544,9.81084,1.0690111,-0.3625966,9.746184,1.0251032
1409526548676,-0.10235212,9.829993,1.0749966,-0.36478996,9.746445,1.0218273
1409526548678,-0.17896658,9.83957,1.0085574,-0.36726785,9.746674,1.0187441
1409526548685,-0.19812019,9.841366,0.90500826,-0.37079734,9.74683,1.0159658
1409526548701,-0.23104046,9.77792,0.89782566,-0.37469742,9.747001,1.0129007
1409526548719,-0.3369839,9.692925,0.89902276,-0.378975,9.74709,1.0104473
1409526548721,-0.41599256,9.632472,0.99898064,-0.38425735,9.747149,1.0078887
1409526548737,-0.49200845,9.596559,1.1300632,-0.3904604,9.747019,1.0067552
1409526548738,-0.5626374,9.511565,1.3628993,-0.39709958,9.7466545,1.0077085
1409526548745,-0.59974754,9.509769,1.4155718,-0.40373343,9.745936,1.0119969
1409526548771,-0.587178,9.615114,1.3210008,-0.40974832,9.745111,1.0175078
1409526548773,-0.53929394,9.682152,1.2617443,-0.41460803,9.744507,1.0213175
1409526548777,-0.50038815,9.726444,1.1779473,-0.4187478,9.744097,1.0235236
1409526548786,-0.4345476,9.797672,1.1498153,-0.42273107,9.743828,1.0244623
1409526548817,-0.39803603,9.853935,1.0959458,-0.42631292,9.743675,1.0244205
1409526548818,-0.41599256,9.861717,1.0708067,-0.42964348,9.743606,1.023691
1409526548821,-0.48602295,9.887454,1.0408791,-0.4333505,9.743574,1.0224317
1409526548863,-0.62368953,9.891046,0.9504981,-0.43754533,9.74362,1.0201962
1409526548864,-0.6536171,9.865907,1.003769,-0.4429652,9.743606,1.0180129
1409526548867,-0.6793547,9.846753,1.0881647,-0.44832656,9.743352,1.0180923
1409526548868,-0.6691794,9.814431,1.1378443,-0.45334762,9.742835,1.0207863
1409526548871,-0.6787562,9.838972,1.1719618,-0.45775524,9.742279,1.0241491
1409526548887,-0.7038953,9.834184,1.1061212,-0.46099877,9.741817,1.0270776
1409526548888,-0.6865373,9.82341,1.0809821,-0.46360075,9.741437,1.0295069
1409526548897,-0.6500258,9.820416,1.0079589,-0.46541113,9.741153,1.0313833
1409526548927,-0.6123171,9.770737,0.997185,-0.46635017,9.74098,1.0325882
1409526548929,-0.58897364,9.693524,0.95947635,-0.46683225,9.740833,1.0337554
1409526548931,-0.5895722,9.609129,0.99538934,-0.46653777,9.740825,1.0339698
1409526548958,-0.59735334,9.605537,0.9247604,-0.4657956,9.7408695,1.0338851
1409526548960,-0.6326678,9.673772,0.82001406,-0.46538672,9.741034,1.0325215
1409526548961,-0.65242,9.697714,0.842759,-0.46558723,9.741365,1.029283
1409526548968,-0.64703304,9.7240505,0.91458505,-0.46677208,9.741651,1.026046
1409526548988,-0.6691794,9.783905,0.9163807,-0.4681051,9.741814,1.0238808
1409526548990,-0.64463884,9.799467,0.9187749,-0.46957362,9.741964,1.0217701
1409526548998,-0.6183026,9.8042555,0.93373865,-0.47111806,9.742123,1.0195558
1409526549044,-0.5823896,9.793482,0.9008184,-0.47236568,9.742249,1.0177734
1409526549047,-0.55365914,9.786898,0.8439561,-0.47367325,9.742388,1.0158286
1409526549049,-0.53450555,9.76535,0.81522566,-0.47378352,9.742644,1.0133106
1409526549051,-0.53091425,9.738416,0.8182184,-0.47540548,9.7428465,1.0106205
1409526549056,-0.49919105,9.746795,0.8230068,-0.47751433,9.743006,1.0080717
1409526549079,-0.46148238,9.773131,0.7404069,-0.4788846,9.743152,1.0060171
1409526549080,-0.38726214,9.774927,0.7954735,-0.47903296,9.743362,1.0039088
1409526549081,-0.31543607,9.762358,0.8230068,-0.47855672,9.743525,1.0025532
1409526549086,-0.28491,9.781511,0.8487445,-0.47726607,9.74363,1.0021375
1409526549101,-0.2813187,9.790489,0.8738836,-0.47583476,9.743663,1.002502
1409526549122,-0.31364042,9.7324295,0.84934306,-0.4744068,9.743786,1.0019884
1409526549124,-0.31423897,9.733028,0.83976626,-0.4736191,9.744059,0.9997012
1409526549126,-0.3196259,9.706094,0.88645315,-0.47337177,9.744361,0.9968676
1409526549157,-0.28550854,9.664195,0.9576807,-0.4735466,9.744633,0.99413383
1409526549159,-0.24361002,9.618107,1.0043676,-0.47302154,9.744848,0.99224955
1409526549160,-0.23762453,9.552865,1.0881647,-0.47220027,9.744925,0.9919096
1409526549166,-0.28550854,9.47206,1.1336545,-0.47093177,9.744808,0.99364275
1409526549194,-0.3513491,9.442133,1.1240777,-0.4696327,9.744587,0.9964327
1409526549195,-0.362123,9.487623,1.1767502,-0.46872425,9.744398,0.9986928
1409526549198,-0.34476504,9.654019,1.2641385,-0.4679648,9.744235,1.0006381
1409526549226,-0.23343466,10.092158,1.2324153,-0.46591184,9.744042,1.0034738
1409526549227,-0.18854338,10.178948,1.1558008,-0.46251658,9.743989,1.0055622
1409526549228,-0.21906945,10.203489,1.0899603,-0.4570043,9.7441435,1.0065802
1409526549252,-0.29987377,10.121488,1.0965444,-0.4518893,9.744381,1.0065976
1409526549253,-0.3453636,9.995792,1.1288661,-0.44690946,9.744531,1.0073794
1409526549257,-0.3633201,9.870096,1.1683705,-0.44263333,9.744438,1.0101365
1409526549266,-0.38606504,9.784504,1.2641385,-0.4387126,9.744189,1.0142499
1409526549297,-0.40761283,9.686341,1.2725182,-0.43573675,9.743735,1.0198727
1409526549299,-0.4309563,9.64983,1.2689269,-0.43361208,9.743162,1.0262369
1409526549300,-0.42197806,9.632472,1.2156559,-0.43194273,9.742625,1.0320268
1409526549326,-0.39025488,9.6049385,1.2198458,-0.43059605,9.742191,1.0366782
1409526549327,-0.338181,9.621698,1.2755109,-0.429337,9.741693,1.0418667
1409526549328,-0.33039984,9.679159,1.2569559,-0.42776752,9.741052,1.0484899
1409526549349,-0.31004912,9.806051,1.1887212,-0.4261242,9.740394,1.0552461
1409526549350,-0.29209262,9.844358,1.0714053,-0.42426547,9.739843,1.0610507
1409526549368,-0.31364042,9.862315,1.0109516,-0.42270443,9.739388,1.0658548
1409526549370,-0.3405752,9.844957,0.9139865,-0.4220443,9.738868,1.0708505
1409526549378,-0.3429694,9.85214,0.84335756,-0.42292833,9.738504,1.0738163
1409526549406,-0.31483752,9.863512,0.8206126,-0.42541328,9.738305,1.0746225
1409526549407,-0.30226797,9.884461,0.91578215,-0.42871135,9.738108,1.0751016
1409526549408,-0.29508537,9.85633,0.98102415,-0.4331591,9.73763,1.0776681
1409526549418,-0.32441434,9.834184,1.0295067,-0.43840817,9.736907,1.0820491
1409526549449,-0.36631286,9.786898,1.1150994,-0.44452938,9.736,1.087697
1409526549450,-0.41838676,9.68275,1.2012907,-0.45191935,9.734859,1.0948288
1409526549452,-0.5153519,9.579201,1.2521675,-0.46020615,9.733493,1.1035025
1409526549476,-0.581791,9.465476,1.2599486,-0.46954656,9.73184,1.1140974
1409526549477,-0.6254852,9.3343935,1.240795,-0.47942874,9.730221,1.1239767
1409526549479,-0.6536171,9.217078,1.2401965,-0.4895318,9.728816,1.1317551
1409526549503,-0.6919243,9.133281,1.2545617,-0.49941435,9.727659,1.1373692
1409526549504,-0.7092823,9.123106,1.2545617,-0.5090126,9.726934,1.1393183
1409526549506,-0.6745663,9.1350765,1.3030443,-0.5177128,9.726818,1.1363969
1409526549542,-0.6183026,9.172187,1.4496891,-0.52498627,9.727118,1.1304644
1409526549544,-0.5542577,9.2069025,1.5077485,-0.530652,9.727684,1.1229379
1409526549545,-0.4938041,9.242816,1.4688427,-0.53529364,9.728634,1.1124458
1409526549547,-0.41240123,9.2625675,1.4568717,-0.5393749,9.729825,1.0999931
1409526549577,-0.3669114,9.242816,1.4718355,-0.5424277,9.731422,1.0842316
1409526549578,-0.40162733,8.990826,1.5574282,-0.5444905,9.733466,1.0646788
1409526549580,-0.1400608,9.184157,1.5801731,-0.5474937,9.735781,1.0417415
1409526549613,-0.1945289,8.838794,1.4203602,-0.5481744,9.738638,1.0143018
1409526549618,-0.15981296,8.832211,1.3790601,-0.54902416,9.741988,0.98114395
1409526549619,-0.142455,8.845378,1.3497312,-0.55077475,9.745569,0.9438788
1409526549620,-0.19273324,8.805275,1.3359646,-0.5523125,9.749259,0.90405416
1409526549641,-0.29927522,8.812458,1.1145009,-0.5528253,9.753053,0.86181885
1409526549642,-0.44711718,8.931569,0.88405895,-0.55259037,9.757073,0.81519705
1409526549648,-0.44831428,9.030929,0.76315176,-0.5516467,9.761299,0.7636368
1409526549672,-0.36511576,9.264962,0.7990648,-0.54949474,9.765401,0.71092933
1409526549673,-0.23882163,9.631275,0.81163436,-0.54393417,9.769224,0.6609089
1409526549678,0.020949265,10.077793,0.81881696,-0.5346016,9.7727,0.6155521
1409526549709,0.2885013,10.539874,0.8822633,-0.51977456,9.775983,0.5747881
1409526549711,0.53450555,10.971429,1.0564415,-0.4990441,9.779091,0.5391808
1409526549712,0.74399817,11.304223,1.192911,-0.47304326,9.781876,0.51139396
1409526549748,0.7799112,11.406575,1.0809821,-0.4430652,9.784198,0.493558
1409526549749,0.7182605,11.376648,0.8631097,-0.4126655,9.78599,0.48424047
1409526549751,0.52073884,11.188105,0.635062,-0.385015,9.787257,0.4813984
1409526549753,0.22685061,10.99178,0.4782418,-0.36244622,9.7879715,0.48440444
1409526549788,-0.015562311,10.791864,0.4285621,-0.3473421,9.788092,0.492982
1409526549790,0.14903906,10.445304,-0.24420857,-0.33781314,9.78787,0.5038438
1409526549792,0.4405331,9.998785,-0.6961141,-0.3331855,9.787568,0.5127408
1409526549795,0.75596917,9.743802,-0.8355764,-0.3338863,9.787221,0.51885396
1409526549799,1.3000516,9.770139,-0.7858967,-0.34105304,9.786807,0.52201194
1409526549832,1.6938977,9.742006,-0.61890113,-0.3534894,9.786469,0.52005076
1409526549833,2.3145945,10.500969,-0.47285482,-0.37111178,9.786286,0.51111335
1409526549835,2.391209,10.58716,-0.45429978,-0.38708478,9.786589,0.49318793
1409526549852,2.3229742,10.726623,-0.31004912,-0.40521,9.787061,0.46866894
1409526549853,2.0254946,10.81461,0.079008654,-0.42683187,9.787384,0.44194695
1409526549858,1.4975731,10.740988,0.2753332,-0.4529667,9.787226,0.4188831
1409526549867,0.83258367,10.644621,0.1376666,-0.4845566,9.786546,0.3988965
1409526549885,0.049679685,10.626664,-0.09935937,-0.52198446,9.785359,0.38034067
1409526549887,-0.5279215,10.712257,-0.11492168,-0.5658728,9.783658,0.3608743
1409526549898,-1.0360907,10.733206,-0.15442601,-0.6137708,9.7814045,0.34325618
1409526549925,-1.4425066,10.4728365,-0.2220622,-0.664831,9.778574,0.32843977
1409526549927,-1.7154455,10.201095,-0.27952304,-0.71868294,9.775154,0.31660545
1409526549929,-1.7543513,9.853337,-0.29927522,-0.7749782,9.771165,0.30688906
1409526549963,-1.5693992,9.685144,-0.24660277,-0.83074224,9.766896,0.29665828
1409526549965,-1.5089456,9.232041,-0.14185645,-0.8835098,9.762704,0.28181347
1409526549968,-0.39983168,8.878299,-0.18794483,-0.93253297,9.758721,0.2609857
1409526549969,0.1604115,8.769362,-0.11671733,-0.96831936,9.755897,0.23500322
1409526549992,0.5734113,8.938752,0.045489833,-0.9976404,9.753536,0.2088798
1409526549994,1.1468226,9.048286,0.08738836,-1.0231541,9.751403,0.18357646
1409526550002,1.2886791,8.946533,0.13227965,-1.0483215,9.749089,0.1633168
1409526550033,1.127669,8.780735,0.31603462,-1.0785176,9.746014,0.14982355
1409526550035,0.89662856,8.671799,0.39803603,-1.1152732,9.741978,0.14295602
1409526550036,0.5650316,8.566454,0.38606504,-1.1565255,9.737184,0.14180294
1409526550038,0.13467385,8.512584,0.3752911,-1.1989044,9.732004,0.14538988
1409526550047,-0.14544775,8.373122,0.219668,-1.2420394,9.726476,0.15292819
1409526550062,-0.30406362,8.319851,0.07182605,-1.285601,9.720657,0.16265634
1409526550082,-0.35434186,8.4904375,-0.108936176,-1.32942,9.714599,0.17208923
1409526550083,-0.3854665,8.774151,-0.29867667,-1.3718903,9.708595,0.17747782
1409526550087,-0.37828386,9.087791,-0.4902128,-1.4130166,9.702661,0.17929266
1409526550098,-0.31244332,9.332599,-0.7194576,-1.4509146,9.69712,0.17625082
1409526550126,-0.30885202,9.579201,-0.7858967,-1.4848949,9.692131,0.16761968
1409526550127,-0.30226797,9.863512,-0.10594343,-1.5152925,9.687599,0.15713343
1409526550128,-0.31483752,10.608707,0.45789108,-1.5423727,9.6833725,0.15421964
1409526550150,-0.34237084,11.167754,0.45310268,-1.56295,9.679959,0.1612144
1409526550150,-0.20290859,11.63163,0.2088941,-1.5762957,9.677528,0.17654121
1409526550158,0.24660277,11.537658,0.45908818,-1.5819503,9.676177,0.19853707
1409526550189,0.7032967,11.371261,0.65421563,-1.5805814,9.67571,0.22978951
1409526550190,1.210269,11.375451,0.6434417,-1.5745555,9.675717,0.26772732
1409526550192,1.5292963,11.580155,0.34715924,-1.5637181,9.676335,0.30618036
1409526550200,1.7956513,11.827955,-0.036511578,-1.550289,9.677401,0.3389593
1409526550224,1.8567034,12.188282,-0.36750996,-1.5363176,9.6788225,0.36123922
1409526550225,1.8237832,12.636597,-0.5506664,-1.5242066,9.680229,0.37463528
1409526550227,2.018312,12.828133,-0.7541735,-1.5146453,9.68143,0.38230765
1409526550252,2.2942438,12.720393,-0.9475053,-1.5037011,9.683033,0.38492265
1409526550253,2.3505075,12.760496,-0.48362875,-1.4878559,9.685526,0.38377213
1409526550258,2.333748,12.712014,0.22026655,-1.4668411,9.688534,0.3886744
1409526550292,2.2307975,12.309788,1.3084313,-1.4425826,9.691539,0.4042587
1409526550294,2.2296004,11.341932,2.0667946,-1.4161695,9.69423,0.43218133
1409526550295,1.6118963,10.294469,1.9602526,-1.3864918,9.696916,0.46674892
1409526550327,0.092176765,9.654019,1.5011644,-1.3635203,9.698532,0.4996542
1409526550328,-1.9554642,9.437345,1.7776948,-1.3499912,9.698605,0.5338348
1409526550329,-2.0003555,9.379285,1.6915035,-1.3521674,9.696021,0.57378393
1409526550330,-2.6001031,8.467693,0.8888474,-1.3499844,9.69441,0.6052588
1409526550351,-2.8682537,7.6626425,-0.83856916,-1.3375486,9.696081,0.60609055
1409526550353,-2.6779146,7.6045833,-1.1168951,-1.3062284,9.702789,0.56570804
1409526550359,-2.6503813,8.013991,-1.3760674,-1.2507899,9.713455,0.5046759
1409526550394,-2.7539306,9.272743,-1.3790601,-1.1748935,9.726427,0.4320311
1409526550396,-2.861071,11.220427,-1.009156,-1.083815,9.740059,0.356328
1409526550398,-2.7299886,13.375208,-0.94570965,-0.98070717,9.75303,0.29499546
1409526550400,-2.071583,14.967352,-0.8439561,-0.86607385,9.76482,0.26194862
1409526550425,-2.373851,15.044565,-0.57161564,-0.7396089,9.775605,0.2468769
1409526550427,-3.3854012,14.390948,-0.14784196,-0.6138836,9.783895,0.26259962
1409526550428,-4.3089647,13.527838,0.676362,-0.50591326,9.78898,0.30050725
1409526550447,-4.9625816,12.148778,1.7567455,-0.41866767,9.791049,0.36119273
1409526550448,-5.6377463,10.794258,2.6036944,-0.34265462,9.790563,0.4448353
1409526550463,-5.832874,10.241198,2.8898015,-0.27711868,9.787817,0.5406076
1409526550481,-5.3767786,10.029311,2.493561,-0.21681568,9.783748,0.63378006
1409526550482,-4.271256,10.118495,1.8267759,-0.14546435,9.779846,0.7098166
1409526550500,-2.5019407,10.221446,1.3557167,-0.044992477,9.776746,0.76395804
1409526550500,-1.5891514,9.3822775,1.1540052,0.092103556,9.773309,0.8027208
1409526550508,-0.2813187,8.8777,1.0115502,0.2447798,9.767758,0.83747965
1409526550530,0.6254852,8.663419,1.0289081,0.41335014,9.7595415,0.8665318
1409526550531,2.944868,9.83957,1.1420342,0.5880193,9.748608,0.8884131
1409526550546,3.3692403,9.822212,1.0408791,0.77786046,9.733875,0.90388274
1409526550547,2.8054059,8.908226,0.85473,0.96516806,9.716038,0.91512495
1409526550562,2.3349452,8.072051,0.6488287,1.1339484,9.696584,0.9278005
1409526550584,2.0428526,7.3567834,0.53689975,1.2776719,9.676614,0.94925886
1409526550586,1.3808558,6.293758,0.6051345,1.4000909,9.656105,0.98476523
1409526550589,0.7990648,5.4324436,0.79846627,1.5050036,9.634726,1.0379956
1409526550629,0.61291564,5.0284224,1.151611,1.5934229,9.612663,1.1081991
1409526550630,0.5446809,4.754286,1.377863,1.6709749,9.589658,1.190257
1409526550632,0.4345476,4.620809,1.6460136,1.7452816,9.56544,1.2754432
1409526550633,0.2645593,4.5801077,1.8166006,1.8169287,9.540525,1.3592446
1409526550660,0.12270284,4.6800656,1.8189948,1.8833184,9.516684,1.4339684
1409526550662,0.12270284,4.9320555,1.738789,1.9438822,9.495283,1.4937522
1409526550663,0.37349546,5.4025164,1.6400281,1.9987704,9.4774275,1.5341781
1409526550683,0.7404069,5.865794,1.5406688,2.0478544,9.46351,1.555215
1409526550684,1.2150574,6.160281,1.5239093,2.0878005,9.4542265,1.5585531
1409526550688,1.7729063,6.441001,1.5310919,2.1149971,9.449702,1.549286
1409526550715,2.4121583,6.8719573,1.5616181,2.1269834,9.449322,1.5351425
1409526550717,3.0382419,7.548918,2.160767,2.1233516,9.452324,1.5216249
1409526550719,4.1024647,9.288904,2.9999347,2.1054988,9.457117,1.5166419
1409526550727,4.6884456,10.33517,3.6661212,2.087927,9.460211,1.5216271
1409526550748,4.660912,10.715848,3.8804023,2.063284,9.462562,1.540508
1409526550749,3.9223008,10.881048,3.9103298,2.0335476,9.465461,1.562094
1409526550759,2.9299042,11.083358,3.8109705,1.9969343,9.471027,1.5755364
1409526550795,0.97982705,12.430696,4.0839095,1.9535142,9.480092,1.5754429
1409526550798,-0.6967127,14.820707,3.5230677,1.8943282,9.49294,1.570352
1409526550800,-0.58777654,15.2331085,1.1994951,1.8164603,9.509604,1.5615039
1409526550832,1.1192893,13.2351465,-1.2587515,1.7590908,9.524697,1.5349768
1409526550834,3.7134068,11.6747265,-2.0440497,1.7612591,9.530462,1.4962097
1409526550835,5.919664,10.198102,-0.6314707,1.825187,9.522143,1.4723743
1409526550837,6.5684924,8.612542,2.7515364,1.926056,9.501261,1.4787697
1409526550842,7.353192,8.462905,6.3751607,2.0575953,9.464025,1.5391372
1409526550851,6.854001,11.14441,9.6767645,2.2265682,9.410376,1.6302207
1409526550891,5.143344,16.691177,9.111733,2.4046633,9.348083,1.7324399
1409526550892,3.7732618,17.46989,2.9628246,2.5215416,9.306536,1.7890333
1409526550893,1.2964603,15.339052,0.6422446,2.5706677,9.301519,1.744649
1409526550895,-2.03148,13.141773,0.9564836,2.562117,9.311539,1.7032942
1409526550935,-3.176507,11.935096,0.021547815,2.3007092,9.364703,1.7830995
1409526550936,-3.6643257,10.817003,1.3563153,2.3007092,9.364703,1.7830995
1409526550937,-3.9881415,11.294646,1.1953052,2.3007092,9.364703,1.7830995
1409526550939,-4.1665096,10.437522,-0.43514615,2.1593783,9.394299,1.8040545
1409526550940,-3.8744168,9.452907,-0.8283938,2.0326028,9.425464,1.7887292
1409526550970,-2.9999347,9.01776,-0.0700304,1.9255623,9.454345,1.7544076
1409526550971,-2.059612,8.813655,-0.027533319,1.8456306,9.476188,1.7221843
1409526550972,-0.74399817,8.617331,0.08140286,1.7875346,9.492293,1.6945577
1409526550980,0.44113165,8.398261,0.5398925,1.7451516,9.506937,1.6562055
1409526551003,1.2539631,9.123704,0.7398083,1.7050515,9.523914,1.5994567
1409526551005,1.584363,10.073604,0.9708488,1.657594,9.543544,1.5308628
1409526551008,1.8423382,10.694301,1.2952632,1.6012396,9.5633,1.4661877
1409526551035,1.7070658,10.808025,1.0720038,1.5406609,9.580553,1.4176589
1409526551037,1.1025299,10.837953,0.41479546,1.4772953,9.596712,1.375181
1409526551039,0.29209262,11.07019,-0.1328782,1.4058515,9.614355,1.3259465
1409526551061,-0.7086837,11.100717,-0.37229836,1.3232112,9.634773,1.2612131
1409526551062,-1.6089035,10.708067,-0.6488287,1.22482,9.657406,1.1852177
1409526551079,-2.3762453,10.172963,-1.1270704,1.1158913,9.679576,1.1095169
1409526551080,-2.5953147,9.603143,-1.4616601,1.0034704,9.699599,1.039816
1409526551097,-2.630629,8.866327,-1.4526819,0.8982509,9.716339,0.977905
1409526551099,-2.5959132,8.969876,-1.0372878,0.80611175,9.72929,0.9281592
1409526551107,-2.3475149,8.8328085,-0.41838676,0.72541887,9.738688,0.8956112
1409526551130,-2.0721815,8.249222,0.19033903,0.65734595,9.744213,0.8880455
1409526551131,-1.6915035,7.6428905,0.46926352,0.5979886,9.746162,0.90835136
1409526551139,-1.359308,7.293337,0.31902736,0.5409475,9.745968,0.94543844
1409526551163,-1.0510546,7.5734587,0.24660277,0.48356912,9.745461,0.981074
1409526551177,-1.0348936,8.005013,0.29927522,0.41542324,9.746871,0.9981617
1409526551179,-1.1258733,7.8667483,0.260968,0.33337426,9.750887,0.9896691
1409526551180,-0.44951138,7.821857,0.18555063,0.23867387,9.75565,0.9699015
1409526551206,0.62608373,7.89907,-0.045489833,0.13740233,9.758709,0.9587068
1409526551208,1.5310919,8.296508,0.047285482,0.041465674,9.758978,0.9648982
1409526551209,1.8698715,8.599973,0.30166942,-0.039088205,9.75652,0.9895322
1409526551228,2.088941,8.5299425,0.3866636,-0.10641899,9.751293,1.035061
1409526551229,2.3942018,8.282143,0.57161564,-0.16575262,9.7428,1.104886
1409526551244,2.5498247,8.118738,0.8559271,-0.21917982,9.730965,1.196113
1409526551259,2.7910407,8.010401,1.1683705,-0.2717325,9.717049,1.2944268
1409526551260,2.9550436,7.860164,1.376666,-0.32383978,9.702329,1.3893703
1409526551277,3.259107,8.066664,1.4041992,-0.37587133,9.689127,1.466257
1409526551279,3.1543608,9.024344,1.9297266,-0.42209768,9.678744,1.5212301
1409526551295,2.6252422,9.347562,2.3720553,-0.45556474,9.670439,1.5637994
1409526551312,2.236783,9.785701,2.8814218,-0.4806877,9.662835,1.6027955
1409526551313,1.9997569,9.797672,3.120842,-0.50202894,9.654148,1.647965
1409526551320,1.4317327,9.768942,2.1619642,-0.5280799,9.643794,1.6996292
1409526551327,0.87089086,9.746197,1.1821371,-0.5689744,9.63449,1.7387496
1409526551341,1.5149311,10.084976,0.3537433,-0.6211551,9.62882,1.7522441
1409526551360,2.3355439,10.503363,0.19093758,-0.6669165,9.628071,1.7395017
1409526551360,3.1214404,11.11149,0.7882909,-0.6976258,9.629569,1.7190434
1409526551390,2.9903579,11.492168,1.5945383,-0.713262,9.631513,1.701655
1409526551392,2.4277205,11.198878,2.0614076,-0.7229792,9.631194,1.699351
1409526551395,1.4987702,10.567408,2.2864625,-0.7357056,9.627721,1.713512
1409526551434,0.4985925,10.292074,2.404377,-0.75354517,9.621947,1.7380209
1409526551437,-0.41120413,10.353127,2.7036524,-0.77242935,9.616664,1.7588403
1409526551439,-0.9576807,10.349535,2.8939912,-0.7884936,9.614518,1.7634324
1409526551441,-1.1186907,9.745598,2.2122424,-0.7908764,9.617357,1.7468094
1409526551444,-0.6362591,9.150041,1.5586253,-0.769287,9.626224,1.7071694
1409526551449,-0.48961425,8.637083,2.0536265,-0.7200886,9.6407995,1.6452519
1409526551460,0.16819267,7.9990277,1.2623428,-0.65416783,9.658735,1.56566
1409526551492,-2.5899277,6.4218473,-0.2741361,-0.5793784,9.678467,1.4703685
1409526551493,-3.6296098,7.8595657,-0.5363012,-0.5073197,9.700117,1.3493441
1409526551495,-3.828927,10.668563,0.08140286,-0.43494278,9.722128,1.2089117
1409526551522,-3.5625722,14.877569,0.45789108,-0.35210148,9.741038,1.0763816
1409526551523,-2.3744495,19.206285,-0.36870706,-0.24713494,9.754721,0.9771199
1409526551525,-1.5556326,19.608511,-1.75076,-0.101702794,9.764584,0.9016484
1409526551529,-2.771887,19.608511,-1.9776106,0.076591656,9.771056,0.8312641
1409526551551,-2.4983494,17.757195,-0.8463503,0.22514272,9.77382,0.7695083
1409526551552,-1.9351135,12.828133,1.1300632,0.3410317,9.771879,0.75131047
1409526551568,-2.3888147,9.463681,3.228581,0.43431136,9.7639885,0.8039286
1409526551584,-4.7141833,9.509171,4.8668137,0.50351584,9.751797,0.9051633
1409526551585,-4.0743327,12.514492,4.283227,0.5389042,9.738165,1.0237732
1409526551588,-2.3133974,11.610083,1.8297687,0.5701908,9.726983,1.1095337
1409526551610,-1.4634558,9.257779,0.50517654,0.6590606,9.71439,1.1690493
1409526551611,-0.98341835,8.482059,1.0971429,0.79746825,9.709701,1.1207725
1409526551628,-0.22864626,8.795698,2.3253684,0.94816434,9.701031,1.0776763
1409526551629,0.7637503,9.392453,2.5570073,1.1048163,9.686025,1.0633525
1409526551644,1.2641385,9.540894,1.6891093,1.268416,9.66608,1.0622579
1409526551658,0.9900024,8.47308,0.11611878,1.4244198,9.644728,1.058603
1409526551660,0.95947635,6.3763576,-1.1833342,1.5554359,9.624968,1.0540332
1409526551676,1.127669,5.901707,-0.88944596,1.6637846,9.605694,1.0643638
1409526551692,1.0737995,5.3582234,-0.35793316,1.7580012,9.585997,1.0901835
1409526551693,0.86849666,5.021838,0.18016368,1.8484675,9.562228,1.1477683
1409526551709,0.5734113,5.018845,0.6183026,1.9298162,9.535602,1.2322814
1409526551710,0.58897364,5.0374002,0.8026561,2.002711,9.507818,1.3270013
1409526551730,0.55964464,5.0559554,0.98940384,2.0706103,9.480395,1.4160035
1409526551731,0.5327099,5.0374002,1.115698,2.1332972,9.455006,1.4907416
1409526551741,0.3866636,5.076905,1.1755531,2.1881926,9.433089,1.5488815
1409526551759,0.42437226,5.269638,1.2557588,2.233445,9.41538,1.5914602
1409526551761,0.84096336,5.6407394,1.4161704,2.2690096,9.402238,1.6186169
1409526551783,1.4646529,6.0758853,1.7938557,2.296637,9.393418,1.63082
1409526551784,2.0470424,6.769605,2.1823149,2.3159025,9.388885,1.6296674
1409526551788,2.3373394,7.3723454,2.308609,2.331113,9.3860855,1.6240996
1409526551825,2.6593595,7.827842,2.1990743,2.3307743,9.388293,1.6117824
1409526551826,2.9909565,8.233061,2.1739352,2.3112264,9.395808,1.5960557
1409526551828,3.2597055,8.767567,2.540248,2.2714531,9.407891,1.5819147
1409526551829,3.4644098,9.613318,3.0053217,2.2142432,9.42287,1.5738676
1409526551848,3.4278982,10.474632,3.445855,2.1473134,9.43873,1.5715595
1409526551849,2.5594015,11.0061455,3.8857894,2.0793748,9.453642,1.5732862
1409526551859,1.6819267,10.873865,3.8181531,2.0106473,9.467813,1.5774155
1409526551880,1.1168951,12.654553,3.858256,1.9436175,9.480711,1.5839349
1409526551881,1.1575965,14.808736,2.6647465,1.8770796,9.490303,1.6065824
1409526551888,1.7190368,14.803947,0.9720459,1.8272756,9.495672,1.6320714
1409526551912,3.3638535,13.61762,-0.16699557,1.8031012,9.498859,1.6403993
1409526551913,6.2674217,12.00752,-1.1007342,1.8430071,9.493536,1.6268023
1409526551921,5.0403934,9.312247,1.5759833,1.9427098,9.476149,1.6121032
1409526551928,6.0202203,9.08001,5.7903767,2.039921,9.448808,1.6520203
1409526551953,6.067506,12.157158,10.499771,2.1575089,9.406604,1.7410786
1409526551954,5.8825536,16.675016,8.998009,2.2945807,9.3474045,1.8791852
1409526551960,5.0787005,17.293917,2.92751,2.4210672,9.298216,1.9626453
1409526551982,1.8495208,15.647903,1.3102269,2.5082836,9.279754,1.9403752
1409526551984,-1.4772224,13.53562,0.75716627,2.5273757,9.281461,1.9071549
1409526551989,-2.0021513,11.651382,-0.17058687,2.493223,9.291748,1.9020106
1409526552021,-2.0829554,10.811018,1.1031284,2.4378874,9.303468,1.9164065
1409526552022,-2.4331074,11.412561,1.7202339,2.3719385,9.3105135,1.9643427
1409526552023,-2.606687,11.473015,0.75118077,2.2804613,9.323981,2.0082963
1409526552047,-2.569577,10.248381,-0.14305355,2.1821187,9.343869,2.0250533
1409526552049,-2.2828712,9.456498,-0.6985083,2.0980935,9.362737,2.0267131
1409526552050,-2.3529017,9.858126,-0.8331822,2.029466,9.378749,2.0225549
1409526552060,-1.6579847,10.542868,-0.3184288,1.9655613,9.395801,2.0064647
1409526552080,-0.45968673,10.945093,0.32680854,1.9050444,9.41612,1.9692346
1409526552081,0.62728083,10.589554,0.5279215,1.8476651,9.439378,1.9117204
1409526552089,1.1976994,9.895834,0.4985925,1.7923088,9.462685,1.8481343
1409526552118,1.4915876,9.452907,0.36032736,1.7317635,9.484375,1.7938838
1409526552119,1.6316484,9.339182,0.39324763,1.6655931,9.504736,1.7481993
1409526552120,1.4359225,9.350554,0.56682724,1.5910524,9.524737,1.7083207
1409526552143,0.89064306,9.384073,0.8062474,1.5061694,9.546481,1.6632977
1409526552144,0.14903906,9.361927,0.8643068,1.4103253,9.570338,1.6093507
1409526552159,-0.38187516,9.169194,0.6560113,1.302911,9.595406,1.5495244
1409526552160,-0.6314707,9.0315275,0.3298013,1.1895032,9.619764,1.4884906
1409526552174,-0.86370826,8.895058,-0.048482586,1.0773,9.641854,1.4298439
1409526552189,-1.2090719,8.692149,-0.4321534,0.96964246,9.66094,1.377105
1409526552190,-1.3670892,8.359954,-0.58418524,0.8667409,9.677008,1.332176
1409526552208,-1.3856442,8.276755,-0.5530606,0.77413803,9.689615,1.2970905
1409526552209,-1.5460558,8.415619,-0.3645172,0.6931052,9.698964,1.2728388
1409526552221,-1.371279,8.233061,-0.05746084,0.6161977,9.706481,1.2549593
1409526552237,-0.94092125,7.6093717,-0.14844051,0.54151154,9.7112875,1.2522209
1409526552240,-1.0528502,7.3166804,-0.17178397,0.4645028,9.714837,1.2556204
1409526552254,-0.5650316,7.40766,-0.22864626,0.37673882,9.719018,1.2526538
1409526552260,0.11851298,7.727885,-0.024540568,0.2818275,9.724747,1.2329979
1409526552277,0.81642276,8.033145,0.1340753,0.18472591,9.731663,1.1962614
1409526552282,1.6699557,8.5700445,0.24899697,0.092571355,9.738581,1.1497298
1409526552289,2.4193408,8.929175,0.3585317,0.0098468745,9.744106,1.105754
1409526552321,2.8137856,9.271546,0.62368953,-0.060310896,9.747304,1.0755532
1409526552322,3.0119057,9.325416,0.84694886,-0.121294565,9.747543,1.0682237
1409526552323,3.028665,9.169194,1.0528502,-0.17788345,9.745855,1.0756644
1409526552342,2.742558,9.015367,1.210269,-0.23363154,9.740768,1.1105149
1409526552343,2.3582888,9.075222,1.3174095,-0.2890472,9.732723,1.166592
1409526552358,2.046444,9.015965,1.283292,-0.34672883,9.7225275,1.2339425
1409526552364,2.0272903,8.760384,1.0354922,-0.4075932,9.711227,1.3024371
1409526552380,2.1877017,8.654441,0.91697925,-0.46960625,9.699721,1.3657594
1409526552380,2.4690206,8.859743,1.0582372,-0.52926934,9.68821,1.4243715
1409526552388,2.4474726,9.048286,1.5705963,-0.5819044,9.676166,1.4844488
1409526552407,2.3582888,9.190742,2.392406,-0.62655485,9.662618,1.552948
1409526552408,1.875857,8.878299,2.9634233,-0.6658378,9.646749,1.6331903
1409526552421,0.13826515,8.400655,3.4374752,-0.70680636,9.628871,1.7191968
1409526552440,0.24181437,8.421604,2.7006595,-0.7609227,9.608766,1.8063805
1409526552441,0.724246,8.411429,1.2246342,-0.81444705,9.5903015,1.8796785
1409526552454,1.9117701,8.990228,0.47465047,-0.86517686,9.576355,1.927502
1409526552475,2.4468741,10.068815,0.9660604,-0.9031843,9.569391,1.9445816
1409526552476,2.2972364,11.025299,1.5119383,-0.9316025,9.568122,1.9374056
1409526552490,1.5945383,11.43351,1.6274586,-0.95427305,9.569493,1.9195201
1409526552490,0.6799533,11.645996,1.4688427,-0.97664386,9.570858,1.9013786
1409526552504,0.1412579,11.727997,1.7585411,-0.99946463,9.572226,1.8825403
1409526552508,0.05865794,11.525687,2.0524294,-1.0173306,9.574416,1.8617233
1409526552527,0.2741361,11.07019,1.7202339,-1.0223056,9.579462,1.8328083
1409526552529,0.4938041,10.369886,0.82719666,-1.0046443,9.589466,1.7897619
1409526552541,1.1150994,10.159196,1.186327,-0.9744992,9.602428,1.7361261
1409526552562,0.7332243,9.601946,1.5448587,-0.9177992,9.618757,1.675572
1409526552564,-0.01616086,8.701726,0.7356185,-0.85235715,9.636738,1.605353
1409526552570,-1.1815386,7.349002,0.2837129,-0.7834847,9.656887,1.5169387
1409526552593,-2.7132292,6.296152,-0.06344634,-0.7085172,9.678151,1.4148448
1409526552594,-4.1305966,6.4008985,-1.1150994,-0.62793815,9.700106,1.2976956
1409526552600,-4.449624,8.273763,-1.3802572,-0.544012,9.722705,1.1590713
1409526552609,-5.4324436,16.364368,-0.7673417,-0.4468291,9.743065,1.0214741
1409526552630,-3.5242648,19.602526,-1.1474211,-0.36398876,9.757676,0.9086633
1409526552631,-2.345719,19.608511,-2.0931308,-0.24048802,9.768368,0.8315971
1409526552644,-3.2974143,19.53908,-1.6406267,-0.082940884,9.77677,0.7604435
1409526552666,-2.8000188,17.3424,-0.30466217,0.059023704,9.780742,0.70992035
1409526552667,-2.255338,12.956223,1.3587095,0.18272048,9.780237,0.6956977
1409526552670,-1.7052702,9.091981,3.0897174,0.2795855,9.774575,0.74155736
1409526552705,-2.8592753,7.6003933,4.6830587,0.35496953,9.764285,0.8385262
1409526552708,-4.10845,10.915166,5.0613422,0.4030709,9.751892,0.9531628
1409526552710,-1.941099,12.193669,3.3859997,0.43031007,9.740828,1.0495236
1409526552712,-1.1438298,9.630676,2.148796,0.51017594,9.733843,1.0781504
1409526552735,-0.60214174,7.602189,2.232593,0.64202076,9.728963,1.0514271
1409526552737,1.0720038,8.525154,3.0843303,0.79075724,9.7222185,1.0117317
1409526552741,2.3690627,9.210494,3.2381577,0.9511489,9.710494,0.98591405
1409526552761,3.1956608,9.48044,2.4462755,1.1213185,9.694075,0.9684955
1409526552763,3.256713,9.208099,1.2012907,1.2913653,9.674567,0.95159847
1409526552769,2.6168625,8.075044,0.30166942,1.4385406,9.65574,0.931492
1409526552798,2.3002293,6.687604,-0.06823475,1.5503138,9.639671,0.91851175
1409526552800,2.2649148,5.793968,0.29628247,1.632155,9.625381,0.92655647
1409526552802,1.8231846,4.911106,0.6123171,1.6977525,9.610129,0.96613413
1409526552836,1.3132197,4.779425,0.75716627,1.7552123,9.592792,1.0334408
1409526552837,1.0791864,4.721366,0.97503865,1.8055891,9.5741825,1.1159127
1409526552839,0.8475474,4.7578773,0.98581254,1.8486984,9.555137,1.2050166
1409526552841,0.76195467,4.745308,1.1552023,1.8840752,9.536677,1.2932341
1409526552873,0.7733272,4.8907557,1.2497733,1.9119396,9.519292,1.377661
1409526552875,0.6512229,5.1648917,1.3575124,1.9358305,9.502426,1.4583681
1409526552876,0.59974754,5.4354362,1.483208,1.9513941,9.488076,1.5293337
1409526552896,0.78529817,5.7921724,1.7429788,1.9598309,9.47724,1.5847408
1409526552898,0.96187055,6.289568,2.243367,1.9609998,9.470621,1.6224126
1409526552901,1.1941081,6.8127007,2.6647465,1.9532628,9.468417,1.6444548
1409526552929,1.5867572,7.3059063,2.9173348,1.9339776,9.470533,1.655029
1409526552930,1.9357121,7.7308774,2.9179332,1.9014632,9.476989,1.655745
1409526552931,2.5875335,8.693945,2.6324248,1.8557103,9.487674,1.6464393
1409526552941,2.8089972,9.73662,2.7778726,1.8024192,9.501477,1.6259173
1409526552962,3.3381157,10.881647,2.6264393,1.7457746,9.516705,1.5984387
1409526552963,3.7122097,11.277288,2.4115596,1.6987009,9.530885,1.5642998
1409526552970,3.25372,10.872668,2.6671407,1.6631616,9.543663,1.5240598
1409526552994,2.1266496,14.669872,3.9438488,1.6336071,9.55433,1.4887865
1409526552995,1.8662802,15.148114,2.3020248,1.5977756,9.562718,1.4737476
1409526553003,3.2878375,13.959991,0.35553896,1.5726147,9.569504,1.4566687
1409526553035,5.398925,12.357672,-0.7493851,1.5859563,9.571362,1.4297394
1409526553036,7.353192,10.63684,0.6775591,1.6495355,9.565565,1.3962116
1409526553038,6.0746884,9.76116,6.7109475,1.7579261,9.545473,1.4014406
1409526553042,5.869984,13.884574,10.770316,1.8692547,9.50909,1.5011563
1409526553070,5.276222,19.38585,6.257845,1.9949633,9.455047,1.6711103
1409526553071,1.8644845,19.58038,1.4371196,2.1200273,9.417258,1.7294872
1409526553072,-2.3588872,17.594988,0.091578215,2.1974092,9.4059305,1.6941866
1409526553090,-3.0430303,14.522031,-1.7232267,2.2167914,9.41256,1.6309328
1409526553091,-2.0751743,10.901998,-0.6835446,2.2189438,9.417327,1.6001985
1409526553105,-2.0644004,8.6257105,1.8716671,2.2081833,9.40784,1.6693947
1409526553122,-2.1996727,8.734048,2.842516,2.1605837,9.393392,1.8073305
1409526553123,-1.9841946,8.6095495,1.5903485,2.0816894,9.387242,1.9278597
1409526553137,-1.9033904,8.024766,0.6943185,2.000992,9.394396,1.9778157
1409526553141,-2.098518,7.5890207,0.91099375,1.9336673,9.408792,1.9763534
1409526553152,-2.3277626,7.8128786,0.8182184,1.8820189,9.422697,1.9598936
1409526553172,-1.8950106,8.368334,0.37349546,1.838319,9.436784,1.9334114
1409526553173,0.2801216,9.822212,0.54767364,1.7958683,9.455206,1.8826454
1409526553186,1.1953052,10.755951,0.45609543,1.7597754,9.474588,1.8181775
1409526553189,1.5304934,11.686697,0.4429273,1.7207005,9.498547,1.7283465
1409526553205,1.5622166,11.887212,0.18076223,1.6738105,9.524639,1.6278847
1409526553227,1.3090298,11.502942,-0.2208651,1.6182771,9.549801,1.5339082
1409526553229,0.7930793,11.08276,-0.25677812,1.5506929,9.572551,1.4601414
1409526553229,0.22325931,10.761338,-0.035913024,1.4691356,9.594182,1.4013208
1409526553241,-0.20290859,10.147824,0.05805939,1.3766096,9.616135,1.3436152
1409526553251,-0.57400984,9.321824,-0.04249708,1.2782432,9.637515,1.2863877
1409526553271,-0.8822633,8.5700445,-0.091578215,1.1776536,9.6569195,1.2358925
1409526553272,-1.091756,8.134899,-0.15143326,1.0766981,9.673739,1.1957848
1409526553292,-1.1623849,7.872135,-0.21308395,0.9811556,9.688125,1.1610289
1409526553294,-1.1055226,7.94037,-0.15203181,0.89201754,9.700095,1.1326412
1409526553301,-1.2240356,8.570643,0.08080431,0.8191002,9.709197,1.1094981
1409526553322,-1.0899603,8.856153,0.4902128,0.7582364,9.715998,1.0930898
1409526553325,-1.2467805,8.62152,0.51954174,0.70147276,9.720606,1.0900191
1409526553342,-0.82240826,8.1163435,0.24061728,0.63589334,9.724125,1.0988244
1409526553344,-0.42317516,7.8595657,-0.18315643,0.5607123,9.727664,1.1084065
1409526553361,-0.3333926,8.15525,-0.3513491,0.47481546,9.732825,1.1032131
1409526553363,0.30226797,8.505402,-0.23882163,0.37691036,9.739872,1.078525
1409526553369,1.0145429,8.704719,-0.14963761,0.2746686,9.746939,1.0450634
1409526553391,1.299453,8.787319,0.05805939,0.17730846,9.752333,1.0153676
1409526553392,1.7477672,8.971672,0.4165911,0.08386238,9.755862,0.99323964
1409526553401,2.167351,9.106945,0.9295488,-0.0031701545,9.756069,0.9947431
1409526553432,2.1996727,8.654441,1.2096704,-0.08242676,9.752144,1.029231
1409526553433,2.0380642,8.281544,1.3934253,-0.15411764,9.744322,1.093093
1409526553434,1.8902222,8.003817,1.3401544,-0.22057533,9.733322,1.1765087
1409526553442,1.5873557,7.837419,1.1875241,-0.28235033,9.720598,1.2651626
1409526553469,1.6310499,7.5483193,0.96426475,-0.34282228,9.7075,1.3480636
1409526553470,2.2278047,7.4345946,0.8523358,-0.40358636,9.695225,1.4177954
1409526553471,2.6898856,7.4926543,1.115698,-0.46072835,9.684134,1.47501
1409526553493,3.0142999,8.003218,1.6519991,-0.51024526,9.673821,1.5255208
1409526553494,2.930503,8.322844,2.2720973,-0.5477655,9.663562,1.5766736
1409526553501,2.610877,8.602366,2.8233624,-0.5792603,9.652356,1.6330564
1409526553524,1.8590976,8.781932,2.9131448,-0.6080124,9.63974,1.6959134
1409526553524,1.3970166,9.648633,2.8682537,-0.6412039,9.626296,1.7588841
1409526553530,0.5650316,9.702502,2.6743233,-0.6782146,9.613022,1.816653
1409526553561,0.96785605,9.775525,1.0767922,-0.7258249,9.599921,1.8668351
1409526553562,2.6473885,10.482413,0.6410475,-0.7746227,9.590863,1.8935964
1409526553563,2.8275523,10.981605,1.3317747,-0.8057608,9.587987,1.8951681
1409526553571,2.822764,11.066,1.8698715,-0.8315216,9.587441,1.886779
1409526553609,2.296638,10.840346,2.2697031,-0.852778,9.586164,1.883783
1409526553612,1.7555484,10.816404,2.4672248,-0.87195945,9.58311,1.8905226
1409526553615,1.1330559,10.995371,2.5246856,-0.8878151,9.579928,1.8992494
1409526553618,0.75118077,10.781689,2.6743233,-0.9043298,9.578508,1.8986211
1409526553621,0.29747957,10.374675,2.1404164,-0.9125648,9.581574,1.8791047
1409526553638,0.2693477,10.111911,1.6077064,-0.90973705,9.590248,1.8357301
1409526553654,0.032920275,9.92636,1.7471687,-0.8904307,9.603272,1.7761475
1409526553655,-0.7080852,9.026739,1.5897499,-0.86152655,9.61837,1.7073722
1409526553683,-1.0666169,7.787141,0.3866636,-0.8322425,9.635272,1.6245964
1409526553684,-2.5605986,6.3745623,0.05805939,-0.79484445,9.655981,1.5167859
1409526553686,-3.5637693,6.0244102,-0.55246204,-0.74856967,9.679258,1.3863577
1409526553708,-4.168904,6.8318543,-1.0235212,-0.68786323,9.704396,1.2336597
1409526553710,-4.729147,8.711902,-1.1456255,-0.609025,9.728145,1.0782815
1409526553711,-4.9661727,12.109872,-0.97743285,-0.5247972,9.748386,0.929496
1409526553743,-3.8899791,16.944365,-0.6727707,-0.42877027,9.763532,0.812389
1409526553745,-2.1894975,19.606117,-0.6159084,-0.30490026,9.774687,0.7300472
1409526553746,-2.1146786,19.608511,0.76434886,-0.13944241,9.782435,0.6744525
1409526553750,-2.0045455,18.297089,0.931943,0.02338493,9.7842,0.6627772
1409526553774,-1.7818847,13.997102,1.6005238,0.15517676,9.781871,0.679195
1409526553776,-1.1186907,10.744578,2.9167361,0.25341493,9.775678,0.7364237
1409526553782,-2.3876176,8.519168,3.750517,0.32288718,9.766077,0.83058196
1409526553806,-4.390966,8.954314,3.7235823,0.3564516,9.755708,0.93247205
1409526553807,-3.180697,11.395203,2.3540988,0.36050615,9.748155,1.0069352
1409526553824,-1.6053122,11.0247,1.0720038,0.39132538,9.745062,1.0251964
1409526553825,-0.85054016,8.812458,0.80325466,0.46131912,9.743343,1.0123334
1409526553830,0.11312603,7.6608467,1.8842367,0.58599234,9.740509,0.9744048
1409526553852,1.5771804,8.573038,2.5264814,0.7287452,9.733795,0.9447677
1409526553853,2.3020248,8.55149,2.2110453,0.8792928,9.72235,0.9344312
1409526553872,2.734777,8.261791,1.0019734,1.0299629,9.707451,0.9353931
1409526553873,2.532467,7.4812818,0.14065935,1.1633586,9.692289,0.9362279
1409526553891,2.4636335,6.498462,-0.10295067,1.2666897,9.678769,0.9419786
1409526553892,2.44029,5.509058,0.11731588,1.3449618,9.666125,0.9630638
1409526553904,2.296638,4.729147,0.40043023,1.4086632,9.652383,1.0087444
1409526553925,1.8435353,4.344279,0.75237787,1.4662507,9.636258,1.0784374
1409526553926,1.5676036,4.4274774,1.1402385,1.5206975,9.618695,1.1569811
1409526553937,1.0582372,4.699219,1.4305356,1.5740173,9.599312,1.2434086
1409526553955,0.9983821,4.896741,1.5915456,1.6241404,9.579518,1.3286742
1409526553956,0.985214,5.179257,1.7711107,1.668369,9.560594,1.4078342
1409526553970,1.0187328,5.5976434,1.804031,1.7043382,9.543705,1.4776157
1409526553971,1.146224,5.9346275,1.8171991,1.7325398,9.5296545,1.5344061
1409526553986,1.3700819,6.2207346,1.941099,1.7530763,9.519181,1.5755386
1409526554004,1.721431,6.5403605,2.071583,1.764371,9.512959,1.6003208
1409526554006,2.0254946,6.9425864,2.2577322,1.7647563,9.51147,1.6087204
1409526554020,2.3678656,7.3029137,2.4486697,1.7531183,9.514724,1.6021793
1409526554022,2.705448,7.6572556,2.4265234,1.7290684,9.522176,1.5839406
1409526554033,3.039439,8.400057,2.3068132,1.6999584,9.531358,1.5600543
1409526554051,3.4865563,9.614515,2.2900538,1.6573198,9.544354,1.5261002
1409526554052,3.5500026,10.709863,2.5755625,1.6052033,9.560268,1.4815528
1409526554071,3.5128925,11.477204,3.0095115,1.5476435,9.577237,1.4323907
1409526554072,3.3770216,11.171345,3.774459,1.4915888,9.592838,1.3867301
1409526554086,3.063381,10.299856,4.1042604,1.4435807,9.605012,1.3528457
1409526554104,1.7776948,12.687473,4.2969937,1.4058213,9.613898,1.3292915
1409526554105,0.7356185,16.369755,3.5326445,1.3647938,9.620987,1.3207402
1409526554124,0.5662287,16.506824,1.5544355,1.3179274,9.627868,1.318186
1409526554125,5.2079873,13.1315975,-1.3455414,1.3023762,9.632648,1.298575
1409526554130,5.9543796,10.120291,0.89543146,1.3842655,9.624895,1.2710516
1409526554156,6.4751186,8.887876,5.301361,1.4802766,9.607359,1.2953199
1409526554157,6.4416,11.116877,9.569624,1.6021653,9.572093,1.4065874
1409526554162,6.1076083,16.435596,7.530363,1.7500942,9.5172205,1.5906279
1409526554170,4.589086,18.850746,2.5019407,1.908782,9.46521,1.7136928
1409526554186,-0.2136825,16.021997,2.5300727,2.0396006,9.4400835,1.7015417
1409526554203,-2.5486276,13.476961,0.24959552,2.0933316,9.436219,1.6571478
1409526554205,-2.1410148,11.229404,0.030526072,2.1020238,9.443987,1.6009399
1409526554225,-2.2062569,9.675568,2.0727801,2.0922956,9.447978,1.5900944
1409526554226,-2.3995886,9.8683,2.2529438,2.0502756,9.448387,1.6415658
1409526554230,-2.5246856,9.936536,0.33159694,1.974427,9.454791,1.6967471
1409526554258,-2.3594859,9.431359,-0.53091425,1.8867376,9.469062,1.716825
1409526554260,-2.1212628,9.466075,-0.4758476,1.8034153,9.488834,1.6970841
1409526554265,-1.7549498,10.45069,-0.79726917,1.7310958,9.508886,1.6597507
1409526554272,-1.2294226,11.106702,-0.88645315,1.6669546,9.528832,1.610277
1409526554291,-0.09935937,11.316195,-0.7517793,1.60441,9.549829,1.5482384
1409526554295,0.8595184,11.232996,-0.5919664,1.5433882,9.571356,1.4756379
1409526554303,1.2156559,11.139024,0.31184477,1.4808371,9.592388,1.4012818
1409526554324,0.6769605,10.90499,0.9600749,1.4084322,9.611516,1.343679
1409526554325,0.30346507,10.301651,0.8379706,1.3164512,9.6284895,1.315115
1409526554331,-0.41479546,9.452309,0.49200845,1.2081451,9.642907,1.3134438
1409526554351,-1.1881226,8.750807,0.5315128,1.0868708,9.656778,1.3174729
1409526554353,-1.775899,8.10557,0.4794389,0.9581959,9.670258,1.3184769
1409526554367,-2.0979192,7.492056,0.09876082,0.8276198,9.684028,1.3057752
1409526554372,-2.2278047,7.213131,-0.11971009,0.7004872,9.697119,1.2828025
1409526554390,-2.3744495,7.038953,-0.25677812,0.58179647,9.708816,1.2533203
1409526554391,-2.5007436,7.0634937,-0.3890578,0.47589365,9.71865,1.2213882
1409526554402,-2.3780408,7.2107368,-0.6063316,0.38513687,9.726668,1.1891203
1409526554420,-1.8148049,7.955932,-0.46088383,0.311484,9.733224,1.156594
1409526554434,-1.323395,8.867524,-0.0700304,0.25818738,9.737973,1.1294268
1409526554435,-1.067814,9.547478,0.4249708,0.2209599,9.740199,1.1180849
1409526554455,-0.75596917,9.241618,0.57879823,0.18730399,9.739333,1.1316781
1409526554456,-0.7080852,8.583213,0.3286042,0.1436472,9.736524,1.1618239
1409526554463,-0.32441434,8.186374,-0.08439561,0.09051226,9.733772,1.1899028
1409526554471,-0.5434838,8.217499,0.0676362,0.016618608,9.73337,1.1965047
1409526554484,0.17118542,8.380304,-0.06703765,-0.074333146,9.735129,1.1798732
1409526554499,0.6889315,8.01878,0.13946225,-0.16639045,9.737273,1.1524826
1409526554503,2.131438,7.8637557,0.5105635,-0.2532167,9.737704,1.1328833
1409526554527,2.4588451,8.110358,1.0307038,-0.32279822,9.735905,1.1306465
1409526554528,2.7216089,8.230068,1.6897079,-0.37524873,9.731712,1.150365
1409526554531,3.0801406,8.467094,2.1051018,-0.4143156,9.724775,1.1947763
1409526554561,3.0747535,8.718486,2.0440497,-0.44639087,9.715243,1.2590406
1409526554563,2.7329812,8.310274,1.5921441,-0.4797283,9.704276,1.3293948
1409526554565,2.3020248,7.8853035,1.0193313,-0.52350485,9.692846,1.3946476
1409526554572,2.1398177,7.992444,0.7182605,-0.5762374,9.682317,1.4460609
1409526554599,2.190096,8.454525,0.7966706,-0.63901293,9.673553,1.4779841
1409526554601,2.2972364,8.892664,1.0408791,-0.704404,9.66601,1.4974859
1409526554604,2.256535,9.576807,1.3664906,-0.7627816,9.658504,1.517184
1409526554628,1.9009962,9.573814,1.9728222,-0.8103205,9.649788,1.5477039
1409526554629,1.5119383,9.492412,2.6611552,-0.85277903,9.637666,1.5995523
1409526554631,1.0618285,9.479841,2.8951883,-0.8952555,9.621214,1.6736639
1409526554651,0.7529764,9.595362,2.930503,-0.9403235,9.602357,1.7552568
1409526554652,1.0444705,9.556456,2.4378958,-0.98583895,9.5840225,1.8289373
1409526554664,1.9219455,9.23264,1.4143747,-1.025996,9.5694475,1.8823948
1409526554682,2.8407204,9.388264,1.0151415,-1.0579954,9.558675,1.9190605
1409526554683,3.0125043,9.967062,2.2373815,-1.0777777,9.553794,1.932306
1409526554703,2.0721815,10.477625,2.3403323,-1.0891843,9.551012,1.9396477
1409526554709,1.1055226,10.605715,2.1643584,-1.1047404,9.548303,1.9441903
1409526554728,0.30645782,11.029489,2.1404164,-1.1270533,9.545112,1.9470505
1409526554729,-0.16579847,11.039065,2.5121162,-1.1500368,9.543809,1.9399816
1409526554731,-0.2621651,10.645219,2.3319526,-1.1656755,9.546288,1.9183284
1409526554747,-0.19512744,9.998186,1.3652935,-1.1665885,9.554416,1.8768573
1409526554751,-0.4878186,9.041104,1.3347675,-1.1478511,9.568671,1.8147603
1409526554763,-1.0085574,7.656657,1.5454572,-1.114393,9.586133,1.742007
1409526554781,-2.0248961,6.2099605,0.8367735,-1.0738796,9.606053,1.6555732
1409526554784,-2.8981812,5.478532,-0.11671733,-1.037334,9.627098,1.5534858
1409526554801,-3.977966,5.769428,-0.93972415,-0.9906136,9.652885,1.418066
1409526554815,-5.0541596,7.0688806,-1.590947,-0.9323607,9.681959,1.2493027
1409526554816,-5.549161,9.318831,-2.0027497,-0.8623651,9.71018,1.0672873
1409526554833,-5.4917,12.830527,-1.903989,-0.7783713,9.734243,0.89945954
1409526554834,-4.300585,17.741632,-2.0045455,-0.6777112,9.753527,0.761453
1409526554850,-3.1352072,19.608511,-1.9710265,-0.54606366,9.770109,0.64588195
1409526554851,-2.2110453,19.608511,-1.2665327,-0.3831431,9.78316,0.5597916
1409526554866,-2.9203274,19.608511,0.26396075,-0.21873318,9.790643,0.51559484
1409526554881,-1.4802152,18.043901,2.5360582,-0.10392525,9.792076,0.52429163
1409526554882,-0.908001,9.240421,3.7086184,0.012149909,9.78928,0.5832964
1409526554900,-3.9246953,9.937134,5.0320134,0.10244653,9.782387,0.681767
1409526554904,-2.7521348,12.9652,3.7361517,0.13910306,9.772216,0.80922747
1409526554920,-0.29628247,12.368446,1.7543513,0.17432189,9.763215,0.90533143
1409526554923,0.8870517,10.444705,1.4059949,0.26594338,9.758841,0.9298984
1409526554931,1.958457,9.24102,2.3265655,0.419162,9.755802,0.90499485
1409526554952,2.706645,8.76996,3.1902738,0.5962559,9.749257,0.87571186
1409526554953,3.3991678,8.948928,2.967613,0.76968783,9.738004,0.86560243
1409526554970,3.6152446,8.883685,1.6585833,0.9349887,9.723297,0.8681556
1409526554972,3.1399956,8.352173,0.6039374,1.0860573,9.707564,0.86837006
1409526554985,3.1914709,7.809886,-0.01436521,1.2106514,9.692727,0.86933655
1409526555011,3.0532057,6.693589,-0.08439561,1.3226962,9.677492,0.87580824
1409526555014,2.6797101,5.8598084,0.14305355,1.4159135,9.661422,0.9069314
1409526555017,2.0775685,5.156512,0.23762453,1.4968796,9.642734,0.97335875
1409526555045,1.4610616,4.6471453,0.50637364,1.567764,9.621224,1.0698407
1409526555047,1.0187328,4.5633483,0.83976626,1.6307082,9.597448,1.183301
1409526555050,0.79248077,4.5567646,1.1546037,1.6869186,9.572492,1.3008065
1409526555052,0.48841715,4.459201,1.2958617,1.7362729,9.54774,1.412939
1409526555076,0.5398925,4.642357,1.2294226,1.775664,9.525536,1.5104924
1409526555077,0.6452374,4.797382,1.1563994,1.8054863,9.507427,1.5872792
1409526555083,0.78769237,5.0254292,1.1420342,1.8276424,9.494137,1.6405774
1409526555102,0.9307459,5.3115363,1.2491747,1.8423507,9.485859,1.6717087
1409526555115,1.2976574,5.7658362,1.572392,1.8535908,9.480024,1.6922543
1409526555116,1.6537948,6.3009405,1.8255788,1.85424,9.478712,1.6988881
1409526555132,2.078167,6.8827314,1.8513165,1.8434007,9.481697,1.6940163
1409526555133,2.4468741,7.463924,1.7244238,1.8196858,9.489001,1.6786904
1409526555147,3.052607,8.649054,1.7980455,1.7822993,9.500678,1.6525474
1409526555151,3.205836,9.856929,2.3343468,1.7343162,9.515627,1.6172093
1409526555165,3.3213563,10.818799,2.9131448,1.6781254,9.531524,1.582519
1409526555181,3.1226375,10.858902,3.6493618,1.6210783,9.545789,1.5557675
1409526555183,2.6485856,9.88506,4.0683475,1.57022,9.557588,1.5353557
1409526555197,2.1787236,9.785701,3.4823663,1.5290785,9.568616,1.5079439
1409526555214,1.1091139,13.620613,3.9103298,1.4921073,9.580768,1.4672748
1409526555215,0.8798691,17.246632,3.2052376,1.4499513,9.593506,1.4257301
1409526555230,1.4556746,16.740856,1.0600328,1.4064122,9.603944,1.398797
1409526555231,3.6894648,15.378556,-1.198298,1.39725,9.608654,1.3754456
1409526555247,6.687604,13.357251,-1.590947,1.4479944,9.605293,1.3461257
1409526555253,6.1279593,9.315839,7.289746,1.5558995,9.587591,1.3519098
1409526555273,6.1596823,12.695254,9.785102,1.6686196,9.54749,1.4938356
1409526555276,5.0703206,17.484856,5.9639564,1.8010318,9.49306,1.6758581
1409526555283,2.6282349,17.422007,1.8830396,1.92992,9.453742,1.7528663
1409526555308,-1.2330139,14.737509,1.8112136,2.0155485,9.441365,1.7229635
1409526555309,-2.9071593,11.959636,0.81283146,2.0286534,9.44416,1.6919813
1409526555311,-2.1942859,10.250774,0.025139118,2.0171578,9.4494,1.6763958
1409526555335,-2.4145525,9.3260145,1.6484078,1.9911718,9.450963,1.6985109
1409526555337,-2.5115175,9.829395,1.7962499,1.936661,9.449094,1.7704196
1409526555345,-2.4756045,10.231621,0.5363012,1.8517232,9.452431,1.8420297
1409526555351,-2.1499932,9.704897,-0.4213795,1.754579,9.46688,1.8627996
1409526555371,-1.738789,9.503185,-0.50876784,1.6702827,9.48686,1.8384782
1409526555373,-1.5562311,9.522937,-0.60333884,1.6048365,9.504694,1.8043514
1409526555384,-1.3682863,9.548675,-0.6751649,1.5542395,9.519085,1.7725073
1409526555409,-0.8146271,9.387665,-0.15622166,1.510141,9.533207,1.7343152
1409526555411,0.088585466,9.103952,0.5255273,1.4679102,9.548536,1.6855525
1409526555412,1.1061212,9.029133,0.9463082,1.4248048,9.564368,1.6319225
1409526555436,1.477821,9.281721,1.2641385,1.3825659,9.578996,1.5816879
1409526555437,1.8273745,9.674969,1.4413095,1.3350831,9.592707,1.5388056
1409526555444,1.9895816,9.992201,0.65182143,1.2814634,9.604377,1.5113492
1409526555452,1.6244658,10.304046,0.51834464,1.2217765,9.616478,1.4835762
1409526555468,1.0480618,10.387244,0.52373165,1.154406,9.631088,1.442183
1409526555483,0.44771573,10.264542,0.35314476,1.0786381,9.648454,1.3835771
1409526555485,0.07062895,10.108319,0.13108255,0.9948031,9.666922,1.3158225
1409526555502,-0.26994625,9.814431,-0.017357962,0.9049036,9.6843605,1.2508808
1409526555504,-0.42916065,9.424775,-0.24061728,0.81419146,9.699177,1.197274
1409526555512,-0.63206923,8.994417,-0.5470751,0.73051363,9.710942,1.1551309
1409526555536,-0.7565677,8.752005,-0.39564183,0.65287393,9.720917,1.1171002
1409526555537,-0.85891986,8.7538,0.090979666,0.59024316,9.72776,1.0921031
1409526555543,-0.9331401,8.829816,0.76434886,0.5404026,9.731418,1.0852869
1409526555567,-1.0941502,8.543709,0.78290397,0.49323836,9.731992,1.1024653
1409526555569,-1.043872,8.14268,0.3854665,0.4385561,9.730649,1.1368924
1409526555593,-0.89184016,7.6841903,-0.08020575,0.37072968,9.729714,1.1685904
1409526555595,-0.943914,7.5465236,-0.23343466,0.29059625,9.731395,1.1772448
1409526555597,-0.4961983,8.117541,0.017956512,0.20200042,9.735644,1.1605303
1409526555622,-0.011971008,8.382699,0.11911154,0.11358777,9.740233,1.1337333
1409526555623,1.1833342,8.820239,-0.06703765,0.02743912,9.743438,1.1113406
1409526555624,2.1200657,8.944737,0.08080431,-0.05217349,9.744775,1.0986625
1409526555632,2.7868507,7.9487495,0.91697925,-0.12508646,9.744533,1.094921
1409526555651,2.6372132,7.3723454,1.2880806,-0.19419484,9.740432,1.1210115
1409526555652,2.3169887,7.5614877,1.541866,-0.26390183,9.732147,1.1773268
1409526555663,1.8243817,7.5854297,1.5562311,-0.33520803,9.720297,1.2545373
1409526555685,1.5502456,7.5531077,1.228824,-0.41329443,9.706145,1.3380274
1409526555686,1.6160861,8.058883,0.95588505,-0.4999666,9.691726,1.4109806
1409526555692,1.9458874,8.311471,1.0187328,-0.59363097,9.678517,1.4643387
1409526555723,2.4672248,8.762179,1.34195,-0.68445307,9.666507,1.5035186
1409526555724,2.678513,9.075222,1.7417817,-0.7622503,9.654699,1.5414863
1409526555725,2.586935,9.217676,2.5773582,-0.8266368,9.641753,1.5886078
1409526555732,2.0284874,9.231443,3.152565,-0.883179,9.626387,1.6501741
1409526555745,1.6502035,9.5253315,3.2561142,-0.94016725,9.60905,1.7183316
1409526555762,1.3623008,9.359533,2.8335378,-0.99538934,9.59122,1.7855233
1409526555765,1.8668787,9.44333,1.5424645,-1.0497549,9.575212,1.8394979
1409526555782,2.6240451,9.464279,0.9427169,-1.0967906,9.564538,1.867368
1409526555784,3.1800983,9.869498,1.3335704,-1.1325623,9.559512,1.8717401
1409526555807,2.9939492,10.171167,2.1470003,-1.156736,9.558098,1.8641672
1409526555808,1.939902,10.390836,2.493561,-1.1748401,9.55704,1.8582544
1409526555812,1.0151415,10.674548,2.7491422,-1.1931012,9.555533,1.8543658
1409526555831,-0.7272388,10.547057,2.544438,-1.2068033,9.555836,1.8439107
1409526555832,-0.6859388,10.317214,1.4059949,-1.2178185,9.559828,1.8157704
1409526555845,0.049679685,10.177752,1.5747862,-1.2160357,9.568509,1.7706739
1409526555865,-0.0023942017,9.665392,1.8698715,-1.1777122,9.583805,1.7129183
1409526555866,0.014963761,9.096769,0.7068881,-1.1187733,9.6038265,1.6386709
1409526555888,-1.103727,8.031948,-0.338181,-1.0473468,9.629371,1.5325446
1409526555889,-2.3714569,7.404069,-1.1402385,-0.9703157,9.657532,1.4003432
1409526555892,-2.6767175,8.1756,-1.7304093,-0.8851091,9.686726,1.2467262
1409526555919,-2.8323407,10.254965,-1.6298528,-0.78764385,9.715734,1.074489
1409526555920,-3.6493618,13.415909,-1.2336124,-0.67441,9.741873,0.90081626
1409526555925,-3.4811692,18.16361,-1.2018893,-0.5570093,9.7614975,0.75715184
1409526555932,-2.6898856,19.608511,-1.7537527,-0.43028426,9.775597,0.6503429
1409526555954,-3.3237505,19.608511,-1.6274586,-0.2822893,9.786007,0.5698975
1409526555955,-4.620809,19.16379,-0.5105635,-0.14549853,9.792406,0.5079609
1409526555965,-4.3059716,15.794549,1.1683705,-0.056571674,9.794142,0.4919309
1409526555992,-3.2225955,10.99597,2.3732524,0.0055464916,9.791559,0.5438032
1409526555993,-2.0129251,7.8344264,3.4865563,0.0620238,9.785122,0.6464831
1409526555994,-3.776853,9.257181,4.8733974,0.11783545,9.77603,0.76534975
1409526556018,-4.0402155,11.824963,4.1718965,0.15177798,9.765862,0.8805018
1409526556020,-0.2765303,9.501988,2.2720973,0.1933958,9.75849,0.95123976
1409526556024,0.52133745,7.4322004,2.460641,0.3169173,9.754836,0.9555837
1409526556032,1.3210008,6.6989765,2.5396495,0.4744008,9.750189,0.937637
1409526556056,2.8407204,8.143278,2.8724434,0.6375642,9.743056,0.91475195
1409526556057,3.8708255,9.214086,2.1721394,0.8114899,9.73216,0.892723
1409526556069,3.6206315,8.846576,1.039682,0.99289036,9.717686,0.8666931
1409526556100,2.621651,7.854179,-0.022146367,1.1631958,9.701487,0.8357814
1409526556103,1.7824832,6.7043633,-0.29508537,1.2978542,9.686238,0.8140939
1409526556106,1.252766,5.990891,-0.2148796,1.3947394,9.6725025,0.8171905
1409526556144,1.0720038,5.3402667,-0.091578215,1.4663982,9.659002,0.8507432
1409526556145,0.88046765,4.759074,0.107140526,1.5285589,9.643624,0.91346854
1409526556146,0.6464345,4.4023385,0.33997664,1.5873042,9.625717,0.99821377
1409526556148,0.44891283,4.3646297,0.6859388,1.6416637,9.606228,1.0934924
1409526556152,0.3573346,4.3885717,0.98461545,1.6917839,9.586191,1.1887753
1409526556175,0.5363012,4.5633483,1.2443863,1.7391182,9.566455,1.2762501
1409526556176,0.7493851,4.827309,1.436521,1.7858272,9.5468,1.3564035
1409526556178,1.0815806,5.089474,1.678934,1.8282237,9.52935,1.4210857
1409526556211,1.2737153,5.478532,2.1601684,1.866086,9.515285,1.4654353
1409526556214,1.738789,6.120178,2.3810337,1.8959609,9.505299,1.4916552
1409526556216,3.4560301,7.9188223,2.1535845,1.9164295,9.499685,1.5012203
1409526556219,4.0545807,8.456919,2.0949266,1.9335438,9.497275,1.4945005
1409526556252,4.5364137,8.660426,2.3708582,1.9374365,9.498834,1.4794898
1409526556255,5.0002904,8.996812,2.9712043,1.9248477,9.503696,1.4646192
1409526556257,5.1421466,9.466075,3.6655228,1.8997929,9.510337,1.4541928
1409526556259,5.1906295,9.836577,4.0066967,1.8671322,9.518012,1.4462664
1409526556266,4.5142674,9.609129,4.137779,1.8325996,9.526509,1.4344233
1409526556281,3.7271736,9.841965,3.9695864,1.7937872,9.536405,1.4176438
1409526556295,2.260725,12.321759,4.578911,1.7558768,9.547408,1.3907892
1409526556296,1.9027919,15.890317,3.6104562,1.7138565,9.55825,1.3685572
1409526556314,3.228581,16.038158,0.79248077,1.6724283,9.567037,1.3583802
1409526556315,4.9224787,14.22934,-0.56922144,1.6703272,9.568936,1.3475332
1409526556328,7.392098,11.977592,-0.4441244,1.7247242,9.559513,1.3458945
1409526556334,5.9902925,8.213309,2.7694929,1.8326386,9.534776,1.3783573
1409526556352,6.271013,6.715736,6.1129956,1.9316779,9.501184,1.4719166
1409526556353,5.479729,9.55885,10.21546,2.050334,9.458415,1.5826969
1409526556366,3.0262709,16.461933,10.821792,2.1802416,9.409594,1.6960241
1409526556393,2.3199813,18.742409,3.466804,2.2476888,9.373323,1.8052969
1409526556394,-0.682946,16.426619,2.2008698,2.2858045,9.365497,1.7980497
1409526556395,-3.6098576,13.585897,-0.4285621,2.2735727,9.367935,1.8008487
1409526556427,-3.0178912,13.413515,-0.62129533,2.2272217,9.376642,1.8134074
1409526556428,-3.365649,13.453618,-1.0241197,2.1612103,9.385724,1.8460085
1409526556430,-3.8127663,12.412739,-2.3959973,2.061873,9.404189,1.865553
1409526556477,-3.3261447,10.675745,-2.3888147,1.9444629,9.432486,1.8486959
1409526556478,-3.192668,9.294291,-1.4526819,1.8367449,9.458955,1.8234402
1409526556479,-2.920926,8.736442,-0.4345476,1.7453994,9.477558,1.8165593
1409526556481,-2.0398598,8.780735,0.62728083,1.6716604,9.488874,1.8268018
1409526556482,-1.1133038,8.576031,1.5981296,1.6147317,9.497527,1.8330274
1409526556496,-0.09995792,8.431181,1.8668787,1.5673326,9.50533,1.8337266
1409526556497,0.88765025,8.499416,1.8064252,1.5223408,9.5163355,1.8144457
1409526556514,1.5855601,8.9124155,1.714847,1.476075,9.529694,1.782283
1409526556515,2.1984756,9.728839,1.7016789,1.4294238,9.543527,1.7459259
1409526556529,2.552219,10.283695,1.3479356,1.3801032,9.557144,1.7107548
1409526556541,2.3517046,10.976217,0.96426475,1.3215476,9.572515,1.6705887
1409526556544,1.7160441,11.282676,0.54647654,1.250182,9.591847,1.613664
1409526556560,0.8810662,11.136629,0.06404489,1.1670314,9.61563,1.5323458
1409526556565,-0.15622166,10.667964,-0.31483752,1.073421,9.641407,1.4357755
1409526556576,-0.93972415,9.989208,-0.6727707,0.97019655,9.66546,1.3446221
1409526556591,-1.3198037,8.76996,-0.91697925,0.8644369,9.684912,1.2749969
1409526556593,-1.4550761,9.078813,-0.748188,0.76102567,9.700656,1.2200391
1409526556609,-1.7154455,9.235633,-0.24899697,0.6677328,9.711283,1.1897516
1409526556613,-1.7495629,8.970475,-0.038905777,0.5843649,9.717458,1.1831806
1409526556632,-1.608305,8.567651,0.090979666,0.50698924,9.720273,1.1956812
1409526556634,-1.228824,8.145673,-0.05686229,0.42768413,9.7206135,1.2235893
1409526556645,-1.0965444,8.042722,-0.025139118,0.3409207,9.719898,1.2560861
1409526556667,-0.85413146,8.059482,0.026934769,0.240949,9.719872,1.2792258
1409526556668,-0.45250413,8.090008,0.047285482,0.1295775,9.721211,1.2851627
1409526556674,0.3764882,8.189367,0.15562311,0.011688283,9.721231,1.2914836
1409526556702,1.441908,8.025364,0.15143326,-0.10388505,9.721861,1.2825819
1409526556706,2.0404584,7.86196,0.56922144,-0.21094543,9.721081,1.2753335
1409526556708,2.4007857,8.160038,1.0187328,-0.31024516,9.7180805,1.2779049
1409526556713,2.6755204,8.079233,1.3030443,-0.39953494,9.711964,1.2994263
1409526556750,2.759916,7.867945,1.471237,-0.4806479,9.701925,1.3461148
1409526556753,2.4600422,7.5842323,1.3503298,-0.5571028,9.688374,1.4126135
1409526556755,2.0326772,7.2939353,1.2138603,-0.6310006,9.673102,1.4843602
1409526556777,1.7567455,6.8665705,1.0911574,-0.7024331,9.65752,1.5521933
1409526556778,1.7471687,6.493075,0.70509243,-0.77009404,9.64205,1.6150028
1409526556779,2.0979192,6.0860605,0.9600749,-0.8313786,9.627186,1.6722713
1409526556794,2.4247277,6.319495,1.5394717,-0.8829796,9.612918,1.72701
1409526556795,2.6030958,6.8121023,2.2918496,-0.92318714,9.599423,1.7802187
1409526556811,2.4899697,7.689577,2.9095535,-0.9558993,9.58584,1.8352993
1409526556813,1.9428947,8.940548,3.2603042,-0.97920614,9.57256,1.8914604
1409526556830,1.4275428,10.181343,3.2908301,-0.9977402,9.560077,1.9441787
1409526556849,1.3341689,10.605117,2.5570073,-1.0137023,9.549817,1.9859041
1409526556850,2.3469162,11.095329,1.638831,-1.0268328,9.543702,2.0084262
1409526556853,3.0496144,11.740566,2.0231004,-1.0269483,9.543403,2.0097845
1409526556883,3.1974564,12.075156,2.6761189,-1.015556,9.546269,2.001943
1409526556885,3.1884782,12.237962,2.734777,-1.0025011,9.548794,1.9964806
1409526556886,2.7216089,11.939884,2.6473885,-0.990576,9.550441,1.994556
1409526556893,2.2667105,11.657368,2.4145525,-0.98332316,9.55149,1.9931152
1409526556917,1.7968484,11.585542,2.0093338,-0.97809774,9.554543,1.9810215
1409526556918,1.4652514,11.323377,1.6765398,-0.97512275,9.559929,1.9563437
1409526556933,1.1659763,10.6117,1.0498575,-0.9631589,9.5707855,1.908606
1409526556934,1.0516531,9.779716,0.4878186,-0.94098264,9.586005,1.8421292
1409526556944,0.9624691,8.665215,0.8912416,-0.9057918,9.6033125,1.7681406
1409526556961,0.19033903,7.0581064,0.64942724,-0.85855424,9.621091,1.6934822
1409526556986,-1.021127,5.5587378,0.4177882,-0.8043936,9.640254,1.6089855
1409526556987,-2.086547,6.6923923,0.64703304,-0.73808575,9.661582,1.5097836
1409526556989,-2.706645,9.087791,1.1695676,-0.65632814,9.683949,1.4002714
1409526556996,-3.141791,11.971008,1.2635399,-0.5601658,9.703982,1.2997495
1409526557026,-3.080739,15.609596,0.4973954,-0.44746602,9.71972,1.2236016
1409526557028,-1.977012,18.571224,-0.45370123,-0.316424,9.734039,1.1483738
1409526557029,-1.2144588,19.608511,-0.41060558,-0.16639204,9.74604,1.0758439
1409526557044,-2.4660277,19.608511,0.49320555,-0.0018359468,9.755044,1.0047399
1409526557045,-3.1705215,19.608511,0.83497787,0.13219084,9.760296,0.9431471
1409526557061,-2.7790697,17.63928,0.7613561,0.23122644,9.762195,0.90360475
1409526557082,-2.143409,13.344083,1.4215573,0.31421795,9.759659,0.905926
1409526557083,-2.259528,10.613496,2.6360161,0.3849765,9.752742,0.9519612
1409526557099,-4.2664676,10.863091,3.7116113,0.42847165,9.744301,1.0175529
1409526557101,-3.393781,12.4229145,2.6420016,0.43884027,9.7372055,1.079191
1409526557105,-1.3293805,11.920731,1.2300211,0.47702137,9.733444,1.0967729
1409526557115,-0.20590134,10.559028,0.93732995,0.58439106,9.7309065,1.0669485
1409526557129,0.6703765,8.921992,1.654992,0.71644354,9.725998,1.0305642
1409526557148,1.536479,9.399037,2.891597,0.86540866,9.716133,1.0090771
1409526557149,2.2948422,9.327211,1.9674352,1.0137347,9.701024,1.016289
1409526557153,2.5103204,7.611766,0.83378077,1.1567589,9.683732,1.0284024
1409526557186,2.3636756,6.827665,0.272939,1.2799445,9.667079,1.039102
1409526557187,1.9716251,5.711368,0.005985504,1.3772023,9.652228,1.0527076
1409526557189,1.5616181,4.827309,0.07062895,1.4491736,9.639138,1.0757955
1409526557194,1.5071499,4.255095,0.2789245,1.5011928,9.626557,1.1163251
1409526557219,1.3694834,3.481768,0.38606504,1.5435715,9.612688,1.1764507
1409526557220,1.2066777,3.196858,0.5907693,1.5824783,9.596956,1.250828
1409526557227,1.039682,3.2752678,0.95109665,1.6205354,9.580147,1.3285463
1409526557246,0.98940384,3.2914288,1.2024878,1.6587869,9.562683,1.4049507
1409526557247,0.83976626,3.3452983,1.359308,1.6959598,9.545194,1.4776422
1409526557258,0.7134721,3.3704374,1.4407109,1.7288349,9.528839,1.5436108
1409526557279,0.66139823,3.719991,1.6950948,1.753838,9.515215,1.5984868
1409526557280,0.8912416,4.347272,1.9806033,1.7707983,9.505338,1.6380571
1409526557297,1.2324153,5.2899885,2.2331917,1.7806995,9.4998,1.6593041
1409526557299,1.6645688,6.3099184,2.6372132,1.7818544,9.499164,1.6617172
1409526557321,1.9967642,7.255628,2.830545,1.7700529,9.503758,1.6479958
1409526557322,2.5198972,8.150461,2.771887,1.7416102,9.513636,1.6210942
1409526557326,3.2106245,9.193136,2.4732103,1.6979363,9.527823,1.5836536
1409526557342,4.1096473,10.348338,2.1871033,1.6430025,9.544717,1.5392665
1409526557344,3.8283286,12.012907,2.6874914,1.5912446,9.562028,1.4852476
1409526557361,3.4183214,11.915343,3.1872811,1.5300051,9.579837,1.4339426
1409526557377,2.3648727,11.022306,3.3273418,1.4679612,9.59599,1.390133
1409526557378,1.4664485,12.020688,3.5523968,1.4071347,9.61069,1.3509303
1409526557394,0.5943606,15.101427,3.8019924,1.3506752,9.6229725,1.3207778
1409526557394,1.0749966,16.015413,1.3718776,1.2894307,9.632606,1.3117433
1409526557408,3.039439,15.023616,-1.1767502,1.2518617,9.639059,1.3006924
1409526557413,5.473145,12.8772135,-1.8561049,1.2742167,9.639708,1.2738909
1409526557425,6.4577603,9.888053,0.15741876,1.3581191,9.629772,1.2622998
1409526557440,6.10701,8.186973,5.659294,1.470429,9.606364,1.3137774
1409526557461,5.7137623,10.928932,11.099519,1.5923468,9.571131,1.4241735
1409526557461,5.7029886,18.12231,9.176975,1.7354743,9.516442,1.6111612
1409526557482,4.0904937,19.51035,3.2519245,1.8908918,9.46688,1.7242743
1409526557483,-0.6398504,16.800713,2.0129251,2.014654,9.447687,1.6890131
1409526557485,-3.6649241,14.091673,0.12988544,2.060302,9.447057,1.6366678
1409526557493,-2.4654293,11.663952,-1.1695676,2.057198,9.452543,1.6086459
1409526557513,-1.951873,10.159196,0.7739257,2.0475366,9.450728,1.6314814
1409526557517,-2.1176715,10.750565,1.6903064,2.0122304,9.445055,1.7065281
1409526557527,-1.4838065,10.601525,-0.7278373,1.9410361,9.4480095,1.77141
1409526557549,-1.7980455,9.946711,-0.39624038,1.863722,9.462338,1.777947
1409526557551,-2.19668,9.833585,-0.13587095,1.7878835,9.478928,1.7674236
1409526557554,-2.0416555,9.821015,0.18315643,1.7156761,9.49461,1.7547716
1409526557587,-1.2401965,9.693524,0.7068881,1.6458174,9.507975,1.7493201
1409526557588,-0.03172317,9.803059,0.95588505,1.5837262,9.521301,1.7340806
1409526557590,0.43993455,9.89344,0.8283938,1.5266069,9.536884,1.6993189
1409526557594,0.6997054,10.36031,0.7200562,1.4670521,9.55499,1.6493372
1409526557620,0.91219085,10.725425,0.66139823,1.3996001,9.5743885,1.5945586
1409526557621,0.8972271,10.490793,0.58119243,1.3223948,9.593652,1.5438682
1409526557625,0.51355624,10.172963,0.5590461,1.2354488,9.612217,1.4997813
1409526557643,-0.07062895,9.794081,0.36990416,1.1367003,9.631663,1.4523606
1409526557645,-0.56443304,9.22426,0.207697,1.0279174,9.652831,1.3916274
1409526557660,-0.8631097,8.637083,0.012569559,0.91381437,9.673435,1.326643
1409526557676,-0.89902276,8.228272,-0.16759412,0.79900765,9.692567,1.2594173
1409526557676,-0.98700964,8.059482,-0.2885013,0.6909838,9.708944,1.195542
1409526557694,-1.1749545,8.0684595,-0.362123,0.5927148,9.722477,1.1369085
1409526557695,-1.271321,8.279149,-0.2861071,0.50510925,9.733087,1.0873286
1409526557707,-1.1947067,8.672996,0.01316811,0.43039912,9.740314,1.0542496
1409526557726,-0.79726917,8.79929,0.52852005,0.3668661,9.744148,1.042777
1409526557726,-0.7398083,8.257602,0.40761283,0.30937922,9.744673,1.0564258
1409526557740,-0.76554596,7.727885,0.10474633,0.24575883,9.743166,1.0866009
1409526557747,-0.7978677,7.421427,-0.01436521,0.16653012,9.741439,1.1167085
1409526557758,-0.34955344,7.721899,-0.061650693,0.06988953,9.740887,1.1316581
1409526557779,0.12090719,7.8050976,0.024540568,-0.03011572,9.740541,1.1363709
1409526557780,1.0636241,7.8182654,0.011971008,-0.13335033,9.74077,1.1269543
1409526557785,1.8860323,8.124723,0.047285482,-0.23100632,9.740324,1.1149493
1409526557794,2.2780828,8.219893,0.320823,-0.32130077,9.738403,1.1093545
1409526557810,2.6384103,8.311471,1.062427,-0.40072104,9.734318,1.1193196
1409526557828,2.678513,8.249222,1.8046296,-0.46845168,9.727194,1.1544033
1409526557829,2.5821466,8.315661,2.2798786,-0.5263581,9.716621,1.2168115
1409526557834,2.15538,8.097789,2.1027076,-0.57827485,9.702905,1.2998649
1409526557861,1.7399861,8.029554,1.5699978,-0.63402784,9.687191,1.3880628
1409526557862,1.6645688,8.030152,0.9463082,-0.699294,9.670783,1.4687836
1409526557868,2.023699,8.520366,0.6859388,-0.770132,9.655033,1.5354614
1409526557874,2.3145945,8.587403,0.87927055,-0.8390215,9.639972,1.5929146
1409526557896,2.6378117,8.727464,1.1755531,-0.8999492,9.626733,1.639058
1409526557898,2.7635074,8.775947,1.8393455,-0.9513372,9.615221,1.6771663
1409526557906,1.9231426,9.515755,2.6683378,-0.99554807,9.603794,1.7165143
1409526557939,1.9261353,10.396222,2.8532898,-1.0386406,9.591031,1.7617458
1409526557941,1.8740613,10.291476,2.0961237,-1.0722305,9.578385,1.8097713
1409526557942,2.5797524,9.749788,0.9391256,-1.10005,9.566784,1.8538952
1409526557980,3.264494,9.77792,1.1210849,-1.1196003,9.55813,1.8865407
1409526557983,3.2076318,9.999982,2.154183,-1.1317544,9.552123,1.909576
1409526557987,2.557606,10.193314,2.7778726,-1.1400211,9.547171,1.9293264
1409526557989,1.5071499,10.31063,2.8042088,-1.1480712,9.54195,1.9502646
1409526557992,0.84694886,10.780492,2.777274,-1.1614691,9.5364685,1.9690514
1409526557996,0.04070143,11.177331,2.9861681,-1.1659245,9.534605,1.975432
1409526558025,-0.30226797,10.948086,2.4959552,-1.1633872,9.538707,1.9570419
1409526558026,-0.021547815,10.425551,1.5436616,-1.1470714,9.55017,1.9102015
1409526558027,0.62967503,10.201095,1.364695,-1.1071985,9.567719,1.8447914
1409526558043,0.07182605,9.651027,1.0941502,-1.0447102,9.589395,1.7670602
1409526558058,-0.3597288,8.800487,-0.05566519,-0.9786983,9.613436,1.6716413
1409526558059,-1.6160861,7.451953,-0.46986207,-0.9099099,9.639832,1.5543817
1409526558081,-2.7593174,6.8881183,-0.66498953,-0.83926487,9.665932,1.4268153
1409526558082,-3.2968156,7.61835,-0.7116765,-0.7624542,9.691872,1.2871208
1409526558086,-4.019266,9.376891,-0.5859809,-0.681474,9.715805,1.1441681
1409526558096,-3.5434184,16.655264,-0.521936,-0.589399,9.736454,1.0121614
1409526558117,-2.8419175,19.546862,-1.1713632,-0.4784993,9.753642,0.89882183
1409526558118,-3.34051,19.608511,-0.9427169,-0.33788595,9.767765,0.8043625
1409526558126,-4.6519337,19.408596,0.33997664,-0.19670305,9.776821,0.7385737
1409526558156,-4.1174283,17.117943,1.6430209,-0.08928331,9.780196,0.71427625
1409526558157,-2.959832,12.616844,2.6797101,5.0517305E-4,9.778237,0.74595207
1409526558158,-1.7860745,9.532514,4.0402155,0.08835048,9.771088,0.82973367
1409526558188,-2.7880478,8.74123,4.905121,0.167569,9.7595,0.9457769
1409526558189,-4.3035774,9.803059,4.8099513,0.21776047,9.746594,1.0615374
1409526558191,-2.4648306,11.719019,3.1824925,0.24536501,9.736912,1.1413743
1409526558216,-0.29508537,11.372458,1.9027919,0.29690856,9.730862,1.1800762
1409526558218,0.5153519,9.454104,1.7363948,0.4126707,9.729286,1.1580541
1409526558219,1.2401965,7.7506294,2.271499,0.5726875,9.726566,1.1119086
1409526558229,2.710835,8.811261,2.914342,0.73993,9.719568,1.0737294
1409526558254,3.4141316,9.100361,2.4121583,0.913052,9.707161,1.0525006
1409526558255,3.3369186,8.264186,1.3329718,1.0841925,9.691164,1.0374339
1409526558266,3.192668,7.7386584,0.53689975,1.2304292,9.675192,1.0232768
1409526558289,2.7617116,7.363966,0.08080431,1.3456328,9.660472,1.0173249
1409526558291,1.8680758,6.180033,0.0017956513,1.4365339,9.646061,1.0296913
1409526558292,1.5771804,4.9278655,0.2789245,1.5076103,9.630939,1.0688907
1409526558313,1.1498153,4.784812,0.47345337,1.5697657,9.614697,1.1242076
1409526558315,0.88286185,4.76506,0.59495914,1.6279353,9.595818,1.2002105
1409526558316,0.82719666,4.76925,0.74998367,1.6830919,9.5751705,1.2859602
1409526558327,0.91338795,4.6662993,0.9660604,1.7335403,9.5540905,1.372809
1409526558347,0.9528923,4.56694,1.2306197,1.7791556,9.533438,1.4555229
1409526558348,0.9295488,4.723161,1.5095441,1.8186616,9.514494,1.5288154
1409526558355,0.9403227,5.115212,1.8177977,1.8507065,9.498549,1.5883368
1409526558382,1.0833763,5.61141,1.9387048,1.8744276,9.486647,1.6310946
1409526558384,1.4676456,6.1112,1.9321208,1.888062,9.4798975,1.6544414
1409526558387,1.894412,6.475717,1.8866309,1.8882538,9.479453,1.65676
1409526558417,2.3702598,6.8342485,1.8782512,1.8722954,9.485556,1.6398642
1409526558419,2.717419,7.2286935,1.9303252,1.8499331,9.49427,1.6146057
1409526558420,3.0071173,7.905654,2.2996306,1.8093245,9.508143,1.5785857
1409526558427,3.3423057,9.004593,2.9257145,1.7523307,9.5251,1.5402007
1409526558447,3.7259765,10.51713,3.4644098,1.6843969,9.542439,1.5083237
1409526558448,3.4763808,11.443686,3.8480806,1.6151447,9.5582905,1.483497
1409526558455,3.1860838,11.329961,3.845088,1.5487603,9.572851,1.460229
1409526558480,3.6433764,10.301651,3.5003228,1.493312,9.5858,1.4327707
1409526558481,1.3587095,15.522807,3.7978024,1.4616745,9.596177,1.3954576
1409526558487,1.240795,17.495628,2.27928,1.4124571,9.608379,1.3617628
1409526558514,2.2918496,16.212337,0.061650693,1.3726047,9.619517,1.3233504
1409526558516,4.446631,14.136564,-1.3569138,1.379047,9.624683,1.2783204
1409526558517,7.409456,12.43728,-0.7086837,1.4248011,9.623341,1.2375934
1409526558527,6.156091,10.23222,4.5238442,1.5263144,9.60715,1.2423389
1409526558547,6.2009826,11.736976,8.860342,1.625404,9.577019,1.3450646
1409526558548,5.309142,16.14889,6.931214,1.7485026,9.529974,1.514184
1409526558555,2.7886465,17.59798,3.8193502,1.8760635,9.488313,1.6194711
1409526558582,-0.62728083,16.344017,2.5719712,1.9675184,9.470391,1.6158439
1409526558584,-2.731784,14.289793,1.0803835,1.9975963,9.471772,1.5702038
1409526558589,-2.2511482,11.917738,0.3669114,1.9848416,9.478386,1.5462788
1409526558616,-2.3289597,10.192716,1.4544775,1.9521428,9.478681,1.5856068
1409526558624,-2.420538,10.168175,2.4007857,1.8878493,9.476654,1.6731544
1409526558628,-2.1290438,10.171167,1.0767922,1.7971245,9.478109,1.7624305
1409526558629,-1.8423382,9.500791,-0.34596214,1.7092493,9.486801,1.8026252
1409526558653,-1.6478093,8.93576,-0.37708676,1.6273961,9.501447,1.8012457
1409526558655,-1.4694413,8.823232,-0.3298013,1.5604174,9.51424,1.7929659
1409526558657,-0.4309563,9.039907,-0.009576807,1.5061104,9.522973,1.7930479
1409526558681,0.30346507,8.7609825,0.5434838,1.4637063,9.530186,1.7898371
1409526558683,0.99179804,8.637681,0.79128367,1.4245116,9.540066,1.7687052
1409526558687,1.4024036,9.25359,0.90500826,1.3817512,9.554108,1.7263192
1409526558725,1.8405426,10.041282,1.1953052,1.3311185,9.570649,1.6736745
1409526558729,1.8561049,9.82341,1.1905168,1.2747935,9.5861225,1.6283584
1409526558730,1.4862007,9.448118,1.115698,1.2115644,9.599066,1.6001399
1409526558761,0.79248077,9.333197,1.0696096,1.1417453,9.611241,1.5782461
1409526558763,0.11192893,9.189545,0.7763199,1.0605121,9.625321,1.5488424
1409526558764,-0.39205053,9.01776,0.36152446,0.96991605,9.643413,1.4947363
1409526558767,-0.7745243,8.8328085,-0.054468088,0.873578,9.663629,1.4218086
1409526558768,-0.9528923,8.805275,-0.3441665,0.77703834,9.682548,1.3471681
1409526558775,-0.9995792,8.80767,-0.6584055,0.68540466,9.69838,1.2814205
1409526558787,-1.3688848,8.89446,-0.8678981,0.6056008,9.710949,1.2251945
1409526558807,-1.3293805,9.381081,-0.22864626,0.5390463,9.720875,1.1766076
1409526558808,-1.1575965,9.973646,0.3657143,0.48557806,9.727368,1.1458358
1409526558819,-1.009156,9.734225,0.87687635,0.43897194,9.72992,1.1429526
1409526558836,-0.7314286,9.030331,0.83856916,0.3908297,9.728686,1.1706058
1409526558837,-0.641646,8.306683,0.25558102,0.340455,9.72616,1.2067665
1409526558852,-0.25797522,7.9170265,0.21188685,0.2751958,9.72448,1.2365922
1409526558855,0.16340427,8.268375,0.2124854,0.19583602,9.725606,1.2428327
1409526558875,0.58298814,8.452729,0.12030864,0.10830956,9.72926,1.2248034
1409526558893,1.3808558,8.471284,0.14065935,0.018489558,9.733522,1.1952425
1409526558894,2.1266496,8.513183,0.41599256,-0.06807007,9.736283,1.1706994
1409526558896,2.4486697,8.459313,0.7990648,-0.146515,9.735978,1.1660424
1409526558907,2.492364,8.241441,1.1192893,-0.2165133,9.731488,1.1923277
1409526558928,2.705448,8.087015,1.6478093,-0.28239337,9.722399,1.2512393
1409526558939,2.4881742,7.603386,1.8656816,-0.34563318,9.709337,1.3340571
1409526558940,2.461838,7.189788,1.34195,-0.4124065,9.694074,1.4231153
1409526558955,2.360683,7.133524,0.985214,-0.48109493,9.678222,1.5069699
1409526558956,2.5899277,7.465121,0.8086416,-0.5548016,9.663517,1.5745014
1409526558971,2.7569232,7.885902,1.0121487,-0.6278951,9.650902,1.6236453
1409526558974,2.8562827,8.508394,1.2437878,-0.6937753,9.639996,1.6611978
1409526558987,2.7210102,8.674192,1.9033904,-0.7475965,9.63048,1.6927367
1409526559004,2.5923219,8.821436,2.315193,-0.7949618,9.620089,1.7298315
1409526559006,1.9985598,8.932168,2.4361002,-0.8394696,9.607598,1.7775707
1409526559019,1.6484078,9.366715,2.4558525,-0.8859728,9.593517,1.8302649
1409526559036,1.9829975,10.055049,1.8734628,-0.9298062,9.580148,1.8779312
1409526559037,2.9616275,9.904813,0.8367735,-0.9633378,9.5706625,1.9091307
1409526559053,3.1914709,10.392631,1.6041151,-0.9869901,9.5650625,1.9250567
1409526559054,2.5354595,10.821193,2.3666685,-1.003126,9.561926,1.9322773
1409526559076,1.5269021,11.053431,2.7431567,-1.0210265,9.559315,1.9358249
1409526559077,0.5722142,11.200075,2.6701334,-1.0463064,9.555271,1.9422771
1409526559087,-0.007182605,11.13244,2.5833437,-1.0754572,9.551182,1.9464673
1409526559111,-0.46208093,11.204266,2.3636756,-1.1006057,9.550748,1.9344875
1409526559113,-0.64583594,10.694301,1.7968484,-1.1168507,9.556655,1.8956218
1409526559126,-0.5255273,10.320805,1.2018893,-1.1154879,9.568397,1.8362665
1409526559144,-0.20530279,10.1143055,1.3269863,-1.0922648,9.584094,1.7670559
1409526559146,-0.22864626,9.465476,0.8403648,-1.0517195,9.602674,1.6890643
1409526559148,-0.98700964,8.357559,0.17238252,-0.99865973,9.625064,1.5909809
1409526559156,-2.0578163,6.979098,-0.031124622,-0.94588286,9.648008,1.4804171
1409526559179,-3.3650506,6.583456,-0.57041854,-0.88045746,9.672009,1.3592005
1409526559180,-3.6984432,7.7967176,-1.1001357,-0.8016111,9.696765,1.2249779
1409526559187,-4.068946,10.302849,-0.94451255,-0.7031318,9.72163,1.0797697
1409526559211,-3.9504328,14.475344,-0.415394,-0.5855163,9.743229,0.947139
1409526559212,-2.7724855,19.115906,-0.6003461,-0.45195758,9.758931,0.8540419
1409526559216,-1.6041151,19.608511,-0.7428011,-0.28939694,9.770496,0.7899558
1409526559248,-2.5234885,19.24998,0.6679823,-0.105150886,9.777318,0.75059384
1409526559249,-2.1817162,15.214553,1.3587095,0.040617988,9.777178,0.7586282
1409526559250,-1.2749124,10.314221,2.2307975,0.15858306,9.771119,0.81882656
1409526559255,-1.3000516,7.7230964,3.6014779,0.25399178,9.761191,0.9083007
1409526559279,-4.3580456,8.990228,4.38917,0.33323118,9.746339,1.0335526
1409526559280,-3.176507,11.92492,3.1836896,0.35878134,9.730478,1.1659601
1409526559290,-1.2473791,11.266515,1.7070658,0.38764042,9.718874,1.2504436
1409526559323,-0.8002619,8.929175,1.2755109,0.47494888,9.713074,1.2653145
1409526559324,-0.32561144,7.065289,1.8267759,0.61541295,9.708128,1.2425349
1409526559325,1.2575544,8.233061,2.8508956,0.76956517,9.69992,1.2205395
1409526559348,2.2278047,8.541913,2.7371712,0.9285805,9.686385,1.2174172
1409526559349,2.4768016,8.172607,1.8249803,1.0933056,9.668563,1.2222898
1409526559350,1.9835961,7.4711065,0.7272388,1.2428248,9.650387,1.2230414
1409526559355,1.8447324,6.8827314,0.15741876,1.3613901,9.63449,1.2221398
1409526559372,1.5544355,5.805939,0.17776948,1.4655175,9.618743,1.2257396
1409526559389,1.4873978,4.8841715,0.42916065,1.5502478,9.602415,1.2493035
1409526559390,1.4407109,4.210802,0.81343,1.6227483,9.583977,1.2978793
1409526559404,1.3748703,3.9402575,1.192911,1.6892072,9.563014,1.3659228
1409526559407,1.3359646,4.024653,1.4646529,1.7542759,9.540345,1.4403979
1409526559419,1.553837,4.3341036,1.5783775,1.8179958,9.517493,1.5108286
1409526559434,1.7112557,4.5675383,1.5436616,1.8780797,9.49569,1.5732298
1409526559435,1.8992004,4.968567,1.5640123,1.9309541,9.476263,1.6255069
1409526559451,2.2098482,5.4857144,1.590947,1.9742439,9.46041,1.6653533
1409526559455,2.5234885,6.0010667,1.6998832,2.008041,9.44882,1.690544
1409526559468,2.8060043,6.6546836,2.0536265,2.0304785,9.442334,1.6999693
1409526559484,2.9987376,7.165247,2.392406,2.0471854,9.438154,1.703131
1409526559489,3.127426,7.4854717,2.666542,2.046843,9.439442,1.696396
1409526559504,3.4889505,7.903858,2.89459,2.0263603,9.446551,1.6813498
1409526559507,3.9109285,8.616732,3.132813,1.9863061,9.458876,1.6597154
1409526559521,4.347272,9.898229,3.2357635,1.9295988,9.475155,1.6335515
1409526559534,4.7309427,11.289858,3.292626,1.8619207,9.494034,1.602174
1409526559535,3.7475243,11.14441,3.5972881,1.7925066,9.513569,1.5650266
1409526559551,3.8307228,10.576984,3.441665,1.7178043,9.53363,1.5262522
1409526559555,2.9047651,10.250176,3.4572272,1.6585125,9.551309,1.4806172
1409526559567,1.3431472,13.498509,4.0863037,1.6097938,9.566683,1.4344026
1409526559585,1.2802993,16.78096,2.719813,1.5494673,9.581216,1.403523
1409526559587,1.9973627,15.964537,0.23403321,1.488097,9.593613,1.385124
1409526559604,3.8259344,13.482946,-1.2964603,1.4720374,9.598896,1.3655372
1409526559607,5.590461,8.575432,3.0095115,1.5169482,9.593167,1.3566201
1409526559620,5.0996494,10.090961,9.8677025,1.6033102,9.568657,1.4284928
1409526559635,5.229535,17.068863,10.268731,1.7089243,9.522248,1.6052325
1409526559635,4.5394063,19.608511,3.9336734,1.8268718,9.4679,1.7865694
