time,acc_x,acc_y,acc_z,gravity_x,gravity_y,gravity_z
1409350418009,-0.28909984,9.462483,2.7605145,-0.22336511,9.405407,2.767457
1409350418015,-0.25857377,9.446322,2.801216,-0.22493397,9.405149,2.7682066
1409350418035,-0.22744916,9.417592,2.813187,-0.2267948,9.40501,2.7685266
1409350418036,-0.23582886,9.366715,2.8443117,-0.2287433,9.404657,2.7695656
1409350418051,-0.24540567,9.363723,2.8568811,-0.2307821,9.403789,2.7723453
1409350418067,-0.24241292,9.357738,2.8209682,-0.2324518,9.402764,2.7756808
1409350418068,-0.26156655,9.36073,2.791639,-0.23358168,9.401877,2.7785835
1409350418090,-0.25558102,9.372701,2.7724855,-0.23433512,9.401141,2.7810123
1409350418093,-0.26156655,9.415796,2.7461493,-0.23479865,9.400471,2.7832394
1409350418095,-0.25857377,9.4217825,2.7581203,-0.23541357,9.40018,2.7841678
1409350418117,-0.21667525,9.399037,2.7521348,-0.23606063,9.400097,2.784393
1409350418118,-0.18674773,9.39365,2.7886465,-0.23620589,9.400072,2.7844648
1409350418130,-0.19692309,9.446322,2.834735,-0.2358733,9.400103,2.7843904
1409350418135,-0.19931729,9.45171,2.8221653,-0.23545039,9.40018,2.784166
1409350418157,-0.23882163,9.442133,2.7970262,-0.23491234,9.400442,2.7833238
1409350418158,-0.25139117,9.446322,2.814384,-0.23458938,9.400854,2.7819607
1409350418171,-0.25797522,9.404425,2.8209682,-0.23445232,9.4012,2.780803
1409350418190,-0.2645593,9.4217825,2.8329391,-0.23471448,9.401242,2.7806396
1409350418191,-0.2621651,9.421184,2.818574,-0.2358318,9.400964,2.7814844
1409350418196,-0.17896658,9.45171,2.789245,-0.23779081,9.400494,2.7829056
1409350418227,-0.16998832,9.419987,2.7760768,-0.2392147,9.400204,2.7837653
1409350418229,-0.17836803,9.413403,2.818574,-0.24032326,9.399994,2.784378
1409350418232,-0.18495208,9.415796,2.8203697,-0.24085253,9.399458,2.7861428
1409350418237,-0.2136825,9.414599,2.8215668,-0.24138212,9.39881,2.78828
1409350418262,-0.22625206,9.409213,2.8473043,-0.2425345,9.398162,2.7903626
1409350418263,-0.24540567,9.424176,2.8508956,-0.24416123,9.397654,2.7919333
1409350418267,-0.24839842,9.399636,2.8455088,-0.24603578,9.397297,2.7929692
1409350418292,-0.23044191,9.375694,2.854487,-0.2484107,9.396925,2.7940092
1409350418295,-0.21188685,9.3421755,2.859874,-0.25080988,9.396701,2.7945461
1409350418296,-0.22505496,9.334992,2.8652608,-0.2529042,9.396263,2.795833
1409350418317,-0.24121583,9.331401,2.8520927,-0.2553142,9.395627,2.797753
1409350418318,-0.25438392,9.305663,2.8622682,-0.25788754,9.395166,2.7990603
1409350418333,-0.29807812,9.312846,2.8048072,-0.26033932,9.39499,2.7994246
1409350418337,-0.30526072,9.324219,2.8095956,-0.26278672,9.395121,2.7987564
1409350418357,-0.29568392,9.360131,2.8167782,-0.2648074,9.395168,2.7984047
1409350418358,-0.25378537,9.353547,2.80361,-0.26647156,9.395174,2.7982311
1409350418367,-0.18854338,9.314642,2.7688942,-0.26752865,9.395418,2.7973099
1409350418389,-0.20231004,9.288904,2.7988217,-0.26753977,9.396303,2.7943318
1409350418390,-0.1364695,9.219472,2.885013,-0.2666703,9.39767,2.7898195
1409350418396,-0.06703765,9.194333,2.9741971,-0.26521248,9.398944,2.7856624
1409350418427,0.023942016,9.241618,3.0603883,-0.26438656,9.399668,2.7832978
1409350418428,0.11791443,9.200917,3.1723173,-0.26466832,9.40026,2.7812707
1409350418429,0.18495208,9.248202,3.2148144,-0.26583824,9.401276,2.77772
1409350418436,0.19692309,9.368511,3.1860838,-0.26774815,9.40289,2.7720685
1409350418459,0.130484,9.415198,3.1495724,-0.27060586,9.405208,2.7639203
1409350418460,0.008978256,9.455899,3.0783448,-0.27488196,9.407996,2.7539861
1409350418486,-0.1328782,9.463082,2.9574378,-0.28071928,9.411677,2.7407882
1409350418488,-0.2136825,9.455899,2.8790276,-0.28877282,9.415609,2.726408
1409350418489,-0.2220622,9.555259,2.9370868,-0.29875118,9.419457,2.7120028
1409350418496,-0.30705637,9.559449,2.8880057,-0.30995005,9.423155,2.6978655
1409350418520,-0.34117374,9.673772,2.819771,-0.32298633,9.426752,2.6837306
1409350418521,-0.3429694,9.703101,2.8191724,-0.33724606,9.4314575,2.6653848
1409350418530,-0.2741361,9.567828,2.9101522,-0.35270694,9.436732,2.6446333
1409350418537,-0.16879122,9.419987,3.071761,-0.36870882,9.44033,2.6295667
1409350418564,-0.16160862,9.227253,3.1747115,-0.38333502,9.441862,2.621963
1409350418566,-0.2160767,9.077017,3.289633,-0.3964169,9.442908,2.6162426
1409350418568,-0.45609543,8.9998045,3.0256724,-0.40920448,9.444083,2.6100268
1409350418601,-0.7230489,9.145252,3.0334535,-0.42205402,9.447732,2.5947294
1409350418603,-0.7194576,9.264962,3.0053217,-0.43878978,9.454528,2.5670538
1409350418605,-0.7164649,9.345168,2.9257145,-0.45773324,9.463405,2.5307794
1409350418639,-0.66259533,9.48044,2.8137856,-0.47562197,9.471848,2.4956508
1409350418641,-0.8062474,9.581595,2.3870192,-0.49155632,9.480332,2.4600983
1409350418642,-0.7308301,9.8754835,1.8956091,-0.50848407,9.491373,2.4136455
1409350418645,-0.3728969,10.059238,2.2050598,-0.5247715,9.506473,2.3498967
1409350418650,-0.44113165,9.985617,2.304419,-0.5360367,9.520915,2.2880592
1409350418672,-0.45130703,9.81503,2.203264,-0.5473817,9.530496,2.245088
1409350418673,-0.6955156,9.604341,2.343325,-0.55789167,9.536546,2.216628
1409350418676,-0.45310268,9.34397,2.3953989,-0.56598026,9.540826,2.1960683
1409350418703,-0.4321534,8.89805,2.3930047,-0.5641721,9.541394,2.1940637
1409350418704,-0.5117606,9.081207,2.2559366,-0.55065995,9.538029,2.21205
1409350418710,-0.6290765,9.178172,2.4073699,-0.52700526,9.534436,2.233197
1409350418716,-0.50757074,9.127894,2.4181437,-0.5013561,9.531978,2.249542
1409350418737,-0.51714754,9.549872,2.256535,-0.48081192,9.529443,2.2647111
1409350418738,-0.8146271,9.637859,2.042254,-0.4665455,9.52725,2.2768896
1409350418748,-0.7457938,9.601946,1.8854338,-0.4630939,9.5270405,2.278476
1409350418768,-0.23882163,9.94312,1.809418,-0.47221243,9.528211,2.2716973
1409350418789,-0.093373865,9.859921,1.869273,-0.48199528,9.53036,2.2605948
1409350418790,-0.2693477,9.649231,1.9422961,-0.48971945,9.533012,2.2477212
1409350418791,-0.6398504,9.570223,2.1972785,-0.4981132,9.537032,2.2287438
1409350418796,-0.7368156,9.69532,2.1458032,-0.508214,9.541683,2.2064397
1409350418811,-0.6889315,9.809045,1.8608932,-0.5177432,9.546054,2.1852188
1409350418816,-0.51116204,9.965864,1.5574282,-0.5245216,9.549138,2.1700785
1409350418830,-0.28909984,9.978435,1.5179238,-0.5254612,9.552388,2.1554987
1409350418846,-0.20290859,9.80665,1.7489643,-0.5212799,9.556542,2.1380272
1409350418848,-0.36032736,9.48882,2.047641,-0.5146131,9.559788,2.1250954
1409350418866,-0.5614403,9.375694,2.1751323,-0.50825846,9.560119,2.1251328
1409350418868,-0.5955577,9.570822,2.0632033,-0.5026733,9.558335,2.1344619
1409350418880,-0.4165911,9.791686,1.9045875,-0.49737698,9.557616,2.1389205
1409350418898,-0.3561375,9.649231,1.7286136,-0.49126726,9.558433,2.1366813
1409350418898,-0.3561375,9.416994,1.7423803,-0.4865981,9.5615835,2.1236143
1409350418913,-0.29149407,9.244612,1.8764555,-0.4852207,9.565488,2.1062791
1409350418916,-0.31304187,9.133281,1.9470845,-0.48540714,9.568376,2.0930753
1409350418929,-0.33638534,9.1272955,2.0213048,-0.48613665,9.569506,2.0877252
1409350418945,-0.38726214,9.141062,2.023699,-0.4878902,9.569723,2.0863252
1409350418963,-0.077811554,9.100959,1.8447324,-0.49201518,9.570497,2.0818093
1409350418964,-0.05805939,9.3343935,1.8746599,-0.49613312,9.573095,2.0688317
1409350418979,-0.05805939,9.644443,1.8315643,-0.50313044,9.577135,2.0483477
1409350418979,-0.01316811,9.746795,1.7477672,-0.5128993,9.58215,2.022312
1409350418997,-0.3274071,9.722255,1.7004818,-0.52250093,9.587813,1.9927942
1409350418997,-0.5722142,9.770737,1.6962919,-0.5344047,9.593663,1.9612277
1409350419012,-0.7302315,10.071808,1.7651252,-0.5488205,9.599734,1.9272488
1409350419016,-0.7727286,10.240001,1.7411832,-0.57043844,9.604157,1.8987293
1409350419028,-0.878672,10.43034,1.685518,-0.5987243,9.605544,1.8829391
1409350419045,-0.89064306,10.645219,1.472434,-0.63091743,9.605284,1.8737335
1409350419048,-0.6985083,10.733206,1.3910311,-0.663269,9.605705,1.8603532
1409350419061,-0.51116204,10.812215,1.4921862,-0.68990976,9.607186,1.8429285
1409350419078,-0.48003745,10.384252,1.6849195,-0.7056322,9.608407,1.8305694
1409350419081,-0.5883751,10.210073,1.7411832,-0.71041507,9.607921,1.8312726
1409350419094,-0.7433996,10.432734,1.7675194,-0.7096581,9.606391,1.8395782
1409350419097,-1.003769,10.923545,1.7986441,-0.7076415,9.604685,1.8492285
1409350419126,-1.0109516,12.073959,1.6927006,-0.7063892,9.6029825,1.8585318
1409350419127,-1.0163386,12.920908,1.4951789,-0.70099956,9.602387,1.86363
1409350419132,-1.0935516,11.514913,1.3455414,-0.6912977,9.603685,1.8605765
1409350419152,-0.66139823,9.889849,1.2934675,-0.6861714,9.607535,1.8425071
1409350419153,-0.8122329,9.422979,1.407192,-0.6845605,9.612603,1.8164824
1409350419157,-0.87208796,8.7849245,1.4838065,-0.68723553,9.614565,1.8050562
1409350419184,-0.91338795,8.226477,1.5741876,-0.69294894,9.6134,1.8090749
1409350419185,-0.8146271,7.832032,1.5472529,-0.6980676,9.610792,1.8209336
1409350419190,-0.7727286,8.2115135,1.7232267,-0.69683164,9.607656,1.8378783
1409350419197,-0.7715315,9.288305,1.7950528,-0.68974054,9.604291,1.8580261
1409350419218,-0.8218097,10.290877,1.8112136,-0.6811507,9.601105,1.877562
1409350419219,-0.85772276,10.004171,1.9381063,-0.67080724,9.598658,1.8937271
1409350419228,-0.94451255,9.644443,1.9021933,-0.659118,9.597887,1.9017116
1409350419252,-0.98102415,8.879496,1.8166006,-0.6469693,9.599683,1.8968157
1409350419253,-1.0348936,8.034941,1.6292542,-0.63645375,9.604315,1.8768291
1409350419257,-1.0205284,7.744644,1.5298948,-0.6312515,9.61149,1.8415192
1409350419290,-0.9684546,8.094796,1.4221559,-0.6349021,9.619444,1.7982179
1409350419291,-0.8655039,8.618527,1.3485341,-0.6481606,9.626897,1.7530303
1409350419292,-0.7505822,8.321048,1.2425907,-0.6642127,9.633318,1.7112591
1409350419297,-0.49200845,9.47206,1.2072762,-0.67714435,9.638356,1.6774826
1409350419313,-0.1436521,9.149442,1.3994108,-0.68335843,9.643329,1.646099
1409350419317,-0.009576807,8.72507,1.316811,-0.6840204,9.648198,1.6170295
1409350419331,-0.18555063,9.279925,1.0372878,-0.6812433,9.653468,1.5864562
1409350419347,-0.4854244,9.741408,1.0546459,-0.67936176,9.66009,1.5464544
1409350419348,-0.7769185,10.093356,1.0079589,-0.6813538,9.667302,1.4998101
1409350419371,-0.9672575,10.079589,1.1097125,-0.68875295,9.673725,1.4543226
1409350419372,-0.9876082,10.095152,1.0618285,-0.70195144,9.678365,1.416652
1409350419377,-0.78410107,10.175357,0.86610246,-0.71838063,9.681542,1.3863813
1409350419402,-0.6733692,10.060435,0.89782566,-0.7318372,9.684032,1.3617332
1409350419403,-0.62009823,9.863512,0.8924387,-0.7395526,9.686112,1.3426427
1409350419408,-0.76195467,9.922769,0.8900445,-0.7441069,9.687785,1.3279759
1409350419417,-0.99778354,10.073005,0.8900445,-0.75092596,9.689123,1.3143051
1409350419435,-0.9068039,10.114903,0.8912416,-0.76214933,9.690108,1.3004993
1409350419437,-0.7398083,10.149619,0.9720459,-0.77706194,9.690846,1.2861042
1409350419448,-0.6835446,10.191518,1.0761937,-0.7868784,9.691479,1.2753286
1409350419476,-0.6991069,10.181941,1.3335704,-0.78774524,9.69146,1.2749504
1409350419477,-0.80086046,10.569802,1.400608,-0.7822548,9.690367,1.2865777
1409350419478,-0.8631097,10.251373,1.1881226,-0.77171123,9.689134,1.3021313
1409350419500,-0.9648633,9.949105,1.021127,-0.7587495,9.688749,1.3125632
1409350419501,-1.0702082,9.670779,1.0360907,-0.7498729,9.68873,1.3177882
1409350419509,-1.0378864,9.288904,1.3856442,-0.75072867,9.687869,1.3236241
1409350419531,-1.0085574,8.966286,1.4335283,-0.7579665,9.685798,1.3346225
1409350419532,-0.9295488,9.139266,1.5071499,-0.76615274,9.683486,1.346663
1409350419550,-0.9463082,9.607931,1.5711949,-0.7729063,9.681331,1.3582611
1409350419551,-0.9935937,9.707291,1.4269443,-0.77802175,9.679821,1.3660768
1409350419557,-1.0007763,9.492412,1.3599066,-0.78341424,9.67945,1.365622
1409350419585,-1.0145429,9.457097,1.1953052,-0.78874743,9.679798,1.360069
1409350419586,-1.0049661,9.507375,1.0348936,-0.7935282,9.68072,1.3506898
1409350419589,-0.8415619,9.403826,0.9415198,-0.79853874,9.682079,1.3379303
1409350419597,-0.80445176,9.901819,1.0384849,-0.8017124,9.68374,1.3239374
1409350419628,-0.87089086,10.40939,1.0827777,-0.8031848,9.685171,1.3125451
1409350419630,-0.86251116,10.368091,1.1911154,-0.80573946,9.685802,1.3063018
1409350419632,-1.1025299,10.03769,1.5496471,-0.8101707,9.685074,1.3089509
1409350419665,-1.2970588,9.758766,1.8387469,-0.8183678,9.682904,1.3198633
1409350419667,-1.1402385,9.853337,1.6759412,-0.8307465,9.678753,1.3423849
1409350419668,-1.2180501,9.8042555,1.4766239,-0.8396032,9.674961,1.3640263
1409350419700,-1.3772645,9.910798,1.3670892,-0.84501845,9.672774,1.3761411
1409350419701,-1.3976152,10.25257,1.4281414,-0.8532436,9.671239,1.3818542
1409350419702,-1.1480197,10.785878,1.4496891,-0.8649308,9.669211,1.3887615
1409350419702,-0.8523358,11.574768,1.6017209,-0.8724124,9.666971,1.3996214
1409350419708,-0.79248077,11.750742,1.5580268,-0.8697578,9.66502,1.414688
1409350419732,-0.9475053,10.38066,1.7776948,-0.8593711,9.663795,1.4293097
1409350419733,-1.2246342,9.647436,1.9728222,-0.8504592,9.6622095,1.4452748
1409350419737,-1.283292,9.9951935,2.0326772,-0.85053635,9.659642,1.462292
1409350419749,-1.027711,9.900622,2.0093338,-0.8558795,9.657006,1.4765123
1409350419777,-0.6901286,10.060435,1.958457,-0.8703347,9.65402,1.4875516
1409350419778,-0.664391,9.968858,1.9165585,-0.88501996,9.651175,1.4973247
1409350419779,-0.52133745,8.14268,1.8836381,-0.894576,9.649324,1.5035564
1409350419800,-0.74639237,7.989451,2.0973208,-0.8961457,9.649109,1.5039977
1409350419801,-0.9804256,7.9631147,2.2319946,-0.8932617,9.650101,1.4993472
1409350419809,-1.0540473,8.485051,2.211644,-0.8927982,9.651044,1.4935447
1409350419836,-1.0402806,8.9519205,2.1984756,-0.89531016,9.651383,1.4898405
1409350419837,-0.90381116,8.782531,2.1260512,-0.89545393,9.651937,1.486158
1409350419838,-0.88405895,9.081207,2.0847511,-0.89132255,9.653454,1.4787749
1409350419869,-0.97623575,9.718663,1.9746178,-0.88736033,9.655254,1.4693694
1409350419870,-0.96546185,9.193734,1.8531121,-0.88713676,9.657228,1.4564695
1409350419871,-1.0151415,9.5809965,1.7914615,-0.8910247,9.659343,1.4399972
1409350419877,-0.9935937,9.51755,1.7962499,-0.89885324,9.66146,1.4207915
1409350419903,-0.55006784,9.704897,1.7076644,-0.9079674,9.663254,1.4026814
1409350419905,-0.6302736,9.813833,1.6089035,-0.90926063,9.665766,1.3844215
1409350419912,-0.74399817,9.797672,1.371279,-0.9053011,9.669134,1.3633412
1409350419944,-1.110311,10.580576,1.1737574,-0.90009624,9.673394,1.3362901
1409350419945,-1.4933833,11.123461,1.1204864,-0.90080965,9.67793,1.3025404
1409350419946,-1.7052702,11.623849,1.2695254,-0.9110341,9.681514,1.2683395
1409350419974,-1.5113398,10.841544,1.4371196,-0.92920685,9.682977,1.2437603
1409350419975,-1.4047978,11.071986,1.4496891,-0.94775754,9.683079,1.2288784
1409350419976,-0.85054016,9.595961,1.6861166,-0.964488,9.681436,1.2288089
1409350419978,-0.9151836,8.016984,1.8249803,-0.9722586,9.678804,1.2433277
1409350420003,-1.073201,8.330625,2.0398598,-0.97633016,9.6759,1.2625808
1409350420005,-1.1127052,8.961497,2.0368671,-0.9798858,9.673456,1.2784646
1409350420009,-0.93972415,9.102755,1.7818847,-0.98360306,9.67172,1.2887089
1409350420034,-0.9259575,9.494206,1.6478093,-0.98376614,9.671331,1.2914877
1409350420034,-0.7290344,9.330803,1.4431051,-0.9829776,9.67186,1.2881354
1409350420037,-0.7272388,9.441534,1.42455,-0.98086137,9.67293,1.2816858
1409350420086,-0.7428011,9.044696,1.3988123,-0.97894,9.673855,1.276158
1409350420087,-0.8002619,8.137293,1.4634558,-0.9804221,9.674282,1.2717887
1409350420089,-0.8631097,8.835203,1.3587095,-0.98492026,9.674275,1.2683512
1409350420095,-0.6997054,10.010756,1.2401965,-0.99191,9.674497,1.2611926
1409350420095,-0.53450555,9.936536,1.2192472,-0.99493283,9.675609,1.2502514
1409350420097,-0.56443304,9.43914,1.2797008,-0.99100137,9.677023,1.2423949
1409350420112,-0.5542577,8.773552,1.3784616,-0.98190475,9.678366,1.2391596
1409350420131,-0.6979098,8.224083,1.3521254,-0.97164667,9.679364,1.2394296
1409350420131,-0.7158663,7.744644,1.4209588,-0.9650851,9.679788,1.2412562
1409350420145,-0.7625532,7.651869,1.4682442,-0.9620161,9.680017,1.2418425
1409350420160,-0.6895301,7.662044,1.5981296,-0.9623589,9.6802845,1.2394857
1409350420161,-0.64703304,8.101978,1.7615339,-0.96376085,9.680629,1.2357202
1409350420174,-0.5363012,9.241618,1.4802152,-0.9641627,9.681079,1.2318594
1409350420177,-0.45789108,9.750386,1.0426749,-0.95817286,9.683049,1.2210155
1409350420193,-0.46806642,9.668385,1.1653777,-0.9438059,9.6875515,1.1962376
1409350420198,-0.40282443,9.449914,1.2952632,-0.9244749,9.693067,1.1662813
1409350420213,-0.43993455,9.279327,1.2036849,-0.9066943,9.697461,1.1434733
1409350420226,-0.45370123,8.901642,0.9923966,-0.89280194,9.7006855,1.1269494
1409350420229,-0.56682724,8.234857,0.81043726,-0.88178754,9.70345,1.1117034
1409350420243,-0.80325466,7.8344264,0.8750807,-0.8757912,9.705323,1.100048
1409350420265,-0.9528923,7.545925,1.0313023,-0.87434334,9.705811,1.0968969
1409350420266,-1.0271125,7.2664022,1.110311,-0.8750813,9.704998,1.1034733
1409350420272,-0.015562311,7.961918,1.5119383,-0.8781278,9.702939,1.1190374
1409350420278,-0.15562311,9.224859,1.922544,-0.8745251,9.700847,1.1398259
1409350420300,-0.53689975,10.564415,2.03148,-0.8684499,9.698217,1.1665151
1409350420301,-0.9463082,11.306618,1.8483237,-0.86331695,9.695593,1.1918577
1409350420309,-1.003769,12.486361,1.5436616,-0.86532974,9.693251,1.2093338
1409350420333,-1.4215573,14.647726,0.86131406,-0.86990446,9.692247,1.2140934
1409350420334,-2.0147207,14.708179,0.10295067,-0.87152743,9.694561,1.1942805
1409350420338,-2.2170308,12.582129,-0.33518824,-0.8749895,9.699049,1.1546628
1409350420370,-1.9476831,11.118074,-0.33877954,-0.8883573,9.702067,1.118523
1409350420371,-1.6645688,10.422559,0.142455,-0.904875,9.702662,1.0999603
1409350420372,-1.407192,9.770139,0.6703765,-0.91590345,9.701153,1.1041467
1409350420378,-1.4347254,9.631873,1.2659341,-0.92216194,9.698522,1.1219097
1409350420398,-1.1127052,9.609727,1.6166847,-0.9289596,9.694013,1.1547949
1409350420399,-0.8924387,9.5809965,1.8285716,-0.93540424,9.688438,1.1956483
1409350420409,-0.9008184,10.068216,1.8920178,-0.9403268,9.682464,1.2393893
1409350420429,-0.84814596,10.656591,1.7064673,-0.94613373,9.6765785,1.2802602
1409350420430,-0.7457938,10.209475,1.22224,-0.95256263,9.672119,1.3088742
1409350420447,-0.9187749,9.916184,0.9044097,-0.9542729,9.6709385,1.3163252
1409350420450,-0.9672575,9.72824,0.87687635,-0.95453566,9.67238,1.3054812
1409350420458,-1.0791864,9.446921,1.1522095,-0.9570888,9.673989,1.2916198
1409350420480,-1.1001357,9.6049385,1.4951789,-0.9625544,9.6739855,1.287593
1409350420481,-1.0660183,9.613917,1.4496891,-0.9674548,9.672212,1.2972084
1409350420501,-1.252766,9.661202,1.4323312,-0.9706559,9.669965,1.3114848
1409350420502,-1.1162965,10.012551,1.2725182,-0.97407126,9.667257,1.3288106
1409350420512,-0.931943,10.099341,1.0881647,-0.9789137,9.665238,1.3398867
1409350420531,-0.7356185,10.081984,1.0564415,-0.98546857,9.6639185,1.3445956
1409350420532,-0.66139823,10.023325,0.98102415,-0.98771197,9.663507,1.3458921
1409350420538,-0.6925228,9.955689,1.062427,-0.9860373,9.6638155,1.344913
1409350420567,-0.6757634,9.889849,1.2162545,-0.98264706,9.663937,1.346517
1409350420568,-0.7170634,9.731233,1.2419921,-0.9770649,9.6630535,1.356884
1409350420574,-0.8158242,9.3583355,1.3443443,-0.9695795,9.661053,1.3763521
1409350420578,-0.8295909,9.024943,1.4030021,-0.9619188,9.658286,1.4009289
1409350420598,-0.61650693,8.852561,1.2695254,-0.9561457,9.654881,1.4280981
1409350420599,-0.7015011,9.001001,1.8088194,-0.94997203,9.651419,1.4553561
1409350420610,-0.83138657,9.180567,2.1134815,-0.9450033,9.646793,1.4888719
1409350420631,-0.9008184,9.065644,1.8986019,-0.9416566,9.641464,1.5250679
1409350420632,-0.9983821,8.870518,1.7106571,-0.9367355,9.637627,1.5521172
1409350420638,-1.1641805,8.645462,1.448492,-0.92981946,9.6363535,1.5641361
1409350420665,-0.80684596,9.626487,1.536479,-0.92528236,9.635256,1.573568
1409350420666,-0.8690952,9.972448,1.7393875,-0.9158967,9.635868,1.5753028
1409350420670,-0.82779527,10.31063,1.7220296,-0.9010721,9.636034,1.582817
1409350420678,-1.0139444,10.178948,1.5412674,-0.88605714,9.63632,1.5895313
1409350420700,-1.0833763,9.880272,1.4000094,-0.87754124,9.637811,1.5852128
1409350420702,-1.0869676,9.583989,1.3389573,-0.8750974,9.639927,1.5736551
1409350420710,-0.760159,9.932944,1.5382746,-0.8751991,9.643539,1.5513165
1409350420731,-0.4902128,9.986216,1.6645688,-0.87560064,9.647458,1.5265157
1409350420732,-0.40761283,10.029311,1.5676036,-0.87522453,9.650825,1.5053087
1409350420738,-0.4914099,10.392631,1.5143325,-0.86946726,9.655006,1.4816362
1409350420766,-0.78410107,10.724228,1.4401124,-0.85586107,9.661075,1.4496576
1409350420767,-0.9487024,10.863091,1.1665748,-0.83971393,9.6682,1.4110937
1409350420770,-1.0324994,10.723031,0.95588505,-0.82479984,9.675725,1.367638
1409350420778,-1.163582,10.539874,1.0121487,-0.81066525,9.683178,1.3226012
1409350420798,-1.2072762,10.518327,1.2000936,-0.79778737,9.689474,1.2837434
1409350420799,-1.0289081,10.615292,1.09834,-0.7880273,9.693844,1.2565029
1409350420813,-0.9636662,10.574591,1.0773908,-0.7775278,9.697744,1.2327151
1409350420830,-0.9576807,10.355521,1.0911574,-0.7630004,9.701121,1.2151053
1409350420831,-0.79846627,10.329185,1.134253,-0.7439871,9.70408,1.2032074
1409350420838,-0.8936358,10.315418,1.2000936,-0.72165513,9.706421,1.1979104
1409350420868,-0.96426475,10.1143055,1.1935096,-0.6983324,9.708171,1.1975662
1409350420869,-1.0672154,9.747394,1.3664906,-0.6733663,9.71017,1.1956372
1409350420872,-1.0564415,9.850943,1.5358804,-0.6476608,9.712371,1.1919606
1409350420878,-0.997185,9.898827,1.3389573,-0.6256559,9.714251,1.1884037
1409350420898,-0.57041854,9.515755,0.9876082,-0.612944,9.716123,1.1796763
1409350420899,-0.13227965,8.923788,0.82360536,-0.6032742,9.719195,1.1591724
1409350420910,-0.017357962,8.751406,0.8607155,-0.5893477,9.723569,1.1292806
1409350420928,-0.15442601,8.499416,1.0696096,-0.5728002,9.72814,1.0979859
1409350420949,-0.23463176,8.5143795,1.0899603,-0.5569278,9.732102,1.0707144
1409350420950,-0.18195933,8.664616,1.0271125,-0.54478467,9.735178,1.0487661
1409350420951,-0.32561144,8.746617,0.82240826,-0.52925885,9.7383795,1.0267437
1409350420958,-0.3309984,9.227852,0.7906851,-0.5081565,9.74235,0.9994097
1409350420977,-0.32920274,9.832388,0.7194576,-0.48584467,9.746549,0.96911216
1409350420978,-0.42317516,9.040505,0.80924016,-0.46768358,9.750456,0.93822837
1409350420992,-0.52253455,9.414001,0.9331401,-0.45609775,9.753806,0.90864104
1409350421009,-0.53211135,9.501988,0.83976626,-0.45060968,9.7569275,0.87733465
1409350421010,-0.3429694,9.085397,0.6536171,-0.45012715,9.759934,0.84347856
1409350421024,-0.20709845,8.750209,0.6985083,-0.44853026,9.76311,0.8067787
1409350421043,0.10295067,9.129689,0.45250413,-0.44072044,9.766733,0.76622
1409350421043,-0.11971009,9.883265,0.25857377,-0.42261225,9.771077,0.7196195
1409350421057,-0.46267948,10.641628,0.28550854,-0.39934275,9.775741,0.6677005
1409350421058,-1.0163386,11.137826,0.45669398,-0.3797902,9.7799425,0.61552024
1409350421081,-0.6907272,11.673529,0.35194764,-0.3757985,9.782708,0.57256377
1409350421082,-0.50038815,11.910555,0.31783026,-0.3768141,9.784578,0.53889936
1409350421090,-0.37110126,11.78845,0.31244332,-0.3726479,9.786212,0.51146424
1409350421123,-0.35553896,11.343728,0.51714754,-0.3541247,9.788222,0.48547232
1409350421125,-0.27593175,10.994773,0.6063316,-0.32509735,9.790439,0.46042264
1409350421126,-0.11791443,10.471041,0.26635495,-0.29412353,9.792542,0.4358885
1409350421150,0.1604115,10.367492,0.2160767,-0.26476797,9.794528,0.40924132
1409350421150,0.3196259,10.570999,0.061650693,-0.24109453,9.796135,0.38474518
1409350421151,0.30945057,10.538078,-5.985504E-4,-0.22564766,9.797213,0.36619946
1409350421158,-0.0011971008,12.147581,0.21787235,-0.22111031,9.797693,0.35595044
1409350421179,0.31244332,12.558785,0.13347675,-0.22828911,9.797519,0.35621116
1409350421180,0.1436521,12.066178,0.350152,-0.23238984,9.797197,0.36238545
1409350421203,0.22744916,11.984177,0.4890157,-0.22885056,9.797041,0.36879942
1409350421204,-0.0017956513,11.425131,0.6739678,-0.21556583,9.797162,0.3735773
1409350421210,0.061650693,9.436148,1.0714053,-0.20119566,9.797118,0.38263038
1409350421230,0.10414778,7.6572556,0.81163436,-0.18589082,9.796848,0.3970096
1409350421231,-0.06584055,7.6285253,0.7386112,-0.16610329,9.796913,0.40407765
1409350421239,-0.10115502,7.7386584,0.7044938,-0.1442714,9.797175,0.40613458
1409350421275,-0.31364042,8.130709,0.65301853,-0.11853724,9.797719,0.4013263
1409350421276,-0.36990416,8.04751,0.26396075,-0.097399764,9.798098,0.39770752
1409350421277,-0.3681085,7.5291657,-0.18614918,-0.086436175,9.798302,0.39520344
1409350421303,-0.7009025,7.487866,0.019752163,-0.08666063,9.798509,0.3900497
1409350421303,-1.1097125,7.4345946,0.623091,-0.09845424,9.798513,0.3870593
1409350421304,-1.1019313,7.392098,0.91099375,-0.12212358,9.797841,0.39720893
1409350421312,-0.7811083,8.282143,0.9044097,-0.14992373,9.796526,0.41951486
1409350421346,-0.42437226,9.43914,0.91099375,-0.17235652,9.795122,0.44303837
1409350421347,-0.19632454,10.509348,0.8403648,-0.18608138,9.794009,0.46167117
1409350421348,-0.09876082,10.852917,0.6476316,-0.1955445,9.79313,0.47621056
1409350421367,0.015562311,11.414356,0.5267244,-0.20192339,9.792788,0.48053837
1409350421368,-0.095768064,11.161768,0.516549,-0.20639527,9.792938,0.47553605
1409350421370,-0.2873042,10.473435,0.52073884,-0.2126438,9.793248,0.4662994
1409350421399,-0.14305355,10.193314,0.40821138,-0.22247313,9.793502,0.4562889
1409350421400,-0.110731825,11.12406,0.4237737,-0.2317302,9.793796,0.44527474
1409350421401,-0.1328782,11.614272,0.32800564,-0.23903702,9.794094,0.43470952
1409350421413,-0.21667525,11.104307,0.6027403,-0.24608868,9.794359,0.42473873
1409350421435,-0.08140286,9.993398,0.62967503,-0.25632542,9.794267,0.4207564
1409350421436,0.22744916,8.394072,0.51235914,-0.26499066,9.7940445,0.42056468
1409350421439,0.18016368,7.700351,0.5793968,-0.26321605,9.794158,0.4190069
1409350421470,0.13347675,7.66384,0.5979519,-0.2558996,9.794494,0.41570905
1409350421473,0.10055647,7.510012,0.5793968,-0.23775516,9.795319,0.40691784
1409350421474,0.073023155,7.307702,0.57520694,-0.21518736,9.796265,0.39661098
1409350421502,-0.10115502,7.2550297,0.39923313,-0.19372605,9.796981,0.38990593
1409350421503,0.035913024,7.4244194,0.362123,-0.17672054,9.79745,0.38621
1409350421503,0.095768064,7.603985,0.45908818,-0.16183366,9.797725,0.38576224
1409350421510,0.23642741,7.4681134,0.34237084,-0.14975919,9.7977,0.3912328
1409350421526,0.17118542,7.385514,0.46986207,-0.14075404,9.797503,0.39939857
1409350421543,-0.08738836,7.6764092,0.777517,-0.1376289,9.797159,0.40882045
1409350421545,-0.3298013,8.0367365,0.98700964,-0.14168373,9.796609,0.4204472
1409350421571,-0.44232875,8.21271,1.1839328,-0.15078035,9.795867,0.4343331
1409350421572,-0.60214174,8.450933,1.3910311,-0.1616656,9.794983,0.45005497
1409350421573,-0.65900403,8.804078,1.4909891,-0.17666064,9.793853,0.46862057
1409350421599,-0.5267244,9.056067,1.3868413,-0.19569471,9.792514,0.48862934
1409350421600,-0.39983168,10.009559,1.0648212,-0.21406478,9.791312,0.50476974
1409350421601,-0.44232875,10.584765,0.8714894,-0.22933687,9.790506,0.5136258
1409350421612,-0.48362875,11.756727,0.39444473,-0.24134763,9.790128,0.5153104
1409350421634,-0.24959552,12.038046,0.32621,-0.24799131,9.790398,0.5069272
1409350421635,-0.39803603,11.678916,0.830788,-0.24586189,9.791037,0.49553427
1409350421639,-0.53689975,11.771092,0.91578215,-0.23874475,9.791371,0.4923878
1409350421674,-0.061052144,11.8094,0.36870706,-0.22654666,9.791632,0.4929887
1409350421675,0.34715924,12.54442,-0.30346507,-0.20487814,9.792435,0.48645666
1409350421676,0.38067806,12.729372,-1.3054385,-0.17707185,9.793993,0.4655489
1409350421702,0.16519992,11.21444,-0.7404069,-0.14982349,9.796208,0.42692193
1409350421702,-0.034117375,10.362703,-0.24660277,-0.1352721,9.797535,0.40048987
1409350421703,0.011372458,11.3562975,-1.0576386,-0.13389468,9.797717,0.39650986
1409350421725,-0.20649989,11.593323,-1.7687165,-0.13773236,9.797811,0.3928402
1409350421725,-1.3138182,9.363723,0.45310268,-0.15031332,9.797554,0.3946452
1409350421741,-1.0839748,8.137293,2.6605566,-0.18065701,9.794339,0.45678926
1409350421742,-0.8146271,8.303091,2.456451,-0.20631197,9.788044,0.5674761
1409350421758,-0.66259533,9.1255,1.8896236,-0.2160542,9.781593,0.66644615
1409350421759,-0.36870706,9.895236,1.7244238,-0.2154349,9.777145,0.72896135
1409350421773,-0.16998832,10.052056,1.3341689,-0.21077801,9.773496,0.7776573
1409350421789,0.005985504,10.128671,0.5530606,-0.20330812,9.771347,0.8061101
1409350421790,-0.10654198,10.02572,0.5267244,-0.19481385,9.770974,0.8127163
1409350421805,-0.24301147,9.876082,0.6171055,-0.188596,9.771359,0.8095453
1409350421823,-0.39145198,9.837775,0.694917,-0.18457682,9.771727,0.806051
1409350421823,-0.5279215,9.781511,0.7374141,-0.18198447,9.771761,0.80621296
1409350421841,-0.6374562,9.669582,0.74639237,-0.1803668,9.771485,0.809913
1409350421842,-0.65900403,9.61691,0.7793127,-0.17991935,9.770969,0.81621176
1409350421855,-0.5955577,9.654019,0.83617496,-0.18002982,9.770419,0.82274556
1409350421859,-0.45848963,9.662399,0.8218097,-0.17996465,9.769941,0.82841426
1409350421871,-0.32680854,9.704897,0.81642276,-0.17901276,9.769567,0.833015
1409350421889,-0.28072014,9.749189,0.89303726,-0.17695174,9.769271,0.8369348
1409350421894,-0.3238158,9.75697,0.97144735,-0.1743851,9.769056,0.83996326
1409350421908,-0.3890578,9.782708,1.0031705,-0.1720581,9.768871,0.84258014
1409350421924,-0.49440265,9.8042555,0.9792285,-0.1701251,9.768729,0.8446131
1409350421925,-0.6063316,9.805453,0.97384155,-0.16840953,9.768682,0.845515
1409350421943,-0.6607997,9.779716,0.9648633,-0.1665189,9.76868,0.8459119
1409350421944,-0.6967127,9.75697,0.9343372,-0.16359423,9.768679,0.8464964
1409350421953,-0.6015432,9.750386,0.91578215,-0.15999971,9.76872,0.84669226
1409350421959,-0.54288524,9.701305,1.0109516,-0.15528964,9.768802,0.84662914
1409350421977,-0.28191724,9.589975,0.97503865,-0.1502572,9.768817,0.84736794
1409350421997,0.022744916,9.816826,1.0468647,-0.14286621,9.768919,0.8474697
1409350421997,0.2100912,9.94312,1.09834,-0.13196868,9.769103,0.84711134
1409350421999,0.25198972,9.8276,1.1240777,-0.11676176,9.769283,0.8472733
1409350422024,0.3274071,9.821614,1.2150574,-0.10073943,9.769428,0.84764504
1409350422024,0.37229836,9.831191,1.2491747,-0.08657763,9.769556,0.84776014
1409350422040,0.40521863,9.83957,1.240795,-0.0744754,9.76967,0.8475766
1409350422041,0.40282443,9.838972,1.2497733,-0.063239716,9.769825,0.84671503
1409350422058,0.39863458,9.835381,1.2258313,-0.05289894,9.770031,0.8450445
1409350422070,0.39145198,9.855133,1.1971009,-0.04342764,9.770299,0.84246963
1409350422090,0.39863458,9.890448,1.1414356,-0.034844227,9.770549,0.83997846
1409350422091,0.36391866,9.911396,1.0899603,-0.027268238,9.770749,0.83793086
1409350422092,0.27952304,9.919776,1.0390835,-0.020849604,9.770943,0.835833
1409350422104,0.18674773,9.889849,1.0199299,-0.015958324,9.771107,0.8340397
1409350422124,0.12389994,9.831191,1.0372878,-0.01181611,9.771238,0.83256316
1409350422124,0.044292733,9.798869,1.0468647,-0.00796908,9.771231,0.83271456
1409350422140,-0.015562311,9.77792,1.01574,-0.0046633156,9.771057,0.8347645
1409350422140,-0.01316811,9.7958765,0.9935937,-0.0015665187,9.7708435,0.8372651
1409350422157,-0.17956513,9.813833,0.8936358,0.002307108,9.77058,0.8403484
1409350422170,-0.25558102,9.81084,0.84575176,0.005458558,9.770411,0.8422703
1409350422171,-0.30466217,9.806051,0.7966706,0.008264263,9.770329,0.84319913
1409350422186,-0.3196259,9.81084,0.7422025,0.0109676765,9.770234,0.8442712
1409350422205,-0.40940848,9.790489,0.7146692,0.014036417,9.770154,0.84515905
1409350422205,-0.65900403,9.43495,0.7637503,0.016497254,9.770087,0.84588796
1409350422224,-0.49679685,9.328408,0.83617496,0.017213292,9.769954,0.8474054
1409350422225,-0.29209262,9.755774,0.9211691,0.0199132,9.769689,0.85039634
1409350422240,-0.19752164,10.184934,0.9391256,0.027177053,9.769221,0.8555425
1409350422241,-0.20111294,10.126875,0.88765025,0.040275898,9.768709,0.86089087
1409350422253,-0.24301147,9.891046,0.86849666,0.053429395,9.7683,0.8647949
1409350422271,-0.30406362,9.821015,0.89064306,0.062780865,9.76795,0.86812377
1409350422271,-0.27353755,9.818023,0.90381116,0.068427935,9.767573,0.87192136
1409350422285,-0.22984336,9.81503,0.87208796,0.073615566,9.767188,0.87579036
1409350422293,-0.15203181,9.821015,0.84694886,0.07932459,9.766866,0.8788836
1409350422308,-0.059855044,9.888053,0.8242039,0.08574469,9.766577,0.8814818
1409350422328,-0.092176765,9.8683,0.80445176,0.09275515,9.76631,0.8837346
1409350422329,-0.034117375,9.885659,0.7356185,0.099124394,9.766049,0.8859043
1409350422331,0.06943185,9.873688,0.7290344,0.105469964,9.765888,0.8869658
1409350422340,0.011372458,8.868722,0.7086837,0.11220278,9.765708,0.88811266
1409350422361,0.36032736,9.660604,0.90141696,0.11757015,9.765484,0.8898884
1409350422362,0.427365,10.01315,0.92535895,0.12770869,9.765062,0.89311266
1409350422375,0.42796355,10.123882,0.91099375,0.14452654,9.76444,0.8973405
1409350422389,0.40043023,10.135853,0.8798691,0.16313072,9.763773,0.9014035
1409350422392,0.37948096,10.205883,0.87089086,0.17874679,9.763232,0.9042963
1409350422406,0.2837129,10.114903,0.8295909,0.19052432,9.76279,0.90665895
1409350422420,0.13587095,9.861118,0.82480246,0.1995321,9.762442,0.90846044
1409350422421,0.107739076,9.82341,0.8475474,0.203845,9.762264,0.90943074
1409350422435,0.10115502,9.813833,0.80804306,0.20443508,9.762138,0.9106477
1409350422439,0.10235212,9.816227,0.7661445,0.2035241,9.762054,0.91173315
1409350422463,0.11671733,9.797073,0.7128736,0.20239276,9.762124,0.91123927
1409350422464,0.12689269,9.790489,0.7254431,0.2011714,9.762322,0.90938807
1409350422471,0.16460137,9.785701,0.7541735,0.20043139,9.762573,0.90685475
1409350422489,0.23343466,9.76116,0.7745243,0.20027094,9.762803,0.9044126
1409350422509,0.30585927,9.762358,0.777517,0.20134997,9.762968,0.9023884
1409350422512,0.36391866,9.807847,0.7625532,0.2037392,9.763146,0.89991766
1409350422513,0.3705027,9.850345,0.7457938,0.20721506,9.763353,0.8968717
1409350422520,0.3716998,9.858724,0.7553706,0.21109805,9.763626,0.8929981
1409350422548,0.3286042,9.806051,0.7906851,0.21567485,9.763845,0.88950086
1409350422549,0.30765492,9.76116,0.825401,0.22039632,9.763907,0.88766664
1409350422556,0.272939,9.745,0.8523358,0.22524464,9.763882,0.8867197
1409350422581,0.2669535,9.790489,0.85293436,0.23050883,9.763797,0.88631755
1409350422582,0.30466217,9.829993,0.8607155,0.23668636,9.763673,0.88604987
1409350422583,0.33877954,9.813234,0.8451532,0.24333295,9.763533,0.8857991
1409350422606,0.3405752,9.652225,0.78769237,0.25093877,9.763329,0.8859183
1409350422608,0.14844051,8.980052,0.8038532,0.2593851,9.763045,0.88660985
1409350422622,0.3800795,8.383297,1.009156,0.26668724,9.7627125,0.8880957
1409350422623,0.439336,9.589376,1.1659763,0.2767276,9.762117,0.89154965
1409350422644,0.44951138,9.863512,1.0821792,0.29141426,9.761198,0.8969331
1409350422645,0.48841715,9.903017,1.0115502,0.31111178,9.760066,0.9026152
1409350422651,0.48362875,9.931747,0.8738836,0.33352235,9.758978,0.906376
1409350422669,0.48482585,9.923966,0.7649474,0.35641018,9.757939,0.9088509
1409350422675,0.4794389,9.94312,0.7236475,0.37842122,9.75692,0.91088325
1409350422694,0.44232875,9.887454,0.7146692,0.39924395,9.755921,0.9126877
1409350422695,0.4213795,9.835979,0.81163436,0.41931498,9.754821,0.9154443
1409350422700,0.39743748,9.85214,0.8678981,0.4391253,9.753569,0.91948336
1409350422726,0.31543607,9.895236,0.95468795,0.45843905,9.752261,0.92393094
1409350422727,0.23642741,9.987412,0.92535895,0.47666416,9.750926,0.92878485
1409350422736,0.22685061,9.916184,0.8750807,0.4938456,9.749653,0.93316466
1409350422740,0.27114335,9.995792,0.8331822,0.51036215,9.748446,0.93687403
1409350422759,0.3693056,10.270527,0.82360536,0.5259917,9.747341,0.93971133
1409350422760,0.40701428,10.128671,0.84575176,0.5409826,9.746331,0.94166887
1409350422772,0.50996494,9.813833,0.82719666,0.55472416,9.745445,0.9428537
1409350422794,0.4297592,9.743204,0.96306765,0.5666089,9.744743,0.9430507
1409350422794,0.37708676,9.739613,1.0791864,0.57465607,9.744232,0.9434452
1409350422800,0.32621,9.810242,1.0905589,0.5801283,9.743841,0.9441566
1409350422823,0.35793316,9.825205,1.0007763,0.58401334,9.743544,0.9448136
1409350422824,0.46148238,9.809045,0.9235633,0.5886486,9.743437,0.9430378
1409350422845,0.46208093,9.753978,0.88405895,0.59459525,9.743396,0.939723
1409350422846,0.3441665,9.746795,0.8948329,0.60026103,9.7435,0.93502575
1409350422854,0.25917232,9.860519,0.8798691,0.60349166,9.743698,0.93087393
1409350422869,0.3633201,9.922171,0.8379706,0.6034607,9.743999,0.92775786
1409350422871,0.30585927,9.541492,0.81642276,0.60327977,9.744333,0.92435944
1409350422885,0.5177461,9.267356,0.9283517,0.6047849,9.744698,0.91952544
1409350422908,0.6937199,9.7803135,1.1043255,0.610814,9.744726,0.91522276
1409350422909,0.7104794,9.998785,1.091756,0.6216855,9.744167,0.91384095
1409350422916,0.5931635,10.132261,1.0911574,0.6322148,9.743552,0.91317165
1409350422920,0.65301853,10.189124,0.9540894,0.63690645,9.743334,0.9122341
1409350422942,0.7026982,10.118495,1.0761937,0.6379756,9.7435255,0.9094389
1409350422943,0.6338649,9.837775,1.1803415,0.63819593,9.743675,0.9076918
1409350422952,0.6051345,9.73662,1.1971009,0.63677526,9.743783,0.9075258
1409350422984,0.64463884,9.642648,1.110311,0.63325,9.74387,0.9090455
1409350422985,0.682946,9.609727,1.0121487,0.62860364,9.744021,0.91067225
1409350422986,0.6392518,9.615712,0.96067345,0.6246657,9.744271,0.9107003
1409350423006,0.38307226,9.120112,0.90261406,0.6213693,9.744713,0.9082354
1409350423007,0.57999533,9.698313,1.0313023,0.61706984,9.745409,0.90369016
1409350423026,0.4770447,9.694122,1.0247183,0.61544955,9.745891,0.8995827
1409350423027,0.34117374,9.874287,0.97384155,0.6166677,9.746087,0.8966163
1409350423034,0.38367084,10.069414,0.9331401,0.6185753,9.746254,0.89345753
1409350423059,0.39085343,10.08737,0.8607155,0.6204057,9.746432,0.8902526
1409350423065,0.39085343,10.027515,0.86969376,0.62200844,9.746644,0.8868092
1409350423066,0.3854665,9.840768,0.86370826,0.6219576,9.746891,0.8841338
1409350423072,0.37110126,9.849147,0.9091981,0.61929625,9.747177,0.88285077
1409350423099,0.39683893,9.946113,0.9259575,0.614322,9.747436,0.88346744
1409350423100,0.62608373,9.414001,0.95827925,0.60915834,9.747662,0.8845424
1409350423101,0.6512229,9.616311,0.9343372,0.608003,9.747658,0.8853917
1409350423124,0.62488663,9.782109,0.9487024,0.6108289,9.7474575,0.8856319
1409350423125,0.7015011,10.006566,0.93373865,0.6174141,9.747052,0.8855431
1409350423132,0.6775591,9.864111,0.8463503,0.62560296,9.746701,0.8836393
1409350423152,0.79846627,9.964667,0.9044097,0.63396776,9.746407,0.8809154
1409350423179,0.8882488,10.11251,0.9307459,0.6589175,9.745069,0.8774153
1409350423180,0.9696517,10.019734,0.943914,0.6589175,9.745069,0.8774153
1409350423181,1.0031705,9.88925,0.99778354,0.6589175,9.745069,0.8774153
1409350423182,1.0031705,9.829395,1.0791864,0.662702,9.744755,0.8780413
1409350423205,1.049259,10.004171,1.1306617,0.66317105,9.744553,0.8799527
1409350423207,0.9744401,9.998186,1.1180922,0.66208005,9.744407,0.8823855
1409350423219,0.92655605,9.889849,1.086369,0.65942544,9.744377,0.88468444
1409350423220,0.89064306,9.871294,1.0773908,0.6555404,9.744477,0.8864748
1409350423234,0.8439561,9.841366,1.067814,0.6508605,9.744639,0.888136
1409350423257,0.81881696,9.770139,1.0708067,0.64577776,9.744865,0.889374
1409350423259,0.7763199,9.70789,1.0851719,0.64024293,9.745126,0.89049983
1409350423261,0.7410054,9.730635,1.1204864,0.63424486,9.745359,0.89222825
1409350423293,0.7188591,9.730036,1.0995371,0.6287939,9.7454815,0.8947756
1409350423294,0.6817489,9.782109,1.0336965,0.6244141,9.7455435,0.89715225
1409350423295,0.7128736,9.813833,0.99060094,0.62026805,9.7457,0.8983254
1409350423301,0.7044938,9.803059,0.97144735,0.61631787,9.74601,0.8976906
1409350423321,0.6781576,9.751583,0.97982705,0.61241263,9.746437,0.89570385
1409350423322,0.6667852,9.715072,1.0169371,0.6085548,9.746809,0.8942805
1409350423337,0.6667852,9.714474,1.0737995,0.60497725,9.747046,0.8941315
1409350423355,0.6919243,9.741408,1.1174936,0.6020707,9.747174,0.8947107
1409350423356,0.670975,9.7641535,1.1282675,0.60055184,9.747203,0.8954192
1409350423371,0.62368953,9.799467,1.1246762,0.60020316,9.747196,0.8957196
1409350423372,0.7170634,9.742605,1.0935516,0.5998241,9.747222,0.89570266
1409350423386,0.7625532,9.603742,1.062427,0.60046387,9.747263,0.89482355
1409350423400,0.7757214,9.786898,0.9498995,0.6019801,9.747313,0.89325583
1409350423401,0.7918822,9.6923275,0.93134445,0.60283965,9.747557,0.89001995
1409350423415,0.5770026,9.566631,1.7890673,0.6027511,9.74792,0.88609135
1409350423421,0.2765303,10.287885,0.12150574,0.60035807,9.747695,0.8901731
1409350423433,0.21188685,10.680533,0.11312603,0.5954662,9.749764,0.8705758
1409350423450,0.40521863,10.126276,0.57161564,0.58994275,9.752819,0.8395716
1409350423467,0.7835025,9.632472,0.96426475,0.58601975,9.753755,0.8314047
1409350423467,0.7236475,9.399037,1.0708067,0.5848282,9.75263,0.8453332
1409350423483,0.6171055,9.502586,1.0510546,0.58130383,9.751393,0.8618518
1409350423484,0.5315128,9.74859,0.8122329,0.57583827,9.750639,0.87398183
1409350423504,0.5542577,9.871892,0.6931214,0.56939477,9.750697,0.8775544
1409350423505,0.55605334,9.944916,0.6596026,0.5656959,9.751298,0.87323594
1409350423522,0.545878,9.90601,0.6386533,0.5639631,9.7521515,0.8648019
1409350423523,0.5243302,9.917382,0.7026982,0.56425595,9.752915,0.85593706
1409350423539,0.46507367,9.892242,0.7332243,0.56558603,9.753476,0.8486358
1409350423552,0.45729253,9.812037,0.75237787,0.5665218,9.753918,0.8429384
1409350423552,0.4758476,9.768343,0.7164649,0.5670508,9.75431,0.8380162
1409350423563,0.53211135,9.707291,0.7368156,0.56681967,9.754691,0.8337392
1409350423581,0.60693014,9.692925,0.7224504,0.5663523,9.7549095,0.8315099
1409350423582,0.62728083,9.754577,0.7398083,0.5665218,9.755034,0.8299171
1409350423600,0.5907693,9.812037,0.78170687,0.56764853,9.754986,0.8297359
1409350423601,0.6063316,9.797073,0.75477207,0.5695026,9.754759,0.83111125
1409350423613,0.55964464,9.82341,0.8206126,0.5723264,9.754484,0.83241236
1409350423621,0.57281274,9.816227,0.87328506,0.5753093,9.754134,0.8344196
1409350423637,0.60932434,9.747394,0.89543146,0.5792191,9.753689,0.8369225
1409350423658,0.6171055,9.882068,0.97144735,0.5841706,9.753214,0.8390274
1409350423659,0.58119243,9.907207,0.9211691,0.58898324,9.752715,0.8414538
1409350423662,0.55844754,9.840169,0.80205756,0.5927976,9.752394,0.8425135
1409350423687,0.60453594,9.825804,0.8403648,0.59609073,9.752274,0.841559
1409350423688,0.58298814,9.842564,0.8523358,0.59882164,9.75216,0.8409651
1409350423705,0.581791,9.813234,0.8619126,0.60057724,9.752051,0.8409417
1409350423706,0.55365914,9.72824,0.88525605,0.60153675,9.751897,0.8420406
1409350423713,0.54408234,9.673772,0.93134445,0.6016499,9.751778,0.84335464
1409350423721,0.52253455,9.67856,0.9415198,0.60052496,9.75167,0.8453952
1409350423733,0.45968673,9.689334,0.8948329,0.59820205,9.751621,0.8476029
1409350423753,0.4321534,9.703699,0.82719666,0.59503806,9.751758,0.8482593
1409350423755,0.37349546,9.754577,0.7625532,0.591649,9.752025,0.84755206
1409350423773,0.34237084,9.853935,0.7445967,0.5881454,9.752416,0.845508
1409350423774,0.38367084,9.961675,0.7332243,0.5850862,9.752818,0.8429794
1409350423781,0.42078096,9.935937,0.7266402,0.5833625,9.753115,0.8407278
1409350423805,0.49919105,9.878476,0.7308301,0.5827245,9.753327,0.8386989
1409350423806,0.5566519,9.855133,0.83258367,0.58292234,9.753421,0.8374708
1409350423817,0.59376204,9.91439,0.8762778,0.5835583,9.753338,0.8380092
1409350423837,0.65301853,9.895834,0.8924387,0.5844345,9.753111,0.84003454
1409350423838,0.6997054,9.895236,0.9175778,0.5855489,9.752825,0.8425778
1409350423856,0.7410054,9.890448,0.89064306,0.5871189,9.752537,0.844813
1409350423857,0.7799112,9.807249,0.8678981,0.5884192,9.752341,0.8461621
1409350423862,0.7697359,9.746197,0.8535329,0.5893898,9.752232,0.8467542
1409350423889,0.75237787,9.737817,0.88405895,0.58947164,9.752202,0.847043
1409350423890,0.6973112,9.786898,0.8924387,0.58901656,9.752214,0.8472224
1409350423895,0.62728083,9.809643,0.85772276,0.58804685,9.752222,0.8477929
1409350423901,0.58777654,9.803059,0.82779527,0.58650666,9.75228,0.8481997
1409350423913,0.5895722,9.788693,0.84694886,0.5848273,9.752368,0.8483651
1409350423929,0.5943606,9.73662,0.8439561,0.5832266,9.752447,0.8485481
1409350423935,0.57879823,9.761759,0.86969376,0.5821657,9.752532,0.84829384
1409350423951,0.60214174,9.745,0.84575176,0.5817217,9.752556,0.8483149
1409350423953,0.5602432,9.802461,0.84216046,0.5819389,9.75252,0.8485791
1409350423968,0.51475334,9.833585,0.8038532,0.58223176,9.752478,0.8488626
1409350423989,0.45070848,9.91439,0.7942764,0.5821192,9.752517,0.8485171
1409350423990,0.45130703,9.871294,0.75357497,0.5810247,9.752646,0.8477678
1409350423997,0.44831428,9.881469,0.760159,0.5805217,9.752756,0.8468419
1409350424001,0.50278234,9.860519,0.7990648,0.5807675,9.752796,0.84620124
1409350424013,0.50517654,9.855731,0.81761986,0.5815546,9.752751,0.8461767
1409350424029,0.52253455,9.827001,0.82899237,0.5824603,9.752617,0.84711367
1409350424033,0.5626374,9.810242,0.8571242,0.583646,9.7524395,0.84832597
1409350424051,0.64823014,9.774927,0.8972271,0.5850392,9.752217,0.8499398
1409350424069,0.64823014,9.817424,0.91219085,0.58710927,9.75188,0.85240126
1409350424075,0.6715736,9.716867,0.89303726,0.5887229,9.751554,0.85499364
1409350424110,0.7254431,9.613917,0.8924387,0.58938396,9.751335,0.857012
1409350424113,0.6434417,9.669582,0.9576807,0.5899679,9.751194,0.85823536
1409350424116,0.54288524,9.674969,1.0223241,0.5890385,9.7510805,0.8601397
1409350424118,0.46028528,9.844358,1.0301052,0.5857003,9.750991,0.86342067
1409350424121,0.30825347,10.370484,1.0127473,0.58006173,9.751023,0.8668863
1409350424133,0.36870706,10.505158,0.7637503,0.5723858,9.751224,0.8697189
1409350424134,0.3298013,10.221446,0.7266402,0.5663497,9.751691,0.8684242
1409350424154,0.4357447,9.802461,0.7505822,0.5641238,9.752145,0.8647627
1409350424155,0.39923313,9.8198185,1.283292,0.5670248,9.752183,0.86244684
1409350424162,0.054468088,9.765948,1.1043255,0.57078975,9.751432,0.8684271
1409350424185,0.39683893,9.516354,0.66139823,0.56928223,9.750951,0.874813
1409350424186,0.480636,9.689334,0.6919243,0.5640353,9.751277,0.8745792
1409350424203,0.83378077,9.313444,0.5823896,0.5538053,9.752192,0.87089205
1409350424204,0.83378077,9.518747,0.9528923,0.5442609,9.753086,0.86688745
1409350424220,0.7194576,9.737218,1.2443863,0.53508013,9.753555,0.867313
1409350424222,0.5386954,9.615114,1.0773908,0.52677906,9.75371,0.87066466
1409350424235,0.46567222,9.679757,1.1234791,0.51901716,9.753884,0.8733587
1409350424254,0.4985925,9.704897,1.0696096,0.51196724,9.754221,0.87375736
1409350424255,0.54408234,9.7479925,1.021127,0.5056921,9.754723,0.8718214
1409350424262,0.56802434,9.82341,1.0319009,0.5002148,9.755319,0.8682886
1409350424289,0.5434838,9.925761,1.0372878,0.49567106,9.755965,0.863627
1409350424290,0.59855044,9.9712515,1.0336965,0.49148327,9.756578,0.85908294
1409350424295,0.7787141,9.709685,1.1228806,0.48790044,9.757136,0.8547715
1409350424302,0.5189432,9.818023,1.06123,0.48587477,9.757406,0.85285485
1409350424325,0.5674258,9.846753,0.95827925,0.4800205,9.757819,0.8514403
1409350424325,0.62009823,9.775525,0.93852705,0.47035748,9.758497,0.8490444
1409350424333,0.6733692,9.7563715,1.0097545,0.4600316,9.759201,0.846611
1409350424352,0.700304,9.729437,1.1031284,0.4517194,9.759714,0.8451871
1409350424384,0.7104794,9.743802,1.1324574,0.446293,9.76,0.8447452
1409350424386,0.7032967,9.7563715,1.1067197,0.44334233,9.760139,0.84468555
1409350424388,0.6913257,9.79827,1.033098,0.44163406,9.760212,0.8447563
1409350424389,0.6787562,9.83957,0.9888053,0.43946314,9.760339,0.84441847
1409350424414,0.6985083,9.841965,0.91219085,0.4360279,9.760594,0.8432506
1409350424416,0.6913257,9.80665,0.8882488,0.43197483,9.760948,0.8412416
1409350424417,0.6278794,9.775525,0.83018947,0.4273764,9.761352,0.8388906
1409350424438,0.58418524,9.741408,0.82121116,0.42146367,9.761907,0.835425
1409350424440,0.55964464,9.733627,0.81522566,0.41504446,9.762509,0.8315999
1409350424445,0.55964464,9.753978,0.74639237,0.40852585,9.763136,0.82745093
1409350424454,0.5434838,9.751583,0.748188,0.40232322,9.763768,0.8230115
1409350424468,0.53211135,9.798869,0.6787562,0.39687312,9.764344,0.81881464
1409350424483,0.6871359,9.722853,0.587178,0.3922364,9.764947,0.8138567
1409350424484,0.38726214,9.837775,0.47105917,0.3891358,9.765565,0.8079022
1409350424506,0.40641573,9.803059,0.43993455,0.3824895,9.766349,0.8015806
1409350424507,0.41599256,9.746197,0.40641573,0.37309507,9.767115,0.79665893
1409350424513,0.45250413,9.731233,0.39205053,0.363461,9.767779,0.79297
1409350424535,0.4417302,9.774927,0.41120413,0.3562778,9.768305,0.7897394
1409350424550,0.4441244,9.746795,0.45908818,0.35064855,9.768777,0.7864076
1409350424551,0.4333505,9.762956,0.4782418,0.3456158,9.769181,0.7836065
1409350424566,0.39145198,9.833585,0.5291186,0.34100276,9.769553,0.78100836
1409350424567,0.3657143,9.869498,0.5279215,0.33597472,9.769935,0.77838737
1409350424587,0.29867667,9.919178,0.42317516,0.3302315,9.770423,0.7747066
1409350424588,0.3764882,9.896433,0.40222588,0.3234218,9.771078,0.7692957
1409350424595,0.30705637,9.79827,0.31603462,0.317315,9.771719,0.7636738
1409350424602,0.12210429,9.911995,0.2789245,0.3102236,9.772474,0.75689274
1409350424615,0.15682021,9.920375,0.320823,0.29896775,9.773415,0.7492624
1409350424632,0.21787235,9.8994255,0.3764882,0.28704935,9.77437,0.7414111
1409350424633,0.25079262,9.931149,0.46387658,0.27764294,9.775233,0.7335767
1409350424655,0.26635495,9.9473095,0.45789108,0.2704834,9.776018,0.72576404
1409350424656,0.29568392,9.956287,0.4818331,0.26411563,9.7768,0.7175158
1409350424662,0.31184477,9.97185,0.57760113,0.25799423,9.777649,0.7081009
1409350424688,0.28550854,9.965266,0.66379243,0.25189152,9.7785425,0.69787997
1409350424689,0.533907,9.872491,0.66618663,0.2460878,9.7794075,0.68775725
1409350424694,0.21906945,9.955689,0.712275,0.24294162,9.780209,0.67743397
1409350424703,0.19692309,9.936536,0.7266402,0.23725305,9.780979,0.66823363
1409350424731,0.23822308,9.845556,0.6841431,0.22901744,9.78168,0.660816
1409350424733,0.41060558,9.841965,0.7254431,0.22016543,9.782332,0.6541174
1409350424735,0.55246204,9.811439,0.86131406,0.2151479,9.782786,0.64898765
1409350424757,0.6368576,9.816826,1.0594343,0.21422581,9.78294,0.64698625
1409350424757,0.6793547,9.824607,1.1552023,0.21595746,9.782861,0.6475971
1409350424763,0.7505822,9.812037,1.2689269,0.21840866,9.78264,0.6501111
1409350424783,0.7757214,9.780912,1.1025299,0.22141895,9.782286,0.65441847
1409350424784,1.0253168,9.730635,1.0229226,0.22338586,9.782087,0.65671444
1409350424799,0.87807345,9.780912,0.60812724,0.2253098,9.78206,0.6564649
1409350424814,0.92176765,9.77792,0.64703304,0.22203356,9.782522,0.6506483
1409350424815,1.074398,9.762956,0.57161564,0.21494946,9.783163,0.6433418
1409350424830,1.1067197,9.728839,0.45729253,0.20808366,9.783828,0.6354741
1409350424845,1.1647792,9.694721,0.52852005,0.20200375,9.784479,0.62734395
1409350424846,1.2617443,9.694122,0.65301853,0.1958163,9.784965,0.6216998
1409350424860,1.3694834,9.667787,0.4985925,0.18888357,9.785188,0.6203508
1409350424863,1.1055226,9.70789,0.50637364,0.18175855,9.7853985,0.61916125
1409350424879,0.79008657,9.792884,0.38965634,0.17054187,9.785584,0.6194138
1409350424882,0.6063316,9.788095,0.207697,0.15334523,9.785853,0.6196359
1409350424898,0.54168814,9.8437605,0.12808979,0.13185266,9.786106,0.620612
1409350424914,0.36032736,9.782109,-0.1340753,0.11117899,9.786196,0.6232295
1409350424914,0.24061728,9.803059,-0.2813187,0.0912088,9.78638,0.6235849
1409350424928,0.17776948,9.802461,-0.3369839,0.07099749,9.786783,0.61985916
1409350424934,0.41000703,9.70789,-0.39324763,0.050593294,9.787415,0.61182845
1409350424951,0.3842694,9.675568,-0.39205053,0.03246873,9.788201,0.6003525
1409350424966,0.3513491,9.81503,-0.3184288,0.013162849,9.789118,0.58600366
1409350424967,0.777517,9.880272,0.23582886,-0.0070081255,9.790053,0.570259
1409350424983,0.9295488,9.730635,0.27114335,-0.021427989,9.79063,0.5599024
1409350424985,1.0372878,9.794081,0.3537433,-0.02994915,9.791124,0.55081546
1409350425002,1.0923545,9.867104,0.32321724,-0.034289222,9.791783,0.53867257
1409350425003,1.1139023,9.919178,0.26635495,-0.036038112,9.792617,0.5232184
1409350425016,1.0815806,9.883863,0.19093758,-0.034796882,9.793455,0.50734574
1409350425027,0.99538934,9.824008,0.044292733,-0.032087915,9.794273,0.49150342
1409350425034,1.0654198,9.842564,0.0011971008,-0.030269174,9.795072,0.4754466
1409350425050,1.2892777,9.863512,0.2633622,-0.029103054,9.795786,0.4605641
1409350425090,1.2330139,9.806051,0.20829555,-0.026623804,9.796201,0.4518062
1409350425091,1.2270284,9.829993,0.17597382,-0.025902504,9.796468,0.4459984
1409350425092,1.1839328,9.821015,0.0676362,-0.0278928,9.796733,0.4400649
1409350425093,0.931943,9.887454,-0.062249243,-0.03153174,9.797057,0.43252575
1409350425095,0.6901286,9.952098,-0.17357962,-0.04036182,9.797352,0.4250766
1409350425111,0.51834464,9.8677025,-0.25617957,-0.056235977,9.797521,0.4193249
1409350425114,0.45070848,9.779117,-0.2873042,-0.07700316,9.797561,0.41506842
1409350425127,0.30166942,9.688137,-0.40282443,-0.09948329,9.797484,0.41203943
1409350425145,0.047884032,9.652225,-0.57400984,-0.12316023,9.797375,0.40826458
1409350425145,0.12210429,9.711481,-0.24121583,-0.14950404,9.797198,0.40369186
1409350425166,0.18854338,9.611523,-0.24301147,-0.17430589,9.796716,0.40545538
1409350425166,-0.08140286,9.585187,-0.3657143,-0.19833441,9.796093,0.40945
1409350425181,-0.3477578,9.668983,-0.48961425,-0.22718789,9.795375,0.41158232
1409350425183,-0.31304187,9.633669,-0.5057751,-0.26023558,9.794551,0.41162091
1409350425197,-0.25139117,9.633669,-0.4165911,-0.29586834,9.793634,0.40937516
1409350425211,-0.30885202,9.710283,-0.27473465,-0.33125383,9.792623,0.40644556
1409350425214,-0.2908955,9.746197,-0.08379706,-0.36533174,9.791486,0.40465516
1409350425228,-0.22804771,9.725846,0.017956512,-0.39756286,9.7902,0.40538874
1409350425249,-0.11671733,9.68275,0.025139118,-0.4278256,9.788784,0.40872985
1409350425250,0.14844051,9.612122,-0.05746084,-0.45519817,9.787375,0.4128899
1409350425271,0.32621,9.59177,0.0047884034,-0.47823155,9.7861395,0.41616496
1409350425272,0.33638534,9.7803135,-0.010175358,-0.49830812,9.784985,0.41972005
1409350425275,0.35913026,9.977237,-0.05566519,-0.5181296,9.783842,0.4223019
1409350425283,0.27114335,10.089166,-0.21547815,-0.5388339,9.782624,0.42465517
1409350425303,0.36152446,10.381857,-0.20171149,-0.5607041,9.781324,0.42624214
1409350425303,0.27712885,10.352529,-0.12389994,-0.5827552,9.779883,0.42976448
1409350425316,0.14305355,10.119094,-0.44951138,-0.60711133,9.778094,0.4366595
1409350425329,0.004189853,9.905411,-0.8367735,-0.63684887,9.775977,0.44169164
1409350425354,0.10295067,9.884461,-0.9127894,-0.6723969,9.773718,0.43898413
1409350425355,0.38965634,9.782109,-0.9139865,-0.70936114,9.771531,0.4294015
1409350425356,0.49559975,9.870096,-0.8607155,-0.74493134,9.769474,0.41571197
1409350425363,0.6410475,10.315418,-0.92655605,-0.78155255,9.767299,0.3993138
1409350425387,0.9068039,10.506355,-1.0193313,-0.8208391,9.764757,0.3822516
1409350425387,1.1737574,10.607511,-0.8158242,-0.8626257,9.761807,0.3652502
1409350425395,0.92775315,10.655993,-0.8900445,-0.9034708,9.758632,0.35105392
1409350425420,1.0031705,10.861296,-0.5746084,-0.94704485,9.754875,0.3404945
1409350425421,1.0247183,10.937312,-0.47764325,-0.99211514,9.750438,0.3391998
1409350425423,0.83617496,11.013328,-0.5883751,-1.039681,9.745262,0.34545594
1409350425455,0.8882488,11.2132435,-0.44232875,-1.0892626,9.7394,0.35777825
1409350425456,0.8415619,11.267113,-0.39624038,-1.1374022,9.733225,0.37554246
1409350425457,0.8122329,11.276092,-0.17597382,-1.1836387,9.726881,0.39647654
1409350425463,0.36750996,11.1414175,-0.16579847,-1.2267432,9.720414,0.4231506
1409350425493,0.22266077,10.963648,0.23822308,-1.2700315,9.713558,0.45188218
1409350425494,0.035314474,10.707469,0.48722005,-1.3091583,9.706765,0.48498192
1409350425498,-0.130484,10.635044,0.5835867,-1.3423223,9.70043,0.5198387
1409350425519,-0.16759412,10.697293,0.52253455,-1.3735878,9.694182,0.55362755
1409350425520,-0.50876784,10.753557,0.65182143,-1.3974174,9.68897,0.5843559
1409350425523,-0.7146692,10.700885,0.25019407,-1.4185668,9.684091,0.61355627
1409350425550,-0.7272388,10.62427,-0.14903906,-1.4376636,9.679979,0.6336574
1409350425551,-0.91697925,10.566211,-0.8182184,-1.4503855,9.67772,0.6391566
1409350425557,-1.4975731,10.506954,-0.98581254,-1.456736,9.677488,0.6281097
1409350425563,-1.8435353,10.296863,-1.1210849,-1.4605615,9.678112,0.60936874
1409350425585,-2.4343045,9.964667,-1.3563153,-1.4589642,9.679733,0.5870219
1409350425586,-2.4277205,9.539098,-1.2689269,-1.4526287,9.682079,0.5635691
1409350425595,-2.6258407,9.134478,-1.1569979,-1.4336818,9.685858,0.546898
1409350425622,-2.8975825,8.820838,-0.8774749,-1.4009842,9.69107,0.5392688
1409350425623,-3.7906199,8.781932,-0.4189853,-1.3635633,9.696443,0.53859717
1409350425624,-3.8373067,8.946533,-0.16519992,-1.3239304,9.7013855,0.5483499
1409350425655,-3.7606924,9.2494,0.18016368,-1.2792643,9.706038,0.571611
1409350425656,-4.1515455,9.670779,0.51355624,-1.2257879,9.710423,0.612818
1409350425657,-3.8265328,10.127473,0.9487024,-1.168032,9.713685,0.67114276
1409350425663,-3.4811692,10.242394,1.5149311,-1.1029248,9.715839,0.7459265
1409350425688,-3.2160115,10.191518,2.267309,-1.0287414,9.716664,0.83578974
1409350425689,-3.1411927,10.116699,3.0502129,-0.94491243,9.715884,0.93762165
1409350425695,-3.1052797,10.309433,3.4572272,-0.8558028,9.713078,1.0460142
1409350425713,-2.983774,10.718243,3.2794578,-0.7624272,9.708836,1.1522242
1409350425715,-2.7832594,10.610503,2.5432408,-0.66730344,9.703777,1.2497259
1409350425729,-2.4181437,10.429143,1.6903064,-0.5682563,9.700435,1.3225259
1409350425747,-1.8417397,10.087969,0.3866636,-0.4671534,9.699673,1.3669372
1409350425747,-1.6208745,9.511565,0.11432313,-0.36243317,9.701857,1.3831226
1409350425766,-1.3192052,9.46009,0.12509704,-0.2586263,9.704826,1.3855846
1409350425767,-0.8158242,9.832987,0.44592008,-0.15677682,9.707506,1.382074
1409350425775,-0.3842694,10.126276,0.79248077,-0.056954134,9.708947,1.3796804
1409350425803,-0.44831428,9.837775,1.1270704,0.040938307,9.70842,1.383948
1409350425804,-0.5883751,9.082404,1.4885949,0.13073775,9.705708,1.3973335
1409350425805,-0.5907693,8.608951,1.9087774,0.2091172,9.701217,1.4188176
1409350425815,-0.4201824,8.345589,2.3169887,0.27630612,9.695253,1.4477953
1409350425837,-0.29448682,7.948151,2.405574,0.34102958,9.688046,1.4818512
1409350425838,-0.054468088,7.823054,2.3660698,0.4017889,9.679841,1.5197482
1409350425844,0.109534726,7.762002,2.296638,0.46104112,9.670978,1.5588539
1409350425890,0.3854665,7.581838,2.086547,0.5191,9.661784,1.5971324
1409350425891,0.52852005,7.4525514,1.8854338,0.5777003,9.652533,1.6325608
1409350425892,0.6278794,7.406463,1.6298528,0.6353689,9.643426,1.6646447
1409350425893,0.7799112,7.321469,1.4640543,0.6921144,9.634592,1.692935
1409350425894,0.97384155,7.2939353,1.3826514,0.7483593,9.62599,1.717759
1409350425916,1.1234791,7.421427,1.3958195,0.8043429,9.617765,1.7383903
1409350425917,1.2491747,7.539341,1.5161282,0.85898656,9.6101265,1.7544267
1409350425923,1.3676877,7.754221,1.7609353,0.91153175,9.602945,1.7671821
1409350425948,1.4466964,7.877522,1.8836381,0.96267825,9.595589,1.7799743
1409350425949,1.5897499,7.909844,1.8363527,1.0084504,9.588572,1.7924001
1409350425968,1.8249803,7.8984714,1.6663644,1.0490232,9.582262,1.8028345
1409350425969,2.1380222,7.9661074,1.6867151,1.0845288,9.576997,1.809785
1409350425979,2.4289176,8.087613,1.8602947,1.1147602,9.5724745,1.8153397
1409350426001,2.6743233,8.255806,2.0691888,1.1396179,9.568409,1.8213246
1409350426002,2.8269536,8.507197,2.2469583,1.1587619,9.5645485,1.829498
1409350426003,2.9712043,8.8645315,2.3110032,1.1722857,9.5610285,1.8392508
1409350426015,3.0292637,9.339781,2.421735,1.1814011,9.558538,1.8463609
1409350426042,2.7952304,9.843162,2.6922798,1.1874416,9.557129,1.8497745
1409350426043,2.349909,10.086173,2.8419175,1.191071,9.556058,1.8529742
1409350426043,1.9237411,10.53329,2.783858,1.1890987,9.555702,1.8560698
1409350426060,1.6915035,11.30123,2.5139117,1.1858224,9.555829,1.8575113
1409350426063,1.6160861,11.787852,1.934515,1.1882429,9.556153,1.8542963
1409350426075,1.894412,11.669339,1.4460979,1.2050011,9.556219,1.8431145
1409350426095,2.3373394,11.021109,1.5011644,1.2442418,9.554385,1.8264661
1409350426097,2.8658595,10.243592,1.7992426,1.3079509,9.547895,1.8158647
1409350426117,3.6762967,9.645041,2.195483,1.3938543,9.534912,1.8201667
1409350426118,5.2139726,8.287529,3.457826,1.498671,9.515332,1.839249
1409350426123,5.6401405,8.388085,4.653131,1.6238575,9.4877405,1.8751667
1409350426151,5.542577,9.412206,5.490503,1.7543037,9.456029,1.9173751
1409350426152,4.8177323,11.537658,5.383961,1.882341,9.422119,1.9623646
1409350426157,3.8061821,14.074315,3.9085343,1.9901029,9.393282,1.9940251
1409350426163,2.112883,14.438233,1.8052281,2.064974,9.37614,1.9985663
1409350426188,0.4321534,13.749302,1.6274586,2.1018362,9.372653,1.9763808
1409350426189,-1.1097125,13.567343,1.483208,2.1119857,9.377775,1.9409406
1409350426195,-2.2038627,13.706206,0.1364695,2.0997086,9.391291,1.8881974
1409350426220,-2.6210523,13.176489,-0.2100912,2.0599046,9.411776,1.8291122
1409350426221,-2.5582044,12.330737,-0.5279215,1.9903339,9.434379,1.7892666
1409350426223,-2.5582044,11.376049,-0.21787235,1.9010329,9.458588,1.7582874
1409350426256,-2.2637177,10.372879,0.37110126,1.8069054,9.482614,1.7278666
1409350426257,-1.7806876,9.151836,0.91578215,1.7222999,9.502934,1.7024417
1409350426258,-1.1575965,8.279149,1.1839328,1.6548302,9.518465,1.682482
1409350426264,-0.801459,7.763199,1.4502877,1.6027538,9.528638,1.6752982
1409350426291,-0.51714754,7.443573,1.4796166,1.5640634,9.536559,1.666777
1409350426295,-0.008379706,7.6464815,1.1623849,1.5298495,9.54607,1.643924
1409350426296,0.8655039,8.209718,0.8750807,1.4931928,9.558923,1.6024235
1409350426315,0.6254852,9.788693,0.9768343,1.4545506,9.573792,1.5482793
1409350426316,0.45370123,10.589554,0.9923966,1.4039938,9.590038,1.4934376
1409350426341,0.34955344,10.847529,0.4890157,1.3421507,9.606407,1.4442853
1409350426342,0.09876082,10.79366,-0.26276365,1.2732726,9.623339,1.3930261
1409350426343,-0.37229836,10.612299,-0.6787562,1.1974002,9.6423,1.3276678
1409350426368,-0.89662856,10.244789,-0.75357497,1.1157463,9.661999,1.2535107
1409350426368,-1.1953052,9.781511,-0.64583594,1.023708,9.682495,1.1712012
1409350426375,-1.1372458,9.048885,-0.581791,0.9262584,9.701324,1.0939444
1409350426398,-0.9780314,8.362348,-0.4818331,0.83367175,9.716625,1.0308195
1409350426399,-0.74878657,8.333019,0.034715924,0.7522113,9.728055,0.98464876
1409350426404,-0.59735334,8.620323,0.6338649,0.685266,9.735704,0.9575223
1409350426434,-0.4405331,8.778939,1.0313023,0.6323706,9.740147,0.94869775
1409350426435,-0.31603462,8.540117,1.0019734,0.58646137,9.742687,0.9521032
1409350426436,-0.26396075,8.517372,0.670975,0.5394836,9.744954,0.9566765
1409350426444,-0.4818331,8.946533,0.22625206,0.48306262,9.748812,0.94748133
1409350426480,-0.61770403,9.1512375,-0.2705448,0.41012716,9.755115,0.9164713
1409350426482,-0.6877344,9.238626,-0.5267244,0.3278829,9.762159,0.8735791
1409350426484,-0.9295488,9.17099,-0.7517793,0.2311144,9.76957,0.82004213
1409350426512,-0.7882909,9.139266,-1.1360487,0.12300211,9.775889,0.7663316
1409350426514,0.13467385,9.503185,-0.5614403,0.013965105,9.780421,0.7166449
1409350426516,0.81522566,9.954493,0.18974048,-0.08027181,9.782275,0.686324
1409350426549,1.1336545,10.064626,0.7278373,-0.15531215,9.781155,0.68943363
1409350426550,1.2533646,9.795278,1.1701661,-0.21592298,9.777081,0.7297183
1409350426551,1.1145009,9.2907,1.4550761,-0.26865444,9.77028,0.7999095
1409350426551,0.88765025,8.962694,1.5071499,-0.32234177,9.7614155,0.8838988
1409350426555,0.7637503,8.941146,1.2952632,-0.38006842,9.751447,0.9670722
1409350426564,0.7380127,8.990826,1.1007342,-0.44174862,9.741378,1.0396096
1409350426579,0.8810662,9.126697,0.87687635,-0.5049604,9.731239,1.1038065
1409350426594,0.9828198,9.376292,0.83497787,-0.56738096,9.722158,1.1524334
1409350426595,1.1264719,9.610924,0.8643068,-0.6238728,9.714557,1.1868255
1409350426609,1.2300211,9.722853,1.1881226,-0.67090505,9.708,1.2145085
1409350426630,1.3862427,9.786898,1.5849615,-0.7096327,9.701455,1.2444255
1409350426630,1.7208325,9.735423,1.8986019,-0.7425566,9.694518,1.2788012
1409350426646,1.9500773,9.585785,1.7645266,-0.7694284,9.687679,1.314239
1409350426647,2.030283,9.44752,1.2575544,-0.79239446,9.681938,1.3425977
1409350426659,2.308609,9.436148,0.6769605,-0.8125431,9.678124,1.3579764
1409350426664,2.4109612,9.537302,0.9624691,-0.82660097,9.676235,1.3629414
1409350426676,2.5276785,9.774328,0.91697925,-0.8377661,9.674315,1.3697342
1409350426692,2.1272483,10.075998,1.2898762,-0.84415805,9.672497,1.3786288
1409350426710,1.8417397,10.153211,1.2491747,-0.8489109,9.670369,1.39057
1409350426710,1.8441339,10.363302,1.4454993,-0.84894425,9.669069,1.3995693
1409350426725,1.8908207,10.375872,1.4407109,-0.8385878,9.669789,1.4008312
1409350426726,1.6274586,10.299257,1.2467805,-0.8181387,9.673873,1.3846394
1409350426742,1.2210429,10.283096,1.3617022,-0.78974456,9.681148,1.3498487
1409350426744,1.3341689,10.58297,1.3676877,-0.7499463,9.689982,1.3085136
1409350426760,1.6382325,10.875661,1.436521,-0.69360894,9.699799,1.266168
1409350426776,1.0241197,10.65719,0.8038532,-0.62283605,9.710625,1.2191116
1409350426777,0.06404489,9.844957,-0.13227965,-0.55184084,9.721893,1.162167
1409350426792,-1.1031284,8.985439,-0.89782566,-0.4893533,9.73292,1.0959914
1409350426795,-2.3062148,8.516774,-1.4532804,-0.42905748,9.744353,1.0168115
1409350426808,-3.1543608,8.847773,-1.5544355,-0.37323245,9.75596,0.92322075
1409350426826,-4.7081976,9.8994255,-1.5975311,-0.32502756,9.766296,0.82716453
1409350426826,-6.166865,12.324752,-1.0702082,-0.29614905,9.773992,0.7428204
1409350426840,-6.8689647,15.5671,-0.38965634,-0.29410774,9.777986,0.68913907
1409350426844,-5.6802435,18.239029,0.29807812,-0.30868164,9.778157,0.6802701
1409350426860,-5.257667,18.681955,-0.0011971008,-0.29801366,9.776224,0.7120687
1409350426878,-5.1379566,16.815676,0.3609259,-0.27043197,9.774177,0.750159
1409350426879,-3.544017,10.362703,3.0496144,-0.23710291,9.770866,0.8027251
1409350426892,-3.2728736,8.586804,4.5447936,-0.17461693,9.763121,0.9063035
1409350426896,-3.764882,8.009802,5.251083,-0.110718824,9.751831,1.0295419
1409350426910,-3.6966474,9.549872,5.2504845,-0.059087418,9.737338,1.1623977
1409350426927,-2.2631192,10.802638,4.43885,-0.0064946227,9.723469,1.274557
1409350426928,-0.961272,9.853337,3.1705215,0.08237397,9.714455,1.3390234
1409350426943,0.089184016,8.660426,2.0679917,0.21845278,9.711134,1.3478023
1409350426944,1.4221559,9.404425,1.8950106,0.38272622,9.710565,1.3148575
1409350426959,2.6252422,10.353127,1.8243817,0.5578143,9.708713,1.2649603
1409350426974,3.2369606,10.7194395,1.3341689,0.73980236,9.70331,1.2119769
1409350426981,2.967613,10.1699705,0.5351041,0.9159569,9.694639,1.1599054
1409350427005,2.2331917,8.72088,-0.077213004,1.0672138,9.6845455,1.1140251
1409350427005,1.9752164,7.7009497,-0.05327099,1.1976901,9.673564,1.0761627
1409350427006,1.9818004,6.993463,0.29029694,1.3026105,9.661377,1.0636832
1409350427026,1.7914615,6.379949,0.75237787,1.3911682,9.646777,1.0838526
1409350427027,1.5227122,5.6203885,1.1815386,1.4706821,9.629218,1.133855
1409350427042,1.4610616,5.2049947,1.5903485,1.5411389,9.609833,1.2026626
1409350427044,1.4754268,5.067328,1.7770962,1.6041207,9.589493,1.2801696
1409350427060,1.3090298,4.987122,1.721431,1.6608177,9.569274,1.3568583
1409350427076,0.9672575,4.9362454,1.3078327,1.7090946,9.551081,1.423464
1409350427076,1.1264719,5.156512,1.3940239,1.7471963,9.536823,1.4719688
1409350427093,1.4676456,5.517438,1.6765398,1.777646,9.526312,1.5032483
1409350427095,1.7196354,5.841852,1.9961656,1.8018012,9.519112,1.5200031
1409350427108,1.863886,6.1650696,2.2319946,1.8243984,9.513012,1.5312002
1409350427123,1.9758149,6.5110316,2.4468741,1.838482,9.509776,1.5344489
1409350427124,2.1990743,6.9838862,2.5492263,1.8405709,9.509836,1.5315777
1409350427139,2.5761611,7.677606,2.4384944,1.8283322,9.5129595,1.5268179
1409350427144,3.0304608,8.550293,2.40318,1.8008033,9.518949,1.5222073
1409350427161,3.2620997,9.297284,2.5881321,1.7595129,9.527325,1.5180899
1409350427176,3.3854012,9.814431,2.7503393,1.70646,9.537172,1.5168139
1409350427176,3.29502,9.89763,3.3291376,1.6463193,9.547365,1.5191513
1409350427192,2.8281507,9.428367,4.033033,1.5828669,9.555899,1.5328847
1409350427208,2.0751743,9.295488,4.3065705,1.5195173,9.5612335,1.5634108
1409350427208,0.7344214,11.656171,4.6800656,1.4595922,9.564559,1.5997406
1409350427226,-0.7164649,13.8642235,4.104859,1.3900229,9.567258,1.6449306
1409350427227,-0.43394905,13.965977,2.0931308,1.3189406,9.570735,1.6828029
1409350427240,1.2012907,13.808558,0.18734628,1.2874584,9.573843,1.6894875
1409350427244,2.9741971,12.291832,0.2896984,1.3174936,9.57319,1.6699189
1409350427262,6.4936733,8.21271,2.1440077,1.3958969,9.561698,1.6720653
1409350427276,7.129933,7.233482,4.9027267,1.5271317,9.532632,1.722555
1409350427276,7.0742674,8.763975,7.6201453,1.6930844,9.490235,1.7997985
1409350427292,5.1421466,12.624625,10.392631,1.8843899,9.439124,1.8768092
1409350427309,3.9935284,16.139313,7.9325886,2.047152,9.3891535,1.9553515
1409350427310,3.0777464,16.305113,4.245518,2.1558235,9.357335,1.9907571
1409350427325,0.3788824,14.359823,4.1066546,2.2270582,9.339886,1.9942794
1409350427325,-1.1988965,13.620613,1.9949685,2.2394056,9.329548,2.0285435
1409350427341,-1.6801311,14.133572,-0.11252748,2.216523,9.329986,2.0515375
1409350427344,-2.337938,15.090653,-0.25917232,2.1697128,9.341401,2.0496213
1409350427358,-3.080739,14.719552,-1.06123,2.0881975,9.363368,2.0339994
1409350427384,-3.7786489,12.949638,-2.7287915,1.9815869,9.3928385,2.0045652
1409350427385,-3.8774097,10.415376,-2.4223335,1.8684808,9.423957,1.9667724
1409350427386,-3.667917,9.197326,-1.264737,1.7657726,9.446788,1.9520833
1409350427416,-3.3321302,8.789713,-0.2220622,1.6755247,9.462318,1.9564129
1409350427417,-2.4875755,8.272566,0.9720459,1.5960602,9.475143,1.9607793
1409350427419,-0.93732995,7.764396,2.0829554,1.5237825,9.487462,1.9587125
1409350427425,0.46746787,7.467515,2.5887306,1.4597831,9.49765,1.9580799
1409350427450,1.0151415,7.8182654,1.9722236,1.4007924,9.508213,1.9498891
1409350427450,1.4460979,8.709507,1.7112557,1.343763,9.521106,1.92697
1409350427456,1.477821,8.992621,1.4413095,1.2897565,9.535983,1.8899616
1409350427477,1.3790601,9.717466,1.1133038,1.2342091,9.553154,1.8396629
1409350427478,0.88944596,10.307038,0.5781997,1.1715914,9.573268,1.7749095
1409350427492,0.24061728,10.5123415,0.022146367,1.0960745,9.597082,1.6926392
1409350427508,-0.55725044,10.159196,-0.599149,1.0091696,9.623182,1.5957266
1409350427508,-1.1145009,9.511565,-1.0456676,0.91655576,9.64859,1.4949983
1409350427526,-1.3515269,9.301474,-1.3676877,0.82631725,9.670041,1.4063802
1409350427526,-1.6663644,9.213487,-1.0618285,0.7427923,9.688119,1.3262796
1409350427541,-1.9482816,9.197925,-0.47345337,0.66220254,9.701308,1.2714134
1409350427574,-1.869273,9.191938,0.023942016,0.5904285,9.709418,1.2445898
1409350427575,-1.3497312,9.120711,0.30585927,0.5289654,9.713022,1.2440964
1409350427576,-0.86131406,8.993818,0.3489549,0.474405,9.713452,1.2626077
1409350427576,-0.5590461,8.748413,0.19812019,0.41695994,9.712748,1.2880408
1409350427598,-0.36631286,8.659229,0.14664486,0.34591362,9.712996,1.307078
1409350427601,-0.2837129,8.455722,0.20649989,0.25669163,9.715115,1.311891
1409350427606,0.035913024,8.121132,0.29328972,0.15065292,9.718291,1.3048031
1409350427644,0.78769237,7.9714947,0.37229836,0.038306937,9.721111,1.2918811
1409350427646,2.0135236,8.0127945,0.81522566,-0.06627192,9.722689,1.2788054
1409350427648,2.2134395,8.41921,1.2198458,-0.155733,9.722689,1.271009
1409350427683,2.1948843,8.26239,1.5526398,-0.23147038,9.720588,1.2755326
1409350427687,2.2296004,7.892486,1.6310499,-0.29851228,9.7155485,1.2997756
1409350427688,2.2379801,7.524976,1.5346833,-0.36354122,9.70768,1.3413416
1409350427690,2.0949266,7.482479,1.4413095,-0.4298644,9.6980715,1.3903345
1409350427691,2.054225,7.6644382,1.400608,-0.4976561,9.687922,1.4376755
1409350427714,2.0667946,8.048109,1.4634558,-0.56338924,9.678364,1.4772464
1409350427714,2.0171149,8.583812,1.6059108,-0.6227748,9.669846,1.5088638
1409350427719,1.9596541,9.176376,1.7824832,-0.672747,9.661845,1.5383734
1409350427724,1.8746599,9.53012,1.8830396,-0.71556205,9.65317,1.5731127
1409350427744,1.6998832,9.576807,1.7741034,-0.75675505,9.64299,1.6156969
1409350427758,1.4323312,9.579201,1.8166006,-0.8017424,9.63178,1.6602473
1409350427759,1.228824,9.649231,2.3133974,-0.8526681,9.618955,1.7085265
1409350427775,0.7930793,9.6049385,2.2002714,-0.9090945,9.605107,1.7566677
1409350427791,0.3657143,9.6049385,1.6502035,-0.97038186,9.5920725,1.7946868
1409350427792,0.260968,9.762956,1.3317747,-1.0336777,9.581859,1.8138013
1409350427805,0.7697359,9.974244,0.7745243,-1.093021,9.574627,1.8171955
1409350427805,1.572392,10.253169,0.6290765,-1.1417984,9.5704365,1.8092601
1409350427821,1.4383167,10.638037,1.6310499,-1.1766412,9.56909,1.7939942
1409350427824,0.81761986,10.737396,1.8136078,-1.2052822,9.567093,1.7856103
1409350427838,0.8810662,10.952275,1.899799,-1.232198,9.56451,1.7810814
1409350427855,1.1426327,10.99597,2.1936872,-1.2478546,9.563431,1.7759622
1409350427856,1.079785,10.819996,1.8381484,-1.25345,9.564904,1.7640508
1409350427871,0.8762778,10.6637745,1.4634558,-1.2423003,9.572415,1.7308834
1409350427876,0.5626374,10.562021,1.0480618,-1.2131155,9.585456,1.6786218
1409350427887,0.6853402,10.543466,1.7561469,-1.1678121,9.602131,1.6142162
1409350427918,0.7529764,10.389638,1.2808979,-1.1079946,9.620107,1.548001
1409350427921,0.05925649,9.61272,0.47884035,-1.0407104,9.639837,1.4699732
1409350427922,-0.99419224,8.413225,0.13946225,-0.97476774,9.659837,1.3812282
1409350427926,-1.9991584,7.413047,-0.093972415,-0.90984493,9.679683,1.2830927
1409350427958,-2.8491,7.3549876,-0.705691,-0.8429592,9.700273,1.1681231
1409350427959,-3.5703533,8.350377,-0.97503865,-0.77337956,9.7211075,1.0355483
1409350427979,-4.1419687,10.460267,-0.78290397,-0.70642793,9.739458,0.90238196
1409350427980,-4.6405616,13.918093,-0.42796355,-0.6420784,9.753267,0.7949264
1409350427980,-4.819528,18.270153,0.23582886,-0.5850901,9.761866,0.7307757
1409350427985,-4.4418426,19.608511,0.95349085,-0.53295875,9.766411,0.70962185
1409350428021,-3.1334114,19.608511,1.7154455,-0.4710641,9.767933,0.73209846
1409350428022,-0.7104794,14.629769,2.8862102,-0.3861563,9.767218,0.78914547
1409350428023,-0.7194576,11.343129,3.7972038,-0.27079782,9.763293,0.88043964
1409350428025,-2.1278467,9.838972,4.757279,-0.1721662,9.754215,0.9980226
1409350428050,-3.8283286,9.657013,4.5280337,-0.11061319,9.740874,1.1285073
1409350428051,-3.5685577,10.431537,3.5362358,-0.076091304,9.728109,1.2363124
1409350428056,-2.171541,10.565014,2.5480292,-0.028396074,9.721108,1.292143
1409350428081,-1.1294646,9.087791,1.6861166,0.045625422,9.718085,1.3141952
1409350428082,-0.39264908,7.8039002,1.4131776,0.16647106,9.720054,1.2896593
1409350428085,0.350152,8.12592,1.7130513,0.31020167,9.722379,1.2447902
1409350428131,1.2539631,8.72088,1.4586674,0.4575796,9.721805,1.2031395
1409350428133,1.7830818,8.952518,0.64583594,0.6075914,9.71749,1.1711686
1409350428133,1.934515,8.572439,-5.985504E-4,0.75095206,9.71046,1.1460668
1409350428134,1.9141643,7.7494326,-0.061650693,0.87311035,9.701931,1.1316472
1409350428140,1.7735049,6.815694,0.39444473,0.96608776,9.692416,1.1376059
1409350428171,1.54845,5.9477954,0.78529817,1.034106,9.681514,1.1701795
1409350428172,1.1911154,5.0236335,0.9756372,1.085269,9.669003,1.2259587
1409350428173,1.0971429,4.585495,1.2419921,1.1262583,9.655898,1.2905636
1409350428202,1.0199299,4.6297874,1.5526398,1.1638987,9.64136,1.3637761
1409350428203,0.8523358,4.8141413,1.6406267,1.1985303,9.626378,1.4376234
1409350428204,0.4261679,4.823718,1.6711528,1.2282838,9.612158,1.5060312
1409350428205,0.4961983,4.859032,1.8148049,1.2492663,9.600044,1.5648873
1409350428222,0.6667852,5.04997,1.8770541,1.2624729,9.590397,1.6127052
1409350428225,1.0127473,5.4043117,1.9458874,1.2701492,9.583801,1.6455584
1409350428239,1.4089876,5.93343,2.110489,1.2737454,9.580791,1.6602398
1409350428257,1.6232687,6.5271926,2.3840263,1.2728145,9.581567,1.6564726
1409350428275,1.9692309,7.2981253,2.5145104,1.2647121,9.585868,1.6376983
1409350428276,2.486977,8.256405,2.4582467,1.2481937,9.592969,1.608526
1409350428298,2.9777884,9.4217825,2.4259248,1.2297552,9.600886,1.5751514
1409350428299,3.3794158,10.4967785,2.5151088,1.2027988,9.610619,1.5361247
1409350428300,3.5823243,11.228806,2.5611973,1.1688819,9.621025,1.4966607
1409350428306,3.4691982,11.329961,2.5007436,1.1318799,9.630644,1.4628578
1409350428333,3.1789012,10.532692,2.6761189,1.0964843,9.638406,1.4384921
1409350428335,2.0590134,11.180922,3.4075475,1.0678922,9.643535,1.42557
1409350428337,0.3609259,14.842854,4.167108,1.0405995,9.645706,1.43105
1409350428360,0.17477672,15.601815,3.1489737,0.99590683,9.646101,1.4598995
1409350428362,1.027711,14.195821,1.2749124,0.96463823,9.645984,1.4815
1409350428365,2.3038206,12.807782,0.012569559,0.97872174,9.644855,1.479619
1409350428394,3.6014779,10.864887,0.09876082,1.0321679,9.638483,1.4848107
1409350428395,5.8083334,8.367136,5.059547,1.1060139,9.625706,1.5142403
1409350428397,5.789778,9.913192,8.435371,1.2234365,9.593812,1.6224527
1409350428405,5.2486887,14.140155,8.337808,1.3782784,9.545553,1.7757056
1409350428429,4.11264,17.241245,4.353257,1.5485498,9.493849,1.9076661
1409350428430,0.919972,15.488689,2.8209682,1.6967127,9.460041,1.9491496
1409350428438,-1.1150994,13.061567,2.6060886,1.7819717,9.444144,1.9501556
1409350428465,-1.1953052,11.659762,0.83856916,1.8207453,9.438392,1.9421757
1409350428466,-1.2689269,11.112088,1.0947487,1.8368244,9.43593,1.9389942
1409350428467,-1.2623428,11.36767,1.9219455,1.8252234,9.432288,1.967465
1409350428498,-1.3479356,11.810597,1.0187328,1.7780528,9.432841,2.007592
1409350428499,-1.863886,11.128848,0.25139117,1.7038103,9.442321,2.0273194
1409350428502,-1.9177556,10.306439,0.094570965,1.626535,9.460038,2.0080953
1409350428506,-1.9123687,9.621099,0.11611878,1.5447935,9.481583,1.9706899
1409350428539,-1.8357542,9.405023,-0.050876785,1.4725542,9.501046,1.9318683
1409350428541,-1.7381904,9.345168,0.020949265,1.4114186,9.518528,1.8910137
1409350428542,-0.98102415,9.085397,0.46447513,1.3557415,9.536617,1.8399177
1409350428568,0.21787235,8.909423,0.6410475,1.3013942,9.555189,1.7818952
1409350428569,0.82719666,9.065046,0.62847793,1.2454182,9.573444,1.7229297
1409350428571,0.91578215,9.424775,0.86729956,1.1833954,9.59046,1.6712387
1409350428602,0.5279215,9.281123,0.6560113,1.1136916,9.604536,1.6379864
1409350428602,0.19153613,9.433753,0.29508537,1.0341594,9.617212,1.6155975
1409350428603,-0.40641573,9.589975,0.26755205,0.9482987,9.630281,1.5902251
1409350428606,-0.9744401,9.472659,0.25318682,0.8520916,9.645912,1.5494261
1409350428621,-1.2988545,9.171588,0.031124622,0.7459886,9.663709,1.492195
1409350428638,-1.2677298,8.890868,-0.44891283,0.63384825,9.680948,1.4310282
1409350428639,-1.2395979,8.669404,-0.94690675,0.5231658,9.695604,1.3754771
1409350428652,-1.411382,8.529344,-0.8206126,0.41953942,9.707632,1.3252438
1409350428657,-1.543063,8.992023,-0.2669535,0.32902154,9.7170925,1.2807132
1409350428671,-1.489792,9.55047,0.3573346,0.25486353,9.723952,1.2450662
1409350428687,-1.1845313,9.716867,0.6488287,0.19527912,9.727489,1.2280893
1409350428688,-0.88166475,9.312247,0.55365914,0.14411329,9.727413,1.2357489
1409350428703,-0.7667431,8.656237,0.24001873,0.09187252,9.724737,1.2615262
1409350428706,-0.6003461,8.459911,0.0712275,0.035173606,9.72151,1.2889632
1409350428719,-0.59735334,8.585009,0.2124854,-0.035097618,9.719231,1.3060312
1409350428735,-0.29149407,8.662222,0.45489833,-0.11997312,9.71888,1.303595
1409350428740,0.39145198,8.761581,0.40222588,-0.21230449,9.719117,1.289996
1409350428753,1.1707647,8.822035,0.14425065,-0.30400166,9.7182665,1.2779963
1409350428758,1.7304093,8.834005,0.2148796,-0.38747227,9.716017,1.27251
1409350428775,2.087744,8.8088665,1.6681601,-0.4597126,9.712015,1.2790029
1409350428779,1.8902222,8.39886,2.2463598,-0.52039605,9.703714,1.3181366
1409350428787,1.4945804,7.7985134,2.5486276,-0.5793442,9.689946,1.3927287
1409350428811,1.0342951,7.282563,2.3666685,-0.64609456,9.670888,1.4922663
1409350428812,0.80924016,6.977901,1.8082209,-0.729004,9.648899,1.5930145
1409350428818,0.91817635,6.935404,1.1994951,-0.82216364,9.626645,1.6799177
1409350428845,1.0468647,7.358579,0.7661445,-0.9230368,9.606788,1.7401304
1409350428846,1.0151415,7.989451,0.58777654,-1.0245168,9.591045,1.7699136
1409350428847,1.1671734,8.532336,0.45549688,-1.1188549,9.578842,1.7788632
1409350428882,1.2677298,8.981249,0.59495914,-1.2011895,9.568404,1.7813351
1409350428883,1.2126632,9.433155,1.1162965,-1.2737889,9.557499,1.7894355
1409350428884,0.93972415,9.854534,1.6938977,-1.3384681,9.545247,1.8075275
1409350428889,0.2112883,10.170568,1.8022354,-1.3985248,9.532051,1.8315363
1409350428934,-0.17956513,10.468048,1.3215994,-1.4576024,9.519757,1.8493291
1409350428936,0.20949265,10.443508,0.88645315,-1.5121742,9.510689,1.8521687
1409350428939,1.4012065,10.507553,0.4345476,-1.5574781,9.503871,1.8496267
1409350428941,2.2732944,10.778696,1.3096284,-1.5843581,9.500854,1.8422815
1409350428945,2.4355016,11.101315,2.19668,-1.5910469,9.498826,1.8469601
1409350428965,2.0021513,11.146805,2.742558,-1.5857638,9.495989,1.8660008
1409350428966,1.2467805,10.99597,2.5474305,-1.5774332,9.49205,1.8929087
1409350428967,1.234211,10.962451,2.4863784,-1.5698763,9.489515,1.9118028
1409350428996,0.96785605,10.805631,2.1691468,-1.5530494,9.492035,1.9130431
1409350428997,0.6919243,10.445902,1.5508442,-1.527934,9.501474,1.8862165
1409350428998,0.46028528,9.956287,1.0259154,-1.4903109,9.517449,1.8350779
1409350429006,0.53450555,9.332,0.9636662,-1.4377092,9.537508,1.7718233
1409350429023,0.5069722,8.450933,0.82001406,-1.373859,9.559771,1.701085
1409350429040,-0.20709845,7.445967,0.24301147,-1.3105851,9.58224,1.622776
1409350429041,-1.3413515,6.4828997,-0.074818805,-1.2456052,9.606374,1.5285429
1409350429058,-2.669535,6.1010246,-0.47285482,-1.1777774,9.631337,1.4214714
1409350429059,-3.3123782,7.1969705,-0.6619968,-1.1060457,9.656099,1.3064456
1409350429066,-4.2359414,9.479243,-0.6823475,-1.0293614,9.679529,1.1905974
1409350429088,-5.1487308,13.03164,-0.18195933,-0.9531332,9.69942,1.0877461
1409350429089,-5.701193,17.36335,0.75477207,-0.88442713,9.713617,1.0167776
1409350429113,-5.3701944,19.607914,1.0372878,-0.8265259,9.721384,0.99093646
1409350429114,-3.7181952,19.608511,1.1168951,-0.75989306,9.726531,0.99375796
1409350429118,-3.2620997,18.854937,1.6124948,-0.6624876,9.732264,1.0072592
1409350429146,-2.4259248,16.350601,2.1039047,-0.5656804,9.735527,1.0343711
1409350429147,-2.2152352,13.123219,4.349666,-0.46476626,9.7351055,1.0872428
1409350429147,-3.57993,9.981427,4.5687356,-0.37751722,9.726937,1.1893501
1409350429172,-3.9695864,9.886856,3.6481647,-0.31634212,9.7155485,1.2955519
1409350429173,-2.8772318,10.891822,2.7455509,-0.26312456,9.706921,1.369989
1409350429185,-1.6849195,9.960478,1.9949685,-0.18926838,9.7048435,1.3966309
1409350429186,-1.0432734,7.994838,1.893215,-0.073962115,9.708138,1.3845488
1409350429208,-0.11731588,7.785944,2.7509377,0.07008819,9.711984,1.3575112
1409350429209,0.85652566,8.512584,3.0843303,0.22270174,9.712583,1.3366116
1409350429221,1.6238673,8.729858,2.5252843,0.37850744,9.709244,1.3257945
1409350429240,2.0548236,8.487445,1.7166426,0.53282523,9.703232,1.3167297
1409350429241,2.1984756,7.712322,1.2749124,0.6799809,9.695641,1.3048183
1409350429246,2.2780828,7.1383123,1.2276269,0.8063639,9.687119,1.2961247
1409350429271,2.0081367,6.296152,1.1935096,0.9082016,9.677216,1.3027158
1409350429271,1.7196354,5.7347116,1.365892,0.9883507,9.665575,1.330504
1409350429293,1.6310499,5.617396,1.6065093,1.0522925,9.6523485,1.3766782
1409350429294,1.4885949,5.45459,1.6035166,1.1081907,9.637889,1.4329636
1409350429298,1.2844892,5.191228,1.4688427,1.1596888,9.623091,1.4905151
1409350429308,1.1186907,5.168483,1.4275428,1.2040275,9.609166,1.5442227
1409350429331,1.0247183,5.2965727,1.6178818,1.238886,9.596807,1.592752
1409350429332,1.0450691,5.895722,1.5466543,1.2645054,9.586231,1.6357185
1409350429339,1.2737153,6.141726,1.525705,1.2811344,9.578486,1.6678386
1409350429362,1.4173675,6.344036,1.6220716,1.2953107,9.572301,1.6922189
1409350429363,1.4670471,6.5367694,1.7848774,1.3006989,9.569992,1.7011184
1409350429367,1.6112977,6.843227,1.946486,1.2969242,9.57201,1.692638
1409350429396,1.9488802,7.367557,2.2146366,1.2840923,9.577703,1.6700609
1409350429397,2.2577322,7.9649105,2.5246856,1.2633871,9.585971,1.6381162
1409350429403,2.4636335,8.554482,2.8113914,1.234666,9.595976,1.6010201
1409350429429,2.6156654,9.18715,3.198055,1.1959693,9.606793,1.565113
1409350429430,2.8688521,9.920375,3.3153708,1.1471971,9.617347,1.5365497
1409350429431,3.0358477,10.54586,3.252523,1.0917082,9.62732,1.5143484
1409350429438,2.767697,10.554239,3.043629,1.0349916,9.635997,1.4989158
1409350429458,2.3104045,10.430939,2.8526914,0.9787293,9.643853,1.4861253
1409350429459,1.240795,12.543222,3.3135753,0.92223704,9.649291,1.4869547
1409350429466,0.2208651,14.391546,2.77069,0.8657925,9.650757,1.5111936
1409350429490,0.5231331,13.428479,0.87448215,0.81359327,9.650535,1.5413071
1409350429493,1.5640123,12.118252,-0.5189432,0.7970871,9.651406,1.5444705
1409350429498,2.7682958,10.836157,-0.55485624,0.8281049,9.652123,1.52354
1409350429527,4.1581297,9.467871,0.66738373,0.89617074,9.647524,1.514114
1409350429528,5.5222263,9.554062,7.4471645,0.99674165,9.633959,1.5374516
1409350429529,4.4298716,13.205219,10.461464,1.1417618,9.601134,1.6386049
1409350429538,3.2615013,18.173786,7.3232646,1.2915632,9.557368,1.7773458
1409350429562,1.0989386,17.84159,3.1747115,1.4125992,9.526707,1.8484658
1409350429563,-2.0027497,14.401722,2.3660698,1.493598,9.513265,1.8540088
1409350429567,-2.8742392,12.364855,0.5919664,1.5315602,9.507978,1.8501527
1409350429592,-2.533664,11.395802,-0.22685061,1.5547578,9.509216,1.8242619
1409350429593,-2.6719291,11.150994,0.7422025,1.5662334,9.510248,1.8090012
1409350429598,-2.597709,11.663952,0.5141548,1.5438324,9.510873,1.8249002
1409350429629,-2.2577322,10.737994,-0.42556936,1.4841312,9.517883,1.8378397
1409350429630,-2.0296845,9.592968,-0.55126494,1.414023,9.530114,1.8297161
1409350429631,-2.0632033,9.720459,0.19393034,1.3493559,9.542959,1.8115176
1409350429640,-1.875857,10.315418,0.36870706,1.2915008,9.554727,1.7915485
1409350429665,-1.5801731,10.353725,0.21068975,1.2413247,9.566823,1.7622131
1409350429668,-0.99778354,10.044873,0.16759412,1.1918153,9.581009,1.7187924
1409350429669,-0.107739076,9.88925,0.2633622,1.1416678,9.595459,1.6715696
1409350429699,0.38486794,10.048465,0.32920274,1.08764,9.610758,1.6188773
1409350429700,0.53330845,10.621277,0.52732295,1.0272818,9.6260605,1.5665362
1409350429701,0.8110358,11.148002,0.676362,0.95712847,9.640747,1.5199721
1409350429720,0.40043023,10.553042,0.39324763,0.8782634,9.654497,1.4797745
1409350429720,-0.2172738,10.212467,0.6655881,0.78868735,9.668303,1.4395523
1409350429733,-0.6805518,9.998186,1.0049661,0.686745,9.682483,1.3958108
1409350429739,-0.9720459,9.618107,0.9516952,0.57607746,9.696359,1.3487608
1409350429754,-1.1480197,8.84059,0.54767364,0.46467343,9.708653,1.3024995
1409350429772,-1.0444705,8.151658,-0.017357962,0.36058322,9.718532,1.2611493
1409350429773,-1.0995371,7.629722,-0.2801216,0.267633,9.726606,1.2214322
1409350429778,-1.003769,7.5004354,-0.108936176,0.18090412,9.732614,1.1890742
1409350429786,-0.770933,7.651869,0.22385786,0.10694749,9.73665,1.1647307
1409350429802,-0.5141548,8.021174,0.5638345,0.047446813,9.738795,1.1506506
1409350429824,-0.3369839,8.379706,0.8355764,-4.1837155E-4,9.738973,1.1501292
1409350429825,-0.3333926,8.558074,0.78410107,-0.04633169,9.737008,1.1657284
1409350429827,-0.5105635,8.53892,0.54288524,-0.10523367,9.733488,1.1910189
1409350429839,-0.7517793,8.579023,0.30825347,-0.1871059,9.729926,1.2099276
1409350429874,-0.89662856,8.675988,0.13347675,-0.29377925,9.727343,1.2095062
1409350429875,-0.78649527,8.695142,-0.07062895,-0.4178256,9.724946,1.1921564
1409350429876,-0.40940848,8.383896,-0.46746787,-0.5474917,9.721384,1.1684722
1409350429881,0.36990416,8.521563,-0.5069722,-0.67314464,9.71634,1.1445506
1409350429887,1.204882,8.754997,-0.11791443,-0.7832263,9.709891,1.1291403
1409350429905,2.142212,8.881291,0.9091981,-0.86637133,9.702482,1.1320869
1409350429907,2.3989902,8.611943,1.3742718,-0.921887,9.693167,1.1674913
1409350429918,2.6078842,8.419808,1.6681601,-0.9633363,9.680719,1.2353344
1409350429936,2.3732524,8.197148,1.7052702,-0.99894893,9.665273,1.3247663
1409350429962,2.1613655,8.077438,1.5508442,-1.0367545,9.648038,1.4180665
1409350429963,2.1230583,7.8302364,1.4203602,-1.0807408,9.630284,1.5033354
1409350429965,2.1709423,7.819463,1.5699978,-1.1302308,9.613015,1.575726
1409350429967,2.0649989,7.9511437,2.0440497,-1.1797346,9.596459,1.6390883
1409350429990,1.7429788,8.158841,2.4648306,-1.2245686,9.580415,1.6989597
1409350429991,1.0348936,8.154651,3.0388405,-1.2676297,9.563676,1.7605683
1409350429999,0.4297592,8.302493,3.1872811,-1.3120416,9.545302,1.8265128
1409350430019,-0.46267948,8.617331,2.7964275,-1.3599517,9.525652,1.8928467
1409350430019,-0.7457938,8.94773,1.6938977,-1.4150798,9.506366,1.9485774
1409350430033,-0.15981296,9.070433,0.3788824,-1.4751062,9.490543,1.9809172
1409350430057,0.96426475,9.303269,-0.3609259,-1.532704,9.480814,1.9837738
1409350430058,1.822586,9.964667,0.17357962,-1.5793682,9.477993,1.9605145
1409350430062,1.7782934,10.860698,1.2006922,-1.6114719,9.479567,1.9264883
1409350430067,1.1049241,11.401189,2.2798786,-1.6329504,9.4812,1.9001831
1409350430095,0.3800795,11.741764,2.6779146,-1.6477896,9.479965,1.8935266
1409350430096,-0.4985925,11.37186,2.8341362,-1.6614164,9.47764,1.8932624
1409350430098,-0.5081693,11.095329,2.0374656,-1.6714126,9.477082,1.8872494
1409350430116,5.985504E-4,11.326968,1.6400281,-1.6655327,9.483503,1.8599879
1409350430122,0.5662287,11.939884,2.1045034,-1.6338831,9.497275,1.8172932
1409350430136,1.0390835,12.473192,1.9183542,-1.5759904,9.5167675,1.7657249
1409350430156,1.0929531,12.495937,0.842759,-1.5001298,9.541293,1.6981484
1409350430157,0.40641573,11.782465,-0.01616086,-1.4167503,9.569878,1.6064404
1409350430159,-0.7104794,10.332776,-0.48602295,-1.3339573,9.599325,1.4979647
1409350430167,-1.6609775,8.905831,-1.0127473,-1.2545538,9.627397,1.3819196
1409350430192,-2.5330653,8.208521,-1.6286557,-1.17775,9.654252,1.2564725
1409350430194,-3.4805708,8.944737,-1.6962919,-1.1060908,9.679041,1.1238819
1409350430199,-4.642956,11.372458,-0.7793127,-1.0414562,9.700324,0.9947078
1409350430218,-5.629367,15.139734,0.97025025,-0.98724836,9.715443,0.8977333
1409350430219,-6.06152,18.216284,1.9003977,-0.94260603,9.722627,0.8674235
1409350430235,-4.948815,18.01936,1.6932992,-0.8979764,9.723367,0.9056448
1409350430251,-3.4225113,15.573684,1.5735891,-0.8264952,9.722358,0.9813486
1409350430251,-2.5115175,13.038224,2.2098482,-0.7317169,9.720397,1.0718513
1409350430268,-1.7818847,11.374852,3.2992098,-0.63939655,9.714915,1.1755823
1409350430269,-2.0787656,10.123283,4.7285485,-0.5587326,9.70501,1.2926731
1409350430284,-3.2267854,8.741829,4.5418005,-0.49385053,9.691738,1.4130619
1409350430288,-3.4207156,8.825027,3.7457285,-0.4420171,9.680515,1.5042087
1409350430305,-2.3971944,9.588778,2.819771,-0.38708484,9.675648,1.5499773
1409350430307,-1.7782934,8.32045,1.785476,-0.31771794,9.675368,1.567389
1409350430318,-1.1180922,7.3645644,1.0259154,-0.21943617,9.682057,1.5427281
1409350430333,-0.33159694,7.4429746,0.7930793,-0.1016123,9.692525,1.4882933
1409350430356,0.49679685,8.768764,1.0690111,0.019981552,9.702905,1.4225404
1409350430357,1.2084733,9.491214,0.7541735,0.14394951,9.710448,1.3626643
1409350430360,1.4107834,9.14585,0.130484,0.2689768,9.714398,1.3147312
1409350430367,1.1234791,7.631518,-0.13587095,0.3823023,9.714868,1.2828082
1409350430392,1.0773908,6.593033,0.40342298,0.46982175,9.712066,1.2749329
1409350430395,0.9247604,5.8244944,0.92057055,0.534231,9.705979,1.2957541
1409350430399,0.81343,5.270835,1.3545196,0.58462673,9.69692,1.341026
1409350430416,0.92296475,4.903325,1.7489643,0.631193,9.68625,1.3959079
1409350430419,1.033098,4.605247,2.0242975,0.6744823,9.67385,1.4601808
1409350430432,0.9624691,4.3526587,2.0260932,0.71668017,9.660562,1.5265403
1409350430450,0.9487024,4.3807907,1.9686323,0.75507414,9.64755,1.5890392
1409350430451,1.0869676,4.6591167,1.9512744,0.78872347,9.635502,1.6448143
1409350430468,1.1115081,4.914099,2.2625206,0.8185257,9.625073,1.6906735
1409350430468,1.0522517,5.644929,2.542642,0.84271765,9.617012,1.7243291
1409350430482,1.2084733,6.1979895,2.7539306,0.85862166,9.612352,1.7423704
1409350430497,1.5927427,6.937798,2.8646624,0.86743677,9.611393,1.7432915
1409350430499,2.0380642,7.7967176,2.8514943,0.8702285,9.613882,1.7281173
1409350430515,2.417545,8.762179,2.789245,0.8667132,9.619805,1.6966298
1409350430519,2.8287494,9.792884,2.7862523,0.86245966,9.626999,1.6575422
1409350430532,3.3883939,10.812215,2.7246015,0.8528344,9.635957,1.6097914
1409350430549,3.8899791,11.547235,2.806603,0.8429741,9.644771,1.5614643
1409350430549,4.0402155,11.659163,3.1669302,0.83724445,9.651499,1.5224907
1409350430568,3.852869,11.95784,3.6894648,0.83676356,9.654989,1.5004683
1409350430569,2.8485014,13.735536,3.86903,0.84201145,9.655236,1.4959365
1409350430580,2.1134815,14.204799,2.7659016,0.8444352,9.654275,1.5007612
1409350430595,2.4019828,13.434464,1.4221559,0.84502393,9.655346,1.4935329
1409350430599,3.0759506,12.636597,1.122282,0.8635533,9.65713,1.4712212
1409350430613,3.8504748,11.409568,1.8423382,0.91114825,9.654616,1.4589748
1409350430619,4.7901993,10.754155,3.6493618,0.9874968,9.643692,1.4813668
1409350430631,4.8853683,11.668142,6.9288197,1.0854713,9.624965,1.5336779
1409350430654,3.6421793,15.214553,9.0315275,1.2115064,9.592696,1.6379309
1409350430655,-0.7266402,19.129072,1.5275006,1.3387527,9.55181,1.7722996
1409350430662,-3.019687,16.565481,0.86131406,1.4086514,9.541481,1.7737674
1409350430668,-2.3145945,13.823522,-0.12689269,1.4634491,9.538251,1.7465631
1409350430690,-1.4550761,11.518504,-0.5781997,1.5257683,9.535826,1.705998
1409350430691,-1.6639702,9.415198,0.86131406,1.5729855,9.528196,1.7057425
1409350430699,-1.650802,8.349778,1.2976574,1.578993,9.51709,1.7612896
1409350430720,-2.0260932,7.8505874,0.94211835,1.5437995,9.511578,1.8212539
1409350430740,-2.079364,7.8469963,0.8535329,1.4839936,9.516453,1.845338
1409350430741,-2.0027497,8.437765,0.94690675,1.419855,9.52653,1.8438077
1409350430742,-1.8920178,9.099762,0.91099375,1.3571006,9.542204,1.8097049
1409350430747,-1.6460136,9.581595,0.22266077,1.3022134,9.560001,1.7552818
1409350430766,-0.96785605,9.812635,-0.3585317,1.251018,9.579184,1.6865819
1409350430767,0.0688333,9.999383,-0.5267244,1.1934538,9.600355,1.6060038
1409350430783,0.51834464,10.511743,-0.6398504,1.1258376,9.622457,1.520269
1409350430801,0.3393781,11.412561,-0.504578,1.0458646,9.645016,1.4318676
1409350430802,0.4225766,12.064383,-0.08080431,0.95115167,9.666714,1.349211
1409350430817,0.6338649,11.693281,0.15741876,0.8450597,9.685346,1.2846605
1409350430834,0.516549,11.18571,0.27234045,0.7329379,9.700539,1.238039
1409350430835,0.0700304,10.661979,0.39504328,0.6126465,9.714022,1.1970161
1409350430845,-0.557849,8.435371,0.7942764,0.48670027,9.725774,1.1588058
1409350430847,-0.52971715,7.1646485,0.5021838,0.3562647,9.7344675,1.1329613
1409350430863,-0.49799395,6.3033347,0.18136078,0.23446043,9.7397175,1.1195359
1409350430867,-0.7505822,6.0423665,0.2741361,0.12368147,9.742493,1.1130869
1409350430879,-0.90021986,6.2315083,0.75956047,0.0233667,9.743957,1.1068752
1409350430900,-0.70509243,6.9611416,1.3078327,-0.06180223,9.744424,1.1012579
1409350430902,-0.272939,7.9505453,1.6436194,-0.12710926,9.743689,1.1021751
1409350430919,-0.24241292,8.180987,1.6771383,-0.17563598,9.741187,1.1175141
1409350430920,-0.30466217,8.111555,1.0528502,-0.22116387,9.736282,1.1516536
1409350430928,-0.47285482,8.040328,0.3196259,-0.2810228,9.730074,1.1904063
1409350430951,-0.94211835,7.868544,-0.142455,-0.36516258,9.7251215,1.207908
1409350430953,-1.1312603,7.893683,-0.20470424,-0.46441182,9.720838,1.2083143
1409350430970,-1.0582372,7.7093296,-0.05805939,-0.5829588,9.717503,1.1835107
1409350430971,-0.39504328,8.016386,-0.14425065,-0.7078901,9.713154,1.1506261
1409350430980,0.65780693,8.367735,-0.11133038,-0.82206094,9.7077,1.1203386
1409350431003,1.4718355,9.23264,0.35075054,-0.91083795,9.702468,1.0967647
1409350431004,1.8495208,9.609727,0.95349085,-0.96870047,9.697648,1.0897896
1409350431008,2.0039468,9.352949,1.4047978,-1.0052952,9.690852,1.1167682
1409350431034,2.135628,9.038112,1.7088615,-1.0333494,9.680561,1.1786983
1409350431035,1.8962077,9.184157,1.697489,-1.0604224,9.667216,1.2612773
1409350431050,1.8579005,9.460688,1.2491747,-1.0917089,9.652345,1.3456694
1409350431051,1.7872716,9.607333,0.86969376,-1.1265242,9.637389,1.421995
1409350431064,1.8022354,9.734225,0.789488,-1.1657592,9.623025,1.4862077
1409350431068,1.666963,9.841366,1.1528081,-1.2074413,9.609722,1.5380951
1409350431082,1.484405,9.77373,1.9794062,-1.2465302,9.597298,1.5838071
1409350431095,1.0426749,9.49301,2.331354,-1.2788335,9.584237,1.6362662
1409350431099,0.65062433,9.081805,2.12246,-1.3080988,9.569088,1.7005454
1409350431112,0.16759412,8.665215,2.0949266,-1.3390803,9.551882,1.7716701
1409350431129,0.8146271,8.533533,1.6376339,-1.3766075,9.533993,1.8380268
1409350431129,1.927931,8.625112,1.3551182,-1.415091,9.519042,1.8856717
1409350431152,2.698864,9.22426,1.4933833,-1.4467088,9.50901,1.9121114
1409350431153,2.556409,10.191518,1.7956513,-1.4671165,9.504043,1.9212276
1409350431160,1.7040731,10.939706,2.071583,-1.4822448,9.501122,1.9240631
1409350431168,0.46866497,11.399991,2.1146786,-1.4957223,9.499417,1.922057
1409350431188,-0.35254622,11.770494,2.2349873,-1.5149244,9.49713,1.9183097
1409350431189,-0.46387658,11.741764,2.4396915,-1.5374142,9.4954815,1.9085575
1409350431219,-0.29747957,11.227609,2.2421699,-1.5539283,9.497466,1.885165
1409350431220,-0.0712275,10.69849,1.5005659,-1.5535672,9.505662,1.8436978
1409350431222,0.45789108,10.658387,1.75076,-1.5279452,9.521088,1.7845676
1409350431229,0.32202014,10.040684,1.050456,-1.4776261,9.541022,1.7192683
1409350431257,-0.52373165,9.238626,0.015562311,-1.4208696,9.563474,1.6405799
1409350431259,-1.7130513,8.475474,-0.5518635,-1.3666493,9.587703,1.5422856
1409350431261,-2.6599581,8.013991,-1.0007763,-1.3151519,9.611599,1.4345553
1409350431268,-3.5422213,8.425196,-1.3138182,-1.2668741,9.634828,1.3173966
1409350431288,-4.8297033,10.207679,-1.2306197,-1.2168095,9.657169,1.1953485
1409350431289,-5.981314,13.319543,-0.64942724,-1.1740674,9.676441,1.0763129
1409350431300,-6.5367694,16.903065,-0.16519992,-1.1405892,9.690518,0.9814824
1409350431323,-6.417658,19.238607,-0.3633201,-1.1071736,9.699849,0.9260212
1409350431324,-5.716755,18.757374,-0.19572599,-1.0591952,9.707506,0.90156484
1409350431328,-4.4262805,16.504429,0.86610246,-0.98674554,9.714405,0.9094319
1409350431358,-3.1824925,13.795989,2.4223335,-0.8919826,9.718589,0.9611305
1409350431360,-2.2457612,11.303625,3.7762547,-0.7855513,9.7173395,1.0614269
1409350431362,-2.0847511,9.407417,4.757279,-0.6813667,9.710073,1.1918817
1409350431387,-2.472612,8.615535,5.0278234,-0.5834966,9.698786,1.3279537
1409350431388,-3.177704,8.604761,4.5034933,-0.5029547,9.68637,1.446265
1409350431389,-3.6433764,7.9852614,3.477578,-0.4345705,9.678007,1.5224154
1409350431400,-2.942474,8.261193,2.665345,-0.36468607,9.677067,1.5465356
1409350431414,-0.45250413,7.8529816,1.6005238,-0.2729849,9.68257,1.5309107
1409350431433,0.64463884,8.4234,1.7010803,-0.14023484,9.692195,1.4873072
1409350431435,1.4646529,9.443929,1.6927006,0.012875264,9.701258,1.4338118
1409350431448,1.8010383,9.328408,0.8924387,0.16959779,9.707186,1.3828151
1409350431449,1.7531542,8.400057,0.2136825,0.31430772,9.709696,1.3391818
1409350431463,1.5460558,7.305308,0.14305355,0.4317653,9.70907,1.3106992
1409350431468,1.5143325,6.6846113,0.5069722,0.51920664,9.705489,1.305484
1409350431480,1.4640543,6.1626754,0.8810662,0.5943585,9.699821,1.3155308
1409350431498,1.2725182,5.7736173,1.1994951,0.6549049,9.691008,1.3512574
1409350431500,1.174356,5.5922565,1.6059108,0.70959085,9.679615,1.4042525
1409350431513,1.0839748,5.337274,1.9201498,0.7627931,9.666214,1.4672627
1409350431528,0.94570965,5.170877,2.1051018,0.81489104,9.651658,1.5335698
1409350431529,0.9175778,5.155315,2.212841,0.863387,9.63687,1.5986493
1409350431543,0.9211691,5.2558713,2.2732944,0.9054539,9.622684,1.6596693
1409350431548,0.9828198,5.4911017,2.3319526,0.9401415,9.610017,1.7129215
1409350431565,1.2120646,5.8364654,2.231396,0.96762943,9.599809,1.7543502
1409350431577,1.4508862,6.1662664,2.28347,0.98901093,9.593009,1.7794478
1409350431580,1.6250644,6.508039,2.4343045,1.0042403,9.588423,1.795563
1409350431603,2.0452468,6.9360023,2.5288756,1.0165654,9.587128,1.7955362
1409350431605,2.4941597,8.451532,2.5755625,1.019964,9.589213,1.7824241
1409350431609,2.9891608,9.530719,2.722806,1.0127945,9.594105,1.7600527
1409350431643,3.232771,10.478823,3.103484,0.9950319,9.600406,1.7356583
1409350431644,3.2974143,11.073781,3.2004492,0.9655382,9.606772,1.7169927
1409350431645,3.442862,10.989386,2.9993362,0.9260909,9.612647,1.7058073
1409350431649,3.57993,10.268132,2.9646204,0.8828876,9.6179085,1.699045
1409350431674,2.5731683,10.642825,3.4165258,0.8393027,9.621976,1.698108
1409350431675,0.3238158,13.554174,4.4999022,0.7963653,9.624836,1.7025615
1409350431681,0.092775315,14.251486,3.5727475,0.7338981,9.625731,1.7254245
1409350431704,0.9911995,13.544598,1.2431892,0.6731166,9.627062,1.7427052
1409350431705,2.520496,12.631808,-0.28311434,0.6526133,9.629013,1.7397201
1409350431708,4.1258082,10.479421,0.16759412,0.68959534,9.629945,1.7201825
1409350431732,5.403713,8.091804,2.669535,0.77066106,9.622879,1.7253046
1409350431733,5.7065797,8.258201,6.329072,0.88403016,9.603712,1.7769659
1409350431753,4.1317935,12.274473,8.755595,1.0321968,9.5732155,1.8597014
1409350431754,2.1296425,17.326239,6.2183404,1.1854463,9.539411,1.9402953
1409350431763,0.020949265,17.209522,3.168726,1.2994032,9.521856,1.9535196
1409350431798,-2.396596,14.783597,3.393781,1.360438,9.51894,1.9259781
1409350431799,-2.9706059,11.552023,0.6901286,1.3678647,9.514861,1.9408208
1409350431799,-2.4349031,11.593922,0.4345476,1.3558265,9.5082245,1.9813615
1409350431812,-2.806603,12.194866,-0.14544775,1.327259,9.500576,2.0366192
1409350431813,-2.9885623,11.726201,-1.7202339,1.2637352,9.500749,2.0758576
1409350431829,-2.7192147,10.766127,-1.9303252,1.1769855,9.514374,2.0644052
1409350431830,-2.6001031,10.371682,-0.8379706,1.0866675,9.533856,2.0236363
1409350431853,-2.393603,9.791088,-0.076614454,1.0026739,9.551258,1.9845653
1409350431854,-1.8387469,8.810063,0.5734113,0.9334598,9.564361,1.9550118
1409350431862,-0.7835025,7.788338,1.1683705,0.8800192,9.57489,1.928063
1409350431890,-0.15263036,7.3986816,1.4622587,0.8357874,9.5849085,1.8977287
1409350431891,0.20949265,8.162432,1.9021933,0.7902267,9.59472,1.8674229
1409350431892,0.78769237,9.391256,2.5605986,0.73895246,9.603615,1.8425387
1409350431901,1.2934675,9.878476,2.742558,0.68328494,9.611154,1.8246179
1409350431916,1.3826514,9.572617,2.2900538,0.625942,9.618162,1.8081893
1409350431923,0.97503865,9.5013895,1.5328877,0.56504124,9.626897,1.7815672
1409350431928,0.39624038,9.890448,0.9576807,0.49599373,9.639998,1.7305578
1409350431952,-0.32680854,9.927557,0.5895722,0.41869333,9.657226,1.6531945
1409350431953,-1.1001357,9.400234,0.061650693,0.33427083,9.675253,1.5646564
1409350431961,-1.4239515,8.875904,-0.61890113,0.24764717,9.690892,1.4817724
1409350431981,-1.4664485,8.507795,-0.6817489,0.16645138,9.7032795,1.4103391
1409350431983,-1.5304934,8.662222,-0.055066638,0.095606156,9.712211,1.3543267
1409350431996,-1.4041992,8.667608,0.59974754,0.034822308,9.717567,1.3183423
1409350432016,-0.7332243,8.573636,0.98222125,-0.016873978,9.71897,1.3083242
1409350432018,-0.054468088,8.450335,1.0199299,-0.06147183,9.718151,1.3130677
1409350432022,0.50757074,8.803479,1.0019734,-0.106523566,9.714268,1.338668
1409350432030,0.7613561,8.948928,0.96306765,-0.15816168,9.708862,1.372361
1409350432069,1.0773908,8.738237,0.9660604,-0.223105,9.703657,1.3998767
1409350432071,1.401805,8.154651,0.7733272,-0.30301863,9.6991415,1.4160651
1409350432073,1.6849195,7.7254906,0.6194997,-0.39397988,9.6949005,1.42269
1409350432074,2.0404584,7.852383,0.78050977,-0.49055475,9.690092,1.4254396
1409350432081,2.1918917,8.258799,1.1079168,-0.5827512,9.68432,1.4299376
1409350432108,2.180519,8.56825,1.3982137,-0.6621828,9.677061,1.4444267
1409350432109,2.2301989,8.788516,1.7902644,-0.7276972,9.66717,1.4787551
1409350432111,2.2164323,8.869919,1.982399,-0.7824699,9.65337,1.5396675
1409350432128,1.9572599,8.566454,1.8375498,-0.8339701,9.637373,1.6111972
1409350432129,1.560421,8.288726,1.543063,-0.8854209,9.618845,1.692413
1409350432142,1.2611457,8.22528,1.1486182,-0.94388247,9.599813,1.7672172
1409350432149,1.2084733,8.27496,1.0384849,-1.0081525,9.581872,1.8280495
1409350432163,1.1707647,8.470087,1.62686,-1.0716276,9.566189,1.8735119
1409350432177,0.9588778,8.586804,2.4121583,-1.1286104,9.551876,1.9126725
1409350432180,0.7194576,8.693945,2.8042088,-1.1787174,9.537135,1.9555268
1409350432201,0.18495208,8.920197,2.6767175,-1.2266821,9.521365,2.0023172
1409350432202,-0.20350714,9.26197,1.9734207,-1.2787843,9.505538,2.0444617
1409350432209,0.12569559,9.513959,0.6937199,-1.3350041,9.491847,2.0719566
1409350432233,1.0522517,9.5809965,0.12150574,-1.3892288,9.481508,2.0836108
1409350432234,1.8830396,9.830592,0.33518824,-1.4357715,9.475434,2.0796905
1409350432241,1.6567876,10.303447,1.2641385,-1.4754664,9.472544,2.0650206
1409350432264,0.98461545,10.694301,1.8806454,-1.5136199,9.470362,2.047341
1409350432265,0.12330139,11.051037,2.0560207,-1.5501311,9.46734,2.0339568
1409350432284,-0.5446809,11.386824,1.845331,-1.5839814,9.463794,2.0243485
1409350432285,-0.82899237,11.727997,1.702876,-1.6114407,9.463374,2.0045536
1409350432289,-0.7392098,11.818976,1.8052281,-1.6280464,9.469082,1.9637616
1409350432312,-0.6380547,11.314399,1.5023615,-1.6268095,9.480382,1.9095138
1409350432313,-0.22924481,10.845734,0.973243,-1.6032547,9.495756,1.8521856
1409350432326,0.3597288,10.420164,1.436521,-1.5559216,9.515756,1.7888317
1409350432329,0.5141548,9.598354,1.2521675,-1.4975805,9.536854,1.725131
1409350432344,-0.08559271,8.462306,0.79487497,-1.4296538,9.560704,1.6490719
1409350432361,-2.5851393,6.6079965,-0.10594343,-1.3601164,9.585528,1.5614444
1409350432362,-3.4632127,7.28376,-0.65900403,-1.3001595,9.609216,1.4638953
1409350432377,-4.51726,9.465476,-0.5566519,-1.2416829,9.633097,1.3535335
1409350432381,-5.3139305,13.247118,0.2172738,-1.1880164,9.655095,1.240214
1409350432399,-5.6323595,17.894264,0.830788,-1.1355734,9.672728,1.1485779
1409350432401,-4.9679685,19.608511,1.1647792,-1.0787092,9.685617,1.0934318
1409350432409,-3.8337154,19.608511,1.5107412,-0.99674064,9.69647,1.0748768
1409350432433,-3.0250738,19.232023,1.8596961,-0.88632655,9.706385,1.0820962
1409350432434,-2.1398177,16.324863,2.2942438,-0.76797235,9.712996,1.1128134
1409350432441,-1.5041572,12.374432,3.3877954,-0.646829,9.715699,1.1649832
1409350432467,-1.5556326,9.635465,4.282628,-0.5455491,9.710774,1.2544465
1409350432468,-2.8413188,7.9972324,4.343082,-0.4711342,9.699925,1.3637679
1409350432470,-3.6966474,7.181408,3.6092591,-0.4205144,9.68836,1.4591981
1409350432482,-2.9370868,8.228871,2.7126305,-0.37512252,9.682623,1.5088
1409350432499,-1.6226702,8.504205,2.0069396,-0.3043605,9.68512,1.5087124
1409350432501,-1.0528502,7.381324,1.8890251,-0.19085845,9.693167,1.4753034
1409350432509,-0.090381116,8.015189,2.6210523,-0.055776834,9.701321,1.4323745
1409350432533,0.9588778,8.980052,2.8395233,0.085036755,9.705795,1.4002514
1409350432534,1.4251486,9.004593,2.0201077,0.22894476,9.706193,1.3812258
1409350432541,1.1366472,7.2622123,0.57400984,0.35715446,9.704975,1.3624568
1409350432568,1.271321,6.616975,0.5279215,0.46731445,9.702262,1.3483833
1409350432569,1.1079168,5.7502737,0.7224504,0.5501605,9.697517,1.3512446
1409350432570,0.7248446,5.171476,1.0708067,0.61468875,9.690312,1.3749118
1409350432599,0.50397944,4.8141413,1.4341269,0.6719065,9.680396,1.417347
1409350432601,0.47644615,4.614824,1.5837644,0.7272209,9.668155,1.4725299
1409350432603,0.43394905,4.662708,1.5759833,0.7819549,9.654557,1.5324738
1409350432610,0.5081693,4.924873,1.4879963,0.8339274,9.640713,1.5911055
1409350432629,0.6147113,5.1223946,1.4185646,0.8810247,9.627821,1.6429338
1409350432630,0.717662,5.222951,1.5227122,0.9216026,9.616977,1.6836826
1409350432649,0.85652566,5.4288526,1.714847,0.9532761,9.608929,1.7117689
1409350432651,1.1067197,5.885546,1.9572599,0.9814589,9.602209,1.7334149
1409350432662,1.2791022,6.459556,2.3540988,0.9984991,9.598691,1.7431332
1409350432695,1.5658079,6.9731126,2.8550856,1.005123,9.598207,1.7419975
1409350432696,1.7776948,7.27957,3.1429882,1.0006988,9.600476,1.7320114
1409350432699,2.134431,7.6883802,3.031658,0.9823892,9.60579,1.7129291
1409350432718,2.516306,8.557475,2.658761,0.95115995,9.614106,1.6836429
1409350432719,2.8030117,9.561843,2.7024553,0.9091192,9.624761,1.6455566
1409350432725,2.8999767,10.333973,3.4141316,0.8601348,9.635109,1.6109722
1409350432732,2.8491,10.573393,3.3542767,0.80869395,9.642068,1.5959142
1409350432757,2.509722,12.010512,3.6984432,0.76147306,9.646386,1.5930414
1409350432757,1.6328455,14.353838,3.6685154,0.7247275,9.647982,1.6005063
1409350432761,1.3970166,13.631388,1.8285716,0.68726915,9.6491585,1.6099083
1409350432779,2.1559787,12.865841,0.34835634,0.6671352,9.650587,1.6098137
1409350432781,3.0430303,11.78486,-0.009576807,0.6807428,9.651677,1.597544
1409350432799,4.0623617,10.038289,0.80445176,0.73299307,9.649824,1.5855677
1409350432801,4.766257,9.021951,3.4793737,0.8187205,9.639779,1.604605
1409350432809,4.944625,10.128671,8.333617,0.9341771,9.618057,1.670539
1409350432832,4.073136,15.416863,10.516531,1.0847479,9.579609,1.7957798
1409350432833,3.3979707,19.606716,5.1170077,1.2444757,9.531972,1.9398973
1409350432841,0.62129533,19.25417,2.2900538,1.3906252,9.50811,1.9576497
1409350432867,-1.5915456,15.951369,0.8702923,1.476876,9.504075,1.9135791
1409350432869,-2.296638,13.656527,0.31543607,1.5104557,9.508169,1.866455
1409350432870,-3.0268695,11.701062,1.0654198,1.5222903,9.509536,1.8497996
1409350432901,-3.4757824,11.6585655,0.7015011,1.492982,9.506483,1.8889585
1409350432902,-3.8253357,11.431715,-0.5153519,1.4141588,9.508673,1.9379525
1409350432903,-3.6649241,10.075998,-0.92057055,1.3067902,9.520986,1.9528228
1409350432909,-3.3237505,9.432556,0.58538234,1.2032094,9.535663,1.9477707
1409350432927,-2.8622682,9.258378,0.54767364,1.1164043,9.545761,1.949996
1409350432929,-1.6765398,8.882488,0.7757214,1.0473613,9.553465,1.9505788
1409350432946,-0.21068975,8.573636,1.3359646,0.99222064,9.561107,1.941936
1409350432959,0.57281274,8.262989,1.5239093,0.9429254,9.57076,1.9188188
1409350432961,0.9115923,8.685565,1.5310919,0.8937622,9.582178,1.8850551
1409350432977,1.3718776,9.809643,1.7633295,0.8424758,9.593843,1.8489947
1409350432996,1.6873137,10.632649,1.638831,0.79159695,9.605556,1.8102725
1409350432997,1.7483658,10.839149,1.1875241,0.73902535,9.617252,1.7699411
1409350433008,1.4335283,10.669162,0.7080852,0.68010235,9.629779,1.724875
1409350433009,0.79487497,10.462063,0.41000703,0.60943294,9.644453,1.668384
1409350433026,0.006584055,9.975441,0.3549404,0.5238764,9.661023,1.6001819
1409350433030,-0.6206968,9.399037,0.32621,0.42281494,9.677615,1.5281957
1409350433058,-0.9247604,8.649054,0.14724341,0.31518808,9.692028,1.4613872
1409350433059,-0.99179804,8.034941,-0.059855044,0.21129765,9.703098,1.4055811
1409350433063,-0.9660604,7.5890207,-0.20171149,0.11826354,9.710716,1.3632196
1409350433091,-0.99060094,7.1664443,-0.19871874,0.040002048,9.715206,1.3354993
1409350433093,-1.1683705,7.0850415,0.12808979,-0.028817222,9.717843,1.3164748
1409350433095,-1.5227122,7.425018,0.6967127,-0.0838976,9.717607,1.3158523
1409350433108,-1.3569138,7.9942393,0.8678981,-0.13582492,9.714555,1.333931
1409350433110,-1.1504139,7.9008656,0.63206923,-0.19515797,9.709335,1.3642297
1409350433124,-1.3186066,8.230068,0.51834464,-0.2679552,9.70335,1.3941233
1409350433140,-1.1085154,8.444948,0.3477578,-0.35776833,9.697641,1.4135557
1409350433142,-0.6003461,8.519767,0.14724341,-0.45876566,9.692359,1.4206033
1409350433159,0.34955344,8.489241,-0.06284779,-0.56327266,9.687396,1.4168541
1409350433180,1.3449428,9.039309,0.051475335,-0.80653024,9.674815,1.3848656
1409350433180,2.0470424,9.423578,0.4417302,-0.80653024,9.674815,1.3848656
1409350433185,2.4366987,9.446322,1.0354922,-0.80653024,9.674815,1.3848656
1409350433190,2.231396,8.862736,1.5759833,-0.86047727,9.668032,1.3996885
1409350433219,1.977012,8.519767,1.927931,-0.9097847,9.656883,1.4447411
1409350433220,1.5173253,8.468291,1.9698294,-0.9611173,9.641641,1.5117648
1409350433222,1.0582372,8.507795,1.6861166,-1.0208493,9.624113,1.582634
1409350433246,0.85652566,8.405443,1.3066356,-1.0915482,9.605988,1.6443619
1409350433247,0.8972271,8.371326,1.1869255,-1.167876,9.588596,1.6927071
1409350433250,1.0588357,8.410232,1.5119383,-1.2396,9.572342,1.7332184
1409350433274,1.0929531,8.350377,2.0332758,-1.2997597,9.556779,1.7745442
1409350433275,1.0588357,8.360553,2.8862102,-1.3518435,9.540487,1.8226346
1409350433291,0.92535895,8.719084,2.9161377,-1.3999906,9.522824,1.8778338
1409350433292,0.7104794,9.671378,1.5161282,-1.4477895,9.505108,1.9306056
1409350433313,1.7537527,9.767146,0.4405331,-1.4944358,9.491561,1.9614679
1409350433314,2.6647465,9.859323,0.46686932,-1.5311177,9.483327,1.9729712
1409350433322,2.44448,10.281899,1.4197617,-1.5558821,9.478789,1.9753976
1409350433349,1.6394296,10.481815,2.1057005,-1.5745267,9.476053,1.9737405
1409350433350,0.6901286,10.784681,2.0470424,-1.5886523,9.4741535,1.9715462
1409350433351,-0.01616086,11.19409,1.7345991,-1.5947326,9.473654,1.9690386
1409350433383,-0.41120413,11.503541,1.6214731,-1.5885601,9.477183,1.9570004
1409350433384,-0.25198972,11.741764,1.7142484,-1.5707691,9.487158,1.9227397
1409350433384,0.31483752,11.432912,1.3311762,-1.5363336,9.504121,1.865947
1409350433390,0.5422867,10.772112,0.5410896,-1.4769888,9.526047,1.8009348
1409350433408,0.7068881,9.915586,0.79726917,-1.4067839,9.549311,1.7326299
1409350433411,0.7302315,8.831013,0.93852705,-1.3202444,9.573558,1.6656349
1409350433427,0.16340427,7.5189905,0.7625532,-1.2294794,9.598194,1.5916865
1409350433447,-1.0163386,6.6762314,0.62488663,-1.1428256,9.6216,1.5129963
1409350433448,-2.7084408,6.89171,0.6739678,-1.0618964,9.642547,1.4366934
1409350433450,-4.608838,8.492832,0.9463082,-0.9891607,9.660437,1.3667221
1409350433480,-6.361394,11.384429,1.2036849,-0.93284756,9.673394,1.3136387
1409350433492,-7.243657,15.270817,0.8948329,-0.8968042,9.680445,1.2865175
1409350433493,-4.8081555,19.581577,0.30466217,-0.8703979,9.685024,1.2700813
1409350433494,-4.332308,18.859127,1.4706384,-0.79550946,9.695435,1.2394091
1409350433514,-3.3871968,17.329231,2.4109612,-0.7057587,9.703271,1.2324183
1409350433515,-2.4887726,14.870985,2.9646204,-0.6034089,9.707763,1.2512538
1409350433522,-2.0410569,11.702858,3.8869865,-0.49754462,9.706267,1.3081307
1409350433549,-2.4169466,10.229227,4.8039656,-0.3976348,9.6979885,1.4004601
1409350433550,-3.3794158,9.561244,4.550779,-0.31892714,9.685518,1.5031338
1409350433550,-3.0125043,9.081805,3.4290953,-0.2607767,9.675244,1.5786195
1409350433583,-1.7944542,9.69113,2.4720132,-0.19557288,9.673079,1.6011546
1409350433584,-0.76315176,8.933365,2.0135236,-0.09876696,9.6784315,1.5775346
1409350433585,-0.24241292,7.6387005,2.1416135,0.03413199,9.686025,1.5330174
1409350433590,0.5141548,8.008605,2.7024553,0.181552,9.691118,1.4898616
1409350433610,1.3940239,9.035717,2.7688942,0.3293306,9.691617,1.4609932
1409350433611,1.6759412,8.982447,1.8495208,0.4795077,9.688461,1.4401935
1409350433631,1.3862427,7.9224133,1.0259154,0.62335527,9.682344,1.4261832
1409350433632,1.359308,7.1365166,0.9983821,0.74243224,9.674603,1.4216975
1409350433642,1.5029601,6.6205664,1.1731589,0.8336439,9.66536,1.4339579
1409350433666,1.4879963,6.1004257,1.1528081,0.90777594,9.6538105,1.4663872
1409350433667,1.09834,5.5377884,1.0941502,0.9737595,9.639804,1.5153806
1409350433671,0.79607207,5.1487308,1.0953473,1.0326793,9.624422,1.5730408
1409350433713,0.8002619,5.0038815,1.1510124,1.0858072,9.608664,1.6324803
1409350433717,0.9127894,4.9027267,1.1091139,1.1352215,9.592867,1.6907319
1409350433719,1.0324994,4.911106,1.0402806,1.1785265,9.578044,1.744287
1409350433720,1.0785879,4.9284644,1.039682,1.2132764,9.56541,1.7892169
1409350433726,1.2162545,5.097255,1.2587515,1.2444628,9.554186,1.8273592
1409350433751,1.4221559,5.4043117,1.6759412,1.2649627,9.5465975,1.852762
1409350433752,1.6675615,5.9400144,2.1350293,1.2758601,9.543166,1.8629467
1409350433753,1.9788077,6.6325374,2.4301147,1.2899252,9.542175,1.8583237
1409350433774,2.2649148,7.340024,2.5887306,1.2800854,9.546955,1.8404964
1409350433775,2.421735,7.9864583,2.867655,1.2571067,9.555316,1.8127403
1409350433793,2.421735,8.615535,3.3333273,1.2190757,9.565812,1.7831104
1409350433794,2.4061728,9.269152,3.733159,1.1653,9.577143,1.7580736
1409350433808,2.505532,9.961076,4.010886,1.1007425,9.588105,1.7398236
1409350433810,2.570774,10.189722,3.9791632,1.0345017,9.597234,1.7301111
1409350433825,1.9812019,10.481216,3.9199066,0.9739814,9.604716,1.7237042
1409350433846,0.6171055,13.311163,4.2179847,0.9114085,9.61034,1.7265818
1409350433847,0.40462008,15.111004,3.3482912,0.83961785,9.612795,1.7491648
1409350433851,1.0193313,13.820529,1.4059949,0.783907,9.612117,1.7785137
1409350433880,3.8522706,12.302007,0.62728083,0.78304225,9.610442,1.7879233
1409350433881,5.2594624,10.499173,2.0805612,0.8574643,9.60389,1.7889743
1409350433883,5.823297,9.57561,5.4378304,0.97087955,9.585734,1.8279706
1409350433891,5.0625396,12.830527,10.538078,1.1118381,9.552426,1.9197319
1409350433918,3.6182373,18.97285,9.179369,1.2689948,9.500167,2.0752983
1409350433919,1.3018472,19.608511,3.0178912,1.4042305,9.457736,2.1793916
1409350433923,-2.4654293,17.76797,0.91458505,1.496268,9.4485,2.1581109
1409350433954,-3.46022,14.219763,-0.4770447,1.530708,9.453304,2.1124346
1409350433955,-2.6030958,11.213842,-0.9696517,1.5495037,9.46038,2.066562
1409350433957,-1.9416976,9.414599,0.83737206,1.5606049,9.457655,2.0706666
1409350433986,-1.7471687,9.317036,2.2798786,1.5428541,9.444958,2.140736
1409350433987,-1.7196354,8.863335,2.083554,1.4853066,9.435107,2.2232916
1409350433988,-1.6304513,7.9942393,1.5269021,1.4094341,9.435899,2.2688527
1409350433991,-1.3922282,8.100183,1.6352397,1.3371267,9.445274,2.2736025
1409350434014,-1.4437037,8.539519,1.721431,1.2790362,9.457091,2.2578561
1409350434015,-1.3982137,9.027936,1.2030864,1.2358234,9.469649,2.2290964
1409350434023,-1.0815806,9.396045,0.95947635,1.1994773,9.486483,2.1767619
1409350434048,-0.007182605,9.598953,1.328782,1.1598742,9.507819,2.1039147
1409350434048,1.0205284,9.66659,1.4167689,1.1206617,9.528555,2.0300622
1409350434051,1.7304093,10.8948145,0.87089086,1.0813475,9.549106,1.9533693
1409350434091,1.7663223,11.185112,0.60812724,1.036082,9.569758,1.8752725
1409350434092,1.483208,10.900202,0.11432313,0.9786021,9.589264,1.8051994
1409350434093,0.93732995,10.474034,-0.12749124,0.9073025,9.608336,1.7398481
1409350434095,0.30166942,9.925761,0.016759412,0.8203573,9.628472,1.6703064
1409350434114,-0.25438392,9.36911,0.36391866,0.718698,9.6491,1.5964679
1409350434115,-0.5805939,8.692149,0.46567222,0.6066253,9.66772,1.5289216
1409350434123,-0.57640404,7.967903,0.17657238,0.49304086,9.682278,1.4767612
1409350434146,-0.41240123,7.395689,0.078410104,0.38549674,9.692849,1.4389094
1409350434146,-0.45370123,7.2370734,0.24959552,0.2836749,9.7009945,1.4073452
1409350434151,-0.7260417,7.499837,0.56982,0.19606005,9.70654,1.3838485
1409350434174,-0.9223662,7.9864583,0.9947908,0.122834645,9.710047,1.3675959
1409350434174,-0.9552865,8.350976,1.2395979,0.059229165,9.711248,1.3632752
