time,acc_x,acc_y,acc_z,gravity_x,gravity_y,gravity_z
1409527100790,1.388637,9.144653,3.1585505,1.3569889,9.214516,3.0694776
1409527100792,1.4209588,9.150639,3.2237926,1.3568027,9.211743,3.077866
1409527100803,1.4754268,9.112331,3.2740707,1.356768,9.210079,3.0828557
1409527100825,1.4838065,9.09258,3.283049,1.3571,9.208911,3.0862014
1409527100826,1.4640543,9.128492,3.309984,1.3573394,9.207903,3.0891042
1409527100831,1.447295,9.199121,3.2626984,1.3572578,9.206981,3.0918846
1409527100850,1.3772645,9.302073,3.1962593,1.357519,9.206134,3.0942872
1409527100852,1.3012487,9.354745,3.1854854,1.356943,9.205722,3.0957658
1409527100870,1.2737153,9.450513,3.193865,1.355692,9.205594,3.096693
1409527100872,1.2413936,9.750386,3.1022868,1.3534073,9.205602,3.097675
1409527100883,1.1522095,9.495404,2.9059622,1.3505108,9.206227,3.09708
1409527100899,1.0696096,9.325416,2.955642,1.3466196,9.207372,3.0953708
1409527100923,1.1617863,9.442133,2.9634233,1.339737,9.208766,3.0942106
1409527100924,1.1935096,9.248801,3.019687,1.3331201,9.210396,3.092212
1409527100926,1.2623428,9.18715,3.0370448,1.3282554,9.21153,3.0909326
1409527100932,1.3174095,9.164406,3.0891187,1.3238674,9.212693,3.0893455
1409527100958,1.3455414,9.14585,3.0789435,1.3201661,9.213958,3.0871565
1409527100959,1.3545196,9.161413,3.0478187,1.3175033,9.215129,3.0847974
1409527100964,1.3066356,9.211691,3.0639796,1.31542,9.215918,3.0833342
1409527100990,1.2467805,9.2547865,3.0520086,1.3131614,9.216394,3.0828695
1409527100992,1.2228385,9.306262,3.0005333,1.3106188,9.216796,3.082751
1409527100993,1.2623428,9.311649,3.0131028,1.3076506,9.217658,3.0814312
1409527101005,1.292869,9.287707,3.0759506,1.3045706,9.218701,3.0796173
1409527101027,1.3257892,9.2494,3.1028855,1.3016337,9.219614,3.0781245
1409527101029,1.3611037,9.202114,3.116652,1.2983884,9.220518,3.0767894
1409527101032,1.3617022,9.173384,3.1651347,1.2950857,9.221266,3.075935
1409527101064,1.359308,9.167398,3.1381998,1.2915678,9.221814,3.075773
1409527101065,1.3413515,9.200917,3.120842,1.2880416,9.222289,3.0758307
1409527101088,1.3162124,9.232041,3.1256304,1.2770576,9.223691,3.0762026
1409527101089,1.3215994,9.269152,3.1304188,1.2770576,9.223691,3.0762026
1409527101091,1.3281834,9.276335,3.1794999,1.2770576,9.223691,3.0762026
1409527101092,1.3509283,9.280524,3.1974564,1.2733943,9.224091,3.0765269
1409527101104,1.3880384,9.240421,3.2184057,1.2701213,9.224534,3.0765533
1409527101117,1.400608,9.186552,3.25372,1.267525,9.224813,3.0767848
1409527101131,1.3874398,9.137471,3.2716765,1.265373,9.224861,3.0775213
1409527101132,1.3742718,9.138668,3.2734723,1.2634137,9.225083,3.0776615
1409527101149,1.3455414,9.165004,3.2429461,1.2618115,9.22556,3.0768917
1409527101152,1.3251907,9.211093,3.1878796,1.2604034,9.226178,3.0756164
1409527101167,1.347337,9.258977,3.1411927,1.2593629,9.226906,3.0738564
1409527101180,1.3664906,9.276335,3.1597476,1.258748,9.227691,3.0717502
1409527101183,1.400608,9.236232,3.1848867,1.2589395,9.228122,3.0703807
1409527101196,1.4191631,9.252991,3.1950622,1.2599605,9.228155,3.069858
1409527101214,1.4041992,9.252991,3.2172086,1.2616996,9.227871,3.0700054
1409527101215,1.3970166,9.258378,3.1830912,1.263184,9.227444,3.0706735
1409527101230,1.3904326,9.2907,3.1603463,1.2647505,9.227336,3.070355
1409527101232,1.400608,9.279925,3.122039,1.2665417,9.227411,3.06939
1409527101247,1.3868413,9.269751,3.1070752,1.2684008,9.227592,3.0680783
1409527101253,1.3401544,9.272144,3.1118636,1.2703773,9.22762,3.067174
1409527101275,1.316811,9.230247,3.120842,1.2720088,9.227615,3.0665088
1409527101277,1.2988545,9.205107,3.1381998,1.2732718,9.227619,3.0659764
1409527101288,1.2844892,9.20391,3.163339,1.27432,9.227554,3.0657372
1409527101312,1.2641385,9.202713,3.1669302,1.2749864,9.227333,3.0661225
1409527101312,1.2934675,9.229049,3.169923,1.2754879,9.226918,3.0671682
1409527101313,1.3132197,9.232041,3.1603463,1.2771511,9.226155,3.0687704
1409527101328,1.3162124,9.272144,3.1573534,1.2796453,9.225508,3.0696752
1409527101332,1.3730747,9.27394,3.1381998,1.2825369,9.224959,3.070117
1409527101345,1.3730747,9.277532,3.117849,1.2860419,9.224345,3.0704966
1409527101353,1.423353,9.255983,3.1310172,1.2898351,9.223777,3.0706134
1409527101372,1.4969746,9.219472,3.1453824,1.2941037,9.222996,3.0711646
1409527101374,1.5328877,9.202114,3.1124623,1.2990716,9.222114,3.0717134
1409527101384,1.5640123,9.176376,3.1471782,1.304474,9.221267,3.0719683
1409527101405,1.5616181,9.200917,3.107674,1.3101072,9.220296,3.0724814
1409527101406,1.5783775,9.216479,3.1064768,1.3153744,9.219565,3.072429
1409527101412,1.5460558,9.211691,3.0759506,1.3204931,9.21911,3.0715966
1409527101429,1.5280992,9.217676,3.0424318,1.3254658,9.218954,3.0699213
1409527101432,1.5185224,9.196728,3.0005333,1.3302025,9.218996,3.0677452
1409527101447,1.5095441,9.206305,2.9700072,1.3346531,9.21901,3.0657747
1409527101469,1.4628572,9.183559,2.9616275,1.3390255,9.218987,3.063933
1409527101471,1.5215151,9.214086,2.9700072,1.3431125,9.219013,3.0620654
1409527101472,1.5562311,9.212888,2.9634233,1.347819,9.218915,3.0602913
1409527101484,1.6005238,9.227852,2.9777884,1.3528049,9.218674,3.0588171
1409527101507,1.6741456,9.26556,3.0059202,1.3583071,9.218347,3.0573628
1409527101508,1.6873137,9.269152,3.0137014,1.3648236,9.217929,3.0557215
1409527101512,1.6819267,9.281123,3.0113072,1.3716981,9.217149,3.0549943
1409527101532,1.6849195,9.257181,2.9873652,1.3781105,9.216453,3.05421
1409527101533,1.7058687,9.266758,2.9771898,1.3843707,9.215874,3.0531285
1409527101547,1.6873137,9.215881,2.9813797,1.390678,9.215425,3.0516164
1409527101568,1.5927427,9.17099,2.983774,1.3967344,9.215053,3.0499744
1409527101570,1.578976,9.176376,2.9921536,1.402008,9.214696,3.048632
1409527101586,1.54845,9.179968,3.003526,1.4068449,9.214267,3.047699
1409527101587,1.5382746,9.194932,3.0466216,1.411304,9.213812,3.0470104
1409527101593,1.5658079,9.18715,3.0382419,1.4156616,9.213282,3.0465937
1409527101619,1.5568297,9.213487,3.072958,1.4203205,9.212752,3.0460236
1409527101620,1.584363,9.198523,3.1016884,1.4248999,9.212301,3.045255
1409527101626,1.4915876,9.184756,3.156755,1.4301699,9.211685,3.0446453
1409527101632,1.5107412,9.186552,3.17531,1.4351625,9.210987,3.044411
1409527101652,1.4903905,9.21229,3.221997,1.4403087,9.210422,3.0436862
1409527101654,1.4401124,9.234436,3.1944637,1.4454775,9.210038,3.042398
1409527101664,1.423353,9.282919,3.1585505,1.4503895,9.21004,3.0400517
1409527101683,1.3964181,9.268554,3.0951042,1.4550734,9.2098875,3.0382776
1409527101684,1.2868834,9.266758,3.0783448,1.4597236,9.20965,3.0367677
1409527101701,1.3425486,9.237429,3.044826,1.463377,9.209551,3.0353088
1409527101715,1.2336124,9.2069025,3.0753522,1.4673771,9.209425,3.0337574
1409527101716,1.2539631,9.269751,3.0603883,1.4700292,9.20938,3.032613
1409527101729,1.3371617,9.32781,3.0322564,1.4718044,9.209549,3.031234
1409527101732,1.2563573,9.348759,3.0873232,1.4735379,9.210067,3.028824
1409527101747,1.4221559,9.564238,3.0142999,1.4738013,9.2108555,3.026295
1409527101763,1.3311762,9.3738985,3.110068,1.4747407,9.211906,3.0226328
1409527101764,1.3186066,9.295488,3.0370448,1.4762431,9.212208,3.0209792
1409527101779,1.3634979,9.2308445,3.072958,1.4788069,9.212192,3.0197728
1409527101784,1.4155718,9.224859,3.13401,1.4800508,9.212541,3.0181022
1409527101795,1.4628572,9.266758,3.1585505,1.4809002,9.213024,3.01621
1409527101811,1.5119383,9.291298,3.1627405,1.482067,9.213546,3.0140445
1409527101812,1.5610195,9.307459,3.1729157,1.4836868,9.214149,3.0113938
1409527101829,1.5897499,9.311649,3.1423898,1.485864,9.214855,3.0081613
1409527101832,1.6196774,9.2787285,3.1112652,1.4883066,9.215641,3.0045478
1409527101844,1.6705543,9.255983,3.0831332,1.49135,9.216444,3.0005713
1409527101865,1.7304093,9.229049,3.0520086,1.4945973,9.217279,2.996386
1409527101866,1.6819267,9.19134,3.0538042,1.4979205,9.2181225,2.992129
1409527101891,1.6807296,9.141661,3.0184898,1.5003728,9.219253,2.987412
1409527101893,1.7076644,9.108741,2.9975405,1.5023607,9.220634,2.9821513
1409527101895,1.6986861,9.275736,3.091513,1.5050557,9.221833,2.9770706
1409527101920,1.6352397,9.167398,3.0825348,1.5087494,9.222464,2.9732542
1409527101921,1.6095021,9.149442,3.074155,1.5117743,9.22308,2.9698055
1409527101924,1.5855601,9.206305,3.0855274,1.5132068,9.224312,2.9652429
1409527101932,1.584363,9.238626,3.074155,1.5135144,9.225986,2.9598746
1409527101944,1.5466543,9.297284,3.0693667,1.5136434,9.227838,2.9540305
1409527101966,1.5340848,9.340978,3.0986955,1.5134522,9.229807,2.9479685
1409527101968,1.4879963,9.3738985,3.0627825,1.5131532,9.231628,2.9424126
1409527101984,1.4808137,9.430161,3.004723,1.5120636,9.233759,2.9362822
1409527102000,1.4490906,9.454104,2.9484594,1.5102187,9.236394,2.9289393
1409527102003,1.3652935,9.478644,2.9634233,1.5071665,9.239138,2.9218473
1409527102015,1.3551182,9.434352,2.9454668,1.5024263,9.242043,2.9150937
1409527102016,1.3449428,9.376292,2.938284,1.4966458,9.245266,2.9078386
1409527102027,1.3024458,9.3738985,2.902371,1.4904075,9.248418,2.9010131
1409527102032,1.3150153,9.316438,2.89459,1.4827392,9.251598,2.8947873
1409527102044,1.340753,9.283517,2.8951883,1.4743755,9.254961,2.8883057
1409527102061,1.3012487,9.296086,2.8646624,1.4657799,9.258493,2.8813534
1409527102064,1.0546459,8.65863,2.939481,1.4570665,9.262423,2.8731256
1409527102078,1.3317747,9.268554,2.9011738,1.4474916,9.266235,2.8656607
1409527102094,1.3389573,9.554661,2.8736405,1.4416466,9.26961,2.8576832
1409527102095,1.2826935,9.516952,2.813187,1.4397947,9.27229,2.8499188
1409527102119,1.2791022,9.346365,2.7503393,1.4364774,9.276283,2.8385787
1409527102121,1.2497733,9.630077,2.7443538,1.4295146,9.281903,2.823678
1409527102125,1.2533646,9.540296,2.7539306,1.420283,9.288187,2.80763
1409527102133,1.2779051,9.363723,2.8119898,1.4112533,9.293881,2.7933028
1409527102151,1.3281834,9.2865095,2.8754363,1.4035058,9.298412,2.7821033
1409527102168,1.3964181,9.272743,2.8604724,1.39677,9.301816,2.7741053
1409527102169,1.4508862,9.2494,2.7952304,1.3897685,9.304705,2.7679293
1409527102173,1.4921862,9.133281,2.7521348,1.3822987,9.307929,2.760818
1409527102197,1.5442601,9.275736,2.789245,1.3750746,9.3116255,2.7519407
1409527102198,1.555034,9.464878,2.80361,1.3685646,9.315657,2.741526
1409527102231,1.5676036,9.493608,2.8221653,1.3625438,9.319893,2.7301025
1409527102236,1.62686,9.356541,2.822764,1.3572154,9.323975,2.7188
1409527102239,1.6466122,9.244612,2.8508956,1.3526006,9.327251,2.7098465
1409527102241,1.6244658,9.241618,2.8862102,1.347718,9.330011,2.7027674
1409527102261,1.6250644,9.214684,2.8909986,1.3429176,9.332234,2.6974773
1409527102262,1.6364368,9.281123,2.902371,1.3381445,9.334154,2.6932023
1409527102264,1.6915035,9.130887,2.8281507,1.3331661,9.335911,2.6895747
1409527102279,1.7435774,9.357139,2.7994204,1.3293506,9.337333,2.6865282
1409527102296,1.6759412,9.633669,2.6491842,1.3262174,9.338842,2.6828282
1409527102297,1.6298528,9.379884,2.5959132,1.3229079,9.341697,2.6745121
1409527102315,1.6478093,9.183559,2.697667,1.3211385,9.344688,2.6649177
1409527102317,1.5664065,9.205706,2.7605145,1.3198137,9.345851,2.6614947
1409527102337,1.5478514,9.259575,2.694674,1.3180641,9.345511,2.6635547
1409527102338,1.553837,9.284714,2.6713305,1.3183701,9.345317,2.6640866
1409527102346,1.46585,9.166202,2.6910827,1.3195353,9.345494,2.6628895
1409527102372,1.3730747,9.093777,2.7204118,1.3210387,9.345709,2.6613867
1409527102374,1.3880384,9.437345,2.6671407,1.3208823,9.34535,2.6627223
1409527102375,1.3221979,9.77373,2.689287,1.3191528,9.344792,2.6655362
1409527102408,1.2761095,9.974843,2.545635,1.3174254,9.344047,2.6690054
1409527102409,1.2348095,9.757569,2.4480712,1.315621,9.344099,2.6697114
1409527102410,1.3269863,9.506777,2.4947581,1.3132734,9.345674,2.6653526
1409527102413,1.4395138,9.337985,2.6204538,1.3113209,9.3477955,2.6588645
1409527102428,1.4885949,9.349358,2.681506,1.3100337,9.348538,2.656887
1409527102433,1.5059528,9.293693,2.7126305,1.3088416,9.348366,2.658077
1409527102448,1.5221137,9.285313,2.7527335,1.3082464,9.348145,2.6591516
1409527102466,1.5143325,9.272743,2.7395654,1.3077238,9.348192,2.6592362
1409527102467,1.4903905,9.260772,2.7365725,1.3065777,9.348352,2.6592414
1409527102473,1.4610616,9.3583355,2.7730842,1.3044926,9.3487425,2.658892
1409527102503,1.1851299,9.232041,2.7910407,1.3003922,9.348805,2.6606781
1409527102505,1.2814964,9.419388,2.7850552,1.2914163,9.348126,2.667429
1409527102507,1.4359225,9.417592,2.585738,1.2799543,9.346788,2.677624
1409527102514,1.4425066,9.512163,2.6342204,1.2702947,9.345321,2.6873255
1409527102547,1.4413095,9.60015,2.6647465,1.2674024,9.343997,2.6932893
1409527102552,1.460463,10.1699705,2.7222073,1.2677062,9.342749,2.6974761
1409527102554,1.3994108,9.074623,2.7527335,1.2652166,9.341209,2.7039678
1409527102575,1.027711,9.566631,2.9041667,1.2618241,9.33846,2.7150242
1409527102576,1.1324574,9.650429,2.7431567,1.2522148,9.335836,2.7284634
1409527102578,0.9995792,9.325416,2.6844985,1.241065,9.33336,2.741995
1409527102603,1.168969,9.81922,2.7635074,1.2293599,9.331461,2.7537096
1409527102606,1.0755951,9.770737,2.7976246,1.2211078,9.330723,2.7598722
1409527102607,1.0510546,9.559449,2.8119898,1.2146429,9.330025,2.7650826
1409527102614,1.0881647,9.386468,2.8455088,1.2077775,9.32948,2.769923
1409527102638,1.1360487,9.436148,2.8999767,1.1987422,9.32941,2.77408
1409527102640,1.0845734,9.303269,2.8742392,1.1888745,9.329333,2.7785828
1409527102645,1.0534488,9.329605,2.9340942,1.1786978,9.328938,2.7842379
1409527102667,1.0540473,9.266758,2.847903,1.1692328,9.328042,2.7912219
1409527102668,1.021127,9.263166,2.8909986,1.1605183,9.327244,2.797521
1409527102673,1.0049661,9.412804,2.867655,1.1527685,9.3264675,2.8033097
1409527102702,1.055843,9.218275,2.7952304,1.145771,9.326266,2.806842
1409527102705,1.110311,9.182362,2.7287915,1.1397673,9.326485,2.8085635
1409527102706,1.0073603,8.9998045,2.6725276,1.1348078,9.327205,2.808181
1409527102713,1.1145009,8.91062,2.6426,1.1300057,9.330113,2.8004427
1409527102733,1.0839748,9.072827,2.6390088,1.1282041,9.335967,2.7815952
1409527102753,1.2198458,9.672575,2.5899277,1.1300734,9.343687,2.7547898
1409527102754,1.1605892,9.717466,2.5210943,1.1387038,9.352263,2.7219343
1409527102755,1.0947487,9.391854,2.4887726,1.1493095,9.360737,2.6881368
1409527102765,1.2096704,9.494206,2.5013423,1.1585969,9.3683815,2.6573477
1409527102785,1.2557588,9.898229,2.5671828,1.164511,9.373915,2.6351516
1409527102786,1.0456676,10.079589,2.4594438,1.1684365,9.376438,2.6244173
1409527102793,0.61890113,9.487623,2.7222073,1.1696106,9.376601,2.6233144
1409527102818,1.2677298,8.881889,2.7371712,1.1617317,9.373485,2.637911
1409527102819,1.4742297,8.668806,2.3630772,1.1488382,9.36376,2.6777906
1409527102825,1.5119383,9.312846,2.5007436,1.135117,9.352118,2.723934
1409527102847,1.5155296,9.55047,2.77069,1.128988,9.348467,2.7389686
1409527102850,1.5801731,9.625888,2.7090392,1.1283289,9.349779,2.734761
1409527102865,1.1671734,9.091382,2.2451627,1.1306156,9.3506155,2.7309518
1409527102866,1.22224,9.48044,3.068768,1.1300931,9.357407,2.7078083
1409527102873,1.13964,9.114726,2.6539726,1.1284078,9.363976,2.685712
1409527102897,1.13964,9.506178,2.5635915,1.126878,9.362517,2.6914306
1409527102898,1.2401965,9.585187,2.5432408,1.1257353,9.355406,2.7165205
1409527102920,0.95947635,9.674371,2.8862102,1.124968,9.353223,2.7243443
1409527102921,0.98102415,9.0716305,2.7850552,1.1219772,9.353596,2.7242994
1409527102925,1.0528502,9.542689,2.6886885,1.1199434,9.352507,2.7288685
1409527102959,1.0133458,9.674371,2.8389246,1.115955,9.351855,2.7327387
1409527102960,0.95468795,9.540296,2.7862523,1.1101968,9.353552,2.7292712
1409527102961,0.973243,9.487623,2.730587,1.1060339,9.354736,2.7268987
1409527102966,0.9427169,9.572617,2.719813,1.1030031,9.354941,2.7274218
1409527102991,0.94810385,9.502586,2.6898856,1.0997783,9.355621,2.7263942
1409527102992,0.93972415,9.442133,2.6791117,1.0971122,9.356385,2.724846
1409527102994,0.92416185,9.440337,2.7150247,1.0945139,9.35695,2.7239532
1409527103018,0.8810662,9.448717,2.695871,1.0909942,9.357234,2.7243905
1409527103019,0.87927055,9.454104,2.6922798,1.0863451,9.357655,2.7247992
1409527103025,1.2952632,9.01417,2.6162639,1.0810628,9.35851,2.7239637
1409527103057,1.483208,8.275558,2.7060466,1.0793129,9.359169,2.7223985
1409527103058,2.15538,6.746262,3.934272,1.0771728,9.358488,2.7255828
1409527103060,-1.1133038,14.450204,3.9785647,1.0682645,9.354359,2.743208
1409527103092,0.0035913025,11.897387,1.2551602,0.9825421,9.362554,2.7472916
1409527103094,0.7835025,10.736797,1.3443443,0.9062714,9.380699,2.7113743
1409527103096,1.1468226,10.140042,2.3888147,0.85947496,9.399692,2.6603532
1409527103098,1.2515689,8.857349,2.789245,0.8718,9.41306,2.608574
1409527103130,1.2072762,8.290522,2.9125464,0.900795,9.410865,2.6066444
1409527103134,1.1210849,8.159439,2.9652188,0.9193063,9.401191,2.634937
1409527103135,1.1007342,8.548497,3.1016884,0.9257634,9.393773,2.6590188
1409527103162,1.1013328,9.003994,2.9700072,0.9258465,9.390355,2.6710324
1409527103163,1.22224,9.424176,2.742558,0.923652,9.39046,2.6714258
1409527103165,1.22224,9.55885,2.5833437,0.920894,9.393555,2.6614842
1409527103183,1.0193313,9.594764,2.606687,0.9165822,9.398194,2.6465461
1409527103185,0.6775591,9.730635,2.6952724,0.90713084,9.402617,2.634066
1409527103185,0.45489833,9.862315,2.6617537,0.88914627,9.4065075,2.6263
1409527103194,0.545878,9.832388,2.4714148,0.86695266,9.410489,2.6194465
1409527103219,0.6931214,9.621099,2.2493525,0.84582204,9.414696,2.6112247
1409527103221,0.81881696,9.444528,2.391209,0.83143044,9.418962,2.600441
1409527103226,0.8750807,9.188946,2.4833858,0.8233821,9.421571,2.59354
1409527103256,0.7715315,9.170391,2.767697,0.8183514,9.422154,2.593012
1409527103257,0.59136784,9.296086,2.634819,0.8115246,9.4218025,2.5964334
1409527103258,0.5770026,9.3978405,2.5833437,0.80128473,9.42279,2.5960271
1409527103282,0.61171854,9.355942,2.5079262,0.78927296,9.424928,2.5919425
1409527103283,0.6242881,9.378088,2.5276785,0.7779407,9.4273205,2.5866609
1409527103285,0.62847793,9.400234,2.528277,0.769288,9.428931,2.5833752
1409527103294,0.6859388,9.403227,2.4959552,0.763192,9.430145,2.580753
1409527103310,0.6619968,9.437943,2.5420437,0.75905603,9.431387,2.5774336
1409527103333,0.57640404,9.64145,2.6366146,0.7561641,9.43346,2.570691
1409527103334,0.8002619,9.294889,2.5318682,0.7532455,9.436758,2.5594203
1409527103335,0.8086416,8.980651,2.5995045,0.7547526,9.440406,2.5454853
1409527103346,0.88166475,9.115923,2.8628666,0.76085657,9.444071,2.5300224
1409527103366,0.8487445,9.139865,2.9352913,0.76774466,9.446587,2.518526
1409527103368,0.91697925,9.345168,2.9101522,0.7722388,9.446221,2.51852
1409527103375,0.85173726,9.518747,2.8191724,0.7763764,9.444915,2.522142
1409527103402,0.81402856,9.585187,2.7090392,0.77885365,9.445219,2.5202456
1409527103404,0.8146271,9.688736,2.754529,0.7801955,9.446726,2.514169
1409527103406,0.80445176,9.694122,2.791639,0.7811608,9.4481,2.5087042
1409527103434,0.8182184,9.605537,2.8245595,0.7816742,9.448592,2.5066905
1409527103435,0.8122329,9.4774475,2.8975825,0.78148997,9.448181,2.5082927
1409527103436,0.8415619,9.507375,2.926313,0.7803817,9.447279,2.512035
1409527103446,0.8996213,9.566033,2.9628246,0.77878284,9.446583,2.5151446
1409527103473,0.87807345,9.612122,2.9311013,0.77640724,9.446138,2.5175529
1409527103474,0.86729956,9.650429,2.9358897,0.77221406,9.446175,2.5187106
1409527103476,0.8762778,9.627684,2.983774,0.76594955,9.446601,2.5190158
1409527103505,0.83617496,9.497798,3.003526,0.7581896,9.446868,2.520363
1409527103506,0.82121116,9.283517,2.855684,0.74935627,9.446989,2.5225499
1409527103507,0.7942764,9.367314,2.6886885,0.74016213,9.448315,2.5203
1409527103525,0.7404069,9.523536,2.6689363,0.73027,9.451378,2.5116858
1409527103526,0.6500258,9.335591,2.7910407,0.719459,9.457496,2.4916952
1409527103541,0.65062433,9.218275,2.7928362,0.7070652,9.4631815,2.4735892
1409527103546,0.66259533,9.189545,2.7868507,0.6939857,9.465889,2.4669297
1409527103566,0.7212533,9.412206,2.5893292,0.681487,9.466953,2.46633
1409527103567,0.7272388,9.470863,2.6318262,0.6707242,9.469273,2.4603672
1409527103575,0.78050977,9.482835,2.6042929,0.66096413,9.4725,2.450566
1409527103600,0.80684596,9.514558,2.6270378,0.6530455,9.474928,2.4432933
1409527103601,0.79607207,9.392453,2.5995045,0.6475768,9.475753,2.441549
1409527103608,0.7541735,9.440337,2.6276364,0.6439991,9.475442,2.4436996
1409527103624,0.61650693,9.367912,2.7012582,0.6412538,9.47472,2.4472172
1409527103626,0.60453594,9.255983,2.618658,0.63791645,9.4735155,2.4527514
1409527103640,0.62368953,9.333197,2.5833437,0.63533,9.471932,2.4595196
1409527103646,0.59855044,9.3661175,2.5492263,0.63274705,9.469972,2.4677234
1409527103665,0.6847417,9.40203,2.5540147,0.63031983,9.468922,2.4723728
1409527103667,0.75118077,9.415796,2.5462334,0.6296115,9.469209,2.4714532
1409527103675,0.7128736,9.355942,2.618658,0.63066244,9.470271,2.4671113
1409527103699,0.7278373,9.355343,2.5887306,0.63230103,9.471256,2.462904
1409527103700,0.7218518,9.382876,2.5737667,0.6349356,9.47195,2.4595594
1409527103706,0.74758947,9.395446,2.4959552,0.63775504,9.472497,2.4567199
1409527103734,0.78410107,9.369708,2.4582467,0.64042616,9.47353,2.452039
1409527103736,0.842759,9.436148,2.541445,0.643203,9.474768,2.4465234
1409527103738,0.95947635,9.52593,2.556409,0.64596766,9.476095,2.4406471
1409527103773,0.99778354,9.523536,2.5959132,0.6495965,9.477662,2.4335892
1409527103774,0.90859956,9.539098,2.6515784,0.6541268,9.478998,2.4271593
1409527103775,0.777517,9.516952,2.657564,0.6587925,9.479433,2.4241982
1409527103777,0.7009025,9.38168,2.5570073,0.6631124,9.479174,2.4240322
1409527103792,0.724246,9.271546,2.4624364,0.6657429,9.478896,2.424397
1409527103798,0.93014735,9.223063,2.3953989,0.66638964,9.479098,2.4234347
1409527103835,0.99898064,9.267356,2.4498668,0.6679131,9.479619,2.4209664
1409527103838,1.0947487,9.296685,2.4612393,0.67023355,9.480353,2.4174569
1409527103840,1.1300632,9.337387,2.5037365,0.6742337,9.4814825,2.411905
1409527103843,1.2000936,9.249998,2.6252422,0.67921853,9.482791,2.4053597
1409527103876,1.2270284,9.3733,2.717419,0.6849043,9.484269,2.3979075
1409527103878,1.2276269,9.575011,2.7443538,0.69074047,9.485975,2.389467
1409527103880,1.2497733,9.629479,2.754529,0.6972306,9.488666,2.3768694
1409527103883,1.2773066,9.667188,2.6880898,0.7044655,9.491981,2.3614464
1409527103917,1.2006922,9.664794,2.755726,0.71149963,9.494475,2.3492749
1409527103918,1.1761516,9.640253,2.7269957,0.7166307,9.495834,2.342212
1409527103919,1.1366472,9.736021,2.5438392,0.72050655,9.497289,2.335117
1409527103919,1.0594343,9.743802,2.3397336,0.7234578,9.499904,2.3235435
1409527103927,0.95229375,9.58818,2.321777,0.7247585,9.503413,2.3087382
1409527103943,0.9391256,9.527127,2.3493104,0.72404903,9.506857,2.2947419
1409527103960,0.92535895,9.498995,2.2523453,0.72245175,9.509495,2.2842846
1409527103961,0.8678981,9.504382,1.9716251,0.7205666,9.511998,2.2744384
1409527103977,0.78050977,9.463681,1.8034325,0.7176912,9.515735,2.2596653
1409527103978,0.7469909,9.415796,1.8351556,0.7129285,9.520408,2.2414205
1409527103994,0.82779527,9.657611,1.70946,0.7074048,9.524657,2.2250562
1409527103995,0.7206547,9.770139,1.6310499,0.7027741,9.52913,2.2073073
1409527104009,0.57281274,9.841965,1.5424645,0.69689375,9.534498,2.185884
1409527104024,0.49081135,9.900024,1.4664485,0.6890631,9.540616,2.1615338
1409527104026,0.46028528,9.940725,1.4305356,0.68014485,9.546958,2.1362119
1409527104041,0.46447513,9.916783,1.4514848,0.67086923,9.553144,2.1113405
1409527104058,0.45310268,9.9550905,1.3928268,0.6613678,9.5590925,2.0872862
1409527104059,0.38606504,9.922171,1.3694834,0.6514479,9.565095,2.0627556
1409527104075,0.29987377,9.900622,1.3060371,0.64024943,9.571231,2.037648
1409527104076,0.25917232,9.905411,1.2707225,0.6277081,9.577472,2.012066
1409527104091,0.2789245,9.916184,1.2234371,0.61482835,9.583513,1.9871207
1409527104094,0.3309984,9.90601,1.2671312,0.6027339,9.589227,1.9631226
1409527104107,0.36391866,9.859323,1.3461399,0.59176576,9.594233,1.9418834
1409527104124,0.41958386,9.850345,1.4263457,0.58198106,9.598499,1.9236721
1409527104126,0.48243165,9.86471,1.4550761,0.57319933,9.602126,1.9081454
1409527104142,0.55844754,9.874885,1.4550761,0.5653053,9.605355,1.8941917
1409527104158,0.6302736,9.859921,1.4802152,0.5583018,9.608441,1.8805735
1409527104159,0.7254431,9.897031,1.4359225,0.5521244,9.611396,1.8672476
1409527104176,0.7721301,9.940725,1.4185646,0.54688513,9.614356,1.8535067
1409527104177,0.8206126,9.988011,1.5053543,0.54154575,9.617272,1.8398943
1409527104192,0.770933,10.009559,1.5466543,0.53554535,9.619832,1.8282255
1409527104194,0.7589619,10.059837,1.5837644,0.5278725,9.621978,1.8191543
1409527104208,0.75237787,10.110115,1.6394296,0.51951605,9.623723,1.8123072
1409527104223,0.81761986,10.134656,1.6292542,0.51094455,9.625185,1.8069735
1409527104226,0.84216046,10.11251,1.5807717,0.5029479,9.62609,1.8043904
1409527104239,0.81642276,10.0269165,1.6837224,0.4944584,9.626473,1.8046932
1409527104257,0.7781156,9.944916,1.8249803,0.484788,9.6261015,1.8092976
1409527104258,0.7673417,9.877279,1.9027919,0.4744093,9.625195,1.8168525
1409527104274,0.78410107,9.841965,1.8842367,0.4639205,9.623688,1.8275194
1409527104275,0.76075757,9.828198,1.8752584,0.45333844,9.621911,1.8394928
1409527104287,0.6823475,9.759963,1.8986019,0.44251165,9.6197815,1.8532162
1409527104308,0.59855044,9.692925,2.0500352,0.43034643,9.617192,1.8694454
1409527104309,0.51834464,9.589975,2.2463598,0.41668338,9.6140585,1.8885552
1409527104333,0.40222588,9.474455,2.2601264,0.4023507,9.610518,1.909571
1409527104336,0.3184288,9.345168,2.1739352,0.38778076,9.607237,1.9290006
1409527104338,0.28491,9.2069025,2.0991163,0.37330687,9.604448,1.9456612
1409527104359,0.3321955,9.063251,2.0272903,0.35937217,9.601779,1.9613972
1409527104360,0.415394,9.003994,2.0260932,0.34647194,9.599258,1.9760102
1409527104372,0.48482585,9.271546,1.9021933,0.33439907,9.596811,1.989927
1409527104375,0.47644615,9.435549,1.8567034,0.32404023,9.59505,2.0001006
1409527104389,0.43634325,9.598953,1.8596961,0.3138575,9.593983,2.0068326
1409527104406,0.3172317,9.730036,1.7992426,0.30369857,9.593349,2.0114245
1409527104407,0.219668,9.844358,1.7280151,0.29294074,9.593057,2.014407
1409527104423,0.09636662,9.937733,1.7112557,0.2816839,9.593061,2.0159922
1409527104427,0.02633622,9.988609,1.7477672,0.2706107,9.593268,2.0165217
1409527104442,-0.09995792,9.946113,1.7603368,0.26003465,9.593504,2.0167964
1409527104456,-0.18375498,9.85214,1.8106151,0.24918059,9.5938425,2.0165544
1409527104456,-0.25917232,9.752781,1.8620903,0.2380659,9.594239,2.0160112
1409527104474,-0.30466217,9.68694,2.03567,0.22667745,9.5946865,2.0151918
1409527104475,-0.3465607,9.640852,2.2421699,0.21580818,9.594803,2.0158348
1409527104491,-0.35314476,9.612122,2.343325,0.20513722,9.594277,2.0194478
1409527104507,-0.32680854,9.509769,2.3714569,0.19658501,9.593117,2.0258038
1409527104509,-0.2088941,9.376891,2.4091654,0.19091822,9.590944,2.0365965
1409527104523,-0.06404489,9.231443,2.4546554,0.18893246,9.58751,2.052883
1409527104527,0.076015905,9.100361,2.4929626,0.19060624,9.583026,2.0735698
1409527104539,0.25977087,9.060856,2.5791538,0.19633009,9.577633,2.097807
1409527104557,0.49440265,9.11712,2.7024553,0.2062935,9.57148,2.1247628
1409527104557,0.6254852,9.36492,2.6599581,0.22066878,9.564703,2.1536405
1409527104577,0.6985083,9.474455,2.666542,0.23795632,9.557983,2.181448
1409527104578,0.7272388,9.508572,2.6749218,0.25673962,9.551381,2.208077
1409527104587,0.7505822,9.474455,2.6521769,0.2754089,9.545215,2.2323635
1409527104617,0.7350199,9.425373,2.6192567,0.29391354,9.539234,2.2554398
1409527104618,0.7074866,9.347562,2.6898856,0.31098318,9.533569,2.2770061
1409527104619,0.6488287,9.256582,2.7820623,0.32665604,9.528206,2.2971692
1409527104628,0.58897364,9.233837,2.7431567,0.34041014,9.523402,2.3150234
1409527104653,0.6183026,9.16261,2.6725276,0.3519058,9.519713,2.3284347
1409527104656,0.6799533,9.075222,2.6713305,0.362415,9.516936,2.3381565
1409527104658,0.7793127,9.056666,2.7820623,0.3723832,9.514366,2.3470325
1409527104681,0.842759,9.072827,2.9724014,0.38155362,9.511545,2.3569713
1409527104682,0.9343372,9.181165,3.083732,0.3903927,9.5087385,2.3668292
1409527104689,1.0061632,9.239823,3.1896753,0.39970067,9.50607,2.3759792
1409527104712,0.9911995,9.215282,3.228581,0.40987647,9.5036745,2.3838124
1409527104713,0.9355343,9.223662,3.098097,0.41935018,9.501099,2.3924217
1409527104717,0.85413146,9.20391,3.0226796,0.42674702,9.498744,2.4004478
1409527104728,0.75237787,9.186552,3.0322564,0.43155515,9.496732,2.4075418
1409527104747,0.47046062,9.236232,3.0603883,0.43438447,9.494775,2.4147413
1409527104748,0.30885202,9.227253,3.0418332,0.4346372,9.493088,2.4213111
1409527104757,0.1364695,9.11293,3.067571,0.43317604,9.491735,2.4268758
1409527104809,0.06344634,9.04709,2.9149406,0.42994413,9.49076,2.431261
1409527104812,0.061650693,8.991425,2.7808652,0.42604244,9.490576,2.432662
1409527104814,0.09816227,8.945336,2.718616,0.42195964,9.491255,2.4307303
1409527104817,0.1448492,8.915408,2.7970262,0.41828293,9.492397,2.426894
1409527104819,0.1945289,8.998009,2.8263552,0.4151507,9.493868,2.4216766
1409527104854,0.22325931,9.078215,2.835932,0.4132768,9.495681,2.4148803
1409527104855,0.29209262,9.129091,2.7874494,0.41260436,9.498027,2.4057467
1409527104856,0.31663316,9.155427,2.777274,0.41351658,9.500865,2.394369
1409527104857,0.3477578,9.212888,2.7964275,0.41572315,9.503715,2.3826435
1409527104858,0.39025488,9.214684,2.8161798,0.41872308,9.506491,2.371006
1409527104878,0.40761283,9.278131,2.6342204,0.42203307,9.509256,2.3593063
1409527104879,0.3196259,9.314043,2.4917655,0.4251989,9.51268,2.3448937
1409527104887,0.2873042,9.293693,2.4289176,0.42737406,9.516883,2.327381
1409527104913,0.28431144,9.341577,2.3038206,0.42914575,9.521287,2.3089662
1409527104914,0.32621,9.419987,2.179322,0.43068773,9.525914,2.2895114
1409527104920,0.45130703,9.524135,2.010531,0.43189615,9.531186,2.2672377
1409527104958,0.6667852,9.755175,1.9895816,0.43273938,9.537285,2.2412739
1409527104959,0.86370826,9.934141,1.9829975,0.43258026,9.543873,2.2130847
1409527104960,1.2144588,10.08318,1.8632874,0.43093386,9.550775,2.183436
1409527104961,1.584363,10.21127,1.7130513,0.42946994,9.558005,2.1518588
1409527104975,1.7950528,10.260351,1.6130934,0.42759427,9.565559,2.1184044
1409527104976,1.8896236,10.247782,1.6047137,0.42297977,9.573357,2.0838263
1409527104991,1.9602526,10.278907,1.7106571,0.41430044,9.581142,2.049501
1409527105008,1.9566613,10.224439,1.8064252,0.4024425,9.588583,2.0168116
1409527105009,1.8632874,10.151415,1.863886,0.38835022,9.5954685,1.9865918
1409527105022,1.6729485,10.0269165,1.8728642,0.3703967,9.601561,1.9604187
1409527105039,1.3976152,9.871892,1.762731,0.3479303,9.606853,1.9384804
1409527105040,0.9983821,9.735423,1.6340426,0.3204905,9.611615,1.9195156
1409527105054,0.5883751,9.568427,1.5125369,0.28851286,9.61623,1.9013907
1409527105055,0.22505496,9.412206,1.3551182,0.25389725,9.621051,1.8818378
1409527105069,0.016759412,9.471462,1.2689269,0.21931575,9.62673,1.8569758
1409527105077,0.030526072,9.696517,1.3521254,0.18795069,9.633711,1.8239251
1409527105091,0.04129998,9.79827,1.2324153,0.16353287,9.641579,1.7842712
1409527105104,0.08559271,9.720459,1.0193313,0.1434804,9.650276,1.7383816
1409527105107,0.15083471,9.688736,1.0965444,0.12520123,9.659486,1.6879092
1409527105128,0.30526072,9.625289,1.1139023,0.10934432,9.668332,1.6376152
1409527105129,0.40761283,9.801263,1.1234791,0.09571999,9.676791,1.5877479
1409527105136,0.51116204,9.898229,1.0809821,0.086420104,9.684915,1.53798
1409527105162,0.6332663,9.916783,1.0271125,0.08263824,9.692469,1.4898294
1409527105163,0.6793547,9.895834,1.0097545,0.08318769,9.699358,1.4442858
1409527105167,0.6937199,9.852738,0.9935937,0.085164405,9.705535,1.4020442
1409527105177,0.6727707,9.857527,0.9923966,0.08606091,9.711134,1.3626655
1409527105194,0.7553706,9.965864,0.9091981,0.08476006,9.716312,1.3253292
1409527105196,0.7158663,9.989806,0.8475474,0.08103271,9.72131,1.2883915
1409527105207,0.717662,10.006566,0.74878657,0.07270532,9.726157,1.2517952
1409527105225,0.7212533,9.946711,0.7015011,0.05981018,9.730956,1.2146143
1409527105229,0.7092823,9.758766,0.7649474,0.044987727,9.735514,1.1781863
1409527105236,0.7044938,9.509769,0.8822633,0.026833208,9.7394705,1.1456097
1409527105257,0.8798691,9.463082,1.0516531,0.006374796,9.742501,1.1198347
1409527105257,0.8122329,9.3738985,1.3000516,-0.012872341,9.744471,1.1024971
1409527105281,0.96306765,9.536704,1.3335704,-0.031415567,9.7454195,1.0936995
1409527105282,1.1109096,9.807249,1.282095,-0.04766396,9.745696,1.0906723
1409527105288,1.2072762,9.944317,1.2497733,-0.061481036,9.745503,1.0916928
1409527105328,1.2779051,10.117298,1.168969,-0.07410444,9.744875,1.0964965
1409527105329,1.1767502,10.202292,1.2162545,-0.08629669,9.743926,1.1040298
1409527105331,1.0809821,10.312426,1.2773066,-0.101151735,9.742599,1.1144226
1409527105332,0.97862995,10.431537,1.3623008,-0.118138015,9.741089,1.1258804
1409527105336,0.83976626,10.573393,1.5125369,-0.13941541,9.739304,1.1388292
1409527105373,0.741604,10.650007,1.6849195,-0.16534744,9.737122,1.1539304
1409527105374,0.6931214,10.709264,1.6579847,-0.19597864,9.734227,1.173381
1409527105376,0.6135142,10.74398,1.5472529,-0.23148046,9.730517,1.1974357
1409527105401,0.5470751,10.733206,1.4628572,-0.27243668,9.7261,1.2243887
1409527105402,0.5943606,10.716447,1.3796587,-0.31886694,9.721197,1.2518115
1409527105403,0.84455466,10.551846,1.3790601,-0.3708719,9.715769,1.2793314
1409527105429,1.1204864,10.266336,1.4850036,-0.4264028,9.709593,1.3085774
1409527105430,1.2940661,9.961076,1.5496471,-0.48521215,9.702568,1.3398311
1409527105432,1.3305776,9.753379,1.6154876,-0.54625595,9.695023,1.3705981
1409527105436,1.3916297,9.595961,1.7250223,-0.6070893,9.687015,1.4012913
1409527105482,1.5239093,9.646238,1.757344,-0.6658166,9.678746,1.4314111
1409527105483,1.7501614,9.877877,1.6304513,-0.7191917,9.670542,1.4607495
1409527105485,2.0404584,10.111911,1.5376761,-0.7642603,9.663096,1.4869027
1409527105486,2.3110032,10.150817,1.3994108,-0.7987261,9.656735,1.5099359
1409527105488,2.9724014,9.895834,1.2372037,-0.822358,9.651498,1.5305916
1409527105530,3.1944637,9.717466,1.1007342,-0.83080775,9.647392,1.551763
1409527105532,3.4398694,9.491214,1.4443022,-0.82645726,9.644094,1.5744337
1409527105533,3.642778,9.181764,2.1206641,-0.807772,9.641385,1.6004993
1409527105536,3.7068229,8.805275,2.517503,-0.77468836,9.6388855,1.6316041
1409527105538,3.6164417,8.775947,2.4600422,-0.73555964,9.636129,1.6656407
1409527105566,3.1112652,8.702923,2.420538,-0.6846116,9.634351,1.6973429
1409527105567,2.546832,8.467094,2.8778305,-0.6251976,9.633279,1.7261083
1409527105568,2.1481974,8.162432,3.4141316,-0.5585468,9.632192,1.7547984
1409527105596,1.3964181,8.22109,3.2441432,-0.4854052,9.631795,1.7785692
1409527105597,0.6787562,8.357559,2.4756045,-0.41033274,9.634401,1.7833459
1409527105598,0.10235212,8.279748,1.5131354,-0.33172515,9.640704,1.7655548
1409527105609,-0.7344214,8.409035,0.7553706,-0.2473405,9.649464,1.7312019
1409527105638,-1.9608512,8.854955,0.2908955,-0.15877308,9.659454,1.685269
1409527105639,-2.1033063,10.08737,0.11971009,-0.070944116,9.669921,1.6303362
1409527105640,-2.7521348,11.432912,0.41060558,0.025530182,9.680444,1.5680385
1409527105664,-2.381632,13.879188,0.42916065,0.11773327,9.689539,1.506438
1409527105666,-1.8034325,15.958551,0.37948096,0.21591106,9.696899,1.447036
1409527105669,-0.97862995,17.009007,0.1388637,0.3185963,9.700544,1.4029695
1409527105719,-1.2282255,16.07886,0.30166942,0.42417946,9.699298,1.3835166
1409527105720,-2.5079262,14.723742,1.0366893,0.51546377,9.692123,1.4026573
1409527105721,-3.7259765,12.838308,2.088941,0.5767458,9.679372,1.4654403
1409527105723,-4.222773,11.580155,3.044826,0.6078933,9.661571,1.5668215
1409527105726,-4.174889,10.271125,3.705027,0.6228291,9.639743,1.6905203
1409527105749,-3.638588,10.034698,3.7445314,0.64234126,9.615178,1.8182817
1409527105750,-2.7605145,10.028113,3.3674448,0.6784997,9.59087,1.9300936
1409527105752,-1.638831,10.221446,3.2040405,0.7392251,9.570095,2.0092812
1409527105758,-0.8086416,10.163984,3.2435448,0.81787896,9.55022,2.072385
1409527105789,-0.11552023,10.011354,3.2734723,0.92038494,9.530191,2.121022
1409527105792,0.6362591,9.490616,3.235165,1.037553,9.505804,2.1756794
1409527105793,1.9111716,9.867104,3.5607765,1.1630448,9.475734,2.2423627
1409527105817,2.6240451,9.483433,3.283049,1.297349,9.43948,2.3202374
1409527105818,2.9388826,9.009979,2.6378117,1.4317931,9.400696,2.3973458
1409527105820,2.7401638,8.576629,2.0320787,1.5545225,9.364222,2.462762
1409527105869,2.2643163,8.055291,1.6340426,1.6592693,9.331707,2.5172288
1409527105871,1.8321629,7.545925,1.690905,1.7483965,9.301023,2.5699196
1409527105873,1.3982137,6.862979,1.7782934,1.8249352,9.269604,2.629535
1409527105877,0.7230489,6.003461,1.9153614,1.8941474,9.236862,2.6949873
1409527105880,0.62847793,5.8185086,2.1697452,1.9539881,9.202473,2.7689002
1409527105911,0.6206968,5.6000376,2.3535004,2.009047,9.165438,2.8511195
1409527105912,0.6631939,5.3995233,2.4678235,2.0612273,9.126233,2.938301
1409527105913,0.62249243,5.379771,2.510919,2.1106184,9.086339,3.0255795
1409527105914,0.5638345,5.4976854,2.5139117,2.1548548,9.049145,3.1048312
1409527105916,0.6039374,5.6126075,2.542642,2.1926432,9.01727,3.1704164
1409527105939,0.7505822,5.6987987,2.5192988,2.2243536,8.991678,3.2206168
1409527105940,0.90979666,5.7418942,2.4546554,2.2505717,8.972565,3.255515
1409527105959,1.2240356,5.7879825,2.5683799,2.2714252,8.959081,3.2780917
1409527105960,1.5747862,5.799355,2.9179332,2.2867992,8.94957,3.2933471
1409527105968,1.9027919,5.734113,3.003526,2.3000631,8.940902,3.3076248
1409527105990,2.2212207,5.7544637,3.016694,2.3058488,8.935141,3.3191485
1409527105991,2.6354175,6.0022635,3.305794,2.3014104,8.933515,3.326594
1409527105996,3.0615854,6.4667387,3.6194344,2.2858071,8.936396,3.3296099
1409527106030,3.369839,7.04015,4.100669,2.2600732,8.944204,3.3262115
1409527106031,3.6134489,7.7727757,4.735132,2.226013,8.957173,3.3142579
1409527106033,3.9791632,8.689755,5.073912,2.1879113,8.974288,3.293269
1409527106037,4.1982327,9.4535055,5.1942205,2.151972,8.993815,3.2635407
1409527106062,2.7521348,9.712678,5.6425347,2.1220388,9.012899,3.230324
1409527106062,1.9608512,12.325351,5.6820393,2.0873501,9.029608,3.2061734
1409527106068,1.4550761,14.829685,4.481347,2.0566645,9.046083,3.1794531
1409527106090,2.369661,14.525023,3.0986955,2.024521,9.071201,3.1281
1409527106091,4.486734,13.584701,2.8323407,2.0312324,9.094426,3.0554707
1409527106096,6.307524,11.6825075,3.1094694,2.0940726,9.100743,2.9936185
1409527106125,7.61835,8.889671,3.6601357,2.2055812,9.079489,2.9780333
1409527106128,8.171411,6.7971387,5.309741,2.3420796,9.029438,3.0256057
1409527106130,7.5746555,7.0168066,8.655039,2.4885707,8.955368,3.1271033
1409527106137,5.7604494,10.24419,10.085575,2.6382005,8.865814,3.2569385
1409527106164,4.755483,15.195998,8.048708,2.762883,8.792033,3.352166
1409527106166,2.8670566,16.6816,5.710171,2.853602,8.760692,3.3582168
1409527106168,-0.16998832,14.711771,4.6710877,2.8955402,8.761358,3.3203702
1409527106188,-1.3700819,13.162124,2.6318262,2.8899183,8.768568,3.3062003
1409527106190,-1.234211,12.155961,1.4760253,2.862153,8.772673,3.3194373
1409527106206,-1.5340848,10.670359,2.2050598,2.8113077,8.772967,3.3618438
1409527106208,-1.7764976,10.239402,2.741361,2.7321372,8.77645,3.4175668
1409527106217,-1.9967642,9.925163,2.0829554,2.6325338,8.791205,3.4575796
1409527106238,-2.1763294,9.455301,1.42455,2.5339303,8.8184595,3.461842
1409527106239,-1.5370775,8.462306,1.6543933,2.4431882,8.851552,3.4425673
1409527106259,-0.82899237,8.180987,1.2096704,2.3702977,8.874835,3.4335675
1409527106261,-0.10235212,7.9768815,1.0606314,2.311784,8.889851,3.434618
1409527106269,0.6727707,7.904457,1.3802572,2.2620797,8.906147,3.4254837
1409527106297,1.2880806,7.9846625,1.8561049,2.2154038,8.930713,3.3918614
1409527106298,1.3946224,8.5622635,2.1643584,2.1679668,8.958754,3.3482916
1409527106299,1.2587515,9.323022,2.2571337,2.116686,8.995036,3.2831945
1409527106324,1.1474211,9.483433,2.010531,2.0563784,9.034809,3.21153
1409527106325,0.90021986,9.214086,1.7477672,1.9875028,9.072143,3.1490405
1409527106328,0.5153519,9.04709,1.762731,1.9093711,9.10476,3.1029065
1409527106337,0.077213004,9.107543,1.9758149,1.8216175,9.136108,3.0632718
1409527106359,-0.23942018,9.419388,1.8782512,1.7285328,9.170404,3.0143392
1409527106360,-0.38067806,9.710882,1.666963,1.635738,9.209399,2.9464738
1409527106369,-0.41718966,9.731233,1.3431472,1.5499966,9.24934,2.866635
1409527106393,-0.4854244,9.4535055,1.0348936,1.474877,9.285161,2.7894304
1409527106395,-0.5117606,9.001001,1.1061212,1.4116615,9.316234,2.7176082
1409527106398,-0.6751649,8.719683,1.3323733,1.356098,9.339322,2.66617
1409527106438,-0.7505822,8.651448,1.4682442,1.3075553,9.355098,2.6349258
1409527106441,-0.47524905,8.603564,0.97982705,1.2638181,9.366685,2.6150312
1409527106442,-0.30346507,7.9966335,0.7990648,1.2231729,9.377238,2.5964673
1409527106446,-0.33758244,7.941567,0.9708488,1.1806668,9.388727,2.5745366
1409527106466,-0.11851298,8.304887,1.3479356,1.1288325,9.404569,2.5397255
1409527106467,0.19393034,8.732851,1.6783354,1.0689636,9.425801,2.486362
1409527106469,0.97982705,9.263765,1.8956091,1.0060449,9.450561,2.4176762
1409527106490,1.5855601,9.004593,1.881244,0.945835,9.474982,2.3453112
1409527106491,2.1242554,8.513782,2.0679917,0.88694245,9.494814,2.2874136
1409527106497,2.5683799,8.441956,2.2774844,0.82848024,9.510187,2.2450755
1409527106520,2.6557682,8.4234,2.259528,0.76759,9.5175495,2.2355022
1409527106522,2.7419596,8.443152,2.2284033,0.7040641,9.518255,2.2533379
1409527106539,2.7299886,8.517372,2.190096,0.6415966,9.514944,2.285735
1409527106540,2.5737667,8.588001,2.0350714,0.5791648,9.510721,2.319726
1409527106548,2.610877,8.4904375,1.8674773,0.5150026,9.5082035,2.3450422
1409527106578,2.871845,8.526351,1.9393034,0.45202965,9.50776,2.3597798
1409527106579,3.140594,8.703522,2.4259248,0.39512965,9.507634,2.370476
1409527106580,3.2632968,8.871116,3.0101101,0.34820458,9.505113,2.3878784
1409527106589,3.177704,9.105149,3.3794158,0.31279227,9.498642,2.418336
1409527106614,2.9227216,9.200917,3.8893807,0.28659964,9.4886465,2.4604554
1409527106617,1.7471687,9.086594,3.554791,0.262525,9.476364,2.509981
1409527106618,1.2276269,9.194932,3.1992521,0.23232912,9.463724,2.5601468
1409527106643,1.1994951,9.1255,2.3247697,0.1974325,9.452735,2.6033087
1409527106644,1.6621746,9.006987,1.7549498,0.15897593,9.445895,2.6306286
1409527106649,2.1601684,9.205107,2.0123265,0.121583335,9.442993,2.6430063
1409527106677,2.2439656,9.742605,2.1404164,0.088186234,9.442701,2.6453743
1409527106679,2.146402,10.333375,1.9303252,0.058180314,9.4447,2.6390607
1409527106680,1.9015948,10.739192,1.6130934,0.0320847,9.448537,2.6257424
1409527106711,1.8590976,11.052833,1.3030443,0.01245207,9.454253,2.6052496
1409527106712,2.1775265,11.288062,1.6962919,0.004833923,9.462525,2.5750697
1409527106714,2.4271219,11.001955,2.3493104,0.015098201,9.470982,2.5437534
1409527106722,2.2619221,10.386047,2.5270798,0.036204554,9.479483,2.5116696
1409527106753,2.0566192,9.895834,2.654571,0.06679507,9.48737,2.4810774
1409527106756,1.8614918,9.727043,3.651756,0.10908026,9.49347,2.4561195
1409527106757,1.1761516,10.159196,4.028843,0.16418691,9.4973955,2.4378107
1409527106769,0.31783026,10.482413,2.7527335,0.22565427,9.504168,2.4062955
1409527106770,-0.7637503,9.966463,1.1432313,0.29088748,9.518161,2.3431578
1409527106784,-1.9363106,8.957307,0.14425065,0.36273664,9.535642,2.260604
1409527106805,-2.932897,7.9888525,-0.4357447,0.44315633,9.5518055,2.1764655
1409527106807,-3.5045128,9.025542,0.5231331,0.53530467,9.565954,2.0919716
1409527106809,-2.7222073,12.5264635,1.4628572,0.634603,9.576473,2.014663
1409527106817,-2.44448,17.263391,2.1625626,0.73746395,9.583682,1.9441158
1409527106837,-1.1139023,19.608511,1.9075803,0.8376916,9.584455,1.8991859
1409527106839,-0.15322891,19.608511,2.1452048,0.9608121,9.576069,1.8831174
1409527106858,-0.66139823,19.079393,2.4259248,1.0973085,9.557699,1.9017566
1409527106860,-0.9923966,15.816096,2.7246015,1.2088253,9.535464,1.9452655
1409527106869,-0.9528923,11.895591,3.1729157,1.286812,9.508035,2.0277457
1409527106892,-1.7142484,8.732851,4.27365,1.3328358,9.473211,2.1568964
1409527106893,-2.224812,9.446322,5.4312468,1.3497034,9.433293,2.3155274
1409527106898,-1.8644845,11.545439,4.941034,1.3523316,9.39476,2.4657805
1409527106924,-1.5598224,10.166978,3.4105403,1.3785671,9.367008,2.5552106
1409527106925,-0.8595184,8.673594,2.722806,1.4534461,9.352513,2.5667899
1409527106929,0.12270284,8.721478,3.4117374,1.550959,9.340667,2.5528193
1409527106939,0.87927055,8.296508,3.9193082,1.6740543,9.32487,2.532731
1409527106965,1.7860745,8.284536,4.084508,1.8072588,9.297609,2.5413942
1409527106967,2.0458453,7.751228,3.6104562,1.9409022,9.261185,2.5756052
1409527106970,2.4654293,7.111976,2.8089972,2.0644228,9.222297,2.6187398
1409527106997,2.5995045,6.2554507,2.0500352,2.1738446,9.1848345,2.6615064
1409527106998,2.498948,4.933253,1.7932571,2.2646017,9.150141,2.7049768
1409527107000,2.5330653,5.00448,1.8842367,2.337301,9.116401,2.7565632
1409527107022,2.2768857,4.751293,1.8531121,2.399465,9.081313,2.8182852
1409527107024,2.0494366,4.606444,1.8118122,2.456492,9.043612,2.8894906
1409527107031,1.70946,4.497508,1.939902,2.5065796,9.00504,2.9659266
1409527107057,1.4933833,4.514866,1.9800048,2.54855,8.964906,3.0505345
1409527107058,1.3018472,4.6166196,1.9081788,2.5796962,8.9256935,3.1380794
1409527107060,1.0193313,4.708796,1.8806454,2.5978453,8.888866,3.2264006
1409527107069,0.85532856,4.80636,2.094328,2.6038187,8.856497,3.3095303
1409527107093,0.87687635,4.938041,2.4372973,2.6006117,8.829706,3.3828259
1409527107095,1.0145429,5.1906295,2.8179753,2.592146,8.809408,3.441731
1409527107098,1.2641385,5.5623293,3.3033998,2.5805156,8.797036,3.4818766
1409527107133,1.3958195,5.7119665,4.0378213,2.5658045,8.793568,3.5014563
1409527107135,1.6095021,5.856816,4.6417584,2.5444758,8.798403,3.5048745
1409527107138,2.1517887,6.4565635,4.9763484,2.5124214,8.81262,3.492257
1409527107161,2.815581,7.6692266,5.2852,2.4774263,8.831642,3.4691305
1409527107162,3.502717,9.306861,5.0661306,2.4304214,8.86249,3.423408
1409527107163,3.7122097,10.602722,4.565144,2.377036,8.905524,3.3483903
1409527107169,3.4302924,10.839149,4.7746367,2.3200076,8.956461,3.2511184
1409527107183,3.0532057,10.23222,5.547365,2.2648015,9.00324,3.1595466
1409527107201,3.425504,14.809933,5.1966147,2.223296,9.035724,3.0956514
1409527107202,3.3686419,15.457564,3.933075,2.1973991,9.064191,3.0302289
1409527107216,4.3209357,13.6493435,2.9173348,2.1901515,9.08975,2.9580486
1409527107217,6.3500214,11.900379,2.8389246,2.2218072,9.09921,2.9048815
1409527107233,7.85358,9.4696665,3.063381,2.305565,9.079799,2.9003508
1409527107248,8.548497,6.5349736,4.3688197,2.4248924,9.0271635,2.966583
1409527107249,8.210915,5.2480903,8.272566,2.5587254,8.953526,3.0753381
1409527107265,6.3907228,7.3244615,11.3407345,2.7033167,8.850422,3.245385
1409527107269,5.3145294,13.600263,9.825205,2.835558,8.748213,3.4056964
1409527107283,4.419098,18.158823,6.5846534,2.9334059,8.698155,3.450738
1409527107297,0.29029694,16.376938,5.5826797,2.9861128,8.710993,3.3722558
1409527107304,-2.2343888,14.332889,3.8774097,2.9650545,8.742017,3.3099804
1409527107324,-2.5791538,13.719375,1.7208325,2.8899853,8.763715,3.3189867
1409527107325,-2.5659857,13.528437,1.4927847,2.7818882,8.779451,3.3693812
1409527107329,-2.6420016,13.610438,1.234211,2.6422424,8.804651,3.4157097
1409527107346,-2.9622262,12.524668,-0.2777274,2.481392,8.849809,3.4196465
1409527107349,-3.2429461,10.970232,-0.7152678,2.3233154,8.9042015,3.389366
1409527107365,-1.8447324,10.020332,0.51595044,2.1840026,8.955563,3.3464055
1409527107369,-0.919972,8.395268,0.9935937,2.0603933,8.986331,3.342309
1409527107382,-0.24241292,7.6333137,1.5688007,1.9659534,8.997197,3.3698466
1409527107398,0.57640404,6.6870055,2.2511482,1.8973446,9.001671,3.3971174
1409527107399,1.0965444,6.257845,2.700061,1.8468016,9.010494,3.4015727
1409527107414,1.2707225,6.687604,2.9466639,1.8012935,9.028313,3.3786535
1409527107417,1.4969746,7.527969,3.0226796,1.7526275,9.052553,3.3391557
1409527107432,1.602918,8.359954,2.5779567,1.6971897,9.078655,3.2966614
1409527107448,1.448492,8.480861,2.0368671,1.6315216,9.105534,3.2554264
1409527107449,1.0061632,8.339603,1.757344,1.5537639,9.133542,3.2147512
1409527107461,0.41060558,8.467693,1.5131354,1.465947,9.1626625,3.1728544
1409527107470,-0.0676362,8.889671,1.4413095,1.3709792,9.197159,3.114977
1409527107485,-0.521936,9.405622,1.3036429,1.2719117,9.238956,3.032216
1409527107497,-0.8062474,9.518148,0.91099375,1.1750889,9.284992,2.9289043
1409527107498,-0.866701,9.129091,0.82001406,1.0866967,9.328779,2.8219426
1409527107518,-1.2413936,8.814852,0.90859956,1.011076,9.363994,2.7319875
1409527107521,-1.5011644,8.690952,1.0301052,0.94536614,9.389994,2.6654654
1409527107538,-1.4742297,8.744224,1.2797008,0.89054745,9.408231,2.6196425
1409527107539,-1.2150574,8.8364,1.2695254,0.84588766,9.41983,2.5926206
1409527107550,-0.15263036,8.18398,0.60333884,0.8058355,9.426773,2.5801117
1409527107572,0.3250129,7.9146323,0.7757214,0.7685525,9.432663,2.5699418
1409527107574,0.81163436,7.743447,1.0749966,0.7298443,9.438737,2.5589006
1409527107579,1.4036007,8.110358,1.4395138,0.68222356,9.448573,2.535635
1409527107614,2.0799627,8.586804,1.6316484,0.63153005,9.463432,2.4929924
1409527107615,2.8401217,8.798691,2.1122844,0.58477235,9.481409,2.435435
1409527107617,3.0178912,8.520964,2.6461914,0.5430695,9.4980135,2.3797512
1409527107656,3.093907,8.665813,3.0801406,0.4993306,9.509457,2.3433523
1409527107657,2.9813797,9.032724,3.252523,0.45592138,9.5134945,2.3357975
1409527107658,2.6168625,9.155427,2.9131448,0.4169131,9.510008,2.3571863
1409527107659,2.3361423,8.991425,2.4271219,0.380649,9.501373,2.3977895
1409527107661,2.2254105,8.7849245,2.107496,0.34264264,9.490238,2.447115
1409527107686,2.384625,8.583213,1.9333179,0.30085385,9.478656,2.4969893
1409527107687,2.7964275,8.41502,1.8866309,0.25588855,9.466674,2.546956
1409527107690,3.3991678,8.478467,2.2583308,0.21375395,9.455166,2.59317
1409527107698,3.7181952,8.589797,2.9442697,0.17650114,9.444219,2.6355157
1409527107733,3.6703112,8.704719,3.9438488,0.14399682,9.4331,2.6769886
1409527107734,3.306991,8.884284,4.4753613,0.11460122,9.420652,2.7218666
1409527107737,2.2415714,8.91062,4.0653543,0.08585063,9.407952,2.7664871
1409527107761,1.3617022,8.801085,2.2266076,0.04860497,9.397219,2.8036265
1409527107762,2.1679497,8.645462,1.0420763,0.0027375352,9.390052,2.827953
1409527107763,3.2004492,8.477868,1.5131354,-0.03968743,9.385417,2.843021
1409527107784,3.608062,8.604761,2.2816741,-0.0768053,9.383903,2.8472564
1409527107786,3.4314895,8.993818,2.4331074,-0.11315372,9.383661,2.8468392
1409527107802,2.5510218,9.502586,2.4289176,-0.14716326,9.388135,2.8304882
1409527107803,1.5059528,10.405201,2.1535845,-0.1811372,9.395166,2.805075
1409527107810,1.1324574,11.055825,2.1458032,-0.20930257,9.40359,2.7747197
1409527107820,1.1216835,11.288661,2.15538,-0.22310163,9.413559,2.739625
1409527107834,1.1366472,10.940904,1.7465701,-0.21608134,9.42748,2.6918952
1409527107849,1.4634558,10.396222,1.2072762,-0.18661402,9.445476,2.630317
1409527107850,2.1290438,9.808446,2.429516,-0.13490707,9.462873,2.570262
1409527107866,1.8243817,9.000402,3.645172,-0.059520256,9.474239,2.5309377
1409527107883,0.5883751,8.668806,3.0334535,0.029921092,9.483028,2.4983366
1409527107884,-0.99299514,8.098986,1.9973627,0.126194,9.496265,2.4444613
1409527107903,-2.665345,7.8709383,1.1707647,0.21755785,9.511291,2.3787405
1409527107904,-3.8151605,8.420407,0.84455466,0.3183979,9.526018,2.3073814
1409527107910,-4.297592,10.505158,1.3826514,0.4270686,9.537766,2.2403164
1409527107937,-3.9199066,14.821904,1.5795746,0.5378814,9.545185,2.1841526
1409527107938,-1.0301052,19.608511,1.9093759,0.64549655,9.549708,2.1346588
1409527107939,-1.0833763,19.608511,2.156577,0.78487605,9.549797,2.0870407
1409527107952,-2.1068976,19.383457,1.8447324,0.914247,9.545392,2.05427
1409527107970,-2.4953568,16.35599,1.9800048,0.9981794,9.540885,2.0360634
1409527107986,-2.0572178,12.448651,2.8263552,1.0395722,9.5282135,2.0743215
1409527107987,-3.1370027,8.043321,4.75668,1.05719,9.501795,2.1837242
1409527107990,-2.52289,11.036073,5.73112,1.0576123,9.466733,2.3308377
1409527107999,-1.9087774,11.629835,4.6806645,1.0523075,9.425763,2.4936001
1409527108020,-0.7565677,9.302073,2.9071593,1.0787594,9.392412,2.605624
1409527108021,0.6087258,7.502231,2.429516,1.1685313,9.371809,2.6408582
1409527108030,1.4802152,6.956353,3.2692823,1.2972087,9.356885,2.6337008
1409527108048,2.4127567,6.949769,4.31495,1.4404355,9.335688,2.6344764
1409527108052,3.2303767,6.7199254,4.681263,1.590845,9.303318,2.6623108
1409527108072,3.6421793,6.441001,4.1024647,1.7444103,9.263897,2.7032676
1409527108074,3.5865142,6.3260794,3.163339,1.8902688,9.225552,2.7361436
1409527108078,3.5140896,6.1106014,2.4486697,2.0194392,9.19181,2.7573354
1409527108102,3.4099417,5.6766524,1.9746178,2.1295583,9.160363,2.7790492
1409527108103,3.1453824,5.593454,1.780089,2.2270913,9.128249,2.8081193
1409527108112,2.0560207,4.594473,1.1546037,2.31348,9.092992,2.8523154
1409527108119,1.685518,4.497508,1.1336545,2.3849127,9.054361,2.9156702
1409527108135,1.5352819,4.643554,1.1976994,2.4448092,9.013138,2.9927666
1409527108138,1.5460558,4.7518916,1.2665327,2.4940982,8.971213,3.0768795
1409527108152,1.4275428,4.6740804,1.4089876,2.5320163,8.930846,3.162167
1409527108174,1.2575544,4.493318,1.578976,2.5576491,8.89448,3.2430005
1409527108175,1.1994951,4.441244,1.8752584,2.5713775,8.86436,3.313841
1409527108179,1.4814123,4.6950297,2.3391352,2.5749338,8.841415,3.3718636
1409527108206,1.8195933,4.9799395,2.9047651,2.5706527,8.826424,3.4141445
1409527108208,2.1697452,5.3235073,3.425504,2.5582488,8.820563,3.438523
1409527108210,2.6007016,5.639542,3.9480386,2.5436535,8.819229,3.45274
1409527108219,2.915539,6.121375,4.6046486,2.5164816,8.828539,3.448854
1409527108235,3.2746694,6.8372416,5.0571527,2.4761324,8.848206,3.4275978
1409527108238,3.4889505,8.1079645,5.3169236,2.4214876,8.878569,3.38789
1409527108255,3.4111388,9.622296,5.505467,2.35352,8.919437,3.3279088
1409527108280,3.0639796,10.281301,5.2798133,2.2754283,8.966765,3.2542152
1409527108281,2.8245595,9.239224,4.7141833,2.1961875,9.013388,3.1789973
1409527108283,1.8489223,7.9876556,4.9188876,2.129604,9.052179,3.1133993
1409527108313,1.0366893,13.181277,6.0848637,2.0748317,9.082338,3.062125
1409527108314,2.9819782,16.637308,3.5488055,2.014871,9.110714,3.0175445
1409527108315,5.2852,14.781202,3.0454245,1.9985254,9.14045,2.937423
1409527108335,7.3843164,12.317569,2.9939492,2.0353587,9.148016,2.8881695
1409527108335,8.497621,8.420407,3.572149,2.133605,9.120222,2.9051118
1409527108339,8.243835,5.595848,7.105392,2.260776,9.055674,3.0089943
1409527108351,6.4924765,6.793547,12.479177,2.399701,8.956311,3.193164
1409527108365,5.4725466,14.217368,12.483368,2.5410547,8.834099,3.4164486
1409527108385,4.780622,19.399618,7.2544312,2.6614878,8.747857,3.5442708
1409527108386,0.2837129,17.551294,5.1062336,2.7522185,8.7427225,3.4871886
1409527108391,-2.6731262,15.427637,3.5649664,2.7603426,8.77759,3.3918753
1409527108398,-2.0913353,13.970167,0.28670564,2.696983,8.810791,3.356583
1409527108419,-1.8321629,11.822568,0.6278794,2.6091833,8.825818,3.3863664
1409527108420,-1.917157,10.529699,2.022502,2.506634,8.825639,3.4634197
1409527108430,-2.0572178,10.063428,1.5987282,2.3815897,8.825393,3.5511787
1409527108447,-2.4061728,8.747216,0.4961983,2.24446,8.846745,3.5871868
1409527108472,-2.2511482,8.207323,0.6572084,2.1199403,8.88485,3.5687113
1409527108473,-1.7226281,8.301296,1.158195,2.0148644,8.917871,3.547153
1409527108474,-1.1947067,8.066066,1.2539631,1.9331328,8.933216,3.5540187
1409527108485,-0.6805518,7.7488337,1.4736311,1.872138,8.940596,3.5680854
1409527108511,1.0618285,7.1951747,2.4654293,1.8224524,8.956316,3.5543566
1409527108512,1.441908,7.7787614,2.7766755,1.7823236,8.983642,3.5054095
1409527108513,1.846528,8.872911,2.8496985,1.7378864,9.021409,3.4299142
1409527108527,2.1888988,9.671976,2.2984335,1.6865585,9.061772,3.3481631
1409527108530,2.0129251,9.648633,1.6208745,1.6271845,9.101362,3.26923
1409527108545,1.3096284,9.577405,1.2868834,1.5613121,9.136785,3.2018578
1409527108561,0.37469256,9.77373,1.2898762,1.479178,9.170573,3.1437254
1409527108562,-0.5398925,10.216658,1.3341689,1.3819904,9.208023,3.0777943
1409527108579,-1.1456255,10.473435,1.2018893,1.2748041,9.251129,2.993636
1409527108580,-1.4095862,10.270527,0.87328506,1.1661514,9.296171,2.8968396
1409527108597,-1.6190789,9.552266,0.54168814,1.0636481,9.336611,2.80477
1409527108601,-2.03148,8.944737,0.52373165,0.9698371,9.368369,2.7319355
1409527108617,-1.9434932,8.44375,1.0360907,0.88367116,9.390479,2.6848524
1409527108619,-1.839944,8.309675,1.3940239,0.8094443,9.403615,2.6621845
1409527108631,-1.3970166,8.422203,1.3000516,0.7462002,9.412882,2.6478708
1409527108645,-0.9008184,8.194156,0.93373865,0.68997693,9.4190235,2.6412685
1409527108668,-0.42437226,7.6333137,0.6787562,0.64172906,9.424331,2.6345005
1409527108669,-0.08559271,7.4082584,0.7691373,0.59394324,9.430857,2.6223238
1409527108671,0.7104794,8.557475,1.4718355,0.5413943,9.441011,2.5970337
1409527108679,1.411382,9.001001,1.5167267,0.48547247,9.4561205,2.552741
1409527108706,2.1865046,8.901642,1.6621746,0.4271369,9.47528,2.491389
1409527108708,2.8580782,8.911818,1.9195513,0.36790758,9.49365,2.4301527
1409527108712,3.3584664,8.790312,2.3660698,0.31015405,9.506099,2.3892
1409527108740,3.675698,8.702325,2.4438813,0.25543112,9.509754,2.3811202
1409527108742,3.6236243,8.487445,2.2343888,0.20404199,9.505311,2.4037106
1409527108744,3.3207579,7.9864583,2.1655555,0.15098478,9.497698,2.4374838
1409527108786,3.0190883,7.5255747,2.0979192,0.09399302,9.486028,2.4853275
1409527108788,2.8496985,7.4615297,2.1242554,0.029793957,9.47335,2.5347927
1409527108791,2.9562407,7.6734166,2.295441,-0.03813801,9.46163,2.5780795
1409527108793,3.1597476,8.000225,2.5210943,-0.10409897,9.451258,2.614055
1409527108795,3.168726,8.1959505,2.8832173,-0.16369449,9.441498,2.6460745
1409527108820,2.9747956,8.360553,3.2345665,-0.21590427,9.430982,2.6796196
1409527108821,2.618658,8.353969,3.7152026,-0.2620565,9.418647,2.7186015
1409527108822,2.0644004,8.335413,3.526659,-0.30591998,9.403667,2.7654707
1409527108846,1.2587515,8.422203,3.2848446,-0.35255045,9.389112,2.8090382
1409527108847,0.825401,8.733449,2.7922378,-0.40673256,9.377584,2.8400493
1409527108860,1.1001357,8.974067,1.745373,-0.46579996,9.368603,2.860546
1409527108861,2.7156234,9.387066,2.3056161,-0.52231395,9.364676,2.86364
1409527108879,2.7042508,9.855731,3.0855274,-0.5627759,9.362754,2.8622541
1409527108880,2.2828712,10.226234,3.2016463,-0.59921473,9.361806,2.8579566
1409527108895,1.6801311,10.792462,2.669535,-0.6338745,9.362953,2.8467007
1409527108910,1.4371196,11.039065,2.8101943,-0.6620203,9.368029,2.823505
1409527108911,0.80924016,10.885837,3.091513,-0.67348933,9.376057,2.7939842
1409527108927,0.42197806,10.562619,2.4570496,-0.6690172,9.386527,2.759699
1409527108931,0.66379243,10.368091,2.1655555,-0.6461865,9.400843,2.7160623
1409527108942,1.1528081,10.599131,3.098097,-0.5977256,9.416826,2.6714218
1409527108960,1.5532384,11.060015,3.4596214,-0.53303266,9.430769,2.63569
1409527108961,1.4036007,11.299435,2.1481974,-0.44260672,9.445131,2.600763
1409527108976,0.43634325,10.3214035,0.6326678,-0.33911973,9.465748,2.540673
1409527108979,-0.82001406,8.94773,0.025737667,-0.23043117,9.490601,2.4588194
1409527108994,-1.8441339,7.9607205,0.4441244,-0.11570626,9.51455,2.3728304
1409527109010,-2.3834279,8.285733,1.3730747,0.009990648,9.535654,2.289453
1409527109013,-2.5198972,10.4967785,2.379238,0.1476769,9.552044,2.2151895
1409527109027,-1.9961656,14.7824,2.949058,0.28901532,9.56092,2.1623342
1409527109031,-1.6346412,19.081188,2.8790276,0.4290129,9.561999,2.1341286
1409527109042,-0.93852705,19.608511,2.4905684,0.56285715,9.558284,2.1196167
1409527109069,-1.7058687,17.444752,2.557606,0.69354993,9.548662,2.1242402
1409527109072,-1.3748703,13.263279,3.0891187,0.8093466,9.533255,2.152305
1409527109074,-0.635062,9.779117,3.7618895,0.8960887,9.505631,2.2383928
1409527109081,-1.8237832,8.412027,4.678869,0.95430845,9.466554,2.3757186
1409527109120,-1.4215573,11.629835,4.757279,0.97849095,9.4220915,2.5371494
1409527109122,-0.997185,12.272678,3.6469676,0.9914314,9.382991,2.6733747
1409527109124,-0.7015011,10.296265,2.3068132,1.030925,9.360247,2.737402
1409527109126,-0.30945057,8.5060005,1.8471266,1.1169482,9.354373,2.7237003
1409527109132,0.12509704,7.5848308,2.2301989,1.2291945,9.354878,2.6731484
1409527109158,0.90261406,7.7997108,3.1771057,1.3503865,9.348926,2.6352274
1409527109159,1.6992847,8.106767,3.763685,1.4761893,9.33097,2.6314018
1409527109160,1.9045875,7.747637,3.311181,1.605017,9.302795,2.6556191
1409527109177,1.7944542,7.0491285,2.1206641,1.728372,9.272024,2.6856484
1409527109179,1.54845,6.329671,1.3341689,1.833556,9.243561,2.7138603
1409527109196,1.4532804,5.805939,1.3557167,1.913391,9.2188425,2.7426784
1409527109213,1.3796587,5.398925,1.4826094,1.9734737,9.193319,2.7854414
1409527109214,1.5167267,5.1122193,1.6274586,2.0208647,9.164469,2.8458757
1409527109227,1.471237,4.976947,1.6759412,2.0644286,9.131809,2.918661
1409527109231,1.2773066,4.7740383,1.8441339,2.1062653,9.096075,2.9992433
1409527109243,1.115698,4.693234,2.0207062,2.144787,9.058184,3.0853841
1409527109259,0.95229375,4.735132,2.1176715,2.1777396,9.019991,3.1729538
1409527109260,0.9115923,4.8003745,2.1942859,2.2033463,8.983822,3.256777
1409527109276,0.9995792,4.8698063,2.1709423,2.2265482,8.949379,3.3348897
1409527109279,1.2144588,4.944625,2.2517467,2.2424822,8.920864,3.3999763
1409527109291,1.5759833,5.1289787,2.5396495,2.253426,8.900423,3.4460032
1409527109315,1.8177977,5.425261,3.1519666,2.2598805,8.889099,3.4709132
1409527109316,2.1134815,5.807735,3.8492777,2.2601361,8.886445,3.4775364
1409527109320,2.4301147,6.2943563,4.333505,2.252588,8.891417,3.4697201
1409527109347,2.8790276,7.0066314,4.781221,2.2348232,8.904462,3.4476826
1409527109348,3.3889925,8.124125,5.3420625,2.2042525,8.926584,3.4099493
1409527109368,3.828927,9.426571,5.527613,2.1610324,8.956387,3.3590865
1409527109369,3.9857473,10.448297,5.498883,2.1088111,8.991191,3.2987568
1409527109373,3.7367504,10.553042,5.5856724,2.0546844,9.025279,3.2392907
1409527109380,3.232771,10.307637,6.133945,2.003657,9.056532,3.1835465
1409527109401,3.4973302,13.02326,6.0681043,1.9560825,9.079084,3.148709
1409527109404,3.7726634,16.228498,4.6244006,1.9253167,9.09721,3.115175
1409527109411,3.518878,15.196597,3.5051112,1.9135042,9.118003,3.0611944
1409527109426,5.7598505,11.537658,2.6018987,1.9259068,9.127708,3.024272
1409527109444,6.8001313,9.120112,3.330933,1.9947602,9.1107435,3.0307918
1409527109445,6.9665284,7.2113357,7.1155677,2.0905778,9.067138,3.096271
1409527109467,6.0130377,8.5299425,10.875661,2.2024097,8.990222,3.2397027
1409527109469,5.8083334,15.103822,9.348759,2.3229172,8.887301,3.4337015
1409527109472,3.6607344,18.900427,6.5523314,2.4424398,8.809349,3.5496864
1409527109482,-0.39324763,17.060482,4.5459905,2.5234985,8.777257,3.5724096
1409527109500,-2.3391352,14.065935,3.0591912,2.552061,8.79096,3.51801
1409527109501,-2.134431,10.984597,1.520318,2.5455496,8.8201685,3.4489405
1409527109511,-1.8459295,8.762778,1.8938135,2.5124686,8.830067,3.4478707
1409527109529,-2.0153193,7.9966335,2.5558102,2.44667,8.816623,3.528644
1409527109545,-1.8327614,8.648455,1.8800468,2.3519235,8.802361,3.627299
1409527109546,-1.8854338,8.674192,0.8738836,2.2503848,8.810304,3.672155
1409527109573,-1.8890251,8.618527,1.0169371,2.1595757,8.841955,3.6505408
1409527109575,-1.6543933,9.029732,1.086369,2.0831676,8.8764105,3.611113
1409527109577,-1.0839748,9.239823,0.5470751,2.0227082,8.899523,3.58853
1409527109583,-0.27952304,8.713697,0.62488663,1.9758238,8.917359,3.5703247
1409527109609,0.60094464,8.27077,1.2886791,1.9379234,8.934692,3.5476913
1409527109610,1.1947067,8.343194,1.9967642,1.9014738,8.9601,3.5030537
1409527109611,1.7058687,10.184934,2.8736405,1.860727,8.99587,3.4325545
1409527109628,2.0847511,10.763732,2.3774424,1.8095435,9.039126,3.3451662
1409527109643,2.1511903,10.377667,1.9913772,1.7483273,9.084218,3.2543414
1409527109649,1.9590555,10.041282,1.9213469,1.6780884,9.125299,3.1754222
1409527109668,1.4730326,9.968259,1.9327193,1.6016282,9.161934,3.1087196
1409527109670,0.90261406,9.917382,1.9578584,1.5209191,9.198595,3.0402362
1409527109672,0.45549688,9.700109,1.7824832,1.4383351,9.237808,2.9604928
1409527109682,0.28431144,9.218275,1.5107412,1.3580378,9.277134,2.8741817
1409527109695,0.15322891,8.623316,1.2258313,1.2879483,9.311004,2.7958536
1409527109710,-0.10354923,8.1642275,1.3928268,1.2237328,9.339997,2.7271466
1409527109712,-0.38367084,7.957728,1.8549078,1.1722821,9.359059,2.6840556
1409527109730,-0.40222588,7.9463553,1.8956091,1.1277347,9.369344,2.6672068
1409527109745,-0.0700304,7.5920134,1.5089456,1.0853683,9.37437,2.6671262
1409527109747,0.15203181,7.414244,1.246182,1.0423937,9.377638,2.672776
1409527109763,0.25378537,7.4746976,1.1988965,0.9945484,9.381687,2.676794
1409527109764,0.19632454,7.4387846,1.2719196,0.93672234,9.38966,2.6696846
1409527109771,0.36511576,7.9092455,1.5801731,0.86713064,9.404371,2.6412616
1409527109791,0.6733692,8.485649,1.6579847,0.7904111,9.425028,2.591237
1409527109792,1.0516531,8.7292595,1.9991584,0.711342,9.447917,2.5300674
1409527109815,2.0979192,9.018359,2.1745336,0.63218105,9.46889,2.4720097
1409527109816,2.5713725,8.933964,2.3648727,0.5607004,9.484264,2.429967
1409527109820,2.6731262,9.029133,2.307412,0.4941782,9.491942,2.4143782
1409527109857,2.5875335,8.766968,2.0709844,0.43025604,9.492504,2.424384
1409527109858,2.475006,8.380304,2.0248961,0.36756286,9.4868555,2.4566
1409527109859,2.4169466,8.255806,1.9919758,0.30516297,9.476939,2.5029788
1409527109860,2.5384524,8.209119,1.9686323,0.24315439,9.465744,2.5516572
1409527109873,2.834735,8.267179,1.9847932,0.18538886,9.454943,2.5961616
1409527109880,3.1591492,8.519168,2.3349452,0.13449308,9.444967,2.6353216
1409527109895,3.229778,8.66701,2.825158,0.09262583,9.434823,2.6731863
1409527109919,3.157952,8.74542,3.1256304,0.058185503,9.423094,2.7151983
1409527109920,2.8078,8.327033,3.751714,0.028328855,9.409998,2.7607114
1409527109922,2.4037786,8.088212,3.7116113,-0.0037519,9.394098,2.8144794
1409527109948,1.6196774,8.15525,3.4919431,-0.042603463,9.378446,2.865891
1409527109949,1.1324574,8.360553,2.7730842,-0.094085306,9.366016,2.905043
1409527109953,1.1665748,8.701726,1.7705121,-0.15484591,9.358535,2.9264755
1409527109960,1.7184383,9.093178,1.3623008,-0.21757549,9.355915,2.930853
1409527109979,2.136825,9.603143,1.8848352,-0.2734618,9.357947,2.9196634
1409527109992,1.5987282,10.371083,2.119467,-0.32094547,9.363053,2.8983793
1409527109993,1.1312603,10.562619,2.0213048,-0.3642983,9.370553,2.8688686
1409527110015,0.75596917,10.393828,2.6240451,-0.3999637,9.379572,2.8344407
1409527110017,0.20051439,10.172364,2.690484,-0.42403775,9.388523,2.8011096
1409527110020,0.4866215,10.038888,2.1410148,-0.4427795,9.398035,2.7660956
1409527110047,1.6214731,10.078392,1.7830818,-0.43770483,9.410747,2.7233496
1409527110049,2.771887,9.694721,2.3265655,-0.39735302,9.424528,2.681565
1409527110078,3.120842,9.284714,2.6605566,-0.32413667,9.435884,2.6513066
1409527110081,2.7275944,9.555858,2.191293,-0.2297011,9.447517,2.619549
1409527110083,1.8650831,9.266159,1.471237,-0.12474355,9.464097,2.5662627
1409527110108,0.6985083,8.537724,1.0761937,-0.015673736,9.484441,2.493094
1409527110111,-0.2681506,8.160038,1.1719618,0.09750198,9.504096,2.415175
1409527110116,-1.1492168,8.702325,1.9937714,0.21646011,9.52067,2.3410273
1409527110144,-1.5951369,10.979211,3.1106665,0.33883467,9.532532,2.2773685
1409527110149,-1.757344,15.133749,3.7098155,0.46490103,9.539593,2.2249591
1409527110151,-1.0696096,18.82022,3.3105824,0.5854199,9.541634,2.187441
1409527110154,0.31783026,19.608511,2.7150247,0.71116966,9.539292,2.160217
1409527110166,-0.15682021,19.599533,2.473809,0.84999686,9.530539,2.1486592
1409527110167,-1.1510124,18.550873,2.0644004,0.9589558,9.519399,2.1521745
1409527110172,-1.6370354,13.813945,2.9095535,1.0156047,9.508517,2.1741817
1409527110195,-1.8567034,11.266515,3.4913447,1.0378455,9.488879,2.248211
1409527110197,-3.2507274,9.436746,4.3634324,1.0381098,9.463067,2.3543758
1409527110218,-2.765303,10.554239,4.277241,1.0246676,9.433914,2.474211
1409527110219,-2.0326772,10.754155,3.196858,1.023349,9.408023,2.5714304
1409527110230,-1.7962499,9.222465,2.0248961,1.062763,9.3912945,2.6161995
1409527110256,-1.2012907,8.263587,1.7280151,1.1276299,9.379813,2.630199
1409527110257,-0.94331545,7.9511437,2.2272062,1.2238263,9.374986,2.6042824
1409527110259,-0.45370123,7.4842744,2.719813,1.3253417,9.369279,2.5749722
1409527110261,0.46567222,7.74225,3.2465374,1.4275547,9.35629,2.5675533
1409527110280,0.7410054,7.6015906,3.145981,1.5296139,9.335472,2.5844975
1409527110281,0.9463082,7.1730285,2.492364,1.6267428,9.31027,2.615908
1409527110292,0.8230068,6.5098343,1.8082209,1.7085283,9.28573,2.6507618
1409527110316,0.8170213,5.9238534,1.726818,1.7685162,9.264723,2.6847079
1409527110318,0.9564836,5.524022,1.9967642,1.8126873,9.244698,2.7239914
1409527110321,1.1300632,5.48332,2.2062569,1.8514098,9.222091,2.774117
1409527110348,1.1887212,5.3402667,2.195483,1.8924737,9.196131,2.83198
1409527110352,1.067814,5.2361193,2.1068976,1.9363858,9.168653,2.8907776
1409527110353,1.0737995,5.277419,2.2900538,1.9805268,9.140274,2.9501364
1409527110361,1.3844471,5.4659624,2.6473885,2.0243828,9.11149,3.0088217
1409527110382,1.5699978,5.4384294,2.6683378,2.0658834,9.082722,3.0670338
1409527110384,1.8243817,5.4743423,2.8167782,2.1018875,9.056293,3.120261
1409527110392,2.0841527,5.5300074,3.0502129,2.130554,9.034499,3.1636949
1409527110417,2.4247277,5.617396,3.2369606,2.1502802,9.019023,3.1943567
1409527110419,2.7682958,5.9519854,3.6870706,2.1601505,9.010849,3.2107232
1409527110421,3.064578,6.361394,4.324527,2.1588614,9.009295,3.2159472
1409527110447,3.5164838,6.8905125,4.3760023,2.1458213,9.013649,3.212471
1409527110448,4.009091,7.5201874,4.526837,2.1226327,9.022662,3.2025588
1409527110454,4.3861775,8.240244,4.96318,2.0957942,9.037198,3.179165
1409527110461,4.701015,8.998607,5.2385135,2.0582745,9.056853,3.1475885
1409527110477,4.7776294,9.424775,5.216367,2.01078,9.078794,3.1149132
1409527110492,4.2131963,9.487024,5.298967,1.9578528,9.099503,3.0880847
1409527110493,3.6828809,9.3499565,5.45459,1.9035172,9.114364,3.0782104
1409527110507,3.5877113,10.67395,5.2875943,1.8605361,9.119995,3.0877972
1409527110522,3.3171666,13.151949,4.689044,1.8416337,9.119488,3.100597
1409527110523,3.3800142,13.3704195,3.6703112,1.8454391,9.120772,3.0945518
1409527110541,4.259285,11.686098,2.9227216,1.8794216,9.122186,3.069833
1409527110542,5.2444987,9.504981,3.1346085,1.9541943,9.110512,3.0577912
1409527110557,6.815694,6.975507,7.088034,2.0499918,9.08457,3.0722167
1409527110562,5.069722,8.783129,10.892421,2.1820562,9.0205965,3.1682572
1409527110578,4.4340615,16.19378,8.519767,2.3084657,8.933399,3.3220081
1409527110581,2.4779987,19.607914,5.9023056,2.4141867,8.876031,3.399733
1409527110592,-1.0552444,17.99482,4.4879313,2.4768426,8.869447,3.3717303
1409527110617,-2.333748,15.093646,2.484583,2.4857368,8.895018,3.2969935
1409527110619,-2.1667526,12.6461735,1.1145009,2.4609213,8.92621,3.2306385
1409527110621,-2.1272483,10.146626,2.2457612,2.4022024,8.940538,3.2352111
1409527110651,-2.4109612,8.954314,2.9724014,2.3051586,8.934313,3.3218503
1409527110653,-2.256535,9.155427,1.9536686,2.1855004,8.92703,3.420836
1409527110655,-1.970428,9.221268,0.919972,2.075694,8.936918,3.4631495
1409527110664,-1.5741876,9.041702,0.9139865,1.990279,8.956162,3.4635775
1409527110689,-1.0073603,9.128492,0.8631097,1.9148989,8.980184,3.4438136
1409527110691,-0.3728969,9.002198,0.8122329,1.8586794,8.99583,3.4337687
1409527110696,0.521936,8.391078,1.352724,1.8159833,9.005991,3.4299738
1409527110711,1.3365631,7.804499,1.965041,1.7784184,9.021885,3.4078176
1409527110713,1.7585411,8.139089,2.295441,1.73932,9.050148,3.3526065
1409527110721,1.9907787,9.235035,2.7928362,1.6951433,9.089819,3.2668169
1409527110740,2.2296004,10.218452,2.2523453,1.6431215,9.133281,3.1707635
1409527110741,1.963844,9.173384,1.8381484,1.5824025,9.174926,3.0801213
1409527110758,1.5065514,8.734647,1.8842367,1.5123684,9.209673,3.0108209
1409527110762,0.86011696,8.717887,1.8154035,1.4348601,9.240811,2.9527948
1409527110779,0.22565351,8.897452,1.6106992,1.3513567,9.270409,2.8989253
1409527110781,-0.11133038,9.082404,1.2587515,1.2659826,9.30301,2.8322582
1409527110802,-0.14305355,9.049484,0.8331822,1.1811048,9.338691,2.7503147
1409527110834,-0.14664486,8.950723,0.59615624,1.1024363,9.373792,2.6621535
1409527110837,-0.21787235,9.033323,0.86610246,1.0344626,9.405032,2.5779192
1409527110839,-0.34356794,9.339182,1.3640964,0.97764736,9.430234,2.5070443
1409527110840,-0.23642741,9.714474,1.6430209,0.92819184,9.448538,2.45642
1409527110842,-0.12330139,9.673173,1.1474211,0.88202935,9.461068,2.4249985
1409527110861,-0.0724246,9.226655,0.6410475,0.8327989,9.470238,2.4065452
1409527110862,0.15562311,8.740033,0.43514615,0.7746476,9.477812,2.3961172
1409527110872,0.3286042,8.449138,0.61411273,0.71347266,9.485273,2.3855696
1409527110892,0.5315128,8.608951,1.1791444,0.6428848,9.495805,2.3636446
1409527110894,0.8050503,8.84478,1.6795325,0.56612086,9.510576,2.3235419
1409527110913,1.4305356,8.862736,1.8734628,0.4873317,9.527025,2.2734764
1409527110914,2.0727801,8.635885,2.0027497,0.41265202,9.540992,2.2292583
1409527110921,2.8383262,8.13849,2.2888567,0.34251302,9.54889,2.2072096
1409527110946,2.7006595,7.8308353,2.142212,0.27749375,9.54817,2.2194238
1409527110947,2.367267,7.5106106,2.0213048,0.21052988,9.540451,2.2596133
1409527110953,2.0655975,7.1544733,1.8752584,0.13963205,9.528312,2.3156314
1409527110974,1.9955671,6.767211,1.8590976,0.06490458,9.514841,2.3736014
1409527110975,2.0739772,6.6852098,2.0368671,-0.010967823,9.502129,2.424837
1409527110989,2.4187422,6.911462,2.2541409,-0.08659743,9.489615,2.471859
1409527111013,2.794632,7.2873516,2.5743654,-0.15646899,9.479167,2.5082455
1409527111015,2.7563248,7.7985134,3.1399956,-0.21662784,9.470305,2.537084
1409527111017,2.5234885,8.2169,3.843891,-0.26585495,9.461103,2.5665607
1409527111022,1.8806454,8.455123,3.8253357,-0.3070544,9.449165,2.6056473
1409527111047,1.0073603,8.79091,3.4931402,-0.34857085,9.435456,2.6497242
1409527111048,0.53809685,8.948329,2.834735,-0.3960252,9.422473,2.6889691
1409527111054,0.7212533,8.981848,1.8177977,-0.44884005,9.412519,2.7154024
1409527111085,1.3521254,9.152434,1.5059528,-0.5034552,9.407023,2.7248507
1409527111091,1.9973627,9.6049385,2.1619642,-0.63719684,9.408555,2.6913686
1409527111093,2.006341,10.20289,2.6479871,-0.63719684,9.408555,2.6913686
1409527111094,1.8956091,10.68652,2.7084408,-0.63719684,9.408555,2.6913686
1409527111116,1.8806454,11.123461,2.834735,-0.6675104,9.41388,2.6652744
1409527111117,1.3281834,11.45027,3.333926,-0.68158054,9.421798,2.6335511
1409527111122,1.429937,11.42094,2.718616,-0.6812707,9.431188,2.599802
1409527111149,2.2164323,11.616068,2.6384103,-0.65986806,9.444432,2.556884
1409527111153,2.9771898,11.743559,3.2202013,-0.6087018,9.45916,2.5147903
1409527111156,3.0101101,12.02009,3.1465795,-0.5301689,9.473455,2.4784997
1409527111180,2.2810757,12.325351,1.9871874,-0.437819,9.490583,2.430538
1409527111182,1.1528081,11.741165,0.7433996,-0.3442548,9.513404,2.3552134
1409527111184,-0.2873042,9.923966,0.2717419,-0.2531691,9.538831,2.2620788
1409527111194,-1.8249803,8.50181,0.026934769,-0.17271136,9.561619,2.1716409
1409527111222,-2.5264814,7.8811135,0.5482722,-0.08369037,9.58237,2.0836399
1409527111224,-2.9999347,8.968081,1.7447745,0.021092976,9.60116,1.996915
1409527111229,-3.0095115,12.366052,2.842516,0.13754743,9.614924,1.9247634
1409527111256,-2.6731262,17.356167,3.1256304,0.25528714,9.619244,1.8908623
1409527111257,-1.9674352,19.608511,2.8119898,0.36984408,9.615243,1.8922844
1409527111258,-1.5478514,19.608511,2.5540147,0.48911926,9.605319,1.9154689
1409527111276,-1.7010803,17.850569,2.7252002,0.5996783,9.590075,1.9599154
1409527111277,-1.5664065,14.223353,3.3207579,0.67685115,9.568109,2.0404866
1409527111294,-1.1186907,10.867282,3.779846,0.7230149,9.536193,2.1699457
1409527111295,-1.4024036,8.56825,4.2640734,0.7491281,9.497615,2.3247592
1409527111303,-1.2012907,11.6908865,3.8911762,0.7667089,9.456634,2.4808552
1409527111325,-0.82001406,10.408194,2.3517046,0.7824625,9.424221,2.5965755
1409527111326,-0.33997664,8.400057,1.3042414,0.8365633,9.406452,2.6437137
1409527111343,0.12749124,7.0156097,1.3263878,0.936306,9.400338,2.6319904
1409527111344,0.65900403,6.325481,1.9812019,1.0579689,9.395921,2.6014953
1409527111356,1.809418,7.098808,3.1747115,1.1857504,9.384184,2.588727
1409527111382,2.244564,7.0491285,3.5613751,1.3217498,9.360724,2.6077228
1409527111390,2.1787236,6.3087215,2.866458,1.4581945,9.328549,2.6499505
1409527111394,1.9985598,5.8478374,2.2026656,1.5770926,9.295827,2.6964433
1409527111417,1.7495629,5.3354783,2.0727801,1.6670331,9.267463,2.7396262
1409527111418,1.7124528,4.9518075,2.166154,1.732612,9.241747,2.7854168
1409527111418,1.7591397,4.9027267,2.3211784,1.7887619,9.215325,2.8369894
1409527111422,1.6998832,4.8961425,2.3678656,1.8336259,9.186979,2.8995917
1409527111437,1.5765818,5.046977,2.4378958,1.87313,9.156242,2.9706929
1409527111442,1.3281834,5.1636944,2.509722,1.9093406,9.124188,3.0453253
1409527111454,1.1408371,5.401319,2.5139117,1.9414934,9.092311,3.1194367
1409527111467,1.2395979,5.380968,2.3882163,1.9689925,9.062307,3.1887329
1409527111473,1.4975731,5.513248,2.244564,1.9944136,9.035414,3.2486956
1409527111486,1.8680758,5.5282116,2.5025394,2.0182588,9.012322,3.2977324
1409527111504,2.3852234,5.251083,2.9311013,2.0406144,8.993995,3.3338206
1409527111505,2.429516,5.1966147,3.7463272,2.0617316,8.9811945,3.3552644
1409527111528,2.6030958,5.33488,4.395156,2.0810592,8.970478,3.3719602
1409527111529,3.0256724,5.880758,4.9015293,2.0894647,8.966585,3.3771126
1409527111535,3.5954924,6.782175,5.486912,2.086938,8.970597,3.368004
1409527111544,4.2119994,8.019379,5.6042275,2.0723143,8.9826975,3.3447056
1409527111565,4.4999022,9.357139,5.2421045,2.0458567,9.003407,3.3050785
1409527111566,4.4999022,10.2495775,4.4316673,2.0068898,9.032373,3.2494643
1409527111574,3.8983588,9.670779,4.624999,1.9600526,9.065409,3.1854305
1409527111596,3.0855274,9.655217,5.868787,1.9114261,9.091967,3.1389446
1409527111597,2.6844985,13.739126,6.0597243,1.871861,9.104839,3.125452
1409527111602,2.4372973,15.937602,4.63697,1.8453665,9.112378,3.1192245
1409527111631,3.0029275,14.272435,3.3393128,1.8374256,9.123274,3.0919466
1409527111633,4.7734394,12.682685,3.1262288,1.8496106,9.130477,3.0632882
1409527111635,6.5924344,10.709264,3.803788,1.9171448,9.119131,3.0555503
1409527111643,7.3112936,7.4681134,5.453393,2.0218723,9.075767,3.1165516
1409527111663,6.4846954,6.0285997,10.119094,2.1456692,8.997693,3.2569964
1409527111663,4.6142254,9.3343935,12.802994,2.2831612,8.890195,3.452823
1409527111673,1.4395138,18.83758,5.2660465,2.4031522,8.789352,3.6252627
1409527111688,-2.356493,15.58745,3.9474401,2.4569335,8.7892475,3.5892918
1409527111706,-2.9855695,13.88637,2.0991163,2.4592733,8.820054,3.5112703
1409527111707,-2.2900538,12.584522,1.6065093,2.4226778,8.850206,3.4604719
1409527111723,-1.9572599,11.699266,2.4378958,2.3566928,8.856581,3.4896073
1409527111725,-1.9033904,11.877635,1.3976152,2.2561681,8.855813,3.5573406
1409527111740,-2.4115596,10.78109,-0.6356605,2.1416762,8.865006,3.6048992
1409527111765,-2.4594438,9.557653,-0.55126494,2.0190058,8.899829,3.589853
1409527111766,-2.136825,9.126099,0.39923313,1.9065509,8.943561,3.5423396
1409527111767,-1.5717934,8.970475,0.635062,1.8088913,8.975234,3.5133297
1409527111773,-0.92655605,9.041702,0.9415198,1.7307397,8.992001,3.5098255
1409527111804,-0.0011971008,8.684368,1.4945804,1.6668875,9.008701,3.4978802
1409527111805,0.8738836,8.185776,1.9985598,1.6134012,9.035404,3.453812
1409527111807,1.1552023,8.261791,2.3864205,1.5628026,9.072358,3.3794022
1409527111833,1.5161282,8.969278,2.802413,1.5057092,9.114036,3.2920506
1409527111834,1.9201498,9.569026,2.6246436,1.4403441,9.153604,3.2105064
1409527111836,2.1164744,9.530719,2.2212207,1.3676273,9.19059,3.1357713
1409527111860,1.7190368,9.139266,2.0189106,1.2901535,9.222851,3.0732572
1409527111860,1.0606314,8.992023,1.8800468,1.2017381,9.25167,3.0220537
1409527111862,-0.5758055,8.880095,1.6286557,1.1058594,9.281159,2.967751
1409527111873,-0.8888474,8.784326,1.2982559,0.99895966,9.314302,2.9010723
1409527111883,-0.8583213,8.461707,0.9888053,0.89114183,9.347966,2.8269746
1409527111898,-0.85293436,8.018182,0.90141696,0.78933036,9.377814,2.757527
1409527111903,-0.705691,7.7733746,1.1827357,0.698934,9.401728,2.699886
1409527111920,-0.6631939,7.9661074,1.6705543,0.62607306,9.419129,2.6567695
1409527111922,-0.62129533,8.209718,1.8728642,0.5664453,9.430811,2.6285605
1409527111937,-0.44113165,8.485051,1.3730747,0.5113738,9.438245,2.6131303
1409527111955,-0.3441665,8.309675,0.96905315,0.45724502,9.445038,2.598575
1409527111961,-0.16938977,8.090606,0.7745243,0.39569166,9.451413,2.5854626
1409527111973,0.04189853,8.346188,1.0313023,0.3240373,9.460025,2.563848
1409527111974,0.44891283,8.408437,1.0899603,0.24444179,9.472785,2.5252678
1409527111989,1.0061632,8.182184,1.168969,0.16227701,9.490394,2.4650533
1409527112000,1.6514006,8.109759,1.3880384,0.08289719,9.509619,2.3938844
1409527112002,2.3062148,8.222287,1.9213469,0.013234306,9.525146,2.3327696
1409527112017,3.0597897,8.72088,2.493561,-0.04073241,9.532743,2.3012037
1409527112022,3.0813377,8.4904375,2.6461914,-0.078325495,9.532094,2.3029199
1409527112035,3.0220811,8.2593975,2.5737667,-0.11329393,9.526031,2.3264375
1409527112055,3.004723,8.053496,2.4067712,-0.1514003,9.518313,2.3556683
1409527112056,2.6001031,8.1343,2.2523453,-0.19347368,9.50875,2.3909519
1409527112075,2.5210943,8.340201,2.2457612,-0.24564402,9.498533,2.4265053
1409527112077,2.6126726,8.573636,2.1170728,-0.30677003,9.489401,2.455109
1409527112083,2.8233624,8.853159,2.0608091,-0.3746776,9.48282,2.471057
1409527112110,2.89459,9.078813,2.4558525,-0.44155267,9.47826,2.477503
1409527112112,2.9017725,9.280524,2.6683378,-0.5012859,9.472643,2.4875965
1409527112114,2.847903,8.883685,2.831742,-0.5493757,9.4637,2.5113628
1409527112123,2.6042929,8.528147,3.2800562,-0.58851874,9.45036,2.552396
1409527112144,2.1033063,8.511986,3.3806129,-0.62385994,9.433319,2.6064703
1409527112145,1.6938977,8.485051,2.7844565,-0.6600593,9.41619,2.6589627
1409527112154,1.7304093,8.441357,2.1260512,-0.6995836,9.401397,2.7008753
1409527112172,2.5881321,8.702923,1.8130093,-0.7347397,9.391996,2.7241437
1409527112190,3.4739866,9.2308445,1.9632454,-0.75813097,9.38776,2.7323248
1409527112192,3.8001966,9.692925,2.211644,-0.768085,9.388274,2.7277744
1409527112194,3.5691562,9.8916445,2.533664,-0.7688556,9.39292,2.7115183
1409527112203,2.8275523,10.189124,2.2511482,-0.76326144,9.399147,2.691444
1409527112220,2.2068555,10.708666,2.184709,-0.75184083,9.407673,2.6647394
1409527112224,1.4221559,10.890026,2.9472623,-0.72896516,9.4199295,2.6275353
1409527112242,0.43514615,10.563218,2.7263973,-0.6950772,9.432899,2.589916
1409527112243,0.20350714,10.694301,2.7581203,-0.65401775,9.446906,2.5492415
1409527112256,0.2681506,11.193492,2.7994204,-0.60126746,9.461,2.5096464
1409527112271,0.2789245,11.300632,1.8189948,-0.5445383,9.475279,2.4683905
1409527112289,-0.25258827,10.614095,0.81163436,-0.47561768,9.49388,2.41048
1409527112290,-1.4173675,9.324219,0.26156655,-0.40121695,9.517575,2.3291988
1409527112304,-2.4133554,8.127716,0.12569559,-0.3212699,9.542542,2.2376456
1409527112306,-2.7329812,8.045116,0.6817489,-0.22900984,9.565356,2.14986
1409527112323,-2.6623523,10.077195,1.6262615,-0.118727945,9.58487,2.0704029
1409527112324,-2.1517887,14.158112,2.6563668,0.006138503,9.598847,2.0081038
1409527112334,-1.4466964,18.823214,2.806603,0.14178547,9.604748,1.9746219
1409527112351,-0.75716627,19.608511,2.2679076,0.2884538,9.605265,1.9560318
1409527112354,-0.9983821,19.561226,1.9961656,0.44159636,9.601531,1.9457624
1409527112366,-1.2078748,17.378912,2.2948422,0.5825656,9.594719,1.9422652
1409527112383,-1.2114661,13.769652,2.712032,0.68313825,9.579495,1.9841841
1409527112384,-1.3533225,10.114903,3.0442274,0.74727017,9.554067,2.0812972
1409527112402,-2.408567,10.210671,4.3640313,0.78293324,9.52196,2.211264
1409527112404,-2.1416135,12.95323,3.99293,0.7931383,9.490558,2.338944
1409527112418,-2.1068976,11.774085,2.510919,0.8179811,9.471028,2.408509
1409527112436,-1.2449849,8.461109,1.3066356,0.8890099,9.467131,2.3986435
1409527112438,-0.7715315,8.230068,2.0201077,1.0046166,9.467408,2.351448
1409527112454,-0.010175358,8.115746,2.7455509,1.1386373,9.459973,2.3200872
1409527112455,0.86011696,7.867347,3.1621418,1.2826269,9.441126,2.3217244
1409527112466,1.2449849,7.4872675,2.6743233,1.4299332,9.413303,2.348488
1409527112484,1.1019313,6.67683,1.5496471,1.5732971,9.382471,2.3799896
1409527112485,1.1049241,5.9561753,0.9163807,1.701945,9.352051,2.4109998
1409527112500,1.1348516,5.6443305,1.0085574,1.8079866,9.324211,2.4414468
1409527112503,1.2240356,5.502474,1.3946224,1.8910545,9.297302,2.480822
1409527112518,1.2114661,5.45459,1.6370354,1.9576689,9.267905,2.538475
1409527112535,1.2228385,5.4300494,1.839944,2.0142672,9.235373,2.6117086
1409527112536,1.1504139,5.2804117,1.9740193,2.065526,9.200892,2.6921325
1409527112553,1.3281834,5.20679,2.2200236,2.113208,9.16569,2.773965
1409527112554,1.5975311,5.142745,2.2768857,2.1581626,9.130693,2.8536253
1409527112564,1.7435774,5.1840453,2.1332338,2.1997404,9.098087,2.9251235
1409527112588,1.905186,5.2181625,2.03148,2.2352557,9.068722,2.9886997
1409527112589,2.0380642,5.2852,2.0452468,2.2682123,9.043874,3.0387475
1409527112599,2.1086931,5.42167,2.4091654,2.2913837,9.025736,3.0750692
1409527112603,2.2242134,5.6102133,2.9819782,2.3040555,9.014427,3.0986834
1409527112622,2.8281507,6.0501475,3.8869865,2.3044293,9.009617,3.1123621
1409527112639,3.245939,6.4368114,4.198831,2.2921865,9.010657,3.1183834
1409527112640,3.7576995,7.2394676,4.63278,2.264536,9.020185,3.111033
1409527112643,4.143166,8.223484,5.116409,2.2208805,9.038309,3.0898335
1409527112654,4.171298,9.127894,5.7987566,2.163477,9.062701,3.058952
1409527112667,3.912724,9.739014,6.7546415,2.096199,9.089205,3.0269947
1409527112685,3.549404,9.88925,7.050924,2.0268304,9.111719,3.006483
1409527112686,3.8271315,11.798626,6.682217,1.9599352,9.131374,2.9911652
1409527112701,3.4739866,14.935629,5.6497173,1.9051611,9.146897,2.9791
1409527112703,2.4319103,14.967352,4.619014,1.8564612,9.16284,2.9608004
1409527112717,2.5127146,13.629592,3.7708676,1.8149847,9.173526,2.9534132
1409527112733,3.4638114,12.211027,3.5661635,1.806174,9.172476,2.962063
1409527112734,4.783615,11.204266,3.4715924,1.8344291,9.156708,2.9933202
1409527112747,5.345654,9.194333,3.9384618,1.8896235,9.125361,3.0540948
1409527112755,5.2582655,7.33763,6.761824,1.9605309,9.07821,3.148461
1409527112775,5.006874,8.054094,10.360908,2.044299,9.012726,3.2805507
1409527112777,4.947618,13.112444,9.572019,2.1390867,8.931833,3.4375973
1409527112783,2.984971,17.006014,5.535394,2.2332783,8.873281,3.5281386
1409527112808,-0.5410896,16.256031,3.3740287,2.298194,8.859132,3.522001
1409527112809,-2.1619642,10.160394,0.05327099,2.3067703,8.883734,3.4537628
1409527112814,-1.4742297,8.616134,0.7517793,2.3000445,8.908857,3.393001
1409527112834,-1.8100165,8.314464,2.4420857,2.265188,8.922716,3.380009
1409527112835,-1.5771804,9.828198,3.1585505,2.1935422,8.932572,3.4011629
1409527112853,-1.4790181,10.928932,1.7986441,2.099365,8.951329,3.4112692
1409527112855,-1.2629414,10.836157,0.96546185,2.0105596,8.98759,3.3691633
1409527112871,-0.9696517,10.29387,0.9876082,1.9398446,9.029442,3.2979643
1409527112875,-0.76195467,9.696517,0.5710171,1.8845193,9.056544,3.255455
1409527112883,-0.23104046,9.0315275,0.5410896,1.838682,9.066049,3.2552123
1409527112905,0.6183026,8.893861,1.0390835,1.7969632,9.070676,3.265604
1409527112906,1.5933412,9.39365,1.4772224,1.7573524,9.078859,3.2644203
1409527112915,2.0548236,9.838373,1.7166426,1.7132777,9.101831,3.2236214
1409527112939,2.112883,10.147225,1.8070238,1.6587013,9.138028,3.1488955
1409527112940,1.834557,10.375273,1.8441339,1.5880281,9.179273,3.064235
1409527112943,1.2791022,10.266935,1.7950528,1.4970704,9.218957,2.989985
1409527112974,0.66259533,9.846154,1.7902644,1.3906512,9.255504,2.927817
1409527112976,0.21068975,9.503783,1.7178397,1.2813721,9.290951,2.8647354
1409527112978,-0.016759412,9.176376,1.7597382,1.1792293,9.327113,2.7901247
1409527112984,-0.31304187,9.093178,1.5897499,1.08656,9.362325,2.7086272
1409527113005,-0.24600422,8.7609825,1.3605051,1.0020727,9.393829,2.6310148
1409527113006,-0.30107087,8.678981,1.3018472,0.9236659,9.421591,2.5594635
1409527113015,-0.3238158,8.848969,1.6316484,0.85744613,9.442561,2.504643
1409527113037,-0.2160767,9.256582,1.863886,0.80368227,9.457322,2.4664843
1409527113038,-0.2136825,9.4972,1.5526398,0.7579623,9.467327,2.4424586
1409527113054,-0.055066638,8.953117,0.9331401,0.7112996,9.473809,2.4313364
1409527113056,0.04129998,8.254609,0.65242,0.65788466,9.477074,2.4336488
1409527113063,0.044292733,7.7266874,0.75716627,0.5927435,9.478855,2.4434283
1409527113092,0.0023942017,7.6428905,1.2018893,0.5158156,9.483592,2.4424996
1409527113093,0.17717093,8.112154,1.489792,0.4304032,9.494403,2.4169087
1409527113095,0.6266823,8.359355,1.4544775,0.343251,9.510431,2.36734
1409527113104,1.299453,8.178593,1.4670471,0.25849968,9.52815,2.306064
1409527113124,1.9087774,7.7949224,1.7926586,0.17792554,9.544033,2.2472587
1409527113125,2.2427685,7.6847887,2.1948843,0.09953517,9.554249,2.208353
1409527113139,2.3558946,7.3418193,2.415151,0.024913346,9.556428,2.201016
1409527113163,2.208651,7.0168066,2.4546554,-0.047723874,9.550385,2.2267163
1409527113165,2.1577742,7.101801,2.4109612,-0.123878896,9.5380335,2.2761703
1409527113176,2.0093338,7.231686,2.2319946,-0.20435587,9.522862,2.333177
1409527113199,2.0757728,7.7667904,1.8752584,-0.2900735,9.508306,2.3829339
1409527113201,2.3421278,8.294113,1.6466122,-0.37996626,9.496867,2.4156828
1409527113206,2.497751,8.830415,1.8423382,-0.46986443,9.489544,2.4286172
1409527113207,2.5192988,9.397242,2.4223335,-0.5529124,9.484628,2.4303334
1409527113228,2.5258827,9.618107,3.196858,-0.6218372,9.479148,2.435047
1409527113229,2.5300727,9.57142,3.3991678,-0.68006945,9.469441,2.4571512
1409527113235,2.1416135,9.385869,3.365649,-0.72679925,9.455097,2.4986546
1409527113264,1.9141643,9.353547,3.217807,-0.7679912,9.438893,2.547132
1409527113267,2.259528,9.197925,2.6994624,-0.8048318,9.424748,2.5878065
1409527113269,3.0454245,8.783728,2.3289597,-0.8337413,9.414142,2.6170998
1409527113297,3.8007953,8.635885,2.783858,-0.85098433,9.405962,2.6408484
1409527113300,3.6182373,8.64666,3.4081461,-0.8557744,9.399474,2.6623178
1409527113304,2.7509377,9.108142,3.4021606,-0.85740507,9.395156,2.6770005
1409527113305,1.721431,10.107721,2.658761,-0.8604433,9.394242,2.6792233
1409527113317,1.2826935,10.809222,2.4827871,-0.8603298,9.398694,2.663602
1409527113333,0.8194155,10.959458,2.8736405,-0.85673594,9.405992,2.638886
1409527113351,-0.002992752,10.788273,2.4193408,-0.8363468,9.416859,2.606472
1409527113352,0.13826515,10.506954,1.4460979,-0.7992491,9.432267,2.5620196
1409527113367,1.0821792,10.44231,2.1021092,-0.73680884,9.451003,2.5111845
1409527113368,1.448492,9.991602,2.070386,-0.6463782,9.467882,2.4722033
1409527113385,0.37469256,9.078813,0.83976626,-0.54074997,9.485928,2.4279928
1409527113386,-1.1587936,8.002021,0.33638534,-0.4348086,9.509329,2.3566952
1409527113397,-2.4426842,7.6961613,0.6464345,-0.32726827,9.535554,2.2663796
1409527113404,-3.2040405,9.111733,1.4999673,-0.21283554,9.561467,2.1687417
1409527113418,-3.3393128,12.644977,2.15538,-0.090967685,9.583651,2.0774405
1409527113438,-3.4195185,17.920002,1.7794905,0.033336088,9.599429,2.005051
1409527113438,-2.3475149,19.608511,0.88405895,0.1468021,9.614303,1.9271857
1409527113444,-2.0638018,19.608511,1.079785,0.27152663,9.624294,1.8626895
1409527113475,-2.6844985,19.549854,1.7202339,0.39112654,9.627625,1.8237948
1409527113476,-3.0903158,16.78874,1.958457,0.47860587,9.624997,1.8168017
1409527113477,-2.4642322,12.484565,2.4953568,0.5295604,9.613021,1.8654215
1409527113484,-2.486977,8.713099,3.6511576,0.5597888,9.588092,1.9812949
1409527113510,-2.304419,10.482413,5.0625396,0.57492006,9.553569,2.1375668
1409527113511,-1.5394717,12.836513,4.6363716,0.5897131,9.51729,2.2899365
1409527113517,-1.0606314,10.816404,3.2674868,0.64193267,9.492597,2.3767486
1409527113534,-0.6967127,8.507197,2.5007436,0.7412502,9.483271,2.385058
1409527113535,-0.26874915,7.265205,2.8275523,0.8628515,9.476505,2.371019
1409527113552,0.12629414,6.806117,3.4434607,0.98711514,9.467833,2.3571506
1409527113566,1.5867572,7.827244,4.148553,1.120187,9.449921,2.3695126
1409527113566,1.5891514,7.373543,3.007716,1.2632303,9.421924,2.4087324
1409527113582,1.5807717,6.9228344,1.8327614,1.4020612,9.391188,2.4515731
1409527113584,1.5598224,6.2925606,1.1887212,1.5228486,9.362515,2.488903
1409527113599,1.4927847,5.616797,1.0169371,1.6208934,9.336472,2.5245595
1409527113615,1.4101849,5.142745,1.1971009,1.6999869,9.31002,2.569816
1409527113616,1.352724,4.787206,1.459266,1.7651885,9.280899,2.6304796
1409527113629,1.2773066,4.6100354,1.584363,1.8229473,9.248526,2.7040796
1409527113635,1.2677298,4.633379,1.6879122,1.8773963,9.214511,2.7818267
1409527113651,1.1294646,4.59567,1.7124528,1.931876,9.179727,2.8584688
1409527113678,1.1312603,4.5423994,1.846528,1.9825581,9.1460705,2.930745
1409527113679,1.1659763,4.5501804,1.7878702,2.0282164,9.1146555,2.9966292
1409527113680,1.347337,4.660912,1.7902644,2.067706,9.08643,3.0547962
1409527113684,1.5376761,4.8398786,1.9165585,2.1019974,9.061584,3.1047833
1409527113713,1.7609353,5.0643353,2.1859062,2.1310465,9.040689,3.1456268
1409527113716,1.9393034,5.242703,2.6551697,2.1532469,9.024914,3.175663
1409527113717,1.9716251,5.3462524,3.4865563,2.165148,9.015875,3.193201
1409527113750,2.0745757,5.48332,4.2461166,2.162835,9.014126,3.1996975
1409527113752,2.9562407,5.9483943,5.3396683,2.1441195,9.020604,3.1940334
1409527113753,3.5476084,8.107366,5.7664347,2.1119404,9.034764,3.1753964
1409527113780,3.7361517,9.582193,5.620987,2.074376,9.053325,3.1471677
1409527113782,3.54282,10.74398,5.346851,2.020575,9.083799,3.0939083
1409527113784,2.7341783,10.701483,5.5886655,1.9538468,9.123157,3.0200803
1409527113787,2.4546554,10.905589,6.3763576,1.8802116,9.16235,2.947295
1409527113810,3.2638955,14.857818,6.363788,1.8205532,9.191102,2.8947582
1409527113810,2.9233203,16.877924,5.2199583,1.7938128,9.210452,2.849595
1409527113815,2.9418752,15.704167,4.222773,1.7887416,9.22695,2.7989626
1409527113831,4.386776,14.161104,3.904943,1.8101176,9.234256,2.7608712
1409527113836,6.1860185,12.805986,4.297592,1.8726242,9.223299,2.755798
1409527113853,7.1724296,9.781511,4.7614684,1.9678404,9.188157,2.8063786
1409527113855,6.938995,7.7572136,8.5862055,2.0734322,9.137575,2.8941298
1409527113863,5.5862713,9.560646,12.07336,2.184417,9.057288,3.0601096
1409527113884,5.623381,16.115372,8.671799,2.28254,8.955488,3.2801862
1409527113886,3.145981,17.686567,4.367024,2.3757231,8.886434,3.3996549
1409527113901,-0.6841431,14.988301,3.079542,2.4268773,8.878464,3.3843076
1409527113916,-1.8321629,12.768278,2.134431,2.4161608,8.900372,3.334055
1409527113917,-1.6699557,10.9834,1.3036429,2.369497,8.918343,3.3194928
1409527113931,-2.3624785,9.390657,3.389591,2.295551,8.926584,3.3491666
1409527113935,-2.3014264,9.636662,1.6585833,2.1887083,8.934305,3.3997285
1409527113951,-2.223615,9.102755,0.017956512,2.0782366,8.957615,3.4077065
1409527113965,-2.0213048,8.662222,-0.19871874,1.9834529,8.991679,3.374317
1409527113966,-1.7896658,8.297106,-0.076015905,1.9061376,9.02416,3.3319016
1409527113981,-1.151611,8.388684,0.14425065,1.8368251,9.044089,3.316762
1409527113984,-0.25019407,8.6574335,0.7870938,1.7817721,9.052013,3.3251662
1409527113997,0.89603,8.796297,1.6101006,1.7353088,9.063437,3.3186162
1409527114013,1.9057846,9.140464,2.046444,1.6926969,9.089757,3.268256
1409527114015,2.3199813,9.479243,2.179322,1.6475039,9.131095,3.1747758
1409527114030,2.236783,9.567828,2.1027076,1.5940409,9.178089,3.0646553
1409527114044,1.9381063,9.537901,1.8249803,1.5282527,9.220353,2.9698372
1409527114045,1.5328877,9.705495,1.7429788,1.4486539,9.256022,2.8979042
1409527114070,0.9032126,9.876082,1.6358383,1.3590018,9.288373,2.8371875
1409527114071,-0.022146367,9.85214,1.5095441,1.2628032,9.322117,2.7701807
1409527114076,-0.79487497,9.812037,1.3790601,1.1579367,9.356775,2.698207
1409527114086,-1.0127473,9.540296,1.2617443,1.0495459,9.39203,2.6189013
1409527114103,-0.89064306,9.0237465,1.1749545,0.9426193,9.422397,2.5495694
1409527114105,-0.86131406,8.595782,0.8972271,0.8471466,9.444895,2.4993427
1409527114116,-1.1210849,8.981848,1.5699978,0.7684227,9.460807,2.4643526
1409527114137,-1.1534066,9.018958,1.423353,0.70148826,9.471589,2.4428053
1409527114139,-0.9187749,8.616732,0.8631097,0.6425548,9.479018,2.430168
1409527114144,-0.6733692,7.828441,0.23044191,0.5862085,9.483308,2.4276795
1409527114173,-0.35254622,7.1808095,-0.04070143,0.5280426,9.48499,2.4344473
1409527114175,-0.12749124,6.9689226,0.15622166,0.46702656,9.486765,2.4399967
1409527114177,-0.0023942017,7.3190746,0.7493851,0.40356985,9.489957,2.4389052
1409527114185,0.23104046,8.037335,1.1336545,0.3394424,9.499256,2.412325
1409527114210,0.6787562,8.426393,1.4143747,0.27583924,9.515578,2.3554327
1409527114211,1.2988545,8.394072,1.5682021,0.21512905,9.535463,2.2801476
1409527114216,1.8770541,8.310873,1.6490064,0.15749007,9.55388,2.2065783
1409527114236,2.285864,8.267179,2.1092918,0.102052994,9.566813,2.1531537
1409527114238,2.944868,8.585009,2.682703,0.050118368,9.572182,2.1310124
1409527114244,3.028665,8.511986,2.5246856,0.0052576284,9.570932,2.137198
1409527114268,2.8353333,8.590994,2.1972785,-0.040415306,9.566294,2.1574996
1409527114269,2.533664,8.432977,1.905186,-0.09417159,9.560761,2.1802163
1409527114276,2.3714569,8.495825,1.8124107,-0.15855128,9.555331,2.200207
1409527114286,2.4702177,8.715493,1.7890673,-0.22951691,9.549707,2.2182903
1409527114314,2.7611132,8.945336,1.6861166,-0.30106232,9.544034,2.2340946
1409527114316,3.0472202,9.258378,2.391209,-0.3688453,9.538389,2.247993
1409527114327,2.8844144,9.455899,3.0783448,-0.42723122,9.530537,2.270843
1409527114362,2.6623523,9.332,3.8863878,-0.47692865,9.519162,2.3083506
1409527114364,2.1410148,8.859145,3.9252937,-0.5182316,9.503555,2.363105
1409527114366,1.4927847,8.459911,3.442862,-0.5582207,9.485789,2.4245787
1409527114369,1.2054806,8.361151,2.681506,-0.6013834,9.468755,2.480207
1409527114371,1.6950948,8.316858,1.9303252,-0.6469788,9.454447,2.5229461
1409527114396,2.7575219,8.479065,1.7591397,-0.6890172,9.442992,2.5545168
1409527114398,3.3273418,9.0315275,2.2230163,-0.7203459,9.434947,2.5755134
1409527114399,3.084929,9.660006,2.4109612,-0.7442862,9.429194,2.5897353
1409527114426,2.581548,10.26514,2.417545,-0.76157784,9.42934,2.584169
1409527114428,2.247557,10.679337,2.9819782,-0.76940984,9.43417,2.5641432
1409527114429,1.2336124,10.71106,3.3650506,-0.75684136,9.44033,2.5451438
1409527114458,0.7158663,10.563816,2.7862523,-0.724758,9.44735,2.5283775
1409527114458,1.3503298,10.294469,2.4971523,-0.6705184,9.45714,2.5066586
1409527114459,2.2888567,10.368091,3.5332432,-0.5871098,9.468211,2.4856935
1409527114464,2.1505916,10.733805,3.281852,-0.47496295,9.478984,2.4685419
1409527114483,1.2198458,10.684125,1.757344,-0.35244346,9.494511,2.4290836
1409527114497,0.04070143,9.862315,0.10295067,-0.22879007,9.518022,2.3506005
1409527114497,-1.9267339,8.626308,0.5590461,-0.10344756,9.543933,2.2523358
1409527114516,-2.4809916,10.202292,1.4610616,0.01503584,9.567389,2.1529636
1409527114516,-3.0268695,14.020445,1.5316905,0.14114794,9.586373,2.0620127
1409527114531,-3.2136173,18.759169,1.039682,0.26376346,9.6016865,1.9769828
1409527114546,-3.2615013,19.608511,0.82779527,0.37282568,9.61542,1.8907875
1409527114547,-3.630807,19.608511,0.6374562,0.4730348,9.623021,1.8286885
1409527114563,-4.177882,18.22167,0.57161564,0.55223197,9.624282,1.7996231
1409527114564,-3.8983588,14.288596,1.4814123,0.5981998,9.618534,1.8155911
1409527114581,-2.3654714,10.865486,2.5743654,0.6209888,9.601047,1.8985956
1409527114594,-1.9782091,7.9942393,3.5637693,0.63923484,9.571761,2.0354748
1409527114598,-2.4211364,10.931327,4.779425,0.66063935,9.535296,2.1936424
1409527114610,-2.15538,12.600683,4.282628,0.67623836,9.496159,2.3528864
1409527114618,-1.3575124,10.224439,3.0789435,0.7155438,9.464751,2.4651358
1409527114631,-0.29807812,8.212111,2.5031378,0.80875385,9.4456005,2.5093713
1409527114643,0.5758055,7.615956,2.719813,0.9421154,9.434244,2.5055683
1409527114644,1.1761516,7.3112936,3.2231941,1.094129,9.421356,2.4922495
1409527114663,2.0739772,7.7745714,4.0342298,1.2510375,9.402289,2.4904327
1409527114665,2.4887726,7.715315,3.98874,1.40926,9.375636,2.506357
1409527114680,1.9740193,6.369175,2.0649989,1.5553629,9.345352,2.5329127
1409527114698,1.8321629,5.5521536,1.70946,1.6720823,9.318993,2.5555673
1409527114699,1.8028339,5.084686,1.7417817,1.7596431,9.295061,2.5837739
1409527114713,1.5903485,4.8219223,1.8501194,1.8255665,9.27092,2.6244454
1409527114716,1.400608,4.585495,1.9075803,1.8809372,9.245637,2.6740785
1409527114728,1.2378023,4.5723267,2.055422,1.9265438,9.21844,2.7348068
1409527114744,1.1468226,4.6842556,2.3612814,1.9634123,9.190249,2.8026304
1409527114745,1.2126632,4.805163,2.5941176,1.9933991,9.161737,2.8739018
1409527114760,1.4065934,5.0403934,2.6503813,2.0171869,9.134246,2.9439597
1409527114765,1.7489643,5.341464,2.6426,2.0344496,9.109649,3.0076084
1409527114781,2.1278467,5.5886655,2.8401217,2.0458846,9.088882,3.0621834
1409527114794,2.327164,5.803545,3.110068,2.0520854,9.07144,3.1093953
1409527114796,2.3654714,5.843049,3.353678,2.0512528,9.057689,3.149768
1409527114813,2.3469162,5.7215433,3.9336734,2.0406914,9.049312,3.1805573
1409527114830,2.3642743,5.6365495,4.5603557,2.0182874,9.044841,3.2074559
1409527114832,2.5851393,6.113594,5.00867,1.9899483,9.045608,3.2229586
1409527114846,2.854487,7.0593038,5.483919,1.9506863,9.055262,3.2198522
1409527114847,3.2770636,8.297106,5.6120086,1.9018149,9.075489,3.1920214
1409527114870,3.632004,9.589975,5.517438,1.848523,9.105624,3.1370313
1409527114872,4.2556934,10.565612,4.731541,1.796362,9.141202,3.0629907
1409527114877,4.6034513,10.155605,4.770447,1.757057,9.175487,2.982212
1409527114908,4.983531,12.422316,4.7698483,1.7392693,9.197965,2.9228053
1409527114909,4.031237,14.72434,4.083311,1.7522047,9.208485,2.8816602
1409527114910,3.5823243,13.938444,3.128623,1.777538,9.21693,2.8388283
1409527114936,4.519056,12.369643,2.4504654,1.8174258,9.222726,2.794401
1409527114937,5.8244944,10.418368,2.8245595,1.8730726,9.222799,2.7571692
1409527114938,6.8043213,8.5473,4.0701427,1.9641701,9.204532,2.75482
1409527114945,7.047931,6.6522894,6.655282,2.0768096,9.160387,2.8186102
1409527114973,6.211158,6.8683662,11.309011,2.2044115,9.087907,2.953121
1409527114974,5.7736173,12.084134,10.563218,2.3423405,8.986766,3.1499043
1409527114977,5.3803697,19.178753,6.4936733,2.4685202,8.904289,3.2848797
1409527115004,0.0712275,18.30427,4.5579615,2.5608833,8.885253,3.2656631
1409527115005,-4.1455603,15.243882,3.0532057,2.55892,8.917475,3.1782045
1409527115007,-4.470573,13.39496,0.04249708,2.491764,8.962835,3.1030788
1409527115033,-4.083311,10.890026,0.35434186,2.3997476,8.998935,3.070957
1409527115034,-3.4410665,10.291476,2.0518308,2.2826154,9.018171,3.1036494
1409527115039,-2.870648,10.836157,1.4610616,2.1583884,9.03067,3.155748
1409527115045,-2.3511062,10.522516,-0.09756372,2.034253,9.050655,3.1808577
1409527115070,-1.5580268,10.239402,0.789488,1.9370207,9.079325,3.1597786
1409527115072,-1.122282,9.276335,0.694917,1.8625568,9.100544,3.1434658
1409527115076,-0.44651863,8.022371,0.74878657,1.8056549,9.107185,3.1574004
1409527115102,0.5081693,7.1425023,0.9804256,1.7586515,9.107331,3.183402
1409527115104,1.127669,6.884527,1.4568717,1.7104164,9.115453,3.1864364
1409527115106,1.3910311,7.6291237,2.3331497,1.6568227,9.136313,3.1548548
1409527115145,1.6005238,9.147646,3.2357635,1.5983051,9.166289,3.097572
1409527115147,1.5310919,9.993997,2.8981812,1.5333557,9.198934,3.0329638
1409527115149,1.1288661,9.471462,1.9740193,1.4611546,9.231806,2.968028
1409527115151,0.74758947,8.910022,1.7441759,1.3850912,9.263337,2.905601
1409527115172,0.49799395,8.990826,1.9853917,1.3038758,9.292915,2.8481653
1409527115173,0.18435353,9.463681,2.0578163,1.2177744,9.324006,2.783945
1409527115177,-0.40761283,9.810242,1.903989,1.1312015,9.359283,2.700852
1409527115201,-0.65660983,9.85633,1.5580268,1.0486507,9.395993,2.6050048
1409527115203,-0.62249243,9.585187,0.90740246,0.9747629,9.427551,2.5182366
1409527115205,-0.33159694,9.239823,0.78769237,0.91201067,9.4513645,2.4516022
1409527115226,-0.23463176,9.451111,1.0307038,0.86263657,9.46794,2.4050708
1409527115228,-0.078410104,9.947908,1.4012065,0.82369816,9.479504,2.3729584
1409527115241,0.3716998,10.132261,0.87567925,0.78838456,9.486608,2.3565075
1409527115246,0.36152446,8.39048,0.46567222,0.75355905,9.492253,2.3451364
1409527115267,0.3453636,7.5722613,0.42916065,0.7034749,9.493128,2.3571248
1409527115268,0.15981296,7.2634096,0.8559271,0.63149685,9.4919405,2.3821628
1409527115277,0.046088383,7.723695,1.6657659,0.5399502,9.493823,2.3971167
1409527115307,0.28311434,8.44016,2.1601684,0.43914238,9.502702,2.3824785
1409527115309,1.2180501,9.11293,2.142212,0.34143093,9.518318,2.335693
1409527115311,1.9578584,8.523358,1.8776526,0.25417262,9.536742,2.2707589
1409527115340,2.35769,7.836222,1.8956091,0.17360388,9.552347,2.2119956
1409527115342,2.6473885,7.7332716,2.3157916,0.09423735,9.560865,2.1797616
1409527115344,2.7192147,7.6111674,2.4917655,0.018830664,9.560948,2.181355
1409527115346,2.534861,7.554305,2.3930047,-0.052160833,9.555011,2.2066836
1409527115373,2.244564,7.5171947,1.8974048,-0.123898916,9.547204,2.237396
1409527115374,2.1547816,7.463924,1.453879,-0.19632483,9.539098,2.2665982
1409527115377,2.3714569,7.5124063,1.311424,-0.27110636,9.532479,2.2866368
1409527115403,2.8604724,7.9942393,1.4957775,-0.34493807,9.527472,2.2975392
1409527115405,3.435081,8.829217,1.9919758,-0.4113158,9.523953,2.301206
1409527115407,3.8594532,9.51336,2.690484,-0.46418345,9.520626,2.3049126
1409527115444,4.12102,9.883265,3.335123,-0.50407547,9.514599,2.321358
1409527115446,3.1441853,9.574412,3.9240966,-0.5371971,9.503513,2.359038
1409527115448,2.337938,9.52593,3.9923313,-0.5832266,9.486572,2.4156103
1409527115450,1.9093759,9.227852,3.3105824,-0.64154816,9.466881,2.477292
1409527115469,2.2170308,8.495825,2.1057005,-0.707763,9.447519,2.532555
1409527115470,2.8760347,8.042124,1.8183962,-0.77554953,9.430507,2.5757396
1409527115478,3.1866825,8.090008,2.4881742,-0.84038526,9.416243,2.607402
1409527115506,3.0873232,8.620922,2.7114334,-0.8999877,9.405064,2.6277802
1409527115508,2.5181017,9.439739,2.2649148,-0.95307744,9.398741,2.6316767
1409527115513,2.0021513,10.367492,2.6114755,-0.9993446,9.398316,2.6159792
1409527115546,1.5957354,10.787076,3.9636009,-1.03082,9.401695,2.591514
1409527115549,0.7679402,10.519524,4.1515455,-1.0423392,9.405101,2.574494
1409527115551,0.32621,10.234613,3.1184478,-1.0347122,9.410707,2.5570238
1409527115555,0.30885202,10.376471,2.89459,-1.0011635,9.421269,2.531351
1409527115568,0.52492875,10.386645,3.2076318,-0.9408264,9.433342,2.5094483
1409527115569,0.23523031,10.204686,2.2284033,-0.8715163,9.445486,2.4887037
1409527115577,-0.55844754,9.704897,0.62368953,-0.7866395,9.465326,2.4411464
1409527115594,-1.8034325,9.043498,-0.050876785,-0.6943882,9.496355,2.3467994
1409527115598,-2.8060043,9.11293,0.0796072,-0.59645665,9.531812,2.2269313
1409527115623,-3.6750996,10.226234,0.49799395,-0.4879071,9.565843,2.1040404
1409527115625,-3.9294837,17.899052,0.5255273,-0.36971354,9.595673,1.9891642
1409527115626,-3.3387144,19.608511,0.7781156,-0.2542215,9.624616,1.863471
1409527115647,-3.8432922,19.608511,0.6607997,-0.12613098,9.644478,1.7715819
1409527115648,-5.1050367,19.23382,0.12210429,-0.014662586,9.661144,1.6829958
1409527115667,-5.504868,16.225506,0.74519527,0.052511036,9.661302,1.6813357
1409527115668,-5.7227407,12.006323,2.0159178,0.08818945,9.653631,1.7233821
1409527115679,-3.2202013,9.407417,2.8083985,0.122305945,9.633111,1.8326545
1409527115699,-3.0358477,6.8982935,4.3329067,0.16199996,9.602309,1.9849007
1409527115700,-2.8335378,11.138425,5.336077,0.20806678,9.5639925,2.1580455
1409527115706,-2.0991163,11.822568,4.80636,0.2585807,9.523759,2.3241286
1409527115730,-1.2880806,9.072827,3.0723593,0.33866957,9.492612,2.4384449
1409527115731,0.3645172,7.671621,2.1559787,0.47109345,9.475492,2.4826438
1409527115743,1.578976,7.713519,2.8275523,0.6383183,9.46423,2.4882298
1409527115746,2.4732103,7.872135,3.453636,0.82263386,9.447561,2.497454
1409527115768,3.0615854,7.801506,3.6601357,1.011136,9.421926,2.5249405
1409527115770,3.152565,7.6333137,3.1597476,1.1905484,9.390769,2.5625067
1409527115778,2.7036524,6.8306575,2.0614076,1.3577199,9.358111,2.598599
1409527115806,2.3942018,6.051345,1.3551182,1.5014639,9.327405,2.6297367
1409527115807,1.9327193,5.559935,1.4526819,1.6163007,9.298279,2.6645734
1409527115808,1.2389994,4.905121,1.8752584,1.7055452,9.267956,2.7141352
1409527115833,1.146224,4.745308,2.0961237,1.7766917,9.234819,2.780628
1409527115835,1.1228806,4.6842556,2.1206641,1.838193,9.200425,2.853703
1409527115838,1.3862427,4.666898,2.1051018,1.8944541,9.1674,2.9223628
1409527115847,1.6717514,4.7040076,2.0919337,1.9503647,9.136751,2.9809792
1409527115873,1.8507179,4.7297454,1.9297266,2.006116,9.1088705,3.0289207
1409527115875,2.0506337,4.7800236,1.809418,2.0599275,9.084238,3.066548
1409527115879,2.333748,4.887164,1.8130093,2.1097376,9.06351,3.093895
1409527115909,2.5797524,4.953005,1.9237411,2.1585276,9.044547,3.1156561
1409527115910,2.618658,4.9416323,2.1452048,2.2002168,9.030439,3.1273968
1409527115911,2.6635494,4.883573,2.8874073,2.2324252,9.022066,3.1287353
1409527115925,2.7952304,4.8386817,3.6409822,2.2518137,9.019209,3.123076
1409527115926,3.1902738,5.2199583,4.3305125,2.2556705,9.02243,3.1109648
1409527115945,3.8594532,6.2740054,4.920683,2.2427146,9.033145,3.0891602
1409527115946,4.4633904,7.8691425,5.5617304,2.2134953,9.052714,3.052737
1409527115960,4.778228,9.643845,6.0046577,2.1701562,9.079829,3.0029163
1409527115975,4.581305,10.979809,6.4966664,2.1150439,9.112559,2.9424908
1409527115977,4.0719385,10.887632,6.3182983,2.0523734,9.145691,2.8834891
1409527115993,4.104859,10.693702,4.681263,1.9907172,9.177245,2.825883
1409527116007,3.472191,16.618155,3.8325183,1.935731,9.206335,2.7688866
1409527116008,2.8329391,15.223532,3.1573534,1.8826363,9.23634,2.7048335
1409527116024,3.6337996,13.599664,2.731784,1.8499633,9.252873,2.6706507
1409527116026,4.742315,11.664551,2.6569653,1.8592619,9.250651,2.6718853
1409527116040,5.905897,9.432556,3.0921116,1.9063647,9.228627,2.7145202
1409527116046,6.4882865,7.08564,5.853823,1.9763194,9.184719,2.8116696
1409527116067,6.0285997,6.318897,11.431116,2.0634465,9.115006,2.9714043
1409527116068,4.9099092,10.71525,13.321937,2.1705835,9.011794,3.2010183
1409527116085,6.1943984,18.793285,7.1448965,2.2673037,8.910287,3.4112325
1409527116111,2.5390508,18.993202,3.913921,2.3650208,8.880592,3.4222996
1409527116114,-2.546832,15.362395,3.6703112,2.4068127,8.895351,3.3541574
1409527116116,-3.7421372,14.162302,1.2216414,2.3855255,8.932441,3.2697372
1409527116134,-3.3303347,12.54442,0.19273324,2.342544,8.967577,3.2039745
1409527116136,-2.9281087,10.703877,1.4024036,2.2876685,8.984606,3.195909
1409527116138,-2.1110873,10.178948,2.5019407,2.197767,8.997042,3.2238903
1409527116147,-1.7866731,9.312846,1.5741876,2.0892198,9.015529,3.2443497
1409527116163,-1.5394717,8.605359,0.9780314,1.9945427,9.036479,3.245648
1409527116166,-1.198298,8.139688,1.1312603,1.9180394,9.051615,3.249581
1409527116178,-0.39743748,7.685986,1.5047557,1.857688,9.055758,3.2730145
1409527116195,0.59615624,7.501034,1.822586,1.8139509,9.054423,3.301122
1409527116209,1.520318,7.1484876,2.1559787,1.7806728,9.060135,3.3035665
1409527116210,1.9871874,7.4711065,2.4319103,1.7521421,9.071167,3.2885127
1409527116226,2.046444,8.668806,2.5767596,1.7204508,9.096147,3.2358227
1409527116227,1.9710265,10.1161,2.2589293,1.6800568,9.132259,3.1543088
1409527116241,1.5927427,10.881647,1.5251064,1.6261841,9.173974,3.060089
1409527116259,0.6835446,10.601525,0.9995792,1.5530478,9.216901,2.967692
1409527116260,-0.16699557,10.313024,1.1779473,1.4572464,9.258101,2.8869321
1409527116275,-0.8439561,10.462662,1.584363,1.3442576,9.297947,2.8127503
1409527116278,-1.1599907,10.596737,1.7860745,1.2231251,9.337707,2.7352493
1409527116299,-0.8762778,10.409989,1.7298107,1.1057266,9.375414,2.6550655
1409527116302,-0.44651863,9.81922,1.553837,1.0056543,9.406275,2.5847688
1409527116307,-0.37229836,9.100959,1.2802993,0.92545336,9.430897,2.5243046
1409527116326,-0.60214174,8.663419,1.1911154,0.8540828,9.448124,2.4847343
1409527116328,-0.5979519,8.629301,1.6418238,0.78964204,9.46048,2.4588978
1409527116343,-0.45789108,8.846576,1.834557,0.73153454,9.468766,2.4449358
1409527116359,-0.2100912,8.76996,1.3874398,0.67616045,9.473722,2.4416707
1409527116360,-0.14185645,8.1797905,0.8194155,0.61800057,9.476269,2.4471967
1409527116373,-0.12030864,7.1113777,0.4237737,0.5492764,9.477006,2.4607022
1409527116378,-0.20111294,7.025785,0.62728083,0.46777096,9.478264,2.4726696
1409527116393,-0.050278235,7.4854717,1.0720038,0.37625512,9.484411,2.4647026
1409527116411,0.49559975,8.10557,1.6502035,0.28383625,9.497935,2.424677
1409527116412,1.0648212,8.616732,1.9925743,0.19947,9.51707,2.3571138
1409527116434,1.7992426,8.895657,2.1242554,0.1243582,9.536557,2.2823317
1409527116435,2.5462334,8.589199,2.1045034,0.056448303,9.554612,2.2083027
1409527116438,2.717419,7.7703815,2.1051018,-0.005687398,9.565771,2.160179
1409527116465,2.914342,7.4585366,2.1703439,-0.07010624,9.567015,2.1535301
1409527116466,2.806603,7.0952168,2.207454,-0.1379479,9.559261,2.1844602
1409527116467,2.6222494,6.9120603,2.3343468,-0.21095906,9.545846,2.2366748
1409527116479,2.3852234,6.8210807,2.3810337,-0.2879187,9.531354,2.2892747
1409527116502,2.331354,6.8480153,2.3139958,-0.36875367,9.519222,2.3278415
1409527116503,2.5169046,7.2729864,2.2720973,-0.44882807,9.5107355,2.3483717
1409527116507,2.5187001,7.993641,2.569577,-0.5214806,9.504722,2.3576925
1409527116538,2.384625,8.696938,3.2190042,-0.58236635,9.497938,2.370743
1409527116540,2.195483,9.255983,3.5248635,-0.6351603,9.488797,2.3936756
1409527116542,1.7106571,9.458893,3.3608606,-0.67813325,9.476241,2.431334
1409527116577,1.2880806,9.582193,3.0334535,-0.71945435,9.462541,2.4724715
1409527116580,2.0470424,8.956709,1.335366,-0.7651247,9.450327,2.5052526
1409527116582,2.8485014,8.940548,1.9351135,-0.8080683,9.443802,2.5163534
1409527116611,3.1399956,9.23264,3.1381998,-0.8416411,9.439471,2.5215936
1409527116612,2.6737247,9.93474,3.433884,-0.86455196,9.435333,2.529315
1409527116613,1.9440918,10.6637745,3.193865,-0.88130033,9.433125,2.5317736
1409527116614,1.6376339,11.442489,3.2597055,-0.89325136,9.434499,2.5224452
1409527116628,1.0618285,11.415554,3.3931823,-0.89131224,9.439271,2.5052211
1409527116629,0.6380547,11.115082,2.7754784,-0.87509483,9.44606,2.4852643
1409527116638,1.0163386,11.213842,2.0871453,-0.85339975,9.457307,2.4497862
1409527116676,1.7782934,11.687296,2.9670146,-0.8033401,9.474102,2.401338
1409527116681,2.2822728,12.202049,3.5936968,-0.7228463,9.490878,2.3603199
1409527116682,2.1098902,12.285846,2.6940753,-0.6209947,9.507916,2.32041
1409527116710,1.0043676,11.68969,1.2593501,-0.5132349,9.530158,2.2545717
1409527116711,-0.57281274,10.390237,0.2208651,-0.40922743,9.557269,2.1590598
1409527116712,-2.204461,9.287707,0.10055647,-0.30888754,9.583709,2.0560932
1409527116713,-3.1010897,9.039309,0.44532153,-0.20609285,9.606331,1.9612118
1409527116729,-3.819949,10.320805,1.2449849,-0.091977514,9.624928,1.8768805
1409527116730,-3.7301662,13.869012,1.5616181,0.028326442,9.638114,1.8100667
1409527116738,-2.7940333,19.608511,2.098518,0.14561857,9.64781,1.7518431
1409527116774,-2.9861681,19.397224,1.7130513,0.26046565,9.650954,1.72094
1409527116776,-3.0789435,16.792332,1.7328035,0.36372453,9.646146,1.7291526
1409527116779,-2.89459,12.935872,2.4157495,0.4481634,9.63222,1.7860202
1409527116813,-2.0320787,9.511565,3.0705638,0.50781685,9.6083145,1.8954654
1409527116814,-2.204461,7.9822683,3.8977604,0.54997414,9.575036,2.046123
1409527116815,-2.4462755,10.948685,4.5238442,0.57593685,9.5357895,2.215272
1409527116816,-1.6651673,12.04463,3.7481227,0.5923788,9.498096,2.3676252
1409527116818,-0.87328506,9.796474,2.5905263,0.6379195,9.472527,2.4565609
1409527116826,0.018555064,7.645883,2.0524294,0.73594934,9.460307,2.476154
1409527116845,0.7074866,6.712743,2.3397336,0.8711752,9.452122,2.4635084
1409527116847,1.6837224,7.5926123,3.5571852,1.0152129,9.440361,2.4534273
1409527116859,2.3786395,8.016386,4.1940427,1.1770097,9.4190235,2.4631362
1409527116885,2.5390508,7.7350674,3.8833952,1.3461812,9.3886,2.4924617
1409527116886,2.1517887,7.0844426,2.8395233,1.5044018,9.356359,2.5230439
1409527116888,1.520318,5.93762,1.7651252,1.6359075,9.328119,2.5456588
1409527116916,1.2198458,5.194819,1.3263878,1.7391633,9.302891,2.5694187
1409527116917,1.1899183,4.84766,1.3096284,1.8234003,9.276019,2.6078918
1409527116919,1.1761516,4.710592,1.4802152,1.8984352,9.244395,2.6659899
1409527116927,1.1019313,4.988918,1.9147629,1.9701997,9.207946,2.739055
1409527116947,1.0648212,5.142745,2.0272903,2.0400786,9.168678,2.8184757
1409527116948,1.1994951,5.309741,2.047641,2.1080134,9.128604,2.8974576
1409527116958,1.5251064,5.502474,2.1811178,2.1744947,9.089166,2.971371
1409527116973,1.9339164,5.663484,2.3511062,2.2358766,9.051633,3.0396068
1409527116990,2.417545,5.7502737,2.5617957,2.2914054,9.017368,3.099502
1409527116991,2.718616,5.8771667,2.9538465,2.3409414,8.987902,3.1476955
1409527117010,3.1453824,6.201581,3.5703533,2.3819532,8.96464,3.1830714
1409527117013,3.667917,6.692991,4.2155905,2.4134097,8.947489,3.207537
1409527117033,4.088698,7.0826473,4.402937,2.4343529,8.936376,3.2226558
1409527117034,4.449624,7.579444,4.361038,2.4418359,8.932946,3.2264967
1409527117039,4.759074,8.12233,4.2862196,2.4308686,8.939487,3.2166474
1409527117076,4.5962687,8.565256,4.8081555,2.4001653,8.956347,3.1927135
1409527117079,4.3478703,9.06744,5.105635,2.3584545,8.97656,3.1669292
1409527117081,3.709217,9.309255,5.573103,2.2989128,9.002952,3.1356432
1409527117110,3.098097,9.267356,6.1046157,2.2264953,9.030492,3.1085927
1409527117111,2.5366566,9.045893,6.6026096,2.1524959,9.052953,3.0953522
1409527117112,2.381632,11.083957,6.2979474,2.0896835,9.066462,3.0988545
1409527117113,2.1960814,13.646351,5.333683,2.042409,9.074888,3.1056998
1409527117120,3.606865,11.376648,3.311181,2.0096786,9.0812025,3.1085908
1409527117127,4.8781857,10.205285,3.3734303,2.0275464,9.074693,3.115994
1409527117140,5.898116,8.052897,3.3692403,2.086698,9.048411,3.153148
1409527117165,6.537368,5.6604915,4.768651,2.1742668,9.000167,3.2310898
1409527117167,6.3111157,4.3059716,8.157643,2.284962,8.929523,3.348575
1409527117168,5.1810527,6.2991447,11.840525,2.4160812,8.839249,3.4929392
1409527117205,4.3915644,13.302185,11.207857,2.542934,8.736289,3.6580205
1409527117207,4.313154,19.175161,5.249287,2.6432407,8.67258,3.7376516
1409527117208,-0.061052144,15.636531,3.9396589,2.7167099,8.689448,3.6446362
1409527117209,-1.970428,12.984953,3.0172927,2.7277615,8.7262125,3.547242
1409527117220,-1.2683283,13.285425,1.0301052,2.7003617,8.756113,3.4941263
1409527117241,-1.1133038,13.053187,1.6190789,2.652403,8.782363,3.4648612
1409527117245,-1.4137762,13.051392,2.4690206,2.5748365,8.808302,3.4575183
1409527117260,-1.7848774,12.6222315,1.22224,2.467471,8.841685,3.450591
1409527117261,-1.8734628,11.560403,-5.985504E-4,2.3577256,8.886789,3.4112294
1409527117270,-1.8154035,10.778097,-0.044891283,2.2576756,8.934558,3.3536477
1409527117290,-1.9231426,9.843162,0.05327099,2.1649683,8.971381,3.3162668
1409527117291,-1.8171991,8.885481,0.12389994,2.0842907,8.988481,3.321647
1409527117307,-1.1288661,8.080431,0.62967503,2.0169253,8.994442,3.3470016
1409527117308,1.5622166,7.3310456,2.2421699,1.959937,9.003681,3.3560061
1409527117320,2.4486697,7.7530236,2.700061,1.9165685,9.020635,3.3354661
1409527117339,2.9245174,8.602965,3.0358477,1.871298,9.049406,3.282814
1409527117340,2.8233624,9.069236,2.8119898,1.8199667,9.083638,3.2164638
1409527117354,2.3181858,8.845378,2.3906105,1.759393,9.1174,3.1540375
