time,acc_x,acc_y,acc_z,gravity_x,gravity_y,gravity_z
1409350590955,0.66139823,9.384073,2.6461914,0.7744499,9.464141,2.449625
1409350590984,0.7565677,9.428367,2.5330653,0.76935095,9.46247,2.4576755
1409350590985,0.7721301,9.470264,2.5187001,0.7653576,9.461327,2.4633138
1409350590986,0.7697359,9.470264,2.4821887,0.76168686,9.460485,2.4676814
1409350591014,0.78290397,9.426571,2.5121162,0.75755894,9.459963,2.4709542
1409350591016,0.7517793,9.3978405,2.5480292,0.75348353,9.459225,2.4750247
1409350591017,0.7577648,9.416994,2.593519,0.7499036,9.458632,2.4783716
1409350591023,0.7410054,9.471462,2.5492263,0.7470222,9.458756,2.4787633
1409350591045,0.6811504,9.52593,2.5492263,0.7443496,9.459805,2.475566
1409350591046,0.65301853,9.48044,2.5330653,0.741016,9.461264,2.470991
1409350591053,0.6727707,9.433753,2.4612393,0.73741454,9.463278,2.464349
1409350591066,0.7092823,9.441534,2.4510639,0.73382986,9.465463,2.4570098
1409350591083,0.7260417,9.475053,2.4247277,0.73029906,9.467497,2.4502175
1409350591084,0.7188591,9.5798,2.4073699,0.72667485,9.469922,2.4419093
1409350591112,0.6596026,9.7324295,2.3750482,0.7234892,9.472897,2.4312913
1409350591113,0.62608373,9.928755,2.368464,0.7201462,9.476275,2.4190876
1409350591114,0.38486794,10.532692,2.3056161,0.7157953,9.479621,2.4072459
1409350591145,0.27114335,9.796474,2.3546975,0.70798314,9.482402,2.398581
1409350591146,0.4357447,9.457097,2.2463598,0.69619465,9.481845,2.4042315
1409350591146,0.49919105,9.323022,2.1733365,0.6816098,9.479173,2.418904
1409350591153,0.55365914,9.3421755,2.2774844,0.6672889,9.473122,2.4464428
1409350591172,0.5823896,9.392453,2.396596,0.6550471,9.468926,2.4659154
1409350591173,0.6368576,9.422979,2.4690206,0.6453087,9.468202,2.4712603
1409350591181,0.6961141,9.43495,2.4690206,0.63804245,9.468408,2.4723527
1409350591210,0.694917,9.427169,2.4636335,0.63230246,9.468295,2.4742625
1409350591212,0.6147113,9.430161,2.492364,0.62736005,9.467977,2.4767363
1409350591213,0.641646,9.511565,2.4582467,0.6219652,9.468314,2.4768076
1409350591222,0.6631939,9.528923,2.4941597,0.61595196,9.469646,2.473214
1409350591242,0.682946,9.537901,2.4905684,0.6094668,9.471131,2.4691362
1409350591245,0.75357497,9.461885,2.4995465,0.60350525,9.472031,2.4671454
1409350591269,0.830788,9.374496,2.497751,0.5984663,9.47242,2.4668794
1409350591270,0.81522566,9.23683,2.6252422,0.5946001,9.472257,2.46844
1409350591286,0.78410107,9.272144,2.5133133,0.59204423,9.47221,2.4692373
1409350591288,0.7206547,9.604341,2.3678656,0.59231603,9.474213,2.4614701
1409350591300,0.5919664,9.644443,2.393603,0.5953556,9.480397,2.4367988
1409350591301,0.50158525,9.524135,2.31639,0.59886926,9.489971,2.39837
1409350591316,0.43634325,9.488221,2.3187842,0.5991472,9.498498,2.3643074
1409350591332,0.3693056,9.486425,2.3744495,0.59540236,9.504667,2.3403456
1409350591333,0.35553896,9.498397,2.3636756,0.5891164,9.509695,2.3214288
1409350591352,0.42796355,9.548675,2.3624785,0.58190805,9.51404,2.3053894
1409350591353,0.5746084,9.512163,2.4229321,0.5744757,9.517571,2.2926352
1409350591366,0.6781576,9.317036,2.5911248,0.56831676,9.52009,2.283699
1409350591385,0.8050503,9.232041,2.6437972,0.56454456,9.51969,2.2863078
1409350591386,0.770933,9.048286,2.582745,0.5657627,9.517543,2.29492
1409350591399,0.6943185,9.595362,2.5623944,0.57098466,9.516639,2.2973802
1409350591402,0.5626374,9.888652,2.4157495,0.58207643,9.518661,2.2861943
1409350591421,0.36152446,9.838972,2.2589293,0.5958328,9.522549,2.266372
1409350591422,0.2208651,9.712678,2.223615,0.606243,9.527022,2.244705
1409350591435,0.18016368,9.660604,2.119467,0.6096464,9.531771,2.2235272
1409350591465,0.094570965,9.7240505,2.058415,0.6026317,9.536718,2.2041368
1409350591466,0.20171149,9.996989,2.0470424,0.5904976,9.541572,2.1863427
1409350591468,0.17836803,9.737218,2.0171149,0.5799914,9.546579,2.1672113
1409350591496,0.4961983,9.472659,1.9752164,0.56973845,9.551544,2.1479783
1409350591498,0.6901286,9.67856,2.067393,0.56035,9.555513,2.132731
1409350591499,0.57520694,9.731233,2.2451627,0.5504264,9.559286,2.1183686
1409350591502,0.4177882,9.710283,2.2930467,0.5425146,9.562732,2.1048079
1409350591523,0.53689975,9.528324,2.2403743,0.5339822,9.564081,2.1008582
1409350591524,0.5518635,9.279925,2.2762873,0.52233404,9.563085,2.108307
1409350591534,0.62368953,9.295488,2.268506,0.5084728,9.561592,2.1184366
1409350591562,0.79008657,9.357738,2.1254525,0.49560618,9.561552,2.1216788
1409350591563,0.85473,9.901819,2.2361844,0.48597705,9.564536,2.1104198
1409350591564,0.9624691,10.626664,1.963844,0.47957495,9.570332,2.0854626
1409350591590,0.8655039,12.180501,1.6873137,0.47494274,9.57778,2.0520651
1409350591593,0.80804306,12.196662,1.6891093,0.47134033,9.589905,1.9954882
1409350591595,0.7990648,11.96203,1.6136919,0.46976855,9.60404,1.92669
1409350591602,0.6997054,12.093113,1.757344,0.46891516,9.61433,1.8748832
1409350591626,0.7374141,12.00333,2.0649989,0.46563804,9.619609,1.8484306
1409350591627,0.93014735,12.005126,2.2337902,0.45493573,9.621598,1.8407278
1409350591634,0.91697925,11.622053,2.3080103,0.43573156,9.622364,1.8413761
1409350591663,0.7422025,10.497377,2.136825,0.40816754,9.623615,1.8411504
1409350591664,0.66618663,10.338163,1.9494787,0.36696023,9.626943,1.8324119
1409350591665,0.76075757,10.349535,1.7830818,0.31167072,9.63215,1.8151971
1409350591691,0.545878,9.252991,1.6220716,0.25175315,9.636858,1.7994361
1409350591693,0.20470424,9.04709,1.525705,0.18866979,9.640219,1.7891251
1409350591694,-0.033518825,8.710106,1.5490485,0.12121946,9.641237,1.7894729
1409350591702,-0.23762453,7.967903,1.5688007,0.050489977,9.639979,1.7996167
1409350591728,0.0053869537,8.59279,1.4975731,-0.02141323,9.637179,1.8151293
1409350591729,-0.25198972,9.309255,1.5095441,-0.08622487,9.634751,1.8260704
1409350591763,-0.45070848,9.850943,1.560421,-0.142002,9.6332655,1.8304175
1409350591765,-0.62249243,9.043498,1.6400281,-0.19614655,9.632303,1.8304747
1409350591766,-0.6811504,8.480861,1.8243817,-0.25721565,9.629958,1.8352538
1409350591768,-0.84814596,8.034941,2.0171149,-0.32476825,9.624803,1.8515164
1409350591802,-0.90141696,8.075044,1.9895816,-0.38902608,9.61752,1.8767982
1409350591805,-1.103727,8.325836,1.9740193,-0.44702247,9.609975,1.9023528
1409350591806,-1.0833763,8.215105,1.9841946,-0.49013156,9.604122,1.9211967
1409350591807,-0.79367787,8.098388,1.8016368,-0.52013725,9.601369,1.9270653
1409350591826,-0.5758055,8.4664955,1.6226702,-0.54214275,9.602149,1.9170856
1409350591827,-0.50278234,9.431957,1.5035586,-0.5564283,9.605662,1.8952719
1409350591833,-0.34955344,10.149021,1.2234371,-0.56132966,9.611027,1.8664106
1409350591879,-0.18076223,11.306618,1.0977415,-0.5583242,9.617737,1.8324329
1409350591882,-0.002992752,12.109872,1.0953473,-0.54708534,9.625283,1.7958331
1409350591884,0.12389994,11.91295,1.2150574,-0.52708006,9.632789,1.7612393
1409350591886,0.14305355,10.960655,1.365892,-0.50133437,9.639052,1.7342824
1409350591888,0.18854338,9.70789,1.5831659,-0.47227207,9.643372,1.7183565
1409350591908,0.077213004,8.127118,1.5993267,-0.4421791,9.646255,1.7101667
1409350591909,-0.14963761,7.635708,1.6011224,-0.41345456,9.647658,1.709422
1409350591916,-0.1436521,7.3950906,1.6484078,-0.38986677,9.648097,1.7124878
1409350591937,0.02633622,7.088034,1.7106571,-0.37381577,9.647756,1.7179788
1409350591938,0.17776948,7.1047935,1.8549078,-0.3644079,9.646618,1.726369
1409350591942,0.20709845,7.150882,1.9859903,-0.35740885,9.645304,1.7351596
1409350591982,-0.050876785,7.6249337,1.8375498,-0.35474634,9.644313,1.7412037
1409350591983,0.11372458,7.9433627,1.9201498,-0.3636971,9.643988,1.7411604
1409350591984,0.20290859,8.234259,2.0111294,-0.38377574,9.644002,1.7367688
1409350591987,0.29688102,8.754997,1.9446903,-0.4107827,9.644234,1.7292818
1409350592007,0.4333505,9.280524,1.6316484,-0.43639383,9.645117,1.7180467
1409350592008,0.45130703,9.229648,1.447295,-0.45882338,9.6470375,1.7013386
1409350592014,0.09816227,8.350377,1.5508442,-0.47878656,9.650757,1.6745267
1409350592035,-0.006584055,8.788516,1.7902644,-0.5014213,9.655954,1.6375288
1409350592037,-0.45010993,9.862315,1.9123687,-0.52066636,9.662121,1.5945933
1409350592059,-0.98461545,10.59554,1.6915035,-0.5309677,9.668887,1.5495406
1409350592060,-1.3198037,11.302427,1.4951789,-0.5338026,9.676138,1.5025936
1409350592062,-1.3838485,11.443087,0.8882488,-0.5336226,9.68295,1.458118
1409350592087,-1.4862007,11.035474,0.47046062,-0.5275722,9.689517,1.4160979
1409350592088,-1.685518,10.850522,0.29927522,-0.5192086,9.695447,1.3780946
1409350592098,-1.6244658,10.845135,0.30107087,-0.51563627,9.699801,1.3484709
1409350592104,-1.216853,10.6637745,0.6859388,-0.5137021,9.70306,1.3255635
1409350592128,-0.85173726,10.456078,1.1677719,-0.5061343,9.703935,1.3220769
1409350592129,-0.6194997,10.612299,1.5825673,-0.48777738,9.702622,1.3384938
1409350592134,-0.4429273,10.654198,1.6543933,-0.46070027,9.699499,1.3703601
1409350592166,-0.4758476,9.355343,1.584363,-0.42836833,9.69574,1.4069495
1409350592168,-0.6775591,8.738836,1.7968484,-0.39793637,9.692262,1.439481
1409350592169,-0.7942764,8.632893,1.927931,-0.3733283,9.688707,1.4696815
1409350592194,-0.47465047,9.165603,2.0506337,-0.35144728,9.684442,1.5028193
1409350592196,-0.13946225,10.047267,2.2230163,-0.32142714,9.679473,1.5410587
1409350592197,-0.3250129,9.9928,2.2014685,-0.27617082,9.674637,1.579723
1409350592202,-0.56922144,9.362526,1.8746599,-0.2267717,9.67077,1.6109546
1409350592221,-0.5482722,9.167996,1.8118122,-0.1829121,9.66798,1.6331302
1409350592222,-0.23582886,10.076596,1.8004397,-0.14969373,9.667127,1.6415397
1409350592234,-0.14544775,10.611102,1.6819267,-0.12026158,9.6670265,1.6445453
1409350592262,-0.18255788,10.523713,1.5987282,-0.09008768,9.667221,1.6453362
1409350592264,-0.077213004,10.907983,1.520318,-0.06288988,9.668349,1.6399586
1409350592266,-0.2789245,10.772112,1.4041992,-0.0392033,9.670691,1.6268425
1409350592298,-0.6667852,10.109517,1.5897499,-0.021296471,9.673626,1.6096219
1409350592299,-0.6901286,10.263943,1.644218,-0.012829963,9.676142,1.594526
1409350592301,-0.40162733,10.257359,1.4927847,-0.009777298,9.678191,1.5820547
1409350592318,-0.027533319,10.059238,1.4347254,-0.0043228315,9.67992,1.5714679
1409350592319,0.36032736,9.941324,1.5095441,0.004473054,9.68144,1.5620822
1409350592322,0.29149407,9.589376,1.8375498,0.016066462,9.68274,1.5539298
1409350592357,0.077811554,9.4295635,2.0111294,0.024309974,9.68424,1.544439
1409350592358,-0.2124854,9.521142,2.007538,0.027568098,9.686404,1.5307571
1409350592360,-0.36032736,9.703101,2.0566192,0.025966216,9.689017,1.5141602
1409350592363,-0.30825347,10.339958,1.9458874,0.021206163,9.691611,1.4975369
1409350592394,-0.29628247,10.794258,1.8064252,0.014372225,9.694051,1.4817455
1409350592396,-0.31304187,11.1653595,1.6915035,0.0064607207,9.696189,1.4677509
1409350592397,-0.41479546,11.050438,1.6633717,-0.0012079146,9.698214,1.4543173
1409350592416,-0.44232875,10.58297,1.7082629,-0.010061667,9.700024,1.4421605
1409350592418,-0.26874915,10.347141,1.673547,-0.019119127,9.701218,1.4340134
1409350592434,-0.08020575,10.727221,1.5089456,-0.025888767,9.702073,1.4281116
1409350592436,-0.08798691,11.399393,1.3670892,-0.028164603,9.7029085,1.4223814
1409350592458,0.08080431,10.587758,1.4999673,-0.027659284,9.70456,1.4110738
1409350592459,-0.010773907,9.951499,1.8543092,-0.022344518,9.706163,1.4001076
1409350592463,0.08020575,9.747394,1.8872294,-0.012132629,9.707027,1.3942274
1409350592488,0.049679685,9.297882,1.7723078,0.002465221,9.7077465,1.3892502
1409350592489,0.0688333,8.792108,1.5143325,0.015898995,9.7091875,1.3790648
1409350592495,0.21906945,9.129091,1.3437457,0.024234278,9.71188,1.3598504
1409350592528,0.33159694,9.424176,1.2802993,0.025305707,9.715139,1.3363509
1409350592529,0.18195933,9.77792,1.5837644,0.021398177,9.717958,1.3157506
1409350592531,0.39444473,9.734225,1.4838065,0.015087971,9.719701,1.3029239
1409350592536,0.6919243,8.626907,1.4598645,0.012332828,9.721301,1.2909505
1409350592560,0.44352585,6.9108634,1.287482,0.02081044,9.723062,1.2775159
1409350592563,0.27952304,7.1065893,0.9415198,0.040476974,9.725703,1.2567618
1409350592564,-0.21787235,7.925406,1.3982137,0.06651392,9.729649,1.2247183
1409350592594,-0.16998832,9.57561,1.5927427,0.08854426,9.733612,1.1913767
1409350592596,0.091578215,11.5316725,1.0672154,0.10527064,9.736722,1.1642876
1409350592597,0.22266077,12.79641,0.6404489,0.12056407,9.7402115,1.1332033
1409350592624,0.4441244,13.852253,0.4902128,0.13694939,9.744982,1.0894933
1409350592625,0.49559975,14.923059,0.51475334,0.1505214,9.74983,1.0433266
1409350592626,0.2220622,14.383166,1.0737995,0.15747955,9.753433,1.008036
1409350592654,0.5602432,11.68969,1.0450691,0.1548188,9.755476,0.98849785
1409350592655,0.5422867,10.192117,0.9020155,0.1553516,9.756252,0.980712
1409350592656,0.81163436,8.884883,0.99419224,0.16409984,9.757504,0.9667209
1409350592663,0.78410107,8.668806,1.0606314,0.18552667,9.759345,0.9440134
1409350592686,0.44891283,9.692925,1.4089876,0.21051234,9.76121,0.91914725
1409350592687,0.15682021,7.9278,1.3257892,0.2369871,9.762841,0.89508307
1409350592696,-5.985504E-4,7.1107793,1.1109096,0.25894466,9.764981,0.8651538
1409350592722,0.12509704,7.716512,0.49799395,0.2699018,9.767803,0.8292121
1409350592724,0.18794483,8.234857,0.3333926,0.26912734,9.770521,0.7967951
1409350592725,0.0688333,9.25359,0.48961425,0.25697395,9.772466,0.7767133
1409350592758,-0.110731825,9.914988,0.8888474,0.23202012,9.773562,0.7707348
1409350592759,0.11192893,10.289082,0.99179804,0.20002368,9.773989,0.7742957
1409350592772,0.3824737,10.792462,1.0366893,0.16247459,9.77345,0.78973114
1409350592774,0.43394905,10.822391,1.0324994,0.12704554,9.772453,0.80832654
1409350592803,0.19871874,10.314221,1.2066777,0.09693156,9.771732,0.8211393
1409350592804,-0.06703765,10.155605,1.3030443,0.0669526,9.771254,0.8297633
1409350592806,-0.037110128,10.436325,1.134253,0.035129767,9.770894,0.835947
1409350592807,0.12868834,10.168175,0.7954735,0.008963644,9.770954,0.8359242
1409350592817,0.18555063,10.523115,0.7667431,-0.005661387,9.771906,0.824737
1409350592841,0.3274071,10.357317,0.62249243,-0.012416122,9.773532,0.8051865
1409350592845,0.50278234,8.829217,0.26874915,-0.0137634445,9.775424,0.78186935
1409350592846,0.427365,7.294534,0.130484,-0.011837445,9.777395,0.75684243
1409350592868,0.1340753,7.055114,0.46507367,-0.010583938,9.779179,0.7334429
1409350592869,0.026934769,7.8266454,0.99299514,-0.010759879,9.780098,0.72106624
1409350592877,0.06943185,8.741829,1.2964603,-0.009866145,9.779696,0.7265391
1409350592883,-0.08020575,8.614338,1.1234791,-0.00535802,9.778467,0.7429443
1409350592903,0.03172317,8.891466,0.7942764,-0.0020616087,9.777533,0.7551438
1409350592905,0.062249243,8.602366,0.7218518,-0.0017646716,9.777367,0.7573072
1409350592915,-0.015562311,8.882488,0.7823054,-0.0042824997,9.777462,0.75606096
1409350592933,0.002992752,9.4217825,0.88405895,-0.008467385,9.777497,0.7555606
1409350592937,-0.12569559,10.408194,0.770933,-0.011184534,9.777521,0.7552245
1409350592943,-0.18974048,10.717046,0.66858083,-0.012720366,9.777805,0.75151277
1409350592970,0.04249708,10.543466,0.5554548,-0.013254034,9.778309,0.74492115
1409350592972,0.28790274,10.230424,0.6027403,-0.011110008,9.779055,0.7350907
1409350592975,0.23163901,9.595362,0.53929394,-0.0070204004,9.77941,0.7303934
1409350592984,0.4830302,9.181165,0.59855044,-0.0047772974,9.779168,0.733641
1409350593006,0.49440265,8.793902,0.64463884,-0.0019356443,9.778436,0.7433476
1409350593007,0.3357868,8.581417,0.79966336,0.0010074235,9.777457,0.7561147
1409350593015,0.073621705,8.38629,0.9744401,0.0034989482,9.776299,0.770933
1409350593036,-0.076614454,8.040328,1.1426327,0.0037514616,9.775018,0.78702015
1409350593038,-0.19093758,7.789535,1.1593921,0.0029123803,9.773783,0.80220723
1409350593043,-0.2633622,7.727286,1.1941081,9.194529E-4,9.772909,0.81280226
1409350593070,-0.3345897,7.6560583,1.2174516,-0.003421499,9.772427,0.8185592
1409350593070,-0.26755205,7.909844,1.2970588,-0.00886632,9.772125,0.8221429
1409350593075,0.19512744,8.264186,1.4359225,-0.010882921,9.772005,0.8235358
1409350593083,0.095768064,9.270947,1.4664485,-6.482348E-4,9.771712,0.8270494
1409350593108,0.20111294,9.940127,1.5376761,0.02072627,9.771142,0.833513
1409350593110,0.28431144,10.456078,1.3934253,0.05263123,9.770242,0.842617
1409350593117,0.18255788,11.1899,1.347337,0.09037556,9.769113,0.85244685
1409350593146,0.46387658,11.938686,1.0875661,0.13122809,9.767892,0.86108315
1409350593147,0.5967548,12.294226,0.39923313,0.17747751,9.7670555,0.86226803
1409350593148,0.75716627,12.524668,-0.39205053,0.22566754,9.76741,0.84686
1409350593173,0.8110358,12.103288,-0.6787562,0.27381226,9.769377,0.8091414
1409350593174,1.1713632,12.145186,-0.7098808,0.31904608,9.7718725,0.7609803
1409350593177,2.0482395,12.108675,-0.7529764,0.366364,9.773801,0.71342534
1409350593197,2.6581624,11.75972,-1.3628993,0.42175534,9.774313,0.67478025
1409350593198,2.2188265,10.488997,-0.3405752,0.48133507,9.773582,0.64483404
1409350593216,2.5354595,9.853935,0.33399114,0.5231588,9.771153,0.6490391
1409350593217,1.1881226,9.594764,2.010531,0.5466943,9.767081,0.68967974
1409350593223,0.10354923,9.787497,3.0777464,0.53819096,9.761555,0.7699357
1409350593256,0.025139118,8.491036,2.9855695,0.50270724,9.755063,0.86972594
1409350593258,0.074220255,8.342596,1.8495208,0.47181642,9.749518,0.94588155
1409350593259,-0.23044191,8.024766,1.7699136,0.463494,9.747278,0.9726924
1409350593264,-0.23702596,6.281188,0.3345897,0.46370357,9.74587,0.98660517
1409350593295,-0.26755205,8.747814,1.7064673,0.4667004,9.744982,0.99395204
1409350593296,0.050278235,11.542446,1.555034,0.466988,9.742601,1.0168904
1409350593297,0.1412579,12.683284,1.1558008,0.46764353,9.738477,1.055359
1409350593311,0.14963761,12.820352,0.7589619,0.47016048,9.734205,1.0929788
1409350593337,0.08559271,12.421119,0.65421563,0.48439708,9.73201,1.106227
1409350593338,-0.046686932,11.146206,0.7589619,0.48439708,9.73201,1.106227
1409350593339,-0.17956513,10.144831,0.9708488,0.48439708,9.73201,1.106227
1409350593351,-0.25617957,9.888652,1.1384429,0.4802432,9.732056,1.1076368
1409350593376,-0.32321724,9.718064,1.1546037,0.4725959,9.73178,1.1133372
1409350593378,-0.3537433,9.5798,1.1815386,0.4649518,9.73134,1.120366
1409350593389,-0.3585317,9.531916,1.240795,0.45860654,9.730843,1.1272885
1409350593407,-0.2717419,9.606135,1.2479776,0.45277357,9.730264,1.1346178
1409350593407,-0.10414778,9.695918,1.2066777,0.44773063,9.729688,1.1415391
1409350593408,0.062249243,9.766547,1.1773487,0.44454467,9.729187,1.1470377
1409350593426,0.20649989,9.847352,1.1803415,0.44341218,9.728785,1.1508926
1409350593427,0.30466217,9.862315,1.1857284,0.44355157,9.728417,1.1539363
1409350593445,0.34356794,9.813234,1.2174516,0.44484892,9.7280445,1.1565789
1409350593446,0.37110126,9.762956,1.2455834,0.4467463,9.727604,1.1595547
1409350593463,0.44232875,9.746197,1.3132197,0.44942078,9.727114,1.1626158
1409350593465,0.48243165,9.731233,1.3245921,0.45315558,9.726605,1.1654145
1409350593486,0.5315128,9.733028,1.3293805,0.45651802,9.726137,1.168008
1409350593487,0.587178,9.701305,1.353921,0.45915774,9.725737,1.1703053
1409350593495,0.64823014,9.66659,1.3467385,0.46186933,9.725324,1.1726737
1409350593510,0.7398083,9.7084875,1.3221979,0.46510875,9.724906,1.1748575
1409350593515,0.7146692,9.64564,1.347337,0.4696771,9.724478,1.1765754
1409350593527,0.62728083,8.541314,1.2725182,0.47478375,9.724049,1.1780852
1409350593543,0.88765025,8.825027,1.323395,0.47988868,9.723624,1.179512
1409350593544,0.9163807,9.822212,1.3180081,0.48955727,9.722868,1.1817683
1409350593566,0.961272,9.955689,1.3078327,0.5049676,9.721705,1.1848317
1409350593567,0.9840169,9.859921,1.3078327,0.52350307,9.72029,1.1883997
1409350593575,0.9888053,9.844358,1.3443443,0.5429133,9.718815,1.1917624
1409350593600,0.9684546,9.787497,1.3305776,0.5626124,9.717121,1.196417
1409350593602,0.9540894,9.802461,1.3485341,0.58228,9.715295,1.201822
1409350593604,0.8996213,9.844957,1.3599066,0.60181004,9.713325,1.2081226
1409350593616,0.8182184,9.794679,1.3826514,0.6213667,9.711285,1.2145939
1409350593632,0.7392098,9.800066,1.4323312,0.64078563,9.709059,1.2222873
1409350593636,0.6769605,9.862315,1.4796166,0.6597548,9.706771,1.2303362
1409350593644,0.51954174,9.904214,1.5053543,0.6786995,9.704294,1.2395214
1409350593673,0.41000703,9.776723,1.4520833,0.69629943,9.701783,1.2493857
1409350593675,0.40043023,10.199898,1.3916297,0.7121932,9.699513,1.2580122
1409350593677,0.2908955,10.25257,1.2785037,0.7262968,9.697516,1.2653362
1409350593702,0.051475335,9.97604,1.1833342,0.7381533,9.695872,1.2710645
1409350593704,-0.05327099,9.912594,1.1540052,0.7452464,9.694766,1.2753462
1409350593705,-0.061650693,9.866506,1.1246762,0.7492995,9.693955,1.279128
1409350593736,-0.01316811,9.834782,1.1288661,0.7494316,9.693472,1.2827128
1409350593737,0.062249243,9.790489,1.1456255,0.74833417,9.693117,1.2860382
1409350593739,0.11791443,9.7863,1.1510124,0.7467051,9.692999,1.2878642
1409350593745,0.16998832,9.772532,1.1540052,0.7450319,9.69313,1.2878519
1409350593759,0.23702596,9.759365,1.2042835,0.74337715,9.693374,1.2869793
1409350593764,0.3585317,9.7719345,1.2401965,0.74237967,9.693607,1.2857845
1409350593778,0.4818331,9.762956,1.2773066,0.7423279,9.693846,1.2840204
1409350593793,0.641646,9.738416,1.3078327,0.7427152,9.693972,1.282838
1409350593795,0.7721301,9.752781,1.3150153,0.7436828,9.694038,1.2817694
1409350593808,0.91099375,9.759365,1.359308,0.7443208,9.694174,1.2803794
1409350593827,1.0181342,9.762956,1.4203602,0.7455366,9.694249,1.2791
1409350593828,1.0456676,9.793482,1.5382746,0.7462135,9.694243,1.2787387
1409350593845,1.0007763,9.76954,1.5765818,0.7459721,9.694027,1.2805332
1409350593846,0.99299514,9.734824,1.5921441,0.7441595,9.693858,1.2828689
1409350593860,0.98341835,9.718064,1.5813702,0.7416236,9.693627,1.2860645
1409350593865,1.0001777,9.68275,1.5490485,0.7389526,9.693309,1.2900035
1409350593882,1.0241197,9.66659,1.5263035,0.73735774,9.692952,1.2935926
1409350593884,1.0791864,9.640253,1.5029601,0.737,9.692483,1.2973031
1409350593918,1.1085154,9.634268,1.4748282,0.73759884,9.691903,1.3012948
1409350593919,1.0947487,9.634866,1.4796166,0.73820585,9.691443,1.3043659
1409350593920,1.0941502,9.675568,1.460463,0.7385171,9.691051,1.3071126
1409350593924,1.0426749,9.68694,1.4915876,0.73896545,9.690752,1.3090683
1409350593959,0.97384155,9.681553,1.5376761,0.7390286,9.690448,1.3112819
1409350593961,0.91697925,9.690532,1.5598224,0.7383786,9.690174,1.3136662
1409350593969,0.87807345,9.736021,1.5239093,0.73755,9.689876,1.316331
1409350594005,0.8230068,9.745,1.4556746,0.73690265,9.6895895,1.3187965
1409350594006,0.7745243,9.760562,1.4143747,0.73660105,9.689263,1.3213586
1409350594007,0.7182605,9.7719345,1.3772645,0.7364596,9.688902,1.324086
1409350594008,0.63087213,9.745598,1.3521254,0.7358467,9.688651,1.3262609
1409350594009,0.56802434,9.733028,1.3569138,0.73452103,9.688498,1.3281202
1409350594026,0.54288524,9.701305,1.377863,0.7328484,9.68827,1.3307039
1409350594027,0.56443304,9.710882,1.347337,0.7312068,9.68798,1.3337095
1409350594042,0.6159084,9.719262,1.3563153,0.7303014,9.687753,1.3358617
1409350594044,0.6356605,9.742605,1.3628993,0.730458,9.687512,1.3375164
1409350594057,0.64583594,9.759963,1.3742718,0.7317577,9.687211,1.338983
1409350594064,0.60932434,9.776723,1.3814543,0.7336966,9.686948,1.3398305
1409350594080,0.57879823,9.800665,1.407192,0.73587507,9.686736,1.3401608
1409350594084,0.545878,9.814431,1.395221,0.7376114,9.686644,1.3398762
1409350594096,0.5093664,9.798869,1.3736732,0.7385484,9.686643,1.3393729
1409350594113,0.4830302,9.76116,1.3922282,0.7392165,9.686647,1.3389573
1409350594126,0.47764325,9.718663,1.3940239,0.7393051,9.686624,1.3390853
1409350594127,0.4818331,9.698313,1.4197617,0.73911184,9.686545,1.3397546
1409350594149,0.51116204,9.691729,1.4466964,0.7388962,9.686404,1.3408955
1409350594149,0.51235914,9.71986,1.4460979,0.7387422,9.686216,1.3423434
1409350594156,0.56203884,9.777321,1.4107834,0.73833823,9.6861,1.3434055
1409350594175,0.59136784,9.806051,1.3569138,0.73808485,9.686089,1.3436183
1409350594176,0.61052144,9.802461,1.3461399,0.7381202,9.6862955,1.3421097
1409350594193,0.64942724,9.760562,1.3389573,0.73808545,9.686578,1.3400843
1409350594219,0.78769237,9.66659,1.3329718,0.7381655,9.686788,1.3385317
1409350594220,0.7224504,9.702502,1.412579,0.73920304,9.686927,1.3369553
1409350594223,0.75237787,9.70789,1.3916297,0.7383517,9.68723,1.3352216
1409350594225,0.7667431,9.716867,1.3437457,0.73614746,9.687754,1.3326346
1409350594253,0.6835446,9.558251,1.2761095,0.73367727,9.688389,1.3293858
1409350594254,0.712275,9.706693,1.3311762,0.7304241,9.689211,1.3251696
1409350594260,0.7308301,9.696517,1.38325,0.7267118,9.689994,1.3214848
1409350594283,0.56563014,9.493608,1.4041992,0.72306645,9.690559,1.3193349
1409350594285,0.9044097,9.583391,1.353921,0.7184467,9.691011,1.3185335
1409350594287,0.8714894,9.227253,1.4371196,0.71697074,9.691346,1.3168746
1409350594298,0.78050977,9.89344,1.4221559,0.71771836,9.691414,1.3159785
1409350594320,0.78769237,9.96766,1.3820529,0.71894497,9.691514,1.3145629
1409350594322,0.8050503,9.935339,1.423353,0.7199094,9.69165,1.313025
1409350594325,0.7906851,9.817424,1.4377182,0.72150606,9.6917,1.3117782
1409350594351,0.8367735,9.759365,1.460463,0.7227865,9.691721,1.3109348
1409350594352,0.9223662,9.942521,1.5251064,0.724381,9.691636,1.3106664
1409350594356,0.95588505,9.882068,1.5490485,0.7267846,9.691463,1.310615
1409350594386,0.88645315,9.751583,1.543063,0.7297291,9.69133,1.3099726
1409350594388,0.82899237,9.755175,1.4796166,0.73176354,9.691373,1.3085183
1409350594389,0.7739257,9.768343,1.3976152,0.73204297,9.691721,1.3057798
1409350594397,0.6811504,9.7324295,1.3844471,0.73149115,9.692264,1.3020635
1409350594415,0.7068881,9.713276,1.3964181,0.7298796,9.692793,1.2990081
1409350594417,0.7374141,9.673772,1.4586674,0.7279832,9.693319,1.2961527
1409350594425,0.7332243,9.824008,1.5442601,0.72691053,9.6936865,1.2939976
1409350594456,0.81402856,9.737817,1.4951789,0.7258643,9.693899,1.2929987
1409350594458,0.7954735,9.533113,1.4622587,0.7258645,9.6940975,1.2915093
1409350594460,0.7104794,9.446322,1.483208,0.72652185,9.694313,1.2895179
1409350594483,0.39025488,9.223662,1.3838485,0.72664136,9.694609,1.287226
1409350594485,0.533907,9.218275,1.3880384,0.7230153,9.695116,1.285439
1409350594487,0.6344634,9.516952,1.5095441,0.7194497,9.695457,1.2848756
1409350594519,0.54887074,9.245809,1.423353,0.71858025,9.695315,1.2864263
1409350594521,0.641646,9.824607,1.3275849,0.721421,9.694862,1.2882483
1409350594524,0.7422025,10.086173,1.3293805,0.7260256,9.694964,1.2848972
1409350594526,0.8690952,10.146626,1.3401544,0.73367494,9.695154,1.2791028
1409350594562,0.86251116,9.979631,1.3946224,0.7447578,9.694709,1.2760721
1409350594572,0.9056068,9.877279,1.4718355,0.7556883,9.693812,1.2764632
1409350594574,0.9068039,9.8276,1.4760253,0.76610976,9.692683,1.2788165
1409350594610,1.067814,10.0269165,1.4957775,0.7755255,9.6914015,1.2828473
1409350594614,1.1731589,9.706094,1.5358804,0.78497434,9.690199,1.2861867
1409350594616,1.2126632,9.953295,1.5682021,0.7942448,9.689153,1.2883611
1409350594618,1.1701661,9.956287,1.6352397,0.80275464,9.688285,1.289619
1409350594620,1.0097545,9.828796,1.6041151,0.8103996,9.687325,1.2920506
1409350594639,0.9247604,9.808446,1.5747862,0.81560534,9.686505,1.2949129
1409350594641,0.8146271,9.8754835,1.5436616,0.8174296,9.685948,1.2979373
1409350594643,0.76554596,9.8198185,1.4754268,0.81637543,9.685685,1.3005478
1409350594645,0.6979098,9.76954,1.3856442,0.8142945,9.68565,1.3021255
1409350594668,0.6254852,9.7402115,1.3365631,0.8114333,9.685864,1.3023107
1409350594670,0.5422867,9.76954,1.3150153,0.8077628,9.68621,1.3020319
1409350594679,0.5021838,9.702502,1.2653356,0.80312955,9.6866865,1.3013451
1409350594701,0.49200845,9.615712,1.2569559,0.7982012,9.687224,1.3003701
1409350594702,0.40043023,9.658808,1.30484,0.79379827,9.687658,1.2998288
1409350594705,0.362123,9.609129,1.3210008,0.7887378,9.688029,1.3001474
1409350594726,0.3693056,9.660006,1.2641385,0.7836606,9.688323,1.3010265
1409350594727,0.3357868,9.657013,1.2491747,0.7790065,9.688739,1.3007255
1409350594739,0.37349546,9.701305,1.2838906,0.77435374,9.689325,1.2991455
1409350594746,0.41359833,9.716867,1.3012487,0.7711517,9.689852,1.2971178
1409350594762,0.5117606,9.728839,1.2844892,0.76917833,9.6902685,1.295169
1409350594780,0.74639237,9.801263,1.2946646,0.76900035,9.690491,1.2936037
1409350594781,0.82121116,9.800066,1.2844892,0.7715243,9.690472,1.2922517
1409350594785,0.8355764,9.841965,1.2814964,0.7753006,9.690301,1.291265
1409350594811,0.8319851,8.949526,1.3916297,0.7785894,9.690174,1.2902538
1409350594814,0.9283517,9.700109,1.3694834,0.78079444,9.689967,1.2904683
1409350594830,0.94570965,10.268731,1.328782,0.7822873,9.690009,1.2892467
1409350594831,1.0630256,10.353127,1.3305776,0.7843638,9.690103,1.2872874
1409350594836,1.1390414,9.880272,1.3413515,0.78703284,9.690223,1.2847464
1409350594868,1.3084313,9.52174,1.3706805,0.78997856,9.690165,1.2833716
1409350594869,1.4407109,9.3733,1.3670892,0.79302436,9.689833,1.2840041
1409350594871,1.299453,9.276933,1.2826935,0.79540545,9.689422,1.2856325
1409350594877,0.8870517,8.9758625,1.240795,0.7958162,9.6892395,1.286739
1409350594903,0.9911995,9.800665,1.2904748,0.7916846,9.689529,1.2871032
1409350594905,0.6703765,10.011953,1.3215994,0.789666,9.689673,1.2872628
1409350594907,0.5650316,10.659584,1.1587936,0.7880121,9.689616,1.2887188
1409350594936,0.31543607,10.366295,1.0235212,0.78423256,9.690067,1.28762
1409350594938,0.33997664,10.076596,1.0049661,0.77544385,9.691166,1.2846657
1409350594940,0.47465047,9.651626,1.0342951,0.76406336,9.6923895,1.2822546
1409350594957,0.7823054,9.284714,1.5143325,0.753276,9.693153,1.2828712
1409350594958,0.97503865,9.330803,1.6160861,0.74689174,9.692539,1.2912107
1409350594974,0.94930094,9.664794,1.6130934,0.7453817,9.69113,1.3026077
1409350594990,0.8996213,9.886856,1.4454993,0.74540496,9.689866,1.3119717
1409350594991,0.8936358,9.965864,1.3293805,0.7457016,9.68906,1.3177333
1409350595005,0.9588778,9.943718,1.2611457,0.74768096,9.688875,1.3179793
1409350595006,1.0336965,9.801862,1.3210008,0.75162387,9.689172,1.3135499
1409350595022,1.0714053,9.725247,1.4431051,0.7576557,9.689336,1.3088696
1409350595025,0.98222125,9.701305,1.5005659,0.76527566,9.688997,1.306929
1409350595046,0.8924387,9.6288805,1.5131354,0.7720824,9.688392,1.3074329
1409350595048,0.8475474,9.687539,1.471237,0.7768733,9.687867,1.3084762
1409350595057,0.80086046,9.743204,1.3856442,0.7790394,9.687745,1.3080846
1409350595081,0.76075757,9.852738,1.3383588,0.77794576,9.688036,1.3065771
1409350595083,0.7320272,9.92636,1.2354081,0.77484995,9.688456,1.3053075
1409350595086,0.76195467,9.750985,1.1899183,0.77142555,9.688963,1.3035803
1409350595115,0.7194576,9.693524,1.2755109,0.7686913,9.689298,1.3027023
1409350595117,0.5919664,9.858126,1.3880384,0.7661784,9.689312,1.3040643
1409350595118,0.47285482,10.201694,1.3431472,0.762843,9.689054,1.3079443
1409350595126,0.4866215,10.203489,1.2366052,0.75859135,9.688939,1.3112615
1409350595148,0.42078096,9.378687,0.9672575,0.7542365,9.689172,1.312043
1409350595158,0.50038815,9.866506,0.6787562,0.74897057,9.689885,1.3097867
1409350595161,0.7224504,9.5492735,1.0564415,0.7405679,9.691731,1.3008897
1409350595181,0.42078096,9.524733,1.4682442,0.7274827,9.693803,1.2928187
1409350595183,0.20051439,9.631275,1.471237,0.70925945,9.695162,1.2927386
1409350595185,0.079008654,9.71986,1.3102269,0.69080067,9.695931,1.2969664
1409350595213,0.075417355,9.706693,1.1145009,0.6726168,9.696907,1.2992308
1409350595215,0.06823475,9.747394,1.0151415,0.65456617,9.6983385,1.2977573
1409350595220,0.06584055,9.848549,1.0085574,0.6378399,9.700146,1.2925662
1409350595226,0.09876082,9.905411,0.97384155,0.62178695,9.702078,1.2858698
1409350595249,0.18555063,9.824008,0.93134445,0.60640407,9.703979,1.2788544
1409350595250,0.29747957,9.800665,0.94211835,0.59198946,9.705778,1.2719401
1409350595257,0.41838676,9.782109,0.98940384,0.5784002,9.707512,1.264927
1409350595274,0.47764325,9.785701,1.0857705,0.5654278,9.709271,1.2572739
1409350595290,0.533907,9.792884,1.1306617,0.5529685,9.710924,1.2500305
1409350595290,0.5650316,9.82341,1.1737574,0.5412885,9.712494,1.2429361
1409350595306,0.61650693,9.826403,1.1671734,0.53054595,9.713919,1.2363948
1409350595307,0.6937199,9.8276,1.2138603,0.52073157,9.715246,1.2301381
1409350595323,0.7667431,9.91798,1.2593501,0.5122355,9.716319,1.2252176
1409350595325,0.93972415,9.858126,1.2473791,0.50560063,9.717205,1.2209446
1409350595341,1.0570401,9.609129,1.2246342,0.5013789,9.71795,1.2167467
1409350595353,0.7505822,9.674371,1.2425907,0.4968705,9.718686,1.2127029
1409350595357,1.0127473,9.585785,1.4335283,0.48841015,9.719589,1.2088971
1409350595372,1.1007342,9.610924,1.5454572,0.47989643,9.72029,1.2066805
1409350595377,1.0791864,9.6288805,1.5592239,0.4730796,9.720754,1.2056255
1409350595391,1.0845734,9.627684,1.5011644,0.46893415,9.721071,1.204685
1409350595408,1.0384849,9.598354,1.4155718,0.46479982,9.721662,1.2015116
1409350595409,1.0546459,9.590573,1.353921,0.46001086,9.722516,1.1964474
1409350595420,1.1306617,9.3026705,1.2539631,0.45496497,9.723439,1.1908559
1409350595425,1.0833763,8.939949,1.3425486,0.45012555,9.724497,1.1840256
1409350595437,0.5967548,9.057863,1.6370354,0.44317105,9.725415,1.179114
1409350595454,0.350152,10.018537,1.8381484,0.42753568,9.726067,1.179509
1409350595459,-0.130484,11.1970825,1.3084313,0.40371117,9.726539,1.1840063
1409350595472,0.015562311,10.940305,0.39923313,0.37346375,9.728219,1.180114
1409350595489,0.31483752,10.635642,0.62608373,0.3492137,9.731728,1.1584096
1409350595490,0.6123171,10.123882,1.0749966,0.3378342,9.734685,1.1367279
1409350595506,0.6242881,9.620501,1.4161704,0.3386017,9.735228,1.1318548
1409350595506,0.6422446,9.173384,1.513734,0.3418879,9.734037,1.1410698
1409350595521,0.39983168,9.184756,1.6531962,0.34496948,9.7324915,1.1532483
1409350595525,0.25498247,9.5570545,1.5771804,0.34412763,9.73096,1.1663538
1409350595538,0.092176765,9.859323,1.38325,0.33935383,9.72993,1.1763147
1409350595553,0.015562311,9.909002,1.2551602,0.3311809,9.729613,1.1812497
1409350595557,0.093972415,9.843162,1.1971009,0.321746,9.729902,1.1814877
1409350595569,0.23702596,9.69951,1.2138603,0.31378612,9.730385,1.1796465
1409350595586,0.29747957,9.591172,1.2904748,0.308564,9.730646,1.1788614
1409350595586,0.35254622,9.5809965,1.3640964,0.30510026,9.730613,1.1800311
1409350595614,0.41000703,9.661202,1.3892355,0.30317748,9.730402,1.1822721
1409350595616,0.43754035,9.7479925,1.4161704,0.30298635,9.730156,1.1843431
1409350595618,0.43514615,9.806051,1.3587095,0.3042096,9.730014,1.1852006
1409350595626,0.45429978,9.847352,1.2599486,0.30585414,9.730001,1.1848773
1409350595649,0.46686932,10.023924,1.2060791,0.30841172,9.730225,1.1823785
1409350595650,0.4189853,9.870695,1.1444284,0.31209275,9.730666,1.1777719
1409350595657,0.30705637,9.441534,1.1336545,0.31538916,9.73115,1.1728811
1409350595670,0.3321955,9.531317,1.1737574,0.31659824,9.731586,1.1689368
1409350595688,0.29269117,9.636064,1.2611457,0.318392,9.731861,1.1661452
1409350595688,0.31902736,9.603742,1.3491327,0.32199162,9.731868,1.1650913
1409350595713,0.37110126,9.572019,1.3347675,0.32647637,9.731736,1.1649562
1409350595715,0.6937199,9.394848,1.1821371,0.33118618,9.731746,1.1635346
1409350595718,0.504578,9.6049385,1.1438298,0.33903265,9.7321005,1.1583055
1409350595726,0.50397944,9.68275,1.1677719,0.34441885,9.732706,1.1516163
1409350595746,0.5201403,9.596559,1.1390414,0.34825844,9.733529,1.143468
1409350595751,0.56802434,9.556456,1.2467805,0.35021147,9.734688,1.1329514
1409350595784,0.5153519,9.631275,1.2150574,0.35381696,9.735905,1.1213322
1409350595787,0.3465607,9.725247,0.9935937,0.35771015,9.737271,1.1081483
1409350595788,0.219668,9.776124,0.9283517,0.3599369,9.738997,1.0921447
1409350595791,0.57281274,9.68694,0.9175778,0.35984045,9.740934,1.074754
1409350595812,0.110731825,9.776124,0.78529817,0.361288,9.742843,1.0568285
1409350595814,-0.39624038,9.882666,0.7457938,0.35465193,9.745376,1.0355034
1409350595820,-0.21667525,9.941324,0.97144735,0.33588892,9.748709,1.0100743
1409350595843,-0.142455,9.836577,0.83258367,0.31664398,9.751872,0.9854554
1409350595846,-0.18375498,9.844358,0.5919664,0.30022344,9.754855,0.9607529
1409350595867,-0.10115502,9.866506,0.5686229,0.28702742,9.757792,0.9346119
1409350595868,0.30406362,9.671378,0.6302736,0.27498016,9.760747,0.9069699
1409350595870,-0.12449849,9.76535,0.53450555,0.26612902,9.763403,0.8806471
1409350595896,-0.30047232,9.949105,0.4770447,0.25040057,9.766253,0.85323596
1409350595898,0.22445641,9.957485,0.50757074,0.22807957,9.769325,0.82380414
1409350595899,0.32321724,10.028712,0.56922144,0.21251711,9.771978,0.79603875
1409350595906,0.338181,10.033501,0.49799395,0.20458646,9.774027,0.77261055
1409350595926,0.3549404,9.993398,0.5033809,0.2010409,9.7756815,0.7523568
1409350595927,0.39983168,9.960478,0.52492875,0.19824207,9.777138,0.73394793
1409350595939,0.42676646,9.987412,0.5931635,0.19599311,9.778423,0.7172446
1409350595966,0.4297592,10.043676,0.61411273,0.1941922,9.779552,0.7021698
1409350595967,0.39504328,10.068216,0.52732295,0.19293037,9.780529,0.6887755
1409350595969,0.3693056,10.181343,0.5315128,0.19148909,9.781498,0.67531276
1409350595994,0.35314476,10.17835,0.6500258,0.18931583,9.78238,0.66300625
1409350595996,0.35075054,10.120291,0.7164649,0.18610944,9.783065,0.6537527
1409350596000,0.43394905,10.122087,0.7200562,0.18251462,9.78352,0.64794314
1409350596006,0.50038815,10.1143055,0.729633,0.17904022,9.783823,0.64431673
1409350596024,0.5279215,10.071808,0.7044938,0.17527561,9.7840395,0.64206517
1409350596042,0.5746084,10.006566,0.7679402,0.17078312,9.784165,0.64137775
1409350596045,0.56982,9.983821,0.85173726,0.16579701,9.784193,0.642223
1409350596047,0.51235914,9.980828,0.96665895,0.15932883,9.784187,0.64396775
1409350596073,0.43155485,9.970653,1.1671734,0.15159956,9.784041,0.6480548
1409350596074,0.33399114,9.898827,1.3210008,0.14201486,9.783648,0.6561223
1409350596087,0.17477672,9.913192,1.1893197,0.13133535,9.783057,0.6670289
1409350596088,0.06404489,9.92636,1.0420763,0.11895006,9.782442,0.6783044
1409350596110,-0.03232172,9.849746,0.89543146,0.10583617,9.7817545,0.6902783
1409350596112,-0.05805939,9.818622,0.85413146,0.09267668,9.780905,0.70406073
1409350596120,0.10354923,9.694721,0.7727286,0.080132104,9.779729,0.7217121
1409350596142,-0.031124622,9.76116,0.74639237,0.06969693,9.7783375,0.7413778
1409350596145,0.11432313,9.631873,0.6847417,0.05806655,9.776931,0.76069856
1409350596147,0.19632454,9.598354,0.676362,0.04700155,9.775601,0.77832305
1409350596158,0.33039984,9.575011,0.7398083,0.037429713,9.77431,0.79489774
1409350596171,0.47165772,9.512163,0.7320272,0.032181438,9.773085,0.8100345
1409350596189,0.59136784,9.465476,0.6997054,0.030946635,9.772005,0.823022
1409350596190,0.6691794,9.443929,0.60333884,0.03297807,9.771183,0.83263683
1409350596213,0.7009025,9.448717,0.4914099,0.036783013,9.770844,0.83644444
1409350596215,0.6500258,9.485827,0.40342298,0.041465178,9.771062,0.83369017
1409350596218,0.5650316,9.535507,0.350152,0.046380788,9.771764,0.82516897
1409350596242,0.516549,9.645041,0.3489549,0.05048647,9.772871,0.8116899
1409350596245,0.46986207,9.798869,0.34237084,0.05369462,9.7743025,0.7940455
1409350596247,0.40521863,9.903615,0.30765492,0.055916753,9.7758665,0.774405
1409350596258,0.3890578,9.97185,0.31184477,0.056728143,9.777365,0.7551894
1409350596269,0.30526072,10.060435,0.25558102,0.05694953,9.778752,0.73698276
1409350596286,0.26635495,10.085575,0.3321955,0.055580214,9.779912,0.7215473
1409350596287,0.23702596,10.079589,0.47644615,0.053473085,9.780725,0.71058226
1409350596312,0.20530279,10.077793,0.52732295,0.050969873,9.781167,0.7046751
1409350596313,-0.031124622,9.9951935,0.4297592,0.04798311,9.781298,0.70307875
1409350596318,0.18734628,10.006566,0.6739678,0.042579863,9.781218,0.7045219
1409350596341,0.08020575,9.872491,0.6536171,0.038968615,9.78066,0.71242934
1409350596347,-0.04129998,9.835381,0.65182143,0.034597777,9.779781,0.7246236
1409350596349,-0.1388637,9.812037,0.6452374,0.028191052,9.778779,0.73830086
1409350596375,-0.22685061,9.694721,0.62488663,0.020163668,9.777813,0.7512334
1409350596376,-0.03232172,9.671378,0.6961141,0.011167657,9.776863,0.7636995
1409350596378,-0.094570965,9.604341,0.7009025,0.0036414983,9.775957,0.7752684
1409350596386,-0.107140526,9.639056,0.599149,-0.0049709934,9.775241,0.7842425
1409350596407,-0.22565351,9.645041,0.5243302,-0.016127544,9.774914,0.7881641
1409350596409,-0.20231004,9.7324295,0.40761283,-0.03166114,9.775012,0.78645784
1409350596426,0.17118542,9.794081,0.62728083,-0.046917748,9.775494,0.77970606
1409350596427,0.06284779,9.762358,0.6015432,-0.056484323,9.776057,0.77195233
1409350596438,0.02633622,9.772532,0.6667852,-0.0657685,9.77676,0.7622686
1409350596455,0.011971008,9.729437,0.7410054,-0.07672047,9.777522,0.751383
1409350596467,-0.033518825,9.623494,0.6422446,-0.087861024,9.778135,0.7421353
1409350596468,0.008978256,9.545084,0.5554548,-0.099379756,9.7786045,0.73444706
1409350596484,0.05207389,9.483433,0.5189432,-0.110451624,9.779049,0.726912
1409350596486,0.0724246,9.41041,0.51954174,-0.12067009,9.779439,0.7200088
1409350596501,0.11971009,9.397242,0.5943606,-0.1301533,9.779764,0.71393156
1409350596506,0.05267244,9.464279,0.5907693,-0.13898726,9.779966,0.70945764
1409350596518,0.17477672,9.698313,0.60094464,-0.1476422,9.780179,0.7047966
1409350596534,0.28072014,9.766547,0.6560113,-0.15417495,9.780481,0.69916415
1409350596540,0.28491,9.831191,0.6392518,-0.15826507,9.780746,0.69453067
1409350596562,0.39264908,9.849746,0.5919664,-0.16063875,9.780926,0.6914269
1409350596564,0.5835867,9.825804,0.38307226,-0.16183409,9.781226,0.6868974
1409350596567,0.39025488,9.812037,0.30705637,-0.16135392,9.781845,0.67814946
1409350596590,0.19393034,9.828796,0.30526072,-0.16398828,9.782574,0.6668904
1409350596592,0.4758476,9.844358,0.2837129,-0.16982655,9.78329,0.6548399
1409350596602,0.59256494,9.901221,0.2908955,-0.17366387,9.784104,0.641521
1409350596606,0.6015432,10.001778,0.23942018,-0.17389081,9.784925,0.62880296
1409350596619,0.4417302,10.0748005,0.20649989,-0.17365023,9.785702,0.6166846
1409350596635,0.1400608,10.0664215,0.16460137,-0.17647472,9.786368,0.60515374
1409350596638,-0.5315128,10.023924,-0.014963761,-0.18419886,9.786912,0.59395957
1409350596662,-0.85772276,9.953295,-0.13826515,-0.19987902,9.787351,0.5815502
1409350596663,-1.0821792,9.959879,-0.29688102,-0.21952297,9.787696,0.56853056
1409350596667,-1.0540473,10.006566,-0.34117374,-0.2419814,9.788054,0.5530162
1409350596691,-0.78769237,10.053851,-0.27234045,-0.2641578,9.788458,0.5354676
1409350596692,-0.60453594,9.982624,-0.20051439,-0.28380796,9.7888565,0.51781684
1409350596698,-0.44113165,9.811439,-0.06584055,-0.3017325,9.789287,0.49919632
1409350596717,-0.22744916,9.631873,-0.025139118,-0.31869087,9.789694,0.48032677
1409350596720,-0.08439561,9.537302,0.090381116,-0.33443472,9.790094,0.46111706
1409350596736,-0.026934769,9.476251,0.40462008,-0.3490936,9.790445,0.44241762
1409350596738,-0.0077811554,9.378088,0.47764325,-0.3636646,9.790546,0.4282038
1409350596759,0.207697,9.415796,0.45968673,-0.37980115,9.790405,0.41727674
1409350596760,0.44891283,9.52593,0.54288524,-0.39314854,9.790433,0.40403908
1409350596767,0.6302736,9.543288,0.5650316,-0.40148965,9.790701,0.38907766
1409350596791,1.0217255,9.539098,0.4189853,-0.40733877,9.791093,0.37277943
1409350596792,0.6775591,9.542689,0.4225766,-0.41166234,9.791691,0.35177523
1409350596798,0.5943606,9.620501,0.3669114,-0.42095426,9.792076,0.32930094
1409350596818,0.84216046,9.650429,0.39145198,-0.43693545,9.792174,0.3046353
1409350596819,1.0295067,9.639056,0.45729253,-0.45294884,9.792152,0.28107086
1409350596836,1.1198878,9.703699,0.4794389,-0.4651823,9.792128,0.26119536
1409350596860,1.1372458,9.725846,0.4261679,-0.47547042,9.792051,0.2450684
1409350596862,0.7146692,9.7719345,0.4938041,-0.4861385,9.791856,0.23158582
1409350596863,0.7589619,9.787497,0.46208093,-0.5009637,9.79132,0.22245443
1409350596867,0.9540894,9.688736,0.5494693,-0.5166887,9.7906065,0.21778351
1409350596892,1.0708067,9.604341,0.6811504,-0.52838194,9.789969,0.21844344
1409350596895,1.1599907,9.606135,0.7422025,-0.53421855,9.789533,0.22366145
1409350596900,1.2240356,9.677961,0.75118077,-0.53669024,9.789208,0.23187517
1409350596920,1.1815386,9.813234,0.7727286,-0.53790396,9.788916,0.24120238
1409350596920,1.09834,9.922769,0.7212533,-0.5381736,9.788606,0.2529314
1409350596940,0.9840169,9.973047,0.6572084,-0.5387077,9.788202,0.26702422
1409350596942,0.8499416,10.032902,0.5823896,-0.54093075,9.787595,0.28421032
1409350596947,0.61052144,10.08737,0.5470751,-0.546081,9.786688,0.30487436
1409350596973,0.33399114,10.083779,0.5530606,-0.5566208,9.78531,0.32907063
1409350596974,0.15622166,10.033501,0.53570265,-0.5752643,9.783278,0.35623452
1409350596979,-0.090979666,9.959281,0.3489549,-0.60148025,9.780647,0.3841735
1409350596987,-0.24001873,9.858724,0.39624038,-0.63588053,9.777393,0.4106629
1409350597012,-0.6003461,9.788095,0.20829555,-0.67772156,9.773411,0.4376368
1409350597014,-0.82240826,9.627085,0.093972415,-0.72955626,9.768515,0.46290568
1409350597021,-1.0456676,9.609129,-0.32561144,-0.7859165,9.763005,0.48624682
1409350597043,-0.878672,9.714474,-0.52612585,-0.84871984,9.756806,0.5047662
1409350597045,-0.5662287,9.973047,-0.7015011,-0.912877,9.7502365,0.5195529
1409350597048,-0.14664486,10.330381,-0.7739257,-0.975696,9.743604,0.529723
1409350597086,0.2789245,10.9187565,-0.676362,-1.0338473,9.73731,0.5351152
1409350597089,0.52971715,11.568184,-0.52612585,-1.0838666,9.731767,0.5369652
1409350597091,0.7314286,12.191275,-0.25977087,-1.124974,9.727103,0.536912
1409350597093,0.99419224,12.577939,0.29688102,-1.1570348,9.723217,0.5391659
1409350597114,1.1432313,12.716803,0.79128367,-1.1794596,9.720016,0.54823303
1409350597115,1.429937,12.620436,1.0600328,-1.1960205,9.717096,0.5638859
1409350597119,1.2270284,12.567164,1.0510546,-1.2082005,9.714374,0.5844827
1409350597146,1.0151415,12.760496,1.3018472,-1.2203789,9.711399,0.6081243
1409350597147,1.1444284,12.749125,1.6771383,-1.2292832,9.708554,0.6350275
1409350597147,1.1294646,12.4869585,1.8369513,-1.2308651,9.706324,0.6653309
1409350597170,1.1432313,12.214619,1.8537107,-1.2282172,9.70469,0.69345516
1409350597171,0.9259575,11.948263,1.7687165,-1.2234703,9.703882,0.7128712
1409350597183,0.6931214,11.799225,1.6496049,-1.2171694,9.703907,0.7232529
1409350597187,0.43634325,11.701661,1.4508862,-1.2066303,9.704832,0.7284838
1409350597201,0.12569559,11.544242,0.53929394,-1.1909757,9.706635,0.7302064
1409350597214,-0.6087258,10.74817,0.17836803,-1.171585,9.709605,0.72203827
1409350597219,-0.86610246,9.960478,-0.15203181,-1.153232,9.712597,0.7112714
1409350597232,-1.1845313,9.050681,-0.43514615,-1.1347041,9.715762,0.6977169
1409350597259,-1.5598224,8.086416,-0.25797522,-1.1083186,9.719599,0.6865946
1409350597261,-2.32058,7.393295,0.110133275,-1.0731609,9.723791,0.68310386
1409350597263,-2.4636335,7.1125746,0.37349546,-1.0322307,9.727806,0.68895084
1409350597267,-2.7419596,7.2388687,0.32561144,-0.9823757,9.73203,0.70210606
1409350597290,-3.0747535,7.577648,0.6063316,-0.923999,9.736437,0.72002226
1409350597292,-2.9227216,8.333617,0.9684546,-0.85889,9.740433,0.74610597
1409350597299,-2.6515784,9.217078,1.2024878,-0.78380513,9.743911,0.78247666
1409350597328,-2.565387,9.849746,1.42455,-0.6926333,9.747115,0.82729024
1409350597330,-2.4774003,10.677541,1.7046716,-0.588106,9.749459,0.87897074
1409350597331,-2.6144683,11.034277,1.8698715,-0.47517547,9.750331,0.9357634
1409350597364,-2.5767596,11.300632,1.8429368,-0.3637116,9.749111,0.9964643
1409350597366,-2.4067712,11.604097,1.6490064,-0.2539864,9.746063,1.0583669
1409350597367,-2.1888988,11.863868,1.3994108,-0.14677651,9.741805,1.1162825
1409350597369,-2.2284033,11.65677,0.9552865,-0.03957849,9.737209,1.1642957
1409350597391,-2.2451627,11.051635,0.40162733,0.06566278,9.733304,1.1953677
1409350597393,-1.5065514,9.497798,0.12509704,0.17054135,9.730147,1.2105893
1409350597399,-0.8026561,9.005191,0.2861071,0.28549898,9.726127,1.2212106
1409350597429,0.049679685,9.1255,0.6889315,0.40947703,9.719915,1.2352965
1409350597431,0.801459,9.479841,1.1444284,0.5419046,9.71062,1.2572254
1409350597432,1.1091139,9.329605,1.5424645,0.6803917,9.69769,1.2892904
1409350597479,1.2132617,8.658031,1.8267759,0.81885904,9.68168,1.3285172
1409350597480,1.0247183,7.8182654,1.9674352,0.95047116,9.662517,1.3794056
1409350597482,0.7493851,7.029376,2.0961237,1.0681995,9.6414,1.439702
1409350597484,0.57640404,6.4924765,2.1577742,1.1721543,9.61905,1.5067589
1409350597486,0.4381389,5.8693852,2.0530279,1.2653911,9.596071,1.5762633
1409350597490,0.3274071,5.3761797,1.903989,1.3532757,9.572924,1.64262
1409350597508,0.4321534,5.28939,1.8842367,1.4386315,9.550262,1.7009517
1409350597509,0.5470751,5.315128,1.9195513,1.5244503,9.528148,1.7495232
1409350597526,0.7835025,5.41329,1.882441,1.6109242,9.507066,1.7863405
1409350597556,1.0857705,5.6335564,1.8614918,1.6981761,9.487458,1.8096179
1409350597557,1.5376761,6.000468,1.6944963,1.7838562,9.469603,1.8206811
1409350597558,2.1410148,6.6534867,1.3826514,1.8691514,9.4521,1.8260592
1409350597561,2.6970682,7.3992805,1.0977415,1.9499358,9.436258,1.8235031
1409350597567,3.0101101,7.961918,1.039682,2.0225763,9.422075,1.817717
1409350597590,3.1908724,8.220491,1.6106992,2.080412,9.410119,1.8143781
1409350597591,3.269881,8.070255,2.110489,2.119334,9.400128,1.8211002
1409350597600,3.4410665,7.9990277,2.731784,2.138188,9.392836,1.8366239
1409350597633,3.70802,8.175002,3.3722332,2.1408536,9.387941,1.8584102
1409350597635,3.8857894,8.525752,3.9013517,2.1326125,9.384724,1.8839667
1409350597637,4.1060557,9.178771,3.9211037,2.1172733,9.382575,1.9117619
1409350597670,4.281431,10.064626,3.614646,2.1003952,9.381547,1.9352819
1409350597673,4.1611223,10.749367,3.2309752,2.0850077,9.381556,1.9518069
1409350597676,3.7989995,11.279683,2.9173348,2.072501,9.38298,1.9582641
1409350597679,3.582923,11.777677,2.5037365,2.0649216,9.3845005,1.9589907
1409350597704,3.7427359,12.243947,1.9806033,2.0696046,9.385183,1.9507612
1409350597706,3.945046,12.240356,1.6106992,2.0949275,9.38404,1.9291122
1409350597707,4.050989,11.542446,1.567005,2.140778,9.3797655,1.8993274
1409350597708,4.1695023,10.667964,2.178125,2.2006972,9.371164,1.8731227
1409350597720,4.2718544,9.657611,3.3051953,2.2668326,9.356608,1.8670162
1409350597732,4.1054573,9.332599,4.960786,2.334771,9.335076,1.890922
1409350597763,3.3674448,11.288062,7.442376,2.3984842,9.307758,1.9450755
1409350597764,2.7162218,16.00045,8.225879,2.4440112,9.276224,2.0368776
1409350597766,1.8010383,18.38268,4.337695,2.4560525,9.248436,2.1458383
1409350597768,-1.8507179,15.345037,-0.86969376,2.4505694,9.239661,2.1894693
1409350597794,-2.272696,13.700819,-2.2469583,2.4207478,9.25491,2.1580098
1409350597796,-2.1278467,11.589732,-1.910573,2.3849473,9.280107,2.0885506
1409350597800,-2.0290859,9.908403,0.093373865,2.3396878,9.303515,2.034903
1409350597825,-1.7411832,9.144054,1.7106571,2.2721188,9.322278,2.0255823
1409350597826,-1.5095441,8.673594,2.52289,2.1903994,9.339013,2.0384705
1409350597828,-1.3958195,8.1163435,2.8526914,2.1132524,9.354541,2.048688
1409350597860,-1.2360066,7.9146323,2.7766755,2.0472457,9.3695,2.0473487
1409350597863,-1.1013328,7.8942814,2.297835,1.9898288,9.384888,2.033437
1409350597864,-0.8098387,7.8637557,1.7687165,1.9380969,9.401042,2.0086365
1409350597868,-0.18495208,7.9565306,1.4891934,1.888443,9.419784,1.9677064
1409350597891,0.5943606,8.093599,1.2114661,1.8351114,9.44198,1.9109658
1409350597892,1.0839748,8.665813,0.94092125,1.7785007,9.466469,1.8420875
1409350597900,1.483208,9.634866,0.88286185,1.7199807,9.49192,1.7650802
1409350597920,1.75076,10.438121,0.6488287,1.6596513,9.516668,1.6878976
1409350597922,1.6262615,10.738593,0.12210429,1.5976982,9.53966,1.6163667
1409350597928,1.1965023,10.782886,-0.29508537,1.5320337,9.561548,1.5492145
1409350597956,0.6003461,10.82658,-0.31663316,1.4586912,9.583229,1.4847066
1409350597958,-0.7733272,10.88823,0.18555063,1.3737023,9.604955,1.4241408
1409350597960,-1.1480197,10.171766,0.20709845,1.2738433,9.625834,1.3751463
1409350597968,-1.1294646,9.487024,0.12689269,1.173253,9.644494,1.3332704
1409350597992,-0.8331822,8.796297,0.15083471,1.0794563,9.659709,1.3020039
1409350597995,-0.5386954,8.537724,0.5021838,0.9952777,9.671577,1.2807857
1409350597999,-0.48722005,8.541314,0.8559271,0.9212897,9.680556,1.2682371
1409350598017,-0.7457938,8.561067,0.9032126,0.8550325,9.686987,1.2655548
1409350598021,-1.2306197,8.451532,0.6655881,0.7912157,9.69155,1.2721044
1409350598037,-1.6166847,8.179192,0.3537433,0.72157884,9.695919,1.2801807
1409350598043,-1.8148049,8.176797,0.12629414,0.642314,9.701796,1.2778853
1409350598048,-1.9446903,8.424597,0.016759412,0.5514841,9.710026,1.2576468
1409350598064,-1.7836803,8.689755,-0.14185645,0.45030367,9.719775,1.2221266
1409350598068,-1.5358804,8.754997,-0.25977087,0.3429653,9.729711,1.1770751
1409350598081,-0.9935937,8.881291,-0.2088941,0.23640901,9.738519,1.1295085
1409350598113,-0.108337626,9.029732,5.985504E-4,0.13459085,9.745606,1.0841935
1409350598116,0.66259533,9.165004,0.4309563,0.048852585,9.750007,1.0513818
1409350598119,0.9115923,9.130887,0.92775315,-0.01821867,9.751245,1.0408067
1409350598154,0.91458505,9.537901,1.3982137,-0.07400895,9.749208,1.0572932
1409350598156,0.8283938,9.562442,1.5316905,-0.12549277,9.7441435,1.098333
1409350598157,0.9020155,8.961497,1.1216835,-0.17622809,9.737005,1.1532798
1409350598159,0.8834604,8.781932,0.6560113,-0.22868147,9.729204,1.2085978
1409350598163,1.0642227,8.599374,0.18136078,-0.28429332,9.721691,1.2563094
1409350598168,1.4269443,8.704719,-0.010773907,-0.34161112,9.715121,1.2923194
1409350598184,1.7782934,8.867524,0.27832595,-0.39620253,9.709041,1.3220886
1409350598197,2.0937295,9.293094,0.7870938,-0.44672495,9.703137,1.3490479
1409350598200,2.1859062,9.7162695,1.2868834,-0.4887807,9.696777,1.3798604
1409350598214,2.0787656,10.101735,1.9620483,-0.52401555,9.689708,1.4161054
1409350598234,1.8590976,10.336368,2.4534583,-0.5562599,9.681636,1.4583809
1409350598235,1.3958195,10.372879,2.415151,-0.58995837,9.672231,1.5067496
1409350598248,0.8774749,10.13705,2.03567,-0.6288557,9.661791,1.5571488
1409350598249,0.8038532,9.6049385,1.5215151,-0.67436564,9.650959,1.6045663
1409350598260,1.3263878,8.93935,1.4024036,-0.72086257,9.6406,1.6460885
1409350598271,2.2571337,8.631696,1.3796587,-0.75998837,9.631364,1.6821482
1409350598292,2.6018987,8.932767,1.5598224,-0.782543,9.624299,1.7119904
1409350598294,2.5611973,9.532514,1.6938977,-0.79531324,9.618133,1.7405186
1409350598300,1.9422961,10.089166,1.7178397,-0.7942295,9.613455,1.7666526
1409350598323,1.352724,10.700286,1.8411411,-0.78929394,9.610071,1.7871658
1409350598325,1.0851719,10.916962,2.4013844,-0.7811213,9.609193,1.7954526
1409350598329,0.7667431,10.210671,1.9716251,-0.765299,9.611464,1.7901053
1409350598372,1.0570401,10.119692,2.60968,-0.7377748,9.617859,1.7671728
1409350598374,1.5239093,10.142437,3.3836055,-0.68349934,9.625818,1.7455268
1409350598377,1.1085154,9.898827,2.3265655,-0.60526127,9.63452,1.7262943
1409350598379,-0.0035913025,9.46847,0.93254155,-0.52245015,9.647049,1.6828233
1409350598382,-1.5622166,9.161413,0.1412579,-0.44714358,9.663537,1.6082647
1409350598405,-2.8449101,9.157223,-0.2753332,-0.38576165,9.681414,1.5138767
1409350598406,-3.572149,10.0748005,-0.7422025,-0.33790472,9.69845,1.4129127
1409350598408,-4.1042604,12.360066,-1.1258733,-0.3021222,9.715042,1.3027309
1409350598434,-4.7141833,15.286978,-1.4239515,-0.28190508,9.730543,1.1863685
1409350598435,-4.941034,17.569849,-1.6927006,-0.27942404,9.743493,1.075484
1409350598462,-5.032612,18.132486,-1.70946,-0.28980523,9.752915,0.98338443
1409350598463,-5.403713,17.452534,-0.6937199,-0.30799592,9.758517,0.9202707
1409350598465,-4.606444,16.312294,0.8158242,-0.33516675,9.758797,0.9077076
1409350598491,-3.7098155,14.070125,2.0272903,-0.34357685,9.753917,0.9557512
1409350598492,-3.0292637,12.126033,3.1836896,-0.3219874,9.744945,1.0501205
1409350598494,-3.4584243,10.714052,4.1012673,-0.283951,9.732641,1.1685423
1409350598500,-3.9270895,9.572617,4.373009,-0.2494022,9.717906,1.2924808
1409350598522,-3.6415808,8.989629,3.8923733,-0.21603198,9.703838,1.3997376
1409350598523,-2.6198552,6.6870055,2.6557682,-0.16530886,9.694242,1.4713024
1409350598529,-2.168548,6.1967926,2.544438,-0.07926965,9.691114,1.498803
1409350598564,-1.1504139,6.666056,2.4145525,0.024665436,9.6912565,1.4997833
1409350598566,-0.06823475,7.2670007,2.1230583,0.14118886,9.691927,1.4889567
1409350598569,0.9127894,7.8793178,1.6304513,0.27349854,9.691112,1.4757904
1409350598592,1.7172412,8.452729,1.0720038,0.41864663,9.688318,1.460006
1409350598594,2.0727801,7.967903,0.35075054,0.56639326,9.683508,1.4419734
1409350598596,1.7316064,6.949769,-0.036511578,0.7062714,9.676675,1.4260184
1409350598604,1.2719196,5.7616463,5.985504E-4,0.8265131,9.667927,1.4207325
1409350598639,1.0498575,5.0182467,0.47644615,0.93474025,9.65744,1.4249533
1409350598641,1.1001357,4.8344917,0.9020155,1.0278325,9.64473,1.4467642
1409350598645,0.9959879,4.855441,1.198298,1.1132437,9.62974,1.4829712
1409350598646,0.8822633,4.869208,1.3215994,1.194245,9.613133,1.5270482
1409350598648,0.9983821,5.064934,1.459266,1.2702407,9.596289,1.5710324
1409350598665,1.1540052,5.4342394,1.5933412,1.3402388,9.580275,1.610131
1409350598680,1.1354501,5.9268465,1.7250223,1.4048738,9.565259,1.643948
1409350598683,1.1659763,6.555324,1.9662381,1.4623882,9.551574,1.6730969
1409350598700,1.2384008,7.1742253,1.9949685,1.5115908,9.539222,1.6996342
1409350598719,1.4293385,7.6494746,2.204461,1.5503016,9.528699,1.723613
1409350598720,1.8854338,8.050503,2.6378117,1.5762122,9.520429,1.7456805
1409350598721,2.086547,8.333617,3.1004913,1.596363,9.512761,1.7690059
1409350598728,2.3768437,8.746018,3.2890346,1.6003425,9.507779,1.792053
1409350598753,2.7802668,9.244612,3.2291796,1.5898274,9.505883,1.8113592
1409350598754,3.2758665,9.953894,3.1908724,1.5684445,9.507095,1.8236066
1409350598764,3.7343562,10.736797,3.3381157,1.5407898,9.510455,1.8296483
1409350598786,3.9187095,11.227609,3.6828809,1.5133708,9.51406,1.8337855
1409350598789,3.8696284,11.555016,3.8325183,1.4926617,9.516416,1.8385277
1409350598790,3.5751417,11.810597,3.5978866,1.4827956,9.517556,1.8406068
1409350598800,3.3476925,11.873445,2.9706059,1.4848944,9.517955,1.8368554
1409350598821,3.306991,11.167155,2.166154,1.5004013,9.517925,1.82436
1409350598822,3.750517,10.668563,1.8231846,1.5325507,9.516195,1.8065748
1409350598829,4.4580035,10.229825,2.0440497,1.5763009,9.511708,1.7925048
1409350598851,4.982932,9.020155,2.6617537,1.6489397,9.498962,1.7947482
1409350598852,5.018845,7.9667063,3.6284127,1.7429004,9.477332,1.8201345
1409350598860,4.9386396,8.404845,4.951209,1.8429514,9.450359,1.8613515
1409350598883,3.7762547,11.149797,7.81228,1.94104,9.421901,1.9054081
1409350598884,2.7856536,16.268002,8.04751,2.0172608,9.392814,1.9687785
1409350598906,0.24241292,17.201141,2.321777,2.054461,9.369992,2.037852
1409350598908,-1.9662381,16.286556,-0.073621705,2.051411,9.374147,2.021749
1409350598910,-3.020884,15.418659,-1.9512744,2.0166867,9.396437,1.9520133
1409350598940,-3.6302083,13.813347,-1.30484,1.9556744,9.430466,1.8471745
1409350598944,-4.0665517,12.12723,-0.15322891,1.8805777,9.460501,1.7699522
1409350598945,-3.8869865,10.837953,-0.22924481,1.7797022,9.4842415,1.7470629
1409350598949,-2.801216,9.818023,-0.20649989,1.6722142,9.502511,1.7539614
1409350598964,-1.9201498,8.713697,0.55485624,1.5864228,9.515531,1.7630525
1409350598982,-1.584363,7.511808,1.0564415,1.5247766,9.52321,1.775933
1409350598983,-1.0444705,7.1867948,1.1953052,1.4816328,9.527094,1.7915432
1409350598996,-0.023343466,7.229292,1.4514848,1.4464769,9.531927,1.7945676
1409350599012,1.1192893,7.385514,1.8064252,1.4112995,9.540208,1.7785026
1409350599013,1.6412252,7.868544,1.6675615,1.3732238,9.551566,1.7470605
1409350599029,1.6944963,8.914211,1.5095441,1.3291769,9.5658865,1.7021973
1409350599030,1.8680758,10.28549,1.6633717,1.2759345,9.582442,1.6489941
1409350599046,1.95307,11.082161,1.5011644,1.2159886,9.598906,1.5977392
1409350599049,1.678934,11.203069,0.79487497,1.1509725,9.615509,1.5451994
1409350599061,0.86729956,11.049839,-0.014963761,1.0781676,9.6334505,1.4847908
1409350599078,0.14724341,11.03308,-0.4417302,0.9936584,9.654018,1.408177
1409350599080,-1.311424,10.205883,-0.24720132,0.89903736,9.675656,1.3205273
1409350599094,-1.5915456,9.35235,-0.0688333,0.7941034,9.695411,1.2404817
1409350599112,-1.376666,8.747814,0.16699557,0.6947563,9.7105255,1.1804204
1409350599113,-1.1348516,8.835203,0.4997896,0.6098177,9.720324,1.1462123
1409350599130,-1.1480197,9.247005,0.82480246,0.5443913,9.725516,1.135062
1409350599130,-1.1121067,9.487024,1.0360907,0.4943328,9.727329,1.1424136
1409350599145,-1.1893197,9.22067,0.78649527,0.44876435,9.727706,1.157897
1409350599149,-1.1192893,8.625112,0.320823,0.40024465,9.726761,1.183364
1409350599161,-1.0420763,8.015189,0.010773907,0.33990064,9.7259245,1.2088281
1409350599176,-1.2455834,7.80809,0.074818805,0.2609075,9.726857,1.2208798
1409350599183,-1.3072342,7.9541364,0.1328782,0.1594792,9.729761,1.2152005
1409350599200,-0.96067345,8.059482,0.095768064,0.0390069,9.733122,1.1980069
1409350599202,-0.29628247,8.048708,0.24420857,-0.08839608,9.735417,1.1765321
1409350599209,0.14903906,8.291121,0.5566519,-0.21023382,9.735613,1.1593208
1409350599240,0.65301853,8.832211,0.94570965,-0.3208074,9.732742,1.1581068
1409350599244,0.99299514,8.785523,1.3652935,-0.41825712,9.726251,1.1813194
1409350599245,1.1450269,8.613739,1.6543933,-0.5052629,9.715896,1.2314614
1409350599249,1.0540473,8.223484,1.6514006,-0.5882684,9.703091,1.2939719
1409350599281,0.8499416,7.754221,1.6106992,-0.6692875,9.687725,1.3676398
1409350599282,0.8523358,6.8480153,1.2515689,-0.75305784,9.670813,1.4417689
1409350599283,1.2192472,6.8641763,0.98581254,-0.83988696,9.653762,1.506611
1409350599297,1.5783775,7.0940194,0.90620536,-0.92265177,9.638163,1.557216
1409350599313,1.8435353,7.7129207,1.1617863,-0.9927094,9.625418,1.5925703
1409350599314,1.91596,8.394072,1.4359225,-1.044151,9.615422,1.6198189
1409350599331,1.8513165,9.211691,1.7561469,-1.0789564,9.606829,1.6477497
1409350599331,1.6992847,9.889849,2.268506,-1.1049112,9.598171,1.6806775
1409350599349,1.4550761,10.230424,2.3223755,-1.1298783,9.588727,1.7175814
1409350599350,1.1558008,10.281899,1.8459295,-1.1608943,9.579368,1.748831
1409350599363,1.0839748,10.319608,1.4347254,-1.1969833,9.570961,1.770404
1409350599378,1.525705,10.338761,1.1815386,-1.235902,9.564779,1.7770629
1409350599381,1.9877859,10.542269,1.5221137,-1.2670572,9.560751,1.7767999
1409350599396,1.9859903,10.882844,2.6527755,-1.2840917,9.55714,1.7839777
1409350599427,1.673547,11.030087,3.3369186,-1.2895,9.551521,1.809975
1409350599429,0.92176765,10.92594,3.2333694,-1.2902279,9.544084,1.8482945
1409350599431,0.6254852,10.9025955,2.8670566,-1.2918502,9.537692,1.8798757
1409350599432,0.3597288,10.99178,3.0298622,-1.2863061,9.536669,1.8888521
1409350599456,-0.19033903,10.836756,3.0693667,-1.2706743,9.54168,1.8740696
1409350599458,0.21068975,10.66976,1.4161704,-1.245087,9.550335,1.8469589
1409350599462,0.56084174,9.565434,1.270124,-1.1958405,9.564732,1.804515
1409350599488,0.3800795,8.495226,0.545878,-1.1358578,9.580226,1.7605367
1409350599490,-0.3333926,7.369353,0.025139118,-1.064456,9.600385,1.6940882
1409350599491,-1.2348095,6.8360443,-0.3890578,-0.99005,9.624599,1.5991538
1409350599512,-1.9081788,7.6285253,-0.61052144,-0.9122125,9.650912,1.4826235
1409350599513,-2.5462334,10.111312,-0.57760113,-0.8287103,9.6771755,1.3549545
1409350599531,-2.7988217,14.030022,-0.20171149,-0.7448735,9.700708,1.2295623
1409350599532,-3.5212722,18.17259,-0.31902736,-0.66241026,9.719327,1.1252935
1409350599548,-4.2161894,19.608511,-1.1731589,-0.59456944,9.732682,1.0448773
1409350599569,-4.881179,19.608511,-1.2641385,-0.5491474,9.742497,0.9759832
1409350599570,-5.4521956,19.24998,-0.14844051,-0.52973634,9.748469,0.9258073
1409350599571,-4.198831,15.811907,0.9115923,-0.5219276,9.750408,0.90967566
1409350599581,-2.7922378,11.827955,2.429516,-0.49140424,9.747917,0.95236677
1409350599600,-3.1190462,9.71986,4.168904,-0.4332949,9.74064,1.0500498
1409350599602,-4.675277,9.664195,4.907515,-0.3780448,9.728811,1.1737579
1409350599609,-4.72376,10.459669,4.1401734,-0.33948967,9.715812,1.2876872
1409350599633,-3.1609447,9.888652,2.9562407,-0.28398836,9.708287,1.3560674
1409350599634,-2.0931308,7.8068933,2.336741,-0.17414328,9.708554,1.3726134
1409350599641,-0.5255273,6.375759,2.9137435,-0.02879176,9.7112665,1.3641362
1409350599676,0.6985083,7.138911,3.0137014,0.13039245,9.71117,1.35889
1409350599677,1.8148049,8.347982,2.5617957,0.29459557,9.707637,1.358447
1409350599679,2.236783,8.550293,1.2904748,0.46479878,9.701697,1.3533026
1409350599682,2.0626047,7.9092455,0.17238252,0.6325121,9.694304,1.3382015
1409350599707,1.8130093,7.0407486,-0.10534488,0.78166384,9.686137,1.3183856
1409350599710,1.4993688,6.1938,0.16579847,0.9028727,9.676763,1.3097657
1409350599713,1.033098,5.5312047,0.58657944,0.9992464,9.66543,1.323388
1409350599743,0.7541735,5.2678423,0.93852705,1.0796567,9.651561,1.3609201
1409350599744,0.6847417,5.09127,1.1976994,1.1514415,9.635402,1.4154899
1409350599745,0.5327099,4.8602295,1.3018472,1.2181046,9.617974,1.4768822
1409350599775,0.56802434,4.879383,1.3838485,1.2795027,9.600443,1.5377836
1409350599777,0.8086416,5.1020436,1.4796166,1.3336046,9.583994,1.5934097
1409350599778,0.99538934,5.327099,1.5077485,1.3805715,9.569262,1.6412364
1409350599783,1.1145009,5.4976854,1.6891093,1.4242766,9.555496,1.6835446
1409350599801,1.2755109,5.8280854,1.9919758,1.4580712,9.544768,1.7151691
1409350599802,1.435324,6.2063694,2.2996306,1.4804862,9.537488,1.7363398
1409350599810,1.6292542,6.6445084,2.8395233,1.4907799,9.533537,1.7491859
1409350599833,2.0799627,7.3328414,3.3446999,1.4878832,9.532899,1.7551223
1409350599834,2.8844144,8.668806,3.5631707,1.472541,9.535836,1.7520986
1409350599844,2.9466639,9.22067,3.1435869,1.4471527,9.5424595,1.7371365
1409350599869,3.198055,10.046669,2.8275523,1.40485,9.554581,1.7049277
1409350599870,3.4183214,10.625467,2.9652188,1.3491132,9.569994,1.6629759
1409350599872,3.4344823,10.790069,3.0556,1.2859702,9.584455,1.6293917
1409350599881,3.2243912,11.283873,3.4225113,1.2229917,9.594991,1.6158067
1409350599904,2.5492263,12.780249,3.8522706,1.1624763,9.602601,1.6152707
1409350599905,1.638831,13.691242,2.9819782,1.1084392,9.605484,1.635985
1409350599911,1.697489,13.116634,1.2401965,1.0658615,9.607391,1.6529846
1409350599945,2.6378117,12.182896,0.12090719,1.0515317,9.610821,1.6422002
1409350599946,3.899556,11.39221,0.073023155,1.0766389,9.61346,1.6101702
1409350599948,4.784812,10.198102,1.3413515,1.1435173,9.609418,1.5880326
1409350599969,5.5401826,9.164406,4.1018662,1.2418108,9.594776,1.6026778
1409350599970,5.112818,10.329783,8.987833,1.3669405,9.56834,1.6579274
1409350599972,3.4171243,15.688006,11.134235,1.5074046,9.527887,1.7656454
1409350600002,2.741361,19.608511,5.609016,1.6172456,9.484497,1.8971652
1409350600003,-0.12210429,19.373281,1.086369,1.6982325,9.465815,1.9195704
1409350600004,-2.930503,16.903065,-0.8283938,1.7290478,9.469232,1.8746792
1409350600010,-3.1136594,14.553754,-3.0621839,1.7203473,9.48354,1.8092239
1409350600035,-3.643975,8.476072,-0.14664486,1.6988336,9.497453,1.75577
1409350600036,-3.791817,7.965509,1.6478093,1.6629349,9.49606,1.7971857
1409350600042,-3.4596214,7.724293,1.7944542,1.5829084,9.496575,1.8654374
1409350600073,-2.9233203,7.980473,1.5436616,1.491618,9.502554,1.9096874
1409350600074,-2.5169046,7.994838,1.555034,1.411914,9.512781,1.9193419
1409350600076,-2.130241,7.438186,1.3521254,1.3499914,9.523788,1.9092823
1409350600102,-1.6579847,7.2723875,0.9427169,1.3090476,9.533393,1.8897599
1409350600103,-0.42676646,7.2059484,0.93014735,1.2769343,9.543574,1.8601141
1409350600105,0.76195467,7.293337,1.0486604,1.2484415,9.5541315,1.8249305
1409350600110,1.2635399,8.16722,1.1270704,1.2128268,9.568034,1.7754396
1409350600132,1.560421,9.949105,1.2294226,1.167209,9.585671,1.7096575
1409350600134,1.8082209,11.69388,1.0528502,1.1120392,9.606079,1.6300346
1409350600142,1.9602526,12.826936,0.53689975,1.0474551,9.628193,1.5398551
1409350600171,1.7513585,13.207015,-0.12868834,0.9736656,9.651337,1.4401597
1409350600172,0.9415198,12.90355,-0.6087258,0.89127564,9.6749735,1.3307524
1409350600174,0.20949265,12.046426,-0.6895301,0.7979041,9.698011,1.217493
1409350600204,-0.41000703,10.852318,-0.31124622,0.6962851,9.717571,1.1199977
1409350600206,-0.74639237,9.668983,-0.0023942017,0.5917574,9.731741,1.0552058
1409350600207,-0.338181,8.746617,0.7302315,0.49365008,9.740966,1.0199504
1409350600210,0.18674773,8.31207,1.2126632,0.40525547,9.7470255,1.0008359
1409350600236,0.8026561,8.532336,1.4688427,0.34085518,9.749734,0.9984493
1409350600237,0.91817635,8.757391,1.4490906,0.3013903,9.749898,1.009491
1409350600242,0.46387658,8.799889,1.3018472,0.27499506,9.7480345,1.0346955
1409350600263,0.02813187,8.638878,0.78529817,0.24259324,9.744542,1.0749124
1409350600265,-0.08080431,8.2037325,0.15143326,0.1899455,9.741161,1.11538
1409350600283,-0.3441665,8.086416,0.08738836,0.11227146,9.740279,1.1334733
1409350600284,-0.86610246,8.608353,0.3274071,0.010164105,9.742116,1.1231664
1409350600290,-1.299453,8.511387,0.45489833,-0.11542495,9.744263,1.0983787
1409350600310,-1.021127,8.529344,0.6560113,-0.2560479,9.743729,1.0791537
1409350600311,-0.5141548,8.221688,0.48841715,-0.39454132,9.7395735,1.0749094
1409350600325,0.17537527,8.017583,0.6745663,-0.52281684,9.733343,1.0766075
1409350600331,0.56922144,8.132504,1.1767502,-0.6275927,9.725271,1.0934505
1409350600362,0.97264445,8.500613,1.3425486,-0.7089077,9.715024,1.1340847
1409350600365,1.2312182,8.576031,1.3628993,-0.7761003,9.70175,1.2017075
1409350600367,1.4407109,8.521563,1.3102269,-0.8395238,9.685744,1.2852888
1409350600394,1.7669208,8.618527,1.3072342,-0.9034549,9.668565,1.3685949
1409350600398,2.110489,8.671799,1.2210429,-0.9668166,9.651865,1.4412386
1409350600401,2.5270798,8.965687,1.1935096,-1.0297791,9.636106,1.5017986
1409350600417,2.498948,8.898649,1.7812861,-1.0856651,9.621572,1.5547079
1409350600424,2.2439656,8.862138,2.6473885,-1.1331767,9.606519,1.6127912
1409350600425,1.6370354,8.734048,3.1094694,-1.1753256,9.589939,1.6799026
1409350600444,0.81343,8.66701,3.1878796,-1.2140129,9.571522,1.7557173
1409350600445,0.33159694,8.550891,2.2786815,-1.2544509,9.551068,1.8368005
1409350600458,0.29867667,8.189367,1.3611037,-1.2996248,9.530685,1.9098189
1409350600471,1.3634979,8.182783,0.60693014,-1.3500497,9.512333,1.9655256
1409350600494,1.7471687,8.881889,0.7691373,-1.4002692,9.498645,1.9963468
1409350600496,1.5945383,10.0903635,1.2970588,-1.4465662,9.489997,2.0044513
1409350600497,0.9911995,10.969035,1.7735049,-1.4821229,9.485425,2.00011
1409350600519,0.4333505,11.3964,1.8495208,-1.5058156,9.482186,1.9977672
1409350600520,0.22026655,11.585542,1.8435353,-1.5162725,9.480369,1.9984803
1409350600522,0.09756372,11.52449,2.2559366,-1.5110996,9.482342,1.9930233
1409350600551,-0.19991584,10.812215,2.6252422,-1.4981425,9.485996,1.9854081
1409350600552,-0.16519992,9.532514,2.2481554,-1.4736989,9.493716,1.9667122
1409350600553,0.2693477,8.798093,2.088941,-1.4285816,9.506071,1.9401445
1409350600581,0.57281274,8.505402,2.510919,-1.3564683,9.523374,1.9067589
1409350600582,0.5243302,7.8493905,2.0685902,-1.2651696,9.545188,1.8598809
1409350600583,-1.5412674,6.8689647,0.7326257,-1.1678545,9.571135,1.7888259
1409350600590,-2.4672248,7.705738,0.40462008,-1.0784875,9.599749,1.6888083
1409350600617,-3.4925418,9.8198185,0.3196259,-0.9897474,9.628864,1.5734617
1409350600618,-4.3622355,13.271659,0.089184016,-0.9048144,9.655328,1.4582027
1409350600623,-4.8201265,17.517178,-1.0307038,-0.82804936,9.676506,1.3601264
1409350600654,-4.7177744,19.608511,-2.6749218,-0.7581892,9.694715,1.2680933
1409350600655,-4.5663414,19.608511,-2.9173348,-0.6870255,9.713971,1.1563509
1409350600657,-4.718373,19.537884,-1.270124,-0.6114225,9.73068,1.0537603
1409350600665,-4.299388,17.235859,0.6380547,-0.5381616,9.741499,0.99195063
1409350600690,-3.7307649,13.34947,2.7521348,-0.45547056,9.744102,1.0076813
1409350600692,-3.2632968,10.878056,4.633379,-0.36311343,9.737368,1.1055431
1409350600694,-3.787627,10.018537,5.294777,-0.2743933,9.723263,1.2462977
1409350600727,-3.550601,8.96449,4.4597993,-0.19807136,9.707614,1.376009
1409350600731,-2.379238,8.798691,3.383007,-0.11060232,9.698302,1.4495184
1409350600732,-1.1013328,8.134899,2.9502552,0.009144188,9.696836,1.4634441
1409350600755,-0.29807812,7.144298,2.9975405,0.16362342,9.698383,1.4439404
1409350600757,0.5021838,6.7642183,3.217807,0.32832307,9.698098,1.4175678
1409350600758,1.3335704,6.9892735,3.489549,0.5033455,9.694813,1.3883961
1409350600763,2.1033063,7.7733746,3.5703533,0.67943096,9.687681,1.3629321
1409350600794,2.7461493,8.043321,1.2916719,0.85388887,9.677085,1.3398913
1409350600797,2.517503,7.2047515,0.58657944,1.0201478,9.665877,1.3040304
1409350600798,2.4612393,6.5589156,0.47165772,1.1647401,9.653368,1.2752503
1409350600815,2.1308396,6.078878,0.5602432,1.2833114,9.639243,1.2682647
1409350600816,1.7711107,5.954978,0.79008657,1.3807122,9.6229105,1.2898241
1409350600822,1.3706805,5.5419784,0.7679402,1.4631746,9.604318,1.3366449
1409350600848,0.87328506,4.973954,0.6183026,1.5327599,9.584828,1.3971733
1409350600849,0.5781997,4.795586,0.8002619,1.5903285,9.566058,1.460058
1409350600851,0.52253455,4.932654,1.1186907,1.6425438,9.547557,1.522036
1409350600884,0.587178,5.1038394,1.2509704,1.6862837,9.530581,1.5795108
1409350600886,0.641646,5.348048,1.5065514,1.7226496,9.515807,1.6285967
1409350600887,0.6374562,5.613206,1.8507179,1.7489713,9.504509,1.666075
1409350600891,0.75118077,5.913678,2.3038206,1.7627302,9.498018,1.6884383
1409350600918,1.1498153,6.393117,2.830545,1.7629229,9.4968605,1.6947371
1409350600919,1.751957,6.95755,3.3632548,1.7501,9.501152,1.6839427
1409350600925,2.5181017,7.739257,3.697246,1.7244831,9.510781,1.655778
1409350600950,3.2908301,8.688558,3.3836055,1.6848297,9.525358,1.6122329
1409350600951,3.6978445,9.736021,2.9454668,1.6303549,9.544505,1.5539409
1409350600952,3.8373067,10.667366,2.3451207,1.556969,9.567149,1.4885914
1409350600963,4.0462008,11.293449,2.8921957,1.4747518,9.590752,1.4188042
1409350600984,3.6355953,10.641029,3.0867245,1.3790606,9.611886,1.3712258
1409350600985,2.6013002,11.193492,3.6379895,1.2729198,9.628504,1.3572015
1409350600991,0.6051345,13.980941,3.9546227,1.1626667,9.638881,1.3822423
1409350601009,-0.39624038,14.98471,1.8914193,1.0463753,9.644274,1.4364854
1409350601011,0.31483752,13.788806,-0.45310268,0.9492865,9.64796,1.4785558
1409350601031,2.2822728,11.869853,-1.0923545,0.91569006,9.650182,1.4852204
1409350601047,4.483143,11.135432,0.60573304,0.9618461,9.646799,1.4780116
1409350601048,6.0968347,9.5798,3.7684734,1.0733911,9.631291,1.5021424
1409350601055,6.1890116,10.714052,8.670003,1.2329142,9.601012,1.5719033
1409350601076,5.251083,16.414646,9.58818,1.4165362,9.555464,1.6902503
1409350601077,4.8578353,19.608511,5.228338,1.5902199,9.509105,1.7940204
1409350601092,1.1168951,18.557457,2.7401638,1.7411405,9.483337,1.7902894
1409350601093,-1.6017209,15.647903,1.4059949,1.8116095,9.4758415,1.7598066
1409350601108,-1.4927847,13.327324,-0.6667852,1.8222802,9.473745,1.7600708
1409350601111,-1.6663644,11.293449,-0.8475474,1.8103961,9.470533,1.7893794
1409350601125,-2.4720132,10.111911,0.7553706,1.7656416,9.468234,1.8453888
1409350601139,-3.293823,9.558251,1.2336124,1.6779815,9.471213,1.9107395
1409350601142,-3.7942111,7.996035,0.7649474,1.5654131,9.480796,1.9581583
1409350601156,-3.7002387,7.4208283,1.1486182,1.4584321,9.491618,1.9881016
1409350601174,-3.3135753,7.498041,0.89064306,1.3723949,9.498748,2.0151224
1409350601175,-2.544438,7.9278,0.45968673,1.3066928,9.504481,2.0316918
1409350601196,-0.94331545,8.084022,0.6171055,1.2558935,9.512708,2.0252223
1409350601197,1.002572,7.892486,1.0971429,1.2148833,9.526233,1.9862814
1409350601203,1.8896236,8.058883,1.1599907,1.1736611,9.543816,1.9257454
1409350601211,1.757344,8.8777,1.2330139,1.1225332,9.5645275,1.8520635
1409350601226,1.5334862,9.686341,1.3605051,1.0557126,9.586946,1.7737867
1409350601243,1.5209166,9.796474,1.1953052,0.97445035,9.608997,1.699415
1409350601245,1.1947067,9.691729,1.0049661,0.8854085,9.629411,1.6312224
1409350601258,0.5686229,9.665392,1.0259154,0.7918664,9.649036,1.5618653
1409350601273,-0.053869538,9.523536,1.1851299,0.69384605,9.6679535,1.4898558
1409350601274,-0.37469256,9.138069,1.0827777,0.59147686,9.684994,1.4217741
1409350601289,-0.50517654,8.626907,0.6428431,0.4886302,9.698986,1.3643004
1409350601291,-0.48482585,8.208521,0.20231004,0.39501128,9.710069,1.3148873
1409350601306,-0.6123171,8.118738,0.107739076,0.31786212,9.71879,1.2706202
1409350601311,-0.6171055,8.480861,0.49919105,0.25948533,9.725003,1.2358721
1409350601328,-0.480636,9.105149,1.0450691,0.22081688,9.728018,1.219557
1409350601332,-0.6278794,9.61272,1.1324574,0.19482057,9.727829,1.2254817
1409350601367,-0.3561375,9.384073,0.53809685,0.16398674,9.725565,1.247752
1409350601369,-0.23343466,8.842385,0.053869538,0.11747531,9.72366,1.2676824
1409350601371,-0.3645172,8.853159,-0.11492168,0.049989045,9.724375,1.2666754
1409350601372,-0.26156655,8.982447,-0.1945289,-0.037991293,9.727807,1.2404525
1409350601396,0.25737667,8.84059,-0.14425065,-0.13236469,9.731242,1.2065684
1409350601397,0.9403227,8.510789,0.05207389,-0.23206206,9.733441,1.1733155
1409350601405,1.4059949,8.351574,0.27593175,-0.32438144,9.732994,1.1549989
1409350601426,1.7669208,8.809465,0.8655039,-0.40406743,9.729479,1.1594664
1409350601428,2.2026656,9.270947,1.2952632,-0.4713069,9.722222,1.1944355
1409350601452,2.3451207,9.062652,1.763928,-0.5303922,9.710677,1.261677
1409350601453,2.1374235,8.402451,2.0691888,-0.59038115,9.694394,1.3566742
1409350601454,1.661576,7.8625584,2.0572178,-0.6609093,9.6741905,1.4641151
1409350601481,1.4000094,7.656657,1.8207904,-0.74633515,9.652301,1.5641164
1409350601483,1.3245921,7.743447,1.5729905,-0.8445613,9.630983,1.6435429
1409350601484,1.365892,8.215703,1.5041572,-0.94293994,9.612479,1.6974943
1409350601492,1.264737,8.7292595,1.7274165,-1.0338421,9.595454,1.7403485
1409350601509,1.0821792,9.130887,2.134431,-1.1053998,9.581521,1.772838
1409350601522,0.9792285,9.3104515,2.8790276,-1.1575897,9.568196,1.8110844
1409350601525,0.61650693,9.208099,2.202067,-1.1964197,9.552773,1.8664117
1409350601539,0.6560113,9.154829,1.3365631,-1.2354238,9.537259,1.9195851
1409350601544,1.448492,9.128492,0.7182605,-1.2773294,9.525401,1.9507886
1409350601562,2.1853075,9.372701,0.35434186,-1.3175948,9.519071,1.9549025
1409350601563,2.2331917,10.036493,0.9487024,-1.3529874,9.516975,1.9408728
1409350601571,1.869273,10.738593,1.8411411,-1.3827204,9.515929,1.9249878
1409350601588,1.365892,10.928333,2.3774424,-1.4055685,9.514304,1.9164492
1409350601595,0.93732995,11.139622,2.5611973,-1.4221561,9.512373,1.9137989
1409350601612,0.5315128,11.20247,2.959832,-1.4354988,9.510394,1.9136727
1409350601620,-0.06404489,10.8948145,3.6643257,-1.4401996,9.510121,1.9114953
1409350601624,-0.37948096,10.430939,3.311181,-1.4377955,9.511603,1.9059173
1409350601650,-0.07062895,10.205883,2.7539306,-1.4211986,9.5169,1.8918712
1409350601652,0.31543607,10.412982,2.7012582,-1.3783915,9.527997,1.8675439
1409350601653,0.41060558,10.563218,2.2260091,-1.3126296,9.54554,1.8248458
1409350601676,-0.0077811554,10.13705,0.9355343,-1.2373296,9.569096,1.7526655
1409350601677,-0.91099375,9.155427,0.033518825,-1.1596358,9.597465,1.6475205
1409350601683,-1.7633295,8.090606,-0.54767364,-1.08027,9.627755,1.5197768
1409350601692,-2.6623523,7.7051396,-1.2755109,-0.99709666,9.657934,1.3785926
1409350601712,-3.4518404,8.890868,-1.6825253,-0.9162484,9.685726,1.2319033
1409350601713,-5.006874,16.597204,-0.74639237,-0.83594495,9.710085,1.0889567
1409350601723,-5.1636944,19.573795,-0.7392098,-0.7770155,9.728227,0.96345866
1409350601747,-4.449025,19.608511,-0.7092823,-0.7142529,9.7410145,0.87913615
1409350601749,-3.6361938,19.300259,0.110731825,-0.6317459,9.749894,0.8431167
1409350601752,-3.2974143,16.137518,1.6160861,-0.53818613,9.754726,0.8520944
1409350601781,-2.641403,12.220005,3.2112231,-0.45300323,9.753156,0.9171277
1409350601783,-1.9458874,9.449914,4.696825,-0.38104722,9.744506,1.0343138
1409350601784,-3.003526,8.750807,5.524022,-0.32341722,9.730149,1.1789755
1409350601794,-4.257489,8.678981,4.982932,-0.28221858,9.713858,1.3159441
1409350601819,-3.6858735,9.427169,3.8911762,-0.24595313,9.702093,1.4068648
1409350601821,-2.0961237,8.798093,2.794632,-0.19659679,9.694958,1.4627187
1409350601828,-1.2096704,7.2849574,2.204461,-0.09825654,9.696135,1.4648242
1409350601850,-0.3465607,6.39192,2.0745757,0.036256704,9.701047,1.4348347
1409350601851,0.7422025,6.7851677,2.4289176,0.18060437,9.705166,1.3955437
1409350601852,1.7244238,7.759608,2.4169466,0.32825145,9.705828,1.363651
1409350601873,2.272696,8.111555,1.5993267,0.47994727,9.702527,1.3420079
1409350601874,2.2092497,7.7081323,0.5662287,0.62601054,9.696394,1.3260785
1409350601889,2.03567,6.8480153,0.108936176,0.7518982,9.688663,1.3171418
1409350601892,1.8489223,6.2752028,0.4961983,0.8551887,9.678857,1.3261913
1409350601906,1.3910311,5.3558292,0.65062433,0.9426235,9.665659,1.3626784
1409350601920,0.89902276,4.7046065,0.79128367,1.0201968,9.65067,1.4121517
1409350601923,0.66858083,4.4783545,1.1174936,1.0913438,9.63309,1.4774826
1409350601937,0.5434838,4.55856,1.3634979,1.1532556,9.614661,1.5487651
1409350601955,0.57281274,4.768651,1.460463,1.2090869,9.596081,1.6197978
1409350601956,0.75836337,5.032612,1.5107412,1.2599981,9.578108,1.6860172
1409350601970,1.0055647,5.2301335,1.6992847,1.3040498,9.562055,1.7426889
1409350601972,1.1348516,5.485116,2.1086931,1.3402178,9.548992,1.7863276
1409350601988,1.441908,5.8161144,2.52289,1.3662646,9.539783,1.8155642
1409350601993,1.7411832,6.3548098,2.8550856,1.3830575,9.534605,1.8299826
1409350602008,2.0626047,7.0862384,3.2980127,1.3907217,9.533573,1.8295494
1409350602021,2.5127146,7.914034,3.6170402,1.3879199,9.536371,1.817053
1409350602023,2.991555,8.710106,3.6697125,1.3811741,9.540501,1.8004514
1409350602037,3.3626564,9.64145,3.3854012,1.3627625,9.54857,1.7714626
1409350602056,3.7475243,10.594342,2.9251158,1.3320764,9.560444,1.7302778
1409350602057,3.9791632,11.118672,2.9759927,1.2924572,9.574867,1.6798446
1409350602072,3.9372647,11.056423,3.1082723,1.2488304,9.588493,1.634498
1409350602073,3.6487634,11.131841,3.3572693,1.2047651,9.599321,1.6037376
1409350602088,2.086547,15.21156,3.8247373,1.1644343,9.606399,1.591099
1409350602093,1.9656396,14.802152,1.9596541,1.1151034,9.610844,1.5995611
1409350602104,2.5983074,12.864046,0.533907,1.0844375,9.614723,1.5973417
1409350602119,3.642778,11.431116,0.46567222,1.0929599,9.616173,1.5827322
1409350602124,4.869208,9.923966,1.7633295,1.1439884,9.61019,1.5830104
1409350602136,5.412093,8.603564,5.207389,1.2184229,9.59609,1.6127263
1409350602164,4.8698063,11.135432,10.210073,1.3260794,9.566619,1.7004917
1409350602166,3.578733,17.348385,9.213487,1.4613163,9.517529,1.8578497
1409350602167,2.0847511,19.608511,3.4919431,1.5903287,9.472161,1.9797564
1409350602172,-1.7675194,18.384476,1.6921021,1.6993186,9.453564,1.9780928
1409350602198,-3.4201171,14.784794,0.8972271,1.7399405,9.453308,1.9436984
1409350602202,-2.5995045,12.360664,-0.9768343,1.7426301,9.455118,1.9324516
1409350602203,-2.44448,9.912594,0.047884032,1.7256819,9.453376,1.9560382
1409350602221,-2.9526494,9.129091,1.5047557,1.6759434,9.447526,2.026289
1409350602239,-3.1789012,9.279925,1.4945804,1.5872216,9.447516,2.0965607
1409350602239,-3.016694,9.138069,0.57999533,1.4840115,9.45415,2.14176
1409350602258,-2.8078,9.124901,0.6925228,1.3863058,9.469037,2.1414726
1409350602259,-2.4666264,8.987833,1.0265139,1.304758,9.485672,2.1189685
1409350602264,-1.8249803,9.107543,0.9391256,1.243646,9.498955,2.0960944
1409350602272,0.9175778,7.838018,1.4772224,1.194043,9.511757,2.0666754
1409350602286,1.3694834,7.6548615,1.3569138,1.1589944,9.524285,2.0285761
1409350602313,1.4449008,8.438364,1.4215573,1.1169009,9.540007,1.9776754
1409350602315,1.6603789,9.734824,1.673547,1.0676905,9.557309,1.9204893
1409350602316,1.8674773,10.451887,1.3892355,1.0114602,9.574495,1.8645045
1409350602324,1.7585411,10.446501,0.7140707,0.94717103,9.591389,1.8106694
1409350602354,1.0684125,10.332177,0.14844051,0.87228423,9.609684,1.7502836
1409350602356,0.23523031,10.254366,-0.039504327,0.7876049,9.629327,1.6811095
1409350602357,-0.42197806,10.013748,0.073621705,0.6912343,9.651409,1.59464
1409350602380,-0.9355343,9.524733,-0.020949265,0.5883913,9.672991,1.5024773
1409350602383,-1.1713632,8.84478,-0.25677812,0.4854035,9.691414,1.4182016
1409350602385,-1.0576386,8.328829,-0.30466217,0.39073914,9.7053995,1.3501713
1409350602405,-0.93014735,8.179192,-0.142455,0.30949223,9.715068,1.3007903
1409350602406,-1.1318588,8.711303,0.20171149,0.24496086,9.721022,1.2696949
1409350602418,-1.4137762,9.430161,0.6500258,0.1927461,9.723914,1.2564731
1409350602436,-1.3784616,9.481039,0.86251116,0.14109978,9.723865,1.2637019
1409350602437,-1.0289081,8.782531,0.6817489,0.07964388,9.720958,1.2911364
1409350602451,-0.7799112,8.151658,0.2896984,0.0049319034,9.716656,1.3254951
1409350602453,-0.96306765,7.9571295,-0.040102877,-0.07704452,9.712424,1.3539901
1409350602467,-0.88286185,8.452729,0.15083471,-0.17802608,9.710148,1.3607904
1409350602472,-0.3573346,8.400057,0.11971009,-0.29054815,9.709233,1.347876
1409350602488,0.25498247,8.242638,0.32142156,-0.40235937,9.708145,1.3268214
1409350602510,0.8571242,8.182783,0.7978677,-0.5099848,9.705396,1.3098108
1409350602512,1.4137762,8.310873,1.2192472,-0.6114762,9.700103,1.3055664
1409350602513,1.7375919,8.438962,1.5688007,-0.7026882,9.691801,1.3212299
1409350602524,1.762731,8.447941,1.8321629,-0.7825235,9.679932,1.3627181
1409350602539,1.8579005,8.457518,2.0817583,-0.857857,9.664028,1.4286504
1409350602558,1.6340426,8.224083,2.1039047,-0.9331236,9.645011,1.5077865
1409350602559,1.3545196,7.9714947,1.8219875,-1.0136102,9.624179,1.5868659
1409350602564,1.412579,8.009203,1.661576,-1.0966171,9.603394,1.6560967
1409350602572,1.5646108,8.179192,1.6717514,-1.1781851,9.583878,1.7121792
1409350602588,1.3880384,8.436568,1.9327193,-1.2497342,9.566295,1.7591386
1409350602612,1.0540473,8.741829,2.5276785,-1.3069367,9.55006,1.8051813
1409350602613,0.5315128,9.087193,2.593519,-1.3507348,9.533597,1.8591439
1409350602614,-0.034117375,9.423578,2.3133974,-1.3890501,9.516199,1.919087
1409350602624,-0.22744916,9.779117,1.6017209,-1.4302245,9.498834,1.9740877
1409350602645,0.31902736,9.79827,0.49679685,-1.4779208,9.483741,2.011164
1409350602646,2.3241713,9.658808,0.6751649,-1.526367,9.473457,2.0234172
1409350602652,2.32058,10.700286,1.7363948,-1.5583888,9.468394,2.022707
1409350602673,2.1392193,11.080365,2.259528,-1.5824956,9.464042,2.0243583
1409350602674,1.6639702,11.332953,2.3702598,-1.6001474,9.459706,2.0307348
1409350602684,1.2449849,11.626244,2.3989902,-1.6099066,9.454789,2.045867
1409350602707,1.1007342,11.67712,2.8341362,-1.6095115,9.450901,2.064059
1409350602709,0.66858083,11.44608,2.9083564,-1.5979065,9.449692,2.078557
1409350602713,0.5386954,10.873865,2.5037365,-1.5801959,9.453195,2.0761762
1409350602744,0.64703304,10.274118,2.3157916,-1.5501066,9.463402,2.052219
1409350602745,0.4309563,10.26095,2.5187001,-1.5010394,9.479192,2.0154917
1409350602747,-0.089184016,10.19092,2.0626047,-1.4404733,9.498037,1.9704678
1409350602752,-0.57999533,9.880871,1.0259154,-1.3797841,9.519999,1.9068881
1409350602776,-1.3605051,9.257779,0.25318682,-1.3207647,9.545398,1.8197107
1409350602777,-2.2571337,8.334216,-0.108337626,-1.2676395,9.571187,1.7192601
1409350602793,-3.1800983,7.439383,-0.6733692,-1.2101235,9.597938,1.6079812
1409350602830,-3.8624458,7.7931266,-1.2593501,-1.1483727,9.625401,1.4843448
1409350602832,-4.6285906,9.752781,-1.2443863,-1.0820302,9.652915,1.349384
1409350602835,-5.0385976,12.993931,-0.40102878,-1.0130988,9.677199,1.2230542
1409350602837,-5.430648,17.345392,0.65182143,-0.93942046,9.694867,1.1390531
1409350602842,-3.7056258,19.498379,0.98102415,-0.8614534,9.705721,1.1078186
1409350602860,-2.871845,17.447744,2.130241,-0.744842,9.714246,1.1176082
1409350602862,-2.1918917,14.145542,3.2160115,-0.6164591,9.716306,1.1763375
1409350602864,-1.5502456,10.962451,4.1784806,-0.50094044,9.710333,1.2762755
1409350602873,-1.9740193,9.637859,4.8416743,-0.39217475,9.69869,1.3971376
1409350602888,-3.537433,8.924387,4.4717703,-0.31786183,9.680644,1.5344331
1409350602912,-3.6882677,9.613318,3.5553896,-0.2735011,9.662754,1.6513007
1409350602913,-2.2667105,10.077195,2.698864,-0.2304764,9.652188,1.7182951
1409350602915,-1.6765398,7.9828672,1.8602947,-0.14895569,9.651966,1.7285085
1409350602942,-0.91338795,6.827665,1.7567455,-0.024415553,9.658717,1.6967542
1409350602945,0.40761283,7.7105265,2.4390929,0.12394385,9.66616,1.6493589
1409350602946,1.6831238,8.532935,2.4911668,0.28526568,9.669378,1.6100094
1409350602952,2.4768016,9.222465,1.8381484,0.45760217,9.667152,1.5834038
1409350602970,2.4762032,8.791509,0.78170687,0.62409335,9.661317,1.5620085
1409350602973,2.1859062,7.6931686,0.26755205,0.7649157,9.654182,1.5433844
1409350602987,2.2098482,6.9946604,0.39743748,0.8861056,9.645729,1.5313784
1409350603004,2.0153193,6.5840545,0.48482585,0.98014164,9.63477,1.5430232
1409350603004,1.4586674,5.8412538,0.7433996,1.0565304,9.620119,1.5834967
1409350603016,1.0576386,5.1062336,1.1019313,1.1201928,9.602028,1.6482191
1409350603032,0.80564886,4.5441947,1.4562732,1.1728891,9.582073,1.7258605
1409350603033,0.62728083,4.402937,1.3628993,1.2188301,9.561021,1.8087872
1409350603051,0.49799395,4.322731,1.2144588,1.2598687,9.539919,1.8902614
1409350603053,0.5746084,4.5016975,1.3970166,1.2949281,9.5202,1.9645249
1409350603074,0.6931214,4.687248,1.5711949,1.3244921,9.502673,2.028623
1409350603075,0.9379285,5.005079,1.7525556,1.3499746,9.487895,2.0803444
1409350603088,1.110311,5.4402246,2.0524294,1.3717288,9.477287,2.1141853
1409350603108,1.18094,5.889736,2.3056161,1.3933772,9.469058,2.1367824
1409350603109,1.3958195,6.445191,2.4714148,1.4060595,9.46671,2.1388726
1409350603113,1.7926586,7.153875,2.7096379,1.409681,9.470467,2.119775
1409350603145,2.268506,8.016386,3.0160956,1.4022615,9.479762,2.0828304
1409350603146,2.60968,8.993818,3.469797,1.3828627,9.493192,2.034066
1409350603147,2.9700072,9.958682,3.8313212,1.3510278,9.509,1.980923
1409350603153,3.4356794,10.644621,3.6978445,1.3110383,9.525384,1.9283775
1409350603170,3.9953241,10.705673,3.1184478,1.2717726,9.541339,1.8750539
1409350603188,3.8019924,10.53748,2.847903,1.2417582,9.556646,1.8162942
1409350603190,2.2703018,13.918692,3.518878,1.2164521,9.571398,1.7546985
1409350603201,2.0973208,17.209522,3.2495303,1.1751261,9.586337,1.7004724
1409350603205,2.5761611,16.006435,1.8626889,1.1354121,9.597643,1.6632805
1409350603217,4.75668,12.687473,0.97862995,1.1317945,9.600642,1.6483558
1409350603235,5.8023477,11.078569,2.4049757,1.1915195,9.592038,1.6563544
1409350603236,6.455965,9.768942,5.1140146,1.2868308,9.570931,1.7063831
1409350603252,5.9621606,11.398195,8.93935,1.4104369,9.53563,1.8035599
1409350603253,4.565144,16.937181,8.259995,1.5549747,9.485234,1.9449376
1409350603267,2.7275944,19.059042,4.277241,1.6891886,9.440338,2.0486703
1409350603285,-0.5482722,16.807297,3.2968156,1.7894745,9.42122,2.0515375
1409350603286,-2.8006175,14.234726,2.542642,1.8276716,9.41671,2.038529
1409350603299,-3.2626984,11.657967,1.13964,1.8153993,9.413132,2.065829
1409350603304,-3.1878796,9.701305,1.0067618,1.7882895,9.405383,2.1239574
1409350603316,-3.4045548,9.19134,1.6095021,1.7329903,9.390449,2.2330701
1409350603338,-3.301604,9.523536,0.6679823,1.401621,9.414382,2.3612053
1409350603339,-3.208829,9.969456,-0.45729253,1.401621,9.414382,2.3612053
1409350603344,-2.8646624,9.880272,-0.20590134,1.401621,9.414382,2.3612053
1409350603353,-2.3427265,9.555259,0.47524905,1.3041536,9.439666,2.3156607
1409350603374,-1.7812861,9.099762,0.61530983,1.2354021,9.456957,2.2825785
1409350603375,-1.0205284,8.665813,0.94451255,1.1888644,9.469431,2.2554111
1409350603385,0.2801216,8.130709,1.4431051,1.1520374,9.482558,2.2190754
1409350603409,1.4927847,7.801506,1.3162124,1.1187928,9.497784,2.1704316
1409350603411,1.6657659,8.806473,1.6555905,1.0832777,9.513991,2.116814
1409350603414,1.9752164,9.67856,1.8142064,1.0380632,9.5318365,2.0583751
1409350603441,2.1033063,10.033501,1.2551602,0.986332,9.549355,2.0018466
1409350603443,1.797447,10.196905,0.6607997,0.9249318,9.566758,1.9473107
1409350603449,1.1923125,10.387842,0.29628247,0.85505027,9.586179,1.882672
1409350603454,0.5033809,10.30225,0.18255788,0.77566946,9.609117,1.7982203
1409350603474,-0.27593175,9.795278,0.11611878,0.68530005,9.63301,1.7046622
1409350603476,-0.82719666,9.068039,-0.108936176,0.5850088,9.654372,1.6190345
1409350603486,-1.1091139,8.526949,-0.33039984,0.48338646,9.671016,1.5518308
1409350603505,-1.423353,8.406042,-0.23882163,0.39010993,9.682893,1.503257
1409350603507,-1.6364368,8.520366,0.18016368,0.31122664,9.690537,1.4720821
1409350603513,-1.6693572,8.395866,0.65242,0.2395796,9.695749,1.4510154
1409350603539,-1.3012487,8.193557,0.90979666,0.18169965,9.697132,1.4501679
1409350603541,-0.6979098,8.003218,0.99538934,0.13367184,9.694972,1.4697131
1409350603545,-0.29149407,7.9421654,0.76315176,0.089294486,9.690251,1.5038106
1409350603553,-0.19692309,8.093,0.47465047,0.039279286,9.685482,1.5363258
1409350603568,-0.2693477,8.313267,0.3645172,-0.025232349,9.683546,1.5487685
1409350603582,-0.39384618,8.500613,0.45429978,-0.10814152,9.684917,1.5365824
1409350603585,0.27712885,8.476671,0.41299978,-0.2056614,9.687262,1.5116456
1409350603608,1.09834,8.768166,0.65660983,-0.30572468,9.688061,1.4894226
1409350603609,1.6633717,9.426571,1.0247183,-0.39838558,9.685812,1.4821371
1409350603614,1.8010383,9.522339,1.3204023,-0.47784796,9.6797495,1.4981694
1409350603645,1.661576,9.282919,1.6250644,-0.5494693,9.670995,1.5298189
1409350603646,1.3006501,8.951322,1.8351556,-0.61400765,9.657189,1.5912563
1409350603647,0.8451532,8.50181,1.7567455,-0.67778105,9.638942,1.6738557
1409350603653,0.6889315,8.0445175,1.5280992,-0.74731,9.618374,1.7603438
1409350603666,1.0217255,7.796119,1.1737574,-0.8233354,9.598499,1.833391
1409350603682,1.5047557,7.8823104,1.033098,-0.9025096,9.58128,1.8854578
1409350603688,1.7609353,8.249821,1.340753,-0.97457474,9.567214,1.9206823
1409350603706,1.7914615,8.775947,1.8722657,-1.0307658,9.555155,1.9511371
1409350603707,1.7441759,9.126099,2.6623523,-1.0693676,9.542973,1.9895985
1409350603714,1.5741876,9.298481,3.1106665,-1.0954648,9.5283375,2.0447845
1409350603739,1.1833342,9.297284,2.6898856,-1.1175364,9.5120945,2.1074977
1409350603740,0.6242881,9.0842,2.4552538,-1.1433815,9.495605,2.16715
1409350603748,0.8607155,9.036914,1.3910311,-1.1762487,9.480323,2.2159214
1409350603753,1.364695,9.116522,0.44532153,-1.212249,9.469019,2.2446651
1409350603767,2.3612814,9.390059,0.62009823,-1.2467452,9.462773,2.2521002
1409350603789,1.8698715,10.378864,2.4917655,-1.2707101,9.460853,2.246767
1409350603790,1.0151415,10.693702,2.521693,-1.2881328,9.458036,2.248706
1409350603795,0.26874915,11.188704,2.7629087,-1.3043637,9.454669,2.2535002
1409350603829,-0.75596917,11.463438,2.9281087,-1.3174797,9.451641,2.2585645
1409350603830,-1.0510546,11.116279,2.4169466,-1.3299968,9.451672,2.2510931
1409350603832,-0.58657944,10.64881,1.353921,-1.3292766,9.458358,2.2232583
1409350603834,0.0047884034,10.353725,1.168969,-1.3147199,9.470301,2.1806664
1409350603855,0.2789245,10.330381,1.1049241,-1.2709959,9.488971,2.1247072
1409350603856,0.10055647,10.448297,0.45070848,-1.2095109,9.513344,2.0503106
1409350603867,-0.6332663,9.5013895,0.15741876,-1.1433226,9.541734,1.9541105
1409350603886,-1.3748703,7.8116817,0.15562311,-1.0774473,9.570028,1.8504239
1409350603887,-2.232593,6.6546836,-0.4381389,-1.0063677,9.59696,1.748136
1409350603906,-2.8377275,6.746262,-1.1025299,-0.92866164,9.624887,1.633869
1409350603907,-3.66672,8.462905,-0.9624691,-0.8449874,9.65333,1.5065345
1409350603913,-4.2880154,11.756727,0.19752164,-0.7556335,9.6779585,1.391586
1409350603935,-4.767454,16.598402,1.7914615,-0.6610722,9.694567,1.3224118
1409350603936,-4.187459,19.606716,2.2613235,-0.5630845,9.702586,1.3088855
1409350603967,-1.6334441,19.608511,1.939902,-0.44968292,9.707666,1.3150667
1409350603968,-0.7398083,18.851345,3.7606924,-0.2876786,9.711049,1.3353426
1409350603970,-0.016759412,12.047025,4.659715,-0.12858403,9.705854,1.3965105
1409350603992,-0.5943606,9.727641,5.3857565,0.0021671744,9.691853,1.4961171
1409350603995,-2.5623944,9.099164,5.4168816,0.093038455,9.670672,1.6247575
1409350603996,-3.518878,9.045893,4.349067,0.14280164,9.64849,1.7483237
1409350604013,-2.9029696,9.205107,3.0591912,0.17519566,9.634768,1.8196014
1409350604014,-1.3988123,9.01417,2.4971523,0.22825715,9.633408,1.8209219
1409350604031,-0.4189853,8.028955,2.2104468,0.32728285,9.639002,1.7756407
1409350604033,0.19153613,7.3083005,2.35769,0.46049693,9.644428,1.7156197
1409350604054,1.1587936,7.9870567,2.7401638,0.6020357,9.64644,1.65956
1409350604056,2.1637597,8.972271,2.3720553,0.7445704,9.64356,1.6179543
1409350604066,2.327164,9.018359,1.1540052,0.88781804,9.635996,1.5905116
1409350604088,2.0907366,8.252214,0.48482585,1.0199982,9.626368,1.5694191
1409350604090,1.8423382,7.1820064,0.40282443,1.125331,9.616495,1.5578994
1409350604095,1.4927847,6.4338183,0.88525605,1.2006553,9.606039,1.5661482
1409350604118,1.09834,5.7095723,1.2838906,1.2542698,9.593404,1.6011896
1409350604119,0.93852705,5.4049106,1.5089456,1.2972008,9.578236,1.6568179
1409350604131,0.8810662,5.3582234,1.5496471,1.3372372,9.56125,1.7218337
1409350604134,0.86251116,5.271434,1.4993688,1.3761817,9.54335,1.7891297
1409350604149,0.8265981,5.3282957,1.4909891,1.410537,9.525958,1.853882
1409350604164,0.9331401,5.367202,1.572392,1.4406446,9.50892,1.9171283
1409350604168,1.0749966,5.504868,1.7699136,1.4631977,9.493402,1.9760487
1409350604182,1.1869255,5.7682304,1.882441,1.4789667,9.4799595,2.02816
1409350604185,1.2473791,6.0585275,2.0177135,1.4892458,9.469846,2.0675073
1409350604205,1.2808979,6.299743,2.243367,1.493111,9.464557,2.0888205
1409350604206,1.3922282,6.5140243,2.5234885,1.4880974,9.46498,2.090479
1409350604214,1.6496049,6.9186444,2.7491422,1.4713986,9.471141,2.0743368
1409350604237,2.0326772,7.632715,3.0095115,1.4413514,9.4825,2.0433109
1409350604238,2.5037365,8.63828,3.3147724,1.3977417,9.497851,2.0018823
1409350604245,3.1507695,9.779117,3.5104983,1.3436805,9.515104,1.956455
1409350604268,3.918111,10.6117,3.3357215,1.2854118,9.532334,1.9112089
1409350604269,4.4801497,10.563218,2.9017725,1.2349957,9.548358,1.8638773
1409350604282,4.2838254,9.922769,2.819771,1.1899805,9.5628805,1.8181425
1409350604298,2.5713725,12.658144,3.810372,1.150545,9.575733,1.775376
1409350604299,1.7040731,16.609774,3.4261026,1.1026815,9.587047,1.7444273
1409350604321,2.1272483,15.905879,1.501763,1.0502713,9.597154,1.7210435
1409350604322,3.0460231,13.957598,0.037110128,1.0343468,9.603417,1.6955502
1409350604325,4.262876,13.06037,0.45848963,1.071777,9.602161,1.6793431
1409350604333,5.731719,9.322423,5.1846437,1.151343,9.588375,1.705245
1409350604348,4.6405616,11.712435,8.645462,1.2628429,9.553815,1.8166549
1409350604365,2.9167361,17.54471,6.6840124,1.3892875,9.505885,1.9693642
1409350604366,0.33279404,19.17157,3.8618474,1.5070033,9.465957,2.0724387
1409350604379,-3.0005333,16.44278,3.1723173,1.5896102,9.449402,2.086224
1409350604385,-4.8973393,13.781025,2.4558525,1.628401,9.446174,2.0708659
1409350604399,-4.4843397,10.906187,0.99060094,1.6253917,9.443725,2.0843642
1409350604421,-3.5009215,9.113529,0.7038953,1.6011496,9.429974,2.1638644
1409350604423,-2.8951883,8.880095,0.88525605,1.5510275,9.409458,2.2862172
1409350604426,-2.4929626,8.998607,-0.11911154,1.47468,9.397274,2.3847365
1409350604434,-2.2930467,9.356541,-0.23822308,1.3864,9.403787,2.411866
1409350604454,-2.1188686,9.7240505,0.3609259,1.3014338,9.4241085,2.3796751
1409350604455,-1.5448587,10.185533,0.8355764,1.231383,9.447203,2.3247495
1409350604466,-0.22565351,10.301651,1.2569559,1.176978,9.468988,2.2634892
1409350604481,1.2090719,9.653421,1.5454572,1.1370338,9.48874,2.200308
1409350604487,1.6316484,9.100361,1.1851299,1.1058823,9.507442,2.1344705
1409350604507,1.4664485,9.238626,1.3443443,1.0720242,9.526718,2.064653
1409350604514,1.3006501,10.092757,1.8525136,1.0271356,9.5457115,1.9986961
1409350604516,1.3437457,10.879252,1.9548657,0.9674388,9.563448,1.9429175
1409350604537,0.61530983,9.879075,0.6973112,0.89545596,9.579614,1.8972511
1409350604538,-0.049679685,9.696517,-0.05626374,0.81037825,9.596821,1.8478947
1409350604549,-0.6596026,9.395446,-0.22445641,0.7155229,9.616271,1.7848593
1409350604564,-1.3551182,8.869919,-0.38187516,0.61282665,9.637054,1.7093881
1409350604566,-1.8764555,8.420407,-0.6027403,0.5061103,9.65638,1.633578
1409350604584,-1.9267339,8.074445,-0.7715315,0.39917088,9.672272,1.5678654
1409350604609,-1.941099,7.904457,-0.7230489,0.296134,9.685375,1.5087142
1409350604612,-2.0362685,8.091804,-0.34476504,0.20395723,9.69487,1.4622961
1409350604613,-1.8369513,8.541314,0.44532153,0.12631577,9.701281,1.428146
1409350604615,-1.3401544,8.740632,1.0133458,0.062199853,9.704507,1.410356
1409350604637,-1.0055647,8.4347725,0.9636662,0.006834815,9.704426,1.4122564
1409350604639,-0.6907272,8.1558485,0.6404489,-0.04771277,9.701598,1.4307752
1409350604648,-0.3776853,7.941567,0.39145198,-0.109547295,9.697562,1.4545337
1409350604667,-0.30885202,7.8954787,0.31064767,-0.18381578,9.694375,1.468243
1409350604668,-0.08559271,8.090606,0.42437226,-0.2715826,9.69026,1.481725
1409350604681,0.5781997,8.295909,0.4938041,-0.3683695,9.689459,1.4659867
1409350604705,1.3066356,8.418014,0.40940848,-0.4636308,9.687741,1.4502082
1409350604706,1.8614918,8.395268,0.4950012,-0.55341995,9.684207,1.442306
1409350604710,2.4229321,8.883087,1.009156,-0.6377866,9.677683,1.4512358
1409350604715,2.1350293,9.097966,1.9841946,-0.7101966,9.66756,1.4846851
1409350604741,1.7776948,8.486248,2.0380642,-0.7724206,9.6524935,1.5502117
1409350604743,1.3533225,7.933786,1.8740613,-0.83411145,9.632706,1.6387861
1409350604746,1.1707647,7.748235,1.5634137,-0.90239424,9.609859,1.7339854
1409350604768,1.411382,7.73387,1.2036849,-0.97664785,9.587117,1.8176211
1409350604770,1.7932571,7.9553337,1.283292,-1.0530356,9.566999,1.879906
1409350604775,1.9566613,8.152855,1.6101006,-1.1246963,9.550354,1.9225475
1409350604801,1.8231846,8.532336,2.0320787,-1.1858307,9.536483,1.9544039
1409350604803,1.5149311,8.855554,2.7928362,-1.2404824,9.52288,1.9865439
1409350604806,1.0696096,9.334992,2.7760768,-1.2865934,9.508948,2.0235984
1409350604815,0.44951138,9.775525,2.4372973,-1.3274403,9.494607,2.0641537
1409350604843,0.17178397,9.918579,1.7160441,-1.3680248,9.480403,2.1025825
1409350604845,0.75237787,9.816227,0.66259533,-1.4091032,9.46827,2.129957
1409350604847,1.7399861,9.787497,0.5069722,-1.4469849,9.460111,2.14078
1409350604878,2.1799207,10.142437,1.4335283,-1.4785928,9.455061,2.1414936
1409350604880,1.751957,10.353725,2.2008698,-1.5035809,9.450546,2.1440187
1409350604882,0.92775315,10.317214,2.4462755,-1.5246036,9.444845,2.1542711
1409350604902,0.076015905,10.613496,2.3415294,-1.5421963,9.438814,2.1681361
1409350604903,-0.54647654,10.98759,2.7018566,-1.5554942,9.435985,2.1709447
1409350604906,-0.961272,10.536881,2.3145945,-1.5664512,9.435237,2.1663177
1409350604914,-0.4213795,10.149021,1.6190789,-1.5646411,9.442189,2.1371384
1409350604928,-0.025737667,10.209475,1.7160441,-1.5321647,9.4575815,2.0921314
1409350604950,0.2741361,10.365696,1.6190789,-1.4681176,9.478154,2.0444133
1409350604951,-0.06703765,9.973047,0.7038953,-1.3875738,9.502853,1.9851475
1409350604970,-0.6326678,9.11293,0.09935937,-1.3091292,9.531001,1.9017321
1409350604971,-1.5873557,8.1163435,-0.142455,-1.2341516,9.560389,1.8017349
1409350604975,-2.60549,7.719505,-0.34476504,-1.1603333,9.589969,1.6901228
1409350604999,-3.4919431,8.771756,-0.31304187,-1.0873717,9.619634,1.5654677
1409350605001,-4.408324,11.323377,0.10654198,-1.015399,9.647671,1.4358944
1409350605016,-4.9182887,15.328278,0.6835446,-0.94479036,9.672376,1.3125901
1409350605018,-5.09127,19.227835,0.7230489,-0.87874013,9.691292,1.2153502
1409350605030,-4.325724,19.608511,0.30107087,-0.8040445,9.706239,1.1457927
1409350605047,-3.5338416,19.570204,0.5153519,-0.704072,9.718463,1.10731
1409350605048,-2.8921957,17.296312,1.797447,-0.59344274,9.725586,1.1095961
1409350605065,-1.9758149,13.36623,3.0059202,-0.49422294,9.723544,1.1742419
1409350605079,-1.1671734,10.237606,4.2060137,-0.4079151,9.7124605,1.2931015
1409350605080,-1.8028339,8.948329,5.0703206,-0.33431756,9.695033,1.4370056
1409350605096,-2.7856536,8.855554,3.716998,-0.27654928,9.676759,1.5666046
1409350605097,-1.3790601,9.306861,3.1423898,-0.21986581,9.666259,1.6387527
1409350605111,-0.6715736,8.010401,2.690484,-0.12298651,9.664996,1.6562312
1409350605116,-0.073621705,6.941389,2.4265234,-0.0053472794,9.666851,1.6499487
1409350605132,0.5722142,6.9485717,2.630629,0.13976686,9.671378,1.6171886
1409350605149,1.4185646,7.9463553,2.6551697,0.28822726,9.674247,1.5799586
1409350605150,2.071583,8.782531,1.8297687,0.43824288,9.673469,1.5499527
1409350605163,2.0219033,8.496424,0.7697359,0.589901,9.669347,1.5251801
1409350605166,1.9512744,7.7626004,0.2765303,0.72857934,9.663196,1.5040678
1409350605179,1.785476,6.7283053,0.25857377,0.84311163,9.655218,1.4954362
1409350605195,1.4640543,5.976526,0.7344214,0.93192667,9.644583,1.5112656
1409350605196,0.9295488,5.1319714,1.122282,1.0030832,9.630335,1.5559213
1409350605211,0.8158242,4.8464627,1.4466964,1.0619872,9.613352,1.6204998
1409350605215,0.9283517,4.9027267,1.7196354,1.1149678,9.594847,1.6929666
1409350605227,0.9115923,4.8165355,1.6843209,1.1660687,9.575473,1.7666361
1409350605249,0.79726917,4.812944,1.6406267,1.2118336,9.556739,1.8359265
1409350605250,0.8170213,4.97156,1.7238252,1.2484086,9.540179,1.8965409
1409350605265,0.8678981,5.1439424,1.7932571,1.2750281,9.526197,1.9483991
1409350605267,0.9103952,5.258864,1.9033904,1.2923626,9.515239,1.9900744
1409350605288,1.2503718,6.1010246,2.5234885,1.3021768,9.507712,2.019435
1409350605289,1.3934253,6.593033,2.7694929,1.3064975,9.503468,2.0365555
1409350605295,1.7345991,7.032369,2.996942,1.3044713,9.503354,2.0383875
1409350605318,2.2242134,7.563882,3.072958,1.2952771,9.507601,2.0243933
1409350605319,2.7269957,8.34918,3.1106665,1.2767229,9.516563,1.9938399
1409350605327,3.0885203,9.270349,3.2752678,1.2553295,9.527321,1.9556782
1409350605353,3.317765,10.227431,3.293823,1.2228296,9.541674,1.9056536
1409350605356,3.4356794,10.867282,3.2980127,1.1811453,9.558122,1.8486738
1409350605357,3.7547069,10.717046,3.2160115,1.1334006,9.574386,1.7935867
1409350605388,3.549404,10.144233,3.2243912,1.0883138,9.588187,1.7471733
1409350605389,1.6047137,12.583325,4.011485,1.0473539,9.599422,1.7101252
1409350605391,0.5793968,16.057312,3.6326025,0.99292594,9.6090975,1.6881186
1409350605396,0.878672,15.235502,1.6944963,0.92762506,9.618112,1.6738591
1409350605414,1.9782091,13.4500265,0.23104046,0.8972682,9.624667,1.6525966
1409350605415,3.6140475,12.979566,1.0468647,0.92419285,9.625543,1.6325393
1409350605431,4.9039235,12.0889225,4.063559,1.0009303,9.614,1.6551521
1409350605444,4.993108,13.32912,9.013571,1.1048154,9.58913,1.7315742
1409350605447,4.237737,18.127699,7.358579,1.2363561,9.542066,1.8949435
1409350605461,2.4672248,19.608511,2.8550856,1.381409,9.498843,2.0085049
1409350605478,-3.7565024,15.342045,1.3024458,1.5205716,9.479957,1.9971664
1409350605479,-2.4797945,11.523891,0.050876785,1.5909684,9.475989,1.960826
1409350605496,-1.4257472,8.446744,1.9303252,1.6636695,9.460182,1.9767507
1409350605497,-1.4089876,6.0088477,4.12102,1.7078495,9.427489,2.091908
1409350605510,-1.292869,5.7257333,4.127005,1.7025846,9.390455,2.256314
1409350605515,-1.3204023,5.832874,2.8604724,1.6558472,9.365965,2.3889894
1409350605527,-0.8900445,6.5349736,2.099715,1.5896276,9.364774,2.4381285
1409350605548,-0.7038953,7.831434,1.8531121,1.5221171,9.381704,2.416023
1409350605551,-0.55964464,9.336788,1.0720038,1.4657379,9.403087,2.3672698
1409350605569,-0.08080431,10.213066,0.6607997,1.4171427,9.427388,2.2992308
1409350605571,0.89064306,10.275315,0.8218097,1.3781886,9.452102,2.220079
1409350605575,1.6956934,10.004171,0.6404489,1.3399851,9.476584,2.1375597
1409350605604,1.8034325,10.46745,0.16400282,1.2965283,9.501761,2.0508342
1409350605605,1.5173253,11.5203,-0.22984336,1.2405665,9.52922,1.955853
1409350605611,0.96546185,11.695077,-0.3489549,1.1671723,9.557515,1.8606524
1409350605616,0.2765303,10.7356,-0.31184477,1.0732569,9.583106,1.7839842
1409350605629,-0.30945057,10.09994,0.06584055,0.96356785,9.604526,1.7306191
1409350605652,-0.7739257,9.870695,0.6194997,0.8442754,9.623715,1.6857377
1409350605654,-1.0714053,9.514558,0.86490536,0.72131246,9.640952,1.643827
1409350605655,-1.5227122,8.258799,0.5009867,0.5992703,9.656262,1.6024574
1409350605687,-1.5095441,7.639299,0.28790274,0.48377386,9.668681,1.5661955
1409350605689,-1.4143747,7.167641,0.2100912,0.3784744,9.677961,1.5376089
1409350605690,-1.1252748,7.442376,0.37828386,0.2871186,9.685127,1.5120454
1409350605696,-0.87807345,8.270171,0.7553706,0.2143151,9.691086,1.4857062
1409350605725,-0.9911995,8.749012,1.0552444,0.1590712,9.695567,1.4632337
1409350605727,-1.3281834,8.810662,0.8265981,0.1094149,9.697821,1.4528186
1409350605728,-1.3796587,8.37013,0.3645172,0.049057607,9.698024,1.4547517
1409350605751,-1.4281414,8.100781,-0.030526072,-0.028142098,9.697245,1.4604952
1409350605752,-1.3694834,7.960122,-0.1436521,-0.12153701,9.697612,1.4532605
1409350605755,-1.0420763,8.563461,-0.05746084,-0.22136882,9.698337,1.4365404
1409350605783,-0.5506664,8.899248,-0.08020575,-0.32899478,9.700104,1.4036218
1409350605784,0.16220717,8.853758,-0.09696517,-0.4351976,9.701333,1.365698
1409350605791,1.1432313,8.9842415,0.061650693,-0.5333898,9.700629,1.3355525
1409350605796,1.9363106,9.446322,0.47465047,-0.6180013,9.697364,1.3227198
1409350605813,2.110489,9.436746,0.96187055,-0.6820922,9.691469,1.3343799
1409350605815,1.7914615,8.920197,1.3970166,-0.73250514,9.681774,1.3773522
1409350605837,1.7675194,8.429984,1.7417817,-0.78071505,9.667094,1.45196
1409350605838,1.5664065,8.010401,1.2629414,-0.83007544,9.648806,1.5433465
1409350605849,1.8381484,7.851186,0.87567925,-0.8867048,9.630802,1.6222879
1409350605863,2.1392193,8.099585,1.0181342,-0.9493849,9.615872,1.6745378
1409350605879,2.2709002,8.438962,1.3754689,-1.0122105,9.602611,1.7133874
1409350605880,2.1242554,8.491036,1.685518,-1.0699153,9.592187,1.7365468
1409350605895,1.8339585,8.5862055,2.3517046,-1.1205308,9.582892,1.7558336
1409350605896,1.2617443,8.754398,2.920926,-1.164975,9.572176,1.7851293
1409350605911,0.415394,9.09258,2.789245,-1.2089244,9.558615,1.8280612
1409350605915,-0.3333926,9.428367,2.2571337,-1.2577277,9.543,1.8760833
1409350605928,-0.12330139,9.606734,1.1623849,-1.3111862,9.5278425,1.9160926
1409350605942,1.073201,9.555858,0.4345476,-1.3622425,9.51643,1.9370775
1409350605947,1.929128,9.61272,1.0408791,-1.4018104,9.5095625,1.9425644
1409350605966,1.9973627,10.109517,2.0254946,-1.4305785,9.504758,1.9451007
1409350605971,1.5610195,10.364499,2.528277,-1.4533702,9.499764,1.9525855
1409350605975,0.7918822,10.451887,2.5623944,-1.4687018,9.495137,1.9635915
1409350605994,0.18495208,11.066,2.597709,-1.4760925,9.491912,1.9736114
1409350605996,-0.41000703,11.365874,2.9526494,-1.4721856,9.492906,1.9717495
1409350606016,-0.49559975,10.982801,2.6701334,-1.455831,9.499146,1.953761
1409350606017,-0.045489833,10.304645,1.8818425,-1.4188612,9.511584,1.9201591
1409350606029,1.0791864,10.443508,2.6240451,-1.3537459,9.530483,1.8728753
1409350606049,0.41299978,9.794679,1.5448587,-1.2587123,9.553725,1.8199925
1409350606050,-0.83138657,8.880095,0.50038815,-1.1652071,9.579753,1.7438538
1409350606056,-1.6579847,8.503606,0.14065935,-1.0801082,9.606443,1.6492479
1409350606086,-2.204461,9.1033535,-0.12210429,-0.9968675,9.632422,1.5469576
1409350606088,-3.0759506,11.1970825,-0.019752163,-0.91591054,9.657055,1.4397095
1409350606090,-3.934272,14.6998,0.27353755,-0.837278,9.679622,1.3320272
1409350606096,-4.3897686,17.95352,-0.088585466,-0.7646167,9.69844,1.235328
1409350606120,-4.1060557,19.492393,-1.276708,-0.69148463,9.713539,1.1573341
1409350606122,-3.9881415,18.941128,-1.4730326,-0.60456234,9.726931,1.0916584
1409350606128,-4.3598413,16.786346,0.2112883,-0.5115207,9.736825,1.0502286
1409350606157,-3.6996403,14.43105,2.6503813,-0.4320768,9.738856,1.0669477
1409350606158,-2.777274,11.680712,4.6082397,-0.35817662,9.73113,1.1606904
1409350606160,-2.4366987,9.911995,5.681441,-0.27730152,9.71464,1.311199
1409350606192,-3.0370448,9.522339,5.8837504,-0.19521213,9.693372,1.4733676
1409350606194,-3.454833,8.965687,4.9266686,-0.12127373,9.670524,1.6237837
1409350606195,-3.0083144,8.958505,3.5853171,-0.049965862,9.654311,1.7210926
1409350606197,-2.1015105,8.404845,2.6749218,0.037477214,9.647611,1.7585838
1409350606222,-1.5197195,7.117363,2.3762453,0.15163878,9.648102,1.7497219
1409350606224,0.58657944,7.047931,2.3540988,0.28565085,9.651194,1.7155887
1409350606228,1.6537948,7.699154,2.379238,0.43791503,9.652875,1.6735066
1409350606256,2.4133554,8.79091,2.4049757,0.6004079,9.651306,1.6316245
1409350606257,2.670732,9.126099,1.8423382,0.76557547,9.646199,1.592209
1409350606258,2.0248961,8.1558485,0.99658644,0.9208336,9.638824,1.5541911
1409350606295,1.4323312,6.8988924,0.62608373,1.0479729,9.63082,1.5229777
1409350606299,1.1779473,6.3871317,0.6841431,1.1430941,9.62235,1.5080245
1409350606301,1.1031284,6.171055,0.83737206,1.2236079,9.61295,1.5047809
1409350606303,0.86729956,5.628768,0.8870517,1.290602,9.6012945,1.5231133
1409350606329,0.7625532,5.233725,1.1013328,1.3519408,9.586891,1.5601883
1409350606332,1.0127473,5.2169657,1.4227544,1.4080524,9.570628,1.6096255
1409350606334,1.3299791,5.216367,1.5526398,1.4598418,9.553366,1.6650738
1409350606354,1.5346833,5.3318872,1.4802152,1.509146,9.535563,1.7221786
1409350606356,1.6400281,5.6640825,1.4873978,1.551828,9.518881,1.7757015
1409350606357,1.7190368,6.0477533,1.5705963,1.5842447,9.504523,1.8233489
1409350606376,1.721431,6.3242836,1.7932571,1.6052437,9.493512,1.8619401
1409350606377,1.8776526,6.613982,2.1589713,1.6148373,9.486694,1.8882085
1409350606393,2.1984756,7.0305734,2.5139117,1.6137979,9.484535,1.8999037
1409350606396,2.5492263,7.5566993,2.8245595,1.6090654,9.484386,1.9046558
1409350606415,3.1519666,8.702325,3.5098996,1.593165,9.488989,1.8950772
1409350606416,3.3393128,9.215282,3.8139634,1.5676278,9.497229,1.8749937
1409350606427,3.7128084,9.920375,3.733159,1.5285927,9.508944,1.8476498
1409350606447,4.024653,10.497377,3.6529531,1.4794562,9.522658,1.8167455
1409350606449,3.845088,10.539276,3.645172,1.4252883,9.536085,1.789422
1409350606456,2.6677392,11.55741,3.9606082,1.3682164,9.547745,1.7717134
1409350606486,1.1773487,14.511855,3.9743748,1.3061707,9.557118,1.7679917
1409350606488,0.9923966,14.913483,2.44448,1.2357098,9.56468,1.7777281
1409350606490,1.7489643,13.423691,0.97503865,1.1860961,9.569675,1.7846196
1409350606498,2.9053638,11.9297085,0.9151836,1.185082,9.569821,1.7845114
1409350606517,4.0683475,10.466851,1.9147629,1.2118975,9.56472,1.7938311
1409350606519,4.6405616,8.937555,3.9432502,1.2792639,9.548039,1.8354332
1409350606528,4.5196543,9.660006,7.8487916,1.3690324,9.51914,1.9188901
1409350606550,3.181894,14.343662,9.313444,1.478308,9.477769,2.0388405
1409350606552,1.8746599,18.704102,5.089474,1.5795242,9.436621,2.1507478
1409350606557,-0.5141548,16.718111,2.5647886,1.6565605,9.42205,2.1566556
1409350606585,-2.460641,13.873201,2.4492683,1.6969819,9.424862,2.1124954
1409350606587,-2.801216,12.129025,1.4921862,1.7009479,9.4276085,2.0969915
1409350606588,-2.3810337,10.99178,1.8034325,1.6772256,9.425808,2.1240182
1409350606598,-2.0530279,11.130045,1.3126211,1.6249318,9.422874,2.1770227
1409350606621,-1.8034325,10.940305,-0.05865794,1.5592614,9.424205,2.2188914
1409350606622,-1.5472529,10.43034,-0.52732295,1.4773338,9.4374275,2.2187464
1409350606631,-1.5143325,10.1699705,0.015562311,1.3982848,9.456499,2.188564
1409350606649,-1.3664906,10.072407,0.4141969,1.3282655,9.473474,2.1585658
1409350606651,-0.7745243,9.500791,0.89662856,1.2691998,9.486258,2.137859
1409350606657,0.51595044,8.48984,1.4808137,1.2193398,9.497698,2.1159751
1409350606689,1.1617863,8.071452,1.4083891,1.1743833,9.510717,2.0826538
1409350606691,1.3401544,8.537125,1.4903905,1.1257466,9.526524,2.0367694
1409350606693,1.4628572,9.218275,1.7657237,1.0708252,9.543179,1.9878327
1409350606697,1.638831,9.406818,1.7621324,1.005853,9.559064,1.9449849
1409350606731,1.8626889,9.34038,1.5191209,0.931126,9.5738325,1.9092286
1409350606732,1.6621746,9.365519,1.2557588,0.8527887,9.588317,1.8727865
1409350606734,0.9487024,9.664195,0.87089086,0.76839536,9.605045,1.8229274
1409350606757,0.1376666,9.718663,0.5386954,0.6748985,9.625643,1.7498248
1409350606760,-0.60693014,9.377489,0.1436521,0.5732351,9.647626,1.6628648
1409350606765,-1.228824,8.872313,-0.47046062,0.46620998,9.667759,1.5771757
1409350606793,-1.6316484,8.385692,-0.84455466,0.3586574,9.684032,1.5037627
1409350606794,-1.7723078,8.166622,-0.19033903,0.2575576,9.695976,1.4464111
1409350606797,-1.7543513,8.635287,0.30466217,0.17197526,9.703287,1.4096242
1409350606798,-1.5628152,8.850765,0.60094464,0.1038935,9.706888,1.3913685
1409350606814,-1.2791022,8.804677,0.59495914,0.04765826,9.707001,1.3936504
1409350606817,-0.7846996,8.611345,0.34596214,-0.00818433,9.705338,1.4059699
1409350606828,-0.28072014,8.798691,0.1388637,-0.06417758,9.701309,1.432088
1409350606852,0.046686932,8.861539,0.047285482,-0.13036855,9.697218,1.4551141
1409350606853,0.107140526,8.714295,0.1340753,-0.2092112,9.695159,1.4596225
1409350606856,0.53450555,8.670003,0.110731825,-0.30016077,9.694798,1.4460955
1409350606881,1.2210429,8.758589,0.36272156,-0.394406,9.694478,1.4254519
1409350606882,1.8986019,9.056067,0.7769185,-0.4820362,9.692238,1.4137013
1409350606888,2.3421278,9.3822775,1.3174095,-0.55550873,9.687072,1.4221219
1409350606918,2.4384944,9.208099,1.721431,-0.61663234,9.678137,1.457337
1409350606919,2.4361002,8.886678,1.8567034,-0.6699128,9.664771,1.5211288
1409350606921,2.2643163,8.478467,1.7034745,-0.71992385,9.6469,1.6091624
1409350606956,1.8106151,7.9972324,1.5478514,-0.7729846,9.62663,1.7031951
1409350606958,1.5897499,7.5507135,1.4945804,-0.8313706,9.603746,1.8020121
1409350606961,1.7411832,7.204153,1.407192,-0.89661485,9.580753,1.8909295
1409350606963,1.9877859,6.9264255,1.5047557,-0.965239,9.559592,1.9628766
1409350607004,1.7902644,7.0832458,2.1003134,-1.03041,9.541131,2.0187733
1409350607006,1.2850877,7.3208704,2.6449943,-1.0866456,9.52458,2.06688
1409350607009,0.55246204,7.8745294,2.7497406,-1.1330144,9.508853,2.1138592
1409350607011,-0.28072014,8.895657,2.6677392,-1.1738633,9.493666,2.159335
1409350607015,-0.46986207,9.75697,2.0512323,-1.213944,9.479893,2.1973565
1409350607030,0.034715924,9.93474,0.86011696,-1.2540052,9.469149,2.221054
1409350607031,1.1073183,10.038289,0.29987377,-1.2932237,9.462793,2.2256467
1409350607037,1.70946,10.605117,1.1049241,-1.3256809,9.459753,2.2194688
1409350607075,1.6124948,11.383232,2.0644004,-1.3546226,9.459145,2.2045343
1409350607077,1.3162124,11.677719,2.5372553,-1.3820856,9.458314,2.1910126
1409350607079,0.8319851,11.64839,2.405574,-1.406796,9.455283,2.1883624
1409350607080,0.44831428,11.585542,1.869273,-1.4289645,9.451716,2.1894093
1409350607104,0.41718966,11.455657,1.8818425,-1.4449738,9.452026,2.1775281
1409350607106,0.9672575,11.2605295,2.2960393,-1.4485108,9.458791,2.1455688
1409350607110,1.1408371,10.812215,2.336741,-1.430234,9.472587,2.0964072
1409350607130,0.86370826,10.563816,1.8782512,-1.389454,9.490967,2.0399435
1409350607131,0.8074445,10.667964,2.1942859,-1.330832,9.511579,1.9822067
1409350607137,0.59136784,10.250774,2.1990743,-1.2593725,9.532581,1.9272523
1409350607171,-0.18016368,9.136273,1.2378023,-1.1891568,9.55331,1.8683114
1409350607172,-2.284667,7.1107793,0.59376204,-1.1184334,9.576875,1.7896862
1409350607174,-3.366846,7.3388267,0.27832595,-1.053548,9.602452,1.6891836
1409350607177,-4.747702,9.237429,0.24839842,-0.9850374,9.629297,1.5737574
1409350607198,-5.7784057,13.169905,0.36631286,-0.92163724,9.653863,1.4573698
1409350607199,-5.7903767,18.18516,0.22984336,-0.86796516,9.67407,1.3525603
1409350607208,-4.7536874,19.608511,-0.6536171,-0.8121359,9.690575,1.2663311
1409350607226,-2.825158,19.608511,-0.6907272,-0.7250524,9.706311,1.1967478
1409350607248,-2.2948422,19.281105,0.55485624,-0.5958233,9.720669,1.150649
1409350607249,-1.9470845,16.205154,1.5795746,-0.4676466,9.727232,1.1544068
