time,acc_x,acc_y,acc_z,gravity_x,gravity_y,gravity_z1409350115090,-0.040102877,9.791088,1.4646529,-0.13312183,9.666923,1.64416281409350115091,-0.17058687,10.011953,1.42455,-0.13892679,9.669335,1.6294361409350115097,-0.30286652,10.248381,1.9548657,-0.14514428,9.671716,1.61469591409350115116,-0.04249708,9.515156,0.92057055,-0.15144068,9.673245,1.60492341409350115133,-0.20350714,10.072407,1.4089876,-0.15509039,9.675833,1.58889461409350115133,-0.42437226,10.355521,1.5520413,-0.16096984,9.677557,1.57778281409350115151,-0.50996494,10.016143,1.3503298,-0.17184688,9.679391,1.56532511409350115152,-0.5021838,9.896433,1.2659341,-0.18618031,9.680637,1.55595911409350115165,-0.47644615,9.944916,1.3467385,-0.20147644,9.681255,1.55018511409350115166,-0.4357447,9.900622,1.364695,-0.21647827,9.681726,1.54521931409350115181,-0.53570265,9.76535,1.3425486,-0.23112774,9.681882,1.54212391409350115199,-0.7062895,9.696517,1.3575124,-0.24784105,9.6818905,1.53947271409350115200,-0.7044938,9.615712,1.340753,-0.26695773,9.682044,1.53529691409350115215,-0.6847417,9.588778,1.3904326,-0.28508884,9.68243,1.52959361409350115217,-0.82121116,9.766547,1.417966,-0.3011082,9.682842,1.52391051409350115231,-0.8403648,9.779117,1.4036007,-0.3173269,9.683166,1.51854881409350115246,-0.7637503,9.683349,1.4053963,-0.33219135,9.683252,1.51481751409350115247,-0.6254852,9.576208,1.4694413,-0.3453759,9.682968,1.51368931409350115262,-0.61112,9.618706,1.5035586,-0.35748482,9.682353,1.51480171409350115265,-0.6512229,9.925163,1.4520833,-0.37116784,9.681738,1.51545241409350115280,-0.75237787,9.986216,1.3443443,-0.3875788,9.681434,1.5132791409350115297,-0.79607207,9.831789,1.2982559,-0.40645695,9.68159,1.50731791409350115299,-0.7703344,9.664794,1.3401544,-0.42583245,9.682152,1.49833321409350115314,-0.78769237,9.596559,1.4095862,-0.44431943,9.682658,1.48966121409350115333,-0.74758947,9.7324295,1.4460979,-0.46228415,9.682761,1.48352671409350115334,-0.5805939,9.744401,1.365892,-0.479399,9.682649,1.47881691409350115353,-0.58418524,9.822811,1.3551182,-0.4944236,9.68241,1.47541631409350115354,-0.5686229,9.843162,1.3652935,-0.5078024,9.682197,1.47227861409350115361,-0.55605334,9.690532,1.3581109,-0.5200098,9.682071,1.46883571409350115366,-0.54168814,9.799467,1.4197617,-0.5321498,9.681811,1.46619681409350115389,-0.45489833,9.785701,1.4209588,-0.54391015,9.681426,1.46442911409350115390,-0.4285621,9.662998,1.411382,-0.55406195,9.681215,1.46201241409350115398,-0.37708676,9.527127,1.4377182,-0.5622743,9.681094,1.45967561409350115426,-0.2873042,9.494805,1.5388732,-0.56876284,9.680843,1.45881761409350115427,-0.25737667,9.451111,1.5933412,-0.5737779,9.680319,1.46033951409350115428,-0.20410569,9.478046,1.5574282,-0.57820654,9.679631,1.46315741409350115456,-0.23163901,9.653421,1.525705,-0.5817527,9.679086,1.46535291409350115456,-0.2633622,9.854534,1.4748282,-0.5845577,9.678769,1.46632891409350115457,-0.24181437,9.946113,1.4454993,-0.58731776,9.67859,1.46641281409350115466,-0.24540567,9.952098,1.4143747,-0.59040135,9.678507,1.46572331409350115488,-0.0724246,9.7563715,1.4036007,-0.59352505,9.678578,1.46398071409350115489,0.08798691,9.729437,1.4580688,-0.59434664,9.678985,1.46095631409350115497,0.25617957,9.449316,1.541866,-0.59225035,9.679649,1.45740011409350115515,0.11731588,9.402629,1.7208325,-0.58735895,9.680196,1.45575061409350115534,0.20470424,9.362526,1.6699557,-0.5831384,9.680277,1.45691081409350115535,0.3238158,9.400833,1.632247,-0.58023685,9.680248,1.4582481409350115543,0.66738373,9.417592,1.5753847,-0.57608855,9.68063,1.45735651409350115546,0.82899237,9.454702,1.5903485,-0.5675714,9.681572,1.45444131409350115576,0.82599956,9.549872,1.6555905,-0.55442744,9.6830225,1.44985931409350115578,0.6859388,9.227253,1.8602947,-0.54390246,9.684154,1.44628191409350115579,-0.39145198,9.722853,2.2260091,-0.5447394,9.683902,1.44764271409350115610,-0.85652566,10.428544,1.8710686,-0.56565297,9.681812,1.45359551409350115611,-0.56323594,10.2735195,1.1558008,-0.5935683,9.68035,1.45219981409350115612,-0.30406362,10.017939,1.0468647,-0.60685915,9.682181,1.43438861409350115638,-0.107140526,9.595961,1.4478935,-0.6021582,9.686152,1.4093481409350115639,-0.18614918,9.298481,1.7310078,-0.5900572,9.689194,1.39346611409350115640,-0.20590134,9.218275,1.7310078,-0.578463,9.690755,1.38745341409350115646,-0.142455,9.277532,1.7016789,-0.5671608,9.692124,1.38254651409350115670,-0.1945289,9.47206,1.6813282,-0.555852,9.6939335,1.37443021409350115671,-0.47405192,9.89344,1.4969746,-0.54483676,9.696433,1.36115411409350115677,-0.521936,9.872491,1.3096284,-0.53785264,9.699499,1.34194951409350115699,-0.49081135,9.581595,1.3012487,-0.53269804,9.702973,1.31869161409350115700,-0.52253455,9.649231,1.3401544,-0.52682155,9.70635,1.29600371409350115714,-0.65421563,9.6288805,1.2563573,-0.5192037,9.709378,1.27623241409350115731,-0.6859388,9.448717,1.2395979,-0.5119161,9.712127,1.25813641409350115731,-0.6332663,9.446921,1.2545617,-0.50677925,9.714574,1.24121141409350115748,-0.6039374,9.581595,1.2635399,-0.5031863,9.71657,1.22697661409350115749,-0.56682724,9.640253,1.22224,-0.4991258,9.71826,1.21519551409350115760,-0.56802434,9.828198,1.0534488,-0.49386492,9.719928,1.20395341409350115767,-0.6302736,10.168175,1.0390835,-0.4879252,9.721685,1.19211671409350115796,-0.6147113,10.275315,0.9427169,-0.4828017,9.723387,1.18027021409350115797,-0.5979519,10.184336,0.84455466,-0.47835052,9.72497,1.16899451409350115799,-0.5351041,9.887454,0.8439561,-0.47445512,9.726397,1.15864961409350115828,-0.5758055,9.73662,1.0007763,-0.46961048,9.72776,1.14915261409350115829,-0.56203884,9.673173,1.0462662,-0.46572527,9.728886,1.14118281409350115831,-0.623091,9.485229,0.93972415,-0.46526563,9.729882,1.13282981409350115856,-0.65062433,9.324219,0.83497787,-0.47111154,9.730873,1.12183831409350115856,-0.5566519,9.449316,0.7697359,-0.48282933,9.73164,1.11015951409350115858,-0.40581718,9.645041,0.99538934,-0.4961028,9.732029,1.1008571409350115882,-0.38726214,9.876082,0.80804306,-0.50771195,9.732059,1.09530081409350115883,-0.34955344,10.119692,0.59735334,-0.5180212,9.732177,1.08938661409350115898,-0.3172317,10.345944,0.47046062,-0.5272987,9.733094,1.07668211409350115915,-0.29628247,10.44231,0.19692309,-0.5362158,9.735133,1.05358981409350115915,-0.18555063,10.45069,-0.062249243,-0.5463131,9.7381315,1.0201571409350115928,-0.037708677,10.4967785,-0.108936176,-0.5594183,9.741342,0.981696371409350115929,-0.04129998,10.408792,0.08080431,-0.57499504,9.744157,0.94402121409350115945,0.015562311,10.073604,0.3184288,-0.59173024,9.745818,0.91611651409350115946,0.10115502,9.96766,0.48841715,-0.6103992,9.745957,0.902299761409350115962,0.16160862,10.2495775,0.47884035,-0.6306204,9.74507,0.89794641409350115978,0.27234045,10.594941,0.42676646,-0.6494749,9.744273,0.893140261409350115978,0.19692309,10.749966,0.4405331,-0.6654698,9.743776,0.886791051409350115994,0.06823475,10.26514,0.57400984,-0.67976755,9.74352,0.87870451409350115998,-0.095768064,9.674969,0.6859388,-0.69781846,9.742583,0.87493981409350116011,-0.2717419,9.337985,0.7553706,-0.72231317,9.740597,0.87717971409350116029,-0.44711718,9.503185,0.7194576,-0.7508864,9.737908,0.8830151409350116029,-0.74998367,10.048465,0.6194997,-0.7788487,9.735073,0.8900081409350116044,-0.90261406,10.359112,0.56682724,-0.8041846,9.732519,0.895403441409350116046,-0.88765025,9.831191,0.4818331,-0.8250331,9.730496,0.89840191409350116059,-0.7098808,9.589376,0.35075054,-0.8395227,9.729044,0.90073251409350116077,-0.81642276,9.307459,0.23702596,-0.84930855,9.728112,0.90161991409350116095,-1.0708067,9.455301,0.18255788,-0.86009926,9.727254,0.900644961409350116095,-0.8194155,9.7162695,0.29508537,-0.874715,9.726478,0.89492951409350116098,-0.8996213,9.935339,0.2160767,-0.891798,9.725709,0.88638221409350116112,-0.98940384,10.295666,0.2908955,-0.9118207,9.724731,0.8766751409350116127,-0.74639237,11.270704,0.44113165,-0.9313103,9.723603,0.86867621409350116127,-0.6356605,10.211869,0.46327803,-0.9457158,9.722603,0.864296851409350116142,-0.58418524,9.933543,0.40880993,-0.95686024,9.721486,0.86459791409350116146,-0.39983168,10.047866,0.5566519,-0.96579325,9.720812,0.862241271409350116159,-0.78888947,10.1304655,0.6847417,-0.97463703,9.720538,0.855339941409350116181,-0.46028528,10.864288,0.62249243,-0.99170494,9.719535,0.847101751409350116182,-0.7128736,11.19828,0.641646,-1.0114032,9.718459,0.8360761409350116207,-0.42796355,10.584765,0.4818331,-1.035174,9.717042,0.82335621409350116208,-0.22625206,9.084799,0.28191724,-1.0590101,9.715841,0.80704241409350116208,-0.1412579,7.7997108,0.025737667,-1.0833141,9.714769,0.787457171409350116227,-0.24600422,6.8348475,-0.04189853,-1.1073748,9.713835,0.765188461409350116227,-0.7260417,6.9665284,0.35314476,-1.1350564,9.712234,0.74469241409350116242,-0.6835446,8.898649,0.66618663,-1.1690048,9.708971,0.734663071409350116246,-0.7230489,9.039907,0.57999533,-1.1993074,9.705119,0.73670431409350116263,-0.84934306,9.335591,0.4842273,-1.2239847,9.701528,0.743372441409350116275,-0.93493575,9.657611,0.37110126,-1.2454699,9.698491,0.74731321409350116278,-1.0576386,9.849746,0.22565351,-1.2657776,9.696012,0.7453571409350116296,-1.1007342,10.093954,0.14185645,-1.2875925,9.69357,0.739744251409350116316,-1.1348516,10.044873,0.06584055,-1.3104692,9.691169,0.730947551409350116317,-1.0528502,9.934141,0.038307227,-1.3370497,9.688132,0.72302821409350116321,-1.2150574,9.515755,0.08738836,-1.3661187,9.684331,0.71962631409350116327,-0.93732995,9.603742,0.15622166,-1.3991953,9.67949,0.72118991409350116350,-0.8295909,9.721058,0.18674773,-1.4293071,9.674736,0.725913051409350116351,-0.8182184,9.723452,0.30645782,-1.454072,9.670574,0.73213781409350116358,-0.8343793,9.759963,0.2837129,-1.4747654,9.666908,0.739164231409350116378,-0.81283146,9.679757,0.28191724,-1.4956285,9.663239,0.745209161409350116381,-0.82719666,9.509769,0.3465607,-1.5175203,9.659472,0.74973711409350116399,-0.8403648,9.342773,0.40342298,-1.5408314,9.655418,0.75441511409350116400,-0.85173726,9.329007,0.33997664,-1.5649308,9.651138,0.75953421409350116407,-0.830788,9.379285,0.2220622,-1.5908735,9.646763,0.76123591409350116433,-0.79248077,9.465476,0.21428105,-1.6174377,9.642627,0.757651871409350116434,-0.7541735,9.581595,0.17238252,-1.6430998,9.638702,0.75234621409350116443,-0.6775591,9.6049385,0.08319851,-1.6667714,9.634901,0.748979451409350116447,-0.58777654,9.727641,-0.076015905,-1.6877335,9.631231,0.74920361409350116468,-0.43514615,9.961675,-0.17238252,-1.7050761,9.628001,0.75145161409350116469,-0.25198972,10.220248,-0.20350714,-1.7180418,9.625347,0.75592131409350116479,-0.048482586,10.378265,-0.18674773,-1.7261196,9.623302,0.763516551409350116505,0.18555063,10.461464,-0.12210429,-1.7290381,9.62186,0.775002241409350116506,0.38307226,10.6117,-0.054468088,-1.7270517,9.620978,0.790238741409350116507,0.59256494,10.666168,0.002394202,-1.7217482,9.620511,0.80731251409350116537,0.78888947,10.589554,0.19093758,-1.7134601,9.620418,0.82584761409350116538,0.83856916,10.55005,0.45609543,-1.7039448,9.620341,0.84616761409350116539,0.7667431,10.503363,0.8265981,-1.6944036,9.620079,0.86803711409350116547,0.56922144,10.539276,1.234211,-1.6846218,9.619498,0.893135131409350116561,0.31184477,10.683527,1.8016368,-1.6739653,9.618734,0.92096791409350116576,0.3172317,10.242993,2.3636756,-1.6597655,9.617994,0.953806041409350116578,0.39444473,10.002377,2.167351,-1.6383935,9.618129,0.988761661409350116594,0.3633201,10.439917,2.7694929,-1.6073643,9.621525,1.00649551409350116610,0.3854665,10.368689,3.1495724,-1.5672344,9.626915,1.01817731409350116611,0.21906945,10.230424,2.042254,-1.52247,9.632546,1.03274211409350116626,-0.75596917,10.432734,1.3880384,-1.4805609,9.638667,1.0365531409350116628,-1.3072342,10.641029,1.0217255,-1.4448187,9.6456995,1.02145181409350116643,-1.5275006,10.681132,0.82899237,-1.4142656,9.653936,0.98578881409350116659,-1.7932571,10.456078,0.40521863,-1.3875479,9.662568,0.938031409350116660,-2.4265234,10.102334,-0.04129998,-1.3648206,9.671063,0.88214771409350116678,-2.3582888,9.890448,-0.4345476,-1.3464452,9.67895,0.821841409350116694,-3.2345665,9.60015,-0.5117606,-1.3236004,9.687132,0.76023241409350116695,-3.401562,10.009559,-0.16519992,-1.2981828,9.694975,0.70184661409350116708,-3.4685998,9.981427,0.25617957,-1.2657582,9.702489,0.655725961409350116709,-3.394978,10.334572,0.60812724,-1.2263223,9.70937,0.62821611409350116726,-3.4009635,10.833763,0.6955156,-1.1818694,9.715878,0.61263051409350116727,-3.3333273,11.304822,0.6925228,-1.1323751,9.721877,0.61090021409350116743,-3.2782607,11.471817,0.9804256,-1.0789545,9.727424,0.619252151409350116760,-3.3051953,11.009138,1.4101849,-1.0219914,9.732491,0.63606171409350116760,-3.6828809,10.016742,1.9788077,-0.965262,9.736583,0.661515831409350116774,-3.8540661,9.324817,2.7844565,-0.9133806,9.739107,0.69708241409350116779,-3.6032736,9.234436,3.086126,-0.86307305,9.7401085,0.74550861409350116792,-3.5290532,9.147048,3.1346085,-0.8046987,9.741037,0.796910051409350116809,-2.6048915,10.0029745,2.2631192,-0.7363866,9.742966,0.83829511409350116809,-1.3138182,10.214862,1.6723499,-0.64897084,9.747293,0.85992771409350116828,-0.6955156,10.189124,1.0845734,-0.5455888,9.753039,0.86658311409350116828,-0.12210429,10.240001,0.676362,-0.43874544,9.758696,0.863567771409350116842,0.23942018,10.216658,0.4902128,-0.33211905,9.764102,0.849946741409350116862,0.4309563,10.069414,0.50158525,-0.22797705,9.768766,0.8304411409350116862,0.52073884,9.909002,0.7134721,-0.12889417,9.772167,0.811499361409350116875,0.6147113,9.664195,0.9451111,-0.035714068,9.773988,0.798942151409350116879,0.7206547,9.602545,1.282095,0.050852966,9.774066,0.797149361409350116893,0.47345337,8.900445,1.3772645,0.1331063,9.77238,0.80824011409350116909,0.6440403,8.797494,1.459266,0.2091618,9.769302,0.82908311409350116909,0.5859809,8.448539,1.4838065,0.284116,9.764993,0.85708451409350116926,0.557849,7.9301944,1.5688007,0.35848692,9.759725,0.88864211409350116927,0.5686229,7.4896617,1.541866,0.431835,9.753753,0.920991841409350116942,0.8774749,7.704541,1.5729905,0.5038059,9.747363,0.95158731409350116962,0.9947908,7.773973,1.5275006,0.5790553,9.7401285,0.98234491409350116963,0.9487024,7.685986,1.4526819,0.65781146,9.731977,1.01305121409350116976,0.92176765,7.714118,1.3006501,0.734602,9.723534,1.04097161409350116990,0.8900445,7.6985555,1.1444284,0.8072504,9.715173,1.06498221409350116991,0.89064306,7.57286,1.0833763,0.87685066,9.70673,1.08671211409350117008,1.1055226,7.234679,1.1085154,0.94125724,9.698514,1.1060091409350117009,1.3551182,7.120356,1.2144588,0.999849,9.690661,1.12328221409350117025,1.602918,6.925827,1.3754689,1.0517392,9.683342,1.13891511409350117027,1.9428947,6.7971387,1.5221137,1.0956895,9.676691,1.15389781409350117043,2.3343468,6.915652,1.6759412,1.1353133,9.670287,1.16919211409350117057,2.5965118,7.049727,1.785476,1.1631066,9.665111,1.18457961409350117059,2.7682958,7.2508397,1.8860323,1.1784285,9.661443,1.19926481409350117075,2.9945478,7.4447703,1.9985598,1.1818464,9.659351,1.21265591409350117092,2.8820202,7.6524673,2.2876596,1.1756289,9.658512,1.22532241409350117093,3.1705215,8.236053,2.393603,1.159978,9.658558,1.2398031409350117109,2.996942,8.614936,2.5683799,1.1436603,9.658535,1.25504041409350117110,3.192668,9.218275,2.5408466,1.1259779,9.658778,1.26908411409350117125,2.8868086,9.624691,2.8431146,1.1137156,9.659074,1.27763631409350117127,2.5719712,10.188525,2.9317,1.1062841,9.65953,1.28063021409350117140,2.2212207,10.960057,2.8754363,1.1056558,9.6602545,1.27570941409350117159,1.8339585,11.873445,2.4774003,1.107142,9.661295,1.26649151409350117162,1.8369513,12.422316,2.112883,1.118031,9.662462,1.24788361409350117175,2.0608091,12.245743,1.8106151,1.1464957,9.6621685,1.22411011409350117189,3.4919431,11.909956,2.1571758,1.1999592,9.658494,1.20165461409350117189,4.2305546,10.451887,2.5079262,1.2911719,9.648384,1.18824851409350117207,4.68665,10.647614,3.9833531,1.4054219,9.633217,1.1816661409350117207,4.703409,13.422493,5.4976854,1.535679,9.612058,1.19181641409350117226,3.5727475,17.029358,4.63697,1.6717737,9.585274,1.22395971409350117227,2.3636756,19.135656,1.7244238,1.7831074,9.56214,1.24755061409350117239,0.005985504,18.274343,1.3652935,1.8572412,9.550235,1.23046121409350117257,-2.1033063,16.159664,-0.005985504,1.8849411,9.547145,1.21219111409350117260,-2.5181017,14.122797,-1.0522517,1.8888419,9.55099,1.17527411409350117275,-2.6276364,11.721413,0.24600422,1.8800569,9.557124,1.13893881409350117291,-2.3535004,9.771336,1.1252748,1.8566225,9.5601,1.15231031409350117291,-1.9806033,8.075044,1.9129672,1.8198011,9.561698,1.19693291409350117315,-1.2940661,6.862979,1.8004397,1.7778343,9.564554,1.23652611409350117317,-0.46627077,6.413468,1.5640123,1.738813,9.569598,1.25288671409350117320,0.107140526,6.771401,1.3706805,1.7062364,9.57592,1.24936661409350117328,0.2908955,7.3029137,1.0708067,1.6798842,9.582997,1.2306771409350117343,0.7110779,7.8667483,0.76195467,1.6530534,9.591821,1.19783071409350117357,1.1115081,8.327632,0.4405331,1.6208199,9.6027565,1.15342751409350117359,1.1611878,8.99322,0.24839842,1.5856708,9.61432,1.10493971409350117374,0.91697925,10.198701,0.6607997,1.5412992,9.627444,1.05220451409350117392,0.51355624,11.71004,0.44771573,1.4830564,9.641475,1.00644291409350117392,-0.12150574,10.976217,-0.2705448,1.4079107,9.656906,0.965582671409350117406,-0.49200845,10.642825,-0.36870706,1.319446,9.673583,0.92262121409350117408,-0.7266402,10.618883,-0.01436521,1.2209293,9.691392,0.86985451409350117422,-0.9044097,10.292673,0.16759412,1.116131,9.709108,0.81109271409350117428,-1.1629834,9.606135,0.01316811,1.0094361,9.724979,0.75909131409350117440,-1.1186907,8.854357,-0.1412579,0.90600634,9.73806,0.720926761409350117461,-1.1210849,8.482059,-0.12509704,0.81175625,9.748269,0.694779341409350117462,-0.7170634,8.565256,0.19393034,0.7307665,9.755977,0.67624741409350117481,-0.15682021,8.875306,0.5746084,0.6607962,9.761921,0.66229541409350117482,0.024540568,9.267955,0.86729956,0.61130667,9.76554,0.6564461409350117488,-0.26156655,9.27394,0.8194155,0.5712485,9.7676525,0.66108631409350117508,-0.6619968,8.981249,0.47884035,0.5230229,9.769524,0.673251871409350117508,-1.0696096,8.680179,0.092176765,0.45618653,9.772418,0.679794131409350117524,-1.0480618,8.91062,-0.26396075,0.3688016,9.776847,0.66908291409350117541,-1.0456676,9.268554,-0.29209262,0.26588488,9.7820835,0.64073451409350117541,-0.7493851,9.3978405,-0.42317516,0.15386498,9.7867155,0.605750141409350117555,-0.46507367,9.185953,-0.4950012,0.040715456,9.78969,0.575094761409350117559,0.3633201,8.928576,0.17477672,-0.06580098,9.79042,0.560121061409350117575,0.46627077,8.683171,0.5009867,-0.15478984,9.789345,0.561401961409350117590,0.46686932,8.632295,0.9504981,-0.23594965,9.785982,0.59101551409350117590,0.32680854,8.606557,1.2826935,-0.30695733,9.780173,0.65143851409350117607,0.19153613,8.513782,1.3036429,-0.3726313,9.771878,0.73615761409350117608,0.15861586,8.423999,1.0151415,-0.43933392,9.761442,0.831638341409350117623,0.26755205,8.210316,0.56323594,-0.50980645,9.749856,0.92238981409350117640,0.57161564,8.104373,0.23642741,-0.5848867,9.738163,0.998250961409350117643,0.8810662,8.298902,0.27353755,-0.66176707,9.727155,1.05588391409350117657,1.1204864,8.561666,0.6679823,-0.73607755,9.716819,1.10091041409350117659,1.2036849,9.062054,1.1139023,-0.8020673,9.706651,1.14368981409350117676,0.98222125,9.346365,1.4490906,-0.8582695,9.695914,1.19290721409350117690,0.5374983,9.523536,1.8806454,-0.9106848,9.684167,1.24819541409350117691,0.3477578,9.524733,2.4432828,-0.9631515,9.670647,1.31198881409350117705,0.17477672,9.59177,2.248754,-1.015985,9.655302,1.38322521409350117708,0.10474633,9.617508,1.6124948,-1.072625,9.639375,1.44993971409350117722,0.4177882,9.71986,0.97025025,-1.1313344,9.6253,1.49802291409350117738,0.97384155,9.901819,0.65301853,-1.1852112,9.614739,1.52396821409350117740,1.4562732,10.1161,0.7338228,-1.2275494,9.607576,1.53557131409350117763,1.448492,10.860099,1.4449008,-1.2587578,9.602614,1.5413331409350117763,1.13964,10.866683,1.7262194,-1.2815404,9.598218,1.54992181409350117768,0.85293436,10.935516,1.6585833,-1.2994622,9.593735,1.56270271409350117794,0.3226187,11.177331,1.858499,-1.3101074,9.590267,1.57505241409350117795,0.08140286,11.234193,2.4827871,-1.3200762,9.586992,1.58662721409350117800,-0.23582886,10.936115,2.8694508,-1.32125,9.585486,1.59471741409350117808,-0.9516952,10.304046,2.343325,-1.3131019,9.586439,1.59571911409350117831,-0.21308395,9.631873,1.9806033,-1.2948709,9.59027,1.58759011409350117832,-1.7495629,8.0606785,2.2278047,-1.2543939,9.598407,1.5708141409350117840,-1.6310499,7.4124484,1.7830818,-1.2175525,9.60855,1.53744361409350117864,-2.9460652,6.2045736,0.94930094,-1.1762886,9.623903,1.47214721409350117865,-4.5441947,5.6108117,0.04369418,-1.1324677,9.643754,1.37329271409350117868,-5.481525,6.5840545,-1.062427,-1.0852374,9.666399,1.2463431409350117902,-6.0567317,9.093777,-1.5101427,-1.0345953,9.689181,1.10442891409350117902,-6.013636,13.090298,-1.2509704,-0.9733513,9.7097845,0.971116961409350117903,-4.587889,17.933168,-0.8475474,-0.90794355,9.727521,0.849330251409350117908,-2.80361,19.608511,-0.85413146,-0.8016823,9.743713,0.766631961409350117930,-1.335366,19.60073,-0.79966336,-0.64195734,9.758878,0.72289031409350117931,-2.1015105,17.780539,0.14305355,-0.45654675,9.770589,0.705391171409350117941,-1.8513165,11.046846,3.5033157,-0.3128919,9.774714,0.72624241409350117963,-1.970428,9.179968,5.21517,-0.19451198,9.770944,0.81316571409350117964,-2.767697,8.751406,5.281609,-0.09777071,9.76202,0.92939761409350117968,-3.1609447,8.993818,4.1455603,-0.019385584,9.751618,1.03728071409350117998,-2.086547,10.222643,3.1399956,0.058575198,9.744819,1.09794341409350117999,-2.1386206,8.622718,2.6461914,0.16096151,9.742664,1.1067961409350118000,-1.7549498,7.20535,2.4911668,0.27506664,9.741211,1.09705751409350118008,-0.6997054,7.523779,2.493561,0.4094383,9.738973,1.07476961409350118024,0.44951138,8.203134,2.1320367,0.548949,9.73459,1.05205951409350118040,1.1994951,8.482059,1.3814543,0.69876033,9.727815,1.02554071409350118041,1.1647792,8.202535,0.59376204,0.8510265,9.719301,0.99063241409350118055,1.1240777,7.8410106,0.19812019,0.98540753,9.710407,0.95256361409350118073,1.0061632,7.349601,0.15741876,1.095568,9.701416,0.923389551409350118073,0.88166475,6.96174,0.3633201,1.1874352,9.691847,0.91021541409350118090,0.6218939,6.4068837,0.5518635,1.2671163,9.6814,0.913953541409350118091,0.7751228,6.4870896,0.7745243,1.3380089,9.6702585,0.93071311409350118107,0.7200562,6.4008985,0.79367787,1.4050819,9.658264,0.95605761409350118108,0.95827925,6.5840545,0.88765025,1.4701419,9.645824,0.98343281409350118121,1.2982559,6.7929487,1.0366893,1.531377,9.633425,1.01115121409350118139,1.4203602,7.08983,1.3024458,1.5889354,9.621436,1.03616021409350118140,1.447295,7.1490865,1.400608,1.6400771,9.610415,1.0585081409350118155,1.6184803,7.2604165,1.4449008,1.683538,9.601002,1.07558911409350118172,1.8543092,7.507618,1.4526819,1.7209611,9.5933275,1.08480041409350118173,2.079364,7.657854,1.4203602,1.7539175,9.587478,1.08371841409350118190,2.3175871,7.700351,1.4137762,1.7814565,9.583762,1.07159111409350118190,2.6144683,7.823054,1.4915876,1.800081,9.582381,1.05264761409350118205,2.9514523,8.04751,1.5478514,1.8079047,9.582848,1.03483891409350118208,3.289633,8.39467,1.5304934,1.804397,9.584795,1.02286341409350118221,3.5523968,8.920197,1.7741034,1.7959046,9.587209,1.01517161409350118237,3.7900212,9.395446,2.0769699,1.774752,9.590712,1.0192641409350118265,4.079121,9.642049,2.3211784,1.7416947,9.594608,1.03941991409350118266,4.221576,9.607333,2.48578,1.7002047,9.5983095,1.07338861409350118267,4.302979,9.431359,2.484583,1.6541957,9.601523,1.11570321409350118269,3.4398694,9.500791,2.7778726,1.6092786,9.604025,1.15903011409350118296,1.5382746,10.572795,3.5727475,1.5647677,9.606597,1.19798831409350118297,0.82360536,12.12723,3.1052797,1.5180188,9.609996,1.23044411409350118301,0.842759,12.388797,1.7250223,1.4869349,9.613469,1.24122481409350118308,1.858499,11.672931,0.30825347,1.4872152,9.615696,1.22351461409350118321,4.497508,9.615114,0.19752164,1.5126901,9.615674,1.19204251409350118337,6.165668,9.072827,1.8207904,1.5867579,9.606723,1.16766561409350118340,4.758476,10.358514,5.5862713,1.6904902,9.5891485,1.16656631409350118368,3.371036,14.934432,7.216124,1.7905805,9.566412,1.20331111409350118369,2.854487,18.810045,4.745308,1.8710464,9.543717,1.25977911409350118370,1.3030443,18.865711,2.735974,1.9253001,9.529948,1.28208041409350118399,-1.8124107,16.913837,2.6198552,1.9473587,9.523899,1.293651409350118400,-3.6709096,14.813524,1.2976574,1.919473,9.526485,1.31608521409350118401,-3.9175124,14.390948,-0.42556936,1.8597227,9.535697,1.3350281409350118409,-4.3538556,14.064139,-1.2300211,1.7775302,9.548826,1.35302891409350118427,-4.671686,12.918514,-2.0099323,1.6756433,9.566115,1.36089741409350118465,-4.1305966,10.79366,-2.070386,1.5735493,9.584177,1.35568171409350118476,-3.2004492,9.69113,-1.0313023,1.479849,9.599856,1.35025871409350118478,-2.2176294,9.5809965,0.025139118,1.3992552,9.6109,1.35760011409350118480,-1.122282,8.949526,0.95349085,1.3343349,9.617798,1.37401521409350118482,0.008978256,7.9756846,1.5544355,1.2825277,9.622215,1.39230071409350118520,0.81043726,7.2125325,1.8686744,1.2325978,9.626528,1.40750771409350118521,1.2120646,6.9707184,2.1068976,1.1779171,9.632009,1.4168021409350118522,1.2509704,7.4082584,2.1350293,1.1163213,9.639398,1.41641241409350118523,0.89603,8.821436,1.9506758,1.0461557,9.6492815,1.40262331409350118525,0.60453594,9.294291,1.1959038,0.9651703,9.661884,1.37362891409350118548,0.21787235,9.339781,0.035314474,0.87449145,9.677472,1.32369541409350118549,-0.39743748,8.930372,-0.81642276,0.7779266,9.694585,1.25708341409350118550,-1.3323733,8.599374,-1.1540052,0.67312765,9.713316,1.16994521409350118577,-2.146402,8.693346,-1.2018893,0.5615083,9.730898,1.07923361409350118578,-2.835932,8.8645315,-1.3215994,0.446988,9.745477,0.998151241409350118580,-2.8419175,9.0315275,-1.3198037,0.33439305,9.75684,0.928778651409350118588,-2.834735,9.300277,-0.8439561,0.23202911,9.765021,0.87231611409350118612,-2.6623523,10.000581,-0.11671733,0.14236097,9.76988,0.836387041409350118613,-2.0386627,10.180145,0.1945289,0.063219406,9.771258,0.82999881409350118620,-1.2802993,9.345766,-0.046088383,-0.006566154,9.769592,0.85169761409350118646,-1.2886791,8.492233,-0.1448492,-0.07214286,9.766339,0.885317441409350118647,-0.931943,8.37013,-0.076015905,-0.14093728,9.762476,0.91900631409350118648,-0.587178,8.358158,0.15023616,-0.22207901,9.758659,0.94322061409350118671,-0.1364695,8.360553,0.17956513,-0.3161779,9.754659,0.9576281409350118672,0.39564183,8.111555,0.272939,-0.41706106,9.749586,0.97057991409350118689,1.091756,8.1343,0.45370123,-0.5170689,9.742929,0.989113151409350118689,1.4772224,8.2593975,0.6901286,-0.60622025,9.735422,1.01214531409350118713,1.4796166,8.403648,1.1145009,-0.6807378,9.727558,1.0400041409350118714,1.543063,8.471284,1.3221979,-0.74652976,9.718578,1.07809941409350118722,1.6699557,8.634089,1.4706384,-0.8074489,9.708084,1.12760971409350118753,1.5275006,8.648455,1.3437457,-0.8642149,9.6960945,1.18712521409350118754,1.3311762,8.500613,1.0965444,-0.919386,9.683251,1.24890351409350118754,1.3820529,8.500613,0.99060094,-0.9765629,9.669871,1.30779841409350118773,1.5185224,8.67539,0.9935937,-1.0324246,9.656358,1.36354121409350118775,1.6394296,9.100959,1.049259,-1.0860081,9.643058,1.41506411409350118795,1.5011644,9.415198,1.2659341,-1.13247,9.63075,1.4616961409350118796,1.2749124,9.7803135,1.6585833,-1.1718851,9.619006,1.50725621409350118800,0.8242039,9.835381,2.2176294,-1.20479,9.606955,1.55733071409350118821,0.45429978,9.771336,2.2242134,-1.2384756,9.592785,1.61710881409350118822,0.039504327,9.403826,1.875857,-1.2773715,9.57734,1.67727611409350118837,0.32621,9.260772,1.1330559,-1.325429,9.562239,1.7254631409350118865,1.0019734,9.422979,0.4345476,-1.3747119,9.550004,1.75442281409350118865,1.8674773,9.85633,0.32022446,-1.4174178,9.541446,1.76695111409350118866,2.1559787,10.351331,0.79248077,-1.4490321,9.535482,1.7734991409350118869,1.8872294,10.637438,1.364695,-1.4702183,9.531292,1.77857651409350118901,1.1893197,10.9426985,1.7190368,-1.4841229,9.526932,1.79035831409350118901,0.33997664,10.940305,2.705448,-1.4919596,9.522381,1.80796041409350118903,-0.02813187,10.278308,3.2734723,-1.4933592,9.517879,1.8303751409350118921,0.11372458,9.904813,3.25791,-1.4858693,9.515537,1.84854691409350118922,0.48243165,9.954493,3.1741128,-1.4613327,9.51766,1.85715811409350118938,0.50397944,9.81084,3.1723173,-1.4144573,9.525449,1.85351461409350118941,-0.12868834,9.3343935,2.4875755,-1.3547118,9.538665,1.83003511409350118959,-1.0869676,8.428787,1.3012487,-1.2972577,9.556977,1.77530941409350118979,-2.4103625,7.469909,0.3633201,-1.246169,9.578023,1.69674441409350118979,-3.6326025,7.1832037,-0.4842273,-1.201307,9.602153,1.58931421409350118981,-4.7937903,7.824251,-1.2880806,-1.1569353,9.629065,1.45361391409350118989,-5.418677,9.853935,-1.6932992,-1.1136497,9.656773,1.29496381409350119010,-5.639542,13.079524,-1.4401124,-1.0672203,9.68254,1.13131541409350119011,-5.156512,17.019182,-1.3138182,-1.0102037,9.704089,0.990231409350119021,-3.693056,19.54327,-1.9081788,-0.9304565,9.722281,0.884242531409350119042,-3.2172086,19.608511,-1.9602526,-0.80773103,9.74046,0.800869461409350119043,-3.6912606,18.065449,-0.6027403,-0.67429096,9.754722,0.749101341409350119049,-2.7623103,15.156494,1.6537948,-0.57163215,9.760243,0.76241041409350119082,-1.7304093,12.121244,3.815759,-0.48006678,9.75789,0.85061031409350119083,-1.5981296,9.509769,5.2648497,-0.38224253,9.750602,0.97471571409350119083,-2.4953568,8.973468,4.7818193,-0.29508418,9.738641,1.11453411409350119089,-2.023699,9.317635,3.9444473,-0.22311983,9.727082,1.22658191409350119116,-1.6436194,8.97287,3.393781,-0.14353257,9.720948,1.28567231409350119117,-1.2060791,7.61835,2.8215668,-0.044358727,9.720591,1.2955781409350119121,-0.4297592,7.0275807,2.5851393,0.07553108,9.722825,1.27725211409350119146,0.40761283,7.2328835,2.273893,0.20636111,9.725143,1.24474871409350119146,1.6579847,8.26239,1.7244238,0.34206626,9.726506,1.20351341409350119149,2.2301989,9.078215,1.2006922,0.48389566,9.726002,1.15807821409350119170,1.7681179,8.665813,0.5446809,0.6219868,9.723139,1.11538671409350119171,1.4742297,8.006809,0.1364695,0.7381198,9.718483,1.08474391409350119188,1.1486182,7.2993226,0.25677812,0.8395425,9.712588,1.06357071409350119189,0.7218518,6.6504936,0.516549,0.92034286,9.705073,1.0653181409350119209,0.5781997,6.131551,0.74519527,0.98770887,9.696066,1.08680371409350119210,0.6781576,5.8041434,0.8810662,1.0474267,9.685784,1.12201071409350119221,0.6937199,5.6138043,0.9804256,1.1038077,9.674419,1.16516611409350119239,0.83018947,5.6987987,1.1599907,1.1584156,9.662466,1.21047371409350119267,0.8283938,5.8292828,1.3204023,1.2100024,9.650743,1.25277391409350119268,0.7284359,6.005855,1.4263457,1.2576951,9.639799,1.28952261409350119269,0.7368156,6.285378,1.5370775,1.3003144,9.630286,1.31802091409350119270,0.9888053,6.7588315,1.400608,1.3369801,9.622935,1.33490941409350119292,1.2838906,6.996456,1.4119805,1.3673931,9.617495,1.34329011409350119293,1.6448165,7.2508397,1.5921441,1.3952131,9.614309,1.33747921409350119302,2.146402,7.5830355,2.0003555,1.4159484,9.613817,1.31909551409350119339,2.6479871,7.99005,2.1948843,1.4297014,9.615049,1.29506251409350119342,3.1160536,8.461707,2.1990743,1.4356958,9.617472,1.2701911409350119343,3.5350387,8.963293,2.2038627,1.4317782,9.621158,1.24649141409350119364,3.8355112,9.516952,2.4355016,1.4153119,9.626217,1.22606421409350119364,4.031237,9.913791,2.6641479,1.3855186,9.632321,1.21206831409350119365,4.4639893,10.113707,2.52289,1.3457264,9.638546,1.20741311409350119370,3.684078,9.743802,2.6581624,1.3048579,9.643895,1.20955441409350119394,2.746748,10.046669,3.1256304,1.2586126,9.649246,1.21585891409350119394,1.2180501,12.033856,3.6709096,1.2075306,9.654484,1.22604751409350119401,0.8643068,14.531009,2.7994204,1.1502627,9.658968,1.24564051409350119421,1.1558008,14.067132,0.9223662,1.1082909,9.662052,1.25969211409350119421,2.854487,11.899182,-0.39863458,1.1091536,9.663553,1.24736521409350119439,4.5364137,11.252748,0.338181,1.166614,9.660259,1.22016791409350119454,6.4344172,10.709264,2.184709,1.2680899,9.648813,1.20944321409350119455,4.502895,11.525088,6.7731967,1.4109268,9.62727,1.22284951409350119470,2.3199813,19.608511,2.4199393,1.543564,9.599727,1.27792061409350119470,-0.44532153,19.151817,0.91458505,1.6396526,9.585346,1.26612021409350119487,-1.9722236,15.252262,0.641646,1.6987206,9.578784,1.2375941409350119490,-1.7764976,11.911752,-0.31184477,1.7363229,9.572614,1.23315511409350119506,-1.1085154,10.348338,1.1492168,1.773825,9.563854,1.24765921409350119510,-1.3551182,9.644443,2.0153193,1.7929215,9.550642,1.31950371409350119521,-1.6310499,9.200917,1.2354081,1.7813542,9.538845,1.41689471409350119532,-1.6208745,8.491036,0.4782418,1.7432351,9.535573,1.48471711409350119562,-1.3790601,8.262989,0.39504328,1.6933457,9.5409,1.50804021409350119564,-1.3455414,8.613739,0.6619968,1.6432202,9.550232,1.50443121409350119565,-1.1857284,9.001001,0.45609543,1.5966877,9.560389,1.48995041409350119570,-0.5189432,8.945934,0.47105917,1.5517801,9.57171,1.46449781409350119592,0.6218939,9.205706,0.557849,1.5047154,9.584538,1.4292771409350119593,1.4257472,9.770139,0.49081135,1.4535923,9.598922,1.38496791409350119608,1.5131354,10.131064,0.45070848,1.3951042,9.614371,1.33714271409350119642,1.3221979,10.317812,0.717662,1.3297668,9.630592,1.28600781409350119643,1.210269,10.162787,0.9600749,1.2487128,9.646641,1.24637481409350119643,1.0360907,9.737218,0.97503865,1.1563439,9.661421,1.22073331409350119644,0.58657944,9.215282,0.82899237,1.0571158,9.676177,1.193521409350119649,-0.3812766,8.297106,0.6727707,0.94997543,9.692271,1.15230971409350119667,-0.7763199,7.9278,0.3561375,0.8336247,9.7085495,1.10432711409350119670,-1.1186907,7.6967597,-0.1448492,0.71589273,9.72323,1.05672781409350119685,-1.3928268,7.811083,-0.5422867,0.60383743,9.735731,1.01058671409350119703,-1.5149311,8.206725,-0.62368953,0.5015469,9.746237,0.964205561409350119704,-1.3174095,8.930372,-0.36032736,0.4152431,9.754579,0.919883131409350119720,-1.8303672,9.767744,-0.032920275,0.33915004,9.761246,0.879455151409350119739,-1.6879122,9.768343,5.99E-04,0.27093065,9.765567,0.85481571409350119740,-1.0929531,9.38168,-0.130484,0.20508718,9.767521,0.850801941409350119744,-1.1336545,9.059061,-0.27712885,0.137753,9.767809,0.861004531409350119750,-1.073201,8.909423,-0.22804771,0.06080047,9.767639,0.87173971409350119766,-0.79487497,8.933365,0.001197101,-0.028572708,9.767618,0.87361431409350119770,-0.13227965,9.048286,-0.031124622,-0.12695195,9.767256,0.86889691409350119783,0.36032736,8.763377,-0.20231004,-0.22365583,9.765935,0.86425061409350119810,1.0013748,8.733449,0.08499416,-0.31368893,9.763283,0.866202831409350119811,1.4562732,9.074623,0.45429978,-0.39124122,9.758752,0.885481661409350119812,1.5179238,9.346964,0.7152678,-0.45492843,9.751901,0.92944821409350119822,1.4915876,9.379884,1.1282675,-0.5127872,9.743422,0.986510341409350119842,1.2838906,9.068638,1.5071499,-0.56898713,9.731762,1.06745231409350119843,1.0456676,8.556278,1.4496891,-0.62914866,9.716656,1.16669691409350119850,0.8571242,8.350976,1.049259,-0.6960562,9.699214,1.26929891409350119875,0.81163436,8.264784,0.7284359,-0.7713274,9.681308,1.35930381409350119876,1.0372878,8.364742,0.7751228,-0.8533337,9.664176,1.43035191409350119882,1.2312182,8.566454,1.1522095,-0.93218493,9.648798,1.483961409350119912,1.2126632,8.759187,1.5436616,-1.0021993,9.634708,1.5291721409350119913,1.2108675,9.044097,1.9853917,-1.0636752,9.620845,1.57427551409350119914,1.0061632,9.227852,2.4211364,-1.1191722,9.606483,1.62274751409350119944,0.8242039,9.506178,2.043451,-1.1736917,9.59113,1.67423681409350119944,0.7020996,9.698313,1.3329718,-1.2286096,9.576313,1.71905611409350119945,1.2826935,10.107721,0.7009025,-1.2836504,9.563755,1.74848391409350119950,2.0632033,10.243592,0.33399114,-1.3297117,9.555128,1.76118561409350119974,2.5480292,10.372879,0.65900403,-1.3623655,9.549979,1.76416541409350119975,2.296638,10.435727,1.4401124,-1.383436,9.546637,1.7658461409350119984,1.6843209,10.402207,2.106299,-1.3997635,9.542936,1.77296261409350120012,0.7422025,10.59135,2.1990743,-1.4139779,9.538111,1.7875941409350120013,0.37588966,10.6715555,2.3660698,-1.4253117,9.533985,1.8005551409350120014,0.16879122,10.445902,2.7736826,-1.4264022,9.533413,1.80272091409350120045,0.30765492,9.746795,2.4624364,-1.4132916,9.5371895,1.79305351409350120045,0.89303726,9.690532,2.7150247,-1.3913002,9.543775,1.77512481409350120046,0.83856916,9.157822,2.8520927,-1.3425189,9.555574,1.74901261409350120050,0.30047232,8.567651,1.9446903,-1.2810937,9.571736,1.70618411409350120068,-1.1049241,7.723695,1.1719618,-1.2212812,9.592378,1.63253221409350120070,-2.8413188,7.2951326,0.37948096,-1.1700044,9.615702,1.52962541409350120086,-4.2742486,7.7344685,-0.62728083,-1.1250533,9.640437,1.40235611409350120099,-5.163096,9.358934,-1.5406688,-1.0864364,9.665294,1.2538571409350120102,-6.0998273,11.780071,-1.9333179,-1.0511444,9.688692,1.09304271409350120116,-5.8119245,15.034988,-2.0207062,-1.0164855,9.708444,0.93981961409350120135,-4.5406036,18.385075,-2.1523874,-0.96326905,9.72506,0.815915761409350120135,-3.690662,19.608511,-2.1637597,-0.86713576,9.741548,0.721619841409350120150,-3.470994,19.383457,-0.96067345,-0.745818,9.756934,0.64526231409350120151,-3.4159272,17.24783,1.1121067,-0.61780936,9.767396,0.621860441409350120168,-2.384625,14.235325,3.3171666,-0.5083177,9.770236,0.67415381409350120170,-1.8004397,11.052234,4.939238,-0.40404275,9.765929,0.79609321409350120190,-1.9800048,8.876503,5.6766524,-0.30524257,9.755543,0.95216451409350120191,-2.4768016,9.156625,5.1876364,-0.22056288,9.742515,1.09779331409350120202,-3.0214825,9.029133,3.6846764,-0.14810856,9.732349,1.19574681409350120229,-2.2541409,7.6734166,2.167351,-0.072593175,9.729723,1.22376791409350120230,-1.2240356,6.8869214,2.0967221,0.027780956,9.73308,1.19866681409350120230,-0.14185645,7.4627266,2.369661,0.15059307,9.737397,1.15360591409350120265,1.1055226,8.7125,2.2212207,0.28803733,9.739824,1.10601021409350120267,2.1559787,9.282919,1.5101427,0.43550375,9.739953,1.05549361409350120268,1.8166006,8.491036,0.65062433,0.5896551,9.737393,1.00294261409350120270,1.7992426,7.929596,0.08798691,0.7248307,9.733249,0.953364851409350120299,1.5113398,7.162853,-0.044292733,0.8338141,9.728019,0.916954461409350120299,1.1007342,6.365584,0.16879122,0.92052656,9.721788,0.89992321409350120302,0.98222125,6.0483522,0.60812724,0.99354005,9.714132,0.9049221409350120317,1.0217255,5.6820393,0.7823054,1.058612,9.704914,0.929710151409350120334,1.1264719,5.4462104,0.9151836,1.1215773,9.694248,0.96645361409350120335,1.050456,5.2367177,1.0097545,1.1826608,9.682889,1.0066731409350120351,1.0169371,5.182848,1.0552444,1.2371476,9.672041,1.04473791409350120351,1.0726024,5.2439003,1.1480197,1.2873049,9.661499,1.08104171409350120368,1.1719618,5.4671597,1.2479776,1.3285577,9.652415,1.11184481409350120384,1.271321,5.7442884,1.4586674,1.3614628,9.645075,1.13548551409350120384,1.411382,5.8963203,1.6328455,1.385895,9.639858,1.15013241409350120399,1.5406688,6.057929,1.7046716,1.4004837,9.637243,1.15437661409350120414,2.3511062,7.077859,2.4450784,1.4038998,9.637455,1.1484381409350120415,2.8748376,7.7614036,2.5252843,1.401763,9.638806,1.13968651409350120432,3.4685998,8.632893,2.3894134,1.3935224,9.641563,1.12638821409350120433,3.8007953,9.558251,2.360683,1.378397,9.645742,1.10908841409350120451,4.098873,10.294469,2.1829133,1.3542432,9.65136,1.08981911409350120451,4.0426097,10.800842,2.3229742,1.322081,9.658032,1.06999811409350120466,3.7894228,10.975619,2.303222,1.2862812,9.664701,1.05328351409350120484,2.9496565,10.889428,2.5959132,1.244154,9.671295,1.04331531409350120485,1.7896658,12.147581,3.1908724,1.1986818,9.67716,1.04217531409350120499,0.90021986,13.991117,2.9400797,1.1525896,9.681703,1.05194021409350120502,1.0402806,14.274829,1.4903905,1.1122961,9.685328,1.06189071409350120515,2.2200236,13.398551,0.26396075,1.1029549,9.687726,1.0496851409350120531,3.8851907,12.353482,-0.15801731,1.1407349,9.686345,1.02168131409350120531,6.5098343,11.010335,0.56563014,1.22337,9.678372,1.0014351409350120550,6.3943143,9.802461,3.4075475,1.3544832,9.660867,1.00171361409350120551,5.805341,11.781268,7.201759,1.493133,9.637388,1.03039561409350120565,5.0014873,17.07784,7.162853,1.6354258,9.60685,1.09736851409350120583,4.035427,19.608511,3.1148565,1.7648207,9.576216,1.16271911409350120585,0.45908818,18.786703,1.834557,1.8667756,9.556212,1.16805781409350120601,-2.2439656,13.289017,-1.3730747,1.8993423,9.549938,1.16686821409350120602,-2.468422,11.414955,-0.2160767,1.8986484,9.55112,1.15828821409350120612,-3.0544028,10.463859,1.4850036,1.8717529,9.551365,1.19931331409350120632,-3.2980127,9.782708,1.5652094,1.8081472,9.553172,1.2798091409350120633,-2.9418752,8.7849245,0.81163436,1.7225115,9.559192,1.35100871409350120647,-2.295441,8.374319,0.32441434,1.6384853,9.5680895,1.39191871409350120651,-2.1284454,8.405443,0.37349546,1.5653429,9.577252,1.41291211409350120663,-2.1068976,8.683769,0.24420857,1.5053405,9.585139,1.42458721409350120681,-1.6358383,8.728661,0.19153613,1.4530605,9.592684,1.42808311409350120682,-0.46686932,8.512584,0.5626374,1.4058948,9.600506,1.42271331409350120707,0.59376204,8.465299,0.70509243,1.3595227,9.609147,1.40939941409350120708,0.6865373,8.677784,0.6655881,1.3073399,9.619271,1.38955711409350120711,0.7715315,9.266159,1.0145429,1.2419829,9.63139,1.36535841409350120747,0.82719666,9.685144,1.1324574,1.1625267,9.644446,1.34296581409350120747,0.8218097,9.668385,0.694917,1.0698899,9.658559,1.31831751409350120748,0.55844754,9.408015,0.427365,0.96659815,9.675136,1.27586731409350120751,0.003591303,8.892065,0.39624038,0.8538619,9.693931,1.21203521409350120769,-0.52732295,8.22109,0.2693477,0.7328777,9.712512,1.1403561409350120798,-0.7398083,7.781754,0.026934769,0.608413,9.728822,1.07249181409350120799,-0.7745243,7.04434,-0.49559975,0.48679495,9.742552,1.00801621409350120800,-0.7386112,7.1981673,-0.3645172,0.37960723,9.753286,0.948509631409350120818,-0.9552865,8.070854,0.05207389,0.29332542,9.761134,0.89698911409350120819,-1.5939398,9.200917,0.5554548,0.2271866,9.766687,0.85475961409350120832,-2.019509,9.8754835,0.55844754,0.17100239,9.770021,0.829351841409350120833,-1.532289,9.820416,0.055066638,0.11283559,9.771039,0.827330231409350120847,-1.6394296,9.296685,-0.65660983,0.051319197,9.770233,0.842790251409350120851,-1.377863,9.002797,-0.80564886,-0.020615138,9.769145,0.8565961409350120864,-0.87567925,8.842984,-0.60453594,-0.104944184,9.768695,0.85554751409350120879,-0.14544775,8.836999,-0.5554548,-0.19950631,9.768288,0.84328811409350120885,0.8948329,9.1590185,-0.43514615,-0.29418162,9.767059,0.82970031409350120906,1.6956934,9.449914,-0.1412579,-0.3805788,9.764841,0.82062191409350120907,2.178125,9.627085,0.3196259,-0.4543465,9.761267,0.82561381409350120911,2.1583729,9.701904,0.82001406,-0.51453286,9.75594,0.852794951409350120944,2.130241,9.507974,1.352724,-0.56435317,9.748335,0.906560541409350120945,1.9937714,9.176975,1.7220296,-0.6079916,9.737551,0.990375041409350120947,1.751957,8.89805,1.8794483,-0.6511713,9.723349,1.0967651409350120951,1.6250644,8.646061,1.8986019,-0.69988006,9.706574,1.2095451409350120975,1.6262615,8.302493,1.6567876,-0.7572175,9.688682,1.31395261409350120976,1.9117701,8.149862,1.5269021,-0.82259387,9.670939,1.40237961409350120983,1.7782934,8.327632,1.6723499,-0.88654745,9.654788,1.47292411409350121016,1.4047978,8.483255,1.9333179,-0.9477611,9.639045,1.53653991409350121018,1.0857705,8.6095495,2.4839842,-1.0023935,9.624673,1.59099441409350121020,0.49919105,8.704719,2.327164,-1.0524292,9.610104,1.64581081409350121046,0.25019407,9.194932,1.5879543,-1.1046071,9.595175,1.69789951409350121047,0.56443304,9.722255,0.7038953,-1.158121,9.581975,1.73635791409350121047,1.4646529,10.111911,-0.17657238,-1.2059925,9.573207,1.75205771409350121051,2.3301568,10.532093,-0.26874915,-1.2434015,9.569974,1.74354181409350121068,2.734777,10.964247,0.5482722,-1.2666975,9.570967,1.72118461409350121071,2.2643163,10.907384,1.6681601,-1.2761462,9.573431,1.70037751409350121082,1.09834,10.83496,2.2439656,-1.2810192,9.573845,1.69436531409350121106,0.29029694,10.771513,2.6539726,-1.2880632,9.571584,1.70178681409350121107,-0.29867667,10.559028,3.0777464,-1.2970321,9.568172,1.71410921409350121111,-0.49440265,10.3692875,2.9245174,-1.2983001,9.566495,1.72249341409350121140,-0.10115502,10.420763,2.4355016,-1.2824786,9.569612,1.71702871409350121141,0.49919105,10.387842,2.4672248,-1.2397071,9.579044,1.69571781409350121143,0.8870517,9.888652,2.44448,-1.1734767,9.593765,1.65922241409350121153,0.7044938,9.147048,0.4782418,-1.0960016,9.612846,1.6007271409350121169,-1.5616181,7.243657,-0.20709845,-1.0150328,9.637547,1.50259581409350121171,-2.5743654,7.3723454,-1.0468647,-0.9402323,9.663157,1.38193561409350121183,-3.6332011,8.811859,-1.4574703,-0.86148036,9.689075,1.24500881409350121202,-4.185065,11.871649,-1.1168951,-0.78305036,9.713188,1.10055121409350121203,-5.1505265,15.740679,-0.16160862,-0.70332503,9.734407,0.957627951409350121211,-4.6764746,19.24639,-0.20350714,-0.6354582,9.749236,0.847923461409350121235,-3.5577838,19.608511,-1.2072762,-0.5539466,9.759823,0.7806221409350121236,-3.4440591,19.198505,-0.9816227,-0.4407408,9.768508,0.74323831409350121243,-3.0310593,16.70614,0.63087213,-0.31992427,9.774036,0.73230761409350121266,-1.8680758,13.626,2.6084828,-0.21047388,9.774337,0.76711231409350121266,-1.2150574,10.431537,4.373608,-0.11207485,9.768537,0.85644771409350121290,-1.6795325,7.9385743,5.5778913,-0.022479238,9.757319,0.98213881409350121291,-2.3918076,8.230068,5.7347116,0.050356705,9.743704,1.10819171409350121292,-2.5516205,9.081207,4.5352163,0.11086265,9.731659,1.2053681409350121312,-1.6496049,9.961675,3.5523968,0.18154804,9.725661,1.24455991409350121313,-1.7902644,7.9996266,2.4809916,0.26852518,9.722634,1.25245891409350121330,-0.415394,7.916428,2.0027497,0.3756943,9.723145,1.22053581409350121331,0.599149,8.895058,2.2200236,0.49774987,9.723707,1.1713991409350121351,1.6986861,9.506777,0.92057055,0.63002074,9.721852,1.12209011409350121366,1.7543513,8.04392,0.31663316,0.76333004,9.718167,1.07002811409350121367,1.7136499,7.6847887,0.17776948,0.87657535,9.713006,1.0293281409350121385,1.1947067,6.781576,0.3417723,0.9699563,9.706491,1.00677121409350121386,0.8439561,5.966949,0.7236475,1.0487012,9.698284,1.00691951409350121392,0.82480246,5.781997,0.9451111,1.1175165,9.688247,1.02928231409350121415,0.7679402,5.5365915,1.0181342,1.1810946,9.676493,1.0681281409350121415,0.7200562,5.3354783,1.0324994,1.2462548,9.662964,1.11550691409350121432,0.7811083,5.341464,1.1258733,1.3114972,9.6486,1.16399551409350121432,0.7541735,5.307347,1.1947067,1.3735198,9.634153,1.21116411409350121448,0.81402856,5.5300074,1.3293805,1.4286325,9.620508,1.25506931409350121478,1.0097545,5.915474,1.4580688,1.4750509,9.608173,1.29522721409350121479,1.2066777,6.4146647,1.5801731,1.5122067,9.59782,1.32870361409350121480,1.3503298,6.8210807,1.5699978,1.5401423,9.590217,1.35132371409350121506,1.4568717,6.9479733,1.5819688,1.5567341,9.586396,1.35939781409350121507,1.7280151,6.967127,1.6903064,1.5600638,9.586722,1.35327671409350121508,2.2319946,7.393295,2.1158757,1.5516198,9.590279,1.33768691409350121512,2.7527335,7.94037,2.4121583,1.5339813,9.595573,1.31995421409350121539,3.405752,8.579621,2.509722,1.5068322,9.602296,1.30222541409350121540,4.092888,10.278308,3.2399535,1.4774672,9.609239,1.28452521409350121544,4.2000284,10.653599,3.2770636,1.4396833,9.616483,1.27317021409350121570,4.160524,10.38066,2.8042088,1.3904966,9.624792,1.26502361409350121571,3.8660371,9.774927,2.4941597,1.3360741,9.633454,1.25772321409350121572,1.8327614,10.047267,3.6128504,1.2841098,9.641693,1.24868731409350121585,0.092775315,13.162124,4.11683,1.2241449,9.649371,1.24960451409350121614,0.109534726,14.523228,2.2780828,1.1504517,9.655717,1.27042211409350121615,1.8070238,12.885593,-0.39025488,1.0982044,9.660138,1.28298321409350121616,4.295198,11.398195,-1.3682863,1.1152442,9.660995,1.26167181409350121640,6.849811,10.1065235,-0.2777274,1.2019649,9.654805,1.22898331409350121641,6.327875,8.254609,3.3171666,1.3314061,9.639845,1.21291111409350121644,4.8901567,10.864288,7.3148847,1.47483,9.615805,1.23757651409350121668,3.6553473,17.23107,6.9599442,1.6190283,9.58554,1.29094731409350121669,2.7269957,19.608511,3.1609447,1.7419517,9.559706,1.32211971409350121672,0.60812724,17.241245,2.6940753,1.8379776,9.545198,1.29670071409350121685,-1.7585411,13.297995,2.3469162,1.8861752,9.535504,1.29881191409350121704,-2.3678656,11.296442,1.3688848,1.8903639,9.529275,1.33785781409350121705,-2.0847511,11.622053,1.75076,1.8642472,9.525522,1.39979051409350121712,-2.1871033,12.847885,1.0923545,1.81109,9.5266905,1.46031431409350121737,-1.9452889,11.555614,-1.9111716,1.7338806,9.538476,1.47700391409350121739,-1.917157,10.632051,-1.3892355,1.6555887,9.557694,1.44218121409350121744,-1.8261774,9.882068,-0.7787141,1.5825713,9.57512,1.40817191409350121780,-1.2264298,9.545682,-0.09995792,1.5109764,9.589464,1.38906721409350121781,-0.46148238,8.672996,0.533907,1.4485525,9.600513,1.37921791409350121783,0.516549,8.249222,0.81522566,1.3935124,9.609882,1.37065051409350121808,1.0109516,8.32045,0.95109665,1.3378584,9.619714,1.35706821409350121808,1.2605472,8.591593,1.5071499,1.2730956,9.6307335,1.34111551409350121809,1.3084313,8.747216,2.1212628,1.1987983,9.64134,1.33334961409350121812,1.2348095,8.702325,2.0027497,1.1142527,9.650878,1.33767441409350121827,1.1821371,8.727464,1.6424223,1.0216712,9.6609745,1.33871781409350121832,0.6793547,8.556278,1.1480197,0.92456585,9.673922,1.31560521409350121846,-0.20649989,7.8972745,0.6428431,0.8199696,9.690512,1.2617561409350121860,-0.94092125,7.3831196,0.05805939,0.706419,9.707623,1.1972721409350121863,-1.4425066,7.3244615,-0.50996494,0.5866329,9.723968,1.12726621409350121876,-1.6621746,7.5668745,-1.027711,0.4676843,9.737752,1.0620191409350121905,-2.1122844,8.103176,-1.3198037,0.36041787,9.748894,0.99978231409350121911,-2.0691888,8.830415,-0.9331401,0.2670945,9.757929,0.93907311409350121912,-2.9167361,9.832987,-0.40880993,0.19033867,9.764169,0.891721409350121913,-1.6645688,9.643845,-0.33638534,0.113164976,9.767381,0.869397761409350121946,-1.2916719,9.274539,-0.7326257,0.048969343,9.767304,0.876220051409350121946,-1.1246762,8.879496,-0.78769237,-0.013613661,9.765562,0.89666561409350121947,-0.83976626,8.7771435,-0.45310268,-0.08646285,9.763552,0.914324051409350121960,-0.055066638,8.732252,-0.24480712,-0.16584878,9.761117,0.92923981409350121966,0.95109665,8.756793,-0.24779987,-0.25495037,9.7585535,0.93596351409350121981,1.8902222,8.980651,0.050876785,-0.34462637,9.755341,0.940719961409350121997,2.5701754,9.266159,0.4345476,-0.42403919,9.751194,0.95120391409350121998,2.815581,9.41879,0.7284359,-0.48888278,9.745993,0.97314171409350122017,2.8275523,9.241618,0.997185,-0.5416949,9.739139,1.01298091409350122018,2.7156234,8.962694,1.270124,-0.5887756,9.729956,1.0731721409350122028,2.5474305,8.627506,1.6621746,-0.6353997,9.717849,1.15328821409350122032,2.1883004,8.269572,1.9267339,-0.68646264,9.7025585,1.24879781409350122050,1.9596541,8.069656,1.9321208,-0.747244,9.684958,1.34669471409350122073,1.9620483,8.04392,1.8118122,-0.8191808,9.666289,1.43602491409350122074,1.8537107,8.200141,1.6490064,-0.8950717,9.647312,1.5161141409350122075,1.3988123,8.37013,1.816002,-0.9701399,9.629777,1.58007431409350122106,0.87089086,8.66282,2.4744074,-1.0420531,9.613485,1.63261621409350122107,0.29628247,8.875904,3.1956608,-1.1077489,9.596612,1.68769171409350122107,-0.3573346,9.503185,1.7232267,-1.168711,9.577885,1.75174731409350122112,0.002394202,9.895236,0.41838676,-1.2316761,9.5608425,1.80101541409350122128,1.1575965,10.129868,-0.50637364,-1.2924902,9.548548,1.82348011409350122149,2.4480712,10.411186,-0.45489833,-1.3456421,9.542282,1.81782831409350122150,2.983774,10.840346,0.48961425,-1.3840297,9.540917,1.79603311409350122152,2.5504234,11.262324,1.7663223,-1.406412,9.542027,1.77259921409350122163,1.567005,11.357494,2.3624785,-1.4162539,9.542251,1.76354191409350122183,0.79966336,10.961852,2.32058,-1.4260918,9.540355,1.7658741409350122196,0.5590461,10.554239,2.4570496,-1.4275104,9.53831,1.77573721409350122197,0.6332663,10.0748005,2.724003,-1.4149588,9.538827,1.78299031409350122217,0.63206923,9.516354,2.5306711,-1.3853598,9.543704,1.78013651409350122218,0.7116765,9.161413,2.0021513,-1.335595,9.553836,1.76374781409350122224,0.85652566,8.682572,2.211644,-1.2647458,9.569868,1.72870361409350122256,0.3788824,7.498041,2.1978772,-1.1784075,9.591064,1.67129411409350122257,-0.5781997,6.273407,1.5454572,-1.0887994,9.615404,1.59025351409350122258,-1.8477252,5.967548,0.7206547,-0.9983434,9.641869,1.4859621409350122265,-2.9137435,7.1353197,0.19752164,-0.90411866,9.669164,1.36391011409350122284,-3.99293,9.554661,0.23702596,-0.80236876,9.695321,1.23585341409350122285,-5.3157263,13.142372,0.3728969,-0.70433056,9.71698,1.12008361409350122293,-3.0544028,19.608511,-1.0929531,-0.6129518,9.732444,1.03645531409350122319,-1.8567034,19.608511,-1.0378864,-0.48080644,9.748435,0.952500341409350122320,-2.297835,19.540277,0.077811554,-0.313635,9.761649,0.884449661409350122325,-2.4187422,17.490242,1.435324,-0.15987527,9.769468,0.83805591409350122367,-2.3774424,13.8163395,2.867655,-0.03608283,9.770307,0.842735471409350122368,-2.2056582,9.7641535,3.9414546,0.059787106,9.764341,0.90798421409350122369,-2.2744915,8.771158,4.486734,0.13765995,9.753993,1.00549591409350122375,-3.1370027,8.523358,3.5116954,0.19914001,9.742718,1.10007771409350122377,-1.5747862,10.752359,3.007716,0.2566424,9.735582,1.15019521409350122418,-1.6514006,8.970475,2.2104468,0.3313034,9.730612,1.17295191409350122419,-0.7505822,7.7877398,1.8076223,0.43923774,9.728754,1.1527421409350122420,0.427365,8.262989,2.3385365,0.5748465,9.726459,1.11173531409350122422,1.1575965,8.429984,2.3331497,0.7221729,9.721444,1.06881811409350122424,1.2641385,7.700351,1.6406267,0.87244564,9.712893,1.03390061409350122456,1.2372037,7.0527196,0.7320272,1.0072961,9.7028475,1.00524251409350122458,1.6460136,6.7648168,0.32920274,1.1201158,9.692659,0.983920751409350122459,1.4341269,6.1758432,0.21787235,1.220033,9.681374,0.97617271409350122467,1.2838906,6.005855,0.47764325,1.3074136,9.668862,0.986985271409350122495,1.0007763,5.831677,0.5907693,1.3859799,9.65469,1.01802971409350122497,0.52373165,5.403115,0.57520694,1.4597341,9.639006,1.06262161409350122498,0.55365914,5.4085016,0.79128367,1.5311247,9.622555,1.11017241409350122525,0.45250413,5.5419784,1.0043676,1.6011548,9.605076,1.1615561409350122527,0.31783026,5.680842,1.2497733,1.6690129,9.587295,1.2118531409350122528,0.39205053,5.963358,1.4024036,1.7302474,9.57057,1.25731181409350122560,0.79128367,6.5882444,1.6011224,1.7815465,9.55611,1.29508551409350122561,1.3000516,7.0994067,1.7040731,1.821896,9.544832,1.32184981409350122562,1.5023615,7.2687964,1.5969325,1.8530028,9.537106,1.33430551409350122596,1.9440918,7.462128,1.6938977,1.8710977,9.534369,1.32860081409350122597,2.6258407,7.811083,1.9177556,1.8739966,9.536949,1.30581921409350122598,3.3363202,8.154651,2.1523874,1.8641485,9.543487,1.27168891409350122599,4.0880995,8.677784,2.2762873,1.8428618,9.552376,1.23546681409350122615,4.8374844,9.607333,2.496554,1.8191669,9.561813,1.19697821409350122616,5.2600613,10.564415,2.9053638,1.7841961,9.572457,1.16408371409350122625,5.6461263,11.159973,3.0831332,1.7378598,9.583321,1.14464621409350122646,5.342661,10.714052,3.1064768,1.6850004,9.5936775,1.1368931409350122648,5.29358,9.857527,2.6443958,1.624142,9.604304,1.13573221409350122661,3.3889925,9.542689,3.1681273,1.5646996,9.614214,1.13534211409350122677,0.88405895,12.3834095,2.697667,1.4927511,9.623769,1.15115751409350122678,0.9127894,14.105439,0.56203884,1.4085381,9.633359,1.17677211409350122698,2.7269957,12.947245,-0.5566519,1.3623579,9.640071,1.17618351409350122698,4.606444,11.890204,0.24241292,1.3880404,9.638174,1.1616181409350122712,5.018845,10.7433815,3.539827,1.452572,9.628302,1.16457341409350122715,3.6529531,12.823943,7.8583684,1.5520781,9.605961,1.2194181409350122726,4.0318356,18.32941,6.221333,1.6522549,9.573708,1.33587531409350122745,2.1206641,19.494787,1.8788497,1.7580172,9.542801,1.41940681409350122746,-1.1965023,17.000628,0.7529764,1.8447493,9.527246,1.4138151409350122761,-2.6844985,13.040618,0.43035775,1.8905674,9.522495,1.38499651409350122775,-2.135628,10.642825,-0.45489833,1.90966,9.520317,1.37374471409350122776,-1.8022354,9.258977,1.2114661,1.91497,9.513904,1.4102821409350122794,-1.6711528,8.797494,2.2631192,1.8987358,9.503717,1.49818841409350122794,-1.4323312,9.002198,1.508347,1.8574662,9.498071,1.58330421409350122808,-0.9403227,8.846576,0.53450555,1.8026464,9.501919,1.62308051409350122813,-0.56922144,9.14226,-0.065242,1.7522949,9.509382,1.63446821409350122825,-0.6877344,9.521142,-0.25498247,1.7054937,9.520995,1.61627221409350122842,-0.7140707,9.720459,-0.3854665,1.6654478,9.533839,1.58195661409350122844,-0.17597382,9.57142,0.004788403,1.6275607,9.547707,1.53711971409350122857,1.2066777,9.298481,0.22146365,1.586242,9.562362,1.48845291409350122881,1.2090719,9.713875,0.25378537,1.4038384,9.611218,1.35059771409350122882,1.2330139,9.968259,0.6123171,1.4038384,9.611218,1.35059771409350122896,1.0845734,9.835979,0.7110779,1.4038384,9.611218,1.35059771409350122897,0.9959879,9.730635,0.6781576,1.3182646,9.626786,1.32572711409350122910,0.75836337,9.423578,0.82360536,1.2272838,9.6425705,1.29807651409350122913,0.30466217,8.944737,0.85054016,1.1299001,9.658777,1.26560081409350122929,-0.15801731,8.526949,0.694917,1.0269612,9.676112,1.22008341409350122940,-0.7517793,8.030751,0.2100912,0.9149279,9.69355,1.16977261409350122944,-0.97743285,7.6907744,-0.18674773,0.80032504,9.709275,1.12243021409350122957,-1.0402806,7.8649526,-0.6242881,0.6919777,9.7223625,1.08038311409350122981,-0.985214,8.34918,-0.56563014,0.59743106,9.732996,1.04031611409350122982,-0.95947635,9.114127,-0.11731588,0.52186954,9.741094,1.00456881409350122986,-1.395221,9.6923275,0.31304187,0.46230644,9.746459,0.9814351409350122993,-1.0486604,9.807249,0.3477578,0.4024003,9.749289,0.979723751409350123010,-0.51116204,9.583989,-0.016759412,0.3385268,9.74996,0.997023461409350123014,-0.89662856,9.157822,-0.23343466,0.2685424,9.750185,1.01596951409350123026,-0.59735334,8.941146,-0.17896658,0.18785541,9.750616,1.02984061409350123040,-0.3453636,8.941146,-0.15263036,0.08989209,9.751745,1.03237521409350123052,1.1043255,8.2037325,-0.24899697,-0.019028964,9.7526,1.02801781409350123076,1.7465701,8.549694,0.18195933,-0.12120303,9.752095,1.02583291409350123076,2.190096,8.82802,0.5554548,-0.21196583,9.749236,1.03819411409350123077,2.3732524,8.841188,1.043872,-0.2882667,9.743525,1.07286251409350123097,2.5091233,8.680777,1.46585,-0.35270476,9.7344885,1.13389281409350123097,2.3570917,8.446145,1.7220296,-0.4094177,9.721768,1.22064451409350123111,2.1308396,8.145074,1.8495208,-0.46598276,9.705427,1.32587791409350123125,1.7130513,7.6841903,1.5107412,-0.53088176,9.686344,1.436411409350123125,1.6106992,7.454347,1.1055226,-0.6093576,9.666772,1.53381131409350123140,1.774702,7.6764092,1.0887632,-0.69487727,9.647141,1.61870551409350123144,1.8028339,8.034343,1.3461399,-0.78141093,9.629828,1.68113051409350123158,1.6490064,8.447342,1.7316064,-0.86216646,9.615052,1.72564221409350123177,1.3174095,8.697536,2.384625,-0.932734,9.601616,1.76334611409350123177,0.9427169,9.003994,2.8089972,-0.9962053,9.587524,1.80481021409350123196,0.57400984,9.393052,2.4025815,-1.0574313,9.572409,1.84965221409350123197,0.4830302,9.638457,1.5951369,-1.1202617,9.558046,1.88657521409350123204,0.9211691,9.887454,0.7158663,-1.1820363,9.546809,1.90567611409350123213,1.6753427,10.085575,0.17776948,-1.235689,9.540306,1.90421841409350123227,2.2427685,10.338163,0.49799395,-1.2769454,9.537938,1.88879921409350123244,1.7651252,10.73979,2.2709002,-1.306361,9.537012,1.87328661409350123247,1.0193313,10.726024,2.331354,-1.3340834,9.533292,1.87268871409350123269,0.17836803,10.780492,2.31639,-1.3603083,9.528848,1.876441409350123270,-0.3716998,10.664971,2.7216089,-1.3820577,9.525242,1.87885011409350123273,-0.57999533,10.329783,2.7401638,-1.3950552,9.524223,1.8744021409350123301,-0.45190558,9.986814,1.905186,-1.393416,9.527992,1.85637451409350123302,0.017357962,9.492412,1.941099,-1.3678432,9.538076,1.82332061409350123305,0.2148796,8.779537,2.3558946,-1.3173963,9.55351,1.77913521409350123325,-0.38187516,7.865551,1.6136919,-1.2550733,9.573829,1.71376721409350123344,-1.6220716,6.8246717,0.7272388,-1.1915992,9.598683,1.61732731409350123345,-2.8407204,6.6145806,-0.272939,-1.1248336,9.626582,1.49467031409350123366,-4.0001125,7.9750857,-1.2617443,-1.059518,9.654361,1.35688751409350123367,-4.4927197,10.575189,-1.4059949,-0.9882649,9.683087,1.19646491409350123367,-5.1050367,14.180857,-0.80086046,-0.9082913,9.7094965,1.03494041409350123373,-4.646547,18.318636,-0.5686229,-0.82206225,9.730117,0.905229331409350123406,-3.1555579,19.608511,-1.3024458,-0.7169642,9.746121,0.81823041409350123407,-2.0644004,19.608511,-1.3263878,-0.5728502,9.760695,0.755664051409350123408,-2.5246856,18.922573,-0.017357962,-0.41533682,9.771829,0.713627761409350123433,-1.9859903,16.166248,1.6645688,-0.29477587,9.7756195,0.721652151409350123434,-0.7326257,10.261548,4.787206,-0.19574046,9.772367,0.79555441409350123435,-1.9267339,8.006809,5.3079453,-0.09934755,9.76265,0.92259981409350123470,-3.003526,7.924209,4.559159,-0.028780105,9.750844,1.04432441409350123471,-2.7778726,8.867524,3.5691562,0.024935814,9.739381,1.14640771409350123472,-1.9075803,9.443929,2.906561,0.073554784,9.732742,1.1994671409350123474,-1.9416976,7.793725,2.259528,0.1471288,9.731777,1.20052811409350123515,-0.3369839,7.844003,2.0901382,0.250454,9.733478,1.16922461409350123516,1.417966,9.415198,2.0919337,0.3773954,9.7346325,1.12467251409350123517,1.5227122,9.254189,1.501763,0.520439,9.733408,1.07716551409350123518,1.1767502,8.171411,0.45429978,0.6592547,9.729798,1.03286861409350123526,1.5101427,7.8302364,-0.15622166,0.7697445,9.725526,0.996010361409350123560,1.1659763,7.056311,-0.33638534,0.8584049,9.720357,0.9737611409350123561,0.7529764,6.31351,-0.130484,0.93538475,9.713389,0.972366151409350123562,0.44592008,6.0357823,0.35673606,1.0040487,9.705426,0.98335951409350123580,0.4237737,5.9717374,0.7469909,1.0695148,9.695026,1.01636411409350123581,0.40761283,5.6640825,0.9151836,1.1346796,9.6823015,1.06579511409350123586,0.52073884,5.321113,1.0462662,1.2001184,9.668073,1.12182141409350123593,0.6398504,5.2486887,1.2431892,1.2621053,9.653496,1.17792491409350123621,0.79607207,5.3342814,1.4706384,1.3168659,9.639596,1.23062411409350123623,1.3964181,5.9723363,1.9644425,1.3629905,9.627059,1.27763641409350123625,1.6370354,6.1902084,2.0769699,1.4002578,9.616366,1.31726091409350123651,2.0171149,6.4260373,2.1775265,1.4260446,9.608917,1.34368061409350123652,2.4947581,6.908469,2.3235726,1.4391589,9.605412,1.35472481409350123653,2.959832,7.504027,2.5210943,1.4389318,9.605622,1.35346891409350123683,3.775656,8.189965,2.379238,1.4348123,9.606919,1.34863331409350123684,4.209605,8.647258,2.5600002,1.4221339,9.610538,1.33622671409350123684,4.867412,9.432556,2.6611552,1.398022,9.616194,1.32089081409350123694,4.9625816,10.039486,2.861071,1.3650132,9.623166,1.30453861409350123722,4.8745947,10.292074,2.8652608,1.3200638,9.6313,1.29069631409350123723,4.7722425,9.934141,2.4223335,1.2669106,9.639891,1.2797751409350123725,4.168904,9.450513,2.3852234,1.214846,9.648238,1.26730051409350123749,1.9907787,10.3453455,3.526659,1.1690578,9.655932,1.25167751409350123750,0.374094,13.942035,3.7104142,1.1189306,9.662326,1.24814581409350123753,0.4866215,15.286379,1.5460558,1.064093,9.666179,1.26613251409350123777,2.1960814,13.721169,-0.7158663,1.0448723,9.668186,1.2668071409350123778,4.299388,11.993753,-0.8158242,1.0684255,9.668138,1.24739751409350123797,5.969942,10.234613,0.8487445,1.1544228,9.659503,1.23762431409350123797,4.537611,10.020332,6.1399302,1.282225,9.640596,1.25905081409350123805,2.2427685,19.55165,4.225766,1.4138325,9.613307,1.3250731409350123832,-0.41000703,19.28709,2.0578163,1.5177716,9.593812,1.3511221409350123834,-2.629432,15.525201,0.8265981,1.5900633,9.583888,1.3383561409350123834,-2.896984,11.467029,0.37469256,1.6340644,9.577783,1.32902751409350123862,-2.2948422,9.739014,1.5047557,1.6563436,9.569303,1.36211181409350123863,-2.0799627,9.680955,2.5372553,1.6525129,9.55667,1.45246541409350123865,-2.0721815,9.7641535,1.1935096,1.6194612,9.5468025,1.55122661409350123874,-1.8710686,9.473856,-0.39923313,1.5672256,9.544222,1.61926971409350123901,-1.6603789,9.136273,-0.46567222,1.5156478,9.5516405,1.62461961409350123903,-1.6795325,9.205107,-0.48602295,1.4635098,9.564359,1.59736051409350123905,-1.5149311,9.639056,-0.4285621,1.4170588,9.577483,1.56018381409350123931,-0.8972271,9.834782,0.034117375,1.3728034,9.590334,1.52029751409350123933,0.044292733,9.826403,0.41180268,1.3272638,9.603464,1.47724641409350123934,0.53689975,9.910798,0.12030864,1.277167,9.617446,1.42967981409350123961,0.741604,10.383054,0.219668,1.2157842,9.633541,1.37374421409350123962,0.76315176,10.890625,0.8984242,1.1404921,9.650147,1.32072511409350123966,0.59855044,10.521918,1.0552444,1.0537696,9.664123,1.29023051409350123974,0.57879823,9.945514,0.8535329,0.9576576,9.67605,1.27568091409350123999,0.25977087,9.270349,0.6015432,0.8588913,9.687442,1.25943551409350124000,-0.48123455,8.301296,0.45549688,0.75461924,9.70041,1.22595661409350124010,-0.88286185,8.10138,0.0688333,0.6428488,9.714281,1.17893281409350124027,-1.347337,7.9996266,-0.38606504,0.527912,9.727304,1.12750181409350124028,-1.6956934,7.9391727,-0.79128367,0.4148208,9.738446,1.07748841409350124034,-1.8022354,8.115746,-0.91817635,0.3058365,9.747647,1.02967251409350124086,-1.477821,8.497621,-0.5021838,0.20680165,9.754679,0.986847461409350124088,-1.4281414,9.126697,0.08379706,0.12597978,9.75907,0.95659581409350124089,-1.1797429,9.650429,0.374094,0.060687292,9.7606735,0.94655841409350124091,-0.9091981,9.333197,0.11312603,0.001454912,9.759735,0.9580951409350124096,-0.81761986,8.787917,-0.3716998,-0.060833532,9.757305,0.98065511409350124112,-0.98940384,8.516175,-0.46387658,-0.12698175,9.75459,1.00112631409350124113,-0.6171055,8.565855,-0.22924481,-0.20774938,9.751973,1.0130571409350124114,-0.31423897,8.63828,-0.16938977,-0.29981166,9.749341,1.0152991409350124139,0.320823,8.62152,-0.4165911,-0.39692965,9.746305,1.01113561409350124140,1.1821371,8.358158,-0.52073884,-0.49231678,9.742547,1.00539211409350124166,1.8549078,8.194754,-0.24480712,-0.5791315,9.737663,1.0064361409350124167,2.5264814,8.561067,0.35673606,-0.6556299,9.730921,1.0245621409350124167,2.7281928,8.951322,0.86490536,-0.7173973,9.721904,1.06785551409350124174,2.6300306,8.933964,1.234211,-0.76831526,9.710164,1.13701081409350124209,1.9351135,8.748413,1.3245921,-0.8176544,9.695277,1.22615411409350124209,1.6005238,8.67539,1.0809821,-0.87618333,9.67758,1.32179471409350124210,1.5514427,8.55149,0.9283517,-0.9403308,9.658818,1.41187681409350124228,1.6825253,8.409035,1.033098,-1.0093894,9.639946,1.49096911409350124228,1.6178818,8.446145,1.4323312,-1.0798528,9.62188,1.55683971409350124234,1.2384008,8.410232,2.355296,-1.1459073,9.604603,1.61520781409350124269,1.1707647,8.703522,2.9855695,-1.2043035,9.58676,1.67752991409350124270,0.8230068,8.678383,2.618658,-1.2523623,9.567999,1.7479611409350124271,0.86729956,9.048885,1.910573,-1.2968421,9.549629,1.81470981409350124274,1.1671734,9.38168,1.1498153,-1.3389332,9.53412,1.86500161409350124299,1.7082629,9.583391,0.4878186,-1.3800701,9.522444,1.89443421409350124300,2.143409,9.829395,0.641646,-1.4164046,9.5149975,1.90499631409350124308,2.2625206,10.282497,1.2192472,-1.4464779,9.509623,1.90922811409350124323,2.2146366,10.600328,1.7579426,-1.4664211,9.506838,1.90788971409350124325,1.472434,10.797251,1.6765398,-1.4736032,9.505458,1.90923311409350124339,0.7990648,10.892421,1.4945804,-1.4713432,9.505599,1.91027161409350124355,0.47225627,10.655993,1.9979613,-1.4585167,9.509037,1.9029811409350124356,0.54288524,10.073005,2.581548,-1.4326458,9.516239,1.88656091409350124375,0.8319851,9.274539,2.0925324,-1.3875003,9.527767,1.86195291409350124376,0.5614403,7.463924,3.376423,-1.318267,9.545037,1.8234151409350124395,-0.5105635,6.503849,3.2453403,-1.2368518,9.563282,1.78444431409350124396,-1.8525136,5.9878983,2.2451627,-1.1579148,9.583036,1.73062031409350124408,-3.2890346,6.542156,1.2671312,-1.0851779,9.605177,1.65327861409350124425,-4.727351,8.474875,0.31064767,-1.0204507,9.628036,1.55884181409350124439,-5.631761,11.749545,-0.31663316,-0.9599015,9.652607,1.4408951409350124440,-5.9801173,15.99207,-0.90740246,-0.9003791,9.676977,1.30989631409350124473,-3.968988,19.447502,-1.6771383,-0.834455,9.69997,1.1767171409350124475,-1.8836381,19.608511,-2.191293,-0.71643054,9.7242365,1.0470681409350124476,-1.6921021,19.608511,-1.5568297,-0.5433083,9.747239,0.93088011409350124477,-2.7629087,19.570204,-0.28311434,-0.36742845,9.763623,0.840861441409350124506,-2.552219,17.117346,1.4143747,-0.23813398,9.770575,0.80594171409350124507,-1.887828,13.937246,3.41892,-0.13691153,9.768686,0.85114591409350124507,-1.9093759,10.720038,4.51726,-0.048899595,9.759689,0.95732911409350124522,-2.8670566,8.48146,4.5657425,0.02000595,9.747453,1.07571521409350124526,-2.954445,8.362348,3.7792473,0.072700374,9.735478,1.17709761409350124544,-2.7605145,8.544906,3.4159272,0.11834201,9.727607,1.23695981409350124548,-1.3257892,9.375095,3.3357215,0.18623881,9.724276,1.25466781409350124554,-0.79726917,8.197746,3.240552,0.29891375,9.722304,1.24814581409350124575,0.99419224,6.9264255,3.040636,0.4367821,9.719731,1.2273741409350124575,1.7375919,7.7649946,2.344522,0.58475643,9.716065,1.1943761409350124590,2.3062148,8.119935,1.4000094,0.7277391,9.710886,1.15737431409350124619,2.1829133,7.5890207,0.5153519,0.8618596,9.703839,1.12387181409350124620,1.9243397,6.853402,0.24660277,0.9771534,9.69557,1.10067131409350124620,1.7878702,6.4104753,0.35254622,1.0713576,9.686399,1.0937341409350124643,1.7208325,6.197391,0.55485624,1.1565986,9.676291,1.09637311409350124646,1.3676877,5.8041434,0.427365,1.2320228,9.664732,1.11601191409350124647,1.1450269,5.481525,0.39624038,1.3029567,9.652031,1.14498771409350124654,1.198298,5.3486466,0.56323594,1.370037,9.638806,1.17762611409350124667,1.0480618,5.1523223,0.75596917,1.4322803,9.625391,1.21277581409350124674,1.1348516,5.218761,1.0313023,1.4863881,9.612333,1.2506351409350124686,1.271321,5.4791307,1.3072342,1.5285946,9.600711,1.28846341409350124703,1.4556746,6.0208187,1.4706384,1.5567776,9.591698,1.32142751409350124706,1.5496471,6.271013,1.4856021,1.5712867,9.586083,1.34479671409350124722,1.8004397,6.4044895,1.5831659,1.5716064,9.584469,1.35588381409350124739,2.1877017,6.6307416,1.7124528,1.5585756,9.586872,1.35392441409350124740,2.5169046,6.9892735,1.8950106,1.540924,9.590861,1.34585291409350124753,3.425504,7.8188643,2.030283,1.5128506,9.597902,1.32737771409350124754,3.8307228,8.501212,2.3026235,1.4779513,9.606736,1.30256641409350124770,4.207211,9.546281,2.806603,1.4324143,9.617042,1.2771361409350124775,4.2281604,10.3932295,3.4506433,1.3777479,9.627461,1.25864371409350124789,4.3783965,10.489596,3.4680011,1.3149855,9.636814,1.25419211409350124806,4.5418005,9.876082,3.083732,1.2512957,9.644679,1.25890791409350124807,3.693056,9.136872,2.9712043,1.194826,9.651181,1.26391821409350124820,0.96785605,10.765528,3.5476084,1.1420251,9.657259,1.26629571409350124840,-1.2689269,15.085266,3.217807,1.0750413,9.663323,1.27860871409350124840,-1.4664485,15.552734,0.82480246,0.9877168,9.670126,1.29749251409350124856,0.28491,13.933057,-1.1522095,0.9144133,9.6786585,1.28755951409350124856,2.9227216,12.501923,-1.5239093,0.9180737,9.683172,1.25048651409350124869,5.5509567,10.692505,-0.24899697,0.9950797,9.679571,1.21905611409350124875,5.395334,8.766968,3.6110547,1.1230994,9.664675,1.22599911409350124888,5.2139726,11.3802395,7.0467343,1.2580051,9.641802,1.27415781409350124909,4.3119574,17.484257,5.969343,1.4049135,9.613051,1.33636081409350124909,3.128623,19.160797,1.685518,1.541875,9.589924,1.35143451409350124915,0.01436521,15.294161,2.2655134,1.641696,9.582614,1.28403771409350124937,-2.4594438,12.229582,2.397793,1.6778758,9.582167,1.23984481409350124938,-2.4720132,11.568783,1.3736732,1.6704946,9.583903,1.2363911409350124964,-2.3295584,12.697649,0.56443304,1.651474,9.585148,1.25218561409350124965,-2.1823149,13.467983,-1.62686,1.6046112,9.588592,1.28628991409350124967,-1.9895816,12.729372,-3.1142578,1.5320731,9.600964,1.28244461409350124975,-2.0763714,11.558607,-2.8179753,1.4526223,9.61905,1.23861671409350124999,-2.2014685,10.601525,-1.685518,1.3748864,9.636073,1.19421791409350125000,-1.5879543,9.539098,-0.20530279,1.302441,9.648656,1.17365941409350125007,-0.5470751,8.285733,0.8810662,1.2412546,9.65602,1.17939271409350125030,0.35194764,7.5824366,1.2886791,1.1855443,9.660986,1.1959221409350125031,0.9540894,7.657854,1.6843209,1.1237434,9.666569,1.21040061409350125035,1.1324574,8.222287,2.0135236,1.0522327,9.672887,1.22410831409350125067,1.0642227,8.479664,2.223615,0.97143304,9.679531,1.23829051409350125067,0.98581254,8.438364,2.3798366,0.88484436,9.686084,1.25189451409350125068,0.76195467,8.672996,2.0260932,0.7924974,9.694043,1.25213931409350125100,0.28790274,8.672996,1.3371617,0.6954217,9.704869,1.2256761409350125101,-0.3369839,8.39886,0.5590461,0.5938025,9.7186575,1.16854561409350125101,-1.0384849,7.8248496,-0.23642741,0.48642313,9.73305,1.09614651409350125106,-1.4820108,7.3298483,-0.86849666,0.3758417,9.745596,1.02591821409350125122,-1.7806876,7.4136457,-1.1558008,0.26927412,9.755869,0.95964071409350125142,-2.3469162,9.351752,-0.80684596,0.17483042,9.764288,0.893599151409350125143,-1.8794483,10.4644575,-0.28491,0.08888521,9.770979,0.83095441409350125149,-1.1653777,10.712855,0.023942016,0.018454233,9.774782,0.78974361409350125155,-0.4866215,10.01734,0.108337626,-0.03443232,9.774805,0.788910151409350125170,-0.048482586,9.277532,-0.16160862,-0.07606508,9.772656,0.812269331409350125197,0.16938977,8.978256,-0.16101007,-0.11656777,9.767434,0.86834981409350125197,-0.29927522,8.693945,0.26515785,-0.17211314,9.761333,0.925821071409350125198,0.18555063,8.775348,0.51714754,-0.2527381,9.755686,0.96597631409350125240,0.3196259,8.228871,0.06703765,-0.35115862,9.750074,0.99153861409350125242,1.067814,8.118738,-0.15143326,-0.46330535,9.743174,1.01307261409350125242,1.4652514,8.347384,0.31184477,-0.57147026,9.735247,1.03382471409350125245,1.6346412,8.455123,1.1025299,-0.6648139,9.72677,1.05752151409350125275,1.8483237,8.364742,1.7052702,-0.739999,9.716926,1.09733211409350125276,2.0644004,8.354567,1.9919758,-0.8036371,9.704198,1.16323331409350125276,1.9566613,8.358158,1.869273,-0.86279875,9.689395,1.24162281409350125277,1.7591397,8.22528,1.5526398,-0.92520535,9.671792,1.33071731409350125286,1.6711528,8.347384,1.1881226,-0.99623513,9.653239,1.41169071409350125330,1.6394296,8.546701,0.97264445,-1.0733616,9.635204,1.47685561409350125332,1.7950528,8.731055,1.0462662,-1.1484236,9.618366,1.52922311409350125333,1.9273324,8.974665,1.9405005,-1.2141815,9.602666,1.57637731409350125335,1.620276,8.772954,2.2619221,-1.2691987,9.586819,1.62863681409350125336,1.4083891,8.960898,2.2744915,-1.3235953,9.569722,1.68489981409350125368,0.9008184,9.095572,1.7902644,-1.3796632,9.552116,1.7389551409350125368,1.2665327,9.5385,1.2216414,-1.4407622,9.535243,1.78150131409350125369,1.9261353,9.821614,0.7553706,-1.49717,9.521607,1.80772921409350125398,2.441487,10.304645,0.6961141,-1.5453016,9.510797,1.82406651409350125399,2.4708161,10.802638,1.2838906,-1.5811646,9.503735,1.83011531409350125400,1.8171991,10.960057,1.8387469,-1.6086277,9.498191,1.83495941409350125406,0.60932434,10.913968,2.0123265,-1.6340426,9.492363,1.84264241409350125420,-0.29149407,10.754754,2.078167,-1.6614417,9.486134,1.85020921409350125443,-1.0552444,10.24419,2.208651,-1.6858668,9.4819355,1.84964571409350125443,-1.6567876,9.723452,2.1021092,-1.7041122,9.481919,1.8329251409350125451,-1.5586253,9.566631,1.7046716,-1.709755,9.487952,1.79607131409350125455,-1.1510124,9.576807,1.934515,-1.6894331,9.501485,1.74297611409350125469,-0.74878657,9.190742,2.220622,-1.6425422,9.520874,1.68090191409350125487,-0.92655605,8.383896,1.2030864,-1.5803621,9.544286,1.60607121409350125489,-2.0141222,7.367557,0.29867667,-1.5199964,9.569349,1.51246251409350125507,-3.0496144,7.0383544,-0.25019407,-1.4538765,9.59751,1.39442941409350125509,-4.4526167,10.014946,-0.8098387,-1.3801136,9.627804,1.25342611409350125515,-5.064934,12.927492,0.15023616,-1.3015678,9.657782,1.09706941409350125541,-4.4903255,17.147871,0.56922144,-1.2102139,9.683279,0.96947751409350125543,-3.6248214,19.601929,-0.05865794,-1.0895917,9.705848,0.88301241409350125548,-2.942474,19.608511,-0.37349546,-0.9344605,9.727483,0.820528031409350125557,-3.3506854,19.44391,0.7667431,-0.75762683,9.746526,0.77566851409350125579,-2.6258407,16.448166,2.1176715,-0.60296994,9.757737,0.770324231409350125580,-1.9614497,12.425308,3.6565444,-0.47155997,9.760368,0.8265921409350125588,-1.7567455,8.684368,4.819528,-0.36245957,9.756559,0.921179651409350125620,-2.2643163,7.5213847,5.3767786,-0.26204637,9.746392,1.05336741409350125620,-3.0879216,8.237251,4.4502225,-0.18527253,9.7329035,1.1860331409350125621,-1.8980033,10.508151,3.803788,-0.11893532,9.722872,1.27358871409350125647,-1.9812019,8.944139,2.9532478,-0.025534721,9.72026,1.29857051409350125648,-1.115698,7.4070616,2.2870612,0.10154295,9.723338,1.27153351409350125648,0.82719666,8.267777,2.5743654,0.2500916,9.727724,1.21623621409350125657,2.2230163,9.275137,2.6551697,0.4144756,9.729312,1.15718651409350125670,2.2098482,8.836999,1.9315223,0.5843815,9.726416,1.10713281409350125712,2.2942438,8.623316,0.7152678,0.7267028,9.721604,1.06428951409350125714,2.0775685,8.133103,-0.16579847,0.8393198,9.716483,1.02756191409350125716,0.85054016,6.3153057,0.1921347,0.9384839,9.710783,0.995153551409350125718,0.7410054,5.6563015,0.6733692,1.0103751,9.704253,0.98843621409350125719,0.6931214,5.003283,0.9091981,1.069156,9.695652,1.01075631409350125754,0.80205756,4.707599,1.0546459,1.1264528,9.684198,1.05727141409350125756,0.78529817,4.57113,1.1540052,1.1842886,9.670685,1.11611281409350125756,0.7577648,4.533421,1.3497312,1.2399193,9.656495,1.17690531409350125757,0.83378077,4.709395,1.536479,1.2914912,9.642462,1.2350551409350125773,1.0163386,5.1648917,1.7286136,1.3373303,9.629398,1.2870921409350125776,1.3599066,5.6497173,1.7998412,1.3773317,9.6181345,1.3284791409350125787,1.7304093,6.0519433,1.8890251,1.4119349,9.609427,1.3548981409350125819,2.0907366,6.4541693,2.0123265,1.4393455,9.604132,1.36356511409350125820,2.565387,6.976105,2.1080947,1.4638138,9.600571,1.36260281409350125821,3.1597476,7.606379,2.0033484,1.4780434,9.600756,1.34583431409350125850,3.8025908,8.262989,1.903989,1.481431,9.604179,1.31737631409350125851,4.3760023,8.767567,2.018312,1.4731805,9.610361,1.28105061409350125851,4.602853,9.338584,2.6270378,1.4517905,9.618686,1.2424141409350125856,4.735731,9.991602,3.38181,1.415068,9.628015,1.21215961409350125874,4.7919946,10.361506,4.009091,1.3674923,9.636838,1.19654241409350125876,4.88896,9.894038,3.684078,1.3168721,9.644213,1.19390631409350125887,1.4317327,9.932345,3.1860838,1.2716552,9.651043,1.18771231409350125919,-0.6404489,15.433622,3.122039,1.2009705,9.662054,1.17165881409350125920,0.016759412,16.434998,0.60693014,1.102388,9.675284,1.15930761409350125920,2.0608091,14.624383,-1.0875661,1.0224234,9.686594,1.1379521409350125950,4.3035774,13.007099,-0.18136078,1.0212715,9.68827,1.12464181409350125950,5.4420204,10.864887,2.7778726,1.1044483,9.677549,1.13824921409350125951,3.4213142,12.588114,7.697957,1.23788,9.653471,1.20356331409350125971,2.7449522,18.675371,4.9972973,1.3759905,9.619034,1.32333451409350125971,1.0498575,19.608511,1.0827777,1.5164796,9.590278,1.37741791409350125988,-2.336741,18.293497,1.1180922,1.6463047,9.574341,1.33867541409350126005,-3.709217,13.157335,0.007182605,1.7180712,9.566593,1.30342521409350126005,-2.722806,9.630077,0.27832595,1.7561018,9.557122,1.32208921409350126020,-2.2948422,7.949947,2.3720553,1.773106,9.541269,1.41090851409350126020,-2.0614076,7.821857,2.698864,1.7771841,9.522191,1.52966671409350126034,-1.6310499,7.945757,1.4413095,1.7531747,9.510605,1.62639651409350126036,-0.81881696,8.474277,0.3429694,1.7137928,9.512438,1.65736571409350126052,-0.45549688,9.416994,0.3705027,1.6751077,9.524073,1.62986291409350126068,-0.60693014,10.360908,0.011372458,1.6421719,9.538425,1.57864331409350126069,-0.3681085,10.350134,0.44891283,1.6072371,9.553505,1.52241171409350126084,1.1851299,9.575011,0.6123171,1.5652121,9.568222,1.4729621409350126087,1.1593921,10.153211,0.2741361,1.5233091,9.582479,1.42338481409350126102,1.0468647,11.430517,0.3764882,1.4681652,9.600228,1.36032251409350126119,0.8062474,11.850101,0.6973112,1.3971019,9.620279,1.29178991409350126120,0.53330845,11.083957,0.31783026,1.3098732,9.6393585,1.23991411409350126134,0.5638345,10.272921,0.29628247,1.2154982,9.656958,1.19838311409350126136,0.3645172,9.728839,0.55126494,1.112905,9.672858,1.1694731409350126152,0.05626374,9.190742,0.60214174,1.0041345,9.688755,1.13583591409350126164,-0.2124854,8.760384,0.5129577,0.89183635,9.704626,1.09326731409350126170,-0.5482722,8.364143,0.18734628,0.7798051,9.719081,1.0496481409350126190,-0.9295488,8.176797,-0.32142156,0.6718461,9.73136,1.00977661409350126192,-1.2671312,8.214506,-0.58119243,0.57166207,9.741455,0.97347641409350126196,-1.572392,8.549096,-0.5021838,0.48123598,9.749615,0.940131371409350126224,-0.985214,8.934562,-0.17298107,0.40367186,9.755763,0.912432971409350126225,-0.8319851,9.1272955,0.20290859,0.3444844,9.759306,0.898716151409350126228,-0.6877344,9.22067,0.35913026,0.29008314,9.7612505,0.89678451409350126236,-0.24600422,8.851962,0.17298107,0.23263745,9.760761,0.91859181409350126264,-0.51116204,8.446145,-0.13347675,0.16371688,9.758936,0.95222781409350126265,-0.31364042,8.33242,0.21906945,0.07402926,9.757361,0.97919771409350126268,-0.012569559,8.838196,0.12330139,-0.032516807,9.756009,0.9948011409350126297,0.62608373,8.526949,-0.09816227,-0.1449763,9.754459,0.999935751409350126298,1.2348095,8.307879,-0.12330139,-0.25435072,9.751978,1.00230771409350126299,1.863886,8.56825,0.107140526,-0.3589586,9.747656,1.01230491409350126329,1.8806454,8.581417,0.22625206,-0.44996536,9.740878,1.0407841409350126330,1.9153614,8.578424,0.6667852,-0.5292618,9.730983,1.09464971409350126331,1.8034325,8.399458,1.1671734,-0.59956735,9.71714,1.17817351409350126336,1.5849615,7.9355817,1.4796166,-0.6678849,9.700189,1.27697551409350126356,1.5340848,7.5088153,1.5586253,-0.7353522,9.67931,1.39305641409350126357,1.4389153,7.2143283,1.3329718,-0.80660605,9.655894,1.51112931409350126368,1.5771804,7.2125325,1.163582,-0.88576585,9.632388,1.61335421409350126390,1.6771383,7.3867106,1.2838906,-0.9675425,9.611447,1.68947631409350126391,1.3706805,7.6506715,1.6531962,-1.0409458,9.594452,1.74163091409350126397,1.0193313,8.045116,2.4307132,-1.1021883,9.580251,1.78167871409350126422,0.43275195,8.388085,2.767697,-1.1540715,9.566021,1.82476211409350126422,0.16639702,8.8777,2.0847511,-1.2066596,9.550035,1.87381721409350126428,0.28311434,9.496601,1.0815806,-1.2608082,9.534882,1.91488731409350126436,1.0259154,10.074203,0.24480712,-1.3108855,9.523996,1.93531761409350126458,2.4013844,10.90918,0.5847838,-1.350499,9.5175085,1.93999781409350126460,2.3169887,11.118672,1.8064252,-1.3690162,9.5168705,1.93012151409350126469,1.8118122,10.918159,2.5354595,-1.3816943,9.516217,1.92429511409350126499,1.0133458,10.788273,2.529474,-1.3947239,9.512921,1.93118791409350126500,0.56203884,10.642226,2.6922798,-1.4092263,9.507776,1.94593161409350126501,0.17657238,10.324396,2.9586349,-1.4192139,9.502938,1.96224031409350126518,0.11133038,9.97604,2.9388826,-1.4205074,9.503761,1.95731081409350126519,0.31902736,9.768343,2.6144683,-1.4036732,9.510843,1.93493181409350126535,0.80684596,9.602545,2.971803,-1.3614019,9.523992,1.900151409350126536,0.7751228,8.852561,2.867655,-1.2977657,9.54202,1.85366071409350126550,-0.22026655,7.854179,1.9153614,-1.2310046,9.562183,1.79434691409350126569,-1.5286977,6.8970966,1.2030864,-1.1760405,9.585944,1.7020571409350126571,-2.8951883,6.76362,0.23582886,-1.1231042,9.612629,1.58315811409350126588,-4.3329067,8.077438,-1.0217255,-1.0676621,9.641749,1.43776241409350126589,-5.0517654,10.773908,-1.4808137,-1.0092739,9.671345,1.27155331409350126596,-5.5377884,14.446613,-1.1653777,-0.94175273,9.698531,1.10544061409350126619,-5.127183,18.75019,-1.0480618,-0.86432695,9.720221,0.969876951409350126621,-3.5954924,19.608511,-1.5215151,-0.7675666,9.7376175,0.871820871409350126637,-2.7353754,19.608511,-1.2952632,-0.6328525,9.753298,0.801918451409350126638,-2.6839,16.866552,1.0049661,-0.49093595,9.7647915,0.76038941409350126649,-1.5801731,13.55178,2.724003,-0.3780067,9.767278,0.79233771409350126681,-1.0755951,10.708067,4.243124,-0.26456684,9.764716,0.866452161409350126681,-2.4061728,7.459734,4.953005,-0.16883302,9.755487,0.98608031409350126685,-3.120842,7.1407065,4.546589,-0.10154408,9.74255,1.11481481409350126711,-3.0107086,7.7649946,3.517681,-0.06084369,9.730827,1.21560081409350126712,-2.112883,8.540117,3.145981,-0.020335399,9.725379,1.25975811409350126712,-1.496376,7.0862384,2.7503393,0.05720429,9.72646,1.25023631409350126716,0.4770447,7.8595657,2.8030117,0.17561561,9.730298,1.20865831409350126743,1.9027919,8.92319,2.7455509,0.3256464,9.732855,1.15579751409350126743,2.4372973,8.771158,1.927931,0.49271405,9.732201,1.10086111409350126748,2.3828292,7.817667,0.74519527,0.64686966,9.729314,1.04518231409350126768,2.5863364,7.451953,0.033518825,0.76793844,9.725823,0.99449091409350126769,2.2421699,6.737882,-0.28311434,0.87592304,9.721059,0.950867951409350126795,1.8142064,5.922058,-0.074818805,0.9657845,9.714475,0.930922151409350126797,1.5544355,5.446809,0.2825158,1.0426531,9.705719,0.93928821409350126797,1.2467805,5.1660886,0.57400984,1.1123679,9.694593,0.9736011409350126824,1.1228806,4.961983,0.6991069,1.1810936,9.681095,1.02557421409350126825,0.9959879,4.88477,0.7320272,1.2525791,9.66572,1.08410551409350126829,0.78290397,5.141548,1.0223241,1.3247067,9.649447,1.14180861409350126863,0.91458505,5.441422,1.2024878,1.3923724,9.632973,1.1989671409350126864,1.1168951,5.965752,1.3754689,1.4518852,9.617413,1.25211861409350126865,1.2737153,6.2249246,1.4490906,1.5008924,9.603957,1.29681461409350126869,1.407192,6.4457893,1.5298948,1.5374771,9.592875,1.33541541409350126910,1.7172412,6.7444663,1.7136499,1.5675689,9.584657,1.35921351409350126911,2.2068555,7.117363,2.0362685,1.5824429,9.581024,1.36757171409350126912,2.8072014,7.6847887,2.445677,1.5838538,9.581138,1.3651331409350126914,3.448249,8.373122,2.8622682,1.5736797,9.583904,1.35745871409350126917,4.0982747,9.139865,3.1429882,1.5528833,9.588594,1.34826771409350126948,4.818331,10.199299,3.1974564,1.5223238,9.594728,1.3394451409350126949,4.815338,10.7990465,3.2980127,1.485466,9.601955,1.32898681409350126949,5.079299,11.227609,2.9640217,1.4407743,9.61067,1.31513511409350126967,4.699219,10.88823,2.718616,1.3988322,9.619779,1.29364431409350126969,3.5793316,10.564415,3.0759506,1.3591671,9.62858,1.27023211409350126987,1.6801311,13.204621,3.8229415,1.3130695,9.637094,1.25406011409350126989,0.93732995,15.460558,2.629432,1.2568437,9.643203,1.26466311409350126997,1.5765818,14.601638,0.6757634,1.2131523,9.647448,1.27491631409350127017,3.4727895,13.001713,-0.6434417,1.2227727,9.648226,1.2597611409350127017,6.6983776,9.260772,1.7369933,1.2922862,9.641453,1.24208371409350127032,5.876568,9.962872,5.1421466,1.4151483,9.619478,1.2780441409350127056,4.702811,14.505271,7.575254,1.544321,9.58912,1.3543341409350127057,3.5739446,18.942924,5.8921304,1.6664292,9.555102,1.44687161409350127057,0.8882488,18.330606,2.8766334,1.7705257,9.529303,1.4926491409350127107,-2.2146366,16.329653,2.6527755,1.8376572,9.517123,1.48921881409350127110,-3.6242228,14.1904335,0.9498995,1.8559915,9.513169,1.4917431409350127112,-3.1304188,13.23395,-1.0031705,1.8540564,9.512761,1.4967481409350127113,-3.0496144,12.4869585,-0.6404489,1.8400638,9.511663,1.52079731409350127115,-3.2196028,11.719617,-1.0570401,1.7992043,9.511237,1.57149761409350127118,-3.0711622,10.316615,-1.8231846,1.728116,9.517803,1.61104311409350127153,-2.9287071,9.1751795,-1.2587515,1.6439954,9.529251,1.6312761409350127154,-2.9759927,8.7771435,-0.073023155,1.5630592,9.540523,1.64488891409350127155,-2.7114334,8.543709,0.9211691,1.4910816,9.549793,1.65785991409350127157,-1.8650831,7.953538,1.5065514,1.431687,9.557043,1.66840571409350127168,-0.8912416,7.0634937,1.4856021,1.386013,9.563301,1.67111551409350127187,-0.15143326,6.8426285,1.1180922,1.3447382,9.571028,1.66057591409350127189,0.45489833,7.3753386,0.98102415,1.2989383,9.580516,1.64220961409350127197,0.7469909,8.328231,1.2940661,1.2495064,9.592699,1.60911941409350127223,1.1953052,9.930551,1.7441759,1.1906823,9.607196,1.56666871409350127223,1.3611037,10.105926,0.7751228,1.1196998,9.623518,1.51807561409350127229,0.94690675,9.787497,-0.20590134,1.0374153,9.643904,1.44543781409350127260,0.34715924,9.297882,-0.55844754,0.94145715,9.66891,1.3402341409350127261,-0.46447513,8.854955,-0.6769605,0.8332695,9.694574,1.22118221409350127262,-0.7350199,8.313267,-0.8182184,0.7150654,9.716978,1.11328331409350127269,-0.6607997,7.943961,-1.0708067,0.6002817,9.734227,1.02708171409350127287,-0.7026982,8.069656,-0.9684546,0.5004237,9.746838,0.95870891409350127292,-0.7733272,8.610746,-0.2765303,0.419931,9.755591,0.90690921409350127299,-0.97264445,9.19972,0.5081693,0.34829465,9.761975,0.867721741409350127317,-0.45789108,9.432556,0.98940384,0.29010376,9.764678,0.85865771409350127317,-0.09876082,9.068638,0.7266402,0.24276754,9.763365,0.887789851409350127336,0.035913024,8.484452,0.38845924,0.19641192,9.758997,0.9454071409350127337,0.29448682,8.196549,0.39683893,0.13747951,9.753682,1.00855911409350127348,0.7882909,8.303091,0.53330845,0.05888543,9.749114,1.05911411409350127367,1.4586674,8.410232,0.31603462,-0.033956338,9.7452755,1.09491591409350127385,1.9985598,8.358158,-0.037708677,-0.13077961,9.741614,1.11992221409350127387,2.847903,8.755595,0.11611878,-0.22592428,9.737877,1.13714661409350127389,3.1136594,9.0716305,0.78290397,-0.3062135,9.733897,1.15233181409350127399,2.5893292,9.26197,1.75076,-0.37159082,9.728394,1.1792661409350127420,2.231396,9.216479,1.8674773,-0.4341871,9.720564,1.22169181409350127420,1.7100586,9.308058,1.7100586,-0.4944779,9.709555,1.28468811409350127432,1.2785037,9.305065,1.3874398,-0.55502325,9.695863,1.36109081409350127456,1.1749545,9.078215,1.1540052,-0.6179634,9.680855,1.43860171409350127457,1.3682863,8.8328085,0.95109665,-0.68252707,9.665668,1.50977671409350127458,1.3263878,8.447342,1.0259154,-0.7445888,9.651288,1.57118481409350127485,1.5149311,8.276755,1.7818847,-0.80211824,9.638421,1.62106321409350127486,1.4478935,7.929596,2.2319946,-0.8530765,9.626129,1.66742161409350127492,1.3383588,7.8613615,2.0524294,-0.90076315,9.613334,1.7154611409350127498,1.039682,8.146272,1.6005238,-0.94711274,9.600986,1.75910171409350127514,0.9403227,8.568848,0.9187749,-0.9927603,9.5898905,1.79410711409350127517,1.1599907,9.274539,0.55365914,-1.0367681,9.582444,1.80893621409350127534,1.8992004,10.032902,0.6655881,-1.0775257,9.578529,1.80584971409350127552,2.2331917,10.452486,1.0432734,-1.1088256,9.577307,1.79334961409350127552,1.977012,10.740988,1.4820108,-1.1312191,9.577282,1.7794371409350127557,1.3904326,10.79366,1.702876,-1.1486945,9.577051,1.76945851409350127583,0.748188,10.839748,1.5819688,-1.16403,9.576324,1.76335251409350127584,0.34955344,10.827777,1.311424,-1.1764829,9.57691,1.75187661409350127607,1.0941502,10.506355,1.6675615,-1.1820226,9.581351,1.72363131409350127610,1.0971429,9.944317,1.4466964,-1.1664171,9.591077,1.67961051409350127613,0.90979666,9.39365,0.7158663,-1.1320896,9.604549,1.62524371409350127619,0.90740246,9.044696,1.2162545,-1.0898322,9.619228,1.5662431409350127641,0.12629414,8.425196,1.6448165,-1.028988,9.634746,1.51104211409350127642,-0.919972,7.422025,1.2922704,-0.96144897,9.650994,1.45062181409350127668,-2.207454,6.8043213,0.55006784,-0.88983864,9.66824,1.37974931409350127668,-3.5446155,7.541735,-0.12509704,-0.8095533,9.686777,1.29667151409350127671,-4.2521024,10.1699705,-0.13347675,-0.72125226,9.705943,1.20201721409350127677,-5.088876,14.054563,0.63087213,-0.6228576,9.723823,1.1089351409350127707,-5.029619,18.626291,1.3263878,-0.5201911,9.736829,1.04592431409350127709,-2.4690206,19.608511,1.2042835,-0.4078067,9.744382,1.02522611409350127710,-0.8535329,19.608511,0.5410896,-0.24079959,9.7499,1.02559711409350127742,-1.4945804,19.598337,0.28311434,-0.05351243,9.754302,1.01049691409350127744,-1.9063832,17.43338,1.0636241,0.10519904,9.756179,0.98808661409350127745,-1.785476,14.472351,2.8275523,0.21005824,9.753858,0.99423031409350127749,-1.8381484,11.098921,3.752911,0.27906892,9.745706,1.05533371409350127770,-1.8896236,8.255806,3.7511156,0.3290284,9.734874,1.13770561409350127770,-2.2403743,7.2789717,3.1172507,0.3716127,9.726072,1.19825271409350127777,-1.2114661,8.842984,2.6300306,0.4215211,9.721663,1.21736821409350127803,0.06404489,8.7292595,2.6162639,0.5041767,9.719509,1.20306021409350127804,1.3808558,9.803059,2.9724014,0.6283841,9.71577,1.17444831409350127809,1.5981296,9.150639,2.5133133,0.7777397,9.708546,1.14440331409350127841,1.4203602,7.928399,1.5251064,0.92564374,9.698807,1.11657241409350127842,1.5795746,7.079056,0.7248446,1.0476899,9.689434,1.08978221409350127845,1.6364368,6.5307837,0.3812766,1.1549188,9.679349,1.07086651409350127849,1.4083891,6.055535,0.6955156,1.2430189,9.669073,1.06505131409350127863,1.4628572,5.5539494,1.0696096,1.319873,9.6573105,1.07919871409350127881,1.4544775,4.7746367,1.0301052,1.3912926,9.643392,1.11340341409350127882,1.2006922,4.289212,0.8343793,1.4602801,9.62755,1.16115261409350127903,1.1905168,4.2143936,0.70509243,1.5270079,9.610744,1.21336911409350127903,1.1887212,4.3903675,0.6452374,1.5920143,9.593519,1.26502011409350127910,1.1779473,4.5441947,0.62847793,1.6529428,9.57649,1.31492481409350127931,1.0761937,4.7321396,0.7266402,1.7055933,9.560664,1.36199771409350127931,1.1480197,5.197812,0.92057055,1.7456133,9.547281,1.40450551409350127947,1.2198458,5.553351,1.1498153,1.7795084,9.535249,1.44318911409350127949,1.4502877,5.9244523,1.4646529,1.7990675,9.527223,1.47165361409350127964,2.1068976,6.0836663,2.0602105,1.8048279,9.524023,1.48524381409350127985,2.7886465,7.177218,2.191293,1.7994672,9.52526,1.48382461409350127985,3.3255463,7.920019,2.3989902,1.7820694,9.531071,1.46741621409350127989,3.7732618,8.798093,2.6551697,1.7509845,9.540499,1.44336871409350127997,4.244321,9.749189,3.0310593,1.706056,9.552376,1.41840161409350128019,4.419098,10.450092,3.2620997,1.6511633,9.565082,1.39758971409350128019,4.2515035,10.481216,3.0137014,1.5889144,9.578651,1.37665491409350128030,4.6154222,9.914988,1.9153614,1.5247352,9.593636,1.34452461409350128048,2.6168625,9.615114,2.3169887,1.473905,9.608704,1.2926051409350128049,0.17298107,13.000515,3.7193923,1.416624,9.623912,1.24252551409350128064,-0.35254622,16.61995,3.0759506,1.3318874,9.63947,1.21534731409350128083,1.1252748,15.641319,0.7781156,1.2408361,9.651671,1.21489431409350128083,3.7702692,13.815143,-0.60214174,1.2134581,9.65452,1.21991231409350128090,6.591836,12.14399,0.4213795,1.2705306,9.645821,1.23055471409350128097,6.0303955,9.908403,4.0563765,1.3993336,9.622034,1.27621351409350128116,4.5435963,11.857284,8.270171,1.5409938,9.58745,1.36986571409350128118,3.7086184,18.116924,6.096236,1.6839879,9.545201,1.49122131409350128129,2.3918076,19.608511,1.9656396,1.8186152,9.510717,1.55218581409350128151,-0.91937345,17.850569,1.2204443,1.9235641,9.491585,1.54276371409350128153,-2.6527755,10.622475,-0.57640404,1.955784,9.483478,1.55209041409350128158,-2.3894134,8.954913,1.4580688,1.9852026,9.472042,1.5842261409350128181,-2.327164,8.978256,2.995745,1.9869282,9.457901,1.66451871409350128182,-2.3529017,9.467272,2.4013844,1.951516,9.447943,1.76021581409350128204,-1.9919758,9.637859,1.5263035,1.885999,9.4500675,1.81923511409350128205,-1.3934253,9.859921,0.6793547,1.8130082,9.462965,1.82638451409350128212,-1.3174095,9.863512,0.06823475,1.7436446,9.4811325,1.7995071409350128235,-1.4263457,9.861118,-0.3196259,1.6777182,9.500205,1.76118641409350128237,-1.1857284,9.7803135,-0.11671733,1.6137198,9.519152,1.71816251409350128238,-0.38367084,9.578004,0.20171149,1.5487108,9.538593,1.6694641409350128273,0.43035775,9.498397,0.25498247,1.4822127,9.558772,1.61347691409350128275,0.78529817,9.759963,0.25737667,1.4163332,9.578345,1.5555391409350128276,1.0253168,9.802461,0.6973112,1.3451139,9.597569,1.49924561409350128278,1.2204443,9.475652,0.961272,1.2692095,9.613247,1.46457741409350128307,1.4263457,9.221867,1.0199299,1.1923773,9.624704,1.4538551409350128308,1.4772224,9.087791,1.0809821,1.1149973,9.635359,1.44465941409350128310,1.4568717,9.2787285,1.2024878,1.0343839,9.649017,1.41312561409350128339,1.3503298,9.412206,1.240795,0.9474503,9.665954,1.35722451409350128340,0.9271546,9.222465,0.95947635,0.85589755,9.683377,1.29229941409350128341,0.33279404,8.316858,-0.093373865,0.7595501,9.699305,1.23164961409350128364,-0.004788403,8.346786,-0.46866497,0.66207224,9.712924,1.17947571409350128365,-0.4854244,8.664018,-0.3309984,0.5718297,9.723531,1.13857321409350128388,-0.64463884,8.911219,0.044292733,0.4868174,9.732178,1.10368291409350128389,-0.7098808,8.992621,0.3764882,0.41875094,9.737691,1.08278451409350128393,-0.7433996,9.130887,0.40581718,0.364377,9.740213,1.07975291409350128398,-0.82480246,8.80767,0.12629414,0.31152025,9.740509,1.09353021409350128423,-1.146224,8.602965,-0.14963761,0.24827096,9.739875,1.11516271409350128423,-1.1761516,8.536526,-0.15023616,0.16630645,9.739533,1.13322811409350128431,-1.0414777,8.49343,-0.16819267,0.06654227,9.739974,1.1396831409350128450,-0.42317516,8.290522,-0.13587095,-0.044017456,9.74098,1.13215741409350128452,0.47225627,8.369531,0.021547815,-0.1510306,9.741429,1.11899391409350128458,1.2808979,8.736442,0.39085343,-0.24409528,9.740002,1.11498561409350128483,1.6124948,8.665215,0.8002619,-0.32022053,9.73568,1.13331341409350128484,1.7591397,8.242638,1.1019313,-0.38989824,9.729116,1.16732611409350128490,1.7340006,8.148665,1.2808979,-0.45743948,9.71883,1.22697531409350128500,1.5185224,8.059482,1.3455414,-0.522415,9.70554,1.30382231409350128522,1.3210008,8.185776,1.3670892,-0.5873432,9.689885,1.3897971409350128523,1.1540052,8.228272,1.186327,-0.65777636,9.672428,1.47711031409350128530,1.6998832,8.016984,0.7230489,-0.7343325,9.654562,1.55582871409350128549,2.15957,8.098388,0.97743285,-0.80996233,9.637901,1.62025121409350128550,2.022502,8.274361,1.459266,-0.87660766,9.622745,1.67473921409350128558,1.7238252,8.632893,2.2439656,-0.9301576,9.60874,1.72548931409350128580,1.340753,8.950723,2.5995045,-0.9691528,9.594651,1.78151331409350128581,0.93493575,9.021352,2.3307555,-1.0008863,9.579824,1.84270921409350128608,1.2749124,9.094376,1.5568297,-1.0336071,9.564483,1.90334391409350128608,2.0967221,9.173983,0.770933,-1.0653968,9.550941,1.95316281409350128611,3.067571,9.3661175,0.64583594,-1.0941461,9.541386,1.9837321409350128649,3.2507274,9.846154,1.3180081,-1.1153721,9.536344,1.99612011409350128649,2.790442,10.296265,2.2451627,-1.1307352,9.533883,1.99923031409350128650,1.9243397,10.706271,2.806603,-1.1432297,9.531358,2.00415371409350128650,1.1360487,11.19409,2.9460652,-1.1539125,9.528467,2.01176621409350128658,0.47644615,11.335946,2.9215245,-1.1601397,9.527675,2.01193551409350128685,0.19572599,11.142614,2.4390929,-1.1605606,9.531519,1.99340421409350128686,0.50517654,10.961852,1.8848352,-1.1494341,9.541949,1.94945991409350128694,0.9247604,11.328165,1.8896236,-1.1287286,9.556085,1.89145341409350128731,1.2976574,11.745355,1.9560628,-1.0833925,9.575093,1.82050561409350128733,1.2521675,11.499949,0.94570965,-1.0222859,9.596891,1.73925281409350128734,-0.7110779,8.87351,-0.427365,-0.9569677,9.6216135,1.63680551409350128756,-2.066196,7.5375457,-0.39444473,-0.9052524,9.646436,1.5156451409350128757,-3.4662056,7.1748238,-0.98820674,-0.85282403,9.670672,1.38605991409350128760,-3.9091327,8.380903,-1.3365631,-0.7994403,9.693775,1.24979791409350128760,-4.497508,10.9834,-0.5201403,-0.7358054,9.715564,1.11211911409350128785,-5.327099,14.921862,0.82121116,-0.66083443,9.733568,0.995670561409350128785,-5.4300494,18.989012,0.87687635,-0.58439153,9.74505,0.92890291409350128790,-4.2503066,19.608511,-0.7032967,-0.5057723,9.751765,0.904257061409350128821,-3.8552632,19.594746,-0.79008657,-0.40190563,9.759476,0.8726471409350128822,-2.8443117,17.59798,0.39624038,-0.28783172,9.765306,0.852246461409350128823,-1.8076223,14.025832,2.0608091,-0.17210045,9.766841,0.865786971409350128830,-1.5035586,10.839149,3.9534256,-0.06981486,9.761623,0.93607111409350128852,-2.2104468,7.6524673,5.2540755,0.01278923,9.7498665,1.05371631409350128853,-2.5863364,7.505822,5.485116,0.07245507,9.7352295,1.17916771409350128858,-2.859874,8.340201,4.6938324,0.12462376,9.72274,1.27405271409350128879,-1.6681601,9.731233,3.9707835,0.1926052,9.717184,1.30752611409350128880,-1.5837644,8.21271,2.7407625,0.2972779,9.717264,1.28717471409350128897,0.02813187,7.762002,1.9596541,0.42092094,9.720251,1.22879761409350128915,1.3186066,8.902839,2.042254,0.55517757,9.722272,1.1574151409350128916,2.7515364,8.780136,0.45310268,0.69939816,9.7214985,1.08335961409350128919,2.690484,8.015787,-0.32142156,0.8465769,9.71749,1.01197181409350128931,2.2038627,6.9342065,-0.47165772,0.97156036,9.711542,0.95520191409350128951,1.9434932,6.295553,0.051475335,1.0681044,9.704805,0.919940231409350128952,1.666963,5.8262897,0.56084174,1.1441715,9.696596,0.915038351409350128959,1.4999673,5.1810527,0.85652566,1.2081017,9.686094,0.943637971409350128989,1.2665327,4.7022123,0.93972415,1.2663854,9.673075,0.999141751409350128992,0.9068039,4.5256395,0.97144735,1.3212483,9.658333,1.06831631409350128993,0.80205756,4.5423994,1.158195,1.3718799,9.642913,1.14131361409350129019,0.7727286,4.787805,1.3227965,1.4174556,9.6274185,1.21409451409350129020,0.90740246,5.1876364,1.3736732,1.4590209,9.61196,1.28525441409350129021,0.9911995,5.54138,1.4574703,1.4919059,9.598129,1.34926431409350129030,1.1492168,5.981913,1.7106571,1.5146292,9.58714,1.40108481409350129055,1.2880806,6.269816,2.0242975,1.526891,9.579658,1.43846151409350129055,1.5304934,6.5828576,2.32058,1.5276796,9.576392,1.45921961409350129059,1.941099,7.065289,2.5851393,1.5167056,9.577585,1.46282411409350129079,2.5671828,7.6572556,2.690484,1.4958478,9.582532,1.45186531409350129079,3.2680852,8.346188,2.594716,1.4667997,9.590335,1.42980831409350129099,3.7062242,8.985439,2.654571,1.4311496,9.600051,1.40043561409350129100,4.296395,10.241198,2.9741971,1.3886796,9.610678,1.36997191409350129111,4.501099,10.33517,2.9083564,1.3461578,9.620482,1.34334911409350129129,4.7638626,9.80665,2.7257986,1.3061414,9.629789,1.31588361409350129159,3.276465,9.783307,3.3836055,1.2717122,9.637792,1.29078451409350129160,0.7445967,13.412318,4.3514614,1.2332249,9.644885,1.27504461409350129160,0.272939,16.054918,2.7090392,1.1719518,9.652041,1.27868161409350129161,1.5783775,14.903307,0.32441434,1.1105189,9.659889,1.27424161409350129185,3.8391025,13.691841,-0.4309563,1.1032618,9.664054,1.24870121409350129186,6.0848637,12.008718,0.7074866,1.1644313,9.659424,1.22882271409350129191,6.007651,10.709863,4.9242744,1.2798069,9.641271,1.25634471409350129235,3.9426517,13.345879,8.678981,1.4132329,9.610157,1.34834661409350129236,3.247136,18.754381,4.5567646,1.5379435,9.572106,1.47644621409350129238,0.39624038,19.363705,1.5562311,1.6622608,9.543643,1.52517471409350129239,-3.0190883,16.461933,2.2505496,1.7492772,9.531098,1.50617911409350129241,-4.0156746,12.385205,1.5251064,1.7955533,9.52251,1.50605251409350129259,-3.1956608,10.119692,0.7128736,1.8207374,9.510755,1.5494671409350129260,-2.7138276,9.205706,2.7964275,1.8310219,9.49415,1.63672091409350129276,-2.528277,8.766968,2.606687,1.8137443,9.477857,1.74670181409350129279,-1.9093759,8.44375,1.7022774,1.7717835,9.471683,1.82165111409350129302,-0.89064306,9.999982,0.15203181,1.7223817,9.477567,1.83835031409350129303,-0.6781576,11.536461,-0.20350714,1.6735502,9.493601,1.80032481409350129311,-0.1352724,11.945271,-0.39923313,1.6245584,9.514062,1.73604251409350129332,0.92176765,11.401189,-0.17178397,1.578162,9.534456,1.66552021409350129333,1.4628572,10.67814,-0.39923313,1.53788,9.552349,1.59936141409350129339,1.0414777,10.836157,-0.76434886,1.4894565,9.571075,1.53181111409350129369,0.78290397,11.263522,-0.3513491,1.4211354,9.592806,1.45905941409350129371,0.5602432,11.208455,0.3477578,1.3336846,9.614555,1.3971351409350129371,0.6859388,10.354922,0.6703765,1.2310474,9.632389,1.36820781409350129381,0.8535329,9.333796,0.8499416,1.120897,9.645429,1.37101751409350129406,0.48602295,8.599973,0.95827925,1.0072653,9.656848,1.37880311409350129407,0.092176765,8.153454,0.96306765,0.8868265,9.669873,1.37020921409350129413,-0.2753332,7.699753,0.5943606,0.7616694,9.683911,1.34614921409350129431,-0.8403648,7.305308,-0.11192893,0.6372868,9.697288,1.31410531409350129432,-0.91937345,6.991069,-0.41060558,0.51628786,9.709327,1.27782061409350129439,-1.3976152,6.8264675,-0.65541273,0.39841864,9.719855,1.23937961409350129470,-1.4371196,6.8522053,-0.5662287,0.28669873,9.729041,1.197491409350129471,-0.9403227,7.219715,-0.019153614,0.19128177,9.736576,1.1545161409350129473,-0.62009823,8.102577,0.48722005,0.11828466,9.74178,1.11987381409350129497,-0.8702923,8.809465,0.046088383,0.05600644,9.744003,1.10529571409350129498,-0.9780314,8.6334915,-0.2184709,-0.012569705,9.743683,1.10946231409350129499,-0.6631939,8.775348,-0.077811554,-0.095496744,9.742189,1.11849271409350129511,-0.35673606,9.293693,-0.02813187,-0.1945307,9.741251,1.11381661409350129532,0.10474633,9.201516,-0.4985925,-0.30871388,9.741022,1.08975881409350129533,1.1857284,9.283517,-0.62847793,-0.4287645,9.740379,1.05430521409350129539,1.8118122,8.959103,-0.32202014,-0.54010546,9.738555,1.01943591409350129572,2.1080947,8.672397,0.3184288,-0.6416232,9.734243,1.00159281409350129573,2.2583308,8.482059,0.7835025,-0.7281338,9.726776,1.0149171409350129575,2.2942438,8.263587,1.1162965,-0.8002867,9.715993,1.06275151409350129620,2.1697452,8.350377,1.4395138,-0.86180484,9.701972,1.13992661409350129621,1.8189948,8.297705,1.4341269,-0.91803694,9.685057,1.23582071409350129623,1.6531962,8.221688,1.1593921,-0.9796565,9.665648,1.33637741409350129624,1.8082209,8.307879,0.9498995,-1.0505396,9.645861,1.42272141409350129626,2.0362685,8.340201,1.067814,-1.1282899,9.627732,1.48462951409350129650,2.0260932,8.281544,1.2330139,-1.2078599,9.611379,1.527381409350129651,1.6729485,8.198345,2.110489,-1.2843419,9.595938,1.56167191409350129651,1.06123,7.9667063,2.6731262,-1.3574612,9.579289,1.6015351409350129660,0.2837129,7.9194207,2.6258407,-1.4252868,9.561151,1.6502621409350129679,-0.32441434,8.910022,1.4550761,-1.4865669,9.541795,1.70723651409350129680,0.7703344,9.259575,0.7637503,-1.5393395,9.524416,1.75679471409350129693,2.0751743,9.576807,1.0516531,-1.5745798,9.511808,1.79347981409350129718,2.2164323,10.398617,1.6214731,-1.5915502,9.504567,1.81674421409350129720,1.6160861,11.219229,2.0685902,-1.5981191,9.501312,1.82797311409350129720,0.25977087,11.787253,2.0069396,-1.6016005,9.499303,1.83534561409350129752,-0.56563014,12.018892,2.528277,-1.6098614,9.496937,1.84036341409350129753,-1.1719618,11.550826,3.2680852,-1.6149697,9.495119,1.84525131409350129754,-1.2264298,10.984597,3.0538042,-1.6103556,9.4953985,1.84785511409350129759,-0.10534488,10.76493,2.7569232,-1.5961293,9.498509,1.84420351409350129785,1.1875241,10.874464,3.1914709,-1.546549,9.509985,1.82722221409350129786,1.5532384,10.68652,2.7814639,-1.4626763,9.528838,1.79783611409350129791,0.97264445,9.93474,1.1480197,-1.3717408,9.552702,1.74201381409350129832,-0.36032736,8.850166,-0.24001873,-1.2938133,9.580468,1.64654061409350129833,-2.0787656,8.015189,-0.88765025,-1.230061,9.610444,1.51549971409350129834,-3.389591,8.142081,-1.4502877,-1.1742586,9.640085,1.363911409350129836,-4.7046065,9.739613,-1.5532384,-1.1184716,9.667632,1.20678351409350129840,-5.5880666,12.790424,-0.7685388,-1.0595723,9.691478,1.05970991409350129873,-6.11539,16.752829,0.005985504,-0.99555814,9.709573,0.95051061409350129874,-4.724957,19.608511,-1.0594343,-0.92469317,9.724289,0.868061661409350129874,-5.4527946,19.024326,-0.10534488,-0.8252792,9.738908,0.80186351409350129906,-5.0427876,16.364967,1.6567876,-0.72587067,9.748741,0.77816321409350129915,-3.7104142,13.07294,3.316568,-0.62969923,9.752408,0.815110451409350129916,-2.8263552,10.110714,4.6513352,-0.53376937,9.749444,0.9131491409350129956,-2.2242134,7.1712327,5.258864,-0.43978828,9.740403,1.04952471409350129957,-2.2481554,6.043564,5.1768627,-0.3557433,9.727969,1.18762911409350129958,-2.2876596,7.0724716,4.4143095,-0.2865588,9.716023,1.29891561409350129959,-1.6454151,8.658031,3.5901055,-0.2136909,9.709649,1.35919931409350129960,-0.6895301,8.594585,2.7491422,-0.114221975,9.711375,1.35887781409350129961,0.5734113,7.7344685,1.9644425,0.020372635,9.718471,1.31198631409350129986,1.9081788,7.551911,1.7878702,0.17071415,9.725561,1.24689291409350129987,3.3446999,8.992023,1.8686744,0.33847374,9.731549,1.16307941409350129991,3.8576574,9.432556,1.2431892,0.5139657,9.73388,1.07602371409350130009,3.2016463,9.066243,0.074220255,0.6779467,9.73242,0.99538951409350130023,1.863886,7.9607205,-0.75956047,0.80636096,9.729334,0.927477361409350130024,1.1761516,6.761824,-0.6374562,0.89459676,9.72593,0.881135461409350130039,0.8355764,5.7670336,-0.06464344,0.95919883,9.721017,0.867282571409350130040,0.6488287,5.057751,0.41359833,1.016622,9.713377,0.88723821409350130054,0.8607155,4.5358152,0.997185,1.0751449,9.702871,0.93206381409350130059,0.9056068,4.2969937,1.0564415,1.1358011,9.690103,0.99108591409350130072,0.8984242,4.2664676,1.2395979,1.1930609,9.676548,1.05423831409350130090,0.9768343,4.489128,1.5861586,1.2464603,9.66259,1.11852121409350130094,1.1318588,4.9045224,1.7818847,1.2916954,9.649414,1.17928491409350130112,1.2605472,5.3606176,1.6897079,1.3294259,9.637717,1.23184131409350130112,1.435324,5.8262897,1.536479,1.3594787,9.62848,1.27065711409350130120,1.6729485,6.347627,1.555034,1.3802716,9.622894,1.29040591409350130144,1.9847932,6.6654577,1.7908629,1.3896884,9.621594,1.28999111409350130145,2.3822308,7.023989,2.1577742,1.3867161,9.624281,1.2730481409350130152,2.9059622,7.739856,2.5743654,1.3723203,9.629852,1.246221409350130160,3.5104983,8.822633,2.9951463,1.3481698,9.636982,1.21713211409350130179,4.0892963,10.163984,3.2836475,1.3158094,9.6444645,1.19305091409350130180,4.5034933,11.574768,3.8504748,1.2777964,9.651943,1.17371931409350130192,4.429273,12.134413,4.100669,1.2428412,9.657823,1.16283481409350130225,4.912902,11.63163,2.7275944,1.205716,9.663564,1.15420071409350130226,2.8173769,10.879851,2.2511482,1.1815622,9.670527,1.12035831409350130227,-0.60333884,14.067731,2.983774,1.1454089,9.680502,1.07065191409350130252,-1.1785458,17.444153,1.3988123,1.0721709,9.691712,1.04478591409350130253,3.1723173,12.446258,-2.0829554,1.0079488,9.700253,1.0293391409350130254,6.0064535,11.156382,-0.17058687,1.0604424,9.697043,1.00658211409350130261,4.572925,9.734225,5.3324857,1.1848301,9.679834,1.03313161409350130284,3.5152867,12.875419,6.9844847,1.3184111,9.651292,1.1334731409350130285,3.3758245,18.872295,2.8580782,1.4545605,9.619474,1.23301821409350130292,0.84575176,19.469648,2.19668,1.592,9.596416,1.24286711409350130312,-1.5406688,15.951967,2.5959132,1.7013054,9.583109,1.19999831409350130314,-2.1667526,11.864467,2.4558525,1.7806588,9.572564,1.16861681409350130320,-1.2354081,10.060435,3.3740287,1.8271475,9.55981,1.20081641409350130354,-0.8900445,10.1304655,3.7882257,1.8402535,9.542638,1.31223311409350130355,-0.87687635,10.554838,2.190096,1.8190906,9.528216,1.4402781409350130356,-0.9415198,10.519524,-0.088585466,1.7705934,9.527549,1.50374031409350130361,-0.88765025,10.597335,-0.81402856,1.7063339,9.54194,1.4866771409350130380,-1.0061632,10.881647,-0.8655039,1.6404271,9.561412,1.4348421409350130381,-1.210269,10.930728,-1.1749545,1.5766951,9.578741,1.39001571409350130392,-0.8912416,10.358514,-0.736217,1.5091388,9.594103,1.35870161409350130413,0.030526072,9.959281,-0.11372458,1.4426304,9.607539,1.33581471409350130414,0.41359833,9.768942,-0.012569559,1.3726307,9.620749,1.31432391409350130420,0.24839842,10.136452,0.86011696,1.2923099,9.636203,1.28215871409350130456,0.2220622,10.097546,1.2976574,1.1958573,9.652061,1.25619711409350130457,0.4225766,9.198523,0.9552865,1.0883677,9.664761,1.25627051409350130459,0.52492875,8.51857,0.6847417,0.9768851,9.673951,1.27701581409350130496,0.11731588,7.839813,0.5734113,0.86479867,9.683292,1.28699871409350130497,-0.46148238,7.2580223,0.60693014,0.7521222,9.695491,1.26576571409350130499,-0.96785605,6.9796963,0.4890157,0.6349707,9.708901,1.22655221409350130536,-1.3449428,7.056311,0.11791443,0.51540613,9.7208,1.18775771409350130538,-1.4646529,7.2065473,-0.47405192,0.39840856,9.730888,1.14956341409350130539,-1.4640543,7.4507556,-0.7661445,0.28556398,9.739407,1.11032181409350130540,-1.6687586,8.315661,-0.6087258,0.184751,9.746816,1.06576241409350130541,-1.447295,9.613917,0.10055647,0.09889745,9.752959,1.01998661409350130542,-1.1378443,9.931149,0.18854338,0.030282225,9.756506,0.989970271409350130558,-0.94451255,9.32362,0.038307227,-0.026917279,9.7566,0.98914491409350130573,-0.55964464,8.749012,-0.18794483,-0.08634098,9.753448,1.01645581409350130573,-0.6159084,8.526949,-0.26755205,-0.15775329,9.749057,1.04947651409350130593,-0.90979666,8.562862,0.04369418,-0.24799165,9.744962,1.06985121409350130617,-0.40102878,8.656237,0.051475335,-0.35302386,9.74078,1.07840481409350130618,0.5650316,8.549096,-0.16579847,-0.4575993,9.73612,1.08117911409350130619,1.134253,8.095993,0.338181,-0.5529033,9.730928,1.08338151409350130621,1.8902222,7.880515,1.043872,-0.6383755,9.724258,1.09620981409350130647,1.8962077,7.8811135,1.5514427,-0.7103595,9.715585,1.12835691409350130648,1.7435774,7.6548615,1.8249803,-0.77169514,9.703909,1.18702751409350130652,1.4742297,7.3591776,1.8148049,-0.82759994,9.688493,1.27222481409350130677,1.3186066,7.270592,1.7136499,-0.8875248,9.669353,1.37342311409350130678,1.3724761,7.517793,1.4107834,-0.9567516,9.64811,1.47274581409350130680,1.536479,7.8446016,1.0600328,-1.0371674,9.627221,1.55283741409350130692,1.8602947,8.282741,0.7445967,-1.1260293,9.608558,1.60564171409350130714,2.0260932,8.717887,0.7290344,-1.2143915,9.593061,1.63364981409350130715,2.1057005,9.087193,1.2162545,-1.2930256,9.5805435,1.64671171409350130720,1.9357121,9.398438,1.8285716,-1.3628689,9.56831,1.66145341409350130756,1.7208325,9.753379,2.208651,-1.4236948,9.555428,1.68442681409350130757,1.8531121,10.200497,1.9123687,-1.4749731,9.541021,1.72155571409350130758,2.4079683,10.218452,1.1115081,-1.5126247,9.52751,1.76321841409350130781,3.2836475,10.226234,1.0342951,-1.5369915,9.516975,1.79868561409350130782,3.151368,10.393828,2.019509,-1.5478014,9.509471,1.82884091409350130783,2.2026656,10.705673,3.0867245,-1.554877,9.501618,1.863331409350130814,0.682946,10.894217,3.3081882,-1.5648236,9.491493,1.9061191409350130815,-0.7272388,11.079168,3.098097,-1.5824981,9.480576,1.94544741409350130816,-1.1366472,10.364499,3.1591492,-1.6007482,9.473251,1.96608351409350130821,-0.61890113,9.633071,2.2002714,-1.6047782,9.470627,1.97542171409350130844,0.130484,8.939949,1.6190789,-1.5943274,9.477706,1.94976971409350130860,0.3788824,7.7679873,2.255338,-1.5466413,9.495642,1.9002871409350130861,0.10055647,6.6786256,1.8950106,-1.4716481,9.519962,1.83710871409350130876,-1.0085574,5.977723,0.7320272,-1.3869951,9.550752,1.740631409350130877,-2.4001873,6.5547256,-0.26635495,-1.303169,9.587141,1.59965011409350130881,-3.8402996,8.634688,-0.78649527,-1.217617,9.625794,1.42544051409350130921,-4.9069166,11.891401,-0.90261406,-1.1295762,9.661825,1.24240421409350130922,-5.6886234,16.133327,-0.76075757,-1.0386267,9.69199,1.07563041409350130922,-4.7016134,19.525911,-1.3245921,-0.94763404,9.715335,0.940562551409350130923,-3.0777464,19.608511,-1.6112977,-0.8228151,9.737361,0.822910251409350130947,-2.4498668,19.608511,-0.6254852,-0.6609046,9.7579155,0.71880521409350130948,-3.532046,19.42715,1.0301052,-0.48632082,9.772874,0.65177171409350130952,-3.1489737,16.585833,2.5905263,-0.35810748,9.778615,0.64871241409350130972,-2.4115596,13.517064,4.0946836,-0.25699204,9.776757,0.72068271409350130973,-2.4714148,10.007165,4.999093,-0.16379629,9.768755,0.84557431409350130990,-3.2010477,7.433996,4.981735,-0.08345289,9.757273,0.9793191409350131024,-3.2190042,7.2729864,3.7499185,-0.021506898,9.746465,1.08459571409350131026,-1.9422961,8.4826565,3.3566709,0.048909616,9.740273,1.13801251409350131027,-0.60214174,8.892065,2.9873652,0.15553334,9.737911,1.14859641409350131028,0.64823014,9.166202,2.670732,0.30309674,9.736336,1.13238331409350131077,1.7884687,8.813655,1.9021933,0.47494537,9.73312,1.10056051409350131078,1.9063832,7.9822683,0.9684546,0.65047306,9.727164,1.06279111409350131079,2.0272903,7.9445596,-0.025737667,0.8070552,9.719437,1.02549311409350131081,1.6693572,7.593809,-0.6512229,0.9366919,9.710797,0.99670081409350131082,1.1282675,7.1861963,-0.62488663,1.0405766,9.701574,0.983396051409350131100,0.59376204,6.8240733,-0.32022446,1.1243232,9.691462,0.990872561409350131101,-0.08080431,6.289568,0.12030864,1.194154,9.680081,1.02000281409350131101,-0.24361002,5.771822,0.55365914,1.2596049,9.666652,1.06753711409350131120,-0.20410569,5.1607018,0.777517,1.3270694,9.650942,1.12631741409350131121,-0.089782566,4.863222,0.94451255,1.3962699,9.633288,1.19188871409350131138,0.20410569,4.915296,1.1701661,1.4624261,9.614601,1.2614021409350131141,0.5117606,5.144541,1.4802152,1.521317,9.595865,1.33242731409350131157,0.8810662,5.291186,1.6998832,1.575519,9.57714,1.40231931409350131175,1.30484,5.3887496,1.9782091,1.616845,9.560743,1.46574651409350131176,1.7232267,5.346851,2.235586,1.6450952,9.548098,1.51587521409350131181,2.7503393,5.5407815,2.2661119,1.6620747,9.539735,1.54962521409350131207,3.210026,6.9958572,1.8956091,1.6732138,9.535271,1.56504271409350131209,3.9312792,7.705738,1.3521254,1.676163,9.535549,1.56019281409350131225,4.358644,8.205527,1.5717934,1.6696743,9.54055,1.53637931409350131226,4.4981065,8.541913,2.3971944,1.6492312,9.549419,1.50301221409350131232,4.7524905,9.029133,3.1453824,1.6145464,9.559921,1.47361221409350131242,4.6166196,9.309854,4.14975,1.5709594,9.570344,1.4529371409350131264,4.5914803,9.040505,4.4274774,1.5247762,9.579554,1.44139621409350131265,5.119402,8.39467,3.417723,1.4768884,9.588587,1.43114291409350131273,3.402759,8.611345,3.3345244,1.4415333,9.59849,1.40048991409350131294,-0.29867667,11.941081,4.103063,1.4034995,9.611084,1.35189771409350131295,-0.050278235,17.019781,2.6701334,1.3308767,9.625629,1.32151711409350131301,2.2810757,15.769409,0.12749124,1.2517935,9.636333,1.32078411409350131325,5.005677,12.97777,-0.47764325,1.2536384,9.63544,1.32554981409350131325,5.591658,11.547833,1.7956513,1.3452351,9.621383,1.33780311409350131333,3.3554738,12.989142,6.8103065,1.4791864,9.596775,1.37269741409350131343,1.560421,18.838177,5.2241483,1.604916,