time,acc_x,acc_y,acc_z,gravity_x,gravity_y,gravity_z1409527339567,0.08379706,9.449316,1.3904326,0.498087,9.3099375,3.04094981409527339572,-0.15382746,8.714295,0.95827925,0.40129817,9.335395,2.97653461409527339610,-0.5710171,8.0127945,0.8451532,0.2971143,9.358647,2.91510251409527339611,-0.9295488,7.5920134,0.9427169,0.18976335,9.3811245,2.8511241409527339612,-1.2910733,7.406463,1.1127052,0.08719971,9.402655,2.78439571409527339613,-1.6017209,7.2765775,1.2264298,-0.004289514,9.421612,2.72095751409527339620,-1.9369092,7.249643,1.4347254,-0.08314696,9.436781,2.66657831409527339640,-2.208651,7.3083005,1.3772645,-0.15754427,9.448867,2.62001971409527339641,-2.2625206,7.32925,1.0235212,-0.22736044,9.455234,2.59176541409527339665,-2.1613655,7.1586633,0.6254852,-0.29681692,9.455138,2.58508131409527339666,-2.0979192,6.6989765,0.29149407,-0.37049124,9.450086,2.59403041409527339672,-2.0739772,6.3206925,0.2717419,-0.45435598,9.444112,2.60244231409527339704,-2.0009542,6.47033,0.58657944,-0.5507034,9.441536,2.59316921409527339705,-1.423353,6.6828156,0.7966706,-0.65544254,9.444266,2.55863381409527339706,-0.56563014,6.4272346,0.9552865,-0.7598657,9.450822,2.50498821409527339723,1.3623008,7.4986396,1.9913772,-0.8571954,9.457668,2.44706131409527339724,1.8315643,7.8475947,2.356493,-0.9320083,9.463263,2.3975871409527339740,2.1416135,8.580819,2.755726,-0.98957485,9.4677725,2.35635881409527339741,2.3995886,9.424176,2.8892028,-1.0373557,9.468936,2.33099581409527339758,2.520496,10.072407,2.7581203,-1.0720369,9.467266,2.32207131409527339774,2.3253684,10.225636,2.6180596,-1.1000067,9.462021,2.33034731409527339775,1.8746599,10.201095,2.505532,-1.1344435,9.451764,2.35532781409527339790,1.4909891,9.891046,2.5007436,-1.1836072,9.437528,2.38799741409527339792,1.2264298,9.607333,3.0148985,-1.2459301,9.421816,2.41814521409527339806,1.0821792,9.49301,4.047398,-1.3133669,9.405019,2.44766881409527339822,0.80564886,9.25359,4.010886,-1.3765657,9.385487,2.48758721409527339823,0.374094,9.264363,3.493739,-1.4354709,9.36538,2.52971941409527339837,0.12090719,9.706693,3.0238767,-1.4882408,9.3482275,2.56245371409527339840,0.57041854,10.305841,2.2481554,-1.5363693,9.333843,2.58637551409527339855,1.3796587,10.424355,2.0949266,-1.5676252,9.3265295,2.59399251409527339872,1.821389,10.390836,2.4588451,-1.5833606,9.324848,2.590481409527339873,1.6490064,10.760141,2.7539306,-1.5923469,9.32633,2.5796071409527339889,0.8607155,11.236588,2.5103204,-1.6009995,9.329202,2.56382041409527339892,0.04249708,11.78845,2.4827871,-1.6095093,9.333394,2.54315421409527339904,-1.3467385,11.863868,3.252523,-1.6079385,9.340796,2.51683471409527339921,-0.717662,11.040861,1.5191209,-1.5956889,9.349835,2.49093371409527339922,0.2100912,9.58818,1.6304513,-1.551676,9.367845,2.45074941409527339939,0.12928689,8.008006,2.6898856,-1.4734774,9.387182,2.4248821409527339940,-0.99419224,7.0593038,2.030283,-1.3756547,9.404927,2.41357021409527339954,-1.8046296,6.671443,1.3455414,-1.282409,9.424557,2.38821321409527339971,-2.9352913,7.57286,1.8962077,-1.1733851,9.454604,2.3246521409527339972,-3.5110967,10.692505,2.5276785,-1.0542784,9.490487,2.2337251409527339989,-4.1012673,15.108011,2.083554,-0.92580086,9.524511,2.14405731409527340006,-4.0533834,19.03091,0.7978677,-0.7934219,9.555282,2.05850461409527340007,-3.7116113,19.608511,0.073621705,-0.6521875,9.585359,1.96620111409527340022,-4.5675383,19.515139,0.45848963,-0.5098334,9.608643,1.89326451409527340023,-5.392939,17.73864,0.84934306,-0.40861952,9.619209,1.86393131409527340039,-5.0798974,14.390349,1.654992,-0.36369684,9.616055,1.88934021409527340040,-4.789002,10.87626,2.883816,-0.34654236,9.599382,1.9753841409527340055,-5.8143187,12.187085,4.537012,-0.32842225,9.574429,2.09590941409527340072,-5.7119665,13.834296,4.073136,-0.33889928,9.540345,2.24439621409527340073,-4.2610803,11.368867,2.415151,-0.33335093,9.512256,2.36140921409527340087,-1.9614497,6.8013287,1.7878702,-0.26281983,9.500235,2.41802761409527340092,-1.4975731,6.0130377,2.7323828,-0.13806853,9.494858,2.4492881409527340104,-0.09876082,6.5230026,4.0719385,-7.67E-04,9.484987,2.4910661409527340121,1.0564415,6.6971807,4.4903255,0.14991006,9.467235,2.5533111409527340124,1.435324,6.0687027,3.7433343,0.3167745,9.444169,2.6225371409527340138,1.7764976,5.5204306,2.7263973,0.48430356,9.421509,2.67787671409527340140,1.745373,4.803367,1.8423382,0.6315079,9.403599,2.70996331409527340158,1.6340426,3.970185,1.1965023,0.74891245,9.390446,2.72562811409527340170,1.6502035,3.3273418,1.0199299,0.84973276,9.377936,2.7390981409527340174,1.5077485,2.8658595,1.1492168,0.93324035,9.364305,2.75848721409527340188,1.3000516,2.4624364,1.3072342,1.0082498,9.346106,2.79358671409527340204,1.2689269,2.4145525,1.3431472,1.0799955,9.322487,2.84521961409527340205,1.1899183,2.8101943,1.4730326,1.1505986,9.29583,2.9041441409527340220,0.92296475,3.086126,1.7890673,1.2201239,9.26887,2.96137171409527340221,0.96546185,3.503914,2.1739352,1.2863355,9.243372,3.01261021409527340236,1.3180081,4.0066967,2.795829,1.3480139,9.220718,3.05476761409527340240,1.7411832,4.620809,3.5901055,1.4053681,9.20109,3.08792261409527340255,2.166154,5.494693,4.529231,1.4554639,9.184027,3.11539441409527340270,2.546832,6.597821,5.765238,1.4936262,9.16897,3.14157181409527340272,2.92751,8.254609,7.1113777,1.525357,9.1527605,3.1734281409527340287,3.0496144,8.970475,6.4631476,1.5359346,9.137218,3.21286821409527340305,3.5631707,10.317812,5.7945666,1.5182822,9.129995,3.24166681409527340306,4.0396166,11.824963,5.195418,1.4738113,9.13252,3.255051409527340320,3.6391866,12.902951,5.446809,1.4103117,9.143169,3.25328761409527340321,2.5887306,15.000272,6.18123,1.3351766,9.152946,3.25749731409527340338,1.2641385,16.779163,5.277419,1.2609897,9.15561,3.27949761409527340341,0.88046765,16.352398,3.4799721,1.2018944,9.160384,3.28834271409527340355,1.4544775,14.863204,2.5821466,1.1801691,9.173472,3.25960351409527340370,3.5093012,13.240534,3.2363622,1.2008996,9.184715,3.2201271409527340372,4.759074,9.788095,5.197213,1.2616472,9.181209,3.20687371409527340386,5.0667295,6.621763,8.150461,1.3629634,9.140522,3.28078841409527340403,3.1184478,6.8947024,13.751696,1.490468,9.063033,3.4366161409527340404,0.061052144,13.18846,10.9025955,1.6091882,8.95414,3.66118621409527340420,-0.3184288,19.559431,4.3676224,1.6726698,8.893159,3.77945571409527340421,-4.6178164,18.104355,3.560178,1.7060894,8.912872,3.71757531409527340436,-6.025607,14.699202,0.18794483,1.674284,8.957776,3.62290261409527340441,-4.3089647,12.295423,0.2801216,1.6195892,9.007621,3.52279661409527340453,-3.3105824,11.281479,2.4552538,1.5538127,9.038909,3.47191361409527340469,-3.3614593,10.120291,1.7764976,1.4569638,9.054563,3.47311691409527340472,-3.5302503,9.512163,1.3670892,1.3609049,9.068094,3.47677831409527340487,-3.5529952,9.041702,1.2551602,1.2861758,9.081084,3.47131971409527340501,-2.861071,9.109938,1.086369,1.2134118,9.091396,3.47052431409527340502,-1.7034745,8.990826,1.1659763,1.1511974,9.098315,3.47358821409527340518,-0.40282443,8.429984,1.2605472,1.0959257,9.10717,3.46825581409527340521,0.18255788,8.603564,1.584363,1.0420606,9.127761,3.43052481409527340535,0.40761283,9.587581,2.0177135,0.9800288,9.164563,3.3497341409527340541,0.57520694,10.853515,2.235586,0.9046091,9.212336,3.2380451409527340554,0.4357447,11.665748,1.8429368,0.8141534,9.262871,3.11556841409527340575,0.023942016,11.145009,1.4443022,0.70864797,9.310918,2.9958311409527340577,-0.60932434,10.0903635,1.4933833,0.5919157,9.350812,2.8952261409527340581,-1.0498575,9.251195,1.5346833,0.46575907,9.38166,2.81743291409527340609,-1.1599907,8.477868,1.567005,0.33554602,9.407701,2.74826621409527340611,-1.2898762,7.777564,1.5801731,0.21421492,9.4298525,2.68372271409527340613,-1.4939818,7.0964136,1.3784616,0.108962044,9.449057,2.62180521409527340621,-1.6759412,6.819285,0.9672575,0.017470885,9.466262,2.56124231409527340641,-2.1242554,6.8408327,0.79846627,-0.06744889,9.483263,2.49670961409527340643,-2.5420437,7.3460093,1.0163386,-0.15640762,9.499241,2.43111921409527340653,-1.441908,8.259995,0.58298814,-0.25453153,9.511041,2.37607121409527340678,-0.89303726,8.129512,0.007781155,-0.3438811,9.5189495,2.33275461409527340680,-0.82899237,8.010999,-0.11192893,-0.42108044,9.523089,2.303011409527340682,-0.7092823,8.078036,0.2741361,-0.49793747,9.522451,2.2902791409527340711,-0.4201824,8.043321,0.6811504,-0.5761334,9.518676,2.28763461409527340713,-0.1945289,8.207922,1.0432734,-0.66615874,9.511577,2.2927111409527340715,0.30406362,8.182783,1.2683283,-0.76741624,9.505041,2.28815841409527340721,1.1737574,8.456919,1.3144168,-0.8763601,9.501317,2.26436661409527340742,2.19249,8.808268,1.8022354,-0.9829253,9.499692,2.22712681409527340743,2.8395233,9.097966,1.9542671,-1.0752095,9.496285,2.19883751409527340753,2.8766334,8.728063,1.8154035,-1.1498748,9.487244,2.20008851409527340777,2.789245,8.470686,2.1751323,-1.214266,9.4700365,2.23927571409527340779,2.2888567,8.283937,2.96881,-1.2716526,9.444564,2.3137611409527340782,1.7579426,8.051701,3.3039982,-1.329726,9.411559,2.4134581409527340808,1.6112977,7.4735007,3.256713,-1.3953424,9.375589,2.51430321409527340810,1.8028339,6.4463882,2.8688521,-1.4687278,9.339221,2.60617921409527340813,1.8788497,5.7658362,3.269881,-1.5456268,9.306942,2.67623931409527340822,1.7064673,5.6425347,4.626795,-1.6220635,9.27879,2.72825241409527340840,0.58298814,7.3645644,4.2676644,-1.6865151,9.254168,2.77244421409527340842,-0.035314474,9.233837,2.6569653,-1.737823,9.237013,2.79784971409527340853,0.4441244,10.834361,1.3036429,-1.7779815,9.231577,2.79054931409527340874,1.2372037,11.751341,0.97743285,-1.8073645,9.238968,2.74687241409527340876,1.638831,12.708423,1.650802,-1.8290156,9.253904,2.6814841409527340882,1.958457,13.256096,2.2307975,-1.8440862,9.270118,2.6143151409527340911,1.7687165,13.311163,2.212841,-1.84724,9.286346,2.55379341409527340913,1.5466543,13.268666,2.8700492,-1.83744,9.303592,2.4974781409527340914,0.9947908,12.730569,4.095282,-1.8200487,9.317822,2.4568291409527340922,0.11552023,11.882423,3.6948519,-1.7903179,9.329133,2.4356591409527340943,-0.077811554,10.882245,2.2469583,-1.7519827,9.343553,2.40810081409527340944,0.3716998,9.7240505,2.0727801,-1.6955569,9.364778,2.36567261409527340953,0.26755205,8.225879,2.4091654,-1.6108296,9.390396,2.32294921409527340970,-0.41958386,7.0587053,1.6819267,-1.5019889,9.421065,2.2711141409527340973,-1.3341689,6.203377,1.3850456,-1.3757094,9.459556,2.18966721409527340990,-2.3864205,6.4625487,1.7860745,-1.2328774,9.501031,2.09304641409527340993,-2.8927941,8.930372,2.6126726,-1.0728592,9.537618,2.01325851409527341002,-3.25372,13.185468,3.567959,-0.8921318,9.564999,1.97111311409527341031,-3.064578,18.353352,2.8754363,-0.7054181,9.584053,1.95415071409527341033,-1.3634979,19.608511,0.973243,-0.50321984,9.596599,1.95511331409527341035,-2.5420437,19.439121,1.4508862,-0.28224355,9.606352,1.9515961409527341060,-3.3051953,17.0533,1.9255368,-0.11605931,9.60778,1.96150141409527341062,-3.2231941,13.801974,2.2343888,-0.015988866,9.60234,1.99128061409527341065,-4.080917,9.60853,3.2854433,0.037087914,9.587547,2.06105231409527341101,-4.9823337,11.131841,4.554969,0.052228566,9.559479,2.18724441409527341103,-4.5657425,12.732964,3.6164417,0.033944137,9.522182,2.34462331409527341104,-3.4398694,10.885837,1.4466964,0.036963485,9.492416,2.46232561409527341106,-2.735974,7.9708962,0.4441244,0.10647936,9.48347,2.49456741409527341132,-1.8596961,7.0168066,1.5999253,0.21570465,9.485951,2.47801951409527341134,-1.049259,6.7839704,3.117849,0.3330225,9.485249,2.46769861409527341135,-0.37828386,6.022016,3.7924154,0.46110463,9.473603,2.49171041409527341159,0.18255788,5.0362034,3.3273418,0.591134,9.449969,2.55323821409527341161,0.55605334,4.0563765,2.463035,0.71134484,9.421826,2.62555811409527341164,0.62608373,3.4314895,1.7328035,0.81551135,9.395723,2.68806821409527341184,0.777517,2.966416,1.2886791,0.90157235,9.37254,2.74099331409527341185,0.8158242,2.9532478,1.049259,0.97584176,9.349007,2.7953931409527341204,0.6835446,2.759916,1.0839748,1.0475571,9.32224,2.8581221409527341212,0.3489549,2.705448,1.2785037,1.1214054,9.291499,2.92931721409527341238,0.48362875,2.7024553,1.3964181,1.1979501,9.259208,3.00039651409527341240,0.47105917,2.7964275,1.4676456,1.2789688,9.226854,3.06590941409527341242,0.6147113,2.947861,1.6879122,1.363789,9.198499,3.11417651409527341259,0.81881696,3.2866404,2.1308396,1.4465294,9.175349,3.14498381409527341260,1.3503298,4.048595,3.1735144,1.5258056,9.156919,3.16119361409527341264,2.3050177,5.209184,4.6417584,1.5991304,9.14246,3.16679361409527341285,3.0579941,6.655881,6.000468,1.6644001,9.131195,3.1656671409527341286,3.5093012,8.093599,6.823475,1.7165068,9.123665,3.15955041409527341309,3.9067385,9.184157,7.0036387,1.6999738,9.150414,3.09037351409527341310,4.308366,9.801263,6.670246,1.6999738,9.150414,3.09037351409527341313,4.258686,10.224439,5.755062,1.6999738,9.150414,3.09037351409527341322,3.655946,11.04565,4.981735,1.6324023,9.180909,3.03587751409527341334,3.5523968,13.782821,5.056554,1.5499381,9.217177,2.9684581409527341348,4.3526587,18.63946,5.8107276,1.4622803,9.255736,2.89196631409527341353,5.157709,19.608511,6.341642,1.3907758,9.28413,2.83567641409527341369,5.1361613,17.679983,5.0278234,1.358052,9.283882,2.85229831409527341383,5.080496,13.883377,3.6535518,1.3666576,9.260309,2.9239211409527341384,5.7867856,11.337742,3.550601,1.4124984,9.22357,3.01678921409527341401,4.8536453,8.36175,10.937312,1.5011747,9.171393,3.13088371409527341402,-1.697489,16.514605,8.2115135,1.6184636,9.079205,3.334521409527341417,-3.846285,19.13027,5.1379566,1.658799,9.024903,3.45975351409527341422,-6.1860185,14.314932,3.0520086,1.6744097,9.014368,3.47964331409527341436,-5.9465985,10.672154,0.9804256,1.6884891,9.013802,3.47430371409527341450,-3.9791632,8.676587,0.9780314,1.7016778,9.009632,3.4786831409527341453,-3.1848867,7.852383,1.5316905,1.694562,8.989737,3.53319841409527341466,-3.791817,8.173206,1.2006922,1.6452152,8.96576,3.61646131409527341483,-3.4835634,9.099762,0.91219085,1.5609866,8.966136,3.65268781409527341484,-2.896984,10.414778,0.33279404,1.4712766,8.992316,3.6254621409527341499,-2.653374,11.826757,0.17357962,1.3878443,9.032274,3.55841181409527341502,-2.2942438,12.599486,0.65660983,1.3052012,9.078197,3.4717711409527341515,-1.6927006,12.656349,1.18094,1.2205529,9.126513,3.37452391409527341532,-0.95229375,12.239758,1.5819688,1.1346056,9.177303,3.26499061409527341533,-0.18914193,11.872248,1.6519991,1.0500014,9.228049,3.14817361409527341549,0.49679685,11.763311,1.4826094,0.96712697,9.275207,3.03407221409527341554,0.9498995,11.143213,1.2395979,0.88418496,9.315608,2.93394761409527341573,0.9828198,10.046669,1.4101849,0.7972753,9.346546,2.8595161409527341574,0.9935937,9.181165,2.0817583,0.69696236,9.367748,2.8160191409527341582,0.83138657,7.887099,2.915539,0.58564246,9.382098,2.7935011409527341609,0.5542577,7.3208704,2.60549,0.4728964,9.393816,2.77542331409527341610,0.090979666,6.7253127,2.107496,0.3666835,9.408174,2.74266241409527341616,-0.46387658,6.1806316,1.5394717,0.26961288,9.4246235,2.69706941409527341639,-1.3198037,6.0585275,0.92895025,0.17795277,9.441251,2.64603781409527341641,-2.1290438,6.3446345,0.5758055,0.0829205,9.4569235,2.59424611409527341643,-2.6036944,6.6427126,0.320823,-0.024258746,9.470933,2.543861409527341655,-2.6910827,6.791153,0.15023616,-0.13926323,9.483223,2.4938871409527341669,-2.4995465,6.949769,0.13347675,-0.2604422,9.492541,2.44831091409527341685,-2.3008277,7.1371155,0.24779987,-0.3777923,9.499047,2.40744021409527341687,-2.1039047,7.635708,0.40821138,-0.48951164,9.503477,2.36953521409527341706,-1.8788497,8.150461,0.8984242,-0.5986721,9.506583,2.33170911409527341707,-1.0965444,9.173384,1.2731167,-0.70471424,9.508049,2.29581861409527341714,0.30645782,9.727043,1.4030021,-0.8022158,9.508684,2.26092431409527341742,1.5861586,9.613318,1.3042414,-0.88964,9.508229,2.22991441409527341743,2.4702177,9.26197,1.2719196,-0.96735954,9.5061245,2.20640251409527341744,2.480393,8.754997,1.7034745,-1.0348951,9.500915,2.19818161409527341755,2.2709002,8.380903,2.4289176,-1.1007932,9.488258,2.22072551409527341779,2.2307975,7.719505,2.7910407,-1.1680491,9.469825,2.26461171409527341781,2.4139538,7.3460093,3.120842,-1.2343183,9.442818,2.34094881409527341783,2.6072857,7.1586633,3.1262288,-1.3021884,9.409994,2.43448421409527341809,2.8060043,7.0940194,3.3596635,-1.3785449,9.376024,2.52193931409527341810,2.765303,6.851607,3.5182793,-1.4643079,9.344783,2.58867621409527341814,2.3786395,6.843227,4.022857,-1.5554483,9.31882,2.62879631409527341832,2.0290859,7.5165963,4.799177,-1.6451463,9.296236,2.6540341409527341834,1.5705963,8.727464,4.9027267,-1.7193356,9.274742,2.68205741409527341848,1.0737995,10.293272,4.176685,-1.7708676,9.254058,2.71970921409527341855,0.8559271,11.623849,3.0071173,-1.8036351,9.237338,2.75479581409527341875,1.1073183,11.911752,1.8112136,-1.8268839,9.227843,2.77124291409527341877,1.4652514,11.592126,2.1511903,-1.8496553,9.228912,2.75251151409527341883,1.8088194,11.484387,2.9759927,-1.8722117,9.236664,2.71095091409527341906,1.4742297,11.850699,3.140594,-1.8912323,9.247488,2.66037771409527341907,0.9959879,12.878411,2.9334955,-1.9050496,9.259859,2.60695171409527341914,0.60453594,13.603854,3.9911342,-1.9050925,9.275779,2.54969141409527341932,-0.45250413,13.090897,3.927688,-1.884674,9.293149,2.50115131409527341934,-1.3257892,11.885416,2.235586,-1.8547997,9.311385,2.45524361409527341947,-0.9379285,10.420164,1.3868413,-1.813541,9.332446,2.40560031409527341971,-0.39624038,7.9565306,2.4139538,-1.7471131,9.35502,2.36677151409527341972,-1.8626889,5.2325277,1.4903905,-1.6547548,9.380665,2.33137441409527341991,-2.8562827,6.2422824,1.0881647,-1.5621605,9.409702,2.27762151409527341993,-3.292626,8.752005,1.2473791,-1.4491435,9.448628,2.1894741409527341994,-3.317765,12.341511,1.4981717,-1.3185785,9.48995,2.0910781409527342004,-3.2070332,16.220716,1.2761095,-1.1658728,9.528119,2.00651071409527342020,-2.5713725,19.348143,0.18794483,-0.99107105,9.562329,1.93649861409527342022,-1.9093759,19.608511,0.56682724,-0.7971097,9.595433,1.86082581409527342034,-3.289633,18.960281,1.3425486,-0.60349685,9.620596,1.80285991409527342048,-4.7901993,17.1359,1.5233108,-0.46449384,9.633403,1.77544251409527342075,-5.3701944,14.502278,1.6130934,-0.3934173,9.633992,1.78935611409527342077,-5.0200424,11.329961,2.1452048,-0.36607283,9.622985,1.85325831409527342079,-4.9099092,6.0800753,3.0418332,-0.3597768,9.601466,1.96285061409527342083,-5.544971,5.832874,4.2012253,-0.35360536,9.574441,2.09175351409527342109,-4.473566,9.218275,3.5104983,-0.36663187,9.545043,2.21993831409527342111,-2.544438,10.600926,2.2439656,-0.3566805,9.527876,2.2940671409527342114,-1.2108675,9.701305,1.4520833,-0.27712664,9.5316925,2.28920151409527342137,0.40282443,8.918402,2.3702598,-0.14328875,9.546459,2.23941141409527342138,0.84934306,7.712322,3.3746274,0.012788244,9.55498,2.20739361409527342143,1.359308,6.897695,3.596091,0.16431662,9.550717,2.21972321409527342171,2.4025815,5.673061,2.356493,0.30191424,9.537469,2.26183821409527342173,2.28347,5.04578,1.6771383,0.4278812,9.521947,2.3064761409527342175,2.0859482,4.679467,1.4879963,0.53526884,9.505975,2.34953741409527342183,1.7417817,4.5256395,1.7082629,0.62698305,9.488977,2.395121409527342206,1.2204443,4.3478703,1.8632874,0.71244824,9.468383,2.4520421409527342208,0.83617496,4.2221746,1.6154876,0.7928564,9.443049,2.5240011409527342215,0.7793127,4.322731,1.496376,0.87115735,9.414439,2.6038081409527342241,1.1294646,4.4155064,1.6843209,0.9487443,9.385136,2.6813291409527342243,1.4407109,4.4442368,2.0201077,1.026203,9.356659,2.75140431409527342246,1.6915035,4.8757915,2.421735,1.1002064,9.329241,2.81517271409527342271,1.8752584,5.514445,2.9652188,1.1644821,9.3034525,2.87404781409527342273,2.1266496,6.2805896,3.8025908,1.2133665,9.279614,2.93033721409527342277,2.6384103,6.7522473,4.6082397,1.2428211,9.257697,2.98677751409527342283,3.1747115,6.783372,5.4222684,1.2532758,9.238157,3.04239031409527342310,3.5416229,6.719327,6.217143,1.2578294,9.218657,3.09913591409527342311,3.5930982,6.938995,6.735488,1.2409011,9.203693,3.15001751409527342314,3.8187518,7.880515,6.349423,1.2029059,9.197049,3.18397671409527342333,4.012682,9.217676,5.683236,1.1506463,9.202573,3.18732741409527342349,3.4572272,10.654796,6.530185,1.0937723,9.217614,3.16380171409527342350,1.7711107,16.381727,5.819706,1.0373378,9.230244,3.14593741409527342364,1.7010803,16.889297,4.19105,0.9799568,9.2434845,3.12539241409527342365,2.2960393,15.524004,3.6762967,0.9598612,9.251473,3.10794231409527342379,2.8383262,13.110648,4.731541,0.98186135,9.251143,3.10204241409527342383,2.8909986,11.540052,8.269572,1.0292519,9.236495,3.13020681409527342398,0.2705448,12.943653,10.73979,1.0966917,9.191484,3.23794321409527342414,-0.7703344,18.276138,4.5699325,1.1486057,9.129383,3.39197061409527342416,-2.9903579,17.047316,2.843713,1.1936753,9.094662,3.46881341409527342432,-5.519832,12.864644,2.6084828,1.2275753,9.076083,3.5054451409527342434,-5.8532248,10.702681,1.6519991,1.2432998,9.069014,3.51818041409527342448,-4.0892963,9.033921,2.5145104,1.2256554,9.0764675,3.50512651409527342464,-2.6719291,9.20391,2.7635074,1.1769346,9.079527,3.51389271409527342465,-2.9376855,9.634268,2.1972785,1.0966464,9.081262,3.53531481409527342480,-3.3650506,10.123882,1.429937,1.0057766,9.092479,3.5335011409527342483,-3.235165,11.063606,1.0007763,0.9212746,9.114533,3.49956271409527342496,-2.4851813,12.033856,0.5129577,0.8468445,9.14272,3.4444051409527342520,-1.1965023,12.117055,0.5422867,0.77868795,9.174149,3.37624651409527342522,-0.46507367,11.143213,1.1282675,0.71821374,9.206474,3.30081561409527342524,0.7918822,9.81084,2.2373815,0.65145856,9.237941,3.22590451409527342535,0.99898064,9.916783,2.4396915,0.5793749,9.265645,3.159521409527342554,1.0271125,10.141838,2.782661,0.49317315,9.293389,3.09194231409527342555,0.99658644,9.912594,3.0986955,0.39307484,9.320542,3.02380251409527342563,0.84575176,8.949526,3.2022448,0.28536987,9.344408,2.9615871409527342580,0.5351041,7.852383,3.0370448,0.17762949,9.362538,2.91234161409527342583,0.20590134,6.906075,2.5761611,0.07145711,9.376143,2.87284331409527342595,-0.26156655,6.244078,2.0991163,-0.030547004,9.387898,2.83492611409527342617,-0.6063316,5.880758,1.4197617,-0.12549675,9.400657,2.78967711409527342618,-0.92296475,5.5623293,0.7224504,-0.21844013,9.414627,2.73632241409527342637,-1.5448587,5.6922145,0.3172317,-0.30487597,9.432107,2.66698531409527342639,-1.9626468,6.330868,0.36990416,-0.39239743,9.451893,2.5842131409527342643,-1.9985598,7.2634096,0.6362591,-0.48663458,9.47039,2.49905441409527342666,-2.022502,8.4108305,0.83737206,-0.58638537,9.483866,2.42545561409527342667,-2.0033484,9.2494,0.6757634,-0.6824064,9.491432,2.3701091409527342680,-1.7956513,9.392453,0.40402153,-0.7703328,9.494245,2.3315871409527342683,-1.2814964,8.789114,0.39504328,-0.85569096,9.4928055,2.30756161409527342697,-0.6512229,8.435969,0.6512229,-0.94030297,9.487232,2.29753281409527342711,0.2124854,8.707711,1.2096704,-1.0254946,9.478862,2.29563051409527342715,1.4682442,7.657854,1.5280992,-1.1102779,9.469717,2.29393121409527342729,2.308609,7.8835077,1.6609775,-1.1899972,9.46047,2.29211521409527342735,2.6114755,7.4812818,1.9734207,-1.2653761,9.45514,2.27366541409527342746,2.7994204,7.462128,2.2888567,-1.3342577,9.451037,2.25123121409527342767,2.4654293,7.9625163,2.9137435,-1.3971272,9.44162,2.25261281409527342769,1.9806033,9.174581,3.4045548,-1.4578915,9.423899,2.2880261409527342791,1.7812861,9.932944,3.3674448,-1.51329,9.399884,2.35000541409527342793,1.7034745,9.43914,2.8628666,-1.5702186,9.372017,2.4228321409527342795,1.4933833,8.291719,2.814384,-1.6400963,9.342625,2.48914171409527342819,1.158195,7.436989,3.2130187,-1.7270496,9.311419,2.5466011409527342820,0.84455466,7.356185,4.1371803,-1.8224148,9.279136,2.59746811409527342823,0.17417817,7.9116397,4.3622355,-1.9157193,9.245368,2.65020421409527342852,-0.27952304,9.0476885,3.2692823,-1.9982368,9.214701,2.69568941409527342854,0.3597288,10.134057,1.7345991,-2.0677273,9.192211,2.71995141409527342878,1.899799,10.642226,1.3347675,-2.1223786,9.181846,2.71286081409527342879,3.0095115,10.787674,1.8531121,-2.1599128,9.182134,2.68208981409527342882,3.4225113,10.437522,2.4654293,-2.1786382,9.189441,2.641611409527342886,2.7269957,10.450092,2.8616695,-2.17741,9.200409,2.60417961409527342906,1.6262615,11.298238,2.9580362,-2.160857,9.212379,2.57549211409527342907,-0.11911154,11.7148285,4.3676224,-2.132008,9.226945,2.5472391409527342915,-1.0516531,10.663176,2.3475149,-2.0997488,9.241185,2.52228951409527342931,-0.90979666,9.306861,1.353921,-2.0634692,9.263957,2.46811531409527342935,-0.39205053,7.8493905,2.621651,-2.0231514,9.28985,2.40331751409527342947,-0.6356605,6.959346,2.8089972,-1.9553401,9.317153,2.35322741409527342969,-1.6633717,7.299921,2.3690627,-1.8622291,9.349694,2.29907181409527342971,-2.6755204,9.152434,2.005144,-1.7434083,9.393429,2.21232681409527342975,-3.1507695,11.870452,1.661576,-1.604881,9.44386,2.09958621409527342984,-2.980781,14.712968,0.86729956,-1.452764,9.491878,1.99100841409527342999,-3.0190883,16.860567,-0.3286042,-1.284056,9.534447,1.90155741409527343017,-3.0017304,18.561647,-1.0121487,-1.1059493,9.57186,1.82392931409527343018,-3.8313212,19.0764,-0.4321534,-0.92987543,9.604561,1.74876061409527343034,-4.373009,18.507778,0.21906945,-0.7786463,9.628115,1.69219531409527343048,-5.3103395,16.406866,1.4012065,-0.658214,9.6406975,1.6715581409527343049,-5.917868,13.959393,2.8580782,-0.56119794,9.643115,1.69286761409527343066,-6.214749,11.873445,3.430891,-0.50675267,9.631782,1.772681409527343067,-6.247071,8.971672,3.6008794,-0.47785804,9.610302,1.89317981409527343080,-6.281188,8.3408,3.727772,-0.4490669,9.584639,2.02570341409527343083,-4.993706,8.968679,2.8898015,-0.41010627,9.562043,2.13764291409527343095,-2.2278047,8.388684,2.0757728,-0.3335021,9.551494,2.19729781409527343112,-0.94810385,7.506421,2.3439236,-0.2027814,9.553087,2.20630841409527343115,0.31483752,7.1209545,3.667917,-0.04866291,9.556844,2.19880681409527343129,1.4119805,7.0467343,4.4897265,0.11749906,9.554821,2.20499421409527343144,2.023699,6.341642,3.863643,0.2888065,9.545806,2.22813131409527343145,2.5115175,5.715558,2.618658,0.45758414,9.534215,2.24938821409527343159,2.7443538,4.936844,1.7411832,0.6093292,9.523081,2.26053881409527343163,2.6515784,4.803367,1.365892,0.7374827,9.513393,2.26315451409527343177,2.5091233,5.242703,1.3323733,0.843349,9.502217,2.27310731409527343183,1.8596961,5.346851,1.5095441,0.9356898,9.485479,2.3066341409527343195,1.3509283,5.5922565,1.5610195,1.0202183,9.461934,2.36672281409527343211,0.93134445,5.796961,1.6968905,1.1021591,9.433769,2.44123341409527343215,0.985214,6.0651116,2.005144,1.185013,9.403496,2.5180191409527343224,1.204882,6.593033,2.212841,1.268684,9.372081,2.59324721409527343243,1.5969325,6.977302,2.348712,1.3482126,9.340885,2.66468761409527343244,2.244564,7.3202715,2.4510639,1.4184601,9.311127,2.7315331409527343265,2.8191724,7.539341,2.5061307,1.4831948,9.282012,2.79549151409527343266,3.152565,7.453748,2.7180176,1.5292166,9.256783,2.8537481409527343285,3.3273418,7.0712748,3.4171243,1.5490124,9.236663,2.90775471409527343287,3.2010477,5.269039,6.2009826,1.5375538,9.221377,2.9618411409527343295,3.2489316,4.8003745,7.33344,1.4927738,9.206192,3.03118181409527343316,3.5098996,5.585074,6.9491706,1.4167864,9.196247,3.09711741409527343317,3.7307649,7.2167225,5.5324016,1.3135071,9.199516,3.132731409527343324,3.5332432,8.099585,5.093664,1.1909034,9.219645,3.12255051409527343345,2.9358897,7.964312,5.4486046,1.0606499,9.246124,3.09105161409527343348,2.5192988,10.798449,5.5138464,0.93960756,9.262991,3.0796971409527343368,2.094328,15.243882,4.1784806,0.85431486,9.265273,3.09762221409527343370,1.4957775,14.907496,2.6007016,0.7909388,9.2705345,3.09871081409527343376,1.5879543,13.06875,2.5773582,0.78048724,9.275515,3.08643031409527343404,1.822586,10.915764,4.5884876,0.8179217,9.276121,3.0748951409527343406,2.0416555,10.618284,10.9103775,0.8901453,9.258314,3.10831861409527343407,-0.39324763,15.170859,14.733318,0.99141663,9.196586,3.25734641409527343429,2.0219033,19.608511,6.099229,1.0624528,9.10633,3.4808541409527343431,-0.90500826,19.156607,3.3010056,1.1799985,9.072176,3.5318041409527343446,-5.436035,15.1535015,2.4253263,1.2485839,9.064202,3.5286921409527343447,-6.0244102,12.643779,-0.41240123,1.2232772,9.068186,3.52732161409527343462,-4.3766007,9.544485,0.86729956,1.1392525,9.084285,3.5140071409527343464,-4.848857,8.494029,2.8766334,1.0526652,9.08786,3.5317241409527343478,-4.401141,10.597934,2.304419,0.93370116,9.091536,3.55563971409527343496,-3.572149,11.242573,1.1234791,0.8188799,9.106643,3.5452611409527343497,-3.003526,11.241974,0.56084174,0.7319434,9.126156,3.51396371409527343509,-2.3529017,10.434529,1.1569979,0.66005147,9.140017,3.49210861409527343515,-1.5340848,9.530719,1.6358383,0.59508383,9.143173,3.49552251409527343528,-0.40342298,9.509171,1.8854338,0.5306242,9.145752,3.49915361409527343544,0.84216046,10.312426,2.3062148,0.46374187,9.1595335,3.47250031409527343545,1.3569138,11.36348,2.184709,0.39293653,9.186643,3.40904161409527343567,1.1174936,11.23958,1.489792,0.31257144,9.223042,3.31786321409527343568,0.6063316,9.990405,1.3383588,0.21874665,9.260836,3.21861481409527343576,0.18614918,8.663419,1.9710265,0.11352135,9.293317,3.12918041409527343596,-0.090381116,7.5746555,2.557606,0.001983319,9.315809,3.06367141409527343598,-0.24121583,6.897695,2.469619,-0.11368352,9.331179,3.01439431409527343611,-0.48123455,6.4140663,2.0021513,-0.2252014,9.345706,2.9626781409527343616,-0.6733692,6.149507,1.5532384,-0.32173124,9.36155,2.90314561409527343625,-0.84455466,5.6407394,0.9271546,-0.40256315,9.377728,2.84016941409527343642,-1.2108675,5.6628857,0.5231331,-0.47695017,9.39343,2.77604131409527343644,-2.0500352,6.489484,0.6548142,-0.55626076,9.407657,2.71237041409527343666,-2.1206641,7.401076,1.228824,-0.64786786,9.41766,2.6567551409527343667,-2.2427685,8.438364,0.42796355,-0.74388784,9.421458,2.6178541409527343676,-2.018312,8.05589,-0.25498247,-0.83912826,9.423916,2.57993131409527343700,-2.0602105,7.7470384,0.12569559,-0.9302317,9.423149,2.55133751409527343702,-1.762731,7.8463974,0.83737206,-1.0238421,9.418011,2.5344111409527343705,-0.57520694,7.603985,1.1228806,-1.1169144,9.40965,2.52614281409527343716,1.2910733,8.281544,1.3844471,-1.2075094,9.40042,2.51881461409527343735,2.4372973,8.666411,1.5107412,-1.2903372,9.39397,2.50175021409527343736,3.1956608,8.39886,1.9363106,-1.3622917,9.392107,2.4704011409527343744,3.4614172,8.01459,2.5498247,-1.4238518,9.391364,2.43830011409527343769,3.3680432,7.9744873,3.2878375,-1.4772621,9.384125,2.43441409527343771,3.0627825,7.9050555,3.9653966,-1.5234569,9.364944,2.47937181409527343778,2.472612,7.7039423,4.0174704,-1.5720608,9.333546,2.56591631409527343801,2.2810757,7.5136037,3.5619736,-1.6334224,9.296655,2.6598051409527343802,2.4875755,7.475895,3.1232362,-1.7085025,9.256211,2.75208231409527343805,2.4157495,7.73387,3.098097,-1.7958976,9.217556,2.82521151409527343827,2.2164323,8.025364,3.482965,-1.8855288,9.184122,2.8752531409527343829,1.8614918,8.4425535,4.0438066,-1.9667472,9.156115,2.90995931409527343844,1.4269443,8.963891,4.7925935,-2.0320077,9.131967,2.94083981409527343846,0.20350714,10.223241,3.0023289,-2.081684,9.109111,2.9767591409527343864,-0.07182605,11.156382,2.1787236,-2.1286528,9.093192,2.99216991409527343866,0.7212533,11.564592,1.4622587,-2.168634,9.085442,2.98699761409527343882,1.8339585,10.996569,1.3455414,-2.1952205,9.086462,2.96438651409527343885,2.1230583,10.481815,2.1284454,-2.2061899,9.094523,2.93134241409527343899,1.6502035,10.447099,2.5611973,-2.211709,9.103564,2.8989441409527343922,1.1731589,10.978612,2.9358897,-2.213315,9.114705,2.86247941409527343925,1.1659763,11.790845,4.482544,-2.209833,9.125692,2.82998011409527343936,0.17298107,11.441292,5.0601454,-2.1896064,9.137289,2.8081991409527343953,-0.83497787,10.494983,2.9508536,-2.1623735,9.152337,2.7801571409527343954,-0.61890113,9.054273,2.1086931,-2.1248846,9.17793,2.7241221409527343958,-0.11911154,7.2065473,2.731784,-2.0636075,9.207147,2.67215131409527343964,-0.66618663,5.795165,1.8818425,-1.9798344,9.236943,2.63239841409527343976,-1.472434,5.4539914,1.0809821,-1.8816642,9.276972,2.56271311409527343994,-1.9015948,6.302736,1.0660183,-1.765567,9.330149,2.44979791409527343996,-2.1452048,8.364742,1.2749124,-1.6266373,9.387637,2.3230881409527344015,-2.1230583,11.632229,2.0931308,-1.4731067,9.443654,2.19493411409527344016,-2.5474305,15.80233,2.8909986,-1.2859313,9.494612,2.09024261409527344025,-2.5605986,19.432539,2.327164,-1.0754633,9.535657,2.02114181409527344047,-4.048595,19.608511,1.3623008,-0.852313,9.568183,1.97327471409527344049,-5.861006,19.604322,1.0336965,-0.6666804,9.589351,1.94172731409527344067,-6.513426,17.676392,1.365892,-0.55199087,9.600203,1.9240071409527344068,-6.2195373,13.781624,2.4133554,-0.4944266,9.600078,1.94021841409527344075,-5.1277814,10.035296,3.5619736,-0.46822456,9.586283,2.0135421409527344091,-5.5898623,5.403115,4.670489,-0.45397982,9.560399,2.13613841409527344095,-5.2139726,9.229049,4.221576,-0.44802165,9.527862,2.27805041409527344114,-3.2758665,11.6986685,2.747945,-0.44274262,9.497223,2.40356871409527344116,-2.1039047,10.385448,1.5239093,-0.38890588,9.485904,2.45698571409527344124,-0.3393781,9.730036,2.3828292,-0.26139972,9.497099,2.43046931409527344150,0.8146271,8.425196,3.7696705,-0.08698877,9.5140505,2.37605951409527344151,1.3263878,7.3071036,4.5034933,0.096792445,9.5214405,2.34588931409527344156,1.9752164,6.9928646,4.3185415,0.26712182,9.518072,2.3463471409527344165,2.6461914,6.225523,3.3614593,0.41675016,9.50989,2.3576921409527344179,3.1890767,5.1241903,2.3038206,0.5438045,9.502031,2.36348941409527344196,3.2435448,4.8494554,1.9189527,0.64307076,9.495518,2.36474061409527344198,2.9215245,4.754286,1.8632874,0.716901,9.487118,2.37719371409527344211,2.3277626,4.3927617,1.7010803,0.7733238,9.473544,2.4133591409527344224,1.834557,4.233547,1.359308,0.8186773,9.457478,2.46094821409527344225,1.043872,3.7283707,0.581791,0.85436356,9.437973,2.5229181409527344240,0.9696517,3.5936968,0.3172317,0.881517,9.416759,2.5919081409527344244,0.90859956,3.3662477,0.43514615,0.9038824,9.39387,2.6661921409527344262,0.97623575,3.003526,0.9828198,0.92094177,9.36969,2.74430131409527344280,1.1073183,2.791639,1.7806876,0.93027836,9.34486,2.82463431409527344282,1.0809821,2.7090392,2.705448,0.9285989,9.320945,2.90311171409527344304,1.091756,2.819771,3.6882677,0.91336656,9.300193,2.97364541409527344305,1.3072342,3.4967315,5.083489,0.88168925,9.285391,3.02895071409527344306,1.5801731,4.957195,6.482301,0.8317742,9.277287,3.06765081409527344328,2.0799627,7.137714,6.9623384,0.7645423,9.271259,3.10316131409527344329,2.532467,9.431359,6.831256,0.6956316,9.272884,3.11449551409527344343,3.0142999,11.649587,6.429629,0.61586404,9.283377,3.10000541409527344344,3.2513258,13.139977,5.893926,0.5392803,9.300211,3.06360171409527344357,3.0125043,15.450981,5.896919,0.47823355,9.319067,3.0160711409527344375,2.1212628,19.403809,4.979341,0.44178954,9.333752,2.97595721409527344376,0.8158242,19.608511,2.678513,0.43108687,9.348261,2.93165181409527344391,1.42455,18.28392,1.400608,0.44874814,9.362771,2.8822791409527344396,3.0137014,14.708179,2.232593,0.5121352,9.369873,2.8484341409527344408,3.436278,10.245986,4.305373,0.59980774,9.351508,2.89135311409527344422,-1.4676456,8.831612,12.506113,0.6878372,9.300613,3.03246671409527344425,-0.9540894,17.384298,9.308058,0.7370295,9.212403,3.28006081409527344445,-3.1010897,18.428171,6.2763996,0.77813965,9.143536,3.45841621409527344448,-7.65546,12.983157,2.7670987,0.7928036,9.111194,3.53949281409527344470,-7.796119,11.270106,-0.04309563,0.7706046,9.106651,3.55604721409527344471,-6.0878563,9.636064,0.30047232,0.7209836,9.119336,3.53387621409527344477,-5.005677,8.653243,1.4808137,0.6591455,9.118348,3.54847151409527344489,-4.809353,10.048465,1.5717934,0.5839786,9.108099,3.58774541409527344510,-4.3598413,11.282676,0.65660983,0.5023996,9.114552,3.58370781409527344512,-3.5535939,11.977592,-0.32920274,0.43374053,9.143567,3.51815721409527344527,-2.9257145,11.917738,-0.58298814,0.37357005,9.181288,3.42560841409527344529,-2.2361844,11.104307,0.2717419,0.3129952,9.210497,3.3524891409527344544,-1.3515269,10.173561,1.3994108,0.2567169,9.229507,3.3046451409527344546,-0.22026655,9.208099,1.9614497,0.19823848,9.240057,3.27909021409527344561,0.96306765,8.457518,2.1829133,0.14077888,9.253667,3.24348861409527344575,1.7908629,8.143278,2.4103625,0.084696345,9.273464,3.1884281409527344576,2.3038206,8.194156,2.5240872,0.02700082,9.294331,3.12811261409527344594,2.5629928,8.272566,2.7724855,-0.033952318,9.311698,3.07595831409527344597,2.484583,8.1756,2.8018146,-0.09858875,9.325365,3.03286081409527344614,1.2186487,7.5225816,2.408567,-0.17006098,9.339013,2.98735951409527344631,0.48482585,6.87914,1.6160861,-0.25534207,9.355521,2.92906621409527344632,-0.061052144,6.5708866,0.9636662,-0.34644148,9.375454,2.85504061409527344636,-0.61052144,6.4505777,0.6997054,-0.43765125,9.395686,2.77487471409527344645,-1.4215573,6.7426705,0.724246,-0.5322047,9.414463,2.69351431409527344667,-1.894412,7.191583,0.7398083,-0.63024276,9.429221,2.6197311409527344668,-1.95307,7.695563,0.90859956,-0.73481923,9.438673,2.55771521409527344679,-2.03148,8.117541,1.0618285,-0.8358157,9.442453,2.51234651409527344699,-2.1631613,8.477868,0.81522566,-0.9234022,9.441935,2.48346521409527344701,-1.922544,8.683769,0.47884035,-0.9996462,9.438251,2.4679041409527344705,-1.1773487,8.96449,0.39444473,-1.0691817,9.4314165,2.4648781409527344732,-0.04129998,8.81605,0.37708676,-1.1323462,9.422038,2.4725231409527344734,0.62967503,8.696938,0.6931214,-1.192559,9.41154,2.48416691409527344737,1.2473791,8.441956,1.3694834,-1.2571449,9.40233,2.48720171409527344745,2.095525,8.806473,1.6609775,-1.3218329,9.393978,2.4852231409527344766,2.8006175,8.733449,1.7687165,-1.3875521,9.390459,2.46259281409527344767,3.2052376,8.455123,2.0470424,-1.4552019,9.388181,2.43204451409527344777,3.052607,8.567651,2.694674,-1.527145,9.38125,2.41461251409527344802,2.4558525,8.537125,3.7618895,-1.6014233,9.366424,2.42403081409527344803,2.1146786,7.583634,3.4614172,-1.6760043,9.341693,2.46863581409527344806,2.1080947,6.5068417,2.8323407,-1.75813,9.308709,2.5352161409527344834,2.202067,5.477335,3.2190042,-1.8510982,9.270633,2.60752961409527344836,2.3038206,5.277419,4.5777135,-1.9507937,9.230729,2.67552471409527344838,1.7399861,6.22672,5.2624555,-2.0425088,9.193074,2.73604081409527344846,0.7284359,7.699753,4.747103,-2.1189427,9.160986,2.78510281409527344865,0.21188685,9.545084,3.4231098,-2.188122,9.133217,2.82256561409527344867,0.5883751,11.292253,1.3299791,-2.2371867,9.117233,2.83574531409527344877,1.2503718,11.8261595,0.41120413,-2.2632985,9.116733,2.8165711409527344901,1.6154876,11.997943,1.3485341,-2.2771053,9.126345,2.77399331409527344903,1.5837644,12.44925,2.3289597,-2.2880046,9.139102,2.72254511409527344906,2.1978772,12.561179,2.4199393,-2.2959611,9.154527,2.66338441409527344931,2.0709844,12.556391,2.1260512,-2.2859933,9.175054,2.60057831409527344932,1.6699557,12.653356,3.6834793,-2.2569048,9.199894,2.5374661409527344937,1.6346412,11.807006,6.1225724,-2.2041295,9.224023,2.49592281409527344946,0.9947908,10.612299,4.656722,-2.125122,9.244442,2.4888811409527344969,0.5327099,9.276335,3.364452,-2.0351276,9.269972,2.46906331409527344975,0.7266402,8.0445175,3.4488475,-1.9440153,9.296193,2.44376161409527344977,-2.2589293,8.20433,1.0061632,-1.8342972,9.324425,2.42091661409527345004,-3.417723,10.317214,0.7428011,-1.7270209,9.359926,2.36210851409527345006,-4.3275194,13.202826,0.8331822,-1.6164104,9.404285,2.2620831409527345008,-4.020463,15.811308,0.142455,-1.5058979,9.451395,2.13864061409527345030,-3.4261026,17.29272,-1.0319009,-1.3775525,9.497004,2.01982051409527345031,-3.0095115,18.30427,-0.74399817,-1.2262461,9.53758,1.9238721409527345039,-3.0663738,18.68016,0.48841715,-1.0600407,9.56832,1.86920951409527345045,-4.124611,17.930775,1.7753005,-0.89616174,9.586925,1.85961371409527345068,-4.911106,16.564285,2.815581,-0.7627462,9.592063,1.89233651409527345069,-5.3648076,14.686632,3.4596214,-0.64883363,9.588143,1.95369361409527345077,-5.827487,12.163143,3.7612908,-0.567722,9.574412,2.04418541409527345102,-5.8466406,9.857527,4.0384197,-0.5136663,9.552593,2.15743371409527345103,-6.1261635,7.4148426,3.9121256,-0.47898823,9.525421,2.2819521409527345106,-5.6108117,7.1472907,3.083732,-0.45272917,9.499158,2.39403921409527345122,-4.3520603,9.129091,2.3882163,-0.41265047,9.4834795,2.4624661409527345125,-3.1268275,9.389461,2.2697031,-0.33566988,9.483283,2.4748911409527345141,-2.0919337,8.51019,2.5923219,-0.21418417,9.493056,2.45079611409527345146,-0.87927055,7.844003,3.5715504,-0.067111224,9.502438,2.4227161409527345172,-0.034715924,7.116166,4.2263646,0.089026704,9.504612,2.413471409527345174,1.4143747,5.571906,3.1866825,0.24208552,9.499512,2.42303281409527345180,1.8297687,5.0182467,2.6036944,0.3935747,9.492491,2.43066291409527345197,1.8632874,4.6800656,2.2643163,0.5308779,9.483817,2.43839761409527345199,2.0745757,4.301183,1.9877859,0.64967096,9.473358,2.45026561409527345207,1.7866731,4.1156325,1.661576,0.7520301,9.459835,2.47313281409527345231,1.7034745,3.9043443,1.3461399,0.84319454,9.442898,2.50820331409527345232,1.6771383,3.8923733,1.1833342,0.92926216,9.422589,2.55375721409527345238,1.5125369,3.952827,1.2162545,1.0108213,9.399542,2.60715631409527345259,1.3611037,4.1491513,1.2862848,1.086256,9.374263,2.66714741409527345261,1.4209588,4.2042184,1.5729905,1.1527851,9.347947,2.73081761409527345280,1.7016789,4.4819455,2.030283,1.2092093,9.321608,2.7956831409527345281,2.0081367,4.7746367,2.6527755,1.252779,9.296203,2.86034151409527345287,2.367267,5.327099,3.3476925,1.2891811,9.273026,2.9187991409527345326,2.7144263,6.103419,4.044405,1.3070241,9.255782,2.9652261409527345331,3.1358056,6.9012866,4.703409,1.3027532,9.246194,2.99685221409527345333,3.7086184,7.5920134,5.527613,1.2769653,9.244438,3.01332331409527345334,4.144363,8.341399,6.4427967,1.2327514,9.248918,3.017991409527345357,4.150947,9.20391,6.971317,1.1736379,9.25773,3.0145311409527345359,3.9240966,10.117896,7.119757,1.1010002,9.270965,3.00123261409527345361,3.457826,11.651981,6.067506,1.0200888,9.286741,2.98098181409527345383,3.1609447,14.902708,5.849035,0.9376279,9.304715,2.95186571409527345386,2.3948002,18.440142,5.717354,0.8682462,9.318055,2.9309381409527345388,1.7717092,17.135302,4.2012253,0.7983,9.3303995,2.91148831409527345417,2.1757307,14.876372,3.4123359,0.7724068,9.332956,2.9102811409527345419,2.4660277,12.427703,3.9312792,0.8014629,9.32453,2.92936591409527345421,2.292448,10.455479,7.4471645,0.85684335,9.303228,2.98096471409527345427,-0.14844051,11.880029,10.833763,0.9207481,9.253793,3.11286541409527345448,-0.092775315,18.05288,7.2382703,0.9716008,9.17779,3.31580421409527345450,-1.9021933,17.527351,4.9757495,1.0337625,9.126419,3.43660041409527345458,-5.8741736,13.766061,2.8491,1.0904442,9.107463,3.46921351409527345470,-6.92044,11.136629,0.19812019,1.0990955,9.117168,3.44087771409527345478,-4.9158945,8.025364,0.39145198,1.056003,9.13702,3.40148661409527345490,-3.4943373,7.4986396,1.5987282,0.9944271,9.136208,3.42216561409527345515,-3.4985273,8.516774,1.946486,0.92866504,9.127367,3.46397611409527345519,-3.378817,9.730635,1.5143325,0.84992963,9.126529,3.48632881409527345521,-3.0244753,10.879252,0.7823054,0.7797643,9.145247,3.45352221409527345530,-2.52289,11.652579,0.415394,0.7201275,9.176218,3.38361451409527345565,-1.5454572,11.414955,1.1761516,0.66676265,9.205754,3.31359361409527345567,0.24241292,10.210671,1.5340848,0.6150765,9.226937,3.26430341409527345569,0.7194576,10.557233,1.2892777,0.5620559,9.247384,3.21564151409527345571,0.9720459,11.268311,1.4101849,0.4942428,9.276898,3.14090041409527345600,1.2318168,12.050615,1.9991584,0.41229677,9.313583,3.04262451409527345602,1.3587095,11.81778,2.184709,0.31511852,9.350705,2.93860551409527345604,1.1707647,10.456078,2.1458032,0.20737493,9.383505,2.84204631409527345606,0.96306765,8.908825,1.9794062,0.09449531,9.408166,2.76548151409527345633,0.63206923,7.687782,1.7866731,-0.022110911,9.424212,2.71184831409527345635,0.2112883,6.689998,1.6771383,-0.14047828,9.433735,2.67494061409527345638,-0.12868834,6.1243677,1.6873137,-0.25427538,9.439823,2.64489341409527345659,-0.32202014,5.971139,1.4574703,-0.35780555,9.446109,2.61025331409527345661,-1.0666169,6.343437,1.1701661,-0.45085812,9.455057,2.56301261409527345678,-1.323395,7.0263834,1.5610195,-0.5412398,9.465721,2.50550841409527345679,-1.4317327,7.6823945,1.6950948,-0.6343391,9.473137,2.45513441409527345686,-1.3144168,8.446744,1.5771804,-0.73234373,9.474035,2.4241971409527345715,-1.4377182,9.054273,1.0528502,-0.8286434,9.468383,2.41525941409527345718,-1.4969746,8.86932,0.39743748,-0.92304736,9.459995,2.41389041409527345719,-1.3078327,8.690952,0.062249243,-1.0181712,9.4468975,2.42689751409527345728,-0.207697,7.9433627,1.3670892,-1.1163727,9.43128,2.44439441409527345749,1.0528502,8.024766,1.8285716,-1.2132918,9.413067,2.46829631409527345751,1.9973627,7.9996266,2.0895395,-1.3034985,9.396298,2.48613761409527345760,2.4863784,8.081029,1.9985598,-1.3796126,9.384249,2.49056961409527345791,2.4791958,7.817667,2.0931308,-1.4404773,9.378053,2.47942111409527345795,2.284667,7.6404963,2.3092074,-1.492855,9.372095,2.4709551409527345797,2.03148,7.249643,2.8269536,-1.5447961,9.358831,2.48923281409527345818,2.2619221,6.9126587,3.140594,-1.6014589,9.334456,2.54433821409527345820,2.8431146,6.3242836,3.1956608,-1.6635908,9.30184,2.62271861409527345821,3.0352492,5.509058,3.0340521,-1.7294028,9.266428,2.70423221409527345825,2.8281507,5.005677,3.0855274,-1.8062627,9.228525,2.78246741409527345841,2.5432408,5.345055,3.3063924,-1.894238,9.191385,2.84616881409527345857,2.4546554,6.31351,3.5338416,-1.9793981,9.15902,2.89218521409527345859,2.2212207,8.177995,3.6074634,-2.0438588,9.135043,2.92301651409527345873,1.6454151,10.647614,3.5739446,-2.074485,9.12147,2.94375041409527345890,1.1246762,12.410344,3.0771477,-2.0734508,9.117878,2.9555891409527345891,1.0947487,12.657546,2.32058,-2.0591383,9.122933,2.94998761409527345904,1.5562311,12.298415,2.5222914,-2.0508192,9.13449,2.919871409527345906,1.9871874,11.860875,2.9783869,-2.0508096,9.149346,2.872981409527345921,1.804031,11.304822,2.4121583,-2.0523489,9.164276,2.82388021409527345927,1.7609353,11.312603,3.2824504,-2.0487933,9.181618,2.7696061409527345943,1.6352397,10.949283,4.6004586,-2.0195594,9.201141,2.7259471409527345946,0.587178,10.093356,3.852869,-1.9601694,9.2228775,2.6956771409527345958,-0.10115502,8.6574335,2.903568,-1.8864754,9.249709,2.65602761409527345983,-0.43993455,6.949769,3.2291796,-1.7983869,9.282407,2.60252241409527345985,-1.3084313,6.113594,3.2986114,-1.6945359,9.3170805,2.54773451409527345987,-2.6222494,6.758233,2.6300306,-1.5790431,9.353047,2.48948221409527346010,-3.4159272,8.916606,2.3391352,-1.4565938,9.390985,2.42036251409527346011,-3.5817258,11.996746,2.2852654,-1.3240435,9.428513,2.34956571409527346018,-3.2489316,15.733497,1.83336,-1.1746132,9.46211,2.29328781409527346027,-2.356493,19.124285,1.2515689,-1.0108382,9.494799,2.23549031409527346053,-1.0366893,19.608511,1.4766239,-0.81799793,9.525596,2.1827241409527346063,-1.5185224,19.608511,2.0751743,-0.604369,9.547773,2.15526221409527346067,-3.0615854,18.621502,2.0452468,-0.42063174,9.557692,2.15499731409527346101,-3.8624458,16.151884,2.4779987,-0.2993186,9.556446,2.1806321409527346103,-4.3993454,14.025233,2.9281087,-0.22441724,9.541277,2.25478961409527346105,-4.941034,11.7064495,3.551798,-0.17995179,9.51213,2.37853431409527346106,-5.6066217,8.901043,3.752911,-0.1582295,9.473137,2.53081821409527346108,-5.149329,6.739079,2.6150668,-0.1449558,9.436307,2.6656111409527346134,-3.9366663,7.6919713,2.271499,-0.10933994,9.41641,2.7367251409527346136,-2.6928782,7.877522,2.319383,-0.036816698,9.415868,2.74052241409527346138,-1.7908629,7.270592,2.823961,0.061268125,9.421656,2.7201171409527346169,-0.8858546,7.071873,3.6008794,0.1938572,9.430922,2.68151431409527346170,-0.030526072,6.691794,3.8792052,0.34261224,9.432098,2.66242581409527346172,0.81163436,6.475717,3.489549,0.49627152,9.421558,2.67550781409527346196,1.1013328,6.3141084,2.8496985,0.6457341,9.403492,2.70698141409527346198,1.3000516,5.3157263,2.1290438,0.7821752,9.383393,2.74053171409527346199,1.6262615,5.2199583,1.7842789,0.90132797,9.363452,2.77195841409527346207,1.7004818,4.895544,1.6412252,1.004426,9.342261,2.8077921409527346234,1.6621746,5.0122614,1.9135658,1.0940944,9.318012,2.85446481409527346236,1.875857,5.018845,2.2828712,1.1721209,9.291,2.91098791409527346239,1.7776948,5.1200004,2.1027076,1.2469034,9.262378,2.9705211409527346260,1.809418,4.8841715,1.8154035,1.3092391,9.234906,3.02866321409527346261,2.0608091,4.8704047,1.7471687,1.3580515,9.211335,3.07853751409527346267,2.336741,5.0810947,1.8549078,1.3903023,9.192222,3.1209781409527346294,2.5246856,5.108628,2.1033063,1.4072369,9.177352,3.15694571409527346296,2.6479871,5.121197,2.669535,1.4099641,9.166982,3.18572331409527346300,3.0160956,5.2804117,4.5765166,1.3980536,9.161776,3.20588871409527346307,3.4129345,5.872977,5.5605335,1.3739868,9.159663,3.22228621409527346335,3.8546648,6.9767036,6.4128695,1.3377815,9.164292,3.22435641409527346338,4.187459,8.161834,6.545149,1.2898458,9.177504,3.2062611409527346340,4.26527,9.56304,6.7330937,1.2319791,9.199907,3.16454031409527346362,4.313753,10.751761,7.349002,1.1718128,9.224822,3.11446571409527346364,4.0779243,10.912173,6.7342906,1.1092602,9.248655,3.06632231409527346367,4.0013094,12.621633,5.53719,1.0474925,9.269291,3.02546071409527346393,3.70802,15.932814,5.54138,0.98902684,9.288161,2.98702031409527346394,3.198055,17.596785,4.703409,0.9346137,9.301719,2.96224761409527346399,2.3175871,15.334264,3.2674868,0.90358937,9.305888,2.95877721409527346409,2.6964695,12.962807,2.8203697,0.9104962,9.298697,2.97919461409527346446,4.176685,10.96664,3.466804,0.9521089,9.2795,3.02568441409527346449,4.305373,8.268375,7.015011,1.0246311,9.238002,3.12727791409527346451,0.80564886,8.289325,12.934076,1.1125604,9.169583,3.29413991409527346453,-1.2084733,15.686211,9.807249,1.1604958,9.078572,3.52181341409527346461,-2.0488381,18.82082,4.6441526,1.1712526,9.028246,3.64545461409527346482,-6.6852098,14.074913,3.4542346,1.1593096,9.031288,3.64173251409527346484,-8.452729,12.022484,0.19153613,1.1004467,9.042503,3.63215571409527346487,-5.0421886,9.041104,-0.4961983,0.9987692,9.061659,3.61375141409527346510,-5.007473,8.986037,0.4997896,0.91426474,9.0645685,3.62878971409527346511,-4.8165355,10.010756,0.20290859,0.80261403,9.068857,3.64445191409527346519,-4.2922053,10.709264,-0.43275195,0.6994633,9.08696,3.62054061409527346545,-3.1783028,10.997167,-0.25857377,0.622667,9.119558,3.55194621409527346547,-2.078167,10.19092,0.80325466,0.56339616,9.155465,3.46849321409527346549,-0.7667431,9.374496,1.8237832,0.5131023,9.180991,3.40830061409527346561,0.12449849,9.28232,2.7850552,0.47484893,9.199446,3.36379531409527346584,0.7679402,9.645041,3.369839,0.4372761,9.217832,3.31824541409527346589,1.4688427,10.41777,3.5895069,0.40217736,9.244001,3.24916721409527346592,2.070386,11.034876,3.6631286,0.3682753,9.275486,3.16229561409527346619,2.2110453,11.146805,3.4973302,0.33038852,9.3065815,3.07388621409527346620,1.822586,10.8948145,2.939481,0.2803574,9.335137,2.99115511409527346621,1.0013748,10.187927,2.2481554,0.2156668,9.362115,2.91112731409527346641,0.18974048,9.173384,1.4059949,0.13799642,9.388435,2.8299531409527346642,-0.20410569,8.009203,0.5895722,0.053313583,9.412953,2.75024561409527346664,-0.712275,7.341221,0.16579847,-0.032660965,9.433757,2.67835331409527346665,-1.3844471,7.3591776,0.22026655,-0.121663556,9.450419,2.61633011409527346667,-1.6286557,7.357382,0.5446809,-0.21815702,9.464509,2.55849081409527346689,-1.6621746,7.732673,1.0259154,-0.31700954,9.474928,2.50911121409527346690,-1.0821792,8.148665,1.4742297,-0.41293293,9.482283,2.46702381409527346703,-0.83617496,8.328231,1.5239093,-0.49694398,9.486576,2.4348181409527346707,-0.7068881,8.259995,1.3497312,-0.5714141,9.487398,2.41519381409527346719,-0.45549688,7.8212585,1.1779473,-0.64313036,9.483717,2.41161561409527346734,-0.16220717,7.4244194,1.2617443,-0.7217102,9.474711,2.4247381409527346738,0.3357868,7.3166804,1.5699978,-0.81140965,9.46181,2.44665981409527346749,1.5179238,7.5094137,1.520318,-0.9099621,9.449313,2.46025421409527346774,2.5486276,7.6919713,1.2276269,-1.0096375,9.441592,2.450991409527346776,3.003526,7.6590514,1.3838485,-1.1082126,9.436263,2.42882631409527346779,3.0065188,7.431602,2.0608091,-1.2041899,9.433038,2.3954371409527346787,2.930503,7.844003,3.2908301,-1.2970744,9.42604,2.37439871409527346809,2.475006,8.189965,3.899556,-1.3753929,9.4116125,2.38751721409527346811,1.7669208,8.286931,3.743933,-1.4437463,9.389181,2.43500691409527346819,1.388637,7.9852614,3.0789435,-1.5127852,9.360409,2.50292421409527346840,1.2198458,7.3448124,2.4654293,-1.5884918,9.326943,2.57976941409527346842,1.1486182,7.0844426,2.557606,-1.6718595,9.290381,2.65783571409527346859,0.62368953,7.392098,3.1866825,-1.7571062,9.254942,2.72562151409527346860,0.2208651,9.914988,3.496133,-1.8383436,9.224819,2.77373391409527346867,0.62129533,11.172543,1.75076,-1.9050814,9.203248,2.80023151409527346886,1.738789,11.348516,0.8283938,-1.9596179,9.190913,2.8031051409527346888,3.0280666,10.927735,0.7278373,-1.9975314,9.18727,2.78824451409527346909,3.7283707,10.482413,1.6938977,-2.0224888,9.188031,2.7676751409527346910,3.7116113,10.16578,2.992752,-2.0374463,9.18976,2.7509081409527346919,2.6629508,9.999383,3.6709096,-2.0392222,9.192426,2.74066881409527346942,1.4808137,10.560823,4.1066546,-2.0319245,9.197216,2.72999791409527346943,0.7392098,10.828376,4.5795093,-2.0141973,9.206862,2.71055031409527346947,-0.31663316,10.451887,4.809353,-1.98439,9.221818,2.68154571409527346973,-1.3958195,10.117896,2.790442,-1.9465845,9.240963,2.643071409527346975,-1.0307038,9.466674,1.1558008,-1.8969365,9.268416,2.58233981409527346979,-0.10295067,8.122928,2.0404584,-1.8176006,9.303512,2.51224541409527346987,-0.1933318,7.2298903,2.1350293,-1.7241281,9.338762,2.44648841409527347007,-0.8996213,7.5243773,1.7537527,-1.6010454,9.380912,2.36759951409527347010,-2.022502,8.879496,1.9351135,-1.4569218,9.431286,2.25800921409527347021,-2.7168205,11.5394535,2.099715,-1.298694,9.480522,2.14557391409527347044,-2.914342,14.756063,1.6478093,-1.1295346,9.520457,2.06286671409527347046,-2.9245174,18.126501,0.4890157,-0.9497854,9.550212,2.0153711409527347048,-3.5021186,19.608511,1.3557167,-0.7630437,9.575312,1.97523331409527347082,-5.309142,19.38166,1.8788497,-0.5977049,9.591434,1.95385421409527347084,-6.1465144,16.79772,2.5881321,-0.49573654,9.599404,1.94321011409527347086,-5.876568,13.546393,3.1280246,-0.4504308,9.597853,1.96182361409527347089,-5.542577,9.202114,3.7535098,-0.437671,9.5888815,2.00803451409527347112,-6.4858923,7.6668324,4.6579194,-0.42383596,9.569593,2.10087161409527347119,-5.6844335,10.540473,3.8576574,-0.435847,9.539841,2.22976971409527347120,-3.968988,10.427347,2.6324248,-0.44053048,9.513517,2.33865281409527347156,-2.6850972,8.859743,2.147599,-0.3886223,9.504844,2.3827121409527347157,-1.578976,7.0832458,2.3600843,-0.2751223,9.514564,2.3596131409527347159,-0.29628247,6.9461775,3.828927,-0.1302822,9.527926,2.31776711409527347174,0.7146692,7.019799,4.6166196,0.026985476,9.532113,2.30401731409527347175,1.4323312,6.269816,4.0916905,0.19216011,9.525747,2.3224151409527347179,2.4343045,6.097433,3.091513,0.35066622,9.514745,2.3488371409527347187,2.9694088,5.783194,2.006341,0.4941823,9.503706,2.3676451409527347203,2.7754784,5.265448,1.0336965,0.62428856,9.492556,2.38160561409527347217,2.4851813,4.903325,0.5446809,0.7363183,9.480614,2.3971231409527347219,1.946486,4.654927,0.48841715,0.82698643,9.464418,2.43131021409527347233,1.276708,4.596867,0.94092125,0.9028714,9.441122,2.49408031409527347239,0.21547815,4.55856,1.8369513,0.9692621,9.411668,2.5790351409527347250,-0.272939,4.7830167,2.1176715,1.0280133,9.37918,2.672931409527347268,-0.40880993,4.9308586,2.5139117,1.0810361,9.3478155,2.76045041409527347269,-0.013766659,4.8937483,2.8844144,1.1273037,9.3196535,2.83613161409527347284,0.5374983,5.0661306,3.2387564,1.1653664,9.295814,2.8983061409527347287,1.1162965,5.321712,3.6373909,1.192131,9.277199,2.9466551409527347302,1.6053122,5.559336,4.4526167,1.2052008,9.264851,2.98000811409527347316,2.154183,5.704784,5.1642933,1.2128581,9.254146,3.01000981409527347319,2.9532478,6.035184,5.535394,1.2030174,9.24805,3.03260761409527347335,3.5715504,6.8001313,5.681441,1.1764296,9.24733,3.04521161409527347339,3.8594532,7.9116397,5.759252,1.1307676,9.2540455,3.04210761409527347351,3.654749,9.263765,5.6586957,1.0661076,9.268182,3.0223541409527347366,3.980959,10.963648,5.3300915,0.9880552,9.287394,2.9897241409527347367,4.045004,12.051813,5.2439003,0.9169861,9.306421,2.95297221409527347384,3.8097734,14.149732,5.6030307,0.8629101,9.3190975,2.92919871409527347387,3.3865983,17.753006,5.6880245,0.8318461,9.321028,2.93203661409527347402,2.6994624,17.463905,4.5166616,0.8373074,9.31214,2.95860461409527347418,2.7605145,15.679626,3.469797,0.88112044,9.299674,2.98497921409527347419,3.169923,13.671491,4.2383356,0.93577975,9.285351,3.01280121409527347433,0.80684596,10.834361,12.2241955,1.0145559,9.257219,3.0732681409527347439,-0.26874915,17.47468,8.378509,1.07256,9.176048,3.28939841409527347453,-1.2761095,18.559254,4.1611223,1.1239128,9.104,3.46762181409527347467,-4.4161053,13.954006,3.6469676,1.1833453,9.067673,3.54222851409527347468,-5.9130797,10.977415,2.094328,1.229605,9.053398,3.562931409527347483,-4.734534,8.329428,1.9093759,1.2340903,9.057763,3.5502591409527347487,-3.506907,7.371747,2.9508536,1.2005951,9.051316,3.57807561409527347502,-3.7134068,8.759187,2.7808652,1.1272728,9.0358305,3.6405261409527347518,-3.7684734,9.874287,1.6705543,1.0257814,9.037946,3.66520171409527347519,-3.4171243,10.755951,0.65541273,0.93435955,9.054757,3.6481141409527347534,-2.9993362,11.261726,0.1436521,0.84462506,9.089764,3.58234381409527347550,-2.2188265,11.034277,0.15622166,0.765452,9.126112,3.50692941409527347551,-1.3221979,10.462662,0.83258367,0.6961765,9.1533985,3.44978711409527347567,-0.504578,9.827001,1.4957775,0.6339376,9.174948,3.40424321409527347568,0.25977087,9.495404,1.9237411,0.574913,9.199675,3.34751271409527347581,0.59376204,9.7479925,2.018312,0.5135738,9.229875,3.2735361409527347587,0.7218518,9.797073,1.9674352,0.43999636,9.263021,3.18955281409527347600,1.1061212,9.6528225,2.0685902,0.351542,9.295369,3.1053071409527347615,1.5298948,9.378088,2.7012582,0.25565183,9.324488,3.026381409527347619,1.2162545,8.360553,2.9017725,0.1605016,9.34955,2.95475241409527347631,0.6171055,7.8009076,2.6378117,0.061100073,9.371967,2.88667461409527347641,0.40043023,6.9982514,1.9925743,-0.035119537,9.393267,2.81703351409527347659,-0.1400608,6.5128274,1.3563153,-0.12332469,9.413186,2.74720241409527347661,-1.115698,6.640917,1.1318588,-0.20690972,9.430777,2.68105461409527347668,-1.5693992,7.021595,1.2671312,-0.29719135,9.444719,2.62284971409527347682,-1.5574282,7.33763,1.073201,-0.39981788,9.45327,2.5780251409527347688,-1.3365631,7.4405804,1.1444284,-0.5059221,9.457076,2.54522731409527347701,-1.3389573,8.030751,1.0474633,-0.59842885,9.458608,2.51932981409527347715,-1.2354081,8.286332,0.82360536,-0.6772024,9.459889,2.49444871409527347719,-1.3042414,8.123527,0.59615624,-0.7516975,9.459491,2.47455071409527347732,-1.1121067,7.8039002,0.6464345,-0.83435196,9.456325,2.4601151409527347747,-0.39264908,8.193557,1.0360907,-0.9200004,9.448256,2.46058271409527347748,0.80924016,8.6712,1.2910733,-1.0086792,9.43724,2.46809481409527347773,1.5532384,8.982447,1.5915456,-1.0909221,9.427945,2.4686281409527347775,2.2493525,8.8884735,1.9626468,-1.1700413,9.4216795,2.45628571409527347780,2.8694508,8.280347,2.4420857,-1.24646,9.416278,2.43935511409527347788,2.771887,8.095993,2.7030537,-1.3229247,9.406275,2.43767621409527347808,1.2551602,7.801506,3.2680852,-1.3989671,9.387876,2.46598771409527347810,0.7757214,7.270592,3.1112652,-1.4829227,9.356999,2.5333551409527347820,0.6344634,6.6480994,2.6390088,-1.5690689,9.317063,2.62693051409527347841,1.13964,6.0746884,2.4049757,-1.6582003,9.273946,2.72299551409527347843,1.5783775,6.0848637,2.6390088,-1.7478039,9.231279,2.81052521409527347848,1.7256209,7.116166,3.3075895,-1.8345339,9.194904,2.87377791409527347874,1.3682863,8.801085,3.9019501,-1.9100913,9.16837,2.90911561409527347876,1.0953473,10.702681,3.4799721,-1.9693862,9.150167,2.92683031409527347880,1.0402806,12.036849,2.4498668,-2.0104074,9.140831,2.92811781409527347889,1.4407109,12.566566,1.9189527,-2.037828,9.1419525,2.9055761409527347908,1.9183542,12.573749,2.0219033,-2.0550575,9.151417,2.86333971409527347909,2.385822,12.119449,2.9694088,-2.0631251,9.163638,2.8180911409527347939,2.1948843,11.581951,3.5715504,-2.0570903,9.173548,2.79012271409527347941,1.5795746,11.775881,3.3159695,-2.041266,9.181795,2.77457671409527347942,1.4574703,11.605294,3.5649664,-2.0150952,9.194151,2.7527051409527347948,0.89423436,11.176133,3.9372647,-1.9833055,9.208959,2.7261651409527347975,0.48961425,10.942101,2.734777,-1.9322225,9.230773,2.68882011409527347977,0.7906851,9.890448,1.4622587,-1.8615721,9.262881,2.6275371409527347980,1.3575124,7.9846625,2.0135236,-1.7659087,9.301744,2.5552891409527348008,-0.26874915,5.3845596,1.7328035,-1.6466522,9.342192,2.4864421409527348009,-1.3108255,5.876568,1.3581109,-1.524826,9.385044,2.4012971409527348011,-2.167351,7.7129207,1.5640123,-1.3930426,9.432214,2.29416231409527348020,-2.861071,11.0857525,2.3493104,-1.250745,9.476616,2.190841409527348038,-3.289633,15.509639,2.8006175,-1.0953411,9.511619,2.12125681409527348040,-2.7180176,19.27512,1.4742297,-0.9247273,9.536307,2.09144161409527348048,-2.2505496,19.608511,0.87208796,-0.7299846,9.561623,2.05252741409527348073,-3.6254199,19.608511,1.5460558,-0.53044546,9.579927,2.02830031409527348075,-5.195418,19.026123,1.9177556,-0.37228623,9.590668,2.01268121409527348080,-5.568913,16.114773,2.3175871,-0.28111398,9.595539,2.00424891409527348105,-4.694431,12.904149,2.9484594,-0.23350422,9.590452,2.03447561409527348107,-4.744709,7.6584525,3.5781345,-0.20240693,9.572614,2.12002521409527348109,-5.363012,7.1113777,4.232949,-0.18147753,9.543054,2.25112631409527348122,-3.9324763,10.547656,3.2453403,-0.17084756,9.511254,2.38269951409527348141,-2.3050177,10.38904,1.6597804,-0.121694975,9.494998,2.44961521409527348143,-1.3186066,8.556877,0.83258367,-0.001288871,9.500553,2.43102861409527348149,0.31423897,8.761581,2.2870612,0.1563273,9.5131445,2.37613531409527348180,0.9828198,8.015189,3.7217865,0.3254162,9.519384,2.33362821409527348182,1.3479356,7.153875,4.4478283,0.49908292,9.512364,2.33157561409527348183,2.088941,5.1762643,2.9532478,0.6583254,9.495277,2.36150171409527348216,2.071583,4.486734,2.0883424,0.79282284,9.478111,2.38898561409527348217,2.006341,4.329315,1.6543933,0.89674914,9.463259,2.41101261409527348218,1.8626889,4.288614,1.328782,0.97490245,9.448293,2.43920421409527348221,1.3730747,4.1036615,1.2719196,1.0395817,9.428871,2.48717381409527348231,0.87328506,3.7463272,1.2779051,1.1000682,9.402825,2.55873471409527348257,0.54168814,3.5122938,1.3491327,1.1594137,9.372351,2.64295271409527348258,0.3842694,3.5625722,1.459266,1.2201002,9.341172,2.72474771409527348260,0.63087213,3.9863458,1.6484078,1.2817343,9.311876,2.7958021409527348269,1.0516531,4.4448357,2.0350714,1.3448852,9.283372,2.8601851409527348290,1.745373,5.168483,2.7928362,1.4045409,9.258501,2.91167021409527348292,2.4181437,6.051345,3.6020765,1.4575598,9.2378645,2.95089461409527348301,2.8927941,6.9988503,4.394557,1.4976456,9.222789,2.97785351409527348329,3.309984,7.5962033,5.151125,1.517651,9.214093,2.99459771409527348331,3.7391446,7.7159133,5.543774,1.5122774,9.21076,3.00754171409527348333,4.211401,7.5549035,5.976526,1.4790511,9.2121315,3.019841409527348357,4.4837413,7.902063,6.2404866,1.420414,9.217399,3.0318961409527348359,4.6980224,8.599973,6.11539,1.3433026,9.227068,3.0376231409527348361,5.043386,9.436148,5.583877,1.2585863,9.240714,3.03241731409527348370,3.8361096,12.42052,5.9489927,1.177321,9.25568,3.01939031409527348390,2.9502552,16.865953,5.501277,1.0893328,9.270104,3.00814081409527348392,2.5157075,16.81807,3.8468835,1.0101736,9.28371,2.99377661409527348401,2.5755625,14.807539,3.5619736,0.96783704,9.291188,2.9845421409527348438,2.8293478,12.865841,5.026028,0.97625506,9.284317,3.00312541409527348441,2.5079262,11.447277,9.173384,1.0201762,9.25868,3.0669981409527348443,-1.4891934,11.921927,12.357672,1.0820801,9.19849,3.22293161409527348445,-2.5157075,18.575415,6.084265,1.1169343,9.1101265,3.45375471409527348449,-3.9791632,18.90342,3.1136594,1.151576,9.065415,3.55844141409527348476,-7.1604586,13.92348,1.8752584,1.1903604,9.057095,3.56685761409527348477,-6.88752,9.779716,0.28790274,1.1957142,9.061517,3.5538091409527348480,-3.4560301,7.620744,1.388637,1.1934286,9.062118,3.553051409527348504,-2.1960814,7.8428063,1.9093759,1.1762878,9.040371,3.61364251409527348505,-3.7002387,8.834604,1.1988965,1.1239102,9.015379,3.6919061409527348508,-3.9187095,9.5013895,1.4466964,1.0326114,9.019523,3.70840841409527348535,-2.979584,11.178528,0.801459,0.9269332,9.046358,3.67077611409527348538,-1.7776948,13.29141,0.2136825,0.8251825,9.085544,3.597551409527348558,-0.81283146,14.425664,0.23343466,0.72758526,9.135156,3.49141141409527348559,-0.74399817,13.55178,0.8283938,0.6217307,9.190125,3.36532661409527348560,-0.44532153,10.13286,2.147599,0.50074565,9.238014,3.25249931409527348568,-0.2837129,9.312247,2.6617537,0.3811473,9.266189,3.18792581409527348587,-0.17836803,9.287707,3.1956608,0.26462892,9.278549,3.16368251409527348589,0.054468088,9.1829605,3.5984852,0.14538042,9.282556,3.1596541409527348604,0.3716998,8.494029,4.0557775,0.030173933,9.276912,3.17936971409527348634,0.57640404,7.9421654,4.31495,-0.07977283,9.267791,3.2050081409527348638,0.760159,7.748235,3.8600516,-0.18234913,9.260326,3.22234341409527348639,0.7763199,7.6147585,3.0071173,-0.2745695,9.258149,3.22206121409527348658,0.3705027,7.4788876,2.1817162,-0.35280952,9.263665,3.19850351409527348660,-0.18136078,7.2861543,1.62686,-0.42030233,9.276855,3.15177821409527348661,-0.801459,7.359776,1.216853,-0.48263943,9.296279,3.08490781409527348671,-0.84694886,7.2472486,0.9648633,-0.5462942,9.320916,2.9987421409527348692,-1.3611037,7.8104844,0.9744401,-0.61321497,9.347891,2.90022281409527348694,-1.666963,8.523358,1.1133038,-0.6856113,9.37377,2.798711409527348705,-1.6280571,8.75799,1.0869676,-0.77229416,9.3947735,2.70410541409527348726,-1.3245921,8.593389,0.825401,-0.8682647,9.407034,2.63139371409527348727,-1.0839748,8.274361,0.3585317,-0.96263117,9.410617,2.5853521409527348729,-1.0516531,7.868544,0.25438392,-1.0505793,9.408838,2.5574291409527348757,-0.9636662,7.719505,1.5705963,-1.1375124,9.404285,2.53690651409527348758,0.4285621,8.833407,2.179322,-1.228192,9.397052,2.52137571409527348761,1.0929531,9.4535055,2.4666264,-1.3125787,9.392623,2.49522951409527348770,1.520318,9.680955,2.2583308,-1.3914102,9.393083,2.45038491409527348786,1.822586,9.106346,2.1158757,-1.4635938,9.3975725,2.39037441409527348789,1.9063832,8.3390045,2.1134815,-1.5345186,9.399238,2.33880111409527348802,2.0087352,7.745841,2.0907366,-1.6081358,9.395674,2.30339051409527348824,2.0380642,7.465121,2.1888988,-1.6874171,9.380325,2.30922581409527348825,1.9734207,7.4166384,2.5007436,-1.7721238,9.352972,2.35624151409527348829,1.7555484,7.482479,2.6491842,-1.8630756,9.316412,2.42977671409527348855,1.690905,7.422025,2.8443117,-1.959787,9.276273,2.5060681409527348856,1.661576,7.2029557,3.1771057,-2.0593517,9.237337,2.56925031409527348861,1.359308,7.0982094,4.091092,-2.158431,9.20057,2.61936741409527348886,0.78649527,7.171831,4.644751,-2.2568347,9.162835,2.6682471409527348887,0.12569559,7.454347,4.349666,-2.350696,9.122562,2.72460651409527348889,-0.320823,8.046313,3.5781345,-2.432679,9.081061,2.790481409527348903,0.31004912,8.850166,2.2296004,-2.498354,9.04241,2.8571721409527348927,2.271499,9.022549,1.4586674,-2.5521944,9.010694,2.9093111409527348929,3.3931823,9.131485,2.32058,-2.5798955,8.994487,2.93491841409527348932,2.0733786,10.068216,3.330933,-2.5900948,8.994,2.92741471409527348963,0.89603,12.290036,2.9299042,-2.595147,9.005073,2.8886451409527348965,0.3309984,12.838308,3.6062663,-2.581349,9.0282755,2.82794481409527348966,0.20470424,12.197859,4.4939165,-2.5456543,9.053486,2.77928521409527348989,0.13227965,11.003751,2.5965118,-2.4877589,9.079988,2.74504351409527348990,0.4309563,9.226056,1.4257472,-2.4154766,9.116063,2.68947171409527348992,0.61171854,7.475895,2.1679497,-2.3264275,9.157811,2.62538311409527349003,0.035913024,6.0866594,2.4779987,-2.2191782,9.199833,2.57074261409527349026,-1.2156559,5.7879825,2.1625626,-2.1136682,9.241664,2.5088711409527349028,-2.8275523,7.113772,1.9566613,-1.99305,9.291745,2.42108131409527349031,-3.733159,10.184336,2.0087352,-1.86622,9.348434,2.30095721409527349063,-4.2999864,14.185645,1.6448165,-1.7275052,9.405217,2.17439131409527349066,-4.5537715,18.34557,0.42556936,-1.5696635,9.458238,2.06113481409527349071,-3.5966895,19.608511,-0.5530606,-1.3938171,9.507718,1.95728331409527349107,-3.8175547,19.608511,0.2208651,-1.1974462,9.551623,1.87163011409527349108,-5.6185927,19.608511,1.0241197,-1.0215635,9.581727,1.82134561409527349109,-7.1700354,19.04348,1.3880384,-0.91519654,9.596679,1.79904631409527349111,-7.439383,17.1359,1.7872716,-0.8792272,9.598167,1.8090221409527349112,-7.0634937,13.681067,2.408567,-0.87317526,9.587377,1.86819911409527349154,-5.7359085,6.0944405,3.9067385,-0.86022985,9.569312,1.96435271409527349156,-5.145738,8.052299,3.6864722,-0.8329261,9.540708,2.10986231409527349159,-3.235165,9.821015,2.9322984,-0.80560124,9.509896,2.2546161409527349162,-1.8393455,9.015367,2.4241292,-0.74490404,9.490425,2.35527181409527349163,-0.48362875,7.7614036,2.7593174,-0.62531793,9.490675,2.38882041409527349195,0.7098808,6.904279,3.9677908,-0.45594373,9.50311,2.37769221409527349197,1.5520413,6.729502,4.827309,-0.26908174,9.512683,2.36787771409527349200,1.9081788,6.021417,4.286818,-0.08094781,9.512948,2.3806811409527349202,2.1122844,4.9200845,3.2561142,0.090936996,9.506714,2.40510421409527349226,2.3421278,4.5543704,2.4546554,0.23686874,9.49869,2.42676541409527349228,2.0207062,4.034828,1.9405005,0.35704878,9.489857,2.4465331409527349230,1.8405426,3.6762967,1.7130513,0.45944825,9.479346,2.47008091409527349255,1.4215573,3.472191,1.3599066,0.5477753,9.463901,2.51095681409527349259,1.0714053,3.328539,1.2216414,0.6241516,9.443004,2.5710891409527349261,0.90381116,3.3925838,1.1923125,0.69730437,9.418014,2.64295131409527349280,0.5398925,3.5152867,1.1420342,0.77103746,9.390352,2.71977041409527349281,0.29149407,3.651756,1.1552023,0.84284806,9.361306,2.79748851409527349302,0.28550854,3.7403417,1.3599066,0.90968144,9.3309555,2.87682491409527349304,0.3585317,3.8492777,1.6023195,0.96656716,9.299605,2.95862981409527349310,1.2515689,4.2275615,2.8682537,1.0092593,9.269084,3.03905731409527349338,1.8686744,4.5801077,3.7181952,1.0368658,9.240701,3.11524631409527349339,2.597709,5.5509567,4.857237,1.0579317,9.213413,3.18812941409527349341,3.2597055,6.9958572,5.7706246,1.0607091,9.1926155,3.24670891409527349350,3.7020345,8.613141,6.266823,1.046515,9.181485,3.2826091409527349371,4.0497923,10.013748,6.6109896,1.0164132,9.183333,3.28689981409527349373,4.345476,11.092337,6.3362546,0.972483,9.199089,3.25598141409527349381,4.8500543,11.839328,5.9202623,0.91748506,9.226575,3.19357871409527349408,4.4316673,12.293627,6.0782795,0.86064756,9.25824,3.11683771409527349409,3.4476504,14.2868,6.488885,0.8038195,9.286294,3.04778841409527349410,3.2495303,17.74283,6.1626754,0.7527145,9.308127,2.99375771409527349431,2.835932,17.452534,4.720767,0.7340124,9.324216,2.94798781409527349432,3.4290953,15.182232,3.7547069,0.7590432,9.331763,2.91760751409527349446,5.2684407,12.662334,3.9953241,0.8074707,9.330622,2.90824581409527349449,6.453571,9.053674,5.5964465,0.9080786,9.30079,2.97339751409527349463,5.5485625,7.0407486,10.216658,1.0424987,9.232559,3.13742541409527349479,1.311424,9.234436,12.32116,1.1889777,9.134046,3.36539911409527349481,2.0853498,18.253393,6.3787518,1.2812119,9.053637,3.54408841409527349497,-1.9764135,17.961899,5.9388175,1.3609096,9.043864,3.53932741409527349513,-8.53892,13.939042,-1.2551602,1.3662829,9.053882,3.51153661409527349514,-6.0531406,12.318767,-1.2731167,1.2745723,9.089111,3.45455121409527349529,-5.0757074,10.518327,0.025737667,1.1845798,9.110664,3.42971941409527349530,-5.786187,10.374675,0.4770447,1.0580317,9.123514,3.43692731409527349546,-5.774216,11.1096945,0.3429694,0.89642996,9.139374,3.44073151409527349549,-5.0757074,12.175115,0.6512229,0.7515032,9.165503,3.40576081409527349562,-3.8905778,12.443265,0.87687635,0.6173103,9.200152,3.33863851409527349577,-2.4037786,11.216835,1.3856442,0.5177173,9.230024,3.27246381409527349581,-0.58418524,9.141062,2.111686,0.44986778,9.244839,3.24051791409527349595,0.10175357,7.627328,2.3918076,0.39805093,9.250052,3.23241111409527349622,0.28550854,7.603386,2.712032,0.34184015,9.25789,3.2163671409527349624,0.6811504,8.635885,3.90614,0.2764958,9.272803,3.17947631409527349625,0.9516952,10.165182,4.209007,0.20356925,9.29305,3.12540651409527349630,0.8912416,10.597934,3.582923,0.12327296,9.319047,3.05131911409527349655,0.39564183,9.515755,2.9346926,0.037483856,9.347696,2.96471881409527349656,-0.108337626,8.185177,2.1763294,-0.055841167,9.374168,2.8796221409527349661,-0.44532153,7.023391,1.2330139,-0.15114333,9.395964,2.80417821409527349679,-0.85473,6.30932,0.7110779,-0.24735583,9.415413,2.7311581409527349681,-1.5807717,6.2488666,0.65780693,-0.33806422,9.434731,2.65367361409527349695,-1.857302,6.5391636,0.587178,-0.4240717,9.453654,2.57273771409527349721,-1.2719196,6.6726403,0.92296475,-0.50386345,9.470864,2.4938431409527349723,-0.6410475,6.8863225,1.3838485,-0.568767,9.485859,2.42185471409527349724,-0.4866215,7.741651,1.7705121,-0.61593163,9.4984865,2.36003831409527349730,-0.24720132,8.740632,1.5011644,-0.6508393,9.5078125,2.3126381409527349755,0.04309563,8.7292595,0.99299514,-0.68105805,9.512249,2.28553441409527349756,0.47405192,8.16722,0.82001406,-0.71641713,9.508473,2.29042721409527349761,1.0301052,7.8446016,0.7918822,-0.7563406,9.499597,2.31430821409527349782,1.6358383,8.262989,0.9068039,-0.8121296,9.482981,2.36303071409527349783,2.3373394,8.534731,1.0498575,-0.8868474,9.466571,2.40165661409527349797,2.8173769,8.353969,1.4323312,-0.9769879,9.456667,2.40569041409527349815,3.064578,8.346786,2.1086931,-1.0787816,9.451799,2.38120251409527349816,3.015497,8.41502,2.6276364,-1.1845036,9.445618,2.3553491409527349830,2.28347,8.659827,3.4201171,-1.2838827,9.432583,2.35550671409527349831,1.6729485,8.696339,3.5446155,-1.3785659,9.408497,2.39794831409527349850,1.5544355,8.388085,3.031658,-1.473775,9.374944,2.4716021409527349851,1.7992426,7.745841,2.4995465,-1.5725552,9.336562,2.5546171409527349862,2.0649989,7.1407065,2.3463178,-1.6733481,9.296896,2.63401461409527349876,2.2391772,6.615778,2.8622682,-1.7757188,9.25643,2.70845461409527349881,1.168969,6.985682,4.529231,-1.8685712,9.218676,2.77395841409527349894,0.22984336,8.228871,4.5657425,-1.9493463,9.184734,2.83038741409527349914,-0.56922144,9.643246,3.2860417,-2.0153198,9.157874,2.87092571409527349915,-0.7080852,10.597934,2.211644,-2.0698721,9.138145,2.89488151409527349928,0.0796072,10.952275,1.4197617,-2.1132402,9.124797,2.9056331409527349930,1.2737153,11.035474,1.5340848,-2.1462412,9.1191435,2.89918281409527349945,2.078167,10.949882,2.211644,-2.168433,9.121137,2.87631151409527349961,1.7238252,10.67814,2.582745,-2.179105,9.129155,2.84260651409527349962,1.4095862,11.078569,2.895787,-2.1827016,9.140136,2.80430251409527349979,1.4945804,10.92175,4.514866,-2.1779625,9.152721,2.76669221409527349981,0.9708488,10.015544,4.9907136,-2.1494865,9.16714,2.74110341409527349993,0.7870938,9.685144,2.8389246,-2.1026676,9.185895,2.7145021409527350008,1.2449849,9.22426,1.6831238,-2.0334835,9.2167425,2.66214011409527350010,1.1336545,8.076241,2.3517046,-1.9364345,9.256411,2.59604671409527350023,0.2208651,7.0970125,2.1613655,-1.819393,9.300046,2.52375961409527350030,-1.0582372,6.905476,1.7292122,-1.6885395,9.35233,2.41932771409527350043,-2.2547395,8.297705,1.988983,-1.5437504,9.410884,2.2852791409527350059,-2.6922798,11.386225,2.882619,-1.3840734,9.46539,2.15896221409527350062,-2.5594015,15.509639,3.4524388,-1.206308,9.507483,2.07917331409527350077,-1.2922704,19.608511,1.2826935,-1.0045214,9.53678,2.0521031409527350096,-2.5839422,19.608511,1.5251064,-0.77414036,9.56788,2.00668641409527350097,-4.791396,19.276316,1.8351556,-0.570887,9.585651,1.98991671409527350111,-5.9442043,16.877924,2.2798786,-0.44095242,9.593385,1.9856751409527350112,-5.9172697,13.707403,2.7928362,-0.38128224,9.591216,2.00837761409527350124,-5.3025584,10.167576,3.1944637,-0.36298883,9.578722,2.0704351409527350130,-5.817312,6.2847795,3.6218286,-0.36027825,9.556796,2.16984771409527350143,-5.5126495,9.673772,3.2273839,-0.36347887,9.52908,2.28799081409527350166,-3.775656,10.523713,2.2290018,-0.3583981,9.50613,2.38232061409527350167,-2.4552538,9.880272,1.5795746,-0.2933791,9.499157,2.41874531409527350171,-1.2012907,9.022549,2.2212207,-0.16785635,9.506935,2.4000811409527350199,-0.20829555,8.279149,3.6613328,-0.015483255,9.514938,2.37404781409527350200,0.2765303,7.475296,4.768651,0.14312015,9.517113,2.361031409527350204,0.52732295,6.9982514,4.7884035,0.2963974,9.509659,2.3767441409527350210,1.0618285,6.3949127,3.8738184,0.434109,9.49647,2.40810681409527350229,1.4969746,5.2875943,2.48159,0.5533778,9.483078,2.4362671409527350230,1.6579847,4.900931,1.5771804,0.65168005,9.471935,2.4552311409527350245,1.780089,4.996699,1.1180922,0.73015934,9.459901,2.47942141409527350262,1.6956934,4.7680526,0.985214,0.7989947,9.442074,2.52571461409527350264,1.1360487,3.9396589,1.0702082,0.8642049,9.416937,2.59709071409527350276,0.8870517,4.0402155,0.95588505,0.9246713,9.387036,2.6830851409527350293,0.7703344,4.164714,1.01574,0.9843944,9.356233,2.7680851409527350294,1.0181342,4.2185836,1.2276269,1.0468963,9.324865,2.84979151409527350310,1.4909891,4.2874165,1.7076644,1.1100404,9.294143,2.9252551409527350311,1.941099,4.4861355,2.2828712,1.1716235,9.265304,2.99196461409527350326,2.3014264,4.808754,2.8999767,1.227244,9.240087,3.0471381409527350330,2.4480712,5.33907,3.7128084,1.2719064,9.219878,3.08973981409527350343,2.5689783,5.801151,4.5926776,1.3003066,9.205882,3.11950781409527350363,2.9891608,6.2285156,5.245097,1.3084211,9.197781,3.13994841409527350364,3.6337996,6.703765,5.8244944,1.2942859,9.195051,3.15376541409527350378,4.061165,7.4256167,6.6361284,1.2595241,9.197079,3.1619191409527350398,4.71538,8.72088,6.9168487,1.2074052,9.203042,3.1648981409527350399,5.6580973,9.913192,6.609792,1.149112,9.213288,3.15677931409527350402,5.953781,10.824784,6.6612678,1.099965,9.224995,3.14005541409527350411,5.544971,13.570335,7.2580223,1.058465,9.235178,3.1243461409527350429,4.5256395,17.009007,6.4098763,1.0340055,9.236945,3.12730841409527350431,3.3943794,17.130512,4.259285,1.0345427,9.235786,3.13055231409527350444,3.1453824,16.207548,4.722563,1.0678908,9.236272,3.11790081409527350460,2.4528596,12.496535,10.244789,1.1325988,9.22436,3.13029841409527350462,-1.5837644,14.1629,13.347674,1.2037392,9.166142,3.27158021409527350478,-3.1064768,19.44032,5.2181625,1.2248987,9.069396,3.52364441409527350492,-5.1996074,19.157206,3.205836,1.2336633,9.015257,3.65699341409527350493,-8.14268,15.1128,2.4893713,1.2293812,8.985522,3.7308711409527350507,-8.012196,10.989386,-0.76315176,1.1905572,8.960547,3.80283521409527350511,-5.317522,7.7889366,0.96546185,1.1433319,8.948326,3.84586071409527350524,-4.478953,6.649895,1.6986861,1.076095,8.922251,3.92502881409527350531,-4.642956,7.3083005,1.3982137,0.9701577,8.892281,4.01952081409527350542,-4.620809,8.379706,0.7517793,0.85517657,8.882334,4.0673351409527350560,-4.0934863,9.6049385,-0.11911154,0.75956357,8.901177,4.0450561409527350562,-3.2082303,11.146805,-0.2172738,0.6843721,8.940365,3.97138621409527350577,-2.0751743,12.085332,0.7799112,0.6228974,8.986239,3.87684151409527350595,-0.9139865,12.071565,2.1045034,0.57117313,9.028561,3.78539851409527350596,-0.1328782,11.473015,2.7886465,0.5222748,9.0683365,3.69633361409527350609,0.48123455,10.885238,2.7730842,0.46988028,9.109101,3.60192631409527350611,0.760159,11.171944,2.7431567,0.41543898,9.149037,3.50612641409527350625,0.7092823,11.361684,2.5803509,0.34953153,9.187365,3.41182571409527350641,0.1921347,9.423578,1.6897079,0.26512557,9.219361,3.3321881409527350642,0.108936176,8.079832,1.8339585,0.16118853,9.242691,3.27369641409527350658,-0.060453594,6.9126587,1.9686323,0.050158117,9.257838,3.23423931409527350662,-0.11432313,6.2225304,2.1853075,-0.055985928,9.268729,3.20279621409527350675,-0.1352724,5.7179523,2.271499,-0.14951017,9.28065,3.16505151409527350693,-0.5686229,5.752668,2.0284874,-0.22597861,9.297821,3.10963461409527350694,-0.98102415,6.0968347,1.5047557,-0.28739938,9.321359,3.03315931409527350707,-0.94092125,6.3284736,1.3862427,-0.3404264,9.348785,2.94189261409527350711,-1.2030864,7.1341224,1.5304934,-0.39225572,9.374165,2.85333971409527350723,-1.1779473,8.165425,1.5897499,-0.44714755,9.39591,2.77260071409527350741,-0.8535329,9.012374,1.1336545,-0.5093553,9.409599,2.7148471409527350742,-0.37708676,9.503783,0.362123,-0.5785075,9.415883,2.67896721409527350769,-0.2681506,9.924564,-0.034117375,-0.6470429,9.419076,2.65193061409527350771,0.20530279,9.746795,0.17357962,-0.7201662,9.422376,2.62118321409527350773,1.2413936,9.102157,0.50158525,-0.804377,9.4247465,2.58795641409527350799,2.0632033,8.525752,1.1731589,-0.8961232,9.424707,2.55777721409527350801,2.9059622,8.019978,1.5592239,-0.9915538,9.421559,2.53405551409527350804,3.0699651,7.992444,2.1936872,-1.081104,9.416243,2.51713661409527350811,3.2704794,8.27496,2.6994624,-1.1545488,9.409292,2.510511409527350825,2.5821466,7.4854717,2.8634653,-1.2061893,9.4023,2.51242331409527350842,2.007538,6.831256,2.618658,-1.2598696,9.389744,2.53295141409527350843,1.6430209,6.459556,2.0937295,-1.3189014,9.369921,2.5759431409527350860,1.4281414,6.1345434,2.010531,-1.389614,9.342547,2.63746051409527350865,1.3269863,5.6904187,2.019509,-1.4711466,9.308013,2.71421961409527350883,1.1976994,5.8885393,2.4265234,-1.5628197,9.268956,2.7954281409527350885,0.7410054,6.83365,2.939481,-1.6577779,9.233025,2.8589181409527350894,0.047884032,8.327632,3.6864722,-1.7494941,9.206637,2.88919971409527350927,-0.46387658,9.942521,3.7684734,-1.8317239,9.188334,2.89649461409527350931,-0.21308395,10.912173,2.475006,-1.9029502,9.174009,2.89598661409527350933,0.65541273,10.694899,1.6531962,-1.9593617,9.165173,2.88632771409527350955,1.939902,10.398018,1.6968905,-2.0034022,9.159557,2.87389561409527350956,2.9700072,10.370484,2.3002293,-2.0342922,9.156797,2.86096121409527350957,3.0986955,10.507553,2.995745,-2.051955,9.157377,2.84645921409527350962,2.8640637,10.78528,3.196858,-2.05925,9.161585,2.8275861409527350977,2.3888147,11.259931,3.3782187,-2.0559227,9.170863,2.7997971409527350995,2.1260512,11.720216,4.0144777,-2.0393155,9.185512,2.76368521409527350996,1.7711107,11.456854,5.4300494,-2.0029182,9.206148,2.72131161409527351011,0.90740246,10.879851,4.7399206,-1.9467257,9.2301445,2.68049881409527351012,0.6464345,9.518747,2.6563668,-1.8795342,9.258963,2.62856461409527351024,0.24480712,8.009203,2.594716,-1.7989942,9.292261,2.56668621409527351041,-0.66738373,7.065888,1.7381904,-1.7040637,9.327334,2.50347641409527351042,-1.8022354,7.419631,1.3401544,-1.612925,9.364784,2.42273881409527351061,-2.8868086,9.48882,1.5873557,-1.5060382,9.4103775,2.31236721409527351064,-3.7582982,12.58572,1.7884687,-1.3890591,9.458692,2.1849641409527351078,-3.4979286,16.06629,1.1378443,-1.2582449,9.502487,2.07121941409527351093,-3.5877113,18.915989,0.22385786,-1.1005964,9.541062,1.98171631409527351094,-3.3452983,19.608511,0.3561375,-0.92664135,9.574757,1.90676331409527351118,-3.9432502,19.608511,1.4772224,-0.7509181,9.600348,1.85467721409527351120,-5.094861,19.090168,2.1577742,-0.6051535,9.614693,1.83353721409527351123,-5.49589,16.709732,2.5785553,-0.51318336,9.618349,1.84239021409527351150,-5.398925,14.160506,2.813187,-0.4620135,9.611315,1.89197391409527351152,-4.8662148,11.140819,3.1681273,-0.43811828,9.597319,1.96720991409527351154,-4.9200845,7.902063,3.626617,-0.41581073,9.573581,2.0842331409527351183,-5.2504845,7.4016747,3.4985273,-0.40740567,9.543011,2.22156791409527351184,-4.2437224,9.48882,2.6120741,-0.4012791,9.516652,2.33295421409527351186,-2.7641058,10.199299,1.9686323,-0.35880768,9.507642,2.37621471409527351191,-1.7782934,9.144653,1.8010383,-0.2540585,9.517007,2.35210921409527351219,0.24899697,7.5788455,4.1814733,-0.11126626,9.53128,2.30493241409527351222,0.6943185,6.779781,4.1395745,0.048401445,9.534824,2.29241371409527351225,1.009156,5.9029045,3.1352072,0.20332229,9.528186,2.31143261409527351260,1.4820108,5.349245,2.307412,0.34058326,9.516071,2.3449491409527351264,1.7244238,4.976947,1.8243817,0.4533826,9.502602,2.38021251409527351266,1.6071079,4.7788267,1.4281414,0.5513035,9.488038,2.41734861409527351294,1.2749124,4.5819035,1.1869255,0.63395154,9.470786,2.4642851409527351295,0.9127894,4.197634,1.1803415,0.70195514,9.448842,2.52923421409527351297,0.45370123,3.8001966,1.2629414,0.7596654,9.421477,2.61325221409527351299,0.12749124,3.6481647,1.3138182,0.8107423,9.389462,2.711291409527351326,0.037708677,3.7792473,1.3826514,0.9469004,9.290917,2.99209211409527351327,0.08140286,3.9947255,1.489792,0.9469004,9.290917,2.99209211409527351329,0.29149407,4.38917,1.7483658,0.9469004,9.290917,2.99209211409527351345,0.5542577,4.957793,2.220622,0.9865584,9.265924,3.0560971409527351346,0.9211691,5.523423,2.7407625,1.0188185,9.247757,3.10022471409527351351,1.2485762,6.0926447,3.21661,1.0407298,9.2365265,3.12631561409527351380,1.5693992,6.6588736,4.0438066,1.0583285,9.228239,3.14482431409527351382,1.9967642,6.7863646,5.005677,1.0593425,9.224943,3.15414381409527351383,2.4199393,6.8743515,5.967548,1.0454607,9.224385,3.16039821409527351391,3.2381577,8.465299,6.547543,1.0155973,9.226115,3.16508321409527351411,3.9534256,9.854534,6.5361705,0.9726131,9.231875,3.16178771409527351421,4.284424,10.78109,6.6666546,0.9212552,9.243334,3.14363861409527351452,3.8911762,11.767501,7.059902,0.8702997,9.257015,3.11779761409527351455,3.6296098,15.786169,7.0168066,0.8247794,9.269566,3.0927791409527351457,3.1794999,18.343176,5.547964,0.8016137,9.280595,3.06567481409527351459,3.5655649,16.652271,3.8720226,0.81060827,9.289581,3.03594421409527351478,4.778228,14.610616,3.7720647,0.83992785,9.294768,3.01200461409527351479,5.6904187,10.972627,4.2999864,0.919485,9.282753,3.02579861409527351483,6.2859764,7.9553337,5.609016,1.0150688,9.24728,3.10287451409527351491,5.099051,6.1620765,10.904391,1.1248503,9.182907,3.2525891409527351525,1.0761937,9.235035,14.334085,1.2476822,9.08416,3.47731521409527351530,1.1073183,18.468273,7.317279,1.3249034,8.981841,3.70695881409527351532,-2.2936451,18.56045,4.1401734,1.3794742,8.961477,3.7362231409527351553,-5.979519,14.46876,2.8389246,1.3743285,8.988566,3.6725041409527351554,-6.0130377,13.049597,-0.040102877,1.3076302,9.0139265,3.6345051409527351556,-4.936844,11.468824,-0.5434838,1.2067671,9.028594,3.63298821409527351585,-4.7099934,9.795278,0.9187749,1.07303,9.033691,3.6621621409527351587,-4.3101616,9.79827,0.3429694,0.93431425,9.034555,3.69787171409527351588,-3.6463692,10.423157,-0.15861586,0.7961535,9.05152,3.68869951409527351592,-3.156755,10.362703,-0.3788824,0.6858605,9.080408,3.6395311409527351612,-2.598906,9.56304,0.27114335,0.5928268,9.107603,3.5875521409527351613,-1.6831238,8.117541,1.6310499,0.51172924,9.119823,3.56893831409527351623,-0.7092823,7.447763,2.5677812,0.44724718,9.118873,3.58001661409527351643,0.19153613,7.571663,2.6862943,0.39618427,9.122503,3.57677911409527351645,0.91338795,8.2593975,2.641403,0.35345668,9.143167,3.52816871409527351666,1.5227122,9.041702,2.9640217,0.31206426,9.17741,3.44211651409527351667,1.8423382,9.653421,2.9358897,0.26712465,9.212668,3.35049061409527351672,1.7124528,9.742605,2.5318682,0.21136376,9.243732,3.26789551409527351694,1.2318168,9.2787285,2.1990743,0.14269814,9.27309,3.18745141409527351695,0.5153519,8.653243,1.7118542,0.059613645,9.301887,3.10511521409527351705,0.10055647,8.126519,1.335366,-0.035654955,9.333071,3.0104641409527351727,-0.08259996,7.716512,1.1426327,-0.13260476,9.366447,2.90215161409527351728,-0.43514615,7.5866265,1.1438298,-0.2272727,9.398666,2.7899491409527351732,-0.8026561,7.8158712,1.2623428,-0.3185356,9.426294,2.68586971409527351743,-1.1593921,8.065467,1.2856863,-0.4070355,9.447228,2.5989611409527351759,-1.2838906,7.9834657,1.4293385,-0.49060908,9.460824,2.53426621409527351786,-1.5239093,8.200141,1.4395138,-0.56637377,9.466876,2.49557021409527351787,-1.2090719,7.911041,0.7691373,-0.63863885,9.466183,2.48070861409527351790,-0.97264445,7.5626845,0.3357868,-0.70702964,9.463033,2.47416951409527351792,-0.6769605,7.713519,0.21906945,-0.7769169,9.455386,2.48243261409527351815,0.13826515,8.565855,0.4890157,-0.84926665,9.446828,2.49130181409527351816,0.7589619,8.64666,0.95109665,-0.9198497,9.441301,2.4871841409527351823,1.7130513,9.449914,1.927931,-0.9910476,9.440426,2.4630431409527351843,2.36188,9.86471,2.7623103,-1.0646152,9.443973,2.4183371409527351844,2.6318262,9.558251,2.7234044,-1.1413095,9.447744,2.36810681409527351853,2.7551277,9.03871,2.6240451,-1.2198628,9.4470625,2.33137971409527351895,2.5276785,8.453327,2.96881,-1.2982311,9.437236,2.3288561409527351896,2.1733365,8.324639,3.5128925,-1.3758506,9.415327,2.37256741409527351898,1.5466543,8.091205,3.6182373,-1.4524736,9.383024,2.45348171409527351901,0.93373865,7.778163,3.2704794,-1.5368443,9.346086,2.54149251409527351905,1.0019734,7.33344,2.96881,-1.6295547,9.306898,2.6261351409527351939,1.1318588,6.7564373,2.8269536,-1.73103,9.26906,2.69415141409527351942,1.2467805,6.3907228,3.5344403,-1.8360403,9.234463,2.74299861409527351961,0.9983821,6.5565214,4.3718123,-1.9370625,9.20327,2.77813051409527351964,0.7733272,7.602189,3.9205053,-2.0274508,9.174518,2.8085711409527351998,1.4873978,9.980828,1.8375498,-2.1030936,9.150147,2.83234551409527352001,2.4863784,10.423756,1.638831,-2.1538224,9.137264,2.8358131409527352004,2.8508956,11.046248,2.4420857,-2.1876109,9.1314535,2.8286591409527352007,2.3558946,11.828553,3.0148985,-2.2104306,9.131969,2.80918381409527352012,1.2892777,12.491747,3.0083144,-2.226818,9.137384,2.77846961409527352014,0.59974754,12.849681,3.630807,-2.2447002,9.143593,2.74343421409527352038,-0.3477578,12.018892,4.772841,-2.2502337,9.151445,2.71254321409527352039,-0.90141696,10.801441,3.2716765,-2.2445772,9.160004,2.68822571409527352042,-0.4758476,9.802461,1.4580688,-2.2244542,9.17722,2.64590551409527352061,0.44472298,8.684368,2.4953568,-2.1740286,9.203069,2.59759711409527352063,0.3752911,7.1622543,3.0538042,-2.0869555,9.230968,2.56986781409527352065,-0.55365914,6.3979053,1.9913772,-1.9777821,9.265531,2.53154441409527352072,-1.9452889,6.8665705,1.5987282,-1.8510698,9.3167925,2.43747881409527352090,-3.3261447,9.024943,1.7100586,-1.7096821,9.378114,2.30182081409527352092,-3.6248214,12.488754,1.7256209,-1.5587941,9.436107,2.16805031409527352113,-3.7654808,15.938201,1.4383167,-1.4003409,9.488465,2.04413491409527352114,-2.9125464,19.308039,0.14903906,-1.2228509,9.532175,1.95260271409527352124,-2.942474,19.608511,0.14784196,-1.0231194,9.572506,1.86834991409527352144,-4.482544,19.608511,0.7158663,-0.8363595,9.602494,1.80637551409527352145,-5.8005524,14.915278,2.510919,-0.71441436,9.617404,1.77919651409527352154,-5.4138885,11.224017,3.1675289,-0.65638214,9.610913,1.83573521409527352187,-6.0046577,7.1939774,3.8271315,-0.62616605,9.588542,1.95913391409527352189,-6.461352,9.239224,4.1216183,-0.61557066,9.553088,2.12837361409527352192,-5.0224366,11.486182,3.028665,-0.62075573,9.51351,2.29743031409527352194,-3.352481,10.308235,1.6531962,-0.5935446,9.488061,2.4072431409527352223,-2.010531,8.470087,1.5035586,-0.5021075,9.486651,2.43345381409527352224,-1.0839748,7.6285253,2.7539306,-0.37992322,9.492818,2.4315531409527352225,-0.2160767,6.609792,4.076727,-0.2317326,9.501258,2.41718391409527352242,0.9020155,6.197391,4.8374844,-0.07153466,9.50036,2.43072581409527352259,1.5400703,6.125565,4.489128,0.09491766,9.48976,2.47099611409527352260,2.066196,6.007052,3.2716765,0.25600168,9.475719,2.51308851409527352273,2.1859062,5.659893,2.0907366,0.40148273,9.46433,2.5368661409527352274,1.8495208,5.0942626,1.3066356,0.52585524,9.456297,2.54407671409527352288,1.401805,4.698621,1.1599907,0.626666,9.447327,2.55454441409527352292,1.1905168,4.5058875,1.2808979,0.7099252,9.43211,2.58876441409527352307,0.95827925,4.162918,1.3210008,0.7877509,9.408834,2.65022181409527352323,0.7799112,4.045004,1.311424,0.86643565,9.381392,2.72197681409527352324,0.8619126,4.160524,1.4083891,0.94510007,9.350223,2.80187441409527352338,1.4215573,4.4035354,1.5837644,1.025266,9.317493,2.88158751409527352357,1.5490485,4.471172,1.7998412,1.1057832,9.284451,2.95746831409527352358,1.7980455,4.4699745,2.3038206,1.1807836,9.252631,3.02736881409527352372,2.0829554,4.6722846,3.0430303,1.2447119,9.22325,3.09075141409527352373,2.3876176,5.106832,3.9707835,1.2934375,9.197182,3.14789871409527352388,2.6408045,5.804742,5.005079,1.3245658,9.175257,3.19853141409527352396,2.7808652,6.3661823,5.9663506,1.336322,9.158223,3.24215671409527352430,3.1136594,6.8522053,6.6630635,1.3260127,9.147306,3.27702241409527352432,3.4997244,7.667431,7.117962,1.2921307,9.144783,3.29753521409527352435,3.843891,8.992621,6.7642183,1.2478005,9.14638,3.31015421409527352438,4.2922053,10.563218,5.6664767,1.182711,9.16151,3.29215741409527352464,4.0934863,11.442489,5.1385555,1.1078619,9.187807,3.2445691409527352465,3.13401,12.827534,5.856816,1.0349388,9.2135315,3.19533281409527352468,2.3373394,17.110163,5.57849,0.9736526,9.227503,3.17420551409527352473,1.8106151,17.539324,4.047398,0.9376604,9.2354145,3.1620081409527352488,2.3983915,15.86398,3.3716345,0.93988,9.23939,3.14971381409527352515,3.2136173,13.630789,4.336498,0.98503053,9.233521,3.15312721409527352517,3.942053,11.020511,6.571485,1.0594621,9.205021,3.21177861409527352519,1.3198037,8.5299425,13.249513,1.1611792,9.141338,3.35529181409527352525,-0.789488,19.608511,5.823297,1.2492032,9.035135,3.60225531409527352549,-5.783194,17.05749,4.3101616,1.3000144,8.986042,3.7055891409527352554,-8.428787,12.959215,1.3305776,1.297263,8.964004,3.75953911409527352555,-5.514445,11.146805,-0.34356794,1.2787573,8.966079,3.76093171409527352576,-3.110068,8.987235,1.9111716,1.2550138,8.974905,3.74785611409527352577,-4.006098,9.033921,2.8401217,1.2063433,8.968915,3.7780521409527352584,-4.7698483,9.539098,2.3780408,1.1054217,8.970303,3.80553651409527352612,-4.5842977,10.287885,1.4634558,0.9891075,8.993055,3.7837821409527352614,-3.6900635,11.092337,0.6799533,0.8840549,9.031311,3.7180991409527352616,-2.8856115,11.4377,0.47764325,0.7926196,9.071084,3.64109541409527352626,-1.9716251,11.034876,0.87807345,0.71045065,9.101978,3.5804511409527352645,-0.9151836,10.338163,1.483208,0.63084656,9.126273,3.53320841409527352647,0.27593175,9.785701,2.0572178,0.5565517,9.146929,3.49203971409527352653,1.1575965,9.936536,2.4432828,0.47699338,9.172234,3.43700361409527352699,1.6220716,10.300454,2.8000188,0.39078262,9.202641,3.36587121409527352703,1.7549498,10.404602,2.9245174,0.29641157,9.232414,3.29318121409527352706,1.6478093,9.797073,2.944868,0.19719972,9.256181,3.23336151409527352712,1.4047978,8.783728,3.0083144,0.09803346,9.271687,3.19321321409527352715,0.7194576,7.6267295,2.3888147,0.004548896,9.281664,3.16560941409527352748,0.51116204,6.7761893,1.9668367,-0.082710944,9.292483,3.13262271409527352750,0.16160862,6.4272346,1.5215151,-0.15808387,9.306956,3.08641741409527352754,0.02873042,6.1979895,0.8583213,-0.2231739,9.326332,3.02326371409527352755,-0.5710171,6.0585275,0.4973954,-0.28603646,9.348234,2.94942211409527352756,-1.7477672,6.7480574,1.0636241,-0.34911725,9.374285,2.8585451409527352776,-1.8118122,7.736264,1.5502456,-0.42760292,9.400211,2.76107761409527352777,-0.84096336,8.329428,1.1109096,-0.52651554,9.420338,2.6740241409527352786,-0.47644615,8.528745,0.44771573,-0.6295652,9.432956,2.6064151409527352806,-0.36631286,8.602965,-0.047884032,-0.7200246,9.440468,2.55529361409527352810,-0.272939,8.921992,0.33518824,-0.8011223,9.444498,2.51595851409527352827,-0.272939,8.911219,0.8026561,-0.8873361,9.443985,2.48880461409527352829,0.41120413,8.506598,1.316811,-0.98545337,9.439093,2.47039061409527352833,1.1306617,8.281544,1.54845,-1.0932624,9.431869,2.45255061409527352866,1.578976,8.05589,1.9524715,-1.2052097,9.425227,2.42548131409527352868,2.0913353,8.22528,2.1122844,-1.3135091,9.418028,2.39705091409527352870,2.429516,8.537125,2.046444,-1.4062716,9.411609,2.3694751409527352873,2.6264393,8.641871,2.0272903,-1.4778339,9.403753,2.35708381409527352898,2.417545,8.347982,2.5210943,-1.5343412,9.39019,2.37497621409527352900,1.3826514,7.8487916,3.4123359,-1.5892066,9.366263,2.43267821409527352905,0.84216046,7.629722,3.1172507,-1.654325,9.331874,2.51986811409527352929,0.79367787,7.0581064,2.8951883,-1.7297621,9.293294,2.61016961409527352931,0.9211691,6.6522894,2.9879637,-1.8161333,9.253319,2.69224331409527352933,0.74998367,6.857592,3.6655228,-1.9109874,9.214839,2.7577651409527352968,0.6757634,7.6614456,4.1772833,-2.0050554,9.181679,2.8012351409527352971,0.6314707,8.619126,3.4021606,-2.0886304,9.152671,2.83489581409527352973,0.7799112,9.788693,2.1978772,-2.163062,9.132085,2.84544681409527352977,1.3365631,10.629059,1.4371196,-2.2224166,9.119734,2.83931521409527353006,2.3732524,10.660782,1.673547,-2.2613797,9.115484,2.82214981409527353009,2.6072857,10.835558,2.7353754,-2.2815895,9.117366,2.79971391409527353014,1.83336,11.218032,3.4165258,-2.2885146,9.123391,2.77431771409527353030,0.7392098,11.610083,3.453636,-2.2881086,9.132535,2.7444051409527353031,0.14784196,11.927913,4.6160207,-2.2837157,9.144132,2.7092181409527353033,-0.79966336,11.253945,5.3438582,-2.2678854,9.156237,2.68149281409527353059,-1.4281414,10.460267,3.6092591,-2.243002,9.170158,2.65471861409527353061,-0.7284359,9.77373,2.131438,-2.1992977,9.195616,2.60271531409527353065,0.092775315,9.193734,2.2146366,-2.1409395,9.228525,2.5339891409527353073,-0.06943185,8.546701,2.1098902,-2.0420818,9.27069,2.46060921409527353087,-1.5340848,8.078036,1.411382,-1.9179655,9.32271,2.36196331409527353111,-2.4462755,9.333197,1.7741034,-1.7824348,9.383015,2.22538111409527353113,-2.633622,11.560403,2.1470003,-1.6330323,9.444037,2.07695461409527353115,-3.0705638,14.331093,2.1583729,-1.4618498,9.498811,1.95088641409527353145,-3.105878,18.09358,0.7068881,-1.2723317,9.54261,1.86819421409527353147,-3.2824504,19.608511,-0.019752163,-1.0661893,9.579496,1.80744841409527353149,-4.3544545,19.608511,0.7703344,-0.8654734,9.607503,1.76556891409527353154,-5.722142,18.675371,1.6998832,-0.70989996,9.623023,1.75038531409527353177,-6.233304,15.541961,2.5659857,-0.62696415,9.626463,1.76309941409527353179,-5.6257753,12.561179,2.9149406,-0.5650519,9.621783,1.8089761409527353185,-4.8494554,9.367314,3.1519666,-0.5338801,9.606891,1.89552281409527353214,-4.938041,6.041768,3.4231098,-0.5075101,9.581319,2.02759461409527353216,-4.71538,8.432379,3.067571,-0.482735,9.548191,2.18390151409527353218,-2.920926,9.894637,2.4157495,-0.454311,9.519056,2.3133451409527353242,-1.5101427,9.335591,2.0530279,-0.376154,9.507699,2.3733021409527353244,-0.31783026,8.376115,2.2529438,-0.23929143,9.513115,2.36933971409527353245,0.6895301,7.57286,3.2249897,-0.07098288,9.521839,2.34519241409527353254,1.7070658,8.102577,4.5860934,0.107236385,9.52345,2.33726331409527353281,1.7848774,7.368156,4.458602,0.28667554,9.514511,2.35845351409527353283,1.8381484,6.1141925,2.345719,0.44538522,9.5013895,2.38655331409527353286,1.3862427,5.3642087,1.7262194,0.5846273,9.488108,2.40923571409527353327,0.80086046,4.6710877,1.423353,0.69748425,9.474363,2.4331751409527353329,0.33039984,4.1258082,1.4927847,0.78410673,9.458275,2.46913221409527353331,0.074818805,3.875614,1.7399861,0.85188293,9.437859,2.52418731409527353332,0.11911154,4.063559,1.9327193,0.913052,9.412476,2.59654471409527353334,0.16101007,4.268862,2.0847511,0.97803855,9.3830595,2.67806241409527353360,0.40521863,4.44304,2.134431,1.0488601,9.35138,2.7607961409527353363,0.82899237,4.8620253,2.272696,1.1219621,9.319347,2.83925461409527353366,1.3431472,5.265448,2.677316,1.1921747,9.2884245,2.91106061409527353415,1.804031,5.607819,3.151368,1.2560982,9.25905,2.97701331409527353418,2.441487,6.0890536,3.8480806,1.3167988,9.230097,3.04002261409527353421,2.8682537,6.537368,4.687847,1.3609049,9.204894,3.09648781409527353426,3.2303767,6.6205664,5.501277,1.3845377,9.184958,3.14483121409527353429,3.3859997,6.7923503,5.9011087,1.3870281,9.170696,3.18510321409527353459,3.7511156,7.179612,5.9465985,1.3666083,9.163832,3.21355771409527353466,3.743933,7.854179,5.715558,1.325117,9.166104,3.2244361409527353467,3.8953662,8.610746,5.1876364,1.264555,9.178421,3.21370341409527353468,3.915717,8.990826,4.7506948,1.1953627,9.198759,3.18187711409527353469,3.8642416,13.451822,6.0507464,1.127003,9.222131,3.13887981409527353475,4.085107,16.212934,5.9005103,1.0720223,9.241351,3.10138321409527353493,3.4877534,16.156672,4.673482,1.0494515,9.253913,3.07150481409527353494,3.4799721,14.1186075,4.2131963,1.0365126,9.264274,3.04454681409527353525,4.257489,11.887212,4.88058,1.0749081,9.255889,3.05671261409527353526,3.1322143,9.946113,9.0554695,1.1532347,9.223,3.12677431409527353527,-1.395221,12.778453,12.021287,1.2436801,9.151874,3.29649141409527353533,-2.3235726,19.46127,6.067506,1.2916439,9.057297,3.53092581409527353554,-3.9989154,19.13506,3.7547069,1.3201138,9.013841,3.63020321409527353565,-6.469133,14.415488,2.9508536,1.3328559,9.005866,3.64530781409527353598,-5.961562,11.266515,1.0648212,1.3105425,9.004964,3.65561181409527353599,-3.945046,8.719084,1.7788919,1.2546321,8.993018,3.70431111409527353602,-3.551798,8.37372,1.9416976,1.1777748,8.957596,3.81375151409527353603,-3.9270895,9.292496,1.7106571,1.079725,8.925652,3.91629031409527353606,-3.6792896,10.239402,0.9708488,0.9763633,8.922585,3.95026611409527353620,-3.2638955,10.6715555,0.3429694,0.885382,8.94953,3.91055351409527353634,-2.9215245,10.592546,0.207697,0.80747306,8.987747,3.83911161409527353635,-2.4714148,9.968858,1.2671312,0.73853153,9.0230055,3.76966071409527353652,-1.5867572,9.586982,2.544438,0.6783723,9.049138,3.71796941409527353653,1.8171991,9.46847,3.3033998,0.62618333,9.072901,3.6688891409527353669,3.0346506,9.444528,2.8993783,0.59666824,9.100727,3.60432311409527353684,3.3315318,9.502586,2.393603,0.5675225,9.135526,3.52000881409527353687,2.9873652,9.185355,2.3511062,0.5260623,9.172416,3.4293511409527353702,2.4498668,8.875904,2.5929205,0.46647602,9.205721,3.3477581409527353706,1.8483237,8.690353,2.8209682,0.3909604,9.235158,3.27557371409527353719,1.3461399,8.628104,2.8658595,0.31075588,9.260494,3.21201631409527353735,1.0067618,8.0127945,2.3439236,0.23204796,9.283957,3.15034941409527353736,0.23762453,7.357382,1.8854338,0.16056839,9.306207,3.0885481409527353754,-1.0875661,7.345411,1.9243397,0.08943316,9.3252325,3.03355261409527353756,-1.417966,7.4962454,1.7010803,0.001442454,9.338721,2.9931041409527353775,-1.6502035,7.7039423,0.95827925,-0.10592421,9.346767,2.965991409527353776,-1.9476831,7.791331,0.7565677,-0.21774511,9.353646,2.93807461409527353785,-2.315193,7.675212,0.7685388,-0.31933326,9.361525,2.90349251409527353799,-2.1667526,7.1466923,0.82480246,-0.41691747,9.368632,2.86797931409527353806,-2.2559366,6.703765,0.760159,-0.51123965,9.3722925,2.84062551409527353817,-2.2481554,6.5020533,0.76554596,-0.602887,9.37325,2.81941561409527353835,-1.6454151,6.637326,0.7326257,-0.70015055,9.369729,2.80862361409527353836,-0.83976626,6.969521,0.85173726,-0.7939144,9.365014,2.79938981409527353854,2.1045034,8.457518,0.43514615,-0.87978494,9.363468,2.77881881409527353856,3.2435448,8.5778265,0.6218939,-0.94602185,9.370219,2.73394231409527353873,3.1148565,7.7889366,1.8902222,-1.009937,9.380098,2.67660241409527353886,2.8658595,7.715315,3.2022448,-1.086341,9.383405,2.63476371409527353887,2.3774424,7.8446016,3.8163576,-1.1687951,9.376476,2.62412051409527353903,1.6436194,7.9206176,3.887585,-1.2527376,9.360797,2.64131741409527353919,1.1965023,8.046912,3.539827,-1.3419837,9.339461,2.6728111409527353920,1.2144588,8.066066,2.7808652,-1.4439418,9.315183,2.704221409527353933,1.447295,7.881712,2.6372132,-1.5505266,9.289486,2.7334431409527353934,1.6627731,7.759608,3.369839,-1.6602305,9.263256,2.75791951409527353952,1.5029601,7.929596,3.9785647,-1.7635481,9.236348,2.78390721409527353954,1.1318588,8.403648,4.3622355,-1.8559734,9.209958,2.81112481409527353969,0.45429978,9.17099,3.7181952,-1.9322954,9.186698,2.83570311409527353986,0.14065935,10.283695,2.9921536,-1.99488,9.1687155,2.85052681409527353987,0.760159,11.133038,2.343325,-2.0425048,9.157238,2.85369751409527353999,1.7411832,11.481394,2.0757728,-2.0725243,9.154363,2.84124971409527354006,2.6060886,11.845911,2.508525,-2.085387,9.161123,2.80987481409527354019,2.4390929,12.115858,2.5905263,-2.0795012,9.176603,2.76333211409527354032,1.5167267,12.37503,2.6581624,-2.0695047,9.194526,2.7107631409527354034,1.359308,12.062587,3.8414967,-2.0515401,9.214833,2.6548841409527354049,1.0839748,11.512519,3.064578,-2.0143979,9.235801,2.61009451409527354055,1.0570401,10.506355,1.5634137,-1.9572798,9.262611,2.55802581409527354066,1.5879543,8.549096,1.9015948,-1.8766711,9.295896,2.49696021409527354081,0.95349085,6.3566055,2.0081367,-1.770502,9.329393,2.44910961409527354085,-0.50158525,5.286996,1.4089876,-1.647069,9.363237,2.4056881409527354100,-1.7280151,5.412093,1.3850456,-1.5067189,9.402624,2.34325391409527354121,-2.2188265,7.133524,1.7106571,-1.3537087,9.444886,2.2653951409527354122,-2.4941597,9.937134,2.777274,-1.1864867,9.483211,2.19803621409527354126,-3.2118216,13.924079,3.4165258,-1.0011406,9.511581,2.16746571409527354134,-2.5192988,18.09777,1.8674773,-0.8135631,9.531856,2.15690111409527354152,-1.2785037,19.607315,1.0073603,-0.60434407,9.549867,2.14597151409527354167,-1.7651252,19.36969,1.9243397,-0.37915692,9.565511,2.12782141409527354168,-3.4638114,17.688362,2.5659857,-0.19177681,9.57348,2.1170951409527354181,-4.172495,16.16565,2.349909,-0.07753508,9.576326,2.11148381409527354186,-4.2161894,14.13417,1.922544,-0.018128801,9.576493,2.11207031409527354199,-4.8494554,9.980229,2.1254525,0.012941022,9.571597,2.13419031409527354218,-5.575497,11.106103,3.0244753,0.030103317,9.559781,2.1863371409527354219,-3.4781766,11.885416,1.3976152,0.04251849,9.546946,2.24152761409527354232,-1.8698715,10.779893,1.578976,0.116678976,9.545581,2.24469761409527354234,-0.729633,9.979631,2.731784,0.2448476,9.547285,2.22705671409527354249,-0.57520694,8.334815,3.8121676,0.38922605,9.551821,2.18668941409527354265,-0.090979666,7.5387425,4.6399627,0.5368594,9.549899,2.16370081409527354266,0.6655881,6.7342906,4.63278,0.6758492,9.539332,2.17135431409527354282,1.5209166,6.2704144,4.1934443,0.8049567,9.524143,2.19388961409527354286,1.821389,6.1225724,3.7355533,0.92535573,9.507962,2.2164721409527354298,1.7232267,5.683835,3.1094694,1.0313702,9.491946,2.23821761409527354315,1.5825673,5.529409,2.7982233,1.119454,9.475078,2.26718241409527354316,1.246182,5.2199583,2.516306,1.1904799,9.45563,2.31175831409527354330,1.271321,4.923077,2.1799207,1.2480916,9.432938,2.37325931409527354334,1.42455,4.9440265,2.0841527,1.2997521,9.408051,2.44328261409527354348,1.5705963,5.0254292,1.9452889,1.3513875,9.382185,2.51371341409527354376,1.7292122,5.0493712,1.7699136,1.4012492,9.355498,2.58487271409527354377,1.590947,4.903325,1.6962919,1.4453025,9.328973,2.65551451409527354379,1.7310078,4.5112743,1.9153614,1.4763409,9.304232,2.72435071409527354387,1.9710265,4.288614,2.3451207,1.4923084,9.281492,2.79236751409527354409,2.1410148,4.076727,2.730587,1.4932307,9.260932,2.8593351409527354410,2.641403,4.23654,4.024653,1.4779052,9.243826,2.9219651409527354414,3.0424318,4.8506527,4.845266,1.4468523,9.2296915,2.98157641409527354432,3.2303767,5.852626,5.575497,1.3991116,9.221426,3.0295541409527354434,3.3195608,7.2370734,5.6922145,1.3329668,9.2221775,3.0569611409527354448,3.5577838,9.232041,5.4114943,1.251972,9.233867,3.0559251409527354464,3.8750155,10.624868,5.089474,1.1705096,9.250415,3.0381071409527354466,3.311181,11.623251,5.1846437,1.0919265,9.271236,3.0037121409527354481,2.6449943,15.309723,5.129577,1.0210992,9.288394,2.97548171409527354486,1.9919758,18.416199,4.1772833,0.9674086,9.29991,2.95739461409527354502,2.2732944,17.129915,2.4426842,0.9366582,9.310143,2.93501191409527354515,3.2501287,14.884153,2.1990743,0.9492328,9.317958,2.90603021409527354516,4.3688197,12.715007,3.7882257,1.0035603,9.315873,2.8944421409527354532,4.3275194,9.786898,7.2969284,1.0817056,9.29011,2.94859151409527354534,1.4030021,9.239823,13.9438305,1.1674271,9.230699,3.09866141409527354551,-0.28491,16.170439,9.970653,1.2344606,9.134172,3.34863851409527354567,0.0664391,19.579184,4.4125137,1.2809066,9.067755,3.5079191409527354568,-4.8267107,15.982493,3.727772,1.3308597,9.054865,3.52258831409527354584,-8.065467,13.248914,1.7555484,1.3168201,9.0603485,3.5137511409527354598,-7.5225816,11.869853,0.8936358,1.2304153,9.075315,3.50643921409527354599,-4.8344917,10.518925,0.908001,1.1134672,9.079198,3.53535651409527354614,-4.872799,10.212467,0.4165911,1.0008317,9.077079,3.57426451409527354615,-4.0599675,10.389638,0.19812019,0.8857739,9.091033,3.56916171409527354628,-2.9897594,10.809222,0.28431144,0.7873096,9.115657,3.52921151409527354634,-1.5705963,10.406996,0.8182184,0.7020367,9.13957,3.48508291409527354648,-0.33758244,9.583391,1.8938135,0.63086325,9.156106,3.45515821409527354674,0.5650316,8.948329,2.7688942,0.5671475,9.170036,3.42916321409527354676,1.1450269,8.652046,2.8832173,0.5097857,9.184794,3.3985381409527354678,1.6466122,9.330803,2.8167782,0.44974256,9.210368,3.33725331409527354707,1.917157,10.312426,2.9293058,0.38642386,9.244587,3.24941281409527354709,1.9656396,10.955269,2.6180596,0.3159734,9.280414,3.15348741409527354710,1.6460136,10.670957,2.1362264,0.23578262,9.313663,3.06112891409527354714,1.0582372,9.375694,1.9758149,0.14291999,9.342621,2.97748061409527354732,0.39923313,8.136695,1.9201498,0.038947716,9.364794,2.91024471409527354734,-0.040102877,7.183802,1.6418238,-0.07004556,9.380138,2.85980421409527354747,-0.24061728,6.4224463,1.3652935,-0.17566209,9.3912325,2.818561409527354763,-0.80564886,6.1219735,1.1845313,-0.27709538,9.400784,2.7782831409527354768,-1.7046716,6.2985463,1.1552023,-0.3800254,9.409739,2.7354711409527354779,-2.31639,6.7223196,1.471237,-0.48886773,9.417454,2.69128061409527354796,-1.7196354,7.620744,1.389834,-0.6018251,9.422649,2.64988471409527354797,-1.4407109,8.194754,1.2791022,-0.7046133,9.425981,2.61243271409527354817,-1.5161282,8.448539,0.85173726,-0.79031605,9.427362,2.58275581409527354819,-1.6077064,8.252214,0.43634325,-0.8659543,9.425774,2.56423451409527354837,-1.1546037,7.498041,0.39504328,-0.9438153,9.4190445,2.56148671409527354839,-0.5129577,7.7171106,0.9032126,-1.0292768,9.406473,2.574731409527354847,0.78410107,8.051701,1.3215994,-1.1194321,9.391067,2.59328771409527354870,1.9800048,8.224682,1.6424223,-1.2048554,9.3773985,2.60444331409527354871,2.508525,8.143278,2.1643584,-1.2790327,9.37019,2.59500341409527354875,3.4225113,8.145673,1.7806876,-1.3460345,9.366529,2.57424241409527354902,3.7163997,7.574057,1.7495629,-1.4000057,9.371377,2.52738481409527354904,3.4685998,6.7624226,2.2780828,-1.4442072,9.375382,2.4873391409527354907,3.0148985,6.136339,2.8341362,-1.488267,9.367972,2.4892851409527354915,2.818574,5.971139,3.4691982,-1.541692,9.34638,2.53747131409527354941,2.6755204,5.6425347,3.1262288,-1.6047701,9.317571,2.60345651409527354943,2.7832594,5.563526,2.7192147,-1.6817482,9.290359,2.65167051409527354949,2.778471,5.747281,2.9227216,-1.7691308,9.269349,2.66827821409527354967,2.2176294,6.625953,3.6864722,-1.860421,9.252869,2.66339331409527354969,0.2669535,9.093777,3.5811272,-1.9475112,9.236568,2.65770631409527354988,-0.8158242,10.840945,2.3523033,-2.0295393,9.218919,2.65761541409527354990,-1.0366893,11.903373,1.5143325,-2.1078825,9.203347,2.65058681409527354995,0.260968,11.785458,1.1845313,-2.170164,9.190499,2.64490251409527355015,1.7866731,11.645996,1.804031,-2.2117531,9.1799965,2.64692231409527355016,2.2996306,11.692682,2.8981812,-2.239694,9.173176,2.64707521409527355031,1.7980455,11.767501,3.3213563,-2.2644048,9.172489,2.62836891409527355035,1.074398,11.751341,3.2303767,-2.2869425,9.176995,2.59288071409527355047,0.46627077,11.856686,3.8881836,-2.2957215,9.184938,2.55674531409527355064,-0.16101007,11.058818,4.9188876,-2.2809052,9.19519,2.53305171409527355066,-1.3634979,10.687118,3.775656,-2.2439327,9.208896,2.5162281409527355080,-1.0977415,10.583569,2.4390929,-2.1892545,9.233828,2.47264621409527355095,-0.38067806,9.968259,2.1380222,-2.105318,9.2702,2.4086161409527355097,-0.6452374,8.585009,0.96665895,-2.0089233,9.308808,2.3410941409527355113,-1.4945804,7.2885485,0.061052144,-1.8939381,9.352598,2.26103731409527355115,-2.445677,6.9784994,0.059855044,-1.7705275,9.403038,2.14907151409527355129,-3.0998926,8.196549,0.5231331,-1.6343998,9.457059,2.01572661409527355135,-2.882619,11.032481,1.2467805,-1.474573,9.509565,1.8879041409527355147,-2.9861681,15.399506,2.3953989,-1.2821336,9.555094,1.79630631409527355173,-2.8089972,19.608511,1.8022354,-1.0651436,9.587741,1.76383161409527355174,-3.894169,19.608511,2.247557,-0.8382272,9.609959,1.76534711409527355176,-5.171476,18.072632,2.834735,-0.65290415,9.616701,1.80642331409527355205,-5.543774,15.148713,2.7491422,-0.54082084,9.610644,1.87440781409527355209,-4.9164934,12.500726,2.6426,-0.45638067,9.598738,1.95610281409527355211,-5.139154,9.225458,3.1729157,-0.4151796,9.578648,2.06095481409527355216,-5.856816,7.6644382,3.7355533,-0.40265492,9.5491,2.19612461409527355237,-5.7544637,10.004171,3.0334535,-0.41285512,9.514441,2.33994841409527355238,-4.0719385,11.218032,1.7316064,-0.4201406,9.486871,2.44808961409527355247,-2.682703,10.272921,1.1402385,-0.36931452,9.479051,2.48627881409527355265,-1.5071499,8.636484,1.6891093,-0.25249097,9.487402,2.46897911409527355266,-0.3585317,8.049306,3.1669302,-0.099787824,9.496536,2.44463561409527355280,0.29747957,7.4124484,4.1539397,0.06374168,9.496849,2.44462011409527355296,0.78050977,6.8450227,3.9354692,0.22518677,9.48768,2.47055051409527355297,1.3976152,6.491878,3.0819361,0.37491322,9.47447,2.50284891409527355314,1.8297687,5.6126075,2.1374235,0.51507646,9.460759,2.52964761409527355315,1.8142064,5.0679264,1.6591818,0.6369006,9.448154,2.5489481409527355329,1.6136919,4.6040497,1.6047137,0.7333363,9.434959,2.57180261409527355345,1.3138182,4.258686,1.7603368,0.8107003,9.417785,2.61122731409527355346,0.6242881,3.8792052,1.821389,0.87710416,9.394954,2.67131471409527355359,0.7930793,3.8175547,1.7423803,0.9362955,9.368349,2.74367761409527355366,1.2060791,3.8851907,1.751957,0.9930638,9.340446,2.81784961409527355379,1.6962919,4.123414,1.8555063,1.0488762,9.312694,2.88859681409527355397,2.1978772,4.4406457,2.1517887,1.1031348,9.285935,2.95379421409527355398,2.5210943,4.9158945,2.4426842,1.1531342,9.260347,3.0144061409527355425,2.52289,5.1996074,3.067571,1.1929698,9.236234,3.07232671409527355427,2.4899697,5.4432178,4.107253,1.2268511,9.213759,3.12599921409527355428,2.7018566,5.5898623,5.430648,1.2426417,9.194254,3.17678071409527355455,2.7575219,5.8628016,6.4140663,1.2430159,9.177705,3.22413231409527355456,3.019687,6.3901243,6.8492126,1.2288464,9.166903,3.26009751409527355457,3.1872811,7.2047515,6.607398,1.2021493,9.165837,3.27301741409527355468,3.8151605,8.652046,6.211158,1.1639327,9.177205,3.254931409527355489,3.9989154,10.304645,5.555745,1.1240062,9.197184,3.21229151409527355490,3.7708676,11.89619,5.6485205,1.0861719,9.2191725,3.16187451409527355495,3.5362358,15.60421,5.810129,1.0532534,9.230429,3.14010051409527355538,2.9364884,18.02834,4.9721584,1.0400058,9.224165,3.16284421409527355541,3.198055,16.452356,3.2632968,1.0315835,9.216262,3.18853781409527355544,3.4141316,14.416087,4.5896845,1.0650989,9.201264,3.22066711409527355547,3.008913,9.880272,8.969278,1.1196022,9.176424,3.27263281409527355550,-0.3321955,11.033679,13.053187,1.1776209,9.124318,3.39564631409527355567,-0.8499416,18.045696,7.3992805,1.2080749,9.040698,3.60232161409527355568,-2.0530279,17.891272,4.1252093,1.2373137,8.9923315,3.71179581409527355575,-6.167464,13.083714,3.2680852,1.2664309,8.974338,3.7453711409527355599,-6.777985,10.891822,0.5955577,1.2568948,8.971452,3.75548581409527355605,-4.924873,9.010578,1.4574703,1.2027253,8.988029,3.73352271409527355631,-3.9091327,9.3104515,2.8496985,1.1224011,8.997019,3.73688131409527355634,-4.1395745,10.694899,2.1505916,1.0095214,9.005566,3.74847411409527355636,-3.928885,11.510723,0.9103952,0.8911954,9.024173,3.73369651409527355658,-3.1824925,11.925519,-0.14604631,0.77312464,9.061893,3.66807221409527355660,-2.3349452,12.039842,-0.40402153,0.6712245,9.107681,3.5735151409527355662,-1.7705121,11.65677,-0.2160767,0.58524,9.14578,3.49035881409527355688,-1.0348936,10.684724,0.60333884,0.5126853,9.170452,3.43661791409527355690,-0.21906945,9.743802,1.3946224,0.44874257,9.186744,3.40187791409527355692,0.4333505,9.043498,2.0057425,0.38659284,9.204124,3.3622971409527355696,0.83258367,8.998009,2.2709002,0.31789604,9.225951,3.30925371409527355718,1.258153,9.475652,2.622848,0.23697819,9.251302,3.2446351409527355720,1.2354081,9.260174,2.789245,0.1491488,9.277466,3.17439821409527355727,0.7290344,8.291719,2.783858,0.058760963,9.301435,3.10648181409527355747,0.15861586,7.3885064,2.6312277,-0.038032793,9.321667,3.04556541409527355748,-0.24001873,6.7187285,2.2601264,-0.13314715,9.337974,2.9924791409527355772,-0.40641573,6.3458314,1.7351977,-0.22435178,9.352814,2.94022511409527355774,-0.5554548,6.0986304,1.1671734,-0.3055966,9.369231,2.88002091409527355776,-1.1569979,6.4062853,1.1180922,-0.37755272,9.388538,2.80769971409527355799,-1.7172412,7.314286,1.2904748,-0.44995072,9.409183,2.72675851409527355801,-1.6466122,8.358757,1.1426327,-0.533884,9.428145,2.64488961409527355820,-1.2198458,9.160215,1.2689269,-0.6233568,9.443684,2.56878471409527355822,-1.3575124,9.3738985,0.9032126,-0.70083714,9.4551325,2.50593331409527355828,-1.3557167,9.275137,0.52133745,-0.7699599,9.4614315,2.4614811409527355855,-1.0767922,8.889671,0.48961425,-0.83892524,9.464207,2.42804431409527355857,-0.60693014,8.379706,0.7068881,-0.915752,9.459367,2.41912871409527355859,-0.13946225,8.052897,1.2419921,-1.0023882,9.449126,2.42479181409527355887,0.5955577,7.9313917,1.6382325,-1.0984312,9.43671,2.43153171409527355889,0.8415619,7.644686,1.8046296,-1.1989787,9.425683,2.4267981409527355890,1.0582372,8.640076,2.1757307,-1.3001554,9.417544,2.40621191409527355896,1.7429788,8.941146,2.3983915,-1.3929782,9.411756,2.37673261409527355929,2.6372132,8.408437,2.8640637,-1.4686939,9.40493,2.3580981409527355931,2.2691047,8.2516165,3.3381157,-1.5303793,9.392217,2.36951071409527355935,1.6591818,8.180987,3.5685577,-1.5899609,9.371341,2.41254761409527355959,1.4610616,8.051102,3.0460231,-1.6546681,9.342091,2.48149011409527355960,1.441908,7.5614877,2.308609,-1.7258394,9.30954,2.55427891409527355962,1.6352397,6.8342485,2.1045034,-1.8039806,9.273513,