time,acc_x,acc_y,acc_z,gravity_x,gravity_y,gravity_z1409351059330,0.17357962,10.579977,-0.05925649,-0.14908625,9.787233,0.59852051409351059345,0.3549404,10.404602,0.17118542,-0.14815927,9.788121,0.58408991409351059371,0.37948096,10.529699,-0.18914193,-0.14576237,9.788446,0.57917551409351059373,0.2861071,10.466851,-0.11252748,-0.14198075,9.788836,0.573527631409351059374,0.23702596,10.28549,0.08259996,-0.14114688,9.789031,0.570381409351059398,0.27952304,10.149619,0.3489549,-0.14346991,9.788547,0.57807181409351059399,0.35434186,10.081385,0.4782418,-0.1469241,9.787442,0.59563081409351059403,0.2645593,10.016742,0.4297592,-0.15074074,9.786059,0.6170411409351059409,0.06284779,9.776124,0.29867667,-0.15741105,9.784609,0.637992141409351059426,-0.091578215,9.72824,0.3465607,-0.16695319,9.783171,0.65735071409351059451,-0.20051439,9.692925,0.29628247,-0.17823616,9.7816925,0.67612811409351059452,-0.17357962,9.651626,0.3369839,-0.19068335,9.780249,0.69338621409351059453,-0.17238252,9.566631,0.29029694,-0.20317575,9.77877,0.71047341409351059478,-0.28909984,9.470863,0.2124854,-0.21558206,9.777263,0.72735391409351059479,-0.46267948,9.375095,0.15682021,-0.2288671,9.775772,0.74316561409351059500,-0.52373165,9.303269,0.31663316,-0.24393973,9.774323,0.757288041409351059502,-0.48123455,9.350554,0.6745663,-0.259603,9.772851,0.77095231409351059504,-0.4381389,9.4295635,0.80684596,-0.27480295,9.77122,0.786216441409351059509,-0.4321534,9.49301,0.79726917,-0.2898616,9.769479,0.802292761409351059529,-0.46327803,9.501988,0.7966706,-0.30481035,9.767831,0.8166781409351059530,-0.44472298,9.440337,0.75596917,-0.3195733,9.76624,0.8299591409351059541,-0.39803603,9.4535055,0.8559271,-0.33304313,9.764892,0.84046291409351059566,-0.37828386,9.506777,0.9498995,-0.3442376,9.763776,0.84886171409351059569,-0.4249708,9.494206,0.91338795,-0.35357383,9.762824,0.855953631409351059571,-0.5566519,9.546281,0.98222125,-0.3630269,9.761971,0.86168711409351059603,-0.52852005,9.490017,0.9756372,-0.37419125,9.76121,0.86553991409351059605,-0.60812724,9.56723,1.079785,-0.38519737,9.76068,0.866689261409351059606,-0.53450555,9.694721,1.2551602,-0.39626044,9.760237,0.86668071409351059609,-0.46327803,9.718663,1.2485762,-0.40595785,9.759781,0.86733571409351059626,-0.38067806,9.725846,1.283292,-0.41414854,9.7594385,0.867325661409351059644,-0.33997664,9.758766,1.2755109,-0.42118675,9.759196,0.86665791409351059658,-0.3537433,9.824607,1.2282255,-0.4276897,9.759045,0.86516891409351059659,-0.3597288,9.840169,1.1150994,-0.4342061,9.759091,0.86138671409351059661,-0.3824737,9.767744,0.97743285,-0.44056767,9.7593565,0.855147661409351059677,-0.374094,9.715671,0.91458505,-0.4467631,9.759756,0.84733141409351059701,-0.38965634,9.746197,0.99299514,-0.4521405,9.760209,0.83921491409351059703,-0.40342298,9.741408,1.1264719,-0.4570327,9.760675,0.831102551409351059704,-0.43993455,9.797073,1.2000936,-0.46165094,9.76104,0.824241761409351059709,-0.4938041,9.861717,1.282095,-0.46590552,9.7612095,0.81983381409351059729,-0.49559975,9.92636,1.3269863,-0.4699656,9.761219,0.817389371409351059731,-0.51714754,9.89763,1.2689269,-0.47326127,9.761255,0.815051561409351059741,-0.5530606,9.8754835,1.1976994,-0.47612157,9.761353,0.812219561409351059764,-0.5710171,9.864111,1.1563994,-0.47806937,9.761522,0.80902051409351059766,-0.56203884,9.79827,1.1737574,-0.47918454,9.761788,0.80515961409351059770,-0.52133745,9.759365,1.1899183,-0.47896233,9.762068,0.80189181409351059795,-0.43754035,9.768343,1.1659763,-0.47731394,9.762291,0.80017061409351059797,-0.3585317,9.865308,1.1390414,-0.47434983,9.762512,0.799213651409351059801,-0.3842694,9.825804,1.1216835,-0.47048846,9.762805,0.79792131409351059810,-0.42676646,9.821614,1.1073183,-0.46663508,9.763108,0.79646681409351059826,-0.46327803,9.737218,1.0977415,-0.46259618,9.763391,0.795351409351059848,-0.45848963,9.7007065,1.079785,-0.45854038,9.763637,0.794690971409351059850,-0.44232875,9.731233,1.0714053,-0.45444658,9.763833,0.79463211409351059852,-0.47165772,9.706094,1.0600328,-0.4502039,9.764014,0.794812441409351059881,-0.3878607,9.832388,0.9935937,-0.44599065,9.764174,0.795242551409351059883,-0.37469256,9.801862,0.97862995,-0.44066048,9.76447,0.79457461409351059885,-0.3657143,9.762956,0.98222125,-0.43510765,9.764832,0.79317961409351059891,-0.35075054,9.69951,1.0067618,-0.42956877,9.765196,0.791706561409351059912,-0.38367084,9.542689,1.0145429,-0.42475215,9.765521,0.7902961409351059914,-0.21787235,9.675568,1.0223241,-0.42140785,9.765774,0.788956051409351059922,-0.24600422,9.567828,1.062427,-0.41631,9.766115,0.787474331409351059949,-0.22146365,9.562442,1.1192893,-0.41194934,9.766493,0.785067441409351059950,-0.18734628,9.545084,1.1192893,-0.4077311,9.766948,0.78158761409351059951,-0.11851298,9.52174,1.1115081,-0.40390497,9.767519,0.776403841409351059973,-0.0676362,9.516354,1.115698,-0.39997366,9.76817,0.770259561409351059974,-0.025737667,9.548675,1.115698,-0.3962824,9.768934,0.762410041409351059990,-0.05267244,9.584588,1.0690111,-0.39285713,9.769817,0.75280551409351059992,-0.05805939,9.602545,1.0295067,-0.39008376,9.770834,0.74097321409351060008,-0.16280572,9.60015,0.99778354,-0.3878611,9.771888,0.728130041409351060010,-0.28670564,9.521142,1.06123,-0.387052,9.772961,0.71401411409351060023,-0.3645172,9.427169,1.0600328,-0.3880811,9.774039,0.69851171409351060036,-0.39564183,9.53012,1.0049661,-0.38990867,9.775123,0.68215141409351060042,-0.41359833,9.640852,0.89603,-0.3921221,9.776317,0.663533871409351060057,-0.3842694,9.657013,0.80325466,-0.39464372,9.777676,0.641638341409351060071,-0.31304187,9.694721,0.60453594,-0.39705804,9.779065,0.618554651409351060072,-0.29029694,9.788095,0.3854665,-0.39917478,9.780559,0.593084751409351060093,-0.29747957,9.904813,0.30107087,-0.40124637,9.782133,0.565032961409351060094,-0.22924481,10.062231,0.41479546,-0.4033033,9.783703,0.5356461409351060102,-0.12330139,10.168175,0.50158525,-0.4044581,9.785173,0.50714161409351060110,-0.04249708,10.20289,0.43514615,-0.40496176,9.786499,0.480472271409351060125,0.04249708,10.167576,0.46208093,-0.40532133,9.78771,0.45478191409351060139,0.14305355,10.1143055,0.33399114,-0.4054106,9.788805,0.43050561409351060144,0.2100912,10.068815,0.14903906,-0.40540013,9.789811,0.40698291409351060166,0.28072014,9.995792,-0.016759412,-0.40510502,9.790825,0.38212261409351060168,0.44592008,9.877877,-0.16280572,-0.40505645,9.791816,0.35593161409351060171,0.516549,9.888652,-0.17477672,-0.4044549,9.792783,0.328970161409351060199,0.57520694,9.907805,-0.16101007,-0.40455678,9.7936325,0.3024651409351060200,0.57520694,9.921572,-0.12210429,-0.40589103,9.794359,0.27600671409351060202,0.55006784,9.936536,-0.12689269,-0.408526,9.794945,0.250115071409351060210,0.46208093,9.991004,-0.130484,-0.41238067,9.795411,0.224213531409351060224,0.3405752,10.030508,-0.10654198,-0.4173451,9.795744,0.199028431409351060237,0.23822308,10.014347,-0.130484,-0.42340842,9.795941,0.175040531409351060262,0.12928689,9.997588,-0.18555063,-0.43054911,9.796002,0.1527621409351060264,0.011372458,9.974244,-0.20530279,-0.4383281,9.795963,0.131766271409351060266,-0.05626374,9.968259,-0.15682021,-0.44693804,9.795817,0.112264751409351060271,-0.09636662,9.96347,-0.0724246,-0.4562826,9.795577,0.094143021409351060298,0.10594343,9.913192,-0.0676362,-0.46607885,9.795253,0.0786790851409351060300,0.12330139,9.8198185,-0.009576807,-0.47427347,9.794964,0.064382241409351060305,0.362123,9.791088,5.99E-04,-0.48267353,9.794633,0.0509187581409351060337,0.5470751,9.689933,0.004189853,-0.48999187,9.794329,0.0376776641409351060339,0.61890113,9.69951,0.11611878,-0.49596563,9.79407,0.0243554881409351060342,0.5967548,9.721656,0.14425065,-0.50226456,9.793773,0.0122320831409351060345,0.81343,9.805453,0.12210429,-0.50996476,9.793382,7.68E-041409351060371,0.78888947,9.873688,0.0664391,-0.51634085,9.793042,-0.010802561409351060374,0.7529764,9.877877,-0.029927522,-0.52357554,9.792641,-0.0214731951409351060376,0.66379243,9.9473095,-0.11911154,-0.5327926,9.792116,-0.031583521409351060402,0.6266823,9.982025,-0.19512744,-0.5430826,9.791512,-0.042052511409351060403,0.57879823,10.060435,-0.25917232,-0.5542929,9.790837,-0.0513941421409351060404,0.5722142,10.172364,-0.22924481,-0.5667147,9.790089,-0.0582528971409351060420,0.55006784,10.259753,-0.19512744,-0.5796504,9.789314,-0.0611631409351060424,0.46986207,10.238205,-0.23882163,-0.59332997,9.788497,-0.060641321409351060442,0.4165911,10.131064,-0.18255788,-0.60873204,9.787568,-0.0578910081409351060457,0.3477578,10.03769,-0.090979666,-0.6257483,9.786526,-0.0523062161409351060464,0.30406362,9.9790325,-0.031124622,-0.645285,9.785302,-0.0431189131409351060485,0.2621651,9.919776,-0.009576807,-0.66682607,9.783908,-0.029919821409351060487,0.2136825,9.831191,-0.024540568,-0.6897044,9.782357,-0.0131727351409351060489,0.12868834,9.816826,-0.025737667,-0.71369123,9.780646,0.0048427531409351060513,0.0712275,9.771336,-0.034715924,-0.7390013,9.778739,0.0228735561409351060514,0.02932897,9.670779,-0.10235212,-0.7662427,9.776587,0.0406835941409351060515,-0.05207389,9.594165,-0.11731588,-0.7952973,9.774175,0.0582900051409351060522,-0.19752164,9.513959,-0.1436521,-0.8266782,9.771448,0.076042121409351060545,-0.30645782,9.451111,-0.1400608,-0.86117846,9.768321,0.093014321409351060547,-0.24839842,9.3499565,-0.2765303,-0.8975581,9.764868,0.1102369061409351060551,-0.80445176,9.321824,-0.2184709,-0.93330175,9.761321,0.12622821409351060580,-0.7751228,9.377489,-0.2765303,-0.9721343,9.757324,0.141376761409351060582,-0.8319851,9.344569,-0.34835634,-1.011292,9.753144,0.154558881409351060584,-0.65541273,9.412206,-0.44891283,-1.050661,9.748797,0.165745531409351060592,-0.6584055,9.431957,-0.4782418,-1.0861284,9.74474,0.175441821409351060609,-0.55126494,9.524733,-0.39205053,-1.120522,9.740696,0.183528681409351060611,-0.5129577,9.561244,-0.36990416,-1.1526661,9.736815,0.190326961409351060622,-0.09995792,9.680955,-0.44651863,-1.1824862,9.733129,0.195724041409351060642,-0.17417817,9.771336,-0.42556936,-1.2060354,9.730159,0.199623511409351060659,-0.23463176,9.867104,-0.42197806,-1.2271222,9.727442,0.203535881409351060661,-0.35673606,9.925761,-0.40821138,-1.2474197,9.724768,0.207929341409351060664,-0.52133745,10.032304,-0.3890578,-1.2676275,9.722028,0.213838311409351060671,-0.66379243,10.102933,-0.3866636,-1.2876074,9.719227,0.221550821409351060690,-0.7350199,10.209475,-0.42437226,-1.3077093,9.716358,0.22950731409351060692,-0.7032967,10.298658,-0.55365914,-1.3278337,9.7134695,0.236074581409351060713,-0.6290765,10.369886,-0.6811504,-1.3468627,9.710745,0.240364521409351060715,-0.40641573,10.341156,-0.6955156,-1.363762,9.708381,0.240584841409351060746,-0.08020575,10.272921,-0.37229836,-1.3775635,9.706463,0.239369171409351060748,0.49320555,10.267534,-0.10235212,-1.3877715,9.70493,0.242464131409351060750,0.6063316,10.356119,0.095768064,-1.3924204,9.704057,0.250716331409351060752,0.53450555,10.515334,0.12389994,-1.3969179,9.703047,0.264401021409351060776,0.37349546,10.667964,0.13347675,-1.4039637,9.701581,0.2804311409351060778,0.19812019,10.778097,0.09756372,-1.4153645,9.69942,0.297294321409351060785,0.017357962,10.839748,-0.15981296,-1.4321289,9.696441,0.313749761409351060794,-0.08499416,10.822391,-0.25857377,-1.4550498,9.692594,0.326933771409351060818,-0.3429694,10.701483,-0.2908955,-1.4821886,9.688143,0.336754171409351060821,-0.50517654,10.638636,-0.08678981,-1.5129744,9.683106,0.344576241409351060824,0.31423897,10.6877165,0.1448492,-1.5448736,9.677794,0.35222721409351060849,-0.16879122,10.481815,0.43873745,-1.5647287,9.674314,0.360164021409351060851,-0.17657238,10.672752,0.83856916,-1.5819887,9.671178,0.36879651409351060852,-0.89423436,10.758346,1.3018472,-1.5916342,9.669251,0.377675681409351060877,-0.61650693,11.019912,1.4598645,-1.5976014,9.667834,0.388681651409351060878,-0.7344214,11.018715,1.453879,-1.586594,9.669215,0.399251521409351060883,-1.2455834,10.745776,1.7657237,-1.5634844,9.672738,0.405028221409351060894,-1.3245921,10.361506,1.3838485,-1.5361682,9.676973,0.40837421409351060928,-1.4077905,9.860519,0.6757634,-1.5007441,9.682901,0.399474921409351060931,-1.3293805,9.300875,-0.43275195,-1.4553874,9.690708,0.377408331409351060934,-1.003769,9.694122,-0.62847793,-1.4056919,9.699652,0.333457261409351060937,-0.8523358,10.614095,-0.52492875,-1.3441923,9.710017,0.281311409351060959,-0.55365914,11.892,-0.33159694,-1.271768,9.7210655,0.232140391409351060960,-0.27234045,12.842498,-0.3184288,-1.1868,9.732584,0.19677641409351060963,0.01616086,13.144766,-0.32202014,-1.0909805,9.74413,0.179113031409351060975,-0.6931214,13.015479,-0.26755205,-0.98561925,9.755405,0.176064481409351061004,-1.1653777,12.991537,0.076015905,-0.8860733,9.764804,0.183985751409351061005,-1.7112557,12.798803,0.6865373,-0.7942256,9.77221,0.20852141409351061007,-2.2798786,12.369643,1.2401965,-0.7126319,9.777302,0.2586651409351061029,-2.834735,11.8261595,1.4407109,-0.6406071,9.780016,0.333598761409351061032,-3.1705215,11.188704,1.2563573,-0.57689786,9.780863,0.415108741409351061033,-3.4368765,10.296863,0.8206126,-0.5186858,9.780418,0.494759951409351061065,-3.4284968,9.635465,0.33638534,-0.46441156,9.779824,0.55654291409351061066,-3.1914709,9.185953,-0.08140286,-0.4094185,9.779906,0.596828041409351061067,-2.706645,8.944139,-0.35314476,-0.34876704,9.780826,0.619833351409351061071,-2.2296004,8.798093,-0.43514615,-0.27780345,9.782209,0.633704251409351061094,-1.7902644,8.7849245,-0.28072014,-0.19783531,9.783355,0.645946741409351061095,-1.536479,8.567651,0.001795651,-0.11173932,9.783415,0.66533231409351061103,-0.9876082,7.9301944,0.7350199,-0.02417232,9.781807,0.697168051409351061131,-0.79008657,7.5890207,1.1935096,0.0661228,9.778151,0.7441921409351061134,-0.6871359,7.1987658,1.5424645,0.15363836,9.772587,0.80209311409351061137,-0.59974754,6.777985,1.6160861,0.23941024,9.765456,0.86541111409351061172,-0.30166942,6.497265,1.7423803,0.3183736,9.756997,0.93275371409351061177,-0.044292733,6.3380504,1.8620903,0.3932718,9.747566,1.00034181409351061180,0.1592144,6.381146,1.8363527,0.4660176,9.737537,1.06469881409351061183,0.29867667,6.591237,1.7184383,0.53890145,9.727326,1.12210421409351061202,0.4309563,6.7187285,1.5388732,0.6122275,9.717522,1.16847431409351061203,0.6123171,6.7863646,1.3587095,0.68638235,9.7086315,1.20073371409351061204,0.6835446,6.945579,1.3000516,0.7604944,9.700944,1.21808961409351061219,0.9044097,7.141904,1.2180501,0.8323495,9.694224,1.22458741409351061223,1.2354081,7.2909427,1.0791864,0.90025854,9.688126,1.22480451409351061244,1.5436616,7.375937,0.9427169,0.9671624,9.681995,1.22227951409351061246,1.8315643,7.426215,0.8170213,1.0280473,9.6763315,1.2174271409351061252,2.0069396,7.4627266,0.78888947,1.0788974,9.671209,1.214121409351061279,2.1392193,7.5231805,0.96905315,1.115463,9.666756,1.21653571409351061281,2.1751323,7.6800003,1.2204443,1.1361675,9.662935,1.22768211409351061283,2.285864,7.978079,1.5221137,1.1408863,9.6599655,1.24653781409351061316,2.433706,8.825027,2.1529858,1.1330135,9.657786,1.2703631409351061318,2.4193408,9.327211,2.3187842,1.1177355,9.655867,1.29818281409351061321,2.291251,9.810242,2.4863784,1.0984962,9.654423,1.32508021409351061350,2.0500352,9.916783,2.5366566,1.0794517,9.652882,1.35168091409351061353,1.7651252,9.973047,2.5462334,1.0644351,9.651157,1.37569891409351061358,1.8716671,10.324396,2.315193,1.0534528,9.649523,1.3954761409351061361,2.046444,10.676943,1.977012,1.0556873,9.647901,1.40496271409351061392,2.0350714,10.895413,1.8908207,1.0753987,9.646324,1.40084141409351061395,1.8818425,11.724405,1.8166006,1.1105788,9.644265,1.38749311409351061397,1.9183542,12.293627,1.6017209,1.1584916,9.641757,1.36557951409351061412,2.7012582,11.751341,1.5969325,1.2194797,9.638308,1.3365181409351061413,3.8379054,11.017518,2.112883,1.2976238,9.631483,1.31190491409351061414,4.8853683,10.47164,2.879626,1.3912029,9.619358,1.30495291409351061424,5.027225,10.544662,4.4286747,1.4947296,9.602155,1.31711151409351061441,4.455011,13.10167,5.940613,1.5972011,9.581196,1.34907571409351061446,3.9121256,16.350004,4.8141413,1.6894878,9.558154,1.3991841409351061452,2.7659016,17.874512,1.3976152,1.7664623,9.53901,1.43432971409351061478,0.11611878,16.557102,0.2645593,1.8176782,9.531977,1.41698421409351061480,-2.5306711,14.241909,-0.4405331,1.8271756,9.536098,1.37647241409351061497,-3.4883518,12.379818,0.48841715,1.7938241,9.547525,1.34065271409351061528,-3.555988,11.434708,1.3994108,1.7311754,9.557123,1.35455061409351061530,-3.5583823,11.079168,1.5376761,1.648011,9.563993,1.40872781409351061532,-3.0921116,10.48002,1.0696096,1.5534947,9.571363,1.46493651409351061534,-2.4073699,9.515755,0.95827925,1.4632713,9.580278,1.49916921409351061536,-1.9482816,8.71669,0.997185,1.3821903,9.589221,1.51881221409351061558,-1.4634558,8.453327,0.7332243,1.3078831,9.5978365,1.53015821409351061559,-0.81402856,8.429984,0.55725044,1.2391759,9.606269,1.53441831409351061564,-0.4189853,8.43178,0.6266823,1.1705319,9.616,1.52734521409351061572,0.07182605,8.476072,0.50876784,1.098286,9.627759,1.50680111409351061587,-0.17896658,8.823232,0.30107087,1.0230029,9.641261,1.47308121409351061610,-0.29029694,9.416395,0.3669114,0.939716,9.655967,1.43165491409351061613,-0.24600422,9.759963,0.5650316,0.8505821,9.669976,1.39228391409351061614,-0.24600422,9.78989,0.47225627,0.76038766,9.68204,1.36025291409351061648,-0.40701428,9.654019,0.31603462,0.67188776,9.692667,1.33084241409351061650,-0.7134721,9.494805,0.19512744,0.5839572,9.702914,1.29724261409351061652,-1.1216835,9.413403,0.16579847,0.49690104,9.713164,1.25614581409351061654,-1.3335704,9.348759,0.18195933,0.4106924,9.723075,1.20977091409351061674,-1.2593501,9.25359,0.025139118,0.32603264,9.731967,1.16314551409351061676,-1.1450269,8.889671,-0.18255788,0.24810655,9.739475,1.11869281409351061686,-1.1665748,8.672996,-0.32321724,0.17813802,9.74533,1.08038131409351061706,-1.2282255,8.511387,-0.22685061,0.115089655,9.749609,1.04989171409351061707,-1.3485341,8.242638,-0.24959552,0.059301518,9.752266,1.029651409351061720,-1.5580268,7.763199,-0.2765303,0.007961243,9.753672,1.01796141409351061736,-1.6891093,7.5531077,-0.23523031,-0.04481936,9.754626,1.00780361409351061737,-1.6226702,7.7470384,-0.24181437,-0.104180336,9.756061,0.98936411409351061759,-1.3263878,7.9876556,-0.30885202,-0.17083317,9.7582035,0.9584791409351061761,-0.91099375,8.178593,-0.32680854,-0.24156146,9.760615,0.917824271409351061764,-0.39264908,8.444349,-0.33997664,-0.31286937,9.762465,0.87568621409351061774,0.19812019,9.150639,-0.19991584,-0.38143688,9.763489,0.83617141409351061794,0.46088383,9.247604,0.17597382,-0.44443512,9.763335,0.80631981409351061796,0.6919243,8.959702,0.4878186,-0.50247145,9.76158,0.793396061409351061819,0.81283146,8.6813755,0.6548142,-0.55703515,9.758163,0.79897941409351061820,0.6362591,8.30369,0.80086046,-0.6091982,9.753422,0.818548861409351061836,0.44651863,8.207323,0.7918822,-0.66072506,9.747581,0.847653271409351061837,0.23283611,8.372523,0.7146692,-0.71517265,9.740705,0.88179511409351061853,0.11552023,8.70831,0.5153519,-0.7740891,9.733183,0.91452461409351061854,0.61171854,9.198523,0.06943185,-0.8351992,9.725575,0.94127081409351061868,0.9768343,9.355942,0.27234045,-0.89092153,9.718652,0.96149921409351061873,1.2785037,9.72824,0.62608373,-0.9417637,9.711655,0.983491841409351061887,1.2042835,10.222044,1.1773487,-0.9832118,9.704572,1.01240431409351061901,1.0013748,10.647614,1.7417817,-1.0166918,9.696724,1.05369071409351061903,0.6679823,10.556035,1.8525136,-1.0434495,9.687581,1.11012481409351061915,0.01436521,10.28549,1.7842789,-1.069153,9.676832,1.1773831409351061934,-0.19033903,10.086772,1.5466543,-1.1008247,9.664327,1.24874521409351061935,0.17417817,9.807847,0.961272,-1.137279,9.651107,1.31648831409351061948,0.5243302,9.3583355,0.75118077,-1.1725948,9.639078,1.37243381409351061952,1.115698,9.233837,0.79726917,-1.2056489,9.628927,1.41442161409351061965,1.1773487,9.427768,0.92775315,-1.2313623,9.62154,1.44226441409351061992,1.0378864,9.570822,0.93493575,-1.2493482,9.616224,1.46209941409351061993,0.95827925,9.749788,0.91219085,-1.2638036,9.611754,1.47897881409351061995,1.0642227,10.105926,1.0390835,-1.2674667,9.609405,1.49106221409351062004,1.1294646,10.490194,1.4119805,-1.2553961,9.610362,1.49510651409351062027,1.2683283,10.813412,2.1745336,-1.2263384,9.614761,1.49093031409351062029,1.2252327,10.976816,2.4947581,-1.1790222,9.622151,1.4813911409351062032,0.97862995,10.745177,2.380435,-1.1138854,9.632472,1.46463241409351062057,-0.62608373,9.837775,1.7417817,-1.0349834,9.645109,1.43912431409351062059,-1.5873557,9.122507,0.57640404,-0.96364385,9.65857,1.3977841409351062064,-3.0358477,8.480263,-0.55844754,-0.8996852,9.6735525,1.33541551409351062096,-5.0062757,8.136695,-1.0911574,-0.84671944,9.689466,1.25207481409351062098,-5.0427876,8.994417,-1.5412674,-0.8094769,9.704481,1.1567931409351062100,-5.689222,10.8182,-1.6352397,-0.7713077,9.72005,1.04696271409351062107,-5.5258174,13.8738,-1.0462662,-0.7321537,9.734492,0.93488881409351062127,-4.561553,16.79772,-0.6171055,-0.6786003,9.746766,0.84288371409351062129,-2.9747956,18.088194,-0.84694886,-0.6002153,9.756772,0.78454541409351062133,-3.1160536,17.266384,-0.9576807,-0.48800707,9.765834,0.74883571409351062155,-4.19943,15.563508,-0.51116204,-0.3810624,9.772475,0.723822361409351062157,-4.0360255,13.791201,0.5722142,-0.31043455,9.775471,0.7170781409351062166,-3.2692823,12.463615,1.8608932,-0.2622014,9.774802,0.74491081409351062186,-3.7223852,10.979809,3.0400376,-0.21733306,9.771271,0.80339771409351062189,-4.3646297,10.547057,4.080917,-0.180698,9.766032,0.87312461409351062204,-4.0276456,10.986393,4.5124717,-0.15121157,9.7596035,0.94744821409351062205,-2.9017725,10.323798,4.0503907,-0.11306371,9.7537,1.01141851409351062222,-1.8477252,9.224859,3.2680852,-0.04276479,9.750313,1.04878271409351062224,-1.204882,8.189965,2.5360582,0.05313114,9.749792,1.05314621409351062232,0.8002619,8.779537,1.9883845,0.15752742,9.750841,1.0327881409351062260,1.09834,9.004593,1.7064673,0.27338102,9.751709,0.999924061409351062262,1.2120646,8.690952,1.0696096,0.3909856,9.751473,0.96243691409351062265,1.0444705,7.603985,0.5057751,0.5020715,9.750208,0.92290121409351062293,1.1043255,7.1490865,0.45130703,0.5962722,9.748193,0.88746871409351062296,1.2743138,7.101202,0.39624038,0.67526186,9.744858,0.86728991409351062298,1.0714053,6.7546415,0.46567222,0.7471826,9.7394495,0.869036561409351062307,1.1797429,6.6295447,0.6548142,0.81503004,9.732781,0.882662831409351062340,1.3742718,6.4583592,0.8984242,0.8773719,9.724439,0.91426931409351062345,1.423353,6.2045736,1.1785458,0.9348425,9.714918,0.9575121409351062346,1.3808558,6.0519433,1.4413095,0.9880543,9.7046,1.00740311409351062347,1.2174516,5.971139,1.5173253,1.0341754,9.6942625,1.05931661409351062353,1.1312603,5.869984,1.489792,1.0705302,9.684825,1.10839621409351062366,1.0827777,5.878962,1.5460558,1.0954875,9.6773205,1.14880621409351062381,1.0259154,5.9202623,1.7040731,1.1097854,9.672292,1.17710421409351062389,1.0528502,6.0740895,1.839944,1.1147197,9.669837,1.192491409351062419,1.1552023,6.379949,1.9877859,1.111773,9.669725,1.19614221409351062425,1.2755109,6.730101,1.9740193,1.1027924,9.670941,1.19461381409351062428,1.423353,7.221511,1.9249382,1.0914612,9.6736765,1.1828291409351062457,1.7561469,8.26239,1.7328035,1.0729947,9.678188,1.16263881409351062459,2.223615,8.917803,1.4036007,1.0488447,9.684041,1.13562331409351062460,2.4408886,9.481039,1.6633717,1.0207443,9.6905985,1.10489341409351062461,2.508525,9.785701,2.2134395,0.98792064,9.696646,1.08142321409351062466,1.8764555,9.77792,2.8820202,0.952433,9.700813,1.07585361409351062489,1.436521,10.479421,2.9137435,0.9114748,9.703149,1.09018961409351062498,0.4177882,12.393585,2.7874494,0.86917293,9.704711,1.11064311409351062500,-0.10115502,13.665504,1.6472107,0.82181853,9.707106,1.12565661409351062551,0.5374983,13.911509,0.50397944,0.7823187,9.711205,1.11843591409351062552,1.5777789,13.4608,-0.0664391,0.7618151,9.71564,1.09377351409351062555,2.669535,12.558785,0.0676362,0.78721464,9.71745,1.05918981409351062556,3.7882257,11.095329,0.8475474,0.85693485,9.713599,1.04022561409351062557,5.1319714,9.824008,2.2547395,0.95970076,9.702259,1.05619921409351062559,6.666056,9.336788,4.3065705,1.0943519,9.6820345,1.10950621409351062576,6.8204823,9.534908,6.0681043,1.2673832,9.651257,1.19053021409351062577,5.54138,11.823765,7.6614456,1.4512411,9.614447,1.27542471409351062587,3.8786068,15.652692,7.2286935,1.6019003,9.578918,1.3596451409351062602,2.9352913,17.799093,4.2437224,1.6938682,9.551636,1.43786791409351062622,0.1945289,16.523582,-0.74758947,1.7401485,9.538013,1.4726111409351062624,-3.1519666,14.905103,-2.2768857,1.7351977,9.54629,1.42401391409351062626,-3.7523127,14.366407,-1.6226702,1.6838442,9.565247,1.35688281409351062633,-4.6740804,12.711415,-0.7733272,1.6024637,9.58666,1.30325631409351062655,-4.8021703,11.105505,-0.50876784,1.4920678,9.605331,1.29682161409351062656,-4.220978,9.911396,-0.2753332,1.3669661,9.621299,1.31620451409351062664,-3.5685577,8.97646,0.19692309,1.2457799,9.635059,1.33569631409351062687,-2.7748797,8.258201,0.54049104,1.1384972,9.645752,1.35413861409351062689,-2.15957,7.9313917,0.66498953,1.0512836,9.653496,1.36939441409351062704,-1.3449428,8.033744,0.84814596,0.9791399,9.660571,1.37296581409351062707,-0.29747957,8.192958,1.0959458,0.91183996,9.668632,1.36253561409351062713,0.27593175,8.439561,1.2126632,0.8431144,9.678,1.34008671409351062734,0.30047232,8.866327,1.1875241,0.76912314,9.687717,1.3141491409351062735,0.20350714,9.557653,1.1540052,0.6903029,9.698214,1.28004911409351062759,-0.06584055,9.927557,0.95109665,0.6026063,9.708719,1.24419581409351062761,-0.44711718,9.737817,0.6781576,0.5080137,9.718395,1.21041821409351062767,-0.8798691,9.46009,0.39264908,0.4086205,9.727176,1.17705451409351062788,-1.0875661,9.272144,0.025737667,0.30509266,9.735841,1.13609551409351062790,-1.2000936,8.977059,-0.3286042,0.2015996,9.744694,1.08198581409351062794,-1.7280151,8.701726,-0.5955577,0.101821356,9.753188,1.01752511409351062826,-1.9847932,8.655638,-0.46686932,0.005318272,9.760338,0.95193561409351062828,-2.0326772,8.839992,-0.2705448,-0.08694323,9.765141,0.8971341409351062831,-1.8339585,8.959103,-0.18914193,-0.1737483,9.767316,0.86007771409351062833,-1.6741456,8.957307,-0.14604631,-0.25508535,9.767933,0.83234791409351062858,-1.7244238,8.887277,0.016759412,-0.32394117,9.766832,0.82123631409351062862,-1.5915456,8.634089,-0.11312603,-0.38387224,9.764382,0.82453441409351062866,-1.4682442,8.370728,-0.41000703,-0.44157016,9.761178,0.833550451409351062904,-1.5358804,8.343194,-0.41599256,-0.5061449,9.758039,0.8336071409351062908,-1.2557588,8.34499,-0.3669114,-0.5836497,9.754948,0.81899091409351062911,-0.7302315,8.379107,-0.42437226,-0.6711226,9.751375,0.79415311409351062947,0.010175358,8.505402,-0.39683893,-0.7603489,9.747219,0.76417741409351062948,0.7308301,8.5778265,-0.11252748,-0.84170413,9.742755,0.735303341409351062949,1.1988965,8.522759,0.33997664,-0.9072858,9.738145,0.718173151409351062950,1.4796166,8.495226,0.8050503,-0.9576495,9.733035,0.722013061409351062952,1.532289,8.367735,1.1258733,-1.0003444,9.727385,0.740062061409351062965,1.4544775,8.179192,1.3090298,-1.0365627,9.720428,0.780498271409351062966,1.3120226,8.1163435,1.3485341,-1.0708127,9.712239,0.83435421409351062984,1.1617863,8.161235,1.240795,-1.1070095,9.703192,0.890492441409351062986,1.0390835,8.316259,0.59256494,-1.1469429,9.693808,0.940751851409351063007,1.1528081,8.495825,0.38187516,-1.1918164,9.684656,0.9784661409351063009,1.4269443,8.802881,0.36272156,-1.2390877,9.675773,1.00722291409351063013,1.5969325,9.142858,0.61291564,-1.2847248,9.667281,1.03129211409351063033,1.6831238,9.315839,1.0708067,-1.3260611,9.6589575,1.0566561409351063035,1.3503298,9.354146,1.7172412,-1.3642697,9.649846,1.09070681409351063056,0.7392098,9.427768,2.0763714,-1.4038864,9.63922,1.13354461409351063057,-0.026934769,9.4062195,2.094328,-1.4468913,9.626446,1.18676731409351063069,-0.3298013,9.366715,1.7058687,-1.4945698,9.611964,1.24371081409351063088,-0.26036942,9.1829605,1.2324153,-1.5439703,9.597182,1.29639551409351063090,0.29927522,9.4457245,0.96905315,-1.5921143,9.583417,1.33929511409351063095,1.0007763,10.1699705,1.122282,-1.6331503,9.572295,1.36907941409351063122,1.5334862,10.7912655,1.4383167,-1.6609117,9.564792,1.3879981409351063124,1.5125369,11.118672,1.5376761,-1.6721917,9.560397,1.40462161409351063127,1.323395,11.255741,1.6053122,-1.6710857,9.558086,1.42156181409351063133,1.4856021,11.343728,2.1296425,-1.6598727,9.5580225,1.43507171409351063153,1.4335283,11.160571,2.9586349,-1.6344275,9.560898,1.44508581409351063154,1.3467385,10.735002,3.095703,-1.603191,9.564219,1.45804631409351063165,1.1653777,10.316615,2.8502972,-1.559968,9.570933,1.46087091409351063180,0.44232875,10.469246,2.4253263,-1.5019414,9.582222,1.44761431409351063203,-0.39025488,10.142437,1.2060791,-1.4335892,9.597863,1.41288161409351063205,-1.6873137,9.283517,-0.4165911,-1.36462,9.617223,1.34804451409351063207,-3.3883939,8.690353,-1.6807296,-1.3038987,9.638906,1.24969271409351063215,-5.171476,8.829816,-2.1511903,-1.2536211,9.661541,1.11957721409351063237,-5.6898203,10.108918,-2.099715,-1.2138242,9.682897,0.96877371409351063239,-6.485294,12.442068,-2.0488381,-1.1683315,9.702306,0.81892741409351063247,-6.3685765,15.531186,-2.1045034,-1.11626,9.718303,0.692050341409351063266,-4.5483847,18.382082,-2.2655134,-1.047707,9.732149,0.59830131409351063267,-3.1794999,19.450495,-1.9033904,-0.94521797,9.747251,0.517753541409351063283,-4.042011,18.303074,-0.87567925,-0.81069636,9.761917,0.467034461409351063285,-4.160524,15.543756,0.2813187,-0.69797,9.770966,0.459844831409351063302,-3.1914709,12.585121,1.4808137,-0.6124623,9.774515,0.50410371409351063306,-3.1866825,9.897031,2.7443538,-0.5384614,9.774044,0.5903441409351063313,-4.283227,9.603742,3.98874,-0.4748489,9.770231,0.698205771409351063338,-4.0521865,11.049241,4.1491513,-0.42601582,9.763973,0.80852541409351063339,-2.6862943,10.963648,3.590704,-0.36397907,9.758832,0.89615741409351063346,-1.5837644,9.493608,3.0220811,-0.26076832,9.758038,0.93974551409351063375,-0.92775315,7.8356237,2.2768857,-0.12924992,9.760131,0.945273461409351063377,1.287482,8.450335,1.7705121,0.00712956,9.762092,0.93376351409351063379,1.5286977,8.221688,1.2743138,0.15765645,9.763168,0.908897041409351063407,1.7399861,8.021174,0.83378077,0.3056095,9.762246,0.88064521409351063408,2.3822308,8.2593975,0.2681506,0.44392517,9.759376,0.853165271409351063410,2.2254105,7.597999,0.010773907,0.57177246,9.754799,0.829085351409351063414,1.8016368,6.741473,0.024540568,0.68585855,9.74832,0.818682851409351063434,1.5652094,6.1106014,0.30406362,0.7813524,9.740192,0.82979421409351063436,1.3934253,5.8909335,0.7673417,0.8589493,9.7306385,0.864463031409351063445,1.371279,5.693412,1.1498153,0.9267197,9.719343,0.919757541409351063465,1.2575544,5.510854,1.4718355,0.99060273,9.706372,0.987638531409351063480,1.2395979,5.385158,1.6729485,1.0485666,9.692676,1.0596991409351063512,1.1599907,5.3282957,1.7226281,1.1026013,9.678434,1.13250671409351063516,1.0253168,5.3743844,1.7178397,1.1491271,9.664862,1.20013991409351063519,0.94810385,5.5030727,1.7753005,1.1883913,9.652683,1.25850311409351063522,0.961272,5.746084,1.7980455,1.2204618,9.642539,1.30472141409351063525,0.9828198,5.9717374,1.6873137,1.2455626,9.634909,1.336971409351063546,1.1468226,6.1782374,1.5089456,1.2633519,9.63026,1.35367441409351063547,1.4012065,6.535572,1.4682442,1.2728812,9.628967,1.35393981409351063549,1.70946,6.8581905,1.5185224,1.2738265,9.6306925,1.34072591409351063562,2.3427265,7.6734166,1.7609353,1.2643895,9.634705,1.32067291409351063565,2.5893292,8.528745,1.9512744,1.2447925,9.640188,1.29910151409351063580,2.8892028,9.5971575,2.1721394,1.2117661,9.647279,1.27750231409351063600,2.6431987,10.5285015,2.8275523,1.1762745,9.654382,1.25685751409351063601,2.384625,11.377845,3.6176388,1.1275154,9.661788,1.244571409351063607,2.010531,11.442489,4.2491093,1.0703491,9.668208,1.24518731409351063613,0.93613285,11.014524,4.2718544,1.0093038,9.673327,1.25636481409351063629,-0.83737206,13.791201,3.9893386,0.9442045,9.678443,1.26751791409351063633,-1.525705,15.270219,1.905186,0.8609676,9.684636,1.27943521409351063651,-0.7080852,14.274829,-0.7278373,0.781531,9.692649,1.26970841409351063654,1.4862007,13.146562,-1.934515,0.7504485,9.700324,1.22919151409351063666,3.8115692,11.471219,-1.4490906,0.7865481,9.703021,1.18453471409351063688,4.5723267,9.370307,1.228824,0.87813425,9.695565,1.18121951409351063690,4.6255975,9.783307,6.6480994,0.9876415,9.679768,1.22353341409351063694,4.471172,14.083293,9.620501,1.1249429,9.648542,1.34555611409351063720,4.080917,18.865711,6.1387334,1.28947,9.6033,1.51139451409351063722,2.3540988,19.48581,2.1990743,1.4541937,9.56688,1.59076611409351063726,-1.0648212,16.104,0.94211835,1.574767,9.551739,1.5667771409351063753,-2.5540147,11.572972,-0.4225766,1.625674,9.549373,1.528751409351063755,-1.5179238,9.884461,0.6003461,1.6353799,9.548608,1.52316841409351063757,-1.210269,9.861717,0.92535895,1.6234679,9.545304,1.55625211409351063785,-1.7178397,8.722076,0.9995792,1.483874,9.557798,1.61771191409351063787,-2.146402,8.134899,1.1294646,1.483874,9.557798,1.61771191409351063789,-2.132635,8.363545,1.5185224,1.483874,9.557798,1.61771191409351063794,-1.5837644,8.970475,1.4544775,1.428011,9.568094,1.60709491409351063818,-0.8822633,9.209297,0.7553706,1.3747047,9.580465,1.57963691409351063819,-0.050876785,9.378088,-0.010773907,1.3296026,9.5950575,1.52886441409351063828,0.6063316,9.530719,-0.48243165,1.2840794,9.6126375,1.45558391409351063850,0.5979519,10.125079,-0.4878186,1.2302792,9.633089,1.36396861409351063853,0.26874915,11.655573,0.009576807,1.1659245,9.654949,1.26213121409351063870,0.022146367,12.140997,0.1376666,1.0847602,9.676671,1.16435831409351063873,-0.2136825,11.123461,-0.38367084,0.9885035,9.696129,1.08551411409351063875,-0.86729956,10.508151,-0.5363012,0.88169754,9.713581,1.0194861409351063901,-1.3718776,10.633248,-0.1436521,0.7660946,9.73009,0.953342851409351063902,-1.5454572,10.105926,-0.05566519,0.6482876,9.744744,0.88886171409351063906,-1.6783354,8.92319,-0.08559271,0.5343062,9.756793,0.83062191409351063914,-1.965041,8.127118,-0.13227965,0.43200114,9.76541,0.787718361409351063927,-2.0799627,7.8757267,0.015562311,0.34121543,9.7713,0.75871821409351063953,-1.5759833,8.462306,-0.1328782,0.2620442,9.775227,0.73937111409351063955,-1.1893197,9.387066,0.01616086,0.2012369,9.777795,0.724317251409351063957,-0.83617496,9.892841,0.22445641,0.15811858,9.77931,0.71449891409351063986,-0.8583213,9.28232,0.20829555,0.123809025,9.779625,0.71692451409351063988,-0.9876082,8.533533,-0.24839842,0.08304792,9.778449,0.73852941409351063990,-0.92057055,8.637681,-0.664391,0.026818933,9.776932,0.762428941409351063996,-0.95468795,8.857349,-0.89603,-0.04746534,9.777064,0.75972991409351064013,-1.2000936,9.375095,-0.7697359,-0.12998977,9.777923,0.7387391409351064014,-1.0546459,9.759365,-0.5177461,-0.22900344,9.779459,0.692916871409351064028,-0.5746084,9.361927,-0.4417302,-0.33702973,9.779517,0.64642061409351064044,0.34835634,8.994417,-0.17357962,-0.44337615,9.777046,0.61901851409351064045,1.2982559,8.95611,0.25318682,-0.53517145,9.772579,0.61699441409351064060,1.9446903,8.885481,0.5674258,-0.6052351,9.767113,0.63845121409351064066,2.2272062,8.432379,0.75596917,-0.6552508,9.760843,0.68335451409351064079,2.3122003,8.029554,1.0289081,-0.6957051,9.753131,0.750210941409351064097,1.9877859,7.836222,1.3221979,-0.7328317,9.743686,0.83302381409351064099,1.5520413,7.867945,1.435324,-0.77212125,9.732826,0.91996241409351064113,1.1246762,8.026561,1.3245921,-0.8161703,9.721461,0.998722141409351064115,0.89662856,8.314464,0.694917,-0.86484456,9.709699,1.06968151409351064126,1.2324153,8.546701,0.76434886,-0.9164199,9.698757,1.12458831409351064144,1.4401124,8.829816,1.2228385,-0.9669709,9.688246,1.17187641409351064161,1.3856442,8.9363575,2.1158757,-1.0134113,9.677554,1.21997831409351064163,1.2521675,8.762778,2.3822308,-1.0565895,9.665086,1.28067311409351064175,0.91817635,8.531737,2.2774844,-1.0996674,9.650413,1.35302021409351064176,0.65242,8.58022,2.088941,-1.1475496,9.633898,1.42882071409351064191,0.8355764,8.754997,1.7351977,-1.1985226,9.617445,1.49622881409351064194,1.073201,8.777742,1.30484,-1.246561,9.602822,1.54993181409351064209,1.6065093,9.041702,1.0953473,-1.2885294,9.59097,1.58851731409351064214,1.9117701,9.762358,1.3545196,-1.3212823,9.581522,1.61835351409351064227,1.9111716,10.317812,1.6065093,-1.3468316,9.575247,1.6343471409351064247,1.5993267,10.487801,1.6897079,-1.3658514,9.571128,1.64267391409351064249,1.1959038,10.414179,1.6124948,-1.383941,9.567507,1.6486111409351064267,0.92296475,10.386645,1.7082629,-1.4014703,9.564999,1.64835761409351064269,0.6691794,10.301651,2.2876596,-1.4122989,9.565601,1.63556481409351064275,0.45848963,10.120889,2.4450784,-1.4107877,9.569669,1.61292331409351064302,0.6015432,9.753379,2.1374235,-1.3907865,9.577449,1.58384811409351064303,0.7260417,9.51755,2.256535,-1.3480624,9.589464,1.54767781409351064306,-0.12808979,9.588778,1.5490485,-1.2886455,9.605175,1.50013141409351064314,-1.6837224,9.148843,0.53809685,-1.2267627,9.62425,1.42802051409351064330,-3.3345244,8.637083,-0.24241292,-1.1764596,9.643401,1.33834661409351064343,-4.431069,8.467094,-0.9564836,-1.1309601,9.663254,1.22997981409351064346,-5.0266266,9.260174,-1.4981717,-1.0897146,9.682989,1.10574221409351064360,-5.5527525,11.36348,-1.6035166,-1.0491714,9.702184,0.96812341409351064378,-5.8783636,14.568119,-1.4407109,-1.0081578,9.719312,0.83006271409351064379,-5.170877,17.863138,-1.8920178,-0.9622866,9.733347,0.71158081409351064397,-3.0651767,19.528904,-2.7712884,-0.8958556,9.746367,0.61329821409351064398,-3.8708255,19.057846,-2.4384944,-0.78434706,9.761196,0.523661261409351064410,-4.2299557,17.20593,-1.0468647,-0.68608725,9.771625,0.463671481409351064414,-3.7475243,14.578294,0.5602432,-0.6121598,9.776422,0.466103521409351064426,-3.1106665,11.747749,2.1547816,-0.5532064,9.776475,0.53374641409351064444,-2.469619,9.734824,3.6373909,-0.49165103,9.773932,0.63160141409351064447,-2.7036524,9.102157,4.5842977,-0.43329212,9.7684965,0.74776311409351064460,-3.2932243,9.109339,4.9039235,-0.37794712,9.761758,0.85768791409351064476,-3.0508115,10.115502,4.7483006,-0.3227694,9.755938,0.94228161409351064477,-2.3959973,9.825205,4.0336313,-0.25375643,9.752493,0.997442541409351064494,-1.678934,8.699332,3.180697,-0.16020335,9.752434,1.01724231409351064495,0.3405752,8.120534,1.8303672,-0.04778251,9.755144,1.00263761409351064509,1.0552444,9.242816,1.3431472,0.0826686,9.759027,0.961763561409351064515,1.7603368,9.713276,0.5470751,0.21785368,9.761531,0.914024061409351064528,1.4742297,9.127894,0.016759412,0.35085982,9.761901,0.867513061409351064542,1.4862007,8.505402,-0.15502456,0.4684354,9.760698,0.82446131409351064546,1.5502456,7.821857,-0.15801731,0.5764516,9.7571335,0.797773361409351064559,1.3581109,7.4112515,0.22565351,0.66807204,9.751659,0.793246571409351064577,1.4173675,6.9252286,0.61770403,0.7484562,9.744188,0.81301961409351064578,1.4622587,6.701969,1.1121067,0.82140625,9.73475,0.85460461409351064594,1.5957354,6.6720414,1.5867572,0.8872988,9.723663,0.91294611409351064596,1.5735891,6.4882865,1.7806876,0.94745296,9.71142,0.980320451409351064610,1.5658079,6.4511766,1.8459295,0.9990839,9.699193,1.04780531409351064627,1.3940239,6.282984,1.9135658,1.0396557,9.687969,1.11029571409351064628,1.055843,6.0681043,2.1033063,1.0672543,9.678523,1.16513231409351064642,0.9175778,5.920861,2.100912,1.0821354,9.671168,1.21156371409351064646,0.96665895,5.8502316,1.9219455,1.0916202,9.664936,1.25211641409351064657,0.99778354,5.9388175,1.6699557,1.0937566,9.661311,1.27794741409351064674,1.0576386,6.077681,1.483208,1.0901793,9.660693,1.28565571409351064675,1.2503718,6.2620344,1.401805,1.0807899,9.662747,1.278131409351064694,1.8429368,6.95755,1.9075803,1.0659924,9.666692,1.26060251409351064696,2.142212,7.482479,2.094328,1.0478101,9.671178,1.24129241409351064719,2.468422,8.226477,2.3038206,1.0234694,9.676213,1.22219871409351064721,2.9083564,9.129689,2.2272062,0.991961,9.68176,1.20413581409351064726,2.7341783,9.885659,2.4768016,0.9553236,9.687716,1.18570861409351064754,2.7341783,10.300454,2.6623523,0.91017115,9.693801,1.17140221409351064756,2.3469162,10.057443,2.8616695,0.86180365,9.699089,1.16420281409351064758,1.2844892,10.093356,3.1974564,0.81212056,9.703819,1.1604931409351064783,-0.41000703,12.310986,3.3770216,0.7590566,9.707827,1.16289991409351064786,-0.90740246,13.627197,1.7603368,0.695267,9.711766,1.16986571409351064788,-0.14784196,13.543401,1.7603368,0.63948816,9.716751,1.16025271409351064795,1.6561891,13.391369,-0.6781576,0.6249124,9.71957,1.14447531409351064812,3.5224693,12.558187,-0.60693014,0.6686575,9.721492,1.10268511409351064826,5.424064,10.496181,0.43754035,0.75898606,9.717034,1.08331241409351064828,5.8424506,9.052477,3.3680432,0.88127434,9.704385,1.1039241409351064846,6.2542534,9.975441,6.6026096,1.020906,9.683291,1.16704651409351064848,5.5347958,13.929465,8.605359,1.1856208,9.652923,1.25928341409351064868,4.9003325,18.055273,6.4008985,1.3503681,9.615583,1.37384051409351064870,-0.18734628,17.775751,2.4319103,1.4897417,9.584402,1.44579211409351064875,-2.3630772,11.535264,0.5907693,1.5283061,9.575343,1.46542681409351064901,-2.5881321,10.685322,-0.79966336,1.5385891,9.570774,1.48438641409351064902,-2.2319946,11.04146,0.60693014,1.5247333,9.570665,1.49931281409351064906,-2.067393,11.212646,1.2156559,1.4931737,9.570941,1.52903321409351064931,-2.3654714,10.766725,0.32202014,1.4473869,9.572532,1.56271781409351064932,-2.5342624,9.866506,-0.08259996,1.3858001,9.578906,1.57941031409351064949,-2.131438,9.654019,0.27952304,1.3129607,9.589109,1.57971911409351064951,-1.5729905,9.859323,0.47884035,1.2396767,9.599836,1.57376021409351064955,-1.3144168,9.57561,0.06584055,1.175137,9.610203,1.55995381409351064984,-0.88944596,9.150639,-0.26755205,1.1182731,9.62093,1.53544681409351064987,-0.022146367,9.032125,-0.39504328,1.0633407,9.634033,1.49167841409351064989,0.47465047,9.304466,-0.260968,1.0056672,9.648884,1.43459671409351064995,0.350152,9.719262,0.12210429,0.9416912,9.663556,1.37815241409351065016,0.093373865,10.055647,0.6703765,0.8702512,9.676405,1.33426151409351065018,-0.23044191,9.980229,0.6877344,0.79213893,9.686877,1.30664441409351065027,-0.6147113,9.709685,0.5177461,0.70781636,9.696514,1.28335671409351065053,-1.0360907,9.622296,0.49919105,0.6160698,9.707157,1.24977891409351065055,-1.3802572,9.600749,0.4249708,0.5183905,9.718856,1.20229411409351065057,-1.6166847,9.025542,-0.110133275,0.41889054,9.730563,1.14501971409351065082,-1.6956934,8.614338,-0.33877954,0.3254805,9.741149,1.08371681409351065084,-1.6711528,8.281544,-0.38606504,0.23731072,9.750234,1.02324621409351065087,-1.472434,8.202535,-0.3513491,0.16018005,9.757274,0.969713331409351065095,-1.3066356,8.354567,-0.10175357,0.0962456,9.7623625,0.92596951409351065111,-1.3515269,8.462905,0.16519992,0.045780577,9.76572,0.893875961409351065130,-1.2641385,8.2593975,0.30825347,0.003533435,9.767585,0.874457841409351065133,-1.1174936,7.81647,0.2765303,-0.036718752,9.7678175,0.871082661409351065136,-0.8924387,7.6129627,0.001795651,-0.08054844,9.766912,0.878251431409351065157,-0.79846627,7.900267,-0.10654198,-0.13195714,9.766346,0.878328741409351065159,-0.729633,8.412027,-0.06584055,-0.19670635,9.766828,0.860699531409351065174,-0.65780693,8.315661,-0.15562311,-0.27701524,9.767478,0.830678341409351065176,0.027533319,8.798093,-0.091578215,-0.36402354,9.76724,0.79933011409351065193,0.88286185,9.030331,-0.1945289,-0.45396087,9.765506,0.77409111409351065195,1.5346833,8.911219,5.99E-04,-0.5338934,9.762565,0.760052861409351065209,2.0817583,9.006389,0.36631286,-0.5970445,9.758898,0.760145661409351065225,2.441487,9.193734,0.7565677,-0.64120656,9.754719,0.77762521409351065242,2.3834279,9.273342,1.1150994,-0.670161,9.749458,0.81813671409351065244,2.1559787,9.290101,1.3455414,-0.6955242,9.742178,0.8812381409351065258,1.7645266,8.99741,1.0672154,-0.7239691,9.733194,0.95456611409351065259,1.6801311,9.157223,0.8487445,-0.758781,9.723634,1.02253641409351065275,1.8668787,9.467871,0.80564886,-0.7954691,9.7145405,1.07950031409351065277,2.2002714,9.8916445,1.0247183,-0.8296102,9.706086,1.12872211409351065291,2.4211364,10.172963,1.4203602,-0.8581242,9.697897,1.17679381409351065295,2.3708582,10.129868,1.721431,-0.8789028,9.689553,1.22901061409351065307,2.2319946,9.870096,2.3038206,-0.8981019,9.680024,1.28877311409351065322,1.95307,9.461287,2.6551697,-0.92180336,9.668222,1.35872971409351065327,1.4161704,9.030331,2.3894134,-0.9530429,9.654542,1.43245091409351065341,0.7793127,8.854357,2.2469583,-0.9925527,9.640409,1.49924271409351065358,0.6817489,8.738237,1.9590555,-1.0378946,9.626865,1.5545581409351065359,0.9044097,8.614338,1.3437457,-1.0837499,9.614621,1.59841911409351065371,1.323395,8.968081,1.0977415,-1.1264944,9.604864,1.62726441409351065375,1.555034,9.586384,1.067814,-1.1624,9.598804,1.63773071409351065389,1.395221,10.16578,1.0708067,-1.1904975,9.595297,1.63810661409351065395,0.943914,10.608109,1.0181342,-1.2158327,9.594436,1.62447391409351065411,0.5835867,10.997167,1.0139444,-1.2386817,9.595456,1.60102191409351065422,0.37349546,11.199477,1.264737,-1.2592084,9.59808,1.56896081409351065427,0.11731588,10.992977,1.3192052,-1.274799,9.602278,1.53021121409351065439,0.49440265,10.237606,0.6302736,-1.283865,9.60802,1.48593971409351065456,1.0229226,10.269928,1.3138182,-1.2765228,9.616997,1.43326851409351065457,1.0540473,10.55005,1.9668367,-1.247695,9.628366,1.3813791409351065472,0.3728969,10.92175,1.4879963,-1.2050278,9.641172,1.32894791409351065475,-0.51834464,10.967838,0.6290765,-1.1585926,9.655248,1.26658381409351065490,-1.863886,10.421362,0.05267244,-1.1106796,9.670392,1.19176971409351065497,-2.8622682,9.606734,-0.1933318,-1.0708462,9.684743,1.10879471409351065511,-3.6565444,8.704121,-0.52133745,-1.0277709,9.699785,1.01401821409351065524,-3.679888,8.392276,-0.97862995,-0.97814584,9.715984,0.90181121409351065529,-4.396951,9.428965,-1.0289081,-0.91328174,9.732991,0.777944741409351065542,-4.882974,12.34211,-0.3369839,-0.8392544,9.748497,0.65791821409351065559,-3.912724,16.287155,0.599149,-0.7623861,9.760654,0.564623361409351065560,-2.6473885,19.178154,0.7038953,-0.6658757,9.770378,0.516468941409351065575,-2.779668,19.510948,0.031124622,-0.54535717,9.778445,0.504975441409351065576,-3.0478187,17.663822,-0.3764882,-0.43962535,9.783627,0.50771611409351065595,-3.016694,14.326304,-0.19931729,-0.36773807,9.785574,0.526942971409351065596,-2.6485856,10.869676,0.94451255,-0.32415184,9.7843,0.57688551409351065609,-1.9405005,8.516175,2.3199813,-0.2844948,9.780904,0.65068331409351065625,-3.0855274,7.657854,3.6601357,-0.24887703,9.775163,0.74474931409351065627,-2.8018146,11.299435,4.1461587,-0.2160871,9.768283,0.839237631409351065638,-1.4490906,10.207081,3.1681273,-0.16550383,9.762147,0.91842781409351065658,0.015562311,9.713276,2.2427685,-0.069927886,9.760316,0.94961409351065659,0.9720459,9.088988,1.4670471,0.058639035,9.761741,0.93561511409351065674,1.086369,8.728063,0.7140707,0.1989357,9.763732,0.894606951409351065676,1.9422961,9.168595,-0.049081136,0.33055738,9.764634,0.844420431409351065690,1.7046716,8.696938,-0.5602432,0.4530508,9.763856,0.795154451409351065696,1.8842367,8.3868885,-0.729633,0.56083965,9.7614565,0.75487031409351065710,1.365892,7.61835,-0.42317516,0.65506023,9.758024,0.72266211409351065724,1.4383167,6.84203,0.17238252,0.7377341,9.752571,0.71656951409351065727,1.6298528,6.4128695,0.7739257,0.8065104,9.7451315,0.743192141409351065739,1.8046296,6.125565,1.2180501,0.868244,9.735439,0.798609141409351065758,1.8662802,5.898116,1.5047557,0.9288071,9.72342,0.87339721409351065760,1.9189527,5.6736593,1.6585833,0.98833424,9.709463,0.959132131409351065777,1.9141643,5.5659204,1.7052702,1.0447756,9.694345,1.04809611409351065778,1.8477252,5.580884,1.8273745,1.0961326,9.679034,1.13365911409351065796,1.5634137,5.4366336,1.8860323,1.1409851,9.664535,1.21051381409351065797,1.2419921,5.2157683,1.9883845,1.1784475,9.652026,1.2728071409351065807,1.3132197,5.253477,1.2509704,1.2080172,9.642576,1.31598821409351065822,1.4095862,5.837064,0.9923966,1.2351682,9.635162,1.34476761409351065828,1.4550761,6.0477533,1.1384429,1.2548957,9.631588,1.35209291409351065840,1.6346412,6.3003416,1.6238673,1.2646574,9.631433,1.34408141409351065863,1.8022354,6.687604,2.2732944,1.262876,9.633452,1.33121811409351065874,1.8393455,7.3525934,2.7449522,1.2493773,9.636604,1.32109821409351065879,2.3953989,8.507197,2.6437972,1.2232677,9.64106,1.31300221409351065881,2.6755204,9.765948,2.6683378,1.1888435,9.6469555,1.30127241409351065910,2.9203274,10.878056,2.6539726,1.1494412,9.653694,1.28661381409351065916,3.41473,11.841722,2.5791538,1.1085435,9.660353,1.27244061409351065925,3.7696705,12.548011,3.080739,1.075149,9.665784,1.25979891409351065941,2.8329391,14.188638,4.2634745,1.0551801,9.667983,1.25979391409351065943,1.3581109,15.146917,3.8097734,1.0304097,9.667939,1.28047491409351065944,1.1653777,14.982914,1.8668787,1.0024153,9.667199,1.30796961409351065958,1.893215,14.411897,0.6817489,0.99529403,9.667211,1.31331571409351065959,3.0071173,13.165116,0.7505822,1.0178874,9.665083,1.31166161409351065974,4.233547,11.521497,2.1380222,1.066782,9.656386,1.33662211409351065976,4.0539823,11.890204,6.2500634,1.1431698,9.638374,1.40188871409351065996,2.7982233,15.592837,8.061277,1.2381712,9.608668,1.52014061409351065997,-0.39923313,17.778145,0.94930094,1.3290582,9.573122,1.66112661409351066008,-2.9885623,13.356652,0.55605334,1.3756125,9.562351,1.68509331409351066022,-2.3008277,9.870695,-0.109534726,1.392402,9.555982,1.70728471409351066027,-0.9343372,8.526949,0.22565351,1.3953605,9.549331,1.74173641409351066038,-0.6314707,7.7290816,2.2523453,1.3949507,9.53644,1.81130161409351066064,-1.002572,7.203554,3.103484,1.3708907,9.520666,1.90996421409351066066,-1.7417817,7.6931686,1.9812019,1.3283193,9.510043,1.99124561409351066069,-2.0721815,8.441357,1.3425486,1.2715001,9.51358,2.01133561409351066079,-2.1284454,8.7771435,1.3760674,1.2098081,9.529353,1.97437731409351066098,-1.8405426,8.982447,1.471237,1.1541041,9.548931,1.91216221409351066099,-1.050456,9.314043,0.8242039,1.1081218,9.56796,1.84298841409351066107,0.003591303,9.824008,-0.15023616,1.0680059,9.587823,1.76165031409351066124,1.1133038,10.540473,-0.760159,1.0248586,9.61085,1.65879981409351066150,1.5945383,11.2928505,-1.0935516,0.97585183,9.635792,1.53935441409351066152,1.2318168,11.764508,-1.2856863,0.9213978,9.659959,1.41655041409351066154,0.58119243,11.081563,-1.3245921,0.8537012,9.681726,1.3060511409351066156,0.12868834,10.043676,-0.95708215,0.76950324,9.698838,1.22914621409351066179,-0.27114335,9.5809965,-0.41120413,0.67288774,9.711546,1.18471409351066181,-0.55605334,9.749788,0.2825158,0.56581664,9.722118,1.15354871409351066190,-1.0893618,9.568427,0.97862995,0.4524687,9.73159,1.12332051409351066212,-1.1815386,8.884883,0.7811083,0.3365217,9.7393675,1.09631431409351066213,-1.2743138,8.179192,0.45250413,0.2265359,9.745397,1.07066021409351066216,-1.0600328,7.6387005,0.17537527,0.12197323,9.750013,1.04535091409351066249,-0.8738836,7.562086,0.16639702,0.024958154,9.753475,1.01954871409351066252,-1.0672154,7.915829,0.2908955,-0.06068017,9.755735,0.996157651409351066254,-1.2467805,8.124723,0.5446809,-0.1402063,9.756987,0.97568661409351066257,-1.4760253,8.198345,0.6254852,-0.20961158,9.756842,0.9646251409351066284,-1.5622166,8.134899,0.18914193,-0.27547586,9.755171,0.96497461409351066286,-1.4676456,7.973889,-0.12868834,-0.34344533,9.7527685,0.9674621409351066289,-1.5292963,8.261791,-0.09696517,-0.4169129,9.750782,0.95856431409351066324,-1.5149311,8.345589,-0.17357962,-0.5003175,9.749229,0.934121251409351066326,-1.2036849,8.357559,-0.22625206,-0.5918845,9.747216,0.90102321409351066329,-0.52612585,8.617331,-0.14185645,-0.6826269,9.744182,0.86910671409351066350,0.15682021,8.973468,0.037708677,-0.7592968,9.740564,0.84574861409351066352,0.84216046,9.250597,0.31902736,-0.8163372,9.737019,0.833351971409351066353,1.4616601,9.31105,0.65062433,-0.855227,9.734021,0.829363941409351066356,1.7441759,9.1829605,0.94211835,-0.8846007,9.730121,0.844187261409351066374,1.7902644,9.058462,1.1420342,-0.90715134,9.724806,0.880689141409351066385,1.6071079,8.76996,0.9888053,-0.9292459,9.717704,0.93442311409351066409,1.3138182,8.683171,0.7978677,-0.95574254,9.709422,0.992014351409351066412,1.2515689,8.86513,0.57161564,-0.9900809,9.700513,1.04411721409351066413,1.4951789,9.185953,0.3489549,-1.030794,9.691608,1.08654881409351066428,1.6849195,9.52174,0.38606504,-1.0713115,9.683582,1.11843381409351066430,1.8489223,9.774328,0.6715736,-1.1045363,9.676729,1.14511111409351066436,1.910573,9.932345,1.027711,-1.1288415,9.6701145,1.17687071409351066456,1.8902222,9.935339,1.6885108,-1.1471217,9.662543,1.22054741409351066457,1.6861166,9.822811,2.4109612,-1.1639508,9.653498,1.27498441409351066474,1.417966,9.579201,2.5378537,-1.1819693,9.642001,1.34356381409351066477,1.1240777,9.209895,2.2517467,-1.2035788,9.629145,1.41468191409351066500,1.009156,8.504803,1.5047557,-1.2287973,9.616326,1.47874631409351066502,1.4790181,8.104373,1.0773908,-1.2579864,9.604106,1.532651409351066509,1.9087774,8.430583,1.328782,-1.2857231,9.593471,1.57563851409351066531,2.2469583,9.072827,1.6418238,-1.3085253,9.585347,1.60601061409351066532,2.2230163,9.346365,1.5688007,-1.3227589,9.579938,1.6264971409351066537,1.8818425,9.440936,1.3467385,-1.3287413,9.576958,1.63912011409351066573,1.7501614,9.661801,1.2868834,-1.3251369,9.577692,1.63774881409351066576,1.661576,9.974843,1.965041,-1.3064249,9.583826,1.61676341409351066578,1.4095862,9.773131,1.5346833,-1.2781328,9.591819,1.59178911409351066597,0.9780314,9.385869,0.7846996,-1.2349019,9.604673,1.54779081409351066600,0.8038532,9.365519,0.8295909,-1.1773795,9.621029,1.48995831409351066601,0.50757074,9.710882,0.92655605,-1.1050007,9.639332,1.42571841409351066630,-0.42317516,9.632472,0.61890113,-1.0253495,9.658847,1.35118661409351066632,-1.9566613,9.233837,-0.025737667,-0.9474365,9.678828,1.26216391409351066635,-3.58412,9.130288,-0.7410054,-0.87330925,9.69856,1.16003671409351066638,-5.0002904,9.898229,-1.1318588,-0.8005908,9.717785,1.04598891409351066660,-6.27221,11.598111,-0.7098808,-0.7323844,9.735121,0.92812261409351066662,-6.64391,14.672865,-0.3345897,-0.67655534,9.748098,0.82899191409351066672,-6.213552,18.306665,-0.7230489,-0.6320226,9.757855,0.745128151409351066695,-3.8606503,19.608511,-1.8686744,-0.58471876,9.765654,0.67859731409351066698,-3.696049,19.608511,-2.5007436,-0.49495313,9.775452,0.604949951409351066701,-4.0695443,18.99799,-1.8818425,-0.40252388,9.784464,0.52217421409351066710,-3.8073792,15.986085,-0.5722142,-0.3331095,9.789628,0.47182251409351066734,-2.771887,12.670115,1.4197617,-0.28128448,9.7904,0.489239721409351066737,-2.5965118,10.632051,3.3291376,-0.22920586,9.787463,0.56867861409351066740,-3.514688,9.630676,4.373608,-0.17869145,9.781494,0.67885011409351066769,-2.304419,10.399814,4.1120415,-0.1329164,9.774286,0.78488341409351066771,-1.3162124,8.692748,3.5835214,-0.05787691,9.768583,0.86129581409351066773,0.0700304,8.650849,3.2489316,0.05275694,9.765671,0.894026461409351066797,0.53809685,8.440758,2.8119898,0.18035151,9.762901,0.907535731409351066798,1.3557167,8.594585,2.1266496,0.32013094,9.760213,0.897878471409351066800,1.4742297,8.608353,1.3892355,0.46318597,9.756542,0.875062471409351066809,1.9961656,7.868544,0.54049104,0.5952712,9.752023,0.845064941409351066824,1.8818425,7.1544733,0.3274071,0.7171065,9.74647,0.81390551409351066839,2.4863784,7.3166804,0.23403321,0.8224855,9.739827,0.793512171409351066840,2.232593,6.9228344,0.45130703,0.9196102,9.731067,0.79439951409351066855,1.9183542,6.3709707,0.5566519,1.0062983,9.72017,0.82223861409351066862,1.7579426,5.8639984,0.76554596,1.0784558,9.708278,0.86988261409351066886,1.7896658,5.3857565,1.0109516,1.1378832,9.69585,0.930640761409351066888,1.7555484,5.0918684,1.2174516,1.1918727,9.682463,0.999873641409351066889,1.6112977,4.993108,1.3174095,1.2428243,9.668368,1.07165521409351066909,1.5628152,4.7746367,1.3742718,1.2877879,9.654212,1.14375731409351066923,1.4443022,4.5860934,1.3742718,1.3249183,9.64113,1.20979811409351066927,1.3916297,4.642357,1.460463,1.3523557,9.630232,1.26497691409351066939,1.3700819,4.883573,1.6118963,1.3701724,9.622306,1.30547381409351066940,1.4149733,5.7484784,1.8435353,1.3788632,9.617896,1.3286121409351066958,1.5227122,6.5589156,1.9967642,1.3758005,9.617589,1.33399131409351066960,1.7812861,7.505822,2.005144,1.3592652,9.621439,1.32314681409351066970,2.2523453,8.549694,2.083554,1.3313161,9.628366,1.30097961409351066995,2.4959552,9.388862,2.3918076,1.2951196,9.636887,1.27414731409351066996,2.6288335,9.959281,2.7335799,1.25635,9.645275,1.24927061409351066998,2.6030958,10.392033,2.9999347,1.2079588,9.6535225,1.23317731409351067021,2.7252002,10.593744,3.3620577,1.1516247,9.661129,1.2274841409351067023,2.5570073,10.25676,3.602675,1.0941314,9.667287,1.23158781409351067037,2.2577322,10.354323,3.5063083,1.0407418,9.671678,1.24333851409351067038,0.42437226,12.721591,4.2945995,0.99460727,9.674654,1.25787261409351067061,-0.04129998,14.068329,3.1399956,0.9378838,9.67646,1.28720161409351067063,0.48003745,13.859435,1.4915876,0.8917419,9.677684,1.31058281409351067069,1.9075803,14.0312195,0.6727707,0.8875205,9.677581,1.31420281409351067095,3.8061821,13.063363,0.4758476,0.9343288,9.672698,1.317711409351067096,4.047398,10.682329,3.0125043,1.0251176,9.659435,1.34715531409351067098,4.687248,9.953295,6.6726403,1.1253358,9.638251,1.41708841409351067122,5.0721164,12.896367,8.465299,1.2502658,9.603472,1.54290321409351067123,3.0059202,18.183962,2.914342,1.4045994,9.558349,1.68388451409351067135,0.29388827,15.209167,2.3259668,1.5288613,9.53407,1.71303571409351067137,-1.359308,11.815984,2.1972785,1.6011205,9.520569,1.72208641409351067161,-1.8195933,10.15381,0.7781156,1.6279879,9.512373,1.74206551409351067163,-1.4155718,10.939108,1.1198878,1.6201756,9.506912,1.77877191409351067169,-1.7447745,11.576564,1.7399861,1.585039,9.504498,1.82279311409351067192,-2.0398598,11.678916,0.66738373,1.523698,9.508764,1.85260421409351067196,-2.60968,11.289858,-0.15502456,1.4423703,9.5231905,1.84358491409351067197,-2.5486276,10.721834,-0.062249243,1.3486608,9.5432625,1.81042351409351067219,-1.9883845,10.308235,-0.02813187,1.2609926,9.56431,1.76188951409351067221,-1.7555484,9.672575,-0.33399114,1.1755838,9.582583,1.72119341409351067234,-1.2384008,9.021951,-0.7266402,1.0965134,9.598489,1.68435871409351067237,-0.40880993,8.613141,-0.641646,1.0209255,9.61457,1.63955581409351067262,0.55964464,8.304289,-0.4237737,0.94451994,9.631665,1.58407311409351067264,0.8858546,7.8847046,-0.40402153,0.86716205,9.648483,1.52486631409351067271,0.8331822,7.7308774,0.075417355,0.7866717,9.663782,1.4706631409351067297,0.8702923,7.869741,0.79726917,0.7033596,9.676139,1.43108841409351067298,0.74878657,8.053496,1.2270284,0.6218149,9.6856575,1.40419751409351067300,0.5931635,8.5778265,1.4215573,0.5402301,9.694898,1.37386551409351067319,-0.06404489,9.063849,1.0480618,0.4573319,9.704261,1.33736491409351067321,-0.23283611,8.755595,0.4973954,0.37096184,9.71537,1.2823251409351067333,-0.8026561,8.428787,-0.16879122,0.28569743,9.726642,1.21705841409351067338,-1.3461399,8.228272,-0.54049104,0.19776769,9.737038,1.14952411409351067360,-1.3599066,8.243237,-0.47105917,0.10737015,9.745728,1.08613031409351067362,-1.4568717,8.543709,-0.40462008,0.021281164,9.752177,1.0319711409351067371,-1.6298528,8.911219,-0.24839842,-0.050322935,9.756516,0.98907121409351067395,-1.6011224,8.8645315,-0.038307227,-0.10536087,9.759096,0.95881591409351067397,-1.6430209,8.3551655,0.037110128,-0.15123484,9.759655,0.94691531409351067399,-1.6041151,8.106767,-0.15682021,-0.19887851,9.758211,0.95297471409351067422,-1.3970166,8.1720085,-0.35673606,-0.25391364,9.756265,0.959800841409351067424,-0.736217,8.872911,-0.25139117,-0.3123234,9.754647,0.959000231409351067440,-0.3309984,9.519944,-0.10295067,-0.3743216,9.754417,0.93893211409351067442,0.30945057,9.405622,-0.17238252,-0.43722728,9.755051,0.904538451409351067451,0.97384155,8.878897,-0.30645782,-0.49747965,9.7555485,0.86728131409351067467,1.8237832,8.810063,-0.11791443,-0.55366313,9.755112,0.83764311409351067469,2.397793,8.950723,0.2657564,-0.5980203,9.753571,0.825009761409351067484,2.475006,8.936956,0.7266402,-0.62751174,9.750706,0.836872341409351067489,2.6461914,8.874707,1.2090719,-0.64791024,9.745958,0.87571911409351067508,2.4462755,9.061455,1.6879122,-0.6645356,9.739104,0.93735071409351067513,2.2457612,9.225458,1.3904326,-0.68480414,9.730489,1.0094721409351067519,2.047641,9.489418,0.9780314,-0.71348774,9.721231,1.07657421409351067558,1.9375077,9.643246,0.682946,-0.74728096,9.712885,1.12775861409351067561,1.9339164,9.703699,0.6991069,-0.7861889,9.705528,1.16404431409351067563,1.8656816,9.679757,1.1210849,-0.8268367,9.698271,1.19594141409351067565,1.7579426,9.446921,1.7322049,-0.8669265,9.689713,1.23624191409351067575,1.417966,9.117719,2.593519,-0.90774685,9.678683,1.2920761409351067598,0.9708488,8.830415,3.1196449,-0.9530899,9.66414,1.36616481409351067600,0.36631286,8.546103,2.8927941,-1.0024955,9.64697,1.44960431409351067602,-0.12629414,8.379107,2.56419,-1.0563613,9.629119,1.52792481409351067629,0.077811554,8.056489,1.6938977,-1.1129099,9.612384,1.59182371409351067631,0.70509243,7.5686703,0.7428011,-1.1676309,9.598833,1.63383221409351067633,1.6256629,7.8308353,0.57400984,-1.2178746,9.587891,1.6611831409351067641,1.9560628,8.801684,0.90141696,-1.2593808,9.581538,1.66688381409351067655,1.721431,9.501988,1.1246762,-1.2921628,9.5788,1.65750041409351067666,1.6867151,10.093954,0.842759,-1.3182354,9.577487,1.64451061409351067669,1.9045875,10.478224,0.7044938,-1.3320377,9.579016,1.62435321409351067685,2.558803,10.776301,2.1290438,-1.3269503,9.585756,1.58835111409351067703,2.5635915,10.293272,2.1625626,-1.2964655,9.596219,1.54988351409351067704,2.1176715,9.925163,2.110489,-1.2510673,9.608776,1.50885951409351067716,1.3676877,10.226234,2.666542,-1.193768,9.6215925,1.47318661409351067718,0.30825347,10.527904,2.296638,-1.1284736,9.634408,1.44052271409351067733,-1.0809821,9.892242,1.3946224,-1.0657537,9.6484,1.39388761409351067738,-2.7287915,9.173384,0.52492875,-1.0174004,9.662559,1.33051061409351067754,-4.3418846,9.294889,-0.49320555,-0.97260314,9.678636,1.24436821409351067766,-5.5018754,10.342952,-1.2683283,-0.93123966,9.697166,1.12612011409351067770,-6.359598,12.641385,-1.2665327,-0.89116526,9.71626,0.985132041409351067785,-6.38354,16.439787,-1.2904748,-0.8518215,9.733104,0.84350861409351067790,-4.865018,19.450495,-1.9141643,-0.8059659,9.747197,0.71620831409351067805,-3.2034419,19.608511,-2.8107927,-0.7245088,9.761424,0.60005941409351067819,-4.0545807,19.598934,-2.8257565,-0.6103705,9.775408,0.48912131409351067820,-4.4915223,17.91641,-1.6771383,-0.52698433,9.784345,0.399132941409351067833,-4.0276456,14.760852,0.12509704,-0.48079905,9.787811,0.371433351409351067838,-3.0137014,11.541249,1.9075803,-0.44597977,9.7885275,0.395242931409351067851,-1.7992426,9.36073,3.2794578,-0.4007241,9.787128,0.471121221409351067869,-2.2918496,8.180388,3.915717,-0.3427518,9.784201,0.567716661409351067870,-1.5077485,10.22384,4.0043025,-0.28150645,9.780644,0.65583051409351067884,-0.21188685,10.545261,3.7612908,-0.20579833,9.777605,0.725600661409351067902,1.0103531,9.363124,2.8904,-0.09996468,9.776451,0.762482641409351067903,1.3174095,8.208521,2.0284874,0.030705867,9.777165,0.75927861409351067917,2.0883424,7.968502,1.0247183,0.16200748,9.777968,0.73178051409351067918,1.3772645,6.933608,0.41060558,0.28523487,9.778045,0.692008731409351067934,1.584363,6.675633,-0.09935937,0.38890818,9.777173,0.65271651409351067938,2.2631192,6.9503675,-0.04369418,0.47923598,9.774972,0.62503421409351067951,1.7298107,6.6109896,0.2861071,0.5684616,9.771149,0.60983691409351067966,1.3251907,6.0770826,0.439336,0.65309155,9.764769,0.627028051409351067977,1.2024878,5.737106,0.7326257,0.7310139,9.756082,0.67445171409351068009,1.2689269,5.6527104,0.9660604,0.8004512,9.745744,0.74169811409351068010,1.3479356,5.568913,1.0498575,0.8658866,9.733861,0.82012081409351068011,1.1899183,5.385158,1.127669,0.92813987,9.720662,0.904253541409351068013,0.91338795,5.207389,1.4083891,0.98287416,9.7072525,0.986703631409351068020,0.8074445,5.3115363,1.7735049,1.0272677,9.694476,1.06405871409351068046,0.81881696,5.46297,1.9369092,1.0620146,9.682916,1.13298921409351068051,0.8218097,5.6646814,1.7244238,1.0886247,9.673456,1.18723961409351068054,0.9127894,5.879561,1.4059949,1.1051617,9.667375,1.22101331409351068079,0.93852705,6.4404025,1.5077485,1.1162094,9.663367,1.24249911409351068083,0.91578215,6.646304,1.8010383,1.1141274,9.663326,1.24468671409351068086,1.1917139,6.9132576,2.1092918,1.0997256,9.666463,1.23309061409351068110,1.6106992,7.204153,2.2679076,1.0750594,9.67187,1.21225041409351068112,1.9925743,7.7344685,2.2996306,1.0416043,9.67899,1.18431021409351068114,2.2852654,8.661025,2.2385786,1.0001206,9.687463,1.15030971409351068120,2.345719,9.745,2.2661119,0.95089835,9.69685,1.11234821409351068157,2.4001873,10.685921,2.355296,0.89701015,9.706097,1.07586161409351068159,1.8393455,10.6715555,2.843713,0.84440094,9.714008,1.0466221409351068161,1.5831659,10.560823,2.9646204,0.7924818,9.719589,1.03534531409351068163,1.1671734,12.233173,3.309984,0.74629635,9.723503,1.03291941409351068176,0.14425065,14.343064,3.4805708,0.70057476,9.724971,1.05097891409351068212,0.11252748,15.011644,1.99437,0.65333647,9.725077,1.08001531409351068214,0.78649527,14.489709,0.16220717,0.6308436,9.72609,1.08425681409351068217,2.2266076,13.256096,-0.2645593,0.65137863,9.7277,1.05733471409351068219,3.7738605,11.736976,0.38606504,0.7133554,9.724877,1.04321541409351068223,5.191228,10.818799,2.0769699,0.80764455,9.713982,1.07548061409351068253,5.1050367,10.02153,5.531803,0.9344725,9.693309,1.15626071409351068255,5.2049947,12.254722,9.502586,1.081543,9.662038,1.28285251409351068257,2.9221232,19.577986,3.5691562,1.2543072,9.61678,1.4541821409351068274,0.4321534,17.52855,0.9187749,1.3885449,9.589408,1.51182561409351068276,-1.6460136,12.923303,-0.34476504,1.4808325,9.573667,1.52395141409351068278,-1.5496471,10.515932,-1.7459716,1.5397488,9.566004,1.51364681409351068305,-1.2814964,9.806051,-0.090979666,1.5734334,9.56203,1.50408731409351068307,-1.2605472,9.406818,1.5376761,1.5824646,9.556542,1.52927591409351068322,-1.5682021,9.474455,2.2242134,1.5694536,9.550256,1.58108621409351068323,-1.6873137,9.426571,1.8477252,1.5307909,9.547615,1.63405861409351068332,-1.4814123,9.448717,1.3245921,1.4779084,9.550715,1.66434011409351068338,-1.7046716,9.28232,1.1719618,1.4226063,9.557663,1.67262571409351068351,-1.6005238,8.749012,0.41240123,1.3656318,9.566825,1.66772351409351068366,-0.919972,8.359355,0.03172317,1.3092892,9.578805,1.64397311409351068370,0.34117374,8.736442,-0.14784196,1.253938,9.593888,1.59855181409351068383,1.1893197,9.431359,-0.59735334,1.2020639,9.609549,1.54337261409351068405,1.3970166,9.933543,-0.9020155,1.1525491,9.627041,1.470411409351068407,1.1408371,10.18254,-0.5009867,1.0980333,9.645324,1.39012171409351068412,0.66259533,9.928755,0.017956512,1.0325457,9.662312,1.32060431409351068418,0.31783026,9.57561,0.38187516,0.9549993,9.677181,1.26907811409351068430,0.030526072,10.323199,1.2072762,0.86829954,9.691044,1.22479341409351068463,-0.09876082,10.534488,1.4550761,0.77398115,9.70467,1.17928781409351068465,-0.17298107,10.150817,1.34195,0.67991835,9.7176,1.1297691409351068467,-0.07182605,9.473856,1.0103531,0.5918536,9.72886,1.0813921409351068490,-0.16579847,8.926781,0.50757074,0.51312476,9.737901,1.0394161409351068492,-0.78769237,8.67539,0.090979666,0.44111043,9.745663,0.99895071409351068494,-1.2611457,8.759786,0.12689269,0.36850503,9.75225,0.963433741409351068499,-1.2695254,8.79929,0.32561144,0.2966785,9.757351,0.936208251409351068524,-1.1976994,8.624513,0.39624038,0.22967504,9.760471,0.92241111409351068525,-1.1282675,8.309675,0.2753332,0.17041856,9.761725,0.921991409351068533,-1.0109516,7.9942393,-0.037110128,0.11547241,9.762081,0.926733431409351068556,-0.8643068,7.7614036,-0.18495208,0.056667577,9.762873,0.92384981409351068557,-0.91219085,7.72968,0.037708677,-0.012474912,9.764731,0.90569161409351068559,-0.60932434,8.520366,0.42317516,-0.09521867,9.766924,0.87665281409351068571,-0.20410569,9.17099,0.28431144,-0.18538499,9.768415,0.84504161409351068593,0.51355624,9.276933,-0.18734628,-0.27551815,9.769195,0.81074681409351068596,1.2611457,9.118916,-0.22445641,-0.35953048,9.769546,0.77274041409351068599,1.5801731,8.605359,0.047884032,-0.43593976,9.769245,0.7363581409351068616,1.9087774,8.1558485,0.46746787,-0.5048079,9.767471,0.71560081409351068619,2.280477,7.972093,1.2389994,-0.56428945,9.763712,0.722434341409351068635,2.1529858,7.9505453,1.323395,-0.61070883,9.757872,0.762481631409351068650,1.9129672,7.9409685,1.1587936,-0.6503208,9.750237,0.82483771409351068668,1.7040731,8.091804,0.943914,-0.68912953,9.74147,0.893991409351068669,1.4915876,8.385692,0.7398083,-0.7308674,9.732371,0.957706631409351068681,1.572392,8.716091,0.7422025,-0.7757603,9.723714,1.00895021409351068683,1.9075803,9.1033535,0.93732995,-0.8201714,9.715626,1.05086671409351068704,2.179322,9.497798,1.1701661,-0.8582075,9.70792,1.0909481409351068705,2.1505916,9.826403,1.9015948,-0.8901507,9.700387,1.13160481409351068713,1.9895816,10.086772,2.8018146,-0.9173688,9.691708,1.18306271409351068718,1.6136919,10.062231,2.9789855,-0.94455916,9.680349,1.25261381409351068731,1.1246762,9.743802,2.5037365,-0.97767997,9.666603,1.3309111409351068750,0.9020155,9.148843,1.9111716,-1.0205913,9.651857,1.40372791409351068752,1.2090719,8.472482,0.89782566,-1.071803,9.6373205,1.46414091409351068767,1.5981296,8.24204,0.65301853,-1.1254977,9.624853,1.50528141409351068784,2.0632033,8.802881,0.8619126,-1.1770257,9.615353,1.52643511409351068786,1.9422961,9.418191,1.134253,-1.220566,9.60901,1.53216621409351068802,1.5664065,9.959879,1.1246762,-1.256584,9.604494,1.53136481409351068803,1.0546459,10.278907,1.0241197,-1.2899003,9.600695,1.52748481409351068816,0.84575176,10.593744,0.9103952,-1.3169848,9.598914,1.51551411409351068819,1.0229226,10.377667,1.2138603,-1.3332204,9.600867,1.48871961409351068835,0.7074866,10.254366,0.97264445,-1.335111,9.6066675,1.44906941409351068850,0.18614918,10.233417,1.0073603,-1.3242863,9.615384,1.40036981409351068851,-0.17776948,10.483012,1.8513165,-1.2988293,9.625376,1.35482841409351068865,-0.66858083,10.511743,2.107496,-1.2587262,9.636066,1.3161441409351068882,-1.8854338,9.842564,1.3581109,-1.2089939,9.648485,1.27099981409351068883,-3.4476504,8.982447,0.34835634,-1.1538647,9.663553,1.20611021409351068899,-4.4304705,8.668806,-0.56982,-1.0907215,9.6816635,1.11630641409351068900,-4.7979803,9.18715,-1.0564415,-1.0153155,9.702079,1.00459441409351068913,-5.2061915,10.9899845,-0.9008184,-0.936751,9.721421,0.88704561409351068920,-4.969764,14.160506,-0.41479546,-0.85286516,9.738214,0.7811581409351068930,-3.550601,17.671003,-0.11432313,-0.76302737,9.751428,0.70556921409351068951,-1.869273,19.57619,-0.7218518,-0.6504422,9.762834,0.65910731409351068953,-2.9346926,19.480423,-0.8702923,-0.5115354,9.7738,0.617701771409351068973,-3.29502,18.02774,-0.011971008,-0.40345833,9.780781,0.58647231409351068975,-3.0819361,15.576077,1.2348095,-0.32566127,9.783108,0.595967771409351068980,-2.2523453,12.436681,2.570774,-0.26350826,9.7811,0.656529661409351069027,-1.3018472,9.858724,4.553173,-0.20009921,9.77577,0.751457751409351069031,-2.2768857,9.753978,4.753089,-0.12759995,9.76786,0.861975251409351069034,-1.5520413,9.888652,3.9761705,-0.060538422,9.758783,0.96586181409351069039,-0.5351041,8.291719,3.0400376,0.017575258,9.75173,1.03626371409351069043,0.18854338,7.5285673,2.7323828,0.123961054,9.748281,1.06116031409351069073,1.4993688,7.9146323,2.4049757,0.25119328,9.747573,1.0450391409351069076,2.0368671,8.360553,1.903989,0.3919121,9.747134,1.00507041409351069079,1.7112557,8.331821,1.2545617,0.5352872,9.745161,0.956922351409351069082,1.7357962,8.110957,0.6787562,0.66473746,9.742079,0.90575871409351069085,1.863886,8.149862,0.47165772,0.7751845,9.738342,0.856840431409351069110,2.0488381,8.228871,0.4770447,0.87117106,9.733241,0.8218961409351069112,1.6699557,7.9583263,0.6356605,0.9602055,9.725636,0.81265031409351069113,1.2575544,7.479486,0.8367735,1.0393583,9.7158,0.832686661409351069119,1.1480197,7.004237,1.0235212,1.1106917,9.704957,0.866346241409351069133,1.3024458,6.675633,1.2677298,1.1703681,9.693134,0.91857311409351069149,1.5280992,6.397307,1.4041992,1.2219179,9.680487,0.982586561409351069150,1.6478093,6.2404866,1.5221137,1.2663876,9.667645,1.05037581409351069165,1.7112557,5.9962783,1.6328455,1.3023129,9.655411,1.11687251409351069180,1.869273,5.8574142,1.7962499,1.327766,9.644437,1.1799411409351069181,1.9722236,5.693412,1.8142064,1.3415157,9.635309,1.23755321409351069198,1.9069817,5.7083755,1.9919758,1.3427058,9.628947,1.28487611409351069199,1.7776948,5.8262897,2.4510639,1.3303715,9.625816,1.32067731409351069213,1.7597382,5.9956794,3.0065188,1.3051782,9.625756,1.34599671409351069227,1.8956091,6.3153057,3.5164838,1.2694916,9.628283,1.36196681409351069230,2.0099323,6.7761893,3.7576995,1.2308395,9.631514,1.3745491409351069250,2.3127987,7.65965,3.6739025,1.1840447,9.637076,1.37665981409351069284,2.581548,8.8567505,3.394978,1.1319747,9.644723,1.36687291409351069297,2.791639,10.041881,3.1729157,1.0766275,9.653738,1.34781091409351069299,2.9694088,10.615292,2.9131448,1.0235956,9.66219,1.32843151409351069302,2.9508536,10.778097,3.0933087,0.9789548,9.668249,1.31794751409351069321,2.565387,12.023681,3.1483753,0.94902414,9.67047,1.32353151409351069322,0.56563014,13.447034,2.6671407,0.93516666,9.670276,1.33477441409351069324,0.26036942,13.639767,1.0941502,0.9164607,9.672638,1.33063411409351069325,0.9576807,13.426683,-0.21787235,0.91565657,9.677456,1.29568921409351069330,2.1152773,12.4468565,-0.81522566,0.95150566,9.680346,1.24737851409351069353,4.368221,11.059416,-0.90141696,1.0115408,9.678763,1.21191311409351069355,5.7239375,9.821015,1.2850877,1.1144816,9.667307,1.21306381409351069360,5.5258174,9.0476885,5.493496,1.2485002,9.643608,1.26983241409351069391,4.7884035,15.316307,9.7803135,1.3972363,9.607431,1.38396811409351069393,3.3435028,19.284697,5.3660045,1.5488513,9.55751,1.55738411409351069395,0.44532153,18.418594,1.7938557,1.658675,9.526312,1.63358581409351069400,-2.9442697,14.816517,0.20829555,1.7001654,9.516483,1.64813821409351069421,-3.693056,12.552201,-2.0847511,1.6878548,9.520451,1.6378581409351069422,-2.731784,12.3594675,-1.4562732,1.6555276,9.531653,1.6053691409351069431,-2.8736405,11.492766,0.19871874,1.6088897,9.540511,1.60016381409351069454,-3.3333273,10.131663,0.7679402,1.5501082,9.545957,1.62551191409351069456,-3.9121256,8.577228,0.92775315,1.4694971,9.551928,1.66482591409351069460,-3.7882257,7.9990277,1.4101849,1.3769214,9.560553,1.69419671409351069488,-3.165733,8.09719,1.8267759,1.2907202,9.569855,1.70948541409351069490,-2.3421278,8.535329,1.7106571,1.2210988,9.578186,1.71395991409351069494,-1.1917139,9.222465,1.0217255,1.1667348,9.587135,1.7017561409351069499,0.2789245,9.606734,0.28550854,1.1189071,9.599791,1.66206611409351069517,1.7663223,9.987412,-0.11192893,1.0731122,9.616691,1.59313431409351069519,2.4678235,10.762535,-0.16699557,1.0274289,9.636035,1.50386111409351069531,2.3439236,11.473015,0.0700304,0.9772102,9.655346,1.41058991409351069552,1.5125369,11.118672,0.2621651,0.9171863,9.672706,1.32962851409351069556,0.6584055,10.330381,0.30765492,0.8450328,9.688404,1.26139551409351069560,-0.10175357,9.978435,0.724246,0.7586855,9.702337,1.20807661409351069588,-0.44651863,9.85633,0.961272,0.6605726,9.715417,1.15961281409351069590,-0.51714754,8.950125,0.98940384,0.5582447,9.7275915,1.11027821409351069592,-0.6123171,7.9930425,0.81343,0.46067268,9.737233,1.06978991409351069599,-0.8810662,7.462128,0.65660983,0.37076026,9.744029,1.0425081409351069615,-0.8206126,7.1784153,0.3669114,0.28612626,9.748795,1.02445081409351069632,-0.6218939,7.177817,-0.007182605,0.20686488,9.752395,1.00916451409351069633,-0.40521863,7.5447283,0.036511578,0.13926774,9.755426,0.99128031409351069643,-0.56084174,7.766192,0.3681085,0.0868626,9.758094,0.97080441409351069652,-0.9463082,7.831434,0.587178,0.040031385,9.760127,0.953265371409351069666,-1.0815806,8.015189,0.3286042,-0.010661478,9.760989,0.94518521409351069676,-1.1719618,8.041525,-0.23882163,-0.072023146,9.761264,0.939645351409351069679,-1.1749545,8.039131,-0.47644615,-0.1487744,9.762424,0.9183281409351069701,-1.2372037,8.254609,-0.4842273,-0.24235831,9.764502,0.87531551409351069703,-1.3706805,7.904457,-0.48602295,-0.35416186,9.765865,0.82026011409351069712,-0.54408234,9.24521,-0.16280572,-0.47709233,9.764837,0.768579361409351069736,0.8194155,9.836577,-0.08499416,-0.58884037,9.76142,0.73369151409351069739,1.8064252,9.403826,-0.107739076,-0.6681728,9.757071,0.72354971409351069742,2.1757307,8.996213,0.80325466,-0.71933377,9.75241,0.73719161409351069752,1.9255368,9.503185,1.4634558,-0.7563668,9.746131,0.781823341409351069779,1.5753847,9.343372,1.6801311,-0.79115,9.738171,0.84408241409351069781,1.2126632,8.829217,1.4736311,-0.82927173,9.727495,0.926561531409351069783,1.0229226,8.420407,0.90141696,-0.87834996,9.714939,1.00937581409351069811,1.3844471,8.482059,0.46746787,-0.9401741,9.701995,1.0759981409351069812,1.8459295,8.883087,0.55964464,-1.0075299,9.690088,1.12137371409351069814,2.1260512,9.200917,1.0456676,-1.0677933,9.680026,1.15210041409351069832,2.3092074,9.449914,1.447295,-1.1133065,9.671064,1.18382131409351069835,2.0428526,9.534908,1.9003977,-1.1462653,9.661803,1.22719541409351069848,1.5855601,9.324817,2.557606,-1.1770217,9.650536,1.28536621409351069868,0.9139865,9.121908,2.3834279,-1.2118844,9.636793,1.35423351409351069869,0.22565351,9.170391,2.0691888,-1.2541357,9.62225,1.41768471409351069871,0.10055647,9.093777,1.7968484,-1.3021108,9.607543,1.47310611409351069879,0.3824737,9.054871,1.2545617,-1.3513746,9.59381,1.51755231409351069898,0.9451111,9.192537,0.9792285,-1.3977787,9.582091,1.54923321409351069902,1.352724,9.825205,1.2437878,-1.436943,9.573747,1.56492041409351069924,1.3515269,10.318411,1.5376761,-1.4657696,9.5692,1.5659991409351069926,0.9636662,10.803237,1.5999253,-1.4864672,9.56679,1.5612061409351069932,0.7104794,11.048642,1.6831238,-1.5015125,9.565434,1.55510151409351069952,0.78050977,10.707469,1.822586,-1.5097154,9.565781,1.54498471409351069954,0.985214,10.240001,1.5490485,-1.5084076,9.569094,1.5256241409351069959,0.9864111,9.792285,1.1935096,-1.493416,9.576737,1.4920411409351069978,0.9648633,9.751583,1.388637,-1.4618988,9.587782,1.45179031409351069979,1.0283096,9.986814,1.6041151,-1.421617,9.6003685,1.407951409351069995,0.88166475,10.1460285,1.2378023,-1.3660032,9.615329,1.36010131409351070002,-0.23104046,9.642049,0.5895722,-1.3014953,9.632999,1.29684931409351070019,-1.9458874,8.568848,-0.1400608,-1.2375486,9.652028,1.21540091409351070021,-2.9460652,7.7548194,-0.76315176,-1.1747841,9.671645,1.1178341409351070052,-3.8295257,7.7213006,-1.0061632,-1.1031426,9.692774,1.00179331409351070054,-4.69084,9.184756,-0.56323594,-1.0215174,9.714258,0.871826771409351070056,-5.283405,12.460024,0.2861071,-0.9361385,9.7325325,0.75621221409351070060,-4.857237,16.980276,1.2880806,-0.84822375,9.745907,0.684268531409351070092,-3.1004913,19.574993,0.99060094,-0.7478372,9.755537,0.66380251409351070095,-2.5462334,19.608511,-0.52492875,-0.6167227,9.765531,0.651496951409351070096,-3.502717,18.875288,-1.049259,-0.47849,9.775094,0.623706761409351070101,-3.3087866,15.832856,-0.5758055,-0.37773493,9.781428,0.592772541409351070119,-2.822764,12.158355,0.74399817,-0.3064197,9.783511,0.59950881409351070120,-2.2667105,7.6548615,3.6577415,-0.25052696,9.781386,0.657329861409351070131,-2.8048072,9.733627,4.6381674,-0.19497389,9.775938,0.750606661409351070153,-2.190096,11.344326,4.216788,-0.1404593,9.769258,0.84395651409351070155,-0.825401,10.908582,3.3961751,-0.061681125,9.76463,0.90475981409351070160,0.46148238,9.854534,2.5510218,0.05897344,9.7635355,0.91668141409351070189,0.6607997,8.670003,1.9087774,0.20746255,9.764238,0.8871291409351070191,1.3551182,8.67958,1.1881226,0.3548937,9.764066,0.84112141409351070195,1.6927006,8.704719,0.5530606,0.49786595,9.761912,0.79220331409351070215,1.7980455,8.405443,0.06584055,0.6294853,9.757983,0.745583531409351070217,2.0638018,8.39467,-0.1945289,0.7486314,9.752328,0.7085441409351070233,1.9758149,8.109759,-0.11731588,0.85453355,9.744975,0.68966291409351070234,1.4820108,7.2221093,0.20649989,0.9461014,9.735823,0.699296061409351070248,1.2060791,6.3709707,0.4830302,1.0216197,9.725162,0.7402131409351070267,1.2611457,6.127361,0.9959879,1.0834671,9.713265,0.80560381409351070272,1.472434,6.0704985,1.3826514,1.141424,9.699313,0.889320251409351070275,1.5388732,5.9621606,1.471237,1.1999696,9.683217,0.98274881409351070281,1.508347,5.798158,1.496376,1.25478,9.666323,1.07615651409351070298,1.3916297,5.5587378,1.5424645,1.3047578,9.649155,1.1669651409351070313,1.3479356,5.449203,1.6250644,1.3451715,9.633267,1.24943971409351070314,1.1522095,5.251083,1.4790181,1.3752643,9.619444,1.32111991409351070333,1.2216414,5.2702365,1.4287399,1.3934141,9.60897,1.377131409351070334,1.3156139,5.3648076,1.4598645,1.3993878,9.60271,1.41423741409351070340,1.3976152,5.595249,1.6591818,1.393065,9.600879,1.43278481409351070370,1.436521,5.8065376,1.9189527,1.3746513,9.603038,1.43610071409351070373,1.5197195,6.23091,2.220622,1.3436505,9.608671,1.42774011409351070375,1.6819267,7.1233487,2.553416,1.300002,9.617074,1.41147911409351070380,1.9608512,8.408437,2.895787,1.2462381,9.627224,1.3906251409351070403,2.15538,9.774328,3.1759086,1.187692,9.6376295,1.369631409351070404,2.3756466,10.869676,3.4703953,1.1302295,9.647198,1.35075961409351070412,2.5133133,11.396998,3.645172,1.0758231,9.654784,1.34094481409351070433,2.3127987,11.378444,3.7379475,1.0315579,9.660247,1.33637831409351070435,0.9744401,13.327324,4.279037,0.997051,9.664562,1.33135941409351070440,0.20171149,15.092449,3.4596214,0.9560718,9.667852,1.33751441409351070470,0.44651863,15.262437,1.2856863,0.91866684,9.670895,1.34172861409351070472,1.5879543,14.435241,-1.0013748,0.91599107,9.674489,1.31742571409351070474,4.1922474,13.18427,-1.7549498,0.9578566,9.675896,1.27668821409351070481,5.1223946,10.732608,0.4237737,1.0475862,9.667952,1.26635541409351070503,6.475717,9.871892,8.599973,1.1591322,9.647406,1.32453161409351070505,5.759252,15.034988,10.1861315,1.314083,9.604789,1.48041431409351070513,4.404134,19.422962,6.659472,1.4754431,9.551772,1.6604621409351070547,2.3157916,18.457499,2.2439656,1.6081774,9.513621,1.75361261409351070550,-1.5041572,14.316129,0.97623575,1.6850135,9.498587,1.76293911409351070552,-3.2040405,11.174338,-0.825401,1.6940035,9.497216,1.76170861409351070568,-2.4061728,10.502166,-0.8631097,1.66979,9.502196,1.75797071409351070569,-2.1218612,10.771513,0.7577648,1.6293234,9.504925,1.78103531409351070572,-2.4546554,11.100717,1.7531542,1.5680565,9.506567,1.82668081409351070580,-3.031658,10.3770685,1.2246342,1.4843831,9.512934,1.86309271409351070595,-3.1908724,9.505579,0.6488287,1.3886817,9.525815,1.87103871409351070617,-3.0508115,8.881889,0.87448215,1.2932692,9.541474,1.85959771409351070619,-2.60968,8.644864,0.92895025,1.2080874,9.555509,1.84476451409351070621,-2.098518,8.559271,0.5386954,1.1314532,9.567599,1.8306391409351070650,-1.2413936,8.640674,0.2908955,1.066459,9.58021,1.80351351409351070652,0.15083471,8.863335,0.2789245,1.0061826,9.595409,1.75672641409351070654,1.1348516,9.421184,0.29568392,0.9495086,9.612502,1.69370261409351070660,1.1797429,9.798869,0.34715924,0.8934464,9.630027,1.62319481409351070685,0.8451532,9.682152,0.39145198,0.8299071,9.646284,1.55912421409351070687,-0.039504327,9.149442,0.2633622,0.754098,9.660508,1.50873921409351070694,-0.54647654,9.36492,0.39145198,0.6648033,9.673921,1.46413411409351070709,-0.93972415,9.479243,0.49081135,0.56643885,9.687818,1.41270641409351070711,-1.0528502,9.091382,0.43993455,0.46320677,9.701839,1.35282431409351070728,-1.1504139,8.463503,0.20111294,0.35970426,9.714513,1.29199421409351070732,-1.3754689,8.300098,0.22505496,0.2592158,9.725292,1.233651409351070747,-1.3066356,8.303091,0.17238252,0.15998262,9.733832,1.18207731409351070764,-1.0121487,8.405443,0.10055647,0.06720316,9.740027,1.13918831409351070772,-0.8038532,8.892664,0.18076223,-0.009968683,9.7440405,1.10633291409351070802,-0.6835446,9.321226,0.23942018,-0.06795921,9.746455,1.08275991409351070806,-0.80564886,9.017162,0.29747957,-0.11444761,9.747385,1.07040191409351070807,-1.003769,8.451532,0.011372458,-0.1613832,9.746435,1.07300811409351070809,-0.9792285,8.061875,-0.5638345,-0.21889539,9.744587,1.07957471409351070833,-1.3054385,8.062474,-0.5835867,-0.2904751,9.743701,1.07065621409351070834,-1.5376761,8.592192,-0.338181,-0.37930036,9.743685,1.04267141409351070835,-1.1061212,9.033323,-0.25977087,-0.47595945,9.743033,1.0085561409351070841,-0.5542577,9.330204,-0.25617957,-0.5776199,9.74183,0.96617321409351070866,0.15861586,9.424176,-0.20649989,-0.6704557,9.739983,0.92390691409351070867,1.0708067,9.423578,-0.007781155,-0.7462185,9.737476,0.89168251409351070874,2.143409,8.869919,1.0785879,-0.79939705,9.734248,0.88079211409351070881,2.1667526,8.283937,1.2503718,-0.83168423,9.729173,0.906589871409351070907,2.1296425,7.825448,1.3389573,-0.8595976,9.721423,0.96198451409351070909,1.9027919,7.4872675,1.4053963,-0.89159155,9.711227,1.03321371409351070913,1.7782934,7.3603745,1.353921,-0.9332044,9.699595,1.10335211409351070938,1.8614918,7.460931,1.1450269,-0.98546815,9.687535,1.16228651409351070940,1.9620483,7.7745714,0.9056068,-1.0420176,9.675561,1.21166031409351070942,2.0135236,8.315661,0.83856916,-1.1027012,9.664602,1.24496541409351070962,2.1015105,8.871715,0.9864111,-1.1615126,9.65491,1.26647881409351070964,2.0153193,9.327211,1.270124,-1.2140113,9.645849,1.28614661409351070982,1.7381904,9.487024,1.7705121,-1.260835,9.636072,1.31407671409351070984,1.4036007,9.461287,2.2559366,-1.3060607,9.623986,1.35775021409351070996,0.9151836,9.299079,2.079364,-1.3507012,9.609624,1.41461591409351071010,0.32202014,9.1255,1.8381484,-1.3961635,9.594644,1.47103551409351071012,0.3357868,9.044696,1.389834,-1.4416981,9.580317,1.51967931409351071028,0.66858083,9.035717,0.96665895,-1.4815947,9.567866,1.559231409351071049,1.5682021,9.570223,1.0684125,-1.5123154,9.558374,1.58769811409351071050,2.2517467,10.131064,1.5526398,-1.5303526,9.551761,1.61005931409351071055,1.6208745,10.3932295,1.5574282,-1.5295863,9.549711,1.62289461409351071061,1.2132617,10.498574,1.567005,-1.522299,9.550446,1.62541451409351071076,1.0109516,10.4728365,2.2373815,-1.5062104,9.554296,1.61775611409351071099,0.8158242,10.290278,2.4169466,-1.4782145,9.561456,1.60119661409351071102,0.6769605,10.065823,1.6214731,-1.4382223,9.572236,1.57295611409351071103,0.9576807,10.108918,1.4867992,-1.3818393,9.587047,1.53279521409351071138,1.0929531,10.056246,1.7226281,-1.3030252,9.605577,1.4850531409351071140,0.39564183,9.5971575,0.8774749,-1.2082762,9.627646,1.42088261409351071142,-1.0761937,8.689755,-0.18315643,-1.110033,9.653253,1.32397251409351071145,-2.5264814,8.013991,-0.83497787,-1.0136085,9.6792145,1.20655731409351071159,-3.9959226,8.296508,-1.2575544,-0.9231492,9.704203,1.07081271409351071161,-5.063138,10.295067,-1.0929531,-0.8339171,9.726541,0.932411131409351071176,-5.9705405,14.052767,-0.5883751,-0.75155896,9.744667,0.80436191409351071195,-5.988497,18.556858,-0.12150574,-0.67986417,9.757995,0.69980181409351071196,-4.1683054,19.608511,-0.6931214,-0.6086982,9.767451,0.629886151409351071211,-3.0825348,19.608511,-1.827973,-0.4992884,9.776826,0.57859241409351071212,-4.010288,19.182943,-1.7244238,-0.375286,9.785604,0.521098261409351071223,-3.8552632,16.313492,-0.6823475,-0.2912606,9.790374,0.483884161409351071242,-2.9885623,12.571355,0.8900445,-0.23275279,9.790917,0.50412751409351071243,-1.328782,7.643489,3.7259765,-0.1733986,9.788157,0.576454161409351071263,-1.7100586,9.659407,4.8039656,-0.095429994,9.782989,0.67412051409351071264,-1.8219875,10.900202,4.5621514,-0.015215105,9.775531,0.78048471409351071273,-0.49559975,11.215039,4.2838254,0.07471483,9.768049,0.866042141409351071296,0.712275,10.0664215,3.5936968,0.19265108,9.761679,0.918099941409351071298,0.82899237,8.316858,2.6916811,0.33362803,9.756955,0.92785871409351071301,1.0115502,7.9888525,1.822586,0.47658402,9.75286,0.908293661409351071313,1.1749545,7.611766,0.78649527,0.6071456,9.748705,0.87436551409351071330,1.0354922,7.2741833,0.3537433,0.7235488,9.744415,0.83261681409351071333,1.7459716,7.813477,0.1448492,0.82470363,9.739514,0.795047461409351071342,1.9512744,8.12592,0.15263036,0.91919285,9.732669,0.775016551409351071365,1.4275428,7.5411367,0.062249243,1.0105354,9.72299,0.78273281409351071366,0.79008657,6.67683,0.2753332,1.0951662,9.711999,0.80503081409351071373,0.94930094,6.395511,0.9600749,1.1633122,9.699904,0.853790041409351071409,1.2306197,6.1219735,1.2743138,1.2222806,9.686205,0.92404111409351071410,1.4012065,5.8837504,1.2539631,1.2800701,9.670741,1.00429251409351071412,1.4993688,5.805939,1.287482,1.335892,9.65464,1.08339371409351071413,1.5406688,5.852626,1.6891093,1.3854026,9.639194,1.15628171409351071430,1.6687586,5.916671,2.1571758,1.4260087,9.624972,1.22342851409351071433,1.7112557,5.927445,2.1350293,1.4572082,9.612834,1.28077331409351071442,1.882441,6.2500634,1.7459716,1.4787793,9.604322,1.3193211409351071465,1.9919758,6.6145806,1.6394296,1.4907243,9.600627,1.33270791409351071466,2.099715,6.9186444,1.7579426,1.4916736,9.600324,1.33382511409351071473,2.2631192,7.187992,1.839944,1.4870133,9.603061,1.31925441409351071497,2.4235306,7.422025,1.9153614,1.4700226,9.608876,1.29572461409351071498,2.6641479,7.8422074,1.9249382,1.4408275,9.616932,1.26847061409351071501,2.80361,8.58022,2.1547816,1.4007832,9.626763,1.23839991409351071537,2.9963434,9.655815,2.2026656,1.3513029,9.637932,1.20609051409351071538,3.1890767,11.043256,2.047641,1.2959248,9.649914,1.17052291409351071541,2.7072437,11.796232,2.5252843,1.2382556,9.661727,1.13497751409351071544,2.385822,11.921329,2.8975825,1.1747983,9.671671,1.11760271409351071560,2.7611132,12.492945,2.9801826,1.1141005,9.677787,1.1267771409351071561,2.1212628,13.08491,3.6709096,1.0721042,9.679255,1.1545621409351071580,1.0259154,13.913304,4.104859,1.0322484,9.678449,1.19686411409351071594,1.2090719,14.079103,2.7335799,1.0022776,9.673668,1.2593621409351071596,1.7501614,12.377424,1.0432734,1.0050203,9.665281,1.32010161409351071609,2.806603,10.4728365,0.55006784,1.0461087,9.653235,1.37516781409351071629,4.235343,9.444528,1.4652514,1.1176202,9.635736,1.4401021409351071631,2.5462334,11.413159,7.6375036,1.2191921,9.611062,1.52034331409351071634,2.2260091,16.967707,7.013814,1.3194818,9.574743,1.65942141409351071644,1.8237832,19.214666,3.3919852,1.4079419,9.5397215,1.78376511409351071666,-0.80804306,15.622765,1.5077485,1.4752487,9.519012,1.83913661409351071668,-2.6024973,11.7303915,0.3633201,1.4961079,9.509975,1.86879781409351071674,-2.2062569,10.346542,-1.0468647,1.4853715,9.507681,1.88893511409351071703,-1.5161282,10.160992,0.2184709,1.4708159,9.506879,1.90429191409351071705,-1.7549498,9.840169,1.6699557,1.4457649,9.504322,1.93598661409351071706,-1.939902,10.078991,1.4927847,1.4079164,9.50291,1.97050491409351071731,-2.208651,9.870695,1.3515269,1.3573387,9.5086565,1.97825121409351071734,-2.172738,9.463082,0.95349085,1.3002155,9.520701,1.95859011409351071736,-1.9243397,9.585187,0.5590461,1.2429558,9.535214,1.92487911409351071742,-1.5622166,10.005369,0.20709845,1.1869311,9.550825,1.88236711409351071759,-0.95588505,10.453085,-0.40581718,1.1317508,9.568311,1.82673951409351071763,-0.38845924,10.825981,-0.84216046,1.0756605,9.588509,1.75324611409351071783,0.30526072,11.086949,-1.0522517,1.0156878,9.610567,1.66606961409351071784,0.63206923,10.799645,-1.2324153,0.95312285,9.632049,1.57657661409351071793,0.664391,9.931747,-1.0187328,0.88977623,9.651045,1.49532951409351071815,0.46746787,8.995016,0.45489833,0.81880105,9.665742,1.43993151409351071816,-0.1316811,8.388684,1.021127,0.738521,9.675388,1.41838481409351071821,-0.3573346,8.644265,1.5292963,0.6466798,9.683361,1.40879871409351071844,-0.581791,8.892664,1.6490064,0.54709846,9.691436,1.395411409351071845,-0.49081135,8.80767,1.5622166,0.4424969,9.700083,1.37222931409351071859,-0.48961425,8.412027,1.1552023,0.33935383,9.708382,1.34259891409351071862,-0.4381389,7.8595657,0.50637364,0.23782767,9.715999,1.30888551409351071875,-0.5967548,7.6003933,-0.09876082,0.1381256,9.722966,1.27092861409351071892,-0.6913257,7.8146744,-0.23463176,0.041461416,9.729518,1.22683621409351071911,-0.91578215,8.333617,-0.21906945,-0.051012814,9.735185,1.18065421409351071913,-1.0247183,8.774151,-0.090979666,-0.13425489,9.739791,1.13525951409351071914,-0.9756372,8.798691,-0.054468088,-0.20678553,9.742714,1.09871271409351071922,-0.9032126,8.540117,-0.27353755,-0.27360043,9.743768,1.07449251409351071942,-0.86251116,8.206126,-0.4417302,-0.34101063,9.743657,1.05607131409351071944,-0.9247604,7.9732904,-0.45130703,-0.4148447,9.74321,1.0335241409351071961,-0.75357497,8.223484,-0.22505496,-0.49656397,9.742791,1.00092771409351071962,-0.079008654,9.032125,-0.051475335,-0.5810674,9.742244,0.959923151409351071976,0.6727707,9.6288805,0.12210429,-0.6566331,9.741468,0.918168251409351071997,1.2916719,9.657611,0.16879122,-0.7197673,9.740024,0.885603961409351071999,2.369661,8.899846,0.40462008,-0.7726447,9.737588,0.867647771409351072002,2.553416,8.89446,0.7134721,-0.8154193,9.734786,0.859898571409351072034,2.4947581,8.902839,0.96546185,-0.8481068,9.730948,0.87163551409351072035,2.405574,8.8884735,1.1174936,-0.8737699,9.725368,0.90782221409351072037,2.1823149,8.723872,1.1953052,-0.89822984,9.7176485,0.96480611409351072043,1.9907787,8.637681,1.1665748,-0.92910093,9.707947,1.03100131409351072062,1.9273324,8.6095495,0.91817635,-0.9703547,9.6969795,1.09425371409351072083,2.0368671,8.796297,0.7697359,-1.0219448,9.685349,1.14891761409351072086,2.2529438,9.082404,0.7637503,-1.0773159,9.673625,1.19614321409351072089,2.4139538,9.296086,1.0636241,-1.1303949,9.661928,1.24086521409351072096,2.3517046,9.272144,1.5167267,-1.1776348,9.650007,1.28876831409351072115,2.066196,9.062652,2.385822,-1.2229064,9.637172,1.3415661409351072117,1.4772224,8.919,2.6539726,-1.2654887,9.622766,1.40403191409351072122,0.5021838,8.923788,2.3995886,-1.308059,9.607214,1.46997211409351072149,0.023942016,8.974665,2.0895395,-1.3533902,9.591416,1.53083341409351072151,0.21787235,8.824429,1.376666,-1.3967284,9.576694,1.58319251409351072153,0.9211691,8.878299,0.7757214,-1.4344478,9.564484,1.6227781409351072184,1.6418238,9.4217825,0.8475474,-1.4659984,9.555961,1.6446471409351072187,1.939902,9.858126,1.292869,-1.4915266,9.551628,1.64685191409351072190,1.0959458,10.101735,1.7196354,-1.5109775,9.550186,1.63746331409351072228,0.7308301,10.231621,2.582745,-1.5289334,9.549692,1.62362731409351072231,0.6536171,10.200497,2.967613,-1.5357456,9.550824,1.61047771409351072235,0.997185,9.952098,2.8060043,-1.5334113,9.553099,1.59916761409351072238,1.4969746,9.924564,3.1148565,-1.5078866,9.559807,1.58327941409351072242,1.7753005,10.463859,3.292626,-1.4539028,9.570956,1.56631861409351072245,1.5903485,11.241376,2.4007857,-1.3785945,9.586864,1.53684911409351072260,0.6841431,11.492766,0.80205756,-1.2956989,9.6082,1.47446691409351072274,-0.84575176,10.981006,-0.62488663,-1.2166727,9.633713,1.37174431409351072275,-2.3008277,10.234613,-1.3317747,-1.1472743,9.660151,1.23922121409351072290,-3.3315318,9.83957,-1.9859903,-1.0836939,9.6858015,1.08686021409351072295,-4.5723267,10.320805,-2.2170308,-1.0209732,9.709855,0.92016611409351072316,-5.603629,12.491149,-2.1906946,-0.96061593,9.730064,0.75727481409351072317,-6.142923,16.160862,-2.043451,-0.90394783,9.746282,0.6027181409351072322,-5.553351,19.243994,-1.851915,-0.8540887,9.757575,0.480259121409351072354,-4.8225207,19.607315,-1.8752584,-0.79079735,9.766487,0.400927841409351072355,-5.1463366,18.142662,-1.4239515,-0.71600735,9.773757,0.36252531409351072356,-4.999093,15.195399,-0.32800564,-0.6612567,9.777585,0.363274481409351072387,-4.4400473,12.050017,1.0528502,-0.6254117,9.778007,0.412090631409351072390,-3.0298622,7.4507556,3.2716765,-0.59449,9.775667,0.503279151409351072393,-3.8905778,8.677185,4.402937,-0.54708415,9.771946,0.616569641409351072437,-3.2704794,11.205462,4.63278,-0.5030938,9.76655,0.72923521409351072440,-2.3971944,10.751163,4.1132383,-0.4411561,9.761978,0.824357451409351072445,-1.4329298,8.287529,2.8233624,-0.34332335,9.761303,0.877216761409351072446,0.11851298,8.716091,2.1410148,-0.22537725,9.763147,0.89473941409351072448,0.9708488,8.814254,1.2850877,-0.08615312,9.767449,0.87172271409351072449,0.96306765,8.41921,0.44472298,0.06450342,9.771829,0.82314851409351072463,1.3401544,8.3408,-0.27593175,0.20980746,9.774608,0.76382581409351072465,1.4024036,8.046912,-0.53570265,0.3415787,9.7754965,0.702395141409351072478,1.9177556,7.9864583,-0.62249243,0.45737517,9.774158,0.653501331409351072497,1.6136919,7.3310456,-0.3716998,0.5655444,9.769954,0.631317141409351072500,1.204882,6.725911,0.089184016,0.6616354,9.763113,0.643635871409351072502,1.2491747,6.2985463,0.6410475,0.7447329,9.754276,0.68545731409351072535,1.5478514,6.0483522,1.0749966,0.8195183,9.743701,0.747712141409351072536,1.7561469,5.7736173,1.3557167,0.8918324,9.731323,0.822428941409351072538,1.8620903,5.4408236,1.4568717,0.96231526,9.717666,0.90073981409351072561,1.8405426,4.9667716,1.5466543,1.0267019,9.703553,0.97843681409351072563,1.9776106,4.7901993,1.7022774,1.0822648,9.689936,1.05083081409351072565,2.1092918,4.9919105,1.7465701,1.1294018,9.677321,1.11547841409351072574,2.0602105,5.3767786,1.7172412,1.1685779,9.666198,1.17023581409351072596,1.977012,5.875371,1.7375919,1.1994678,9.657079,1.21346551409351072598,1.9973627,6.4511766,1.8513165,1.2204362,9.650595,1.24377171409351072603,2.207454,7.03596,2.136825,1.2296515,9.64696,1.26273521409351072634,2.498948,7.7572136,2.4552538,1.2272867,9.645822,1.27369281409351072637,2.9538465,8.723872,2.743755,1.2151824,9.646746,1.27829851409351072639,2.984971,9.701305,3.2842462,1.1968213,9.648672,1.2810681409351072645,3.417723,10.809222,3.2860417,1.1755263,9.650985,1.28335821409351072668,3.7367504,11.774684,3.1950622,1.1518153,9.65361,1.28512221409351072670,3.5553896,11.968615,3.1214404,1.1300672,9.656136,1.28545341409351072675,2.9670146,11.641806,3.4919431,1.1081535,9.658716,1.2851491409351072700,1.6208745,13.491326,3.9923313,1.0808808,9.660672,1.29364881409351072702,0.7164649,14.918271,3.2345665,1.0419121,9.662112,1.31468941409351072703,0.90620536,14.802152,1.7088615,1.0032068,9.664653,1.32607291409351072725,1.7956513,13.474567,0.48243165,0.98986,9.667458,1.31560841409351072727,3.3512838,11.547833,0.53330845,1.0084537,9.666116,1.31134971409351072744,5.519832,10.284892,1.5729905,1.057012,9.655489,1.3507981409351072748,4.8069587,10.472239,8.057686,1.1348597,9.636828,1.41916841409351072755,4.134786,14.604032,6.9743094,1.2312642,9.600395,1.5769571409351072789,3.229778,17.570448,4.4807487,1.3399633,9.562196,1.71444651409351072791,0.61112,15.479712,3.74094,1.4478607,9.534665,1.77883221409351072793,-1.7657237,12.53185,2.8365304,1.5201304,9.51826,1.80619681409351072808,-2.5067291,11.114483,0.75237787,1.5516056,9.510019,1.82275351409351072809,-1.9147629,11.281479,0.86849666,1.5531335,9.50604,1.84211251409351072823,-1.4891934,11.616667,1.1025299,1.5315717,9.501867,1.88127281409351072824,-1.8195933,11.714231,0.21547815,1.4887437,9.501839,1.91549021409351072840,-2.3259668,10.696694,-0.6733692,1.424198,9.511663,1.91580961409351072843,-2.3391352,9.6923275,-0.6967127,1.3468746,9.527997,1.89040081409351072857,-2.19668,9.197925,-0.14185645,1.2744772,9.543838,1.86044171409351072876,-1.8285716,8.835801,-0.18674773,1.1984447,9.557824,1.83904661409351072878,-1.3377602,8.811261,-0.2777274,1.1306397,9.57055,1.81565491409351072883,-0.7344214,8.641273,-0.16699557,1.0675133,9.584747,1.77860431409351072927,-0.002394202,8.432379,0.14903906,1.0042492,9.600705,1.72868861409351072929,0.38965634,8.575432,0.41060558,0.9389155,9.616763,1.6753141409351072932,0.35673606,8.897452,0.7368156,0.8710816,9.631589,1.62607061409351072935,0.18435353,8.866926,1.1300632,0.80051416,9.644204,1.58710121409351072937,-0.56203884,9.139865,1.1049241,0.7271234,9.655059,1.55612961409351072963,-0.84694886,9.4535055,0.97862995,0.64541554,9.666922,1.51804291409351072964,-1.0666169,9.34038,0.7721301,0.5602626,9.67925,1.47262141409351072965,-1.1623849,8.8567505,0.39444473,0.4741216,9.692367,1.41548741409351072987,-1.3150153,8.48984,-0.14185645,0.39047384,9.704741,1.35497641409351072988,-1.4209588,8.436568,-0.37708676,0.30711478,9.715928,1.29492371409351073015,-1.3156139,8.599973,-0.30286652,0.22494343,9.725774,1.23657581409351073017,-0.9331401,9.084799,-0.18854338,0.14906655,9.73407,1.18155291409351073019,-0.65062433,9.499594,-0.08499416,0.08843909,9.740389,1.13462071409351073023,-0.59376204,9.545084,-0.008978256,0.04434956,9.744532,1.1011451409351073050,-0.40043023,9.01417,0.12988544,0.006135306,9.746338,1.0859481409351073053,-0.4249708,8.742428,0.022744916,-0.037673935,9.746053,1.08785271409351073055,-0.35075054,8.861539,-0.0712275,-0.095275246,9.74531,1.09098031409351073082,-0.40222588,8.865729,0.092176765,-0.16013858,9.744785,1.08807611409351073084,-0.39504328,9.058462,0.219668,-0.2392667,9.745037,1.0711681409351073086,0.110133275,9.052477,0.15322891,-0.32905686,9.745273,1.04487731409351073115,1.0067618,9.685743,0.12210429,-0.41820228,9.744781,1.01723911409351073117,1.6358383,9.466674,0.08080431,-0.4933213,9.743582,0.99481111409351073119,2.019509,9.169792,0.31244332,-0.55204856,9.741565,0.98364751409351073123,2.123657,8.726865,1.0235212,-0.59924424,9.7378845,0.9924281409351073148,2.059612,8.639477,1.4077905,-0.6412678,9.731008,1.03278661409351073149,1.6927006,8.494029,1.5891514,-0.68256885,9.720847,1.09983461409351073159,1.3329718,8.316259,1.429937,-0.72980314,9.708256,1.17794971409351073175,1.122282,8.12233,1.1061212,-0.788894,9.694454,1.25124451409351073176,1.0708067,8.076241,0.79367787,-0.85548097,9.6802225,1.3159931409351073183,1.1426327,8.357559,0.7260417,-0.93009347,9.666262,1.36700281409351073206,1.2330139,8.827422,0.8583213,-1.0051976,9.653129,1.40608181409351073208,1.3628993,9.137471,1.0498575,-1.0734134,9.640825,1.43966881409351073223,1.4790181,9.257181,1.3479356,-1.133901,9.628648,1.47439151409351073225,1.5741876,9.267356,1.8339585,-1.1928217,9.61526,1.51470851409351073243,1.3934253,9.069835,1.9434932,-1.2542502,9.599969,1.56137241409351073245,1.0582372,8.827422,1.797447,-1.3215051,9.583116,1.60871409351073254,0.87567925,8.726267,1.3946224,-1.3918954,9.565556,1.65323411409351073269,0.85293436,8.586804,1.0205284,-1.4598641,9.548394,1.69333151409351073288,1.210269,8.814254,1.0696096,-1.5214665,9.532111,1.73042981409351073289,1.7082629,9.448717,1.3820529,-1.5758753,9.517122,1.76392011409351073310,1.7735049,10.050261,1.8914193,-1.6166902,9.505073,1.79172651409351073311,1.6250644,10.603919,2.284667,-1.6473109,9.495252,1.81575141409351073315,1.6005238,10.641029,3.2303767,-1.668419,9.487911,1.83475141409351073323,1.3335704,10.375273,3.7116113,-1.6783202,9.48335,1.84925071409351073345,1.1258733,9.55885,3.1112652,-1.6770494,9.482786,1.85329141409351073346,0.92655605,8.943541,2.5755625,-1.6611284,9.487784,1.84200881409351073354,0.53450555,9.41879,2.6030958,-1.6242584,9.498657,1.81871131409351073372,-0.02633622,10.445304,1.7609353,-1.5691011,9.515635,1.77793041409351073390,-0.76075757,10.62008,0.3477578,-1.5053346,9.539885,1.70146161409351073395,-1.7615339,9.840169,-0.7074866,-1.4468452,9.567401,1.59431841409351073416,-2.617461,9.143456,-1.252766,-1.3818322,9.599017,1.45595291409351073418,-3.3602622,9.139865,-1.5801731,-1.307824,9.6327715,1.29216211409351073420,-4.2437224,10.242993,-1.5993267,-1.2233264,9.665924,1.11525031409351073426,-4.9823337,12.930485,-1.3844471,-1.13256,9.6949215,0.94668051409351073448,-4.4196963,16.900072,-0.9068039,-1.0390769,9.717838,0.80891871409351073449,-3.1824925,19.532495,-0.33997664,-0.92602855,9.736768,0.71288861409351073455,-2.7988217,19.608511,-0.031124622,-0.7840341,9.753188,0.656504631409351073471,-3.144784,19.033304,0.59735334,-0.6407995,9.76516,0.63358321409351073494,-3.3692403,15.794549,1.3982137,-0.5266806,9.770847,0.650800051409351073496,-3.0585926,12.130223,2.2655134,-0.44611764,9.770513,0.71308181409351073498,-2.2469583,7.3232646,3.6631286,-0.37227687,9.767047,0.79787581409351073503,-2.6192567,8.84478,4.252701,-0.30581042,9.76013,0.90373191409351073535,-2.4121583,10.908582,4.162918,-0.24855858,9.751516,1.00824791409351073536,-1.5885528,9.8042555,3.3722332,-0.1811201,9.744265,1.08946361409351073538,-0.107140526,9.496002,2.9221232,-0.08432927,9.74138,1.12640491409351073565,0.6787562,8.389881,2.2481554,0.043711353,9.741872,1.12445781409351073566,1.1139023,7.9822683,1.234211,0.18932888,9.743089,1.09853241409351073568,1.0079589,7.8595657,0.59855044,0.33605114,9.743468,1.05937841409351073593,1.7531542,8.03554,0.049081136,0.46929988,9.742855,1.01337791409351073595,2.019509,8.133103,-0.12389994,0.59337234,9.740702,0.967997851409351073597,1.8776526,8.291121,-0.078410104,0.7122558,9.736568,0.9286171409351073603,1.3880384,7.9834657,-0.007182605,0.8169008,9.729955,0.91161111409351073626,0.7398083,7.3406224,0.27114335,0.90281415,9.721152,0.9243981409351073628,0.5279215,6.9437833,0.87448215,0.97205216,9.7108345,0.96188811409351073636,0.47225627,6.4781113,1.3964181,1.0316002,9.699069,1.01699711409351073662,0.54408234,6.0746884,1.6627731,1.0868781,9.685567,1.08575551409351073664,0.6607997,5.779603,1.9057846,1.1384745,9.670994,1.1602341409351073666,0.8924387,5.6150017,2.1134815,1.1859423,9.656199,1.23359171409351073697,1.1300632,5.593454,2.1883004,1.2295119,9.641861,1.30122891409351073698,1.5251064,5.805939,1.8806454,1.2692592,9.628653,1.35956631409351073700,1.5005659,5.8837504,1.6316484,1.3054502,9.617547,1.40320721409351073704,1.6172832,6.1357403,1.5095441,1.3387192,9.607907,1.43748551409351073718,1.7609353,6.4607534,1.4341269,1.3657873,9.601471,1.45491961409351073725,1.8836381,6.770204,1.3892355,1.3864757,9.598347,1.45596611409351073737,2.1631613,7.225701,1.5520413,1.3996236,9.598389,1.44304961409351073759,2.533664,7.9092455,1.9818004,1.4032719,9.601345,1.41965271409351073760,2.918532,8.805275,2.6922798,1.3970863,9.60635,1.39160781409351073764,3.3704374,9.827001,3.318962,1.3831515,9.611822,1.36753681409351073797,3.6403837,10.621277,3.6260185,1.3346783,9.622234,1.3422491409351073799,4.343082,11.140221,3.1932666,1.3346783,9.622234,1.3422491409351073801,4.4155064,10.68652,2.5797524,1.3346783,9.622234,1.3422491409351073804,3.3650506,11.421539,2.7311857,1.3215594,9.625814,1.32950831409351073824,1.1905168,14.332889,3.5356374,1.2961922,9.630639,1.31948661409351073826,0.7386112,14.904504,2.40318,1.2393494,9.636948,1.32802031409351073835,1.1067197,14.337078,0.8631097,1.1881323,9.642465,1.3347731409351073866,2.15538,12.85387,-0.05626374,1.1757276,9.644856,1.32847361409351073869,3.6721067,11.405977,0.6823475,1.2007731,9.640963,1.33431111409351073870,5.523423,10.1304655,5.844845,1.2521145,9.627413,1.38403081409351073898,4.2155905,12.320562,8.430583,1.339582,9.596741,1.5094651409351073899,3.1064768,16.07048,7.018004,1.4338797,9.556928,1.66718071409351073901,2.0326772,17.082628,3.016694,1.5206943,9.522843,1.78139271409351073903,-0.8972271,14.4609785,2.7036524,1.5925848,9.505445,1.81124031409351073920,-3.4195185,11.459248,2.1057005,1.6315804,9.494663,1.83294791409351073923,-3.5757403,10.684125,0.7080852,1.6390778,9.4904,1.84827421409351073939,-2.9640217,11.288062,0.60214174,1.622885,9.487779,1.87581541409351073943,-2.6581624,11.902175,0.53689975,1.584284,9.48581,1.91829341409351073955,-2.695871,11.77648,-0.37469256,1.5226014,9.489182,1.95128231409351073969,-2.569577,11.1174755,-0.8762778,1.4466739,9.500496,1.9539921409351073988,-2.1332338,10.889428,-0.7577648,1.3684865,9.516132,1.93413461409351073989,-1.7489643,10.887632,-0.74519527,1.2918448,9.53228,1.90713191409351074006,-1.3730747,10.5841675,-0.5530606,1.2180679,9.548532,1.87410151409351074007,-0.7368156,9.721656,-0.10055647,1.1464093,9.565199,1.83388111409351074015,0.09995792,8.849568,0.28072014,1.0756178,9.581336,1.79204551409351074035,0.6619968,8.202535,0.6039374,1.0063035,9.595849,1.75426191409351074036,0.88645315,7.937377,1.0845734,0.9349723,9.609295,1.71978821409351074066,0.94930094,7.973889,1.590947,0.8607821,9.620663,1.6947911409351074068,0.44771573,8.292916,2.1865046,0.78590035,9.629944,1.67837311409351074070,-0.0664391,8.511387,2.1428106,0.70607454,9.638483,1.66478811409351074097,-0.4369418,8.684967,1.8764555,0.61994576,9.648244,1.64239781409351074098,-0.7697359,8.683171,1.2952632,0.5278051,9.660122,1.60432231409351074100,-1.1725603,8.378509,0.55605334,0.43336418,9.673348,1.55207131409351074103,-1.1965023,7.9852614,-0.26874915,0.33963674,9.686392,1.49293411409351074122,-1.5454572,7.7853456,-0.8110358,0.25100175,9.698177,1.43274371409351074123,-1.4790181,7.98167,-0.56982,0.1666569,9.708322,1.37518451409351074135,-1.3359646,8.813655,-0.19572599,0.08763788,9.716619,1.32289231409351074167,-1.435324,9.527725,-0.19393034,0.019942371,9.722336,1.28303921409351074169,-1.5095441,9.545682,-0.4249708,-0.03641827,9.72573,1.25667441409351074171,-1.3359646,9.0554695,-0.7116765,-0.09046755,9.727295,1.24175111409351074197,-1.1270704,8.810662,-0.60214174,-0.1535128,9.727532,1.23367181409351074198,-1.067814,8.9519205,-0.43394905,-0.23228113,9.727016,1.2254061409351074200,-0.9947908,9.48882,-0.42078096,-0.32877815,9.726234,1.20940271409351074204,-0.4165911,9.174581,-0.5931635,-0.43954664,9.725254,1.18180811409351074239,0.93014735,9.0315275,-0.13826515,-0.54929227,9.723675,1.14840211409351074241,2.2780828,9.497798,0.38845924,-0.6410368,9.7208185,1.12479131409351074247,2.6485856,8.6017685,0.6368576,-0.71238536,9.717169,1.11335031409351074250,2.966416,8.025963,1.4251486,-0.7708322,9.711317,1.12540951409351074256,2.521693,7.8356237,1.5280992,-0.82058436,9.702901,1.16222011409351074281,2.1230583,7.6045833,1.4640543,-0.8715797,9.6919565,1.21521481409351074284,1.8555063,7.4363904,1.299453,-0.9287094,9.678999,1.27469531409351074286,1.9710265,7.518392,1.216853,-0.9935449,9.665195,1.32938771409351074313,2.0368671,7.69257,1.3186066,-1.0603004,9.651896,1.37369871409351074316,2.0003555,7.9595237,1.4580688,-1.1239572,9.639435,1.4101141409351074318,1.839944,8.228871,1.6142905,-1.1802415,9.627996,1.44191371409351074345,1.5454572,8.468291,1.7950528,-1.2304014,9.616877,1.47384271409351074347,1.1354501,8.714894,2.417545,-1.2775903,9.605128,1.50985411409351074349,0.78410107,8.825027,2.4648306,-1.3263327,9.5918865,1.55142871409351074375,0.36631286,8.817844,1.7794905,-1.3763775,9.577707,1.59483281409351074377,0.22565351,8.977059,1.3634979,-1.4285678,9.564551,1.62755431409351074379,0.40821138,9.411607,1.1162965,-1.475735,9.554395,1.64503591409351074384,0.86251116,9.912594,1.0923545,-1.5130879,9.547706,1.64994261409351074409,1.2479776,10.495582,1.3569138,-1.5381715,9.5442295,1.64684871409351074411,1.3072342,10.801441,1.6741456,-1.5513431,9.543843,1.63670121409351074420,0.9947908,10.701483,1.6394296,-1.5557175,9.545308,1.6239571409351074446,0.6266823,10.479421,1.3096284,-1.5554426,9.547859,1.60915461409351074448,0.41060558,10.044274,1.8495208,-1.5491847,9.552884,1.58519181409351074449,0.7649474,9.6767645,1.5280992,-1.5339344,9.559464,1.56015841409351074456,1.496376,9.655217,0.91099375,-1.5099045,9.569433,1.52201641409351074479,2.2882583,10.0664215,1.7663223,-1.4597534,9.584288,1.47679771409351074482,2.508525,10.694301,2.1960814,-1.378357,9.602176,1.43830911409351074484,1.6346412,10.685322,1.5077485,-1.276312,9.622617,1.39523831409351074508,-0.014963761,9.794081,0.92775315,-1.1738895,9.64536,1.32643071409351074510,-1.9285295,8.838196,0.65182143,-1.0794028,9.669256,1.22912791409351074516,-3.2231941,8.690952,0.5129577,-0.9922937,9.69214,1.11721611409351074548,-4.382586,9.903017,0.5614403,-0.90822345,9.712322,1.00812851409351074550,-5.319318,13.133393,0.7026982,-0.8315672,9.728666,0.912107051409351074551,-4.903325,17.690157,0.23223756,-0.76778674,9.741185,0.83078641409351074569,-3.781043,19.608511,-1.4622587,-0.7029387,9.752879,0.7467341409351074571,-4.361637,19.608511,-2.6713305,-0.6149898,9.765996,0.646152261409351074586,-4.5423994,19.608511,-2.1888988,-0.5364878,9.777683,0.528686171409351074587,-3.9312792,17.892467,-0.5422867,-0.47565952,9.78541,0.435757731409351074605,-3.169923,14.089877,1.423353,-0.423637,9.788426,0.421443551409351074606,-2.309806,10.661979,3.0663738,-0.37434718,9.78727,0.489518761409351074615,-2.2637177,8.194754,4.594473,-0.3246651,9.7826605,0.603777051409351074635,-2.6671407,11.449671,4.5675383,-0.2735979,9.77592,0.725907561409351074637,-0.842759,11.747749,3.7074213,-0.21741986,9.769184,0.82836011409351074657,-0.05805939,9.725247,2.321777,-0.11556597,9.7657995,0.88668481409351074659,0.7009025,8.726267,1.3934253,0.017219577,9.765723,0.894836251409351074664,1.1875241,8.3629465,0.84455466,0.15640695,9.765651,0.88204011409351074689,1.5682021,8.079832,0.2124854,0.29338974,9.765375,0.849558231409351074696,1.6723499,7.7159133,-0.16639702,0.42416832,9.763763,0.81203061409351074699,2.2266076,7.6668324,-0.3561375,0.5445553,9.760413,0.7798651409351074734,2.2499511,7.6973586,-0.20171149,0.65618044,9.755085,0.76036831409351074736,1.7711107,7.4106526,0.090979666,0.75671494,9.747521,0.763922871409351074740,0.8888474,6.329671,0.3866636,0.8429517,9.737908,0.795578961409351074742,0.44352585,5.4779334,0.7673417,0.91005045,9.726999,0.853052141409351074758,0.3226187,5.0661306,1.2437878,0.9649057,9.714659,0.92991181409351074759,0.4165911,4.841076,1.6089035,1.0162001,9.70057,1.01816421409351074764,0.5422867,4.8285065,1.8327614,1.0662904,9.685161,1.10954231409351074790,0.5758055,4.8261123,1.9315223,1.1146338,9.669132,1.19828031409351074794,0.6572084,4.8961425,2.0620062,1.1573404,9.653908,1.27789251409351074796,0.7026982,5.065532,2.2643163,1.1930307,9.640643,1.34352981409351074806,1.1653777,5.7640405,1.5334862,1.2219552,9.629844,1.39404111409351074824,1.5269021,6.3218894,1.3293805,1.2451153,9.622669,1.42278421409351074826,1.8764555,6.701969,1.3036429,1.2598202,9.619581,1.43069451409351074839,2.1583729,6.992266,1.5185224,1.2640387,9.620415,1.42134831409351074858,2.4049757,7.249643,1.899799,1.2556164,9.624447,1.40136951409351074860,2.6366146,7.632715,2.304419,1.2342039,9.630583,1.3780371409351074865,2.867655,8.271967,2.6689363,1.2015164,9.637752,1.35664261409351074899,3.032855,9.190742,2.959832,1.1659145,9.644642,1.33862851409351074900,3.0280666,10.026319,3.25372,1.1222355,9.651392,1.32726181409351074902,3.093907,10.390836,3.0520086,1.0745692,9.657363,1.32326461409351074920,2.5719712,9.962274,3.019687,1.0291691,9.662825,1.31947961409351074922,1.4640543,11.694478,3.6445735,0.9837998,9.668301,1.31396581409351074925,-0.15801731,14.858416,3.517681,0.9350642,9.672832,1.31619871409351074936,-0.23882163,15.9417925,1.8537107,0.8801405,9.676672,1.32581281409351074950,0.7206547,15.102624,0.6422446,0.85764843,9.679914,1.31685331409351074966,2.5905263,13.846866,0.04369418,0.8875988,9.678693,1.3059311409351074968,3.98874,11.422736,0.8475474,0.96158516,9.668397,1.32960241409351074984,4.8320975,8.833407,3.401562,1.0608879,9.647218,1.4057411409351074986,5.9322333,9.223662,6.6469026,1.1753865,9.617122,1.51652441409351075002,4.083311,17.02457,7.354389,1.3233309,9.57354,1.6632911409351075018,2.0775685,16.57087,4.3526587,1.460643,9.529252,1.79729181409351075020,-1.0193313,14.061745,3.003526,1.5533175,9.502423,1.86053131409351075032,-2.7862523,12.25113,0.59256494,1.5850691,9.491833,1.88761061409351075036,-2.505532,12.792818,-0.31244332,1.5742267,9.493863,1.88647221409351075057,-2.284667,13.475764,0.5267244,1.5339881,9.500923,1.88406971409351075059,-2.3630772,13.059772,-0.23702596,1.4686111,9.5093,1.89388251409351075065,-2.861071,11.425131,-0.86131406,1.3899094,9.522198,1.88845931409351075096,-2.8443117,9.698313,-0.24181437,1.3042263,9.538059,1.86943761409351075097,-2.541445,8.847773,0.5243302,1.2206149,9.551465,1.85742821409351075099,-2.1625626,8.504205,0.6853402,1.1483531,9.558899,1.86524621409351075118,-1.6196774,8.645462,0.45609543,1.0831451,9.563445,1.88088641409351075119,-0.86729956,8.747814,0.3321955,1.0255597,9.57066,1.87645711409351075134,0.23762453,8.752603,0.51235914,0.96937716,9.582719,1.84449921409351075151,0.9498995,8.6496525,0.53091425,0.91328347,9.597711,1.79450181409351075152,1.1432313,8.590396,0.4345476,0.8545661,9.613523,1.73789381409351075165,1.1510124,8.782531,0.60214174,0.7911119,9.628521,1.6840861409351075166,0.78050977,8.929773,0.7846996,0.72186637,9.642109,1.63677551409351075187,0.1921347,8.980052,0.87567925,0.6460081,9.655144,1.59099421409351075189,-0.7739257,9.224859,0.85413146,0.5622592,9.669088,1.5372081409351075199,-1.079785,9.187749,0.56922144,0.46987364,9.683315,1.47750411409351075219,-1.3311762,8.956709,0.14963761,0.3753131,9.69787,1.40742651409351075220,-1.3036429,8.7849245,-0.0664391,0.2814375,9.711124,1.33613721409351075234,-1.1988965,8.619724,-0.24899697,0.1896153,9.722086,1.27100961409351075236,-1.2749124,8.819042,-0.4441244,0.10395143,9.730728,1.21347251409351075249,-1.1869255,9.438541,-0.18734628,0.029676732,9.7376175,1.16118411409351075264,-1.1731589,9.90601,0.09696517,-0.029112041,9.742687,1.11785891409351075266,-1.3144168,9.628283,0.054468088,-0.07746015,9.7455435,1.0903091409351075281,-1.2641385,8.893861,-0.19632454,-0.12546451,9.745987,1.08185461409351075285,-1.0384849,8.607155,-0.46986207,-0.18085535,9.74489,1.0838861409351075305,-1.174356,8.4904375,-0.60333884,-0.24685596,9.743895,1.07979371409351075307,-1.2246342,8.640076,-0.39324763,-0.32066098,9.742995,1.06846691409351075339,-0.8283938,9.013571,-0.053869538,-0.40869084,9.742352,1.04400351409351075340,-0.3537433,8.650849,-0.004788403,-0.50232583,9.741155,1.01388081409351075345,1.0187328,9.71986,0.16160862,-0.59268785,9.738915,0.98622611409351075347,1.6400281,9.61691,0.16998832,-0.66647327,9.736074,0.96699131409351075377,2.2493525,8.944737,0.45848963,-0.72590053,9.732001,0.9652051409351075379,2.521693,8.356961,0.97025025,-0.77472585,9.725942,0.98805761409351075381,1.8201919,8.069656,1.234211,-0.8182029,9.717139,1.03832541409351075387,1.4197617,8.052299,1.4814123,-0.86719346,9.705115,1.10865891409351075407,1.2509704,8.045714,1.376666,-0.92274046,9.690929,1.18524831409351075409,1.2904748,8.016386,0.9995792,-0.98325497,9.675793,1.25802041409351075417,1.4933833,8.152257,0.80684596,-1.0478806,9.660966,1.31837081409351075440,1.7100586,8.526949,0.9163807,-1.111905,9.647336,1.36491331409351075444,1.8064252,8.862138,1.1749545,-1.1698079,9.634961,1.40338481409351075446,1.6777369,8.904634,1.5215151,-1.2191883,9.623015,1.44276171409351075474,1.3790601,8.854357,2.0440497,-1.2625202,9.609989,1.49149581409351075477,1.074398,8.755595,2.533664,-1.3053663,9.594621,1.55230491409351075479,0.7954735,8.677185,2.3259668,-1.3508137,9.577009,1.62066821409351075486,0.6703765,8.768166,1.9087774,-1.3994074,9.558911,1.68501851409351075513,0.9403227,8.872313,1.3724761,-1.4465772,9.542555,1.73708131409351075515,1.5346833,8.993818,0.91219085,-1.4869334,9.5298815,1.77222851409351075517,2.2403743,9.5798,1.0636241,-1.5190859,9.520186,