time,acc_x,acc_y,acc_z,gravity_x,gravity_y,gravity_z1409526959084,-1.6927006,10.414179,0.8571242,2.3037598,8.987799,3.17530781409526959089,-0.8888474,9.761759,0.85054016,2.2151566,9.017028,3.15542391409526959119,-0.56682724,9.422979,0.91578215,2.1440032,9.044759,3.12505871409526959120,-0.45609543,9.045294,1.1294646,2.0819418,9.070005,3.09368681409526959121,-0.23283611,8.688558,1.4544775,2.0217783,9.090947,3.07205081409526959121,0.142455,8.719084,1.7950528,1.9654957,9.111912,3.04635571409526959127,0.23403321,8.9758625,1.9602526,1.911758,9.137652,3.0031431409526959153,0.492607,9.509769,2.0733786,1.8569665,9.16904,2.94122241409526959154,0.6907272,9.866506,1.8076223,1.7993327,9.20346,2.86864111409526959156,0.95349085,10.3770685,1.5580268,1.7380397,9.23833,2.79336711409526959167,0.9588778,10.561422,1.3772645,1.674955,9.271932,2.71959731409526959182,0.81343,10.5123415,1.204882,1.6105465,9.304793,2.64525271409526959202,0.52732295,10.0664215,1.0594343,1.5446168,9.338206,2.5656291409526959203,0.14844051,9.448717,0.8798691,1.4767425,9.370982,2.48481851409526959207,-0.13587095,8.904634,0.81163436,1.4094977,9.4024315,2.4037441409526959216,-0.3878607,8.35337,0.7727286,1.3426319,9.430774,2.32986041409526959233,-0.58298814,7.997831,0.7721301,1.2772362,9.455141,2.2670191409526959249,-0.7230489,8.079832,0.85891986,1.2144697,9.475706,2.21505171409526959250,-0.7326257,8.207323,0.83737206,1.1542993,9.493192,2.17193081409526959266,-0.7230489,8.319252,0.6464345,1.095722,9.508599,2.13455771409526959268,-0.6787562,8.535329,0.38965634,1.0353216,9.523426,2.0983051409526959281,-0.7062895,8.552687,0.2741361,0.96799284,9.539799,2.05563141409526959298,-0.6380547,8.640674,0.30166942,0.8921479,9.558525,2.0022641409526959299,-0.3824737,8.191162,0.36750996,0.8088827,9.578803,1.93974411409526959312,0.12749124,7.800309,0.635062,0.72691613,9.598013,1.87619541409526959316,0.94211835,7.969699,0.9888053,0.6453677,9.615349,1.816311409526959332,1.4945804,7.9463553,1.3431472,0.5742498,9.629269,1.76573541409526959353,1.7812861,7.6985555,1.6304513,0.51601505,9.639098,1.72971491409526959354,1.946486,7.583634,1.9919758,0.46664077,9.645167,1.70978921409526959365,2.1242554,7.7811556,1.9967642,0.42075565,9.648229,1.70441561409526959368,2.2816741,8.226477,1.9434932,0.37701735,9.649671,1.7064831409526959388,2.3187842,8.726267,1.9195513,0.3338586,9.650473,1.7109361409526959389,2.2403743,9.221268,1.8531121,0.28892946,9.650889,1.71676021409526959396,2.1452048,9.526528,1.6089035,0.24055006,9.65115,1.72274971409526959416,2.0757728,9.677961,1.5729905,0.19092546,9.651495,1.72701261409526959418,2.0350714,9.754577,1.7657237,0.14175372,9.651051,1.73422741409526959443,1.858499,10.208876,2.203264,0.09812749,9.648533,1.75116341409526959445,1.5412674,10.213066,3.0615854,0.060176823,9.643609,1.77977281409526959448,1.5520413,10.376471,3.008913,0.025485594,9.635955,1.8215721409526959470,1.6346412,10.767922,2.6761189,-0.005966799,9.627499,1.8659121409526959471,1.83336,10.914567,2.4612393,-0.034005,9.620002,1.9038931409526959476,2.617461,10.813412,1.8734628,-0.05552483,9.613823,1.9343491409526959500,3.300407,10.596138,1.9608512,-0.06606208,9.608578,1.95991951409526959501,3.5152867,10.244789,2.3397336,-0.06866013,9.6037245,1.98347281409526959517,3.342904,9.970653,2.3409307,-0.07022556,9.600242,2.00020931409526959518,3.1908724,9.840169,2.3870192,-0.075201154,9.597754,2.01193431409526959528,2.8191724,9.603143,1.9901801,-0.0781139,9.596912,2.0158291409526959554,2.3750482,9.602545,1.745373,-0.07647552,9.598543,2.00810981409526959556,2.3582888,9.896433,1.5071499,-0.06719349,9.603686,1.98371121409526959558,2.496554,10.214862,1.8010383,-0.045185845,9.612887,1.93926481409526959591,2.472612,10.559028,1.7405846,-0.007245733,9.623127,1.88833011409526959592,2.7030537,10.67395,1.9578584,0.045670524,9.631658,1.8437651409526959594,2.4768016,10.47164,2.3756466,0.1138203,9.637851,1.80810921409526959597,0.9307459,9.638457,1.264737,0.18761276,9.643534,1.77128841409526959619,-0.6853402,8.977658,-0.012569559,0.2487925,9.651914,1.71727561409526959620,-3.6643257,8.834604,-0.50397944,0.29709673,9.6622,1.65046071409526959628,-4.4161053,10.465654,-0.6434417,0.31850016,9.673192,1.58060741409526959654,-4.606444,13.410522,-1.2072762,0.32960266,9.684579,1.5068841409526959656,-4.537611,16.989853,-1.6603789,0.3298373,9.697174,1.42352071409526959657,-4.6896424,19.245192,-1.6178818,0.3162533,9.709596,1.33945061409526959683,-4.723161,19.443312,-0.28431144,0.2823195,9.722942,1.24703721409526959684,-4.2515035,17.892467,0.97862995,0.23370413,9.725291,1.23874871409526959702,-4.134786,15.439609,1.654992,0.1960954,9.720036,1.28564191409526959703,-4.212598,12.215816,2.381632,0.18513927,9.707856,1.3760991409526959708,-4.4161053,11.463438,3.555988,0.19379853,9.689222,1.50059221409526959716,-4.1299977,12.331336,4.279037,0.19948973,9.665643,1.64497611409526959733,-3.0585926,10.94629,3.8959646,0.21434213,9.639066,1.79244641409526959736,-1.477821,9.348759,3.122039,0.2580692,9.614867,1.9126271409526959748,-0.5530606,8.228871,2.6886885,0.3462319,9.59722,1.9859151409526959777,-0.008379706,7.638102,2.938284,0.46480918,9.584803,2.02136161409526959778,0.56443304,7.1646485,3.21661,0.59862745,9.573351,2.0403421409526959779,1.3790601,7.0766616,3.3237505,0.7429948,9.559379,2.0583081409526959809,2.267309,7.6027875,3.145981,0.8984004,9.541011,2.08143971409526959810,2.6431987,7.8446016,2.4037786,1.0621305,9.517678,2.11094471409526959811,2.2427685,6.941988,0.4333505,1.2207611,9.491183,2.14419531409526959816,1.7088615,5.728726,0.29807812,1.3593137,9.464468,2.17865471409526959831,1.3455414,4.9883194,0.6727707,1.4735125,9.435055,2.23134971409526959848,0.94211835,4.5938745,0.99658644,1.5730878,9.402961,2.2978521409526959848,0.7721301,4.4783545,1.3718776,1.6528,9.368575,2.38085251409526959861,0.54288524,4.484938,1.8046296,1.7175808,9.332847,2.47351481409526959879,0.51834464,4.4436383,2.1811178,1.7724069,9.297554,2.56602141409526959880,0.5770026,4.507085,2.4127567,1.820505,9.264247,2.65139251409526959897,0.54767364,4.6686935,2.5893292,1.862197,9.234805,2.72415021409526959898,0.57640404,4.9643774,2.8898015,1.8966522,9.2101755,2.78312331409526959911,0.6099229,5.42167,3.3303347,1.9235152,9.190374,2.8297541409526959928,0.7212533,5.969343,3.657143,1.9427949,9.175287,2.865321409526959929,1.0253168,6.5924344,4.086902,1.95561,9.165268,2.8885751409526959952,1.4460979,7.1820064,3.763685,1.9623744,9.160205,2.90002131409526959954,2.2176294,8.075044,3.3411086,1.9687282,9.158595,2.90079521409526959958,2.4384944,8.677784,3.6355953,1.9704536,9.163482,2.88414741409526959993,2.0608091,8.617331,3.3321302,1.9633209,9.172213,2.86116931409526959995,2.1428106,8.78672,2.9011738,1.9437517,9.185348,2.83224371409526959996,2.8688521,9.79827,3.3488896,1.9203045,9.202681,2.7916871409526959997,3.7894228,12.29243,4.219182,1.9044474,9.219184,2.74774341409526960018,4.1611223,12.795213,4.255095,1.9019417,9.230995,2.70956351409526960019,4.9158945,12.231378,4.2838254,1.9147236,9.237047,2.67976931409526960028,5.9980736,11.69807,3.852869,1.955929,9.231655,2.66857341409526960052,6.5643024,10.375273,3.5356374,2.036845,9.213191,2.67184421409526960053,7.1143703,9.324219,3.4087446,2.1536055,9.1841135,2.68037651409526960057,7.4310036,8.149264,3.6367924,2.287246,9.147977,2.69321731409526960084,7.9942393,7.5052238,4.59567,2.4413056,9.102869,2.71075941409526960086,6.467337,6.9078703,6.625953,2.6096232,9.047821,2.7381051409526960088,5.7442884,8.642469,8.036138,2.7565088,8.991378,2.7797841409526960097,4.336498,12.817359,9.121908,2.873247,8.940572,2.82507371409526960117,3.5685577,17.351976,5.969942,2.9304702,8.907032,2.87184831409526960117,3.0298622,17.425,2.677316,2.9249175,8.907753,2.87527011409526960128,-0.830788,14.805144,2.6611552,2.8845513,8.925533,2.86087631409526960150,-2.4642322,14.43943,0.9068039,2.785155,8.953326,2.87250191409526960151,-3.1794999,13.133992,-0.7739257,2.650065,8.998542,2.85898611409526960157,-4.036624,11.396998,-0.035913024,2.5080671,9.046175,2.83667021409526960188,-4.787805,11.255741,1.2779051,2.350336,9.084734,2.84849741409526960190,-4.32333,11.550826,1.0366893,2.1760244,9.117313,2.88269141409526960192,-2.1200657,10.129269,0.01616086,2.020297,9.149944,2.89263181409526960197,-1.0827777,9.4774475,0.3800795,1.9144477,9.176487,2.88051921409526960218,-0.46327803,8.76996,0.99060094,1.8338109,9.193923,2.8773781409526960219,0.4165911,8.158242,1.7944542,1.7675158,9.205137,2.8830041409526960229,0.9720459,7.9691005,2.3570917,1.7092665,9.219018,2.87376051409526960257,1.2611457,8.267179,2.5659857,1.6508213,9.240598,2.83840511409526960258,1.6005238,8.768764,2.4714148,1.5890396,9.268211,2.78309351409526960259,1.7435774,8.9279785,2.0153193,1.5229856,9.298854,2.7170291409526960282,1.6747441,8.837597,1.5693992,1.451156,9.329981,2.6487781409526960283,1.2653356,8.694544,1.2707225,1.3780054,9.361672,2.57499071409526960289,0.6392518,8.605958,1.086369,1.3002245,9.393891,2.49691961409526960297,-0.006584055,8.507795,0.93732995,1.2196596,9.427181,2.41062051409526960319,-0.44651863,8.128913,0.82599956,1.1409724,9.460277,2.31769941409526960321,-0.60333884,7.839813,0.6775591,1.0675129,9.49093,2.22554331409526960329,-0.7637503,7.9547353,0.7110779,1.0002581,9.51775,2.14063261409526960352,-0.56802434,8.282741,0.6817489,0.9393565,9.540415,2.06603481409526960353,-0.6847417,8.512584,0.84335756,0.8875103,9.559586,1.99926481409526960357,-0.50996494,8.738836,0.84455466,0.8404645,9.57598,1.94026431409526960378,-0.20530279,8.836999,0.44831428,0.7959952,9.5909,1.88452371409526960379,0.31423897,8.796896,0.4141969,0.75290745,9.604308,1.83324781409526960397,0.44891283,8.769362,0.40880993,0.709766,9.616533,1.78575771409526960398,0.5315128,8.987235,0.5291186,0.6613506,9.629395,1.73429811409526960420,0.4417302,9.22426,0.8888474,0.6033435,9.643319,1.67713711409526960421,1.163582,9.512762,1.5131354,0.53084904,9.656273,1.62634741409526960429,1.5753847,9.317036,1.5310919,0.45382252,9.665191,1.59641231409526960456,2.2134395,9.669582,1.9303252,0.37759385,9.6696205,1.58941611409526960457,2.5342624,9.778519,2.0488381,0.31047347,9.669214,1.60632051409526960459,2.6024973,9.719262,2.0153193,0.25326982,9.664661,1.64334881409526960488,2.5659857,9.345168,1.894412,0.20250528,9.65709,1.69410411409526960489,2.3959973,8.81605,1.7136499,0.15031594,9.648449,1.74792441409526960490,2.0829554,8.380304,1.6531962,0.09424743,9.63928,1.80161231409526960499,1.8495208,8.109161,1.8411411,0.0312614,9.630591,1.84962251409526960517,1.6502035,7.9565306,2.1380222,-0.035975568,9.622269,1.89236041409526960518,1.4221559,7.889493,2.2864625,-0.10328765,9.61372,1.93290641409526960533,1.1402385,7.943961,2.5713725,-0.16483678,9.604173,1.97562441409526960550,1.1031284,8.031948,3.198055,-0.2186955,9.592503,2.02644631409526960554,0.9427169,8.090606,2.9867666,-0.2646202,9.578567,2.08600851409526960563,0.95708215,8.7053175,2.3971944,-0.3073872,9.565948,2.13741831409526960577,1.8602947,9.15842,1.7932571,-0.34819722,9.557494,2.16874581409526960578,2.777274,9.400234,1.4999673,-0.38122985,9.554118,2.17804151409526960594,3.6487634,9.938332,1.7465701,-0.40503305,9.553353,2.17710451409526960597,3.70802,10.704475,2.3798366,-0.42190292,9.555494,2.16447471409526960620,3.3081882,11.243171,2.606687,-0.43589976,9.559341,2.14461731409526960622,2.7090392,11.077373,2.48578,-0.44850716,9.564091,2.12069921409526960629,2.3056161,10.842741,1.951873,-0.46128738,9.568614,2.09744121409526960653,1.8662802,10.692505,1.3317747,-0.4718764,9.5745735,2.06767561409526960654,1.8435353,10.577583,1.8674773,-0.4812643,9.583868,2.02193621409526960657,1.9985598,10.284892,2.2457612,-0.4829089,9.595281,1.96666781409526960679,1.7489643,9.536704,1.8016368,-0.46961915,9.607482,1.90948691409526960680,1.4867992,8.938153,1.5520413,-0.440898,9.619304,1.85607221409526960698,0.82240826,8.227076,1.7357962,-0.39709437,9.630757,1.80587981409526960699,-0.8475474,7.129334,1.0696096,-0.3518333,9.641124,1.75936071409526960710,-1.204882,6.6067996,0.30107087,-0.30601963,9.65407,1.69577631409526960737,-2.5797524,6.3153057,-0.4854244,-0.2481492,9.670572,1.60898771409526960739,-3.5972881,7.3603745,-1.0528502,-0.18131803,9.687688,1.51203541409526960741,-4.857237,9.018359,-1.3557167,-0.11147139,9.703073,1.41716111409526960774,-4.4675803,15.708956,-0.7906851,-0.047397785,9.714838,1.33794491409526960775,-2.2092497,19.189528,-0.13108255,0.014623277,9.722857,1.27914261409526960777,-1.0690111,19.608511,0.98341835,0.13429676,9.723821,1.26477441409526960779,-0.46567222,19.608511,1.5286977,0.29593372,9.715481,1.30086171409526960802,-0.7146692,19.21287,1.7621324,0.45494998,9.702172,1.35325121409526960804,-0.6697779,16.33444,2.8107927,0.5989781,9.686634,1.40738261409526960809,-1.353921,12.679692,4.0240545,0.7126864,9.666961,1.48738431409526960834,-2.4301147,12.307992,5.5138464,0.7931087,9.641914,1.60463881409526960835,-2.654571,12.246941,5.569512,0.83629763,9.612366,1.75312381409526960838,-1.9081788,11.079767,3.8373067,0.873135,9.583378,1.88862761409526960869,-0.32800564,9.964069,1.8992004,0.94707507,9.56234,1.95834181409526960871,0.04249708,8.098388,1.5729905,1.0703832,9.549823,1.95590151409526960872,1.0360907,8.417415,2.8281507,1.215528,9.538103,1.92808181409526960878,1.8926164,9.045294,3.8845923,1.3658158,9.51917,1.92102481409526960901,2.818574,9.555858,3.9606082,1.5192566,9.490079,1.94952851409526960902,2.907758,9.137471,3.2267854,1.671089,9.45404,1.99974991409526960911,3.2860417,8.813655,2.445677,1.809876,9.417148,2.05233291409526960927,3.016694,7.949947,1.6831238,1.9265354,9.382201,2.10550571409526960949,2.5432408,6.865972,1.1468226,2.1192317,9.280758,2.35516021409526960951,1.79206,5.4432178,1.400608,2.1192317,9.280758,2.35516021409526960952,1.4502877,4.9045224,1.7106571,2.1192317,9.280758,2.35516021409526960957,1.1133038,4.5567646,1.9512744,2.151265,9.241683,2.47663861409526960978,0.789488,4.582502,2.0709844,2.1766396,9.201783,2.59996271409526960979,0.46986207,4.831499,2.0386627,2.1975744,9.164138,2.71286441409526960992,0.49679685,4.831499,2.0189106,2.2133446,9.131659,2.80789831409526961016,0.6404489,4.7614684,2.0368671,2.2246547,9.105732,2.88217571409526961018,0.82360536,4.547786,2.2218192,2.231049,9.084191,2.94453261409526961019,1.1025299,4.4544125,2.4654293,2.234875,9.069435,2.98681741409526961030,1.3856442,4.570531,2.806603,2.2325447,9.062297,3.0101341409526961054,1.6065093,4.8141413,3.2423477,2.2223833,9.062046,3.01839641409526961056,1.9955671,5.251083,3.5865142,2.2027876,9.067355,3.01681231409526961058,2.718616,6.081871,3.6768951,2.1728454,9.077531,3.00791861409526961078,3.3734303,7.071873,3.774459,2.133737,9.092208,2.9915441409526961079,3.6978445,7.9463553,3.9019501,2.087172,9.110282,2.96932271409526961095,3.763685,8.669404,3.8337154,2.0340872,9.129572,2.94682861409526961111,3.6768951,9.408614,3.763685,1.9760687,9.148635,2.92712141409526961112,3.3375173,10.23222,4.0120835,1.9176626,9.165143,2.91429761409526961131,2.983774,11.389816,4.518457,1.8614644,9.1792965,2.90617561409526961132,1.9021933,13.135189,4.5795093,1.8120574,9.1866045,2.91431409526961138,2.154183,13.181876,3.602675,1.7698991,9.189436,2.93123251409526961165,3.164536,12.289437,2.7670987,1.7572604,9.187372,2.94527271409526961167,4.305373,11.079168,2.9496565,1.786494,9.1790085,2.95375161409526961170,5.353435,9.065644,3.83192,1.8584,9.158251,2.97375461409526961178,5.943007,7.299921,5.7736173,1.9611396,9.118743,3.02867151409526961200,5.406706,8.260594,10.306439,2.0835555,9.05952,3.1231831409526961203,3.4925418,14.083892,12.296021,2.2120512,8.9803705,3.26039121409526961209,3.2303767,19.504963,6.5882444,2.2972248,8.91406,3.38122771409526961225,1.1270704,19.086576,2.0644004,2.3544855,8.9098625,3.35278131409526961243,-2.3953989,15.789761,0.9516952,2.376643,8.937097,3.26347281409526961244,-2.2679076,13.160927,-1.122282,2.3453228,8.971136,3.19195321409526961261,-2.1140802,10.420164,-0.18674773,2.294262,9.000738,3.14539121409526961262,-2.5270798,9.008782,1.7292122,2.224344,9.015492,3.15334371409526961276,-2.6007016,8.853758,2.156577,2.1295404,9.022234,3.19917651409526961278,-2.3409307,8.614338,1.7393875,2.033785,9.030846,3.2369631409526961295,-1.6304513,8.531139,1.4317327,1.9574529,9.045061,3.24432331409526961318,-1.192911,8.65025,1.7202339,1.8977902,9.061631,3.23351671409526961320,-0.6631939,8.93576,1.678934,1.8480213,9.078595,3.21470211409526961324,1.2623428,8.379107,1.9363106,1.8021864,9.101878,3.17463661409526961358,2.1733365,8.924387,2.4588451,1.7673541,9.126577,3.12289121409526961359,2.7329812,9.822212,2.8592753,1.7288591,9.159844,3.0460951409526961361,2.8688521,10.324396,2.6521769,1.6864952,9.197283,2.955691409526961362,2.6126726,10.232818,2.0248961,1.6389465,9.235444,2.8619571409526961385,2.2218192,10.301053,1.5095441,1.579513,9.272598,2.77389241409526961386,1.6825253,10.448297,1.4041992,1.5051322,9.310565,2.68669771409526961390,1.0702082,10.326192,1.4305356,1.4198195,9.350324,2.59344481409526961414,0.18016368,9.804854,1.429937,1.3316783,9.388841,2.49934031409526961415,-0.57041854,9.288904,1.4826094,1.2443817,9.422021,2.41814661409526961418,-0.8912416,8.661623,1.4413095,1.1581177,9.448281,2.35778071409526961429,-1.0456676,8.10557,1.1593921,1.0760391,9.468229,2.31628131409526961445,-1.0947487,7.4693108,0.97025025,0.996426,9.485666,2.2802761409526961454,-0.9259575,7.4387846,1.0630256,0.9252891,9.500485,2.24833661409526961458,-0.9211691,7.771579,1.2437878,0.8617299,9.514042,2.21603781409526961479,-0.8038532,8.000225,1.1348516,0.80144674,9.526573,2.1846021409526961481,-0.8283938,7.9409685,0.8948329,0.73741937,9.5386505,2.1542451409526961490,-0.51595044,7.6853876,0.5943606,0.6617092,9.551615,2.12113071409526961513,-0.36272156,7.7063365,0.82779527,0.57618165,9.567193,2.07538131409526961514,-0.15622166,7.7943234,0.825401,0.48550212,9.58549,2.0132281409526961518,0.3764882,7.8128786,1.043872,0.39266777,9.6050625,1.93880591409526961530,1.0474633,8.023568,1.3533225,0.30266604,9.622271,1.8683471409526961556,1.5263035,8.078635,1.5658079,0.22182168,9.634165,1.81770411409526961558,2.046444,8.24563,1.7651252,0.14792818,9.642369,1.78135161409526961559,2.296638,8.430583,1.9452889,0.08322335,9.644845,1.77212771409526961576,2.4588451,8.7532015,1.963844,0.02433014,9.642323,1.78757321409526961579,2.5067291,9.194932,2.1978772,-0.030328503,9.636671,1.81770061409526961594,2.4714148,9.589376,2.1859062,-0.08418547,9.629869,1.85174021409526961621,2.4875755,9.745598,1.816002,-0.14035466,9.623793,1.87971321409526961622,2.6964695,9.521142,1.5227122,-0.19816665,9.619528,1.89625921409526961624,2.9520507,9.16261,1.6639702,-0.2538963,9.61639,1.90550741409526961650,3.0400376,9.029732,2.132635,-0.30225042,9.612196,1.91956291409526961652,2.8909986,9.208099,2.6982653,-0.33942777,9.605197,1.94816891409526961654,2.9640217,9.592369,3.3674448,-0.37115663,9.596092,1.98686651409526961658,2.5899277,9.740809,3.7415388,-0.39509794,9.5843315,2.03835131409526961673,2.1817162,9.88925,2.854487,-0.421198,9.571972,2.09053251409526961678,1.7399861,9.872491,2.179322,-0.4565521,9.563228,2.12287881409526961692,2.4690206,9.835979,0.8571242,-0.5025638,9.5574665,2.13837811409526961708,3.6296098,9.536105,1.3634979,-0.5474712,9.554972,2.13849621409526961718,3.0220811,9.5253315,2.2008698,-0.5817403,9.554264,2.13260821409526961730,2.1039047,9.660006,2.368464,-0.6166854,9.554807,2.12031981409526961731,1.0720038,10.012551,2.248754,-0.651578,9.556028,2.10431981409526961738,0.17657238,10.48002,2.147599,-0.683232,9.558424,2.0832941409526961758,-0.6703765,10.6715555,1.8890251,-0.7080744,9.564311,2.04767081409526961758,-0.97503865,10.609905,1.1258733,-0.73254836,9.572579,1.99987331409526961773,-0.1436521,10.773309,0.7565677,-0.73971444,9.586119,1.93120421409526961790,0.4237737,10.755353,0.7410054,-0.7154312,9.602308,1.85855051409526961791,0.9463082,10.291476,0.60094464,-0.6612079,9.619711,1.78728091409526961807,0.06464344,9.138069,0.14963761,-0.5791336,9.6394615,1.70756441409526961824,-1.1198878,8.22528,-0.23523031,-0.48352125,9.659458,1.62217451409526961825,-2.6030958,7.85777,-0.05925649,-0.37731802,9.676843,1.54490421409526961842,-3.1794999,9.25359,0.46387658,-0.2651957,9.6895075,1.4877831409526961843,-3.2920272,11.968016,1.0283096,-0.14736366,9.697271,1.45314191409526961859,-3.0142999,16.080057,1.2084733,-0.026950113,9.699676,1.44429461409526961860,-2.6737247,19.27033,0.7978677,0.08970526,9.697934,1.45341431409526961872,-1.6699557,19.608511,0.75596917,0.20136765,9.695865,1.45604051409526961888,-3.3572693,16.41405,1.3664906,0.31584758,9.690834,1.46913151409526961890,-2.9753942,13.054385,2.393603,0.3946043,9.680573,1.51696591409526961906,-3.5296519,9.391256,3.7140055,0.45552054,9.661561,1.61774731409526961910,-3.8750155,10.514136,5.3324857,0.49162397,9.63289,1.77091311409526961923,-2.6928782,12.328941,5.363012,0.5061993,9.59643,1.95517081409526961940,-2.2697031,11.109096,3.807978,0.53938586,9.559103,2.12202671409526961941,-1.7579426,8.640076,2.2092497,0.6188339,9.530826,2.22504041409526961957,-1.043872,7.393295,2.2613235,0.73821974,9.514475,2.25836061409526961958,-0.3633201,6.7504516,3.0400376,0.87628865,9.502851,2.25794841409526961972,0.5967548,6.7803793,3.4955344,1.019473,9.488547,2.25799231409526961988,1.5580268,7.6985555,3.354875,1.1770273,9.468944,2.26365281409526961992,2.2577322,8.037933,2.6420016,1.3440831,9.44415,2.2741731409526962004,2.5743654,7.9529395,1.8680758,1.5116765,9.416722,2.28266671409526962010,2.700061,7.804499,1.388637,1.6604555,9.389708,2.29056241409526962022,2.291251,7.1227503,1.2180501,1.7812345,9.363827,2.3057221409526962042,1.4616601,6.2303114,1.5095441,1.8723311,9.3384695,2.33618451409526962043,1.0923545,5.7664347,1.6352397,1.9378502,9.31252,2.38581161409526962057,0.9840169,5.401319,1.809418,1.9872428,9.285788,2.44855171409526962059,1.0648212,5.2397103,1.9937714,2.028081,9.258144,2.51874231409526962071,0.87208796,5.007473,2.292448,2.0620155,9.230951,2.5899851409526962088,0.95588505,4.887164,2.160767,2.0914402,9.204333,2.66017841409526962090,1.1749545,4.8165355,2.0494366,2.1130648,9.181901,2.71993231409526962106,1.441908,4.7494974,2.148796,2.127843,9.164934,2.7652581409526962123,1.6561891,4.6645036,2.3720553,2.137526,9.1531925,2.79650641409526962123,1.858499,4.6297874,3.0454245,2.1429148,9.146283,2.81492421409526962139,2.3469162,4.803367,3.8935704,2.1433225,9.143629,2.82322381409526962140,2.9741971,5.4282537,4.1940427,2.1379464,9.144959,2.82299351409526962158,3.2956185,6.257845,4.0479965,2.1256573,9.15195,2.80958751409526962159,3.3560722,7.0754647,3.8402996,2.102841,9.166824,2.77809241409526962173,3.0083144,7.541735,4.051588,2.066975,9.189111,2.73098041409526962191,2.8886044,8.305486,4.0342298,2.0174043,9.215444,2.67881661409526962192,3.0735564,9.782109,3.8055837,1.9655855,9.242751,2.62267611409526962210,3.0591912,10.976217,4.581305,1.9113913,9.26951,2.56771471409526962211,2.8119898,12.56058,5.7909756,1.8639553,9.290025,2.52814081409526962219,2.4594438,14.371196,5.803545,1.8238575,9.299015,2.52433041409526962240,2.8101943,16.02918,4.2610803,1.7927009,9.2964115,2.55604651409526962241,3.882198,15.737686,3.0029275,1.7862107,9.287084,2.5942071409526962257,4.88896,13.836092,3.128623,1.8209249,9.269703,2.6319631409526962259,6.2626333,9.674969,5.9023056,1.8848134,9.238006,2.69761351409526962279,5.513248,9.982624,9.388862,1.9718378,9.181032,2.82681561409526962280,3.764882,14.513052,10.94629,2.0581954,9.105706,3.00338751409526962290,2.5432408,18.561647,6.754043,2.1187484,9.030445,3.18313961409526962314,0.008978256,17.4663,3.027468,2.1500611,8.996544,3.2572751409526962315,-3.4237084,14.578294,2.119467,2.1480978,9.00102,3.24618151409526962327,-3.3369186,11.997345,0.6871359,2.0999918,9.023111,3.21619081409526962353,-2.5881321,9.257181,0.8319851,2.0397031,9.043494,3.1976931409526962355,-2.6797101,8.143877,2.5923219,1.9667627,9.052277,3.21846411409526962356,-2.554613,8.820239,3.3207579,1.866392,9.060081,3.25606181409526962360,-2.231396,9.374496,1.8860323,1.7528079,9.075416,3.27641371409526962376,-1.6765398,9.279327,0.62488663,1.6548338,9.100757,3.25701261409526962387,-1.3461399,9.352949,0.4997896,1.5764296,9.130193,3.21322971409526962390,-1.1360487,9.941324,0.5201403,1.5080216,9.156129,3.17199521409526962407,-0.7350199,10.359711,0.2633622,1.4453338,9.180515,3.13042041409526962426,-0.0712275,9.863512,0.7637503,1.3858904,9.205572,3.08336831409526962427,0.760159,8.871715,1.6304513,1.3328937,9.231845,3.02767971409526962431,1.5993267,8.280347,1.8273745,1.2814692,9.25825,2.96867631409526962439,2.0111294,8.428188,1.9267339,1.2259827,9.28469,2.90893341409526962464,2.0817583,8.858546,1.9764135,1.1599822,9.309858,2.85506151409526962465,1.7250223,9.081805,1.8321629,1.0789179,9.334125,2.80720971409526962471,1.0139444,9.066842,1.6106992,0.9827748,9.359791,2.75660351409526962502,0.39264908,8.838196,1.453879,0.87413526,9.388802,2.69382721409526962504,0.008978256,8.768166,1.3479356,0.7598139,9.420183,2.61786721409526962506,-0.27952304,8.310274,1.2360066,0.647467,9.450416,2.53787421409526962536,-0.52133745,7.8912888,1.1605892,0.5374863,9.477929,2.45975071409526962538,-0.82719666,7.7386584,1.0109516,0.43438745,9.500336,2.39276311409526962541,-0.985214,7.6710224,1.168969,0.338373,9.517628,2.33894161409526962544,-1.1707647,7.7985134,1.1965023,0.25324354,9.530447,2.29713771409526962563,-1.1749545,7.896077,0.8984242,0.17842473,9.540179,2.26352551409526962564,-0.93134445,7.599795,0.46806642,0.10982816,9.547663,2.23617151409526962571,-0.89782566,7.2304893,0.27234045,0.04398586,9.554117,2.2107181409526962590,-0.50397944,7.77936,0.54049104,-0.024319619,9.561546,2.1786781409526962591,0.093972415,8.818443,1.0791864,-0.092742875,9.571329,2.1334131409526962609,0.78050977,9.126697,1.2054806,-0.15692016,9.583045,2.07629421409526962612,1.8357542,9.48463,1.1659763,-0.21461803,9.594684,2.0165311409526962619,2.3690627,8.715493,1.2258313,-0.26884353,9.605627,1.95704531409526962647,2.9322984,7.7105265,1.8950106,-0.32256928,9.6132965,1.91073191409526962649,3.108871,8.170812,2.019509,-0.37378538,9.616421,1.88550631409526962652,3.1711202,8.494628,2.0991163,-0.41821155,9.616338,1.87658131409526962683,3.2022448,8.7370405,2.098518,-0.45603025,9.612972,1.88498721409526962685,3.1615434,8.920197,2.071583,-0.4919643,9.607016,1.9062021409526962686,2.9346926,9.136872,2.2415714,-0.53356296,9.6002,1.92922151409526962695,2.8658595,9.129091,2.0817583,-0.58339214,9.593633,1.94737271409526962723,2.8975825,8.867524,2.1242554,-0.6375389,9.587779,1.95919171409526962728,2.8724434,8.544308,2.472612,-0.689321,9.581003,1.97474411409526962731,2.107496,8.2169,3.1585505,-0.73838407,9.572293,1.99909171409526962756,0.9343372,8.141483,3.503914,-0.7809522,9.559323,2.04446361409526962757,-0.19692309,8.374918,3.803788,-0.8192063,9.543106,2.10438471409526962759,-0.16938977,8.706514,2.7030537,-0.85561025,9.525442,2.16893821409526962760,0.3333926,9.036914,1.5263035,-0.8879584,9.5116415,2.21598631409526962772,0.91697925,9.909601,1.3108255,-0.9167739,9.505366,2.23112821409526962787,1.0384849,10.877457,1.7417817,-0.9411763,9.507285,2.21271871409526962791,0.7733272,11.8094,1.6490064,-0.959407,9.514377,2.17406561409526962808,0.7942764,12.266692,1.0594343,-0.9702533,9.524267,2.12540051409526962827,0.5482722,12.149377,0.4997896,-0.968752,9.537142,2.06756971409526962828,0.45250413,12.091317,1.8626889,-0.9565897,9.551953,2.00387381409526962831,1.2318168,11.544242,1.252766,-0.9351728,9.56537,1.94924381409526962840,2.4103625,10.733206,1.0959458,-0.8924276,9.581583,1.88871481409526962860,2.790442,10.433332,2.208651,-0.8205243,9.598402,1.83516971409526962861,1.9458874,10.203489,2.1392193,-0.72369796,9.6137,1.79538941409526962871,0.86729956,9.049484,1.389834,-0.61663926,9.629477,1.75024971409526962891,-0.45789108,7.3112936,1.1174936,-0.5059291,9.645553,1.69639021409526962926,-1.2988545,6.825869,0.9756372,-0.39146295,9.659524,1.64643511409526962938,-2.2625206,8.16722,1.0642227,-0.2682949,9.669976,1.60933841409526962940,-2.3020248,11.33056,2.0272903,-0.14172943,9.675509,1.59211961409526962942,-1.8124107,15.90528,3.1549592,-0.009710753,9.674313,1.60559991409526962944,-0.57520694,18.998589,2.791639,0.123921685,9.66783,1.63953721409526962945,0.81283146,19.608511,2.1559787,0.28195277,9.657008,1.68317991409526962965,0.45848963,19.26255,2.0751743,0.45860478,9.643777,1.71978031409526962966,-0.623091,17.611748,2.042254,0.6063066,9.628905,1.75697461409526962971,-0.92775315,14.994287,2.2511482,0.70012015,9.612373,1.81176011409526962987,-1.3742718,12.023083,2.866458,0.75452805,9.5910015,1.90099441409526962993,-3.352481,10.245388,4.3993454,0.7835672,9.563381,2.02439741409526963009,-3.4111388,12.307992,4.9188876,0.7871549,9.531643,2.16761761409526963029,-2.4259248,9.516952,1.6561891,0.79772764,9.502245,2.28940561409526963032,-1.7142484,8.255806,0.62249243,0.86362255,9.48552,2.33440571409526963033,-1.0360907,7.837419,1.2036849,0.96086955,9.47768,2.32824181409526963040,-0.35075054,7.5088153,2.5001452,1.0678619,9.469173,2.31620961409526963061,0.45489833,7.513005,3.145981,1.1887074,9.45506,2.31499841409526963062,0.9720459,7.471705,2.92751,1.3156898,9.432233,2.33930561409526963074,1.0522517,6.5146227,2.1021092,1.4407668,9.403927,2.37923431409526963095,1.1318588,5.6886234,1.4395138,1.5558988,9.375138,2.41998621409526963096,1.0648212,5.201403,1.3425486,1.6516726,9.348899,2.4577331409526963100,0.94331545,4.64116,1.3431472,1.7276845,9.324317,2.49852181409526963128,0.9528923,4.2179847,1.3299791,1.7925817,9.299097,2.5463371409526963131,1.1480197,4.0426097,1.3024458,1.8553647,9.271925,2.59989211409526963132,1.1719618,4.0336313,1.5191209,1.9205652,9.242658,2.65614411409526963141,1.2509704,3.9785647,1.6400281,1.9851934,9.211994,2.7145121409526963163,1.5005659,4.0037036,1.7782934,2.046621,9.180662,2.77437881409526963165,1.6759412,4.1305966,1.9111716,2.1028023,9.150662,2.83090041409526963172,1.8052281,4.2437224,2.2900538,2.1504626,9.123774,2.88142871409526963188,1.9794062,4.629189,2.7353754,2.187699,9.100629,2.92624641409526963221,2.271499,5.436035,3.288436,2.213411,9.08241,2.96327881409526963223,3.0148985,6.8851256,4.425083,2.2271738,9.070309,2.9899161409526963228,2.8933928,7.1903863,4.5525746,2.229566,9.063195,3.00963661409526963230,2.7485435,7.6482773,4.6657004,2.2132103,9.064744,3.01703721409526963259,2.7012582,8.615535,4.983531,2.1754997,9.07646,3.00923281409526963260,2.9239187,10.025121,4.987122,2.1185918,9.096613,2.9889171409526963261,3.0992942,11.175535,5.242703,2.0577748,9.119659,2.96103951409526963262,3.0998926,12.114062,5.6066217,1.9906963,9.143937,2.93187951409526963271,3.482965,14.186842,5.522825,1.9264132,9.163609,2.91334651409526963291,4.0120835,16.063896,5.019444,1.8776022,9.175346,2.90826771409526963292,4.693234,15.035586,3.5553896,1.8576139,9.176796,2.91651821409526963301,5.1660886,12.658144,3.1352072,1.8788108,9.168481,2.92906381409526963329,5.9531827,10.474632,3.603872,1.9332305,9.150384,2.95016741409526963331,6.6828156,7.9206176,3.8151605,2.0175269,9.11499,3.00282171409526963333,6.919243,5.7682304,5.9388175,2.1291227,9.056861,3.10008141409526963341,5.777209,6.0268044,10.843938,2.2601798,8.980343,3.2272941409526963362,3.5984852,11.766304,13.798982,2.3920379,8.891992,3.37357521409526963363,3.4219127,18.832191,7.732673,2.483123,8.806516,3.52842381409526963371,1.0839748,18.5401,3.4243069,2.543707,8.788754,3.5295521409526963387,-3.2704794,14.6680765,-0.90979666,2.5593174,8.808357,3.46888141409526963405,-2.598906,10.782886,-0.98581254,2.5079803,8.845109,3.4124011409526963408,-2.7970262,10.787076,1.2629414,2.442409,8.865013,3.40830971409526963426,-2.8951883,11.34253,1.271321,2.331424,8.880734,3.44491241409526963428,-2.4983494,11.183316,0.16160862,2.1882048,8.901883,3.48405341409526963434,-2.2146366,10.766725,0.005386954,2.057114,8.930016,3.4919171409526963441,-1.8297687,10.4249525,0.5883751,1.9486094,8.960454,3.4761431409526963461,-1.3652935,9.67856,1.1528081,1.858687,8.985759,3.46003061409526963470,-0.8535329,8.846576,1.5406688,1.7894342,9.004667,3.44735881409526963473,-0.16101007,8.243835,1.8896236,1.7378111,9.021073,3.4308391409526963507,0.6697779,8.289924,2.3002293,1.6967688,9.042581,3.39457181409526963508,1.3557167,8.789713,2.7497406,1.6610638,9.071674,3.33406661409526963509,1.7082629,9.670779,2.753332,1.6210212,9.105578,3.2605411409526963512,1.9141643,9.920375,2.4157495,1.5676903,9.14218,3.18328171409526963520,1.881244,9.754577,1.7890673,1.5011363,9.179379,3.10740731409526963536,1.661576,9.616311,1.3617022,1.4246488,9.218065,3.02787611409526963561,1.1994951,9.801862,1.2042835,1.3414426,9.259951,2.93670581409526963562,0.40342298,9.70789,1.0642227,1.2563214,9.303844,2.83381941409526963564,-0.22924481,9.161413,0.9935937,1.1718787,9.345881,2.72976351409526963572,-0.9044097,8.41921,1.0540473,1.0871009,9.383912,2.63264511409526963589,-1.049259,8.325238,1.074398,1.005444,9.413903,2.55693271409526963609,-1.0965444,8.267777,1.1713632,0.9308548,9.436181,2.50247671409526963610,-0.878672,7.9146323,1.0564415,0.86288935,9.453224,2.46218971409526963613,-0.5410896,7.392098,0.7098808,0.8001035,9.467083,2.42993241409526963620,-0.19812019,7.0610995,0.6434417,0.73814446,9.478914,2.40327171409526963635,-0.23942018,6.9982514,0.7882909,0.6715714,9.48994,2.37917261409526963653,-0.2220622,7.037756,0.9295488,0.5948501,9.502708,2.34841371409526963654,0.061650693,7.3723454,1.0271125,0.5084509,9.518867,2.30283931409526963665,0.59017074,7.728483,1.1198878,0.41560602,9.5378275,2.24221131409526963672,1.264737,7.699154,1.1773487,0.32278088,9.556362,2.1776551409526963683,2.1619642,8.053496,1.2413936,0.23440556,9.572733,2.11618451409526963704,2.8287494,8.2276745,1.7196354,0.15335736,9.586027,2.06275491409526963704,3.341707,8.425795,2.2242134,0.08273878,9.595231,2.02363181409526963718,3.7481227,8.677185,2.3493104,0.021869594,9.599108,2.00675491409526963720,3.6577415,8.702923,2.1045034,-0.032386314,9.598106,2.0113891409526963736,3.3033998,8.860342,2.0392613,-0.087043494,9.594436,2.0272161409526963754,2.8862102,9.110536,2.058415,-0.14566608,9.589438,2.04740021409526963755,2.6180596,9.539697,2.110489,-0.20810536,9.583791,2.06834531409526963767,2.558803,9.679159,2.6874914,-0.27158925,9.577596,2.08956931409526963773,2.4420857,9.357139,2.8754363,-0.33069536,9.569722,2.11694481409526963787,2.0578163,9.001001,3.6523547,-0.38356304,9.560736,2.1483981409526963803,1.714847,8.728063,3.7600937,-0.4340523,9.547929,2.19523221409526963804,0.9876082,8.462306,3.66253,-0.47766018,9.531765,2.25559521409526963825,0.85891986,8.340201,2.9783869,-0.52049255,9.513513,2.3221891409526963826,1.4317327,8.210316,1.7878702,-0.5633633,9.497826,2.37578341409526963832,2.457648,8.438962,1.4730326,-0.6071215,9.488608,2.40168641409526963860,3.1082723,9.143456,1.9237411,-0.647104,9.486041,2.4013891409526963862,3.120842,10.129269,2.3355439,-0.68086135,9.488234,2.38332841409526963863,2.4839842,10.557233,2.5923219,-0.7091589,9.493825,2.35261251409526963874,1.8620903,11.21085,2.367267,-0.7331524,9.500937,2.3162641409526963893,1.401805,11.787852,2.4229321,-0.74648476,9.510192,2.27362821409526963894,0.61291564,11.962628,2.4947581,-0.7535086,9.520537,2.22755341409526963902,0.12389994,11.457452,2.0332758,-0.7501169,9.533684,2.17177131409526963923,0.57161564,11.188704,1.5496471,-0.73381364,9.549138,2.10852771409526963925,1.0690111,11.356895,1.638831,-0.69379973,9.565524,2.04689931409526963932,1.115698,11.6669445,1.6047137,-0.6297739,9.582103,1.98924311409526963958,0.6769605,11.216835,0.56443304,-0.5489441,9.599996,1.92590961409526963960,-0.78290397,9.399636,-0.6302736,-0.45896447,9.619998,1.84806881409526963961,-2.2254105,8.874108,-0.47225627,-0.36844397,9.639747,1.76349561409526963991,-2.2870612,9.786898,0.05925649,-0.27435243,9.657011,1.68441621409526963993,-2.7042508,12.126033,1.1695676,-0.17146051,9.670691,1.61825531409526963994,-2.5839422,15.8861265,1.8459295,-0.0643757,9.678245,1.58045081409526964001,-2.5067291,18.923172,1.8136078,0.04503818,9.681749,1.55952141409526964028,-2.4768016,19.5313,1.4239515,0.15454024,9.67897,1.569731409526964030,-2.9724014,17.785927,1.389834,0.25931653,9.671117,1.60395321409526964034,-3.165733,14.888343,1.887828,0.34311327,9.658964,1.6604451409526964065,-2.4851813,11.978191,2.9227216,0.39942163,9.641296,1.74821851409526964066,-2.4307132,9.662998,3.6272156,0.43481678,9.616203,1.87348911409526964068,-3.3093853,10.30225,4.720767,0.45590612,9.58556,2.01979611409526964073,-2.360683,12.439673,4.5382094,0.46269757,9.552039,2.17137071409526964091,-1.9405005,10.858902,3.5194764,0.49419552,9.521294,2.29589561409526964102,-1.2497733,9.083601,2.3690627,0.57161707,9.50001,2.36504821409526964103,-0.94570965,7.472902,1.7896658,0.68207866,9.483321,2.40245271409526964120,-0.4770447,6.71394,1.7824832,0.8017286,9.473566,2.40399121409526964121,0.44232875,6.803124,2.5198972,0.92945105,9.463074,2.39932511409526964137,1.271321,6.757634,3.0244753,1.0648924,9.446334,2.40898081409526964158,2.0362685,6.5948286,1.9165585,1.2046747,9.422804,2.435141409526964159,1.7657237,5.8574142,1.3742718,1.3365844,9.397274,2.46479031409526964160,1.5239093,5.1277814,1.3359646,1.4463243,9.37217,2.49818921409526964172,1.3922282,4.9284644,1.6561891,1.5273503,9.348829,2.53711961409526964183,1.3850456,4.927267,1.8710686,1.5851153,9.325918,2.58555321409526964197,1.4047978,4.9721584,1.9812019,1.632116,9.301545,2.64345651409526964201,1.3269863,4.84347,2.1176715,1.6759301,9.2758875,2.70547251409526964219,1.2174516,4.7441106,2.4109612,1.7189202,9.249735,2.76732951409526964220,1.0462662,4.8464627,2.5330653,1.7579689,9.223632,2.82922981409526964237,1.1593921,5.061941,2.4875755,1.7910404,9.198751,2.88886621409526964253,1.3617022,5.121197,2.497751,1.8198308,9.176079,2.9424821409526964255,1.5831659,5.2127757,2.5450363,1.8458526,9.156827,2.98592381409526964267,1.7926586,5.5162406,2.8832173,1.8690618,9.142195,3.01616571409526964284,2.1260512,5.925649,3.2986114,1.8872511,9.132282,3.0348121409526964285,2.4229321,6.241085,3.855862,1.8984271,9.12716,3.04324081409526964302,2.754529,6.7564373,4.175488,1.8995165,9.128066,3.0398421409526964302,3.0843303,7.459734,4.4657845,1.8878849,9.137071,3.01997281409526964319,3.0998926,8.3551655,4.742315,1.8636295,9.1538,2.98416021409526964321,2.669535,9.200917,4.9548006,1.8335391,9.1735325,2.9419071409526964335,2.319383,10.419566,4.8937483,1.7860553,9.198152,2.8938581409526964349,2.7563248,10.7990465,4.687248,1.7281033,9.223838,2.84690331409526964352,2.8000188,12.192472,4.9176903,1.6782451,9.243362,2.81320931409526964366,3.0885203,14.653113,4.784812,1.6404556,9.25373,2.80138781409526964381,3.6595373,14.776414,4.0025067,1.6206673,9.256532,2.80364631409526964382,4.5441947,13.506889,3.2974143,1.6293895,9.2512455,2.81601551409526964399,5.433042,11.526884,3.5356374,1.6745092,9.236905,2.8365471409526964403,6.5655,9.597756,4.747103,1.7519311,9.20933,2.87912631409526964427,6.498462,7.7733746,7.505822,1.8593404,9.159825,2.96830961409526964428,5.3881507,8.303091,11.504738,1.9856206,9.088555,3.1025571409526964433,3.957017,13.633781,12.551602,2.1081846,8.992342,3.29601721409526964468,3.779846,19.318214,7.313089,2.211272,8.905413,3.46038961409526964469,0.5710171,18.060661,3.5152867,2.3042598,8.877238,3.47208881409526964471,-1.9614497,15.148713,1.7669208,2.345398,8.887573,3.41767981409526964490,-1.3215994,12.148778,-0.055066638,2.3316886,8.906062,3.37870841409526964491,-0.6135142,8.963891,0.6745663,2.2937675,8.912334,3.388111409526964493,-1.1246762,7.393295,2.552219,2.227376,8.903316,3.45545391409526964502,-1.6220716,7.960122,2.6270378,2.132201,8.900412,3.52232891409526964526,-2.0278888,8.478467,0.7290344,2.034652,8.922622,3.5238341409526964528,-2.154183,8.995614,0.8283938,1.9474651,8.967345,3.4589721409526964533,-1.7980455,9.781511,0.7906851,1.8707253,9.013616,3.3801641409526964565,-1.0205284,10.170568,0.6985083,1.7978288,9.0533905,3.31275221409526964567,0.075417355,10.028712,1.1174936,1.7415006,9.086084,3.25279141409526964568,1.2264298,9.962872,1.745373,1.6956843,9.118828,3.18465421409526964599,1.9979613,10.080188,1.9919758,1.6504873,9.15573,3.1014341409526964602,2.345719,10.337564,2.0380642,1.6015123,9.195278,3.0087191409526964605,2.2212207,10.0748005,1.7040731,1.5470866,9.232565,2.9217581409526964607,1.951873,9.7803135,1.484405,1.4825865,9.263871,2.85535031409526964635,1.5406688,9.676167,1.7645266,1.4050691,9.29028,2.80835531409526964637,0.92535895,9.667787,2.0015526,1.3139511,9.315859,2.76743821409526964640,-0.002992752,9.465476,1.7699136,1.2128023,9.343295,2.72072551409526964661,-0.6278794,8.924985,1.6017209,1.1044302,9.371595,2.66904691409526964671,-0.9451111,8.488044,1.4586674,0.9978096,9.399166,2.61351321409526964672,-0.7691373,8.18398,1.3108255,0.8951924,9.42298,2.5644631409526964700,-0.7260417,7.73806,1.0067618,0.801364,9.442821,2.52217411409526964701,-0.59615624,7.5590935,0.85772276,0.71751755,9.460948,2.47912051409526964702,-0.48602295,8.028357,0.98700964,0.6465385,9.478127,2.43259431409526964703,-0.5781997,8.695142,0.8242039,0.5873162,9.493834,2.3859191409526964713,-0.5422867,8.765771,0.61411273,0.53186995,9.507887,2.3425651409526964728,-0.61890113,8.710705,0.44951138,0.47069034,9.52078,2.3029551409526964733,-0.36990416,8.7849245,0.5674258,0.3982339,9.534688,2.25865171409526964745,-0.022744916,9.130288,0.830788,0.31978756,9.549291,2.20888541409526964753,0.38187516,9.130887,1.0289081,0.24224019,9.566093,2.14512871409526964765,0.8714894,8.802282,1.3688848,0.1674775,9.583554,2.07311841409526964780,1.6095021,8.261193,1.6041151,0.09736206,9.597548,2.01195881409526964781,2.0632033,7.7410526,1.8483237,0.03376812,9.604863,1.9788551409526964796,2.4516625,7.8972745,2.2134395,-0.02350041,9.604712,1.97973121409526964803,2.6048915,8.090606,2.3092074,-0.07572978,9.598772,2.00704481409526964819,2.4468741,7.9828672,2.2774844,-0.12772535,9.589598,2.0478521409526964836,2.171541,8.120534,2.1033063,-0.18535247,9.578979,2.09265381409526964838,1.9710265,8.135497,1.7753005,-0.25178224,9.569141,2.13038061409526964842,2.168548,8.1797905,1.5155296,-0.32735375,9.561492,2.15432741409526964853,2.417545,8.330027,1.6196774,-0.40440777,9.554772,2.17098331409526964866,2.6102784,8.618527,2.054225,-0.47872373,9.548912,2.18162511409526964881,2.7222073,8.705916,2.5510218,-0.54446155,9.5418825,2.19691511409526964881,2.6234465,8.772355,2.8754363,-0.5993927,9.531697,2.22663161409526964897,1.9632454,8.668806,3.8181531,-0.6453005,9.51853,2.26970671409526964904,1.4586674,8.758589,3.3877954,-0.6912504,9.502437,2.32298351409526964923,1.2270284,8.8567505,2.6007016,-0.74213713,9.488124,2.36540171409526964924,1.6621746,8.913014,1.745373,-0.7980656,9.478284,2.38655331409526964934,2.497751,9.157822,1.34195,-0.85252875,9.472762,2.38963481409526964957,3.256713,9.776723,2.0326772,-0.89840806,9.469934,2.38402871409526964958,3.300407,10.37228,2.6910827,-0.9294034,9.46923,2.37492661409526964961,3.0591912,10.679337,2.6725276,-0.9540394,9.468884,2.36652041409526964981,2.6611552,10.572196,2.3882163,-0.9717881,9.470533,2.35266041409526964982,2.3277626,10.822391,2.0428526,-0.98343295,9.474587,2.33140541409526964997,1.769315,10.981006,2.4139538,-0.98625565,9.4821825,2.29911571409526965002,1.0402806,10.651803,2.520496,-0.9812089,9.492635,2.2577691409526965018,0.82779527,9.860519,1.822586,-0.96703386,9.5060425,2.20689231409526965035,0.82899237,8.826224,1.429937,-0.9360559,9.521999,2.15074541409526965037,0.5303157,8.503606,2.1990743,-0.8866864,9.539273,2.09438751409526965056,-0.50038815,8.190564,1.83336,-0.8251557,9.557769,2.03434251409526965057,-1.3150153,7.441179,1.0085574,-0.760858,9.579394,1.95619851409526965061,-3.1884782,6.3601966,0.23942018,-0.69699657,9.602674,1.86366981409526965078,-3.6122518,7.0108213,-0.49919105,-0.6238806,9.629008,1.7502481409526965081,-4.696825,11.5873375,-0.5009867,-0.5313658,9.655803,1.62895381409526965096,-4.609437,15.595231,-0.29927522,-0.43698883,9.677723,1.52352191409526965101,-3.5823243,19.279308,-0.14305355,-0.3347728,9.692525,1.45370891409526965115,-1.875857,19.608511,0.76195467,-0.21448636,9.70197,1.41286131409526965135,-2.1529858,19.608511,1.4059949,-0.06798889,9.704427,1.41062781409526965136,-2.8568811,18.438345,1.4646529,0.063029,9.701661,1.42975461409526965154,-2.168548,15.546749,1.910573,0.15861703,9.695118,1.46626441409526965155,-2.1637597,11.886014,2.6928782,0.22963192,9.681902,1.54221951409526965162,-3.0544028,12.106879,4.6680946,0.27523586,9.661073,1.66081321409526965187,-2.3834279,14.277224,5.205593,0.2986334,9.634188,1.80654911409526965188,-1.7423803,12.8610525,3.7349546,0.31808352,9.605015,1.95267081409526965193,-0.6679823,10.973824,2.1410148,0.3786755,9.585457,2.03617551409526965203,-0.093972415,8.921992,1.8806454,0.4887325,9.579057,2.0428351409526965229,0.33399114,7.8906903,3.0190883,0.6203646,9.5759115,2.0217451409526965231,0.87328506,7.277176,3.9785647,0.756376,9.56568,2.02386981409526965258,1.572392,7.5650787,4.0916905,0.8943745,9.546616,2.05733871409526965262,2.0811598,7.6572556,3.3093853,1.0359321,9.522827,2.10071561409526965263,2.3906105,7.5710645,2.3930047,1.1722364,9.499424,2.13476281409526965265,2.4115596,7.330447,1.7657237,1.2922022,9.477772,2.1615871409526965298,1.8136078,5.8041434,1.2078748,1.3893319,9.455816,2.19719741409526965300,1.7764976,5.434838,1.2755109,1.4698714,9.432712,2.24362021409526965304,1.8142064,5.4384294,1.5406688,1.534468,9.406216,2.31060621409526965305,1.6059108,5.365406,1.7250223,1.5886269,9.37563,2.39670591409526965317,1.4209588,5.5671177,1.8363527,1.635699,9.341882,2.49481961409526965329,1.0696096,5.6461263,2.0470424,1.6763873,9.307024,2.59604171409526965333,0.86251116,5.5725045,2.2331917,1.7096405,9.27299,2.69428541409526965348,0.7679402,5.46297,2.28347,1.734757,9.241248,2.78574091409526965366,0.724246,5.354632,2.3391352,1.7510574,9.213499,2.86628841409526965367,0.79726917,5.1702785,2.4540567,1.760358,9.190579,2.933391409526965384,0.9498995,4.9919105,2.5600002,1.7642765,9.173084,2.98533461409526965385,1.2773066,4.938041,2.6461914,1.7669315,9.158205,3.02913171409526965404,1.5628152,4.921282,2.8987796,1.7629384,9.149382,3.05798531409526965405,1.6591818,5.0397944,3.3171666,1.7511512,9.147012,3.07181331409526965415,2.0165164,5.605425,3.5924997,1.7283666,9.151844,3.07032281409526965429,2.5025394,6.5523314,4.0037036,1.6957088,9.164527,3.05063921409526965433,3.0550013,7.681796,4.331111,1.6564403,9.183574,3.0147251409526965448,3.3632548,8.854357,4.6297874,1.6140664,9.205943,2.96914151409526965465,3.4925418,9.952697,4.9003325,1.5704174,9.228065,2.9235291409526965466,2.858677,10.703877,5.6359506,1.5274694,9.246854,2.88668541409526965482,2.943671,11.944673,5.966949,1.483955,9.258734,2.87125561409526965483,2.878429,14.19163,5.119402,1.4530429,9.262218,2.8758251409526965496,2.8760347,14.490307,3.8265328,1.4265862,9.26652,2.87521891409526965511,3.5954924,13.108254,3.0244753,1.4238907,9.267106,2.87466241409526965513,4.7560816,11.368268,3.3889925,1.4519907,9.259782,2.88419411409526965529,6.0262055,9.938332,4.1916485,1.5116245,9.240345,2.91571621409526965533,5.891532,8.478467,7.32925,1.600125,9.203047,2.98561621409526965546,3.810372,10.696694,12.250531,1.7030165,9.1396265,3.12047311409526965561,3.369839,17.801489,9.725846,1.7924646,9.050188,3.3243871409526965562,2.3199813,19.608511,5.139154,1.8688903,8.989683,3.44430641409526965578,-1.2521675,17.61953,2.5486276,1.9281251,8.979401,3.43847181409526965582,-2.4271219,14.271237,0.48482585,1.9250413,9.002206,3.38007161409526965596,-1.7142484,10.681731,0.22625206,1.8902217,9.024324,3.34050941409526965613,-1.8070238,8.040926,1.9997569,1.8519682,9.028772,3.34990671409526965614,-1.9405005,7.8422074,3.425504,1.7901293,9.013635,3.42347981409526965628,-2.0458453,8.09719,2.6761189,1.7050222,9.000407,3.50085191409526965633,-2.15957,7.788338,1.501763,1.6280643,9.006115,3.5227371409526965649,-2.0655975,7.9427643,1.5370775,1.5666609,9.026629,3.49798941409526965663,-1.3575124,9.159617,1.3299791,1.5164412,9.046109,3.4696831409526965664,-0.2208651,9.706094,1.5699978,1.4765891,9.063524,3.4413091409526965678,1.0336965,9.745598,1.9812019,1.4445885,9.08549,3.39667841409526965682,1.8764555,10.204686,2.235586,1.4155984,9.117231,3.3230371409526965695,2.1775265,10.682928,2.0506337,1.3846672,9.157719,3.22324251409526965712,2.0721815,10.607511,1.6621746,1.3476331,9.200114,3.11643581409526965714,1.6747441,10.041881,1.2988545,1.3012767,9.240924,3.01370381409526965730,1.0259154,9.649231,1.2378023,1.2366279,9.275534,2.93353371409526965734,0.46627077,9.564238,1.6017209,1.152505,9.306447,2.8691751409526965744,-0.12150574,9.346365,1.7962499,1.0558599,9.337344,2.8052751409526965767,-0.599149,8.893861,1.6304513,0.9576427,9.3681965,2.73682381409526965768,-0.8415619,8.513183,1.4191631,0.86531365,9.396993,2.6679831409526965776,-0.88166475,8.189367,1.2156559,0.7797426,9.422099,2.6050821409526965782,-0.9127894,7.892486,0.943914,0.6989213,9.444088,2.5477611409526965800,-0.6805518,7.647679,0.8283938,0.6242907,9.464353,2.49131941409526965815,-0.39205053,7.878121,1.0145429,0.5610513,9.4835415,2.43270751409526965816,-0.19033903,8.274361,1.299453,0.5068255,9.501441,2.37405321409526965829,-5.99E-04,8.667608,1.2605472,0.46087682,9.516794,2.32133411409526965840,0.11552023,8.775348,1.0516531,0.41596624,9.528979,2.2794591409526965866,-0.025139118,8.604162,0.66858083,0.36308542,9.5393095,2.24503161409526965869,-0.11312603,9.030929,0.98461545,0.2977955,9.551059,2.20430871409526965870,-5.99E-04,9.184157,1.3455414,0.2210843,9.565953,2.14803621409526965890,0.54767364,9.085996,1.4466964,0.13909546,9.582899,2.07824371409526965892,1.1306617,8.637083,1.3628993,0.059960257,9.598658,2.0081281409526965894,1.7884687,8.473679,1.644218,-0.013389058,9.609411,1.95689931409526965921,2.4462755,8.805275,1.8567034,-0.08043109,9.612643,1.93933381409526965923,2.6222494,8.7538,2.0093338,-0.13886866,9.611753,1.94044611409526965924,2.4756045,8.582615,2.0632033,-0.19461831,9.604368,1.97196471409526965935,2.309806,8.565855,2.1140802,-0.2481123,9.59295,2.02092311409526965957,2.0841527,8.625112,1.941099,-0.30351827,9.579429,2.07673141409526965958,2.3558946,8.519168,1.7292122,-0.36202773,9.566066,2.12831021409526965963,2.677316,8.090606,1.7220296,-0.4223165,9.554282,2.16973541409526965987,3.2172086,7.820061,2.179322,-0.4828702,9.54417,2.20137551409526965988,3.6553473,7.5812397,2.8107927,-0.5381788,9.534385,2.23075181409526965994,3.8127663,7.189189,3.330933,-0.58478934,9.523443,2.26549121409526966027,3.5685577,6.8947024,4.3209357,-0.62366706,9.510699,2.30825831409526966028,3.0538042,6.7534447,4.812944,-0.6582506,9.495128,2.36212851409526966030,1.9081788,7.057508,3.6858735,-0.6961165,9.478065,2.4191141409526966057,1.2719196,8.546701,2.60968,-0.7424099,9.4637785,2.46092321409526966058,1.7824832,9.374496,1.5227122,-0.79175496,9.454199,2.48226881409526966059,2.3493104,10.167576,1.484405,-0.83366996,9.451254,2.47975521409526966062,2.384625,10.976816,2.1871033,-0.8652246,9.4537945,2.45917491409526966082,1.869273,11.236588,2.60549,-0.8892139,9.46006,2.42630081409526966085,1.1300632,11.263522,2.2331917,-0.91124445,9.46809,2.38648131409526966098,0.8355764,11.475409,2.2026656,-0.9313569,9.477472,2.34104181409526966117,0.037110128,11.562199,2.405574,-0.94134116,9.489382,2.28820561409526966119,-0.9600749,11.494562,2.03148,-0.94148695,9.505291,2.22113181409526966140,-0.3537433,11.373056,0.96665895,-0.92886347,9.524325,2.14355231409526966141,0.79248077,11.368268,0.7745243,-0.8987387,9.545035,2.06276081409526966143,1.3730747,10.997167,1.0402806,-0.8367583,9.564929,1.99558231409526966167,0.7918822,9.741408,0.5943606,-0.75377685,9.585232,1.93016911409526966168,-0.4285621,8.69993,-0.2681506,-0.66272867,9.607815,1.8496161409526966174,-1.4532804,8.319851,-0.4405331,-0.5644717,9.631304,1.75776371409526966183,-2.356493,9.399037,0.06584055,-0.45509034,9.653108,1.66757431409526966195,-2.9574378,12.000338,1.0666169,-0.33442104,9.671028,1.5905221409526966212,-2.472612,16.098612,1.4598645,-0.20693068,9.681913,1.54535961409526966214,-1.6585833,19.217659,-0.0676362,-0.07214593,9.685524,1.53486861409526966230,-2.2906525,19.546862,-0.27832595,0.062752515,9.687576,1.52227041409526966245,-3.4919431,18.18097,-0.073023155,0.1645109,9.687795,1.51325761409526966246,-3.555988,15.547946,0.908001,0.23945758,9.685048,1.52082191409526966261,-3.0119057,12.149377,2.3068132,0.2862582,9.675298,1.5738761409526966263,-3.5063083,8.953117,3.899556,0.3174588,9.654536,1.69101551409526966276,-4.56275,8.905233,5.78918,0.3341215,9.6232,1.85816121409526966295,-3.1675289,10.776301,5.2462945,0.3355882,9.584407,2.04864051409526966296,-2.3768437,9.507974,3.788824,0.36287558,9.54848,2.20573141409526966318,-1.1408371,7.9421654,2.369661,0.4400487,9.52433,2.2943141409526966319,-0.31902736,6.907272,2.2164323,0.5584553,9.514054,2.31112651409526966323,0.22026655,6.2446766,2.6659436,0.6932522,9.508818,2.2961261409526966350,1.1294646,6.757634,3.4727895,0.83141243,9.499605,2.28837511409526966353,1.822586,7.379528,3.4913447,0.9715185,9.4849,2.29417061409526966354,2.4331074,7.7230964,2.7665,1.1140763,9.463811,2.31636021409526966363,2.5133133,7.176021,1.8596961,1.252896,9.439508,2.34442731409526966379,2.1098902,6.202778,1.311424,1.3721572,9.415677,2.37330631409526966402,1.8363527,5.554548,1.2605472,1.4609858,9.393463,2.40806411409526966405,1.5221137,5.2462945,1.5526398,1.5257567,9.37073,2.45598981409526966407,1.1563994,4.5765166,1.5945383,1.5794069,9.344791,2.52007151409526966418,1.0420763,4.482544,1.5646108,1.6286252,9.316008,2.59422451409526966451,0.997185,4.5118732,1.6543933,1.6741971,9.286607,2.66953021409526966452,0.92416185,4.505289,1.6651673,1.7144433,9.258693,2.74001311409526966454,1.0408791,4.486734,1.6986861,1.7485505,9.23399,2.80114531409526966455,1.3120226,4.5753193,1.8351556,1.7803495,9.211408,2.85494471409526966463,1.6454151,4.608838,2.1296425,1.8049344,9.194791,2.89281941409526966487,2.0278888,4.8464627,2.6013002,1.8232195,9.184726,2.91325781409526966489,2.2266076,5.3007627,3.4674027,1.834183,9.181242,2.91735341409526966497,2.4570496,5.9489927,4.1659107,1.8334996,9.183517,2.91061571409526966521,2.7820623,6.773795,4.5687356,1.8190618,9.191193,2.89540931409526966523,3.2184057,7.8062944,5.071518,1.7903211,9.205382,2.86811731409526966524,3.655946,9.097966,5.459977,1.7487316,9.225334,2.82940861409526966561,3.5990837,10.411186,5.529409,1.69982,9.248504,2.78319861409526966562,3.1112652,11.300632,5.171476,1.6451905,9.272872,2.73452021409526966563,2.504335,11.495161,5.1636944,1.5867894,9.297797,2.683931409526966564,2.2092497,12.261904,5.4144874,1.5279417,9.31708,2.6509991409526966582,2.3588872,13.982737,4.97156,1.4785743,9.326316,2.64651351409526966583,2.2290018,14.759655,4.2239704,1.4512572,9.327256,2.65829921409526966594,3.7936125,12.172121,2.5887306,1.447233,9.323382,2.6740351409526966621,5.216367,10.398617,2.9352913,1.4900843,9.313803,2.68386671409526966622,6.1129956,8.379107,4.2275615,1.5685691,9.291815,2.71517371409526966623,5.9962783,7.20954,7.6865845,1.6721203,9.249028,2.7981941409526966654,4.3718123,9.498995,12.500127,1.7920156,9.179738,2.9481321409526966655,3.8043866,16.593016,10.635044,1.9074801,9.085239,3.16074851409526966656,2.984971,19.608511,5.73112,2.0087826,9.01508,3.29598571409526966663,-1.3293805,18.155231,2.7335799,2.1010034,8.986702,3.31592131409526966683,-2.9993362,15.38095,-0.3196259,2.1286807,9.000194,3.2612341409526966684,-2.1643584,12.09431,-1.13964,2.128984,9.035327,3.1623871409526966695,-2.079364,9.552266,1.1899183,2.1144748,9.056811,3.11023641409526966716,-1.8710686,9.241618,3.2172086,2.0592568,9.052491,3.15947581409526966718,-1.8034325,9.142858,2.9370868,1.9651812,9.040682,3.25185131409526966724,-1.6238673,8.820239,1.9931729,1.8694725,9.039993,3.30968171409526966750,-1.5897499,8.319252,1.6472107,1.7912811,9.049541,3.32678771409526966752,-1.5574282,8.318055,1.4131776,1.7290418,9.057682,3.3375441409526966755,-1.1408371,8.665813,0.9816227,1.6754167,9.064266,3.34700471409526966763,-0.31663316,8.954314,0.7769185,1.623977,9.080599,3.3280341409526966786,0.53091425,8.92738,1.1288661,1.5767399,9.104459,3.28528791409526966787,1.5610195,10.420164,2.3708582,1.5311098,9.142053,3.20139721409526966795,1.678934,10.694301,1.9961656,1.4867476,9.186252,3.0939821409526966820,1.4951789,10.024523,1.1498153,1.4361534,9.231384,2.9815071409526966822,0.98461545,9.267356,0.83018947,1.3720435,9.271461,2.88581091409526966824,0.53211135,9.0842,1.1647792,1.2876889,9.307005,2.80925731409526966853,0.24540567,8.985439,1.6531962,1.1875495,9.341247,2.73883821409526966855,-0.17836803,8.637083,1.7621324,1.0836741,9.374315,2.66800361409526966857,-0.5291186,8.2833395,1.7711107,0.9855773,9.404698,2.59820991409526966866,-0.6428431,8.22947,1.8148049,0.8962562,9.4309845,2.5344911409526966891,-0.90261406,8.242638,1.5957354,0.8145383,9.453859,2.47617751409526966892,-0.830788,8.4647,1.2294226,0.7338813,9.473554,2.42561151409526966895,-0.4902128,8.860342,0.95827925,0.6605135,9.491245,2.37705661409526966919,-0.110133275,9.305663,0.9187749,0.5989809,9.508263,2.32477571409526966921,-0.0688333,9.309854,0.7218518,0.547358,9.5240555,2.27226281409526966923,-0.003591303,9.14585,0.4818331,0.49229982,9.536871,2.23072271409526966953,-0.24181437,8.776545,0.23104046,0.4243851,9.546631,2.20275261409526966955,-0.439336,8.649054,0.11492168,0.33763826,9.557495,2.170411409526966956,-0.39683893,8.921394,0.31543607,0.2354384,9.573549,2.11237451409526966964,-0.4961983,9.00579,0.6667852,0.12753975,9.593991,2.0271781409526966980,0.4854244,8.406042,1.6053122,0.020737084,9.613851,1.93490841409526966999,1.2258313,8.210316,2.0506337,-0.07530337,9.6289015,1.85714191409526967001,1.9895816,8.127716,2.2230163,-0.15959816,9.635698,1.81610311409526967005,2.4187422,7.888296,2.6042929,-0.22518092,9.633903,1.81868961409526967031,2.782661,7.809886,2.9388826,-0.27829206,9.625218,1.8569081409526967033,2.6671407,7.465719,2.854487,-0.32902196,9.611904,1.91662041409526967037,2.3535004,7.4525514,2.6252422,-0.38564664,9.597319,1.97816471409526967043,2.0733786,7.495647,2.3942018,-0.45009473,9.584613,2.0255861409526967063,2.0207062,7.615956,2.1942859,-0.5224895,9.574431,2.05612831409526967066,2.1721394,7.9008656,1.8393455,-0.59962183,9.566039,2.07406431409526967083,2.4929626,8.22947,1.5304934,-0.6762462,9.559645,2.07997161409526967085,2.6013002,8.451532,1.7286136,-0.7476091,9.554778,2.07790231409526967095,2.6844985,8.579621,2.171541,-0.81421095,9.549228,2.07838561409526967114,2.7802668,8.5862055,2.6844985,-0.87379164,9.540874,2.09252071409526967132,2.553416,8.6299,3.0262709,-0.9263858,9.528872,2.12433841409526967133,2.1278467,8.815451,3.466804,-0.97703177,9.514893,2.16393761409526967135,1.8154035,8.790312,3.3291376,-1.0291145,9.500645,2.20205831409526967143,2.078167,8.491635,2.4971523,-1.0832142,9.4874325,2.23285721409526967160,2.6007016,8.393473,2.5929205,-1.1335617,9.477929,2.24817591409526967164,2.1140802,9.685144,3.1759086,-1.1727592,9.472004,2.25303911409526967185,1.3730747,10.8469305,2.9550436,-1.2010341,9.468987,2.25081731409526967186,0.75118077,11.544841,3.1004913,-1.2196828,9.470488,2.23442671409526967195,-0.29448682,11.863868,2.6581624,-1.2248945,9.475484,2.2102521409526967222,-0.84216046,11.5873375,1.541866,-1.2311333,9.485308,2.16417311409526967223,-0.31543607,11.288661,1.0043676,-1.221291,9.501769,2.09648011409526967225,0.5129577,11.647193,2.1158757,-1.1818274,9.522429,2.02410941409526967249,1.3664906,11.847707,2.5264814,-1.1085925,9.543009,1.96783911409526967254,1.4221559,11.220427,1.0809821,-1.0062898,9.565683,1.91193081409526967255,0.38067806,10.373477,-0.2220622,-0.8881177,9.594001,1.82668651409526967277,-0.57879823,9.643845,-0.36511576,-0.7622933,9.625342,1.71525081409526967278,-1.5939398,9.548675,0.3274071,-0.6287585,9.653781,1.60610251409526967296,-2.441487,11.073781,1.0965444,-0.48523843,9.676527,1.5164931409526967297,-2.926313,14.5567465,1.4987702,-0.3342139,9.693023,1.45052151409526967315,-3.0334535,18.430565,1.246182,-0.18759617,9.7048435,1.39685421409526967316,-2.8203697,19.608511,0.75716627,-0.048872057,9.711249,1.36368491409526967324,-3.2142158,19.566015,0.47345337,0.07777174,9.712424,1.35393451409526967345,-3.7187939,17.684172,0.26396075,0.16960049,9.708996,1.37004341409526967346,-2.574964,14.538191,1.7513585,0.2177575,9.701126,1.41813721409526967359,-2.3810337,8.889671,3.2872388,0.24898368,9.68413,1.52514041409526967376,-3.1812954,10.148422,4.8620253,0.27383426,9.657506,1.68166891409526967376,-2.5013423,12.159552,4.735132,0.28737172,9.623482,1.86451211409526967390,-1.9405005,10.873267,3.8600516,0.31993812,9.588586,2.03151871409526967411,-1.4425066,8.781333,2.743755,0.39732957,9.560567,2.14664721409526967411,-0.8158242,7.430405,2.3678656,0.5150542,9.543223,2.19817881409526967424,-0.05925649,7.071873,2.8137856,0.6439081,9.5288515,2.22638371409526967425,1.0516531,7.5387425,3.4488475,0.78803426,9.515965,2.23512941409526967444,1.6807296,7.8266454,3.6164417,0.941408,9.498738,2.2490241409526967445,2.1122844,8.124125,2.8526914,1.0999439,9.476324,2.27152041409526967458,2.2182279,8.015189,1.9357121,1.2550772,9.451627,2.29388831409526967473,2.3187842,7.7829514,1.3640964,1.3962796,9.426541,2.31540751409526967475,1.3545196,6.4781113,0.9600749,1.5156429,9.401038,2.3438681409526967491,0.88645315,5.2840033,1.0588357,1.6041234,9.37551,2.38683491409526967495,0.7918822,4.7123876,1.2485762,1.669296,9.348704,2.44653871409526967508,0.7140707,4.084508,1.3784616,1.7245235,9.318526,2.52219221409526967524,0.6572084,3.8468835,1.5209166,1.7755522,9.28633,2.60420471409526967524,0.58657944,3.9252937,1.6897079,1.8245339,9.25179,2.6918081409526967539,0.6859388,3.7702692,1.9494787,1.8677746,9.217929,2.77697541409526967544,0.7781156,3.8492777,2.0829554,1.9051498,9.187302,2.85206771409526967557,0.8355764,4.1557355,2.3570917,1.9358196,9.163008,2.90899831409526967572,0.88645315,4.574721,2.8293478,1.9594342,9.146664,2.94441221409526967580,1.1067197,5.209783,3.3608606,1.9741651,9.138619,2.95951221409526967602,1.5759833,5.934029,3.719991,1.9790988,9.137871,2.95852951409526967603,2.3546975,6.8761473,4.0623617,1.9740471,9.143008,2.94600271409526967605,3.141791,8.069058,4.5394063,1.959648,9.152525,2.9259981409526967626,3.6858735,9.211691,5.201403,1.9351257,9.165339,2.90210681409526967627,3.9683893,10.150218,5.3199162,1.9064617,9.178337,2.87991711409526967642,3.8714242,10.661979,4.5687356,1.8643821,9.195154,2.8537031409526967644,3.7912183,10.444106,4.1419687,1.8097026,9.216886,2.81857681409526967660,3.4105403,10.561422,4.657321,1.7518675,9.239037,2.78236061409526967677,2.6701334,13.046005,5.327099,1.699881,9.257216,2.75404331409526967677,2.6797101,16.251242,4.673482,1.6557668,9.272721,2.72863581409526967690,3.1543608,16.342821,3.5853171,1.6250339,9.286677,2.69949461409526967718,4.5765166,14.539389,3.0059202,1.6224995,9.290509,2.68781161409526967719,5.8562174,11.196485,3.0232782,1.6608261,9.277419,2.70952961409526967721,6.7965403,8.324639,3.9312792,1.7285119,9.24285,2.7843011409526967724,5.4019175,6.051345,11.2725,1.8249524,9.185307,2.91034221409526967751,4.0294414,11.303625,12.253524,1.9328437,9.09497,3.11705541409526967755,4.697424,18.611326,7.447763,2.0386484,9.004366,3.30691811409526967757,0.7146692,18.104355,4.2880154,2.1570792,8.962036,3.3465381409526967775,-3.578733,14.593258,2.6982653,2.2155058,8.963475,3.30424671409526967776,-4.3317094,11.943475,0.2657564,2.2031374,8.983667,3.2573431409526967793,-3.3081882,10.172364,0.18495208,2.148521,9.006131,3.2316961409526967810,-3.008913,9.965864,2.2098482,2.0692925,9.014396,3.26023221409526967811,-2.6252422,10.664372,2.1027076,1.9571264,9.01601,3.32439761409526967826,-2.0488381,10.225037,0.207697,1.833925,9.02902,3.3591511409526967827,-1.5634137,9.94312,-0.45968673,1.7305915,9.0582485,3.33520081409526967843,-1.3736732,9.934141,-0.23463176,1.6468846,9.091385,3.28707531409526967844,-0.98461545,9.768942,0.16998832,1.570962,9.120075,3.24448591409526967860,-0.109534726,9.294889,0.7188591,1.5100597,9.141251,3.21366641409526967872,0.7194576,8.792706,1.335366,1.4632072,9.163772,3.17091561409526967876,1.2563573,8.576031,2.0111294,1.4218092,9.19424,3.10077761409526967896,1.5580268,9.041104,2.582745,1.376808,9.230535,3.01197481409526967896,1.8327614,9.254189,2.6408045,1.3236759,9.267287,2.9215821409526967905,2.010531,9.058462,2.4779987,1.2628727,9.300711,2.8411841409526967933,1.6891093,9.057863,2.1984756,1.1950752,9.330123,2.7732631409526967935,1.1695676,9.456498,2.1110873,1.119522,9.359645,2.70446131409526967938,0.39264908,9.682152,1.763928,1.0399799,9.391858,2.62332841409526967946,-0.30526072,9.625888,1.2318168,0.9549238,9.425331,2.53409531409526967972,-0.48003745,9.370906,0.8714894,0.87224406,9.458868,2.43708471409526967973,-0.53330845,9.147048,0.5686229,0.7968372,9.488178,2.34732371409526967976,-0.6452374,9.106945,0.47644615,0.73165774,9.511839,2.2715651409526967991,-0.6979098,9.227852,0.9343372,0.67554015,9.530826,2.20847681409526968008,-0.6338649,9.239823,1.2425907,0.62431175,9.545548,2.1594291409526968009,-0.427365,8.540716,1.003769,0.57140845,9.55671,2.12442261409526968026,0.044292733,8.021772,0.6703765,0.51249856,9.564832,2.10278731409526968027,0.21308395,7.7889366,0.5967548,0.44638154,9.571483,2.08754681409526968044,0.19812019,7.802105,0.670975,0.37204498,9.579463,2.06539821409526968045,0.17178397,8.197148,0.7697359,0.2877315,9.590907,2.02535841409526968058,0.18375498,8.438962,0.98222125,0.20041883,9.603361,1.97628321409526968072,0.3776853,8.100183,1.3335704,0.10632015,9.6163645,1.91953541409526968076,0.85772276,7.727286,1.6729485,0.009222587,9.625679,1.87525841409526968097,1.5717934,7.7829514,2.0709844,-0.08834172,9.62904,1.85584881409526968098,2.4019828,8.173206,2.333748,-0.17967355,9.630853,1.83977571409526968105,2.96881,8.496424,2.2780828,-0.26044747,9.62477,1.86181331409526968133,2.896984,8.337808,2.2068555,-0.33387366,9.61631,1.89353941409526968134,2.5995045,8.115746,2.2296004,-0.41070613,9.606057,1.93012521409526968136,2.1763294,7.9008656,2.260725,-0.49344668,9.59508,1.96503111409526968170,2.0362685,7.7147164,2.542642,-0.5812066,9.584696,1.99153391409526968172,1.8992004,7.8446016,2.5689783,-0.6684803,9.574027,2.01531931409526968173,1.8136078,8.1319065,2.7928362,-0.7532896,9.563495,2.03532051409526968177,1.5831659,8.4647,3.513491,-0.82574403,9.551829,2.0618211409526968198,1.3395559,8.948329,3.494936,-0.8818169,9.53704,2.1065731409526968199,0.8403648,9.34397,3.144784,-0.9247297,9.520447,2.16248851409526968205,0.6967127,9.412804,2.3624785,-0.9639478,9.504911,2.21310971409526968231,1.2731167,9.091981,1.3365631,-1.0038319,9.49299,2.2463021409526968232,1.9776106,9.083003,1.3257892,-1.0440905,9.485494,2.25957511409526968237,2.4420857,9.548675,2.1930888,-1.0802544,9.482304,2.25595931409526968265,2.416348,10.031705,2.8772318,-1.108032,9.481528,2.24572561409526968266,2.307412,10.745776,2.8616695,-1.125647,9.481633,2.23650531409526968267,2.2164323,11.300632,2.6120741,-1.1357248,9.4830885,2.22520951409526968278,1.9177556,11.546038,1.9997569,-1.1319383,9.488188,2.20531821409526968296,1.8273745,11.7387705,1.9620483,-1.1169325,9.498078,2.17010551409526968299,1.4700398,10.914567,2.260725,-1.0876619,9.511402,2.1261751409526968305,1.2563573,10.183737,2.1080947,-1.0491921,9.525041,2.0840341409526968332,1.0259154,9.81084,2.5659857,-0.9973703,9.538704,2.04664681409526968334,0.3669114,9.522339,1.8267759,-0.92954105,9.550482,2.02352551409526968336,-0.65182143,8.8328085,0.49440265,-0.8528858,9.56345,1.9958531409526968364,-1.6968905,7.683592,-0.45010993,-0.77177566,9.58155,1.94130771409526968365,-2.1440077,7.5112095,-1.0456676,-0.68382114,9.603994,1.86174671409526968367,-2.9287071,8.315661,-0.7009025,-0.580574,9.6290865,1.76465931409526968378,-2.4690206,11.073781,-0.10295067,-0.47429723,9.652818,1.66389721409526968399,-2.7287915,15.7825775,0.82121116,-0.3470786,9.674292,1.56780111409526968401,-1.4000094,19.52651,1.0749966,-0.21497445,9.688339,1.50341891409526968405,-0.9307459,19.608511,1.3760674,-0.06189561,9.69354,1.48386491409526968440,-1.9572599,19.121292,1.4808137,0.0947773,9.688953,1.5118081409526968442,-3.2489316,16.460735,1.4185646,0.21760216,9.678458,1.56541051409526968445,-3.5206735,13.532028,1.7950528,0.28927243,9.663601,1.64363471409526968474,-3.2333694,11.050438,2.5330653,0.3239058,9.642996,1.75446061409526968475,-3.7032316,10.033501,3.9917328,0.33844125,9.617849,1.88489261409526968477,-3.4123359,12.252926,4.5938745,0.34312385,9.591241,2.01513581409526968498,-2.5905263,11.894394,3.9073372,0.3666798,9.564257,2.1356321409526968500,-1.0193313,7.792528,2.2068555,0.42071024,9.544098,2.21440581409526968501,-0.5494693,7.00304,2.4863784,0.5324341,9.530583,2.24830961409526968505,0.59615624,7.8475947,3.50152,0.6657003,9.517513,2.26807881409526968522,0.9708488,7.5722613,3.7894228,0.8114421,9.499502,2.29595881409526968525,1.2910733,7.3753386,3.4105403,0.96684366,9.475557,2.33439871409526968539,1.6448165,6.955156,2.4091654,1.1224138,9.448225,2.37521121409526968555,1.5855601,6.2368956,1.7753005,1.2668682,9.42125,2.40945121409526968556,1.5370775,5.720945,1.4676456,1.3925989,9.39539,2.44084551409526968573,1.2922704,5.065532,1.6819267,1.4957753,9.370107,2.4767251409526968587,1.2072762,5.052963,2.0727801,1.5775989,9.344221,2.52331381409526968588,1.1504139,5.1140146,2.211644,1.6518818,9.317138,2.57538941409526968602,1.0414777,5.0822916,2.1601684,1.7146037,9.289251,2.63444951409526968605,1.0905589,5.133168,2.0506337,1.7699714,9.26146,2.6949881409526968618,1.1330559,5.2343235,1.9087774,1.8177773,9.235202,2.75266151409526968625,1.3880384,5.3043537,1.7717092,1.8587247,9.211704,2.80357741409526968637,1.7525556,5.1744685,1.7106571,1.8932716,9.192424,2.8434611409526968654,2.0907366,5.149329,1.7699136,1.9216872,9.178056,2.8706831409526968658,2.417545,5.2648497,2.1374235,1.9437517,9.16917,2.88418481409526968671,2.557606,5.524022,2.7742813,1.957855,9.165206,2.88724541409526968687,2.5779567,6.201581,3.8839936,1.9606758,9.165796,2.883461409526968687,2.7012582,6.7253127,4.1222167,1.949112,9.17107,2.87451221409526968705,2.7335799,7.3950906,4.5723267,1.9298333,9.179601,2.86025621409526968706,2.6408045,8.12592,5.0158525,1.8910724,9.19552,2.83490091409526968721,2.618658,8.867524,4.9482164,1.833575,9.217321,2.8016761409526968725,2.64679,9.461885,4.6621094,1.7635641,9.24285,2.76223831409526968740,2.9311013,10.193314,4.7979803,1.6892433,9.268532,2.72234341409526968754,3.347094,11.167155,5.386954,1.619759,9.289018,2.69460841409526968756,3.4955344,12.537237,5.952584,1.5656226,9.298928,2.69242721409526968772,3.3153708,14.809933,5.4312468,1.5354042,9.295256,2.72233941409526968789,2.9562407,15.443798,3.5607765,1.5352311,9.281786,2.76801511409526968789,3.3692403,13.634978,1.8555063,1.5660473,9.269296,2.79250031409526968810,4.127005,11.149797,2.2798786,1.6134609,9.258488,2.80135041409526968811,5.065532,9.226056,3.9977183,1.6827172,9.238656,2.82597111409526968817,4.7339354,8.2037325,8.157045,1.7625736,9.197212,2.9111881409526968825,2.9149406,10.849325,11.439496,1.8542825,9.12599,3.0738161409526968839,3.7355533,17.848175,8.149264,1.9377941,9.040516,3.26870011409526968855,2.8329391,19.546263,4.845266,2.0243096,8.989349,3.3562121409526968857,-1.3928268,16.600197,3.6709096,2.0874386,8.980392,3.34148721409526968871,-1.7830818,9.781511,0.37110126,2.080326,8.992354,3.31363941409526968887,-1.4790181,7.805696,2.3139958,2.0695417,8.996259,3.30979321409526968888,-1.3874398,7.7368627,3.5236664,2.025224,8.987694,3.36009071409526968904,-1.8351556,7.8086886,3.21661,1.954236,8.977873,3.4277061409526968905,-1.3497312,8.173804,2.645593,1.8901575,8.972467,3.47743061409526968919,-0.6757634,9.066243,2.2230163,1.8319083,8.979803,3.48964791409526968935,-0.5781997,9.820416,1.6406267,1.7875818,8.998648,3.4639991409526968937,-0.31543607,10.513538,1.1174936,1.7517834,9.022096,3.42102841409526968956,0.08439561,10.898406,0.8218097,1.7149904,9.049664,3.36642121409526968958,0.60812724,11.063007,0.9648633,1.6684438,9.087598,3.28667711409526968974,1.079785,11.741764,1.216853,1.6144128,9.137384,3.17368321409526968992,1.4077905,12.137405,1.3443443,1.5556334,9.194034,3.03646921409526968993,1.5699978,11.8099985,0.76195467,1.4903216,9.247307,2.9045941409526968997,1.555034,10.772112,0.39564183,1.4137214,9.291095,2.80130841409526969005,1.2060791,9.931149,0.76554596,1.3202652,9.325654,2.73120071409526969019,1.0295067,9.546281,1.4634558,1.213003,9.355343,2.67891121409526969036,0.7715315,9.224859,2.1164744,1.09636,9.3818655,2.6360951409526969037,0.4818331,8.82802,2.4193408,0.98102325,9.407078,2.59130761409526969059,0.030526072,8.15525,2.391209,0.8761761,9.430842,2.54202911409526969060,-0.7032967,7.436989,1.7950528,0.7821531,9.451497,2.49556541409526969066,-0.66379243,7.16824,1.4155718,0.69311523,9.468393,2.4575411409526969091,-0.66379243,7.0467343,1.2593501,0.61164373,9.481574,2.4281761409526969093,-0.41000703,6.819285,1.2108675,0.5386931,9.492495,2.40265971409526969097,-0.43873745,7.435792,1.039682,0.4776637,9.501843,2.37848731409526969106,-0.45190558,7.8086886,0.7942764,0.422581,9.511354,2.35073611409526969127,-0.3764882,7.9984293,0.7517793,0.3679767,9.521044,2.32049871409526969128,-0.24899697,7.951742,0.5255273,0.30505583,9.530729,2.28965761409526969137,-0.38965634,7.963713,0.40222588,0.22979982,9.542129,2.25064091409526969166,-0.40342298,8.213309,0.6051345,0.14200784,9.557075,2.19375161409526969168,0.011971008,8.437167,0.8038532,0.045929685,9.57477,2.11944961409526969169,0.5231331,8.432379,1.3563153,-0.04763444,9.592094,2.03956821409526969198,1.2808979,8.463503,1.6687586,-0.12949732,9.604886,1.97479081409526969200,2.2649148,8.6496525,1.9728222,-0.19556642,9.611228,1.93815481409526969203,3.0298622,8.955511,2.3427265,-0.24583735,9.610895,1.93407651409526969205,3.1573534,8.822035,2.4211364,-0.28401014,9.605461,1.95571911409526969222,2.896984,8.631097,2.3062148,-0.32025984,9.597482,1.98901521409526969239,2.5863364,8.694544,2.1871033,-0.3614844,9.588632,2.02431681409526969240,2.4103625,9.039907,1.6250644,-0.40666503,9.578658,2.06260781409526969258,2.135628,8.911818,1.4520833,-0.45832977,9.569251,2.09517031409526969258,2.4223335,9.085996,1.6352397,-0.5180869,9.560595,2.12061051409526969265,2.5600002,9.13388,2.2110453,-0.57762617,9.55236,2.14223071409526969287,2.4121583,8.433576,3.2836475,-0.63255954,9.542059,2.17241761409526969288,2.2272062,8.231864,4.1772833,-0.6844274,9.526338,2.22504571409526969300,1.5981296,8.395866,4.1838675,-0.7335009,9.5057535,2.2963031409526969305,0.95947635,8.715493,3.376423,-0.78581697,9.484324,2.36653041409526969318,0.8415619,9.252393,2.0949266,-0.8424007,9.466384,2.41833141409526969334,1.5646108,9.739613,1.0510546,-0.8986235,9.453772,2.44725581409526969337,2.460641,10.416573,1.2611457,-0.9481204,9.44539,2.46091271409526969382,2.5971103,10.954071,1.899799,-0.9823435,9.442262,2.4594911409526969398,2.1362264,11.159374,2.1086931,-1.0088571,9.443548,2.44377161409526969399,1.7058687,11.230601,2.5605986,-1.0333848,9.447245,2.41910821409526969403,0.5021838,11.086351,2.908955,-1.0491965,9.452372,2.3921181409526969404,-0.35913026,10.8469305,2.6024973,-1.059424,9.459072,2.3609231409526969426,-0.3776853,10.755951,2.2661119,-1.0566571,9.468259,2.32506681409526969427,-0.04070143,10.869077,2.3666685,-1.0292768,9.480687,2.28638891409526969429,0.3274071,11.042058,2.1278467,-0.9755656,9.49746,2.23984771409526969430,0.15682021,10.893618,0.4417302,-0.8998263,9.520451,2.17295271409526969437,-0.15562311,9.9790325,-0.07182605,-0.81988746,9.547622,2.0835331409526969455,-1.2539631,8.742428,-0.050876785,-0.72268236,9.575421,1.98982721409526969478,-1.7286136,8.385093,-0.12090719,-0.61863124,9.599385,1.90774741409526969479,-2.1601684,8.967483,0.3238158,-0.5039827,9.620987,1.83112361409526969481,-2.4199393,11.024101,1.1611878,-0.38164598,9.639755,1.76064371409526969486,-2.6563668,14.322713,2.0338743,-0.25269452,9.653046,1.71032981409526969507,-2.6120741,17.64407,2.1284454,-0.124640234,9.657647,1.69844111409526969508,-2.3475149,18.694525,1.5693992,1.83E-04,9.655024,1.71782281409526969518,-2.7700913,17.217901,1.3563153,0.12034795,9.648186,1.75169811409526969540,-3.12982,14.526819,1.8525136,0.2173259,9.636883,1.80378541409526969542,-2.7509377,11.681909,2.7736826,0.28060982,9.619023,1.88840151409526969546,-2.2720973,9.522937,3.5140896,0.33814043,9.594898,1.99849621409526969582,-3.039439,8.980052,4.547786,0.37626427,9.564029,2.13498021409526969583,-2.544438,11.909956,4.9542017,0.39964908,9.529089,2.28191731409526969584,-2.1003134,11.668142,4.049194,0.42928603,9.49602,2.41075251409526969586,-1.5795746,9.604341,2.6378117,0.49359486,9.472105,2.4911811409526969609,-1.1252748,8.057087,2.0093338,0.59283,9.459716,2.51649121409526969610,-0.25438392,7.6231384,2.3277626,0.71118027,9.452648,2.51237921409526969617,1.2384008,7.78355,3.4650085,0.8438341,9.442562,2.50925021409526969637,1.894412,7.9212165,3.2094274,0.99065626,9.424079,2.52501651409526969638,2.4355016,7.5327573,2.4672248,1.1358237,9.400812,2.55049941409526969654,2.232593,6.4858923,1.9560628,1.2715102,9.376467,2.57594821409526969673,2.0871453,5.853823,2.0769699,1.3934907,9.351047,2.60509661409526969674,1.9506758,5.510854,2.3439236,1.492225,9.326033,2.63984541409526969691,1.8555063,5.3103395,2.4774003,1.5659306,9.30053,2.68670821409526969692,1.7812861,5.139154,2.4672248,1.6264362,9.273146,2.74479031409526969698,1.6573862,4.8560395,2.586935,1.6806308,9.244391,2.80839751409526969706,1.654992,4.735731,2.8616695,1.7292995,9.21466,2.87575321409526969719,1.8130093,4.9374423,3.1028855,1.770609,9.185034,2.94457051409526969734,1.857302,5.2409077,3.1783028,1.8044533,9.157256,3.00981831409526969739,1.910573,5.5120506,2.9921536,1.8319061,9.133254,3.0656421409526969756,2.082357,5.6245785,2.8772318,1.8552226,9.1138,3.10921221409526969758,2.3540988,5.7299232,2.8042088,1.8786122,9.096504,3.14560341409526969768,2.6060886,5.837064,2.995745,1.8966011,9.083639,3.1718761409526969793,2.755726,5.975329,3.3740287,1.9090126,9.075424,3.18790941409526969795,2.8275523,6.0645127,3.6990416,1.9122286,9.073494,3.19146971409526969797,3.0454245,6.432023,4.0779243,1.9019741,9.080408,3.1779071409526969808,3.442862,7.615357,5.33069,1.8786277,9.096824,3.14466881409526969828,3.518878,8.585608,5.8382607,1.8455458,9.118289,3.10181409526969829,3.3183637,9.486425,5.3342814,1.8032793,9.143482,3.05210041409526969837,3.2333694,9.006389,5.01286,1.7541335,9.171413,2.99642831409526969861,2.3481133,8.383896,5.8065376,1.7066703,9.195483,2.94970731409526969862,1.163582,12.714408,6.157288,1.6621962,9.208842,2.9333771409526969866,1.6298528,16.282368,4.2185836,1.6031684,9.221268,2.9271981409526969885,2.767697,16.258425,2.7072437,1.5573661,9.237703,2.89997341409526969886,4.377199,15.276802,2.7323828,1.5517722,9.248831,2.86732131409526969904,5.614403,12.85387,3.9085343,1.6018864,9.240781,2.86571571409526969908,6.308123,10.487801,6.4110737,1.6893463,9.202594,2.93747931409526969929,5.1930237,11.306019,10.548853,1.7940893,9.127541,3.10477641409526969930,4.119224,15.943587,9.686341,1.9008833,9.019073,3.3486331409526969937,1.644218,18.646044,6.7630215,2.0055602,8.926245,3.53132651409526969965,-2.1045034,16.46253,3.803788,2.0814846,8.885787,3.58895561409526969970,-3.8504748,13.165715,1.4059949,2.1046205,8.887707,3.5706651409526969972,-2.6569653,9.239224,0.40222588,2.0827086,8.901568,3.54891661409526970013,-1.335366,6.91625,2.0614076,2.0582569,8.898029,3.57197951409526970015,-1.2689269,6.603208,3.6487634,2.0117621,8.879266,3.64442851409526970017,-1.453879,7.7105265,2.0913353,1.93913,8.866747,3.71362191409526970019,-1.3551182,8.682572,1.5999253,1.8598398,8.882912,3.71554681409526970021,-0.9355343,9.7324295,1.359308,1.7861924,8.92156,3.65864351409526970049,-0.51954174,10.866683,0.8487445,1.7224725,8.966834,3.57762171409526970051,0.12988544,11.106103,0.64463884,1.6686114,9.01121,3.49058531409526970052,0.9463082,10.550649,0.74758947,1.6272306,9.0544,3.3971081409526970072,1.2707225,10.497377,1.0324994,1.5928845,9.099235,3.29196481409526970073,1.2515689,10.866683,1.1695676,1.5522004,9.148279,3.17333721409526970078,1.228824,10.937312,1.2210429,1.5008421,9.197752,3.05273941409526970086,1.1324574,10.192716,1.276708,1.4366554,9.244763,2.93951731409526970109,1.0486604,9.227852,1.525705,1.3554573,9.282027,2.85956171409526970110,0.9828198,8.895657,2.2152352,1.2586316,9.309701,2.81348231409526970118,0.7026982,8.859145,2.7527335,1.1533514,9.333373,2.77998851409526970140,0.3585317,8.662222,2.718616,1.0497293,9.357373,2.74008081409526970141,-0.18195933,8.327033,2.4127567,0.9569503,9.382331,2.68822031409526970147,-0.61171854,8.021174,1.8429368,0.87140757,9.407221,2.62968521409526970175,-0.7314286,7.7506294,1.1210849,0.7856036,9.431289,2.56983071409526970177,-0.56802434,7.527969,0.65660983,0.7002004,9.454623,2.50803041409526970178,-0.24540567,7.6069775,0.9223662,0.6236086,9.47635,2.44546841409526970187,-0.2813187,8.3072815,1.3634979,0.55584455,9.495788,2.38567761409526970211,-0.19931729,8.59698,1.1647792,0.49702555,9.511732,2.33459161409526970212,-0.17477672,8.683769,0.9540894,0.44086382,9.524388,2.2939241409526970218,-0.17477672,8.764574,0.6817489,0.37955463,9.534514,2.26260191409526970246,-0.24241292,8.403648,0.6619968,0.30907208,9.545317,2.22751121409526970247,-0.11911154,8.3408,0.9343372,0.2294583,9.55923,2.17689471409526970249,0.5398925,8.710106,1.2916719,0.14314736,9.575929,2.10985041409526970281,1.3000516,8.377312,1.3814543,0.059972238,9.591372,2.0426411409526970282,2.3678656,8.636484,1.423353,-0.012764204,9.600962,1.99794091409526970284,2.6426,8.327033,1.5831659,-0.07184593,9.603683,1.98355641409526970287,2.879626,8.11395,2.070386,-0.1268281,9.602873,1.98473361409526970314,2.842516,8.231265,2.4971523,-0.17999037,9.596356,2.01194481409526970315,2.6001031,8.313267,2.6150668,-0.23325083,9.585248,2.05888841409526970318,2.3720553,8.297106,2.5689783,-0.2907634,9.571877,2.11305671409526970344,2.4223335,8.319851,2.4211364,-0.35803777,9.558732,2.161681409526970346,2.5510218,8.305486,2.1571758,-0.43205842,9.547586,2.19711971409526970348,2.5995045,8.280945,2.2876596,-0.5065743,9.538292,2.22143911409526970371,2.3612814,8.182184,2.7694929,-0.5738347,9.52812,2.24856281409526970372,2.32058,8.094197,3.2632968,-0.6316905,9.515257,2.28718331409526970386,1.5825673,8.422203,3.3147724,-0.67873514,9.500512,2.33451961409526970387,0.973243,8.597578,2.7048495,-0.7255354,9.486074,2.37873341409526970403,1.0749966,9.054273,2.2002714,-0.7776397,9.473665,2.4115041409526970418,1.9243397,9.441534,1.3892355,-0.8262276,9.466355,2.42401531409526970419,2.7868507,9.919178,1.3060371,-0.865155,9.464003,2.41962361409526970432,3.2716765,10.383653,2.0655975,-0.88958156,9.46471,2.40796021409526970451,2.9334955,10.771513,2.6731262,-0.90000343,9.467083,2.39472841409526970452,2.4277205,11.341333,2.883816,-0.9049655,9.47015,2.38069151409526970465,1.6585833,11.547235,3.4530375,-0.90416753,9.474426,2.36392051409526970467,0.49559975,11.667543,3.413533,-0.89907223,9.479681,2.34471851409526970482,-0.095768064,11.131841,2.319383,-0.89194256,9.48742,2.31596471409526970486,0.41599256,10.873865,2.078167,-0.872831,9.499874,2.27177521409526970499,1.0672154,11.538856,2.9227216,-0.82780296,9.5161915,2.21974231409526970521,1.4640543,12.844294,2.2343888,-0.7682608,9.533146,2.16779021409526970522,0.85293436,13.126211,0.23642741,-0.68431145,9.557037,2.08929231409526970527,0.13946225,12.114062,-0.8643068,-0.5944254,9.588169,1.97081151409526970552,-1.2378023,10.319608,-0.85891986,-0.4997129,9.6192465,1.84140941409526970557,-2.100912,9.198523,-0.6434417,-0.4056742,9.644453,1.72926191409526970577,-2.5887306,9.0315275,-0.19991584,-0.30691996,9.664104,1.63745511409526970579,-3.2860417,12.748526,1.5921441,-0.19640122,9.678177,1.56994221409526970588,-3.6014779,16.05372,2.0739772,-0.085725434,9.683582,1.54637781409526970589,-3.8630445,18.564041,1.903989,0.021063173,9.680719,1.56640531409526970616,-3.6044707,18.195333,1.5837644,0.11788605,9.672261,1.61364641409526970618,-3.5458126,15.429433,1.7567455,0.21079452,9.661043,1.67038581409526970619,-2.9616275,12.081141,2.7353754,0.30425072,9.643381,1.75585581409526970642,-1.9237411,9.640852,3.7702692,0.37406713,9.618786,1.87334421409526970644,-1.3192052,8.978256,4.2479124,0.42308205,9.587739,2.01659941409526970647,-2.3810337,8.584411,4.654927,0.4603476,9.551927,2.17236761409526970674,-1.4012065,11.2371855,4.548983,0.48705834,9.515382,2.32178521409526970675,-0.8379706,11.200674,3.691859,0.5272641,9.48358,2.44009951409526970679,-0.51714754,9.063849,2.5839422,0.6025315,9.461334,2.50809171409526970689,0.020949265,7.4495587,1.9440918,0.7128207,9.449102,2.52522061409526970709,1.1115081,7.827842,2.4995465,0.84331876,9.442483,2.50972321409526970710,1.6519991,7.9954367,3.052607,0.9897798,9.433131,2.49133751409526970719,1.9818004,8.237251,2.8287494,1.1405468,9.418565,2.48197581409526970739,2.5677812,8.652645,2.3157916,1.2899843,9.398001,2.48674731409526970740,2.1942859,8.002021,1.8662802,1.4296607,9.372758,2.50557181409526970747,1.8644845,7.0700774,1.6089035,1.5479343,9.344022,2.54235221409526970768,1.4065934,5.697003,2.3343468,1.6379539,9.313254,2.5982321409526970772,1.5059528,5.391742,2.5570073,1.7040093,9.279522,2.67530011409526970793,1.5035586,5.1900306,2.7569232,1.7584541,9.243627,2.76290231409526970794,1.411382,5.060744,2.9604304,1.8080928,9.2063875,2.8537031409526970799,1.411382,4.915296,3.0268695,1.8520637,9.169938,2.941511409526970815,1.3688848,5.01286,3.0609868,1.888625,9.136498,3.02124291409526970831,1.5771804,5.2582655,3.040636,1.9171041,9.107812,3.08915331409526970832,1.6927006,5.470751,2.8748376,1.9437656,9.081503,3.14936141409526970848,1.7298107,5.583877,2.6862943,1.963386,9.061795,3.19364241409526970849,1.797447,5.774216,2.789245,1.977509,9.049531,3.21960161409526970863,1.8974048,5.8891377,2.9466639,1.9856317,9.044329,3.22920821409526970867,2.0201077,5.869984,2.9753942,1.9862396,9.045313,3.22607281409526970880,2.2936451,6.0878563,3.1759086,1.9764261,9.052699,3.21135161409526970898,2.706645,6.494272,3.5727475,1.9539396,9.066785,3.18526631409526970899,2.8933928,7.061698,4.345476,1.9200683,9.086488,3.1495221409526970925,3.0951042,7.9236107,4.735731,1.8755143,9.109868,3.10855981409526970926,2.7263973,8.87351,4.923077,1.8234979,9.135968,3.06256681409526970927,2.2876596,9.482835,4.83928,1.7639574,9.163656,3.0143421409526970958,1.9428947,9.181165,5.0158525,1.594422,9.223872,2.92376521409526970959,1.5304934,11.614871,6.1411276,1.594422,9.223872,2.92376521409526970960,1.6921021,14.611215,5.024831,1.594422,9.223872,2.92376521409526970967,2.4301147,15.070901,3.6164417,1.5537373,9.236018,2.90728041409526970984,4.0174704,14.126987,2.8694508,1.5427976,9.242544,2.8923251409526970999,5.535394,11.13603,3.0023289,1.5820082,9.237121,2.88846521409526971001,6.88752,8.247426,4.0372224,1.6616677,9.212216,2.92307021409526971014,6.4817023,7.173627,8.357559,1.7687533,9.158676,3.02664041409526971019,4.0940847,10.975619,11.920132,1.8949648,9.070576,3.21000671409526971033,3.354875,18.491018,9.309255,2.00951,8.973141,3.40808061409526971048,0.931943,19.43972,5.036802,2.1100273,8.9120655,3.5061771409526971049,-2.7210102,16.61217,2.2888567,2.1655986,8.912244,3.47166681409526971063,-2.8383262,13.223775,0.22385786,2.1657767,8.945323,3.38541051409526971067,-1.484405,10.209475,1.0995371,2.14055,8.972405,3.32932161409526971082,-1.5304934,9.0554695,3.6128504,2.0905786,8.967592,3.37374931409526971097,-1.7531542,9.828796,4.3065705,1.9958595,8.946526,3.48520261409526971099,-1.6609775,10.277111,2.5198972,1.8784224,8.93947,3.56760551409526971114,-1.5209166,9.61691,1.2617443,1.7725089,8.960232,3.5697131409526971119,-1.5143325,8.987235,1.2838906,1.6826248,8.991307,3.53490451409526971131,-1.3964181,8.795698,1.1055226,1.6033144,9.012577,3.51755761409526971148,-0.08439561,8.747814,1.5310919,1.5346649,9.027432,3.51008151409526971155,0.83138657,8.389283,2.0374656,1.4806036,9.041686,3.49658731409526971189,1.6430209,8.486248,2.3301568,1.436664,9.065093,3.45405221409526971191,2.0009542,9.511565,2.3517046,1.3980505,9.099228,3.37933561409526971192,1.9686323,9.982624,1.8351556,1.3562859,9.139724,3.28577521409526971193,1.8154035,9.853337,1.5544355,1.303865,9.180483,3.19203141409526971200,1.3437457,9.3499565,1.6430209,1.2364752,9.215605,3.11675261409526971220,0.6973112,8.973468,1.7208325,1.1528041,9.245388,3.06010081409526971221,0.19931729,8.9842415,1.7399861,1.0594939,9.275144,3.00326181409526971227,-0.29807812,9.094974,1.6071079,0.9649891,9.307785,2.9333111409526971252,-0.58298814,9.11293,1.5346833,0.873127,9.34144,2.85404161409526971254,-0.6488287,8.953117,1.3377602,0.78134125,9.373506,2.77439931409526971275,-0.74998367,8.634089,1.0576386,0.68859106,9.402363,2.70033981409526971277,-1.0414777,8.537125,0.94690675,0.5987905,9.426871,2.63551521409526971279,-1.0582372,8.385093,1.2186487,0.5155958,9.446811,2.58114811409526971305,-1.1671734,8.315661,1.1815386,0.44292074,9.461941,2.53887961409526971306,-0.97384155,7.8248496,0.95349085,0.37558192,9.472919,2.50861241409526971307,-0.5189432,7.2981253,0.6955156,0.31078327,9.480283,2.48958751409526971319,-0.2112883,7.299921,0.84934306,0.24719752,9.487318,2.46983931409526971339,-0.12569559,8.286332,0.97623575,0.18249212,9.498154,2.4335531409526971340,0.3513491,8.554482,1.1953052,0.1150741,9.514858,2.37162761409526971348,0.7721301,8.51857,1.4903905,0.04883578,9.534543,2.2935811409526971388,1.4359225,8.179192,1.8507179,-0.012997575,9.553013,2.21588971409526971389,2.2756886,7.9487495,2.144606,-0.073685125,9.5674925,2.15129181409526971390,2.806603,8.114548,2.545635,-0.127876,9.575235,2.11397891409526971392,2.9592333,8.407239,2.670732,-0.17421602,9.5759115,2.10759541409526971400,2.8502972,8.360553,2.516306,-0.21481968,9.57164,2.12319921409526971421,2.7443538,8.431181,2.259528,-0.25742564,9.56557,2.14568921409526971422,2.5420437,8.560468,2.1122844,-0.30505,9.560445,2.1622261409526971428,2.4732103,8.604162,1.9512744,-0.35775062,9.5569515,2.16958051409526971452,2.6874914,8.593987,1.7753005,-0.41354945,9.554742,2.16939521409526971453,2.8772318,8.599973,1.7483658,-0.46917564,9.552723,2.16696291409526971459,2.947861,8.571242,2.007538,-0.5205983,9.549304,2.170291409526971468,3.0771477,8.567651,2.6126726,-0.5688493,9.544169,2.18074081409526971482,2.9706059,8.640076,3.530849,-0.60758334,9.535535,2.20789811409526971499,2.3762453,8.875904,4.021062,-0.6405487,9.523832,2.24871021409526971503,1.4167689,9.19134,3.4249055,-0.675832,9.511281,2.29111081409526971528,0.91937345,9.358934,1.8309658,-0.7185184,9.500524,2.32253771409526971530,1.8243817,9.388862,0.7074866,-0.76477486,9.492348,2.34112431409526971531,2.942474,9.569026,1.2868834,-0.80543524,9.485609,2.35476041409526971561,3.2638955,9.796474,2.268506,-0.8362423,9.480929,2.3628521409526971562,3.12982,10.012551,2.5713725,-0.8603034,9.479737,2.35899351409526971562,2.5091233,10.206482,2.542642,-0.87769413,9.481922,2.34376051409526971568,1.7399861,10.903793,2.7246015,-0.8886689,9.485544,2.3248881409526971581,0.7739257,11.566987,3.0382419,-0.89716953,9.490509,2.30124761409526971600,0.23762453,11.617265,2.6162639,-0.89672244,9.497535,2.27225181409526971601,0.28670564,11.294048,1.2964603,-0.8805529,9.507983,2.23456361409526971614,0.8571242,11.040861,1.2264298,-0.83938044,9.522774,2.1869211409526971632,0.8798691,10.137649,2.0452468,-0.7710951,9.538289,2.14402821409526971633,0.004788403,9.215282,1.4909891,-0.685376,9.553599,2.1046121409526971649,-1.2653356,7.9870567,0.31543607,-0.59054255,9.572946,2.04459621409526971651,-2.4516625,7.173627,-0.53330845,-0.48748744,9.594754,1.96810281409526971663,-3.252523,8.018182,-0.31364042,-0.37370288,9.614706,1.89425021409526971671,-3.5847185,10.643424,0.75716627,-0.2529718,9.6312895,1.82884161409526971699,-3.5739446,14.790779,1.6753427,-0.1358249,9.64435,1.77156781409526971701,-2.9658175,18.931551,1.6256629,-0.014807766,9.652451,1.73215171409526971707,-1.6142905,19.342157,1.8561049,0.11800858,9.6563,1.70655381409526971741,-2.5803509,17.390284,1.8866309,0.270666,9.652644,1.70984881409526971750,-2.9221232,14.997878,1.8393455,0.3892371,9.643124,1.74041971409526971752,-2.0219033,12.723387,2.2385786,0.46738496,9.628797,1.79951021409526971753,-2.19249,10.120889,3.6230257,0.5192077,9.608629,1.8907841409526971754,-2.6072857,11.156382,4.9679685,0.55255437,9.581899,2.01302671409526971779,-1.5352819,12.625823,4.655525,0.57370245,9.550845,2.15003061409526971781,-1.1737574,10.994773,3.3129766,0.62098265,9.520729,2.2672611409526971782,-0.87807345,8.951322,2.0685902,0.71242243,9.497943,2.33493761409526971809,-0.20171149,8.144476,2.3906105,0.8219513,9.479468,2.37370661409526971810,0.26036942,7.3747396,3.1226375,0.95146435,9.46479,2.3838721409526971811,0.61770403,7.181408,3.5470097,1.0879005,9.446513,2.39797141409526971832,0.9139865,7.123947,3.3794158,1.2235167,9.422535,2.42677761409526971832,1.347337,7.0467343,2.8604724,1.3529323,9.395799,2.46149421409526971848,1.9494787,7.0982094,2.272696,1.472064,9.368838,2.49565531409526971849,1.5640123,6.3685765,1.8836381,1.5759523,9.342869,2.5293421409526971864,1.4317327,5.781997,1.8830396,1.653906,9.318248,2.57007381409526971868,1.3670892,5.671864,1.9440918,1.7095149,9.293523,2.62267141409526971880,1.1988965,5.6227827,2.005144,1.7530235,9.267509,2.68525031409526971896,1.2539631,5.6976013,2.1745336,1.7914319,9.240954,2.75062081409526971913,1.4550761,5.6006365,2.0883424,1.8286811,9.212851,2.81952261409526971914,1.5699978,5.427057,2.0446482,1.8664458,9.184671,2.88592961409526971928,1.6992847,5.2756233,2.0135236,1.9046762,9.157892,2.94544151409526971929,1.857302,5.133168,1.951873,1.9431732,9.133603,2.995291409526971948,2.0853498,5.105635,1.893215,1.9799496,9.114099,3.03041051409526971948,2.3092074,5.185242,1.9488802,2.0133643,9.1012535,3.04695731409526971962,2.6013002,5.3582234,2.2984335,2.0411751,9.095561,3.04545261409526971980,2.8107927,5.5497594,2.8921957,2.0622716,9.096084,3.0296331409526971980,2.8921957,5.795165,3.283049,2.0751278,9.101363,3.00489741409526971996,2.9406781,6.1824274,3.5954924,2.075239,9.112236,2.97169071409526972000,2.9071593,6.71394,4.1718965,2.0668643,9.125977,2.93513511409526972014,2.961029,7.526173,4.747702,2.0388322,9.145939,2.89229041409526972032,2.847903,8.479664,4.9536033,1.9919623,9.17091,2.84550361409526972033,2.4893713,9.34038,5.0757074,1.9294116,9.199848,2.79473661409526972048,2.4313118,9.655217,4.8626237,1.856227,9.228832,2.74835781409526972049,2.2888567,9.564238,5.549161,1.7846993,9.25261,2.71559521409526972064,2.6102784,11.501146,6.269217,1.726015,9.263386,2.7167941409526972077,2.5133133,14.638748,5.8586116,1.6943583,9.257389,2.75686121409526972081,3.9324763,13.830106,2.871845,1.6911178,9.241514,2.8115751409526972098,5.5389857,11.791444,2.5516205,1.7442251,9.22422,2.83581161409526972100,7.035362,9.276335,3.8534677,1.8422837,9.196452,2.86385271409526972114,7.1700354,8.03554,8.816648,1.9618063,9.152696,2.92401651409526972132,5.549161,11.261726,13.683461,2.0967677,9.070205,3.0830741409526972132,5.620987,18.486229,9.534309,2.2216167,8.951584,3.33225871409526972148,3.650559,19.48102,4.395156,2.3466227,8.871443,3.45850321409526972149,-0.9103952,16.460136,2.6324248,2.4401984,8.852028,3.44346361409526972161,-2.4785974,13.078925,0.29867667,2.4575598,8.865803,3.39533971409526972176,-1.7010803,9.631275,0.10594343,2.43515,8.882675,3.36727291409526972180,-1.7046716,7.889493,2.6204538,2.3943882,8.876214,3.41322731409526972193,-2.143409,7.8984714,4.0318356,2.3167315,8.857536,3.51385861409526972201,-2.657564,7.6883802,3.3345244,2.2127378,8.851353,3.5955141409526972215,-2.6719291,7.934983,2.6078842,2.1132495,8.859013,3.63626861409526972238,-2.4510639,8.647857,2.2523453,2.0205488,8.884633,3.62643891409526972240,-1.8776526,9.639654,1.6244658,1.9417684,8.913939,3.5974441409526972241,-1.2306197,10.747571,1.0755951,1.8808459,8.939582,3.56604721409526972249,0.034117375,11.155783,0.90740246,1.8333877,8.968769,3.51714021409526972274,1.353921,11.218032,1.122282,1.7976944,9.008351,3.43340681409526972276,2.0578163,11.585542,1.1911154,1.7650882,9.059346,3.3140751409526972280,1.8417397,11.326369,0.7140707,1.722622,9.117284,3.17460041409526972309,1.4760253,10.204087,0.8295909,1.6578823,9.173988,3.04298471409526972310,1.127669,9.458893,1.4287399,1.5711823,9.218398,2.95346241409526972312,0.91578215,9.205107,2.3026235,1.4678804,9.251001,2.90425321409526972345,0.47105917,9.172187,2.8389246,1.3573747,9.27835,2.87056951409526972347,0.039504327,9.02614,3.0041246,1.2473253,9.303331,2.83947181409526972349,-0.23463176,8.651448,2.7132292,1.1459715,9.326941,2.80452081409526972352,-0.5422867,8.2115135,2.1547816,1.0559491,9.347828,2.7700991409526972370,-0.81402856,7.941567,1.4496891,0.97079504,9.3654175,2.74169951409526972371,-0.88944596,7.778163,0.93613285,0.88393974,9.38182,2.71486641409526972380,-1.0893618,7.7560163,1.0109516,0.7985659,9.399032,2.68157841409526972401,-1.2264298,8.142081,1.1378443,0.7193296,9.416565,2.64220671409526972402,-1.079785,8.396465,0.7398083,0.6447548,9.43338,2.60115581409526972408,-0.75477207,8.193557,0.3597288,0.56967735,9.449715,2.55905561409526972428,-0.74519527,7.9702973,0.30166942,0.49077043,9.465916,2.5151491409526972428,-0.7080852,8.037933,0.3441665,0.41030484,9.4819565,2.4687131409526972444,-0.51714754,8.425196,0.7661445,0.32079235,9.500603,2.40957281409526972448,-0.17896658,8.847773,1.252766,0.22775692,9.522568,2.33221481409526972463,1.5526398,8.624513,1.5717934,0.13674247,9.545023,2.24594241409526972483,2.267309,8.015189,1.4431051,0.05917641,9.562847,2.17228961409526972484,2.7940333,7.6560583,1.5771804,-0.011666181,9.572736,2.12907771409526972488,2.7323828,7.0826473,1.8620903,-0.07853081,9.573902,2.12241241409526972523,2.6431987,6.9066734,2.086547,-0.14797814,9.568125,2.14463781409526972524,2.2990322,7.1909847,2.2331917,-0.21893589,9.558671,2.18042451409526972526,2.0141222,7.578247,2.130241,-0.29126844,9.548959,2.21425961409526972529,1.7549498,7.6045833,1.7770962,-0.3664096,9.54004,2.24138071409526972555,1.8261774,7.735666,1.5197195,-0.44589493,9.534453,2.25073031409526972556,2.2319946,8.257003,1.726818,-0.52911943,9.531624,2.24467471409526972559,2.6952724,8.737639,2.3463178,-0.607957,9.528987,2.23589091409526972576,3.1465795,8.903438,2.7156234,-0.67512935,9.523168,2.24140521409526972579,3.2303767,9.143456,2.854487,-0.72741795,9.51351,2.26591731409526972596,3.1262288,9.308656,3.1549592,-0.76834,9.501533,2.30237221409526972620,2.5617957,9.350554,3.6445735,-0.80064845,9.488281,2.3456081409526972622,1.9722236,9.476251,3.2070332,-0.83256304,9.474201,2.3909741409526972623,1.4856021,9.596559,2.6737247,-0.868728,9.462601,2.42381531409526972628,1.4915876,9.600749,2.3020248,-0.9084203,9.453918,2.44307111409526972658,1.8614918,9.651027,2.4193408,-0.948718,9.446625,2.45593021409526972660,2.4809916,10.663176,3.0190883,-0.98141277,9.44144,2.4630151409526972662,2.2391772,10.78528,2.9454668,-0.9991899,9.440532,2.45934441409526972687,2.0404584,10.845135,2.4361002,-1.0095845,9.443793,2.4425211409526972688,1.8369513,11.068993,2.5127146,-1.0089452,9.451241,2.41381361409526972690,1.2485762,11.294646,2.3882163,-0.9955023,9.461814,2.3776931409526972717,0.97025025,11.2210245,1.6310499,-0.970378,9.47642,2.32942271409526972718,0.9427169,11.068993,0.9900024,-0.929424,9.494672,2.27106931409526972720,1.0564415,11.001357,1.4239515,-0.8712838,9.513412,2.2150051409526972729,0.8242039,10.8229885,1.4095862,-0.79884666,9.531226,2.16517381409526972758,-0.004788403,9.950901,0.3645172,-0.7175413,9.551306,2.10430341409526972760,-1.3862427,8.62152,-0.61112,-0.6403721,9.572883,2.029841409526972761,-2.5013423,7.965509,-0.51714754,-0.55752605,9.595499,1.94575661409526972781,-3.4290953,8.550891,0.4321534,-0.46624148,9.615665,1.86868441409526972782,-3.679888,10.732608,1.2761095,-0.36427295,9.632293,1.8046121409526972795,-3.1316159,14.54717,1.6496049,-0.2461109,9.64499,1.7561341409526972813,-2.510919,18.47785,1.7609353,-0.111202955,9.652331,1.72931561409526972814,-2.0272903,19.608511,1.7513585,0.033078533,9.653362,1.72681451409526972827,-2.9418752,19.44032,1.6256629,0.17405586,9.646805,1.75478031409526972829,-3.5966895,17.219099,2.1158757,0.27399552,9.633806,1.81249021409526972843,-2.3714569,9.5253315,2.7365725,0.3300205,9.611728,1.91733651409526972858,-3.405752,8.520366,4.3065705,0.40456662,9.579481,2.05918811409526972860,-2.8461072,11.72261,4.6525326,0.4411711,9.538106,2.23613641409526972877,-1.7669208,11.927913,3.752911,0.46170992,9.494933,2.4090451409526972880,-1.2138603,9.750985,2.2960393,0.5070761,9.459396,2.53635451409526972899,-0.919972,7.740454,1.6687586,0.6014416,9.437266,2.5974341409526972921,-0.30166942,6.9725137,2.0991163,0.72929657,9.4256,2.60702731409526972922,1.2246342,8.094796,3.5978866,0.8723402,9.414574,2.6029281409526972923,2.179322,8.50181,4.557363,1.0319949,9.395069,2.61496621409526972929,2.7910407,8.780136,4.174889,1.2041955,9.365832,2.64602781409526972946,2.693477,8.455722,2.695871,1.370224,9.334151,2.67703081409526972963,2.4708161,7.7877398,1.4676456,1.5114058,9.307161,2.6949571409526972964,1.7537527,6.5247984,0.866701,1.6324338,9.282834,2.7082361409526972977,1.1623849,5.620987,1.0654198,1.7214302,9.261495,2.72613121409526972994,0.931943,5.1864395,1.6041151,1.784199,9.239192,2.76121831409526972995,0.8984242,4.8021703,1.977012,1.8355722,9.212695,2.81555031409526973008,1.0815806,4.526837,2.1146786,1.8834839,9.182466,2.88187361409526973009,1.2826935,4.3263226,2.0919337,1.9298103,9.15101,2.9504631409526973024,1.6932992,4.1276035,2.088941,1.9743519,9.121013,3.01320981409526973029,1.9500773,4.156933,2.070386,2.0176878,9.093646,3.0667451409526973041,2.1733365,4.23235,2.1619642,2.0580392,9.070653,3.10775331409526973065,2.3505075,4.433463,2.3397336,2.0938933,9.053425,3.13392521409526973066,2.456451,4.69084,2.6850972,2.1224043,9.0429735,3.1449021409526973069,2.743755,5.003283,3.181894,2.1470935,9.035439,3.14979861409526973098,3.2034419,5.4737434,3.66253,2.161596,9.033772,3.1446531409526973100,3.6487634,6.353613,4.0539823,2.1643782,9.038164,3.1300921409526973103,3.8367083,7.533954,4.419098,2.1510777,9.050064,3.10477281409526973109,3.6272156,8.748413,4.830302,2.1185236,9.070724,3.06662871409526973128,3.1471782,9.968858,5.433042,2.0654678,9.098468,3.02028421409526973129,2.5139117,10.883442,6.431424,1.9959909,9.1286955,2.97545311409526973145,1.7591397,11.034277,6.284181,1.9196924,9.155498,2.9431381409526973163,1.3634979,13.247118,5.329493,1.8475641,9.180336,2.9117591409526973164,1.8608932,16.951546,3.9905357,1.7824892,9.206148,2.87053511409526973176,1.8620903,17.03295,3.4237084,1.7189134,9.23568,2.81388621409526973193,2.8820202,15.244481,2.9442697,1.6832372,9.247648,2.7960921409526973193,4.545392,12.836513,2.8431146,1.6924431,9.235749,2.82966181409526973208,6.6564794,10.375273,2.6874914,1.7477728,9.201658,2.9060581409526973209,7.2448545,5.053561,6.208165,1.8482953,9.1432495,3.02575371409526973226,6.201581,5.593454,10.538078,1.9767015,9.054465,3.20619441409526973229,3.8684313,9.872491,12.819753,2.123597,8.944096,3.41524171409526973242,3.0550013,15.392921,8.504803,2.2511861,8.840385,3.59862781409526973260,1.0887632,15.954362,4.847061,2.3522651,8.795225,3.64434671409526973261,-3.0059202,13.95221,3.4320881,2.4018965,8.799019,3.60257981409526973274,-3.5607765,13.358448,0.7769185,2.3744106,8.82479,3.55747871409526973291,-2.621651,13.851654,0.08559271,2.3164382,8.859624,3.5087891409526973292,-2.1272483,13.691242,1.2683283,2.2376027,8.893963,3.47288661409526973307,-2.348712,12.448053,1.6382325,2.123362,8.921309,3.4744731409526973309,-2.4486697,10.976217,0.7308301,1.9840536,8.94604,3.49317961409526973322,-2.4588451,9.611523,0.17238252,1.8480656,8.971468,3.50254461409526973329,-2.1092918,9.063251,0.65062433,1.7234261,8.995675,3.50400191409526973343,-1.4347254,8.995016,1.271321,1.6126783,9.0152,3.50654271409526973356,-1.0205284,9.321226,1.7866731,1.5246925,9.030606,3.50625921409526973361,-0.6135142,9.354745,2.2349873,1.4583431,9.049544,3.48559241409526973377,0.08259996,9.080608,2.6952724,1.4039088,9.077456,3.4349991409526973394,0.75956047,9.266758,3.157952,1.3532857,9.108017,3.37387561409526973395,1.0684125,9.76116,3.0974984,1.2997543,9.144195,3.29617051409526973408,1.3916297,10.652402,1.7531542,1.242251,9.181216,3.21441461409526973409,1.1043255,10.495582,1.2413936,1.1745696,9.218347,3.132551409526973424,0.6015432,10.092757,1.1067197,1.0914397,9.252395,3.06142881409526973429,0.035913024,9.934141,1.2186487,0.99179804,9.285383,2.9947261409526973441,-0.43155485,9.570822,1.2401965,0.880292,9.319847,2.9216341409526973465,-0.6266823,9.016563,1.2060791,0.7650582,9.355047,2.84045151409526973471,-0.5189432,8.3821,1.1911154,0.6529983,9.38734,2.76077131409526973472,-0.46806642,7.824251,1.0905589,0.54806846,9.413776,2.69273451409526973505,-0.46208093,7.603386,1.1270704,0.45310006,9.434188,2.6384041409526973506,-0.6913257,7.551911,1.1839328,0.3637249,9.451509,2.58980251409526973507,-0.7823054,7.358579,1.1665748,0.27872136,9.465594,2.54857441409526973510,-0.712275,6.830059,0.7344214,0.19503684,9.476948,2.51392171409526973528,-0.59017074,6.6852098,0.31184477,0.11065058,9.485793,2.4855351409526973530,-0.59855044,6.737882,0.48362875,0.023553895,9.49374,2.45738671409526973541,-0.61650693,7.012018,0.62608373,-0.068420626,9.502488,2.42248561409526973561,-0.7625532,7.3657618,0.7104794,-0.16785686,9.514081,2.3716011409526973562,-0.47405192,7.541735,0.7320272,-0.27329847,9.52888,2.30133341409526973574,0.207697,7.764396,0.7697359,-0.37831485,9.544583,2.2199521409526973595,0.94570965,7.904457,0.95229375,-0.47443685,9.557677,2.1438541409526973598,2.56419,8.223484,2.079364,-0.5554735,9.565438,2.08907961409526973615,3.0131028,8.123527,2.12246,-0.61608464,9.568904,2.05594351409526973616,3.4063504,8.23366,2.2361844,-0.66151834,9.566951,2.05090981409526973621,3.7241807,8.698134,2.2164323,-0.69716513,9.561214,2.0658021409526973641,3.6176388,9.176975,2.2284033,-0.7295025,9.553943,2.08815361409526973643,3.341707,9.34397,2.1691468,-0.76308703,9.546754,2.10892581409526973668,3.2902317,9.296685,2.0488381,-0.8022414,9.540795,2.12132481409526973670,3.3441012,9.116522,2.0644004,-0.8462955,9.53574,2.1269351409526973671,3.4715924,8.853758,2.3229742,-0.89000964,9.530406,2.13298941409526973698,3.3087866,8.941146,2.9281087,-0.92592084,9.523336,2.14921281409526973700,3.008913,9.1255,3.5595794,-0.9517693,9.513271,2.18224291409526973704,2.3786395,9.1751795,3.7535098,-0.96954304,9.501493,2.22530251409526973710,1.5753847,9.400833,3.2321723,-0.99039406,9.487082,2.27702021409526973724,1.18094,9.318831,2.4265234,-1.0137814,9.473909,2.32113581409526973742,1.6238673,9.057863,1.673547,-1.0423694,9.464182,2.3480041409526973743,2.2703018,9.268554,1.8674773,-1.0686668,9.457796,2.3618771409526973764,2.707842,9.96347,2.5755625,-1.083475,9.454564,2.3680561409526973766,2.8939912,10.650606,2.7395654,-1.0818979,9.455036,2.36689641409526973770,2.8760347,10.845734,2.292448,-1.0642095,9.459673,2.35635921409526973796,1.905186,11.297041,1.067814,-1.0338712,9.467708,2.33752131409526973797,1.5526398,11.44608,1.8722657,-1.0006337,9.478828,2.30671531409526973802,1.2898762,10.794258,2.983774,-0.95643085,9.489665,2.28076651409526973810,1.2958617,9.838373,2.475006,-0.9077255,9.498437,2.26409171409526973830,1.447295,9.233837,2.3253684,-0.84325755,9.509486,2.242541409526973831,0.79008657,8.130709,3.0041246,-0.75831115,9.519845,2.22888141409526973842,-0.7080852,6.9767036,2.3229742,-0.6608484,9.526656,2.23081251409526973868,-2.087744,6.685808,1.1779473,-0.55818075,9.535062,2.22293691409526973870,-2.9520507,7.5950065,1.1174936,-0.4507662,9.549036,2.18703721409526973871,-4.272453,10.073005,1.5328877,-0.33863452,9.566641,2.12958171409526973897,-4.0743327,14.672267,0.7721301,-0.23349611,9.583065,2.06899431409526973898,-3.0603883,18.937536,-0.8122329,-0.128688,9.599557,2.00059061409526973902,-1.4407109,19.608511,-1.1893197,-0.011507172,9.620113,1.90359961409526973910,-1.1336545,19.608511,0.19692309,0.1284084,9.637779,1.80751941409526973933,-2.3930047,18.856134,1.1043255,0.2685512,9.647045,1.74149541409526973935,-3.3237505,16.965313,1.5298948,0.36169207,9.648041,1.71897841409526973942,-2.942474,14.821904,2.3918076,0.41475227,9.640144,1.75099851409526973964,-3.1693244,12.0967045,3.846285,0.4541543,9.6220665,1.83846521409526973965,-4.084508,11.171944,5.3558292,0.48283887,9.595674,1.9647611409526973971,-1.448492,11.60709,3.3141737,0.49898034,9.565701,2.10208921409526973997,-0.25917232,9.554661,1.8974048,0.56513315,9.542446,2.18923621409526973998,0.2621651,7.5082164,1.922544,0.6802331,9.5255,2.2299191409526974002,0.9379285,7.489063,3.1860838,0.8182692,9.50912,2.25332711409526974010,1.1498153,6.95336,4.055179,0.96405554,9.487351,2.2871741409526974030,1.335366,6.7241154,4.1012673,1.1118686,9.460014,2.3328651409526974031,1.7537527,6.6265516,3.5637693,1.2585588,9.428247,2.3863271409526974046,2.6970682,6.9665284,2.7114334,1.4015163,9.396689,2.43071321409526974076,2.5169046,6.579266,1.9273324,1.5390289,9.367826,2.4587791409526974078,2.56419,6.4511766,1.2838906,1.6584135,9.342236,2.47844481409526974079,2.3822308,6.491279,1.0534488,1.7561479,9.317842,2.50283461409526974101,1.8321629,6.0998273,0.92296475,1.8348429,9.291316,2.54463891409526974104,1.4185646,5.734113,0.9552865,1.8979286,9.26096,2.60823371409526974104,1.3090298,5.616797,1.3042414,1.9469919,9.228117,2.6872841409526974110,1.1450269,5.4168816,1.6472107,1.9888798,9.193848,2.77270771409526974122,0.90381116,4.947618,1.8596961,2.0262966,9.160412,2.85505751409526974137,0.6781576,4.55856,1.9231426,2.0615206,9.127823,2.93315361409526974142,0.6787562,4.3837833,2.0386627,2.0869424,9.099686,3.0017971409526974157,0.93134445,4.431069,2.6234465,2.104255,9.07681,3.05843191409526974174,1.7417817,4.8309007,3.0190883,2.1141546,9.05954,3.10249381409526974175,1.9806033,5.1002483,3.4530375,2.1182785,9.049082,3.13007861409526974193,2.0015526,5.3498435,3.8367083,2.1120903,9.047403,3.13910061409526974194,2.1709423,5.7239375,4.2239704,2.0920222,9.055725,3.1285261409526974207,2.420538,6.5882444,4.5178585,2.0574417,9.073685,3.09928771409526974210,2.7976246,7.8422074,5.079299,2.008367,9.100477,3.05256921409526974225,2.7808652,9.099164,5.5659204,1.9494132,9.132228,2.9954271409526974240,2.5995045,10.047866,5.8484364,1.8837714,9.164915,2.9370251409526974244,2.4648306,10.213664,5.94181,1.817071,9.196102,2.88103411409526974259,2.3259668,10.134057,5.405509,1.7519559,9.223292,2.83406331409526974271,2.4109612,13.27944,5.0038815,1.6982764,9.245355,2.7945761409526974272,2.2499511,16.366762,4.249708,1.657634,9.26382,2.7575881409526974289,1.7076644,15.453974,2.9987376,1.6275561,9.280386,2.71953651409526974290,2.007538,13.2752495,2.7192147,1.6161518,9.287665,2.70142981409526974304,3.469797,11.265318,3.1214404,1.6369908,9.277285,2.72445131409526974310,5.8023477,9.849746,3.1842883,1.6907026,9.245539,2.7985571409526974322,6.408081,7.9116397,5.0541596,1.7787232,9.192504,2.9162341409526974337,6.2889695,6.637326,8.661623,1.8827876,9.119775,3.07493641409526974342,4.64535,9.138069,10.1460285,1.9992793,9.029316,3.26262711409526974356,3.4398694,19.036896,5.858013,2.1087778,8.942931,3.42745351409526974374,-1.3700819,16.42183,3.7726634,2.1708899,8.921918,3.4434021409526974374,-3.0544028,14.608222,0.7326257,2.165984,8.946596,3.38190941409526974391,-2.183512,12.054806,0.04369418,2.1299057,8.996511,3.27057841409526974392,-2.143409,10.668563,2.2601264,2.0888984,9.030137,3.2036711409526974408,-1.903989,10.623073,3.2692823,2.0165467,9.039825,3.22265341409526974420,-1.6065093,9.809045,2.070386,1.9127498,9.046066,3.2680981409526974424,-1.2862848,9.294889,1.216853,1.8144416,9.062279,3.27922341409526974438,-0.95229375,8.977059,1.002572,1.7319427,9.0852785,3.26013231409526974442,-0.7170634,8.862736,0.8559271,1.6616578,9.105409,3.2404971409526974454,-0.5883751,8.826823,0.62847793,1.6009508,9.122037,3.22425081409526974470,0.14724341,8.668207,0.76554596,1.5419798,9.136257,3.21271061409526974471,0.82240826,8.26239,1.3461399,1.4885423,9.155611,3.18267371409526974487,1.2372037,8.334815,1.8321629,1.4378072,9.1833105,3.1256861409526974490,1.3688848,8.829217,2.132635,1.3864757,9.218108,3.0454141409526974511,1.513734,9.555858,1.9961656,1.3277508,9.256513,2.9537191409526974512,1.4478935,9.913192,1.5574282,1.2576337,9.295141,2.86166141409526974522,1.1300632,9.7162695,1.3461399,1.1759602,9.331214,2.77775741409526974545,-0.11133038,9.399636,1.8561049,1.0853224,9.3645,2.70159481409526974547,-0.6159084,9.129689,1.8124107,0.9850132,9.395953,2.62987161409526974552,-0.84934306,8.805874,1.608305,0.8844488,9.426727,2.55439641409526974574,-0.60932434,8.6712,1.2276269,0.78648007,9.455749,2.47804021409526974575,-0.4758476,8.443152,0.8439561,0.6997677,9.481179,2.40582131409526974591,-0.5093664,8.222886,0.81881696,0.6290841,9.501713,2.3435261409526974592,-0.55246204,8.321647,1.1713632,0.5725576,9.518399,2.28968171409526974607,-0.6027403,8.672996,1.5275006,0.52560675,9.532319,2.24255161409526974625,-0.06584055,8.820838,1.5053543,0.48329353,9.543922,2.20235751409526974628,0.3369839,8.656237,0.9271546,0.44498453,9.55278,2.1718081409526974647,0.60094464,8.34499,0.59376204,0.4049214,9.559322,2.15076231409526974648,0.7218518,7.9768815,0.5033809,0.3560285,9.565133,2.1335121409526974651,0.5434838,8.023568,0.7104794,0.29456717,9.573344,2.1058771409526974677,0.54767364,8.387487,1.146224,0.22361411,9.583322,2.06890371409526974678,0.80086046,9.006987,1.4083891,0.15174451,9.5974045,2.00927471409526974682,1.5107412,9.263166,1.4969746,0.078411564,9.613121,1.93705481409526974691,2.3714569,8.779537,1.5167267,0.009067103,9.625617,1.87558581409526974716,3.1920695,8.595184,1.7950528,-0.05739742,9.631113,1.84628081409526974718,3.4021606,8.052897,1.9722236,-0.11861674,9.628543,1.85674371409526974723,2.2517467,7.845799,2.1811178,-0.17810528,9.619177,1.90002991409526974755,1.8285716,7.6985555,2.1763294,-0.24788113,9.605851,1.95871131409526974756,1.7196354,7.5680714,2.0129251,-0.32328358,9.592139,2.0141421409526974757,2.0452468,7.839813,2.0751743,-0.40398237,9.580347,2.05526781409526974770,2.5234885,8.278551,2.1332338,-0.4838716,9.57109,2.0809811409526974771,2.8209682,8.585608,2.3612814,-0.5583248,9.5626745,2.10093021409526974786,2.8646624,8.689755,2.7910407,-0.6229181,9.554913,2.1180211409526974791,2.9011738,8.8364,3.6577415,-0.6758463,9.545589,2.14367151409526974804,2.6497827,8.822633,3.3357215,-0.7174026,9.5331335,2.18519141409526974821,2.2301989,8.917204,2.967613,-0.7574483,9.52072,2.22543381409526974822,2.011728,9.16261,2.7353754,-0.80115783,9.510902,2.25195121409526974838,2.304419,9.208698,2.0967221,-0.8472851,9.5039015,2.2645841409526974842,2.8269536,9.273342,1.8668787,-0.8914505,9.499074,2.2678861409526974857,3.0238767,9.638457,2.4875755,-0.9296427,9.496137,2.26485511409526974871,2.4600422,10.207679,3.2148144,-0.9626817,9.49462,2.25739151409526974872,1.5161282,10.569802,3.0974984,-0.99613434,9.493514,2.24751021409526974886,0.6841431,10.811616,2.7832594,-1.0345609,9.492938,2.2325331409526974891,-0.39923313,10.869077,3.080739,-1.0702815,9.495555,2.2043911409526974904,-1.4700398,10.854712,2.735974,-1.1014553,9.501194,2.16437131409526974921,-0.35913026,10.682329,1.775899,-1.1221883,9.510342,2.11293391409526974922,0.6392518,10.796054,2.742558,-1.1073177,9.524162,2.05781341409526974935,0.3705027,10.782886,1.797447,-1.0586755,9.538851,2.01492711409526974955,-0.22625206,10.474034,0.1376666,-0.99773127,9.558021,1.95426951409526974957,-1.3132197,9.694721,-0.6218939,-0.92970806,9.582953,1.86361481409526974977,-2.3702598,9.279925,-0.6835446,-0.85310584,9.60993,1.75836471409526974979,-3.0747535,9.498397,-0.23582886,-0.76486653,9.636188,1.6520431409526974983,-3.4877534,11.038467,0.4177882,-0.6637158,9.660501,1.55068341409526974991,-3.5541923,14.056358,0.90740246,-0.55732733,9.6820135,1.45547411409526975012,-3.6296098,17.970879,1.359308,-0.43837214,9.69939,1.37842661409526975013,-4.152743,19.608511,1.4730326,-0.32093802,9.709567,1.33854341409526975023,-4.7159786,19.470247,1.1881226,-0.22418666,9.711307,1.34561261409526975040,-5.044583,16.942568,1.1270704,-0.15849634,9.706124,1.39155961409526975060,-4.5914803,12.983157,1.8249803,-0.12416794,9.694264,1.475191409526975062,-3.7553053,8.839393,3.0921116,-0.10524346,9.673904,1.60464241409526975063,-3.8474822,8.763975,4.720767,-0.08364888,9.644519,1.77387321409526975073,-2.6916811,12.16853,5.0840874,-0.06017741,9.608221,1.96185181409526975094,-1.3293805,11.948263,4.574721,-0.004515286,9.57336,2.1263031409526975095,-0.23343466,9.522339,3.328539,0.08728885,9.542344,2.25974771409526975103,1.1911154,6.3763576,3.071761,0.22649084,9.522863,2.33112531409526975128,2.6479871,7.270592,3.7511156,0.3926881,9.508752,2.36639881409526975130,3.6343982,7.687183,3.8588545,0.57677287,9.493046,2.39160751409526975131,3.9055414,7.809886,3.2968156,0.7764316,9.473694,2.41178661409526975165,3.8564603,8.061875,2.3169887,0.9766946,9.452219,2.4232261409526975167,3.3752258,8.223484,1.5179238,1.1594905,9.430642,2.42671681409526975168,2.6479871,7.797915,0.8050503,1.3130776,9.408319,2.43510531409526975171,1.6645688,6.827066,0.6805518,1.4334165,9.38395,2.46114061409526975192,1.3299791,6.2165446,1.1216835,1.5215764,9.356195,2.51332261409526975201,1.0444705,5.4701524,1.6807296,1.5889661,9.323518,2.59183221409526975224,0.8331822,5.003283,1.9877859,1.64757,9.287393,2.6833261409526975225,0.76315176,5.044583,2.333748,1.69707,9.247914,2.78683451409526975226,0.74399817,4.964976,2.4654293,1.739821,9.207994,2.89071751409526975241,0.9151836,4.8297033,2.4319103,1.7773256,9.170108,2.98674491409526975243,1.1959038,4.745308,2.3373394,1.808759,9.1368065,3.0688061409526975251,1.459266,4.742315,2.3259668,1.8347222,9.109462,3.13398841409526975273,1.6502035,4.691438,2.4235306,1.8553531,9.088576,3.18211271409526975274,1.7615339,4.620809,2.6204538,1.8689423,9.074298,3.214741409526975285,1.917157,4.699219,3.0974984,1.8730067,9.066722,3.23369671409526975291,2.505532,5.2504845,4.5753193,1.8669227,9.06533,3.24110721409526975306,3.0986955,5.9507885,4.8219223,1.8528013,9.065414,3.24896861409526975328,3.345897,6.891111,5.007473,1.8361613,9.07123,3.24217181409526975329,3.489549,8.130709,5.137358,1.806953,9.08627,3.2163681409526975332,3.354875,9.248202,5.144541,1.7642945,9.110066,3.17243651409526975361,3.145981,9.913192,5.0840874,1.7092937,9.139435,3.11760381409526975363,2.5330653,9.945514,5.385158,1.6496072,9.168669,3.06344721409526975364,2.066196,11.812991,5.901707,1.594189,9.19163,3.02371721409526975372,2.0733786,15.291766,5.1660886,1.551494,9.206423,3.00083611409526975395,1.929128,15.289372,4.0922894,1.5241916,9.217269,2.9814761409526975396,2.6982653,13.997102,3.4195185,1.5138717,9.218848,2.98185011409526975404,4.417302,12.794015,3.413533,1.5298601,9.207313,3.00920751409526975428,6.084265,10.525509,3.645172,1.5697441,9.185186,3.05592081409526975429,6.576872,7.33763,4.8602295,1.6425977,9.140437,3.1503481409526975431,5.9639564,5.111022,8.223484,1.7348305,9.069337,3.30271121409526975474,4.0707417,7.231686,12.58153,1.8471344,8.976831,3.4892651409526975476,2.5390508,14.999674,11.547235,1.9618229,8.876373,3.67853951409526975478,2.066196,19.586365,5.995081,2.0419157,8.823881,3.76033351409526975480,-3.9426517,17.106571,1.122282,2.093191,8.845697,3.68002411409526975484,-2.641403,12.572552,-0.23523031,2.0464911,8.90771,3.55456761409526975513,-2.0895395,11.39221,1.8531121,1.9992292,8.943935,3.48991371409526975514,-2.110489,11.610083,3.318962,1.9127114,8.955751,3.50805661409526975515,-1.816002,11.307815,1.9081788,1.7889124,8.962522,3.5557561409526975524,-1.1330559,10.725425,0.5907693,1.6785802,8.974445,3.57939931409526975544,-0.74758947,9.928156,0.66618663,1.5847327,8.995451,3.56943511409526975545,-0.5009867,9.34397,0.7134721,