time,acc_x,acc_y,acc_z,gravity_x,gravity_y,gravity_z1409350750512,0.4213795,9.832388,0.56563014,-1.4836247,9.673664,0.62409351409350750514,0.16938977,9.569624,0.7870938,-1.4670942,9.675374,0.636540231409350750515,-0.15023616,9.357139,0.8655039,-1.4530045,9.676078,0.657809261409350750547,-0.4985925,9.283517,0.7799112,-1.4431387,9.675746,0.683885931409350750548,-0.8798691,9.294889,0.54288524,-1.4375781,9.674772,0.7089071409350750549,-1.2940661,9.2865095,0.24241292,-1.4360138,9.673486,0.72933191409350750554,-1.6777369,9.221268,0.11671733,-1.4373927,9.672095,0.744890751409350750575,-1.7986441,9.190742,0.20171149,-1.441367,9.670685,0.755451861409350750577,-1.7070658,9.294291,0.38965634,-1.4458053,9.66943,0.763013241409350750593,-1.5298948,9.446921,0.5470751,-1.449024,9.668682,0.76635791409350750605,-1.377863,9.605537,0.29328972,-1.4499913,9.668815,0.76282851409350750606,-1.4000094,10.288484,0.28790274,-1.4486747,9.670135,0.748492541409350750622,-1.407192,10.547656,0.36032736,-1.4448576,9.672481,0.725188261409350750627,-1.4077905,10.607511,0.30047232,-1.4386894,9.675257,0.69998251409350750639,-1.3503298,10.469844,0.13587095,-1.4313719,9.677928,0.67770231409350750655,-1.2210429,10.29387,0.015562311,-1.4237419,9.680477,0.65706281409350750655,-1.1174936,10.046669,0.11492168,-1.4172356,9.682569,0.64010061409350750672,-1.1348516,9.812037,0.35793316,-1.4127139,9.683885,0.630124571409350750674,-1.3245921,9.563639,0.6679823,-1.4103552,9.684346,0.62827511409350750688,-1.5424645,9.329605,0.9475053,-1.4107399,9.683846,0.635071931409350750706,-1.5771804,9.274539,1.0253168,-1.4131877,9.682562,0.649058941409350750708,-1.4628572,9.321824,1.0067618,-1.4158288,9.681003,0.66633511409350750723,-1.3251907,9.422979,1.0815806,-1.4173229,9.67966,0.68247551409350750726,-1.2611457,9.604341,1.0636241,-1.4179093,9.678531,0.69713061409350750744,-1.1420342,9.804854,0.919972,-1.4193596,9.6773615,0.71028531409350750747,-1.0869676,10.005369,0.7212533,-1.4219288,9.676336,0.71904491409350750754,-1.1480197,10.110115,0.54049104,-1.4248537,9.67556,0.72369071409350750772,-1.2515689,10.078392,0.44951138,-1.4294609,9.674979,0.72238021409350750774,-1.3874398,9.910798,0.44352585,-1.4360687,9.674355,0.71762981409350750789,-1.7070658,9.47206,0.43993455,-1.4445132,9.673417,0.71328271409350750803,-1.91596,9.307459,0.62728083,-1.4556417,9.671938,0.71070911409350750806,-2.030283,9.266159,0.7727286,-1.4676605,9.670039,0.711834851409350750820,-2.1733365,9.34397,0.89303726,-1.4799956,9.667876,0.715656461409350750840,-2.2349873,9.490616,0.9415198,-1.4919214,9.665773,0.71930391409350750841,-2.1505916,9.636662,0.9307459,-1.502007,9.664054,0.721412241409350750855,-2.0009542,9.718064,0.9187749,-1.5090989,9.662884,0.72227271409350750856,-1.8315643,9.700109,0.83976626,-1.5132419,9.662156,0.72336221409350750869,-1.6023195,9.683948,0.70509243,-1.5152404,9.661801,0.72392631409350750874,-1.4107834,9.671378,0.6847417,-1.5150461,9.6618395,0.723793571409350750888,-1.2761095,9.680955,0.79128367,-1.5130829,9.662088,0.72458271409350750903,-1.1976994,9.695918,0.8122329,-1.5097657,9.662348,0.72803311409350750906,-1.168969,9.618706,0.7882909,-1.5057572,9.662618,0.73274091409350750918,-1.163582,9.548077,0.7128736,-1.5017829,9.662908,0.737069851409350750936,-1.1587936,9.523536,0.5662287,-1.4985169,9.663328,0.73819741409350750937,-1.276708,9.549872,0.5710171,-1.4959257,9.664063,0.73381931409350750952,-1.3120226,9.655217,0.4890157,-1.4953201,9.664786,0.72550391409350750954,-1.3682863,9.774927,0.5057751,-1.4956937,9.66557,0.71417591409350750972,-1.4263457,9.773131,0.62368953,-1.4964664,9.666343,0.70201021409350750974,-1.4915876,9.689933,0.7410054,-1.4973788,9.667061,0.690073131409350750988,-1.4449008,9.670779,0.7314286,-1.4982792,9.667628,0.680098831409350751002,-1.3826514,9.67856,0.7577648,-1.4985139,9.668157,0.67202661409350751031,-1.3204023,9.6845455,0.75237787,-1.4986427,9.668464,0.667281451409350751032,-1.3162124,9.676167,0.74639237,-1.4989833,9.668504,0.665951671409350751033,-1.3377602,9.674969,0.6793547,-1.4997966,9.668334,0.666593431409350751034,-1.371279,9.674371,0.5674258,-1.5008339,9.66816,0.66675651409350751050,-1.352724,9.713875,0.4830302,-1.5020396,9.668085,0.665124541409350751054,-1.388637,9.736021,0.516549,-1.5033396,9.668107,0.66187811409350751069,-1.4036007,9.75697,0.5470751,-1.5051948,9.668099,0.65775611409350751074,-1.3916297,9.762956,0.57281274,-1.5073841,9.66807,0.65317461409350751087,-1.3383588,9.759365,0.58777654,-1.5100939,9.668038,0.64733871409350751110,-1.2862848,9.75697,0.6314707,-1.5120618,9.668161,0.6408711409350751112,-1.2204443,9.744401,0.6596026,-1.5129412,9.66842,0.63487091409350751115,-1.2018893,9.747394,0.62608373,-1.5127399,9.668725,0.630713161409350751145,-1.2216414,9.72824,0.6787562,-1.5123755,9.668939,0.628299651409350751146,-1.2659341,9.698313,0.7320272,-1.5121768,9.669018,0.6275481409350751147,-1.3096284,9.722853,0.8146271,-1.5125992,9.66892,0.628038941409350751154,-1.3263878,9.741408,0.9008184,-1.5137111,9.668633,0.629770931409350751168,-1.2557588,9.650429,0.92895025,-1.5148377,9.668243,0.63305531409350751175,-1.2012907,9.578603,0.95468795,-1.5153822,9.667886,0.637196061409350751190,-1.1444284,9.5492735,0.9576807,-1.5155876,9.667507,0.64241121409350751196,-1.1402385,9.531317,0.8738836,-1.51556,9.667166,0.647605841409350751206,-1.2006922,9.533113,0.7541735,-1.5153396,9.666931,0.651604531409350751226,-1.2443863,9.536105,0.7529764,-1.5153294,9.666806,0.65347681409350751228,-1.2946646,9.552865,0.80445176,-1.5158131,9.666686,0.65413031409350751235,-1.3186066,9.545084,0.8158242,-1.5169308,9.666497,0.65432731409350751276,-1.34195,9.51755,0.82121116,-1.5180429,9.666361,0.653787731409350751278,-1.3467385,9.498397,0.87687635,-1.5195328,9.666225,0.65229951409350751281,-1.3389573,9.526528,0.94331545,-1.5211349,9.666135,0.649927561409350751283,-1.3186066,9.58818,0.9708488,-1.5220842,9.666166,0.64722011409350751288,-1.2755109,9.583391,1.0307038,-1.5224383,9.666303,0.64435181409350751306,-1.1941081,9.567828,0.99778354,-1.5218087,9.666619,0.64106911409350751318,-1.2659341,9.5732155,1.0791864,-1.5198939,9.667145,0.63768831409350751319,-1.1779473,9.567828,0.93254155,-1.517938,9.667628,0.63499421409350751333,-1.0995371,9.655217,0.88645315,-1.5144814,9.6684885,0.630164271409350751334,-1.0522517,9.738416,0.85891986,-1.5094169,9.669782,0.62237731409350751350,-1.1438298,9.874885,0.83976626,-1.503076,9.671341,0.613448741409350751354,-1.2683283,9.880871,0.86849666,-1.4967018,9.67287,0.604874971409350751370,-1.2036849,9.789292,0.8810662,-1.491107,9.674117,0.59872231409350751383,-1.1785458,9.677363,0.8834604,-1.4851539,9.675156,0.59672091409350751386,-1.1264719,9.652225,0.89184016,-1.4795471,9.675899,0.59861471409350751406,-1.086369,9.652225,0.9163807,-1.474161,9.676556,0.601261441409350751407,-1.0307038,9.712079,0.8834604,-1.4699277,9.677021,0.60412151409350751427,-0.9816227,9.837176,0.7212533,-1.4665734,9.6774845,0.604868531409350751429,-1.0672154,9.82341,0.7272388,-1.4638957,9.678063,0.60206221409350751435,-1.1725603,9.764751,0.7032967,-1.4630417,9.678433,0.59820031409350751454,-1.3042414,9.767744,0.6194997,-1.4642934,9.678481,0.59436171409350751455,-1.4425066,9.750386,0.6194997,-1.4680307,9.678185,0.589911161409350751468,-1.567005,9.715671,0.6877344,-1.474325,9.677557,0.58452541409350751483,-1.5753847,9.646837,0.789488,-1.4828075,9.676596,0.57894671409350751488,-1.5903485,9.546879,0.85413146,-1.4922637,9.675382,0.574919941409350751502,-1.6316484,9.399037,0.93134445,-1.5021752,9.674002,0.572313551409350751506,-1.6460136,9.269751,0.9295488,-1.5124136,9.672489,0.570937041409350751519,-1.6011224,9.207501,0.8924387,-1.5229027,9.670969,0.568806471409350751534,-1.5334862,9.1829605,0.9068039,-1.5323722,9.669655,0.565678661409350751535,-1.4024036,9.207501,1.0935516,-1.5404601,9.668608,0.5616111409350751554,-1.3215994,9.246407,0.99658644,-1.5462183,9.667897,0.558040741409350751555,-1.2731167,9.285313,0.8487445,-1.5499675,9.667594,0.552823841409350751567,-1.2575544,9.308656,0.6931214,-1.5521785,9.667685,0.544973131409350751583,-1.2892777,9.305065,0.6362591,-1.5529543,9.668194,0.533626441409350751591,-1.2671312,9.348759,0.6410475,-1.5528736,9.668962,0.519776171409350751609,-1.2324153,9.423578,0.5758055,-1.5516453,9.670005,0.50381111409350751612,-1.1623849,9.52593,0.46627077,-1.5494901,9.671245,0.486283631409350751615,-1.1773487,9.646238,0.4237737,-1.5455738,9.672887,0.465701461409350751635,-1.2030864,9.709685,0.521936,-1.5408134,9.674694,0.443371561409350751636,-1.1713632,9.770737,0.6194997,-1.5357703,9.676501,0.420855761409350751650,-1.1959038,9.797672,0.7080852,-1.5298749,9.678362,0.39901511409350751654,-1.2683283,9.750985,0.6901286,-1.523149,9.680271,0.377843741409350751668,-1.2551602,9.671976,0.57640404,-1.5169065,9.68203,0.357299541409350751680,-1.2150574,9.575011,0.53330845,-1.510589,9.683712,0.33796121409350751686,-1.2372037,9.575011,0.5626374,-1.5043954,9.685254,0.32106561409350751698,-1.2228385,9.5971575,0.51954174,-1.499496,9.686484,0.30648121409350751706,-1.1528081,9.607333,0.40761283,-1.4959359,9.687434,0.293626961409350751717,-1.0342951,9.667188,0.18255788,-1.4927602,9.688301,0.280845821409350751733,-0.85054016,9.914988,-0.3465607,-1.4908617,9.688979,0.267207181409350751734,-0.676362,10.000581,-0.36511576,-1.4896879,9.689632,0.249469861409350751760,-0.46986207,10.119692,-0.47524905,-1.4900719,9.689988,0.232807471409350751763,-0.24001873,10.198701,-0.6428431,-1.491917,9.690112,0.21525781409350751766,0.06464344,10.13705,-0.6476316,-1.4946386,9.690139,0.194150121409350751794,0.1328782,9.934141,-0.44891283,-1.4965583,9.6903105,0.169074711409350751795,-0.04129998,9.674969,-0.12689269,-1.4993255,9.690304,0.143027831409350751796,-0.13826515,9.642049,0.32680854,-1.5046701,9.68978,0.120424371409350751824,0.05686229,9.872491,0.6404489,-1.5100992,9.689123,0.1042553261409350751825,0.2789245,10.271125,0.64823014,-1.5125309,9.68887,0.091778121409350751827,0.12868834,10.598533,0.42916065,-1.5097361,9.689414,0.07988311409350751835,-0.18914193,10.644621,0.12090719,-1.5057462,9.690157,0.063120771409350751859,-0.46866497,10.573393,-0.22325931,-1.5050397,9.690397,0.037765961409350751860,-0.6440403,10.411784,-0.5105635,-1.5084575,9.68994,0.0034767361409350751867,-0.8571242,10.177153,-0.65660983,-1.5141557,9.688987,-0.0357359161409350751890,-1.1971009,10.022727,-0.6853402,-1.5214015,9.687633,-0.074330141409350751891,-1.3515269,9.816826,-0.5710171,-1.5307337,9.6858425,-0.108297881409350751896,-1.3880384,9.551069,-0.57281274,-1.541579,9.6837635,-0.13651511409350751917,-1.2192472,9.357738,-0.48003745,-1.5544491,9.681318,-0.161682841409350751918,-1.0648212,9.226655,-0.45549688,-1.5686293,9.678612,-0.185165441409350751933,-0.9211691,9.0842,-0.5069722,-1.5830606,9.675792,-0.208261061409350751935,-0.87448215,9.0842,-0.55126494,-1.5999292,9.672406,-0.23492521409350751954,-0.8295909,9.202114,-0.581791,-1.6212263,9.66808,-0.265025731409350751956,-0.81761986,9.300277,-0.52612585,-1.6479807,9.6626215,-0.297132341409350751972,-0.6817489,9.492412,-0.44891283,-1.6796807,9.656174,-0.327665451409350751975,-0.5446809,9.726444,-0.42078096,-1.7137865,9.649243,-0.35417821409350751987,-0.4201824,9.935339,-0.40282443,-1.7477552,9.642342,-0.375530181409350752007,-0.40222588,10.095152,-0.39983168,-1.7798889,9.635875,-0.390253721409350752009,-0.5291186,10.107122,-0.3824737,-1.8101226,9.629942,-0.397607561409350752015,-0.64703304,9.977237,-0.32441434,-1.8402848,9.624188,-0.398482621409350752037,-0.7254431,9.8677025,-0.2669535,-1.8716546,9.618385,-0.392396571409350752039,-0.7691373,9.804854,-0.18914193,-1.9037802,9.612455,-0.383040131409350752055,-0.7727286,9.826403,-0.17298107,-1.9348683,9.606774,-0.369587361409350752057,-0.7823054,9.797073,-0.20171149,-1.9639214,9.601391,-0.35599081409350752067,-0.86011696,9.788095,-0.20829555,-1.9903383,9.596425,-0.342937831409350752092,-0.95947635,9.831789,-0.20410569,-2.0147681,9.591787,-0.329743421409350752094,-1.009156,9.900024,-0.20590134,-2.0377288,9.58738,-0.316487041409350752096,-0.79607207,9.950901,-0.38965634,-2.0591788,9.583216,-0.3035581409350752126,-0.6793547,9.884461,-0.47345337,-2.0773275,9.579626,-0.293053571409350752128,-0.5177461,9.898827,-0.5943606,-2.094691,9.576088,-0.284924031409350752129,-0.3238158,10.037092,-0.6218939,-2.1113818,9.572585,-0.279435371409350752136,-0.22744916,10.213066,-0.29987377,-2.1264143,9.569398,-0.274586171409350752162,-0.130484,10.3770685,-0.077811554,-2.140617,9.566471,-0.266062681409350752163,0.039504327,10.549451,-0.001795651,-2.1535711,9.563936,-0.25226741409350752170,0.13826515,10.769119,-0.035314474,-2.1644254,9.5619335,-0.234646961409350752200,0.08140286,11.098322,-0.092176765,-2.1742089,9.560151,-0.216146261409350752201,0.01616086,11.470022,-0.3561375,-2.184038,9.558267,-0.199846861409350752202,0.046686932,11.676521,-0.6667852,-2.1936936,9.556255,-0.190021051409350752222,0.109534726,11.75972,-0.88765025,-2.2021205,9.554374,-0.187083831409350752223,0.27234045,11.651981,-1.0941502,-2.2082012,9.552929,-0.189250071409350752227,0.40701428,11.357494,-1.1150994,-2.2106047,9.552231,-0.196194191409350752235,0.53450555,11.112687,-0.9888053,-2.2111332,9.55196,-0.203396661409350752256,0.5793968,10.8708725,-0.7374141,-2.2106075,9.551991,-0.207495331409350752258,0.6380547,10.666168,-0.3812766,-2.2079382,9.552676,-0.204371651409350752272,0.6380547,10.480618,0.001197101,-2.2019358,9.554351,-0.190403921409350752290,0.66618663,10.224439,0.29209262,-2.1925788,9.556947,-0.166640761409350752292,0.36152446,9.61691,0.91937345,-2.1786575,9.560601,-0.136952891409350752296,-0.05746084,9.273342,1.0217255,-2.1621742,9.564799,-0.099949151409350752337,-0.48003745,9.074024,1.2294226,-2.1404696,9.57001,-0.0607674831409350752341,-0.89782566,9.14226,1.6747441,-2.1117296,9.576564,-0.0208113171409350752343,-1.1127052,9.150639,1.7250223,-2.074078,9.584792,0.018643911409350752347,-1.2988545,9.015367,0.97743285,-2.0254557,9.595058,0.0528583151409350752379,-1.4921862,8.898649,-0.09816227,-1.9659339,9.607286,0.074525961409350752381,-2.1613655,9.041104,-0.9636662,-1.9019701,9.620138,0.076392341409350752383,-3.0346506,9.336189,-1.2629414,-1.8318019,9.633868,0.0587801081409350752385,-3.7068229,9.895236,-1.4862007,-1.7614995,9.647114,0.026664721409350752389,-4.2383356,10.890625,-1.6095021,-1.6954247,9.658977,-0.0106336221409350752413,-4.4364557,12.382213,-1.5939398,-1.6345091,9.669388,-0.0414706581409350752414,-5.09546,13.694235,-1.9123687,-1.5749222,9.679209,-0.054260581409350752416,-4.1425676,15.024813,-1.4856021,-1.5198218,9.688031,-0.0510094721409350752442,-3.3213563,15.389929,-1.3611037,-1.4436483,9.699775,-0.0250970331409350752445,-3.7163997,14.66269,-1.0821792,-1.3453672,9.713916,0.0156096571409350752449,-4.6980224,13.39077,-0.08080431,-1.2546037,9.725836,0.067085581409350752465,-5.805939,11.857284,0.89543146,-1.1826822,9.734107,0.13720191409350752467,-6.4392056,10.679337,2.1374235,-1.1403761,9.737527,0.224666831409350752482,-6.7133417,9.667787,2.5791538,-1.1172373,9.737194,0.330527841409350752507,-6.211158,10.055647,2.6162639,-1.1000258,9.73496,0.43691961409350752509,-4.7429137,10.257957,2.4791958,-1.0712632,9.733308,0.534322561409350752510,-3.1160536,9.797073,2.2972364,-1.0085471,9.735188,0.61590841409350752517,-1.8124107,8.9998045,2.1266496,-0.90627176,9.7409,0.68114281409350752558,-0.6745663,8.809465,2.1697452,-0.77688354,9.748283,0.73336571409350752561,0.45010993,9.097966,2.1906946,-0.634723,9.7552805,0.77590551409350752563,1.4227544,8.824429,1.7675194,-0.48500153,9.761131,0.80959731409350752566,2.0691888,8.652645,1.2228385,-0.33132038,9.765601,0.832852541409350752569,2.4498668,8.297106,0.6925228,-0.17732821,9.768167,0.849630061409350752603,2.4522612,7.9152308,0.37229836,-0.027605271,9.768565,0.86299341409350752607,2.48159,7.773973,0.42676646,0.114141926,9.766282,0.88152331409350752610,2.2786815,7.44896,0.56982,0.24826267,9.760857,0.913474441409350752651,1.6196774,6.815694,0.82719666,0.3726097,9.75231,0.96124391409350752652,0.9947908,6.221333,1.0833763,0.4820374,9.741269,1.02260351409350752653,0.62608373,5.7999535,1.2372037,0.5738655,9.728674,1.09271409350752654,0.35314476,5.5725045,1.4065934,0.65205646,9.715145,1.16669691409350752655,0.16460137,5.4378304,1.5466543,0.71941555,9.701514,1.23832191409350752670,0.1436521,5.485116,1.5969325,0.7771634,9.68865,1.30249831409350752671,0.27832595,5.631761,1.560421,0.8264728,9.676465,1.36138251409350752676,0.4890157,5.834071,1.5658079,0.87244546,9.665905,1.40694421409350752704,0.6476316,6.0363812,1.5616181,0.9116002,9.657819,1.43733531409350752706,0.86969376,6.1423244,1.5574282,0.94340163,9.652316,1.45368841409350752708,1.1881226,6.344036,1.6771383,0.9661029,9.648944,1.46113931409350752717,1.5053543,6.7163343,1.8291701,0.97769547,9.647041,1.46599031409350752757,1.7471687,7.253833,1.846528,0.9770171,9.646383,1.47075361409350752785,1.9829975,7.891887,1.9668367,0.96445924,9.647071,1.47453951409350752789,2.1511903,8.728063,2.2709002,0.9413933,9.648752,1.47842781409350752794,2.1745336,9.639654,2.7102363,0.90927947,9.650934,1.48427411409350752862,1.9500773,10.447099,2.9281087,0.86944723,9.653282,1.4928551409350752863,1.371279,10.998962,3.3243492,0.8245978,9.655764,1.5022191409350752864,0.5291186,11.753735,3.7606924,0.76749945,9.658186,1.5168321409350752865,-0.56323594,12.556391,3.5194764,0.701507,9.65963,1.53942321409350752870,-1.1558008,13.396157,2.743755,0.63190776,9.661685,1.55657081409350752871,-0.9840169,13.47337,1.6525977,0.5718043,9.666103,1.55237031409350752872,-0.11671733,12.617443,0.8475474,0.5408429,9.672135,1.52566711409350752874,1.1988965,11.739968,0.7080852,0.55114275,9.676154,1.49621821409350752876,3.7325604,9.900622,2.1763294,0.6015781,9.6774435,1.46819161409350752876,4.697424,9.360131,3.8606503,0.6974043,9.66716,1.49333831409350752877,5.21936,10.075399,6.135142,0.82072586,9.6501,1.54024211409350752896,4.469376,12.883798,7.590218,0.9654409,9.625728,1.60738971409350752897,3.4003649,16.8881,6.155493,1.1063058,9.596445,1.68959561409350752898,1.8872294,17.818247,2.3786395,1.2193643,9.573529,1.7410021409350752922,-0.50278234,15.413272,1.0564415,1.2842009,9.5671625,1.72934541409350752923,-1.9470845,13.253103,-0.48243165,1.2972558,9.571727,1.69397891409350752928,-2.992752,12.342709,-2.3235726,1.2831533,9.584951,1.6286891409350752937,-3.2531216,11.605294,-0.7236475,1.2446351,9.602821,1.55149071409350752956,-3.3991678,11.2132435,1.3012487,1.1846977,9.615983,1.51649241409350752956,-3.3291376,10.481216,2.4193408,1.1061018,9.623056,1.53092361409350752968,-3.0747535,9.516354,2.4313118,1.0254222,9.624781,1.57559171409350752983,-2.5390508,8.690952,2.0614076,0.95133173,9.624264,1.62447171409350753001,-2.124854,8.228272,1.7501614,0.88659173,9.623266,1.66646311409350753003,-1.7310078,7.978079,1.6256629,0.83050203,9.622649,1.69861191409350753017,-1.484405,7.727885,1.2485762,0.7774211,9.62323,1.72030581409350753018,-0.84335756,7.8158712,0.85532856,0.7205441,9.627372,1.72189991409350753031,-0.24540567,7.832032,0.66379243,0.6565587,9.636338,1.69715061409350753037,-0.46686932,9.246407,0.7565677,0.586318,9.648925,1.65071381409350753049,-0.5650316,10.024523,0.6727707,0.5030958,9.663627,1.5910961409350753064,-0.6266823,10.225037,0.32142156,0.40930972,9.678748,1.52469151409350753068,-0.8619126,10.454881,0.04189853,0.31176704,9.693455,1.45262231409350753080,-1.3012487,10.712257,-0.10055647,0.21148412,9.707382,1.37564661409350753099,-1.7441759,10.645219,-0.12569559,0.10585984,9.720098,1.29572021409350753099,-1.9644425,10.171766,-0.18076223,-0.004100421,9.730939,1.21622991409350753115,-1.8698715,9.744401,-0.23642741,-0.1133426,9.739319,1.14159121409350753116,-1.7705121,9.309255,-0.4237737,-0.21459173,9.745017,1.07656961409350753131,-1.5682021,8.835801,-0.4213795,-0.30172202,9.748478,1.0230081409350753137,-1.5765818,8.619126,-0.078410104,-0.3728405,9.7499485,0.98481831409350753148,-1.6891093,8.379706,0.39504328,-0.4327131,9.749228,0.967325271409350753163,-1.8195933,7.99005,0.85473,-0.4881997,9.746,0.97342071409350753180,-2.1230583,7.505822,0.6775591,-0.54658407,9.74053,0.99683491409350753181,-2.3786395,7.258621,0.22864626,-0.61584,9.734639,1.01388941409350753197,-2.6563668,7.514202,-0.002992752,-0.6995839,9.730057,1.00348961409350753198,-2.9053638,8.008006,-0.032920275,-0.79802877,9.726209,0.966654241409350753216,-2.819771,8.289924,-0.18974048,-0.9027102,9.721409,0.92181151409350753217,-1.839944,8.103774,-0.5662287,-1.0146049,9.715306,0.868210261409350753231,-1.1330559,8.246828,-0.3633201,-1.1215131,9.708282,0.81354811409350753248,-0.44951138,8.398261,-0.1364695,-1.219547,9.700231,0.767228251409350753248,0.20590134,8.546103,0.26635495,-1.3008275,9.691965,0.737612251409350753265,0.4369418,8.44016,0.8702923,-1.3642523,9.683736,0.731083751409350753269,0.6536171,8.662222,1.4927847,-1.4174706,9.674725,0.74891231409350753285,0.6733692,8.905233,1.79206,-1.4660344,9.664562,0.78573831409350753299,0.6512229,9.170391,1.6382325,-1.5142759,9.653342,0.8308711409350753300,0.51355624,9.31105,1.0708067,-1.5642086,9.641797,0.87143331409350753320,0.47405192,9.284116,0.50038815,-1.6154668,9.630538,0.90188981409350753321,0.66379243,9.3104515,0.4405331,-1.66632,9.620299,0.91849961409350753328,0.8595184,9.384073,0.8972271,-1.7116102,9.611366,0.92866971409350753347,1.0307038,9.729437,1.3982137,-1.7483289,9.60304,0.946224031409350753353,0.9804256,9.946711,2.1170728,-1.7750083,9.594875,0.97884681409350753366,0.7392098,9.952098,2.2535424,-1.7958837,9.58576,1.02877781409350753383,-0.026934769,10.004171,2.15538,-1.8162639,9.575491,1.08700081409350753409,-1.0229226,9.821015,2.3870192,-1.8441175,9.563446,1.14460791409350753411,-1.2306197,9.150639,2.1039047,-1.8846585,9.548639,1.2008121409350753413,-0.7068881,8.48146,1.0881647,-1.9328657,9.5328,1.24905611409350753415,0.7128736,8.934562,0.8403648,-1.9785837,9.520164,1.27360371409350753417,0.53330845,9.757569,1.1653777,-2.0104737,9.512041,1.28431561409350753444,-0.03172317,10.481216,1.3467385,-2.031801,9.5077915,1.28221191409350753446,-0.7493851,10.76852,0.97982705,-2.0459282,9.504995,1.28047651409350753449,-0.78050977,10.963648,0.8265981,-2.056497,9.503293,1.27617551409350753463,-0.059855044,11.3551,1.3108255,-2.0560808,9.50553,1.2600791409350753487,0.5069722,11.340137,1.6292542,-1.9355692,9.546536,1.13472591409350753488,0.7721301,10.949882,1.2689269,-1.9355692,9.546536,1.13472591409350753489,0.75836337,10.745776,1.2156559,-1.9355692,9.546536,1.13472591409350753497,0.31364042,11.025299,1.8273745,-1.8620465,9.5666485,1.08739021409350753520,-0.4321534,11.166556,1.4131776,-1.7801455,9.58638,1.05012931409350753522,-1.0348936,10.475231,0.3321955,-1.6986463,9.605426,1.01035021409350753532,-1.9069817,9.384073,-0.4381389,-1.6241542,9.623699,0.957569061409350753552,-2.9909565,8.403648,-1.0295067,-1.5515592,9.642167,0.88976511409350753553,-3.9833531,7.93618,-1.7435774,-1.4817932,9.660749,0.80286421409350753557,-5.0421886,8.774151,-2.2182279,-1.4158949,9.67835,0.703681351409350753586,-6.235698,11.3551,-1.8435353,-1.3603989,9.692811,0.607563731409350753587,-7.2460513,15.18702,-0.9624691,-1.3215736,9.7020855,0.541661861409350753589,-7.7829514,18.469471,-0.3657143,-1.3006774,9.705793,0.52555711409350753597,-5.8322754,17.976864,-0.3429694,-1.2885351,9.706224,0.547034741409350753623,-4.530428,15.345635,0.58777654,-1.2358844,9.710736,0.58699381409350753624,-3.4979286,12.146384,2.1703439,-1.1582065,9.71557,0.66078331409350753629,-3.3626564,9.390657,3.4871547,-1.078375,9.717009,0.76630881409350753654,-4.7800236,8.567052,4.4125137,-1.0070846,9.7129965,0.90216161409350753655,-5.9567738,9.786898,4.5687356,-0.9687907,9.7020445,1.0498441409350753657,-4.633379,11.080964,4.012682,-0.94699746,9.688759,1.18388011409350753683,-3.17531,8.986037,2.8604724,-0.88702494,9.682281,1.27946351409350753684,-1.9554642,7.3567834,2.409764,-0.76963884,9.68627,1.32448571409350753701,-0.9247604,6.8528037,2.248754,-0.61590946,9.696433,1.33049931409350753702,0.017357962,7.37055,2.2667105,-0.4503213,9.707717,1.31447861409350753711,0.92057055,8.359954,2.0039468,-0.27961802,9.717287,1.29095111409350753717,1.496376,8.727464,1.3808558,-0.10681162,9.723833,1.26730951409350753729,1.6873137,8.359355,0.6961141,0.056192555,9.726455,1.25032751409350753750,1.6496049,7.571663,0.48362875,0.20882851,9.726036,1.23733461409350753751,1.7549498,7.006033,0.7086837,0.33886603,9.721539,1.243891409350753772,1.8004397,6.646304,0.87927055,0.44939288,9.712908,1.27587571409350753773,1.6472107,6.1219735,0.98341835,0.54425377,9.700951,1.32880821409350753777,1.1168951,5.1864395,1.4041992,0.6232899,9.687048,1.39392461409350753802,1.0606314,4.9655743,1.5227122,0.68343204,9.672403,1.46557941409350753803,1.1522095,4.987122,1.4969746,0.72940224,9.657851,1.53762921409350753808,1.3066356,5.1182046,1.5245079,0.76445675,9.644236,1.60459451409350753817,1.22224,5.125387,1.6292542,0.79087514,9.632503,1.66126261409350753830,1.1575965,5.263054,1.8489223,0.80888087,9.623582,1.70376271409350753849,1.2270284,5.6425347,2.0961237,0.81889254,9.617541,1.73284031409350753851,1.2749124,6.0884547,2.2337902,0.82621455,9.612773,1.755671409350753870,1.4526819,6.76362,2.397793,0.82553905,9.6109085,1.76615981409350753871,1.7477672,7.428011,2.5677812,0.8185424,9.611593,1.76569331409350753877,2.130241,8.058883,2.7700913,0.80461663,9.614296,1.75734981409350753907,2.2457612,8.563461,2.9574378,0.7833913,9.61808,1.74621131409350753908,2.2619221,9.247005,3.0723593,0.7522717,9.622724,1.73426651409350753909,2.1859062,10.007165,3.2914288,0.7120504,9.628078,1.72148251409350753917,2.0201077,10.288484,3.5613751,0.66600585,9.632892,1.71295951409350753931,1.228824,10.647015,3.833117,0.62022275,9.635219,1.717061409350753949,-0.30765492,13.136386,4.2957964,0.5742504,9.634697,1.73586991409350753950,-1.2659341,14.747684,3.5446155,0.5144304,9.632887,1.7644361409350753968,-0.43634325,13.200431,1.5263035,0.45685354,9.631123,1.78973131409350753969,2.3199813,11.031883,1.1893197,0.44422904,9.631803,1.78925251409350753977,3.6990416,9.472659,2.195483,0.495101,9.629316,1.78929281409350754001,5.1768627,8.01459,4.152743,0.5819427,9.618264,1.82229031409350754003,5.777209,8.118738,6.654085,0.7056778,9.595692,1.89608381409350754010,4.445434,11.35091,9.375095,0.8661551,9.562203,1.99610781409350754035,1.4730326,16.453552,9.099164,1.0331303,9.522054,2.10559181409350754037,0.56084174,19.03151,3.8714242,1.1409018,9.494089,2.17509081409350754038,-2.0536265,15.057733,2.9101522,1.2009724,9.491855,2.15238551409350754049,-4.120421,12.515091,2.2643163,1.2057562,9.493847,2.14089561409350754069,-4.5537715,12.8532715,0.62847793,1.1774951,9.498373,2.13654161409350754072,-4.159327,14.358626,0.078410104,1.1187325,9.508579,2.1226751409350754077,-4.331111,14.431649,-1.4628572,1.0279322,9.5239725,2.0994531409350754104,-4.5316253,12.582727,-3.13401,0.9075012,9.548039,2.04494051409350754106,-4.3143516,10.91337,-2.5785553,0.7809987,9.5756445,1.96658361409350754109,-3.502717,10.345944,-1.1575965,0.6663947,9.59674,1.9049681409350754137,-2.6623523,9.359533,-0.18734628,0.57493776,9.607739,1.87914911409350754138,-1.8555063,8.450933,0.85413146,0.5112455,9.612203,1.87472371409350754139,-0.74758947,7.777564,1.5466543,0.4616903,9.615448,1.87093131409350754149,0.06703765,7.383718,1.5927427,0.41491687,9.619823,1.85935831409350754172,0.5141548,8.368334,1.7310078,0.3658853,9.626052,1.83728441409350754173,0.7613561,9.442133,2.0392613,0.3118718,9.632828,1.81157081409350754178,0.8403648,10.155006,1.8177977,0.25667205,9.6404,1.77966811409350754202,0.581791,10.513538,1.1947067,0.19783232,9.649072,1.73973061409350754203,-0.12868834,10.860698,0.46327803,0.13165216,9.660342,1.68251241409350754209,-1.0785879,10.849325,-0.20051439,0.052766837,9.674665,1.60264041409350754229,-2.0991163,10.47164,-0.80564886,-0.039416358,9.690332,1.50542211409350754230,-2.943671,9.952098,-1.5059528,-0.13992812,9.704811,1.40266551409350754245,-3.3530796,9.437345,-1.9722236,-0.2413979,9.716637,1.30348621409350754270,-3.4284968,9.19134,-1.8100165,-0.3352204,9.724929,1.2181011409350754271,-3.4596214,9.198523,-1.2162545,-0.41596302,9.729437,1.15559861409350754273,-3.2243912,9.2865095,-0.44113165,-0.48840573,9.731399,1.10983751409350754278,-2.654571,9.056666,0.3705027,-0.5472329,9.730083,1.09380011409350754302,-1.8195933,8.293514,0.8475474,-0.5967127,9.725537,1.10826931409350754303,-1.2372037,7.6728177,0.7793127,-0.6441417,9.718359,1.1441071409350754310,-0.94331545,7.539341,0.6135142,-0.6992469,9.71055,1.17756261409350754334,-0.8822633,7.768586,0.5231331,-0.7680844,9.704312,1.18607211409350754336,-0.87089086,7.699154,0.45549688,-0.8507398,9.699713,1.16713121409350754338,-0.022744916,7.355586,0.5057751,-0.94552845,9.694134,1.14025021409350754349,0.985214,8.115746,0.770933,-1.0460064,9.685477,1.12595871409350754364,1.4263457,8.038532,0.94930094,-1.1426392,9.674507,1.1263651409350754382,1.7585411,8.0684595,1.4257472,-1.2305112,9.662347,1.13811151409350754383,1.8950106,8.136096,1.6729485,-1.3111717,9.649051,1.16061151409350754400,1.8489223,8.203134,1.7489643,-1.38552,9.633441,1.20314421409350754401,1.5508442,8.331821,1.5939398,-1.4562384,9.614722,1.26762581409350754409,0.97623575,8.471883,1.4293385,-1.5271366,9.593985,1.33929111409350754428,0.5686229,8.610147,1.365892,-1.6021106,9.572557,1.4034921409350754448,0.5422867,8.742428,1.4909891,-1.679965,9.551335,1.45606341409350754449,0.6135142,8.792108,1.7232267,-1.7566367,9.530463,1.50163391409350754451,0.40581718,8.857349,1.9991584,-1.8259472,9.510679,1.54379131409350754470,-0.008978256,8.874707,2.5905263,-1.8878725,9.491566,1.58635331409350754471,-0.5105635,9.006389,2.5797524,-1.9452671,9.471656,1.63524911409350754478,-0.82599956,9.321226,1.9231426,-2.0030756,9.450963,1.684451409350754495,-0.56682724,9.463681,0.88046765,-2.0624702,9.431098,1.72365161409350754498,0.3633201,9.419388,-0.20350714,-2.1194685,9.415206,1.74131241409350754513,1.6047137,9.690532,-0.5201403,-2.1682653,9.405616,1.73303091409350754534,1.9351135,10.18254,0.58119243,-2.2013934,9.40259,1.70750951409350754535,0.88286185,10.606912,2.4552538,-2.2219882,9.401057,1.68917011409350754538,0.20590134,10.690709,2.697667,-2.2415588,9.394899,1.69755161409350754566,-0.18255788,11.064803,2.7132292,-2.2574813,9.388074,1.7141251409350754567,-0.5650316,11.101913,2.4277205,-2.2634397,9.385527,1.72021171409350754569,-0.85054016,10.573992,1.4532804,-2.2593293,9.390484,1.69842891409350754577,-0.6979098,10.276512,0.6739678,-2.244245,9.4037285,1.644281409350754596,-0.5710171,10.506954,0.89782566,-2.221048,9.421142,1.57462131409350754598,-0.7200562,11.067796,1.5286977,-2.1747282,9.444114,1.49989551409350754620,-0.8972271,11.129447,1.1432313,-2.1134999,9.469386,1.42626851409350754622,-1.2126632,10.4883995,0.25558102,-2.046332,9.495888,1.34575181409350754630,-1.8746599,9.383475,-0.2885013,-1.9761095,9.522987,1.2562171409350754655,-2.741361,8.323442,-1.0791864,-1.9015223,9.55064,1.1575411409350754656,-3.858256,7.8547773,-2.006341,-1.8228662,9.57906,1.04364811409350754658,-4.710592,8.780735,-2.3612814,-1.7461298,9.606505,0.91459321409350754677,-6.178836,11.303026,-1.5927427,-1.6752834,9.629974,0.79209791409350754678,-7.3873096,15.67005,0.12928689,-1.6178459,9.645891,0.71399581409350754693,-7.9092455,19.395428,1.1773487,-1.5744324,9.653425,0.709187571409350754698,-6.965331,19.608511,0.48602295,-1.5360463,9.656912,0.74497371409350754711,-5.345055,18.79209,-0.093972415,-1.4774578,9.662464,0.79014091409350754724,-3.2184057,11.444882,2.171541,-1.3993684,9.67055,0.83225451409350754730,-3.0753522,8.271368,3.5326445,-1.3168188,9.673528,0.926964641409350754747,-4.9338512,7.389105,4.4681787,-1.2570354,9.668126,1.05716571409350754766,-6.5044475,9.698313,4.337096,-1.2280695,9.655196,1.19977391409350754767,-4.1826706,11.09473,3.4847605,-1.2141773,9.641964,1.31481021409350754770,-2.4372973,8.925584,2.7102363,-1.1435174,9.642774,1.37101831409350754778,-1.1408371,7.089231,2.404377,-1.006116,9.657672,1.37386081409350754801,0.13706805,6.3769565,2.463035,-0.8328112,9.677934,1.34699511409350754802,1.2892777,7.5495167,2.8652608,-0.6482107,9.696796,1.31238441409350754809,1.9099745,8.480263,2.493561,-0.4585752,9.712049,1.27913561409350754828,2.3343468,8.817844,1.287482,-0.26629916,9.72377,1.2440971409350754829,2.2307975,8.429385,0.2100912,-0.089404196,9.73211,1.20351721409350754843,2.0530279,7.475296,-0.19752164,0.059090413,9.736904,1.16602651409350754860,1.9321208,6.8767457,0.0700304,0.17875046,9.737493,1.14877841409350754861,1.7824832,6.2859764,0.31483752,0.27717742,9.73332,1.16449331409350754874,1.448492,5.752668,0.5398925,0.36051515,9.724801,1.21188221409350754878,1.1767502,5.5497594,0.86849666,0.43143114,9.712861,1.28241651409350754892,1.0271125,5.392939,1.2539631,0.49058434,9.698465,1.36729261409350754908,0.79607207,5.286996,1.6567876,0.53746897,9.682726,1.45819571409350754910,0.36272156,5.78918,1.7926586,0.57624984,9.66632,1.54937931409350754922,0.17956513,6.1129956,1.9494787,0.5997239,9.6514,1.63131481409350754929,0.16160862,6.3206925,2.0500352,0.61003876,9.639399,1.69713011409350754939,0.33877954,6.576872,2.0326772,0.61022854,9.630975,1.74423611409350754965,0.5506664,6.6965823,2.0739772,0.60270464,9.626567,1.77097861409350754966,0.6955156,6.642114,2.2307975,0.5884638,9.625937,1.7791731409350754973,0.8295909,6.6241574,2.7012582,0.5662302,9.628495,1.77253221409350754978,1.1049241,6.8761473,3.0681696,0.53326666,9.633262,1.7567871409350755004,1.5041572,7.6428905,3.321955,0.48944533,9.639782,1.73362061409350755006,1.7968484,8.932168,3.4985273,0.43613443,9.647774,1.70311981409350755010,2.0368671,10.331579,3.525462,0.37524903,9.656507,1.6677761409350755042,2.1039047,11.3551,3.3734303,0.31465733,9.664988,1.63076231409350755043,2.0847511,11.275493,3.2902317,0.2508204,9.672979,1.59403861409350755044,1.7340006,10.774507,3.651756,0.18847631,9.679054,1.56549751409350755067,-0.15741876,13.449428,4.5435963,0.13165012,9.681781,1.55441031409350755068,-1.9949685,15.722723,3.685275,0.06818243,9.68026,1.56789581409350755070,-1.5819688,14.542381,1.1372458,-0.00404986,9.679306,1.57525381409350755078,-0.15502456,12.801198,-0.8391677,-0.036000997,9.684649,1.54164671409350755099,3.3261447,9.634866,0.8242039,-0.01184446,9.692578,1.49136381409350755100,4.895544,9.425373,4.109049,0.06866408,9.691013,1.4999791409350755115,5.088876,11.859678,8.702325,0.18889555,9.676719,1.57981191409350755138,4.1102457,15.9579525,9.102157,0.35455477,9.646358,1.7298781409350755139,2.7976246,19.363705,4.693234,0.5288491,9.609846,1.88190851409350755140,-0.6015432,17.756598,2.5863364,0.68054044,9.591185,1.92780531409350755174,-3.6421793,14.268245,2.0171149,0.75998634,9.58962,1.90578221409350755175,-3.894169,11.941081,-0.61770403,0.7765749,9.597099,1.8609231409350755177,-3.4165258,10.577583,-0.28909984,0.7638997,9.606122,1.8191481409350755178,-3.716998,10.912771,1.543063,0.72661436,9.607701,1.8260611409350755199,-3.7122097,11.547833,1.4915876,0.65274465,9.60519,1.86671751409350755201,-3.5529952,10.8624935,0.108337626,0.5603379,9.605802,1.89340621409350755211,-3.5996823,9.999982,-0.46148238,0.4738621,9.611801,1.8865691409350755236,-3.390788,9.640852,-0.01316811,0.39528266,9.619289,1.86639011409350755239,-3.2573113,9.181165,-0.14065935,0.32703137,9.624904,1.85058461409350755240,-2.9706059,8.680179,-0.22026655,0.2625712,9.629211,1.83840381409350755263,-1.8028339,8.126519,0.12928689,0.1996794,9.634532,1.8183291409350755265,-0.61890113,7.759608,0.44771573,0.13359249,9.641289,1.78832781409350755271,-0.41958386,7.828441,0.6871359,0.061319564,9.648324,1.75398721409350755279,-0.52253455,8.374918,1.3964181,-0.020780046,9.654847,1.71868731409350755303,-0.4794389,8.272566,1.1049241,-0.11150252,9.659813,1.68700041409350755304,-0.6721721,8.32045,0.866701,-0.20653,9.66453,1.65063891409350755310,-0.99898064,8.54311,0.8062474,-0.3042425,9.670599,1.59917131409350755330,-1.436521,8.573636,0.5793968,-0.40398645,9.678475,1.52783221409350755334,-1.8148049,8.175002,0.35913026,-0.5051228,9.686194,1.44667591409350755339,-1.9405005,7.7997108,0.001197101,-0.6075576,9.692116,1.36534971409350755365,-1.9057846,7.680599,-0.35194764,-0.7037486,9.695998,1.28947521409350755366,-1.8166006,7.8613615,-0.4818331,-0.7874656,9.698742,1.21847681409350755370,-1.6980876,8.540716,-0.31483752,-0.85251236,9.701165,1.15370481409350755379,-1.4161704,9.274539,0.350152,-0.89840317,9.703035,1.10198221409350755398,-1.4867992,9.444528,0.80684596,-0.931433,9.702897,1.07546531409350755399,-1.2437878,9.392453,0.7350199,-0.9694433,9.698866,1.07821731409350755410,-1.1121067,8.790312,0.08319851,-1.0232856,9.691376,1.09568231409350755428,-1.1294646,8.654441,-0.40880993,-1.0998939,9.683017,1.09537241409350755447,-1.4269443,9.240421,-0.4141969,-1.197084,9.675378,1.06040231409350755449,-1.3437457,9.074024,-0.57161564,-1.3066298,9.666303,1.01276541409350755452,-0.92895025,8.567651,-0.47884035,-1.4157292,9.65667,0.95647541409350755459,-0.16998832,8.453926,0.023343466,-1.5204018,9.645024,0.912294861409350755482,1.0737995,9.2069025,1.3311762,-1.6099783,9.632405,0.891701041409350755483,1.2940661,9.506777,1.7489643,-1.6732949,9.620841,0.89993461409350755490,1.3700819,9.64983,2.0207062,-1.7210344,9.609325,0.93235281409350755521,1.2096704,9.341577,1.882441,-1.7634625,9.596079,0.98785371409350755522,0.96187055,8.765172,1.5269021,-1.8115665,9.57998,1.05480071409350755523,0.7428011,8.268974,1.2814964,-1.8718411,9.561355,1.11673721409350755549,0.8499416,8.099585,1.1558008,-1.9421909,9.541678,1.16389641409350755550,1.1306617,8.271368,1.3245921,-2.015107,9.522481,1.19669931409350755551,1.264737,8.622119,1.5592239,-2.0841055,9.504125,1.22414551409350755558,1.0420763,8.941146,1.7603368,-2.1411507,9.488223,1.24880831409350755575,0.7236475,9.528923,2.0147207,-2.1864824,9.474049,1.27753811409350755578,0.33877954,9.940725,2.532467,-2.2237632,9.459892,1.31746851409350755590,-0.091578215,10.0825815,2.4408886,-2.2591383,9.443923,1.3707711409350755607,-0.6871359,9.983223,1.8950106,-2.2984133,9.426443,1.42473771409350755610,-0.8182184,9.603742,1.1306617,-2.3459024,9.408742,1.4637931409350755623,-0.3549404,9.358934,0.073023155,-2.399738,9.392669,1.47966811409350755642,0.7422025,9.351153,-0.33159694,-2.451378,9.380472,1.47237321409350755643,1.6071079,9.5971575,0.5758055,-2.4856818,9.374545,1.45247671409350755660,1.2707225,10.043676,1.6681601,-2.4971266,9.373943,1.43663851409350755661,-0.79726917,11.110891,2.6803088,-2.502814,9.373339,1.43067751409350755676,-1.7375919,11.493964,2.6922798,-2.513935,9.369382,1.4370841409350755691,-2.4289176,11.090541,2.1392193,-2.526893,9.365468,1.43986741409350755716,-2.3852234,10.298658,0.80325466,-2.538696,9.3646755,1.42417421409350755718,-1.6280571,10.5291,0.6075287,-2.5375528,9.371105,1.38333251409350755719,-0.82899237,11.16955,1.532289,-2.5093045,9.38647,1.32965821409350755720,-0.7978677,11.086949,1.2808979,-2.4528942,9.409325,1.27212831409350755739,-1.6178818,10.506954,-0.017357962,-2.382992,9.436503,1.20173731409350755740,-2.5516205,10.156802,-0.78769237,-2.3099637,9.465548,1.11261121409350755764,-3.4967315,9.378088,-1.1755531,-2.2340481,9.495026,1.0118911409350755766,-4.2598834,8.8884735,-1.9434932,-2.1565824,9.523612,0.90573771409350755771,-5.4821234,9.349358,-2.6324248,-2.0825424,9.550478,0.788551031409350755799,-6.4206505,11.640609,-2.3343468,-2.0178597,9.574463,0.65443661409350755801,-7.291541,15.370775,-1.5394717,-1.9630306,9.593726,0.526594641409350755802,-8.052299,19.136255,-0.83856916,-1.9138783,9.607848,0.44353521409350755811,-7.727885,19.608511,-0.2112883,-1.8690255,9.617543,0.424278741409350755834,-6.347627,17.97447,-0.3609259,-1.8191112,9.625205,0.465470581409350755836,-5.1421466,14.088081,0.61411273,-1.7624701,9.631932,0.53849841409350755839,-3.6619315,10.714052,2.142212,-1.7149882,9.6334095,0.653186861409350755861,-4.1706996,6.327875,4.6232033,-1.6727974,9.629562,0.80229251409350755862,-5.993884,7.590218,4.770447,-1.6432353,9.619767,0.96449391409350755874,-5.1780596,9.762358,4.302979,-1.6293011,9.6053705,1.1192181409350755890,-3.1789012,9.095572,3.651756,-1.5885619,9.59772,1.23717861409350755891,-1.6897079,7.7087307,2.802413,-1.4837021,9.6052475,1.3069951409350755908,-0.25857377,7.704541,2.0691888,-1.3225958,9.625536,1.33048181409350755910,0.7020996,8.438962,1.7010803,-1.1363132,9.650654,1.32062321409350755923,1.3670892,9.205706,1.3670892,-0.94580555,9.674644,1.29503691409350755937,1.4401124,9.156625,0.6003461,-0.76118475,9.694474,1.26813961409350755939,1.2354081,8.247426,-0.30705637,-0.596909,9.708637,1.24757721409350755955,1.0354922,7.1700354,-0.59855044,-0.46112597,9.717124,1.23906141409350755959,1.0462662,6.658275,-0.2765303,-0.35017794,9.720171,1.25141811409350755973,0.99658644,6.0172276,0.090979666,-0.2542388,9.717905,1.29154441409350755987,0.8631097,5.3540335,0.5554548,-0.16436876,9.7123165,1.34694661409350755993,0.90740246,4.824915,1.2413936,-0.084152594,9.702436,1.42338161409350756016,1.0229226,4.582502,1.8387469,-0.011810631,9.689445,1.51159061409350756018,1.0684125,4.398747,2.179322,0.055082567,9.674665,1.60256151409350756019,1.0313023,4.404134,2.2870612,0.1164459,9.659705,1.68728791409350756047,0.8690952,4.514866,2.690484,0.1693978,9.646375,1.75760251409350756048,1.0079589,5.024831,2.7850552,0.21198468,9.635624,1.81113931409350756053,1.0474633,5.466561,2.7287915,0.24642508,9.628443,1.84465811409350756059,1.0827777,5.976526,2.8341362,0.2739004,9.625287,1.85721251409350756075,1.3736732,6.5750766,2.7072437,0.29322284,9.62594,1.85086231409350756089,1.780089,7.2185183,2.6527755,0.308491,9.628316,1.8359671409350756091,2.2331917,7.80809,2.9652188,0.31333047,9.6333065,1.80875861409350756105,2.5809495,8.535329,3.3650506,0.30501842,9.639562,1.77657191409350756125,2.8383262,9.486425,3.6020765,0.281792,9.645588,1.74746221409350756125,3.1364043,10.503962,3.494936,0.24484643,9.650626,1.72506441409350756142,3.433884,11.333552,3.004723,0.19983679,9.655151,1.70543611409350756143,3.5404258,11.234193,2.3918076,0.15402839,9.660135,1.68179751409350756155,1.8620903,11.764508,2.8712463,0.113058664,9.665828,1.65208281409350756159,-1.365892,16.185402,4.8267107,0.066231005,9.670498,1.62711731409350756175,-2.134431,17.075447,3.558981,-0.00681421,9.668968,1.63749961409350756188,-0.95229375,15.198991,0.79487497,-0.06822525,9.665645,1.65561091409350756191,0.8379706,13.75828,0.35673606,-0.096733846,9.666348,1.6500821409350756208,2.3223755,12.145186,1.9710265,-0.06755276,9.666008,1.65351951409350756223,3.3979707,11.127651,5.6006365,-0.001239479,9.657115,1.70602541409350756224,1.4311341,18.253992,5.482722,0.10438611,9.6350565,1.82351021409350756239,-0.7685388,18.993801,1.2539631,0.227914,9.612416,1.92870021409350756240,-4.111443,15.737686,1.0941502,0.3361972,9.606798,1.94081721409350756270,-5.2103815,11.891401,0.7835025,0.3939172,9.605444,1.93666841409350756271,-4.020463,8.5383215,-0.2657564,0.4133061,9.599462,1.96211791409350756272,-3.115455,7.1730285,1.4987702,0.40846208,9.582506,2.0442911409350756286,-2.677316,7.665635,3.2620997,0.37070706,9.558269,2.1615891409350756292,-2.3481133,8.187572,2.5025394,0.3077464,9.538156,2.25816061409350756305,-2.1098902,7.841609,1.7788919,0.24906091,9.524877,2.32058241409350756320,-1.8650831,8.2593975,2.022502,0.19197613,9.525811,2.32216761409350756321,-1.8171991,9.054871,1.8674773,0.14673969,9.535405,2.2858071409350756337,-1.5622166,9.136273,1.448492,0.11107553,9.548843,2.2310631409350756339,-0.78529817,8.862138,1.186327,0.08043679,9.564197,2.1656571409350756362,0.15143326,8.644864,0.82899237,0.04911679,9.581116,2.09050271409350756363,0.41120413,8.772954,0.25797522,0.015322219,9.599809,2.00346041409350756371,0.4758476,9.821015,0.17597382,-0.025356121,9.619524,1.90644921409350756396,0.49919105,11.175535,0.55365914,-0.07619886,9.638216,1.80814251409350756397,0.6667852,11.7303915,0.6326678,-0.13632995,9.653359,1.7217661409350756399,0.6691794,11.35091,0.32441434,-0.20055969,9.665873,1.64350141409350756426,-0.34476504,10.893618,0.37948096,-0.27451912,9.6752615,1.57618261409350756427,-1.0911574,10.6715555,0.61052144,-0.3698558,9.683041,1.50742231409350756440,-1.6962919,10.203489,0.41240123,-0.47973832,9.689394,1.4338411409350756441,-2.0159178,9.4696665,0.11312603,-0.59589934,9.693221,1.36263571409350756453,-1.8602947,8.690952,0.06284779,-0.70939887,9.6936455,1.303991409350756459,-1.5304934,8.126519,0.06943185,-0.81260425,9.691316,1.26034781409350756474,-1.5610195,7.8607626,0.2184709,-0.8998852,9.6875515,1.22961081409350756486,-1.7848774,7.8039002,0.50757074,-0.97264695,9.682761,1.21181441409350756493,-1.9728222,7.6123643,0.74399817,-1.0374134,9.676402,1.2088931409350756511,-1.875857,7.3579803,0.81642276,-1.1038934,9.667525,1.22096341409350756513,-1.8112136,6.9743094,0.5081693,-1.1722019,9.657331,1.23786771409350756520,-1.8357542,6.843227,0.12449849,-1.2496736,9.646085,1.2497051409350756539,-1.9758149,7.067085,0.017956512,-1.3407398,9.634876,1.24176651409350756541,-1.8596961,7.5962033,0.22924481,-1.4446237,9.62345,1.21353761409350756553,-1.4718355,8.076839,0.3226187,-1.5522053,9.611365,1.17589091409350756559,-0.7781156,8.064868,0.37349546,-1.6556711,9.598556,1.1388171409350756571,-0.048482586,8.030152,0.6931214,-1.7497821,9.585179,1.11040221409350756587,0.28431144,8.293514,1.1587936,-1.8325098,9.570859,1.10043611409350756614,0.7374141,9.088988,1.745373,-1.9041777,9.554684,1.11916951409350756615,0.4297592,9.0237465,2.2158337,-1.9630435,9.536466,1.17161271409350756616,0.29209262,8.739435,1.6801311,-2.0200775,9.515871,1.24011291409350756620,0.11492168,8.814254,1.2599486,-2.0801423,9.492203,1.31965351409350756645,0.023942016,8.893262,0.98820674,-2.1426897,9.46767,1.39372931409350756646,0.3333926,8.792706,0.9379285,-2.2058492,9.445001,1.44796011409350756653,0.6991069,8.747216,1.2629414,-2.2640996,9.425719,1.48325531409350756672,0.82899237,8.758589,2.1787236,-2.312907,9.410102,1.50692441409350756673,0.80086046,8.819042,2.606687,-2.3499146,9.397247,1.52972651409350756690,0.6548142,8.773552,2.2307975,-2.378541,9.385912,1.55486391409350756693,0.48961425,8.842385,1.3084313,-2.405666,9.37538,1.57651341409350756714,0.5374983,9.0237465,0.3716998,-2.436317,9.365978,1.58530641409350756716,0.9684546,9.330803,-0.021547815,-2.4710436,9.358406,1.57625041409350756719,1.0546459,9.935937,0.23403321,-2.5042355,9.352804,1.5570051409350756747,0.34596214,10.71106,0.79008657,-2.533752,9.34897,1.53207051409350756748,-0.48961425,11.086949,1.1629834,-2.562025,9.345336,1.50702311409350756751,-1.2078748,11.514913,1.2216414,-2.586443,9.341987,1.48593011409350756773,-1.4670471,11.948263,1.7280151,-2.60115,9.341503,1.4631291409350756774,-1.7770962,11.880029,1.7220296,-2.6002579,9.346344,1.43349851409350756789,-2.1655555,10.911574,0.88944596,-2.5863907,9.357207,1.3869491409350756791,-1.5119383,10.4405155,0.97264445,-2.5604196,9.373785,1.32166891409350756805,-1.2707225,10.802039,1.287482,-2.510255,9.396332,1.25617331409350756827,-1.377863,10.713454,0.57999533,-2.4406257,9.422802,1.19353821409350756828,-1.8818425,10.110115,0.10474633,-2.358824,9.452814,1.11831721409350756834,-2.546832,9.314642,-0.30526072,-2.2778795,9.482335,1.03295081409350756844,-3.2740707,8.88608,-0.88525605,-2.1885045,9.512886,0.94120011409350756862,-4.277241,9.4295635,-1.2641385,-2.0941916,9.543124,0.844718341409350756863,-5.60722,11.259332,-1.09834,-2.0036283,9.570315,0.75162211409350756871,-6.931214,14.36102,-0.24181437,-1.9296678,9.591065,0.67692841409350756893,-7.5345526,17.666815,0.6775591,-1.8760493,9.604231,0.64001231409350756924,-6.715137,18.589779,0.7661445,-1.8302659,9.612328,0.65092011409350756927,-5.321113,17.384897,0.85532856,-1.7691405,9.62091,0.69183431409350756929,-4.6686935,15.600019,1.3784616,-1.6938783,9.630074,0.75022981409350756931,-3.8361096,12.956821,2.0374656,-1.6280786,9.634661,0.832515241409350756957,-2.9634233,10.3932295,2.9670146,-1.5765855,9.633975,0.933436451409350756958,-4.650737,8.525752,4.0162735,-1.5266426,9.629589,1.05393161409350756959,-6.669049,9.749788,4.565144,-1.498906,9.619712,1.17678061409350756973,-5.4007206,10.925341,3.4739866,-1.4847533,9.607609,1.28831031409350756974,-3.8726213,9.222465,2.1859062,-1.4240922,9.607719,1.35428231409350756987,-1.6843209,6.2859764,1.6514006,-1.308585,9.622647,1.36479381409350756992,-0.8391677,7.0946183,2.1601684,-1.1642513,9.644292,1.34259131409350757003,0.19991584,8.280945,2.2918496,-1.0154305,9.665211,1.31262861409350757019,0.74639237,8.784326,1.7292122,-0.86028033,9.684372,1.28189681409350757020,0.82779527,8.295909,0.9528923,-0.706943,9.700635,1.25230661409350757035,1.0480618,7.5165963,0.5566519,-0.57318217,9.712657,1.22725161409350757040,1.5514427,6.9725137,0.53211135,-0.45280617,9.721566,1.20686231409350757063,1.2922704,6.4882865,0.7188591,-0.3544873,9.725955,1.20438861409350757064,0.777517,5.892729,0.9355343,-0.27650243,9.726093,1.22354051409350757073,0.5734113,5.5743003,1.2300211,-0.21569309,9.722805,1.26131991409350757090,0.5931635,5.2247467,1.3970166,-0.1671528,9.717203,1.31088731409350757092,0.62488663,4.9224787,1.4239515,-0.12636314,9.710153,1.3665171409350757107,0.6793547,4.845266,1.4053963,-0.09257373,9.702014,1.42574661409350757119,0.66858083,4.8943467,1.4083891,-0.06619722,9.693336,1.48501471409350757120,0.7763199,4.970961,1.4670471,-0.046701618,9.684917,1.5396781409350757140,0.7990648,5.1571107,1.7764976,-0.03369849,9.677443,1.58630011409350757141,0.62368953,5.424064,2.2810757,-0.028100891,9.67112,1.62452021409350757153,0.3441665,5.8322754,2.858677,-0.026426673,9.665196,1.65942261409350757167,0.5859809,6.521207,3.269881,-0.034322176,9.660854,1.68437061409350757172,1.0696096,8.467094,3.086126,-0.047800083,9.658613,1.69684781409350757186,1.1492168,9.146449,3.335123,-0.063646615,9.659392,1.69188461409350757212,1.2479776,9.478644,3.6529531,-0.084953025,9.662143,1.67516841409350757213,1.4227544,9.979631,3.6355953,-0.11316775,9.6651535,1.65602061409350757215,1.7208325,10.907983,3.2531216,-0.14544922,9.66732,1.6407771409350757220,1.9542671,11.613674,2.991555,-0.17396972,9.668964,1.62826751409350757245,1.6801311,12.904747,3.145981,-0.19201355,9.669789,1.62133281409350757246,0.44891283,14.682442,2.9400797,-0.19692338,9.669295,1.62368551409350757252,0.21308395,13.907319,1.3964181,-0.19740342,9.669567,1.62200561409350757269,1.2180501,12.548011,0.19991584,-0.19291298,9.674301,1.59408191409350757272,2.12246,11.760918,0.207697,-0.15712826,9.682749,1.54598271409350757287,3.5661635,10.919954,1.4454993,-0.09156404,9.689251,1.51011291409350757316,4.770447,10.564415,4.581305,0.005359993,9.68833,1.51876331409350757317,4.4155064,13.06456,9.755175,0.13879085,9.676204,1.58814131409350757318,1.8662802,17.991228,10.277709,0.30502293,9.646957,1.73596451409350757321,0.047884032,19.608511,4.027047,0.44054353,9.6148,1.87934721409350757345,-3.0639796,19.31582,0.8595184,0.5275568,9.608312,1.89008141409350757346,-5.5258174,15.83106,-0.18315643,0.5396257,9.616043,1.84686531409350757352,-4.344279,8.968679,-0.2873042,0.49389148,9.618804,1.845281409350757370,-4.0120835,7.5225816,2.7856536,0.46658877,9.609982,1.89761641409350757373,-3.4356794,7.3268557,3.8127663,0.40694684,9.589398,2.01202321409350757386,-3.0214825,7.0700774,2.5570073,0.32520837,9.567341,2.1285221409350757404,-2.5725696,6.882133,1.714847,0.2495522,9.554448,2.1955941409350757405,-2.260725,6.996456,1.9698294,0.18688594,9.551966,2.21255561409350757430,-1.8710686,7.6267295,1.845331,0.13395926,9.5549555,2.2034681409350757431,-1.2150574,7.939771,1.3317747,0.09315876,9.561071,2.1789061409350757433,-0.16160862,7.9984293,1.210269,0.060771793,9.572452,2.1295251409350757440,0.64703304,8.251018,0.95708215,0.026936669,9.589727,2.0510461409350757453,0.86610246,9.194333,0.7356185,-0.01343509,9.610359,1.95223411409350757469,0.8194155,10.777499,0.9355343,-0.060809422,9.631592,1.84367261409350757472,0.84575176,11.624448,1.0552444,-0.11538842,9.651301,1.73477911409350757487,0.88046765,11.333552,0.55365914,-0.17374307,9.667594,1.63641461409350757505,0.44651863,10.833164,-0.13467385,-0.24050197,9.680417,1.54985871409350757506,-0.11133038,10.74398,-0.4985925,-0.3199342,9.691604,1.46316121409350757518,-0.62967503,10.422559,-0.41838676,-0.4109066,9.701771,1.37010941409350757520,-1.4263457,9.765948,-0.2136825,-0.5091413,9.709201,1.28163211409350757534,-2.0338743,9.062054,-0.1945289,-0.61084116,9.712351,1.21141111409350757551,-1.6370354,7.7386584,-0.29388827,-0.7097804,9.71179,1.16090791409350757553,-1.6573862,7.4788876,-0.038905777,-0.79219145,9.709505,1.12620411409350757567,-1.8303672,7.8027034,0.4165911,-0.8582971,9.706351,1.10474991409350757572,-1.6927006,7.969699,0.9127894,-0.9137754,9.7027645,1.09168351409350757585,-1.6891093,7.60997,1.1025299,-0.9650018,9.697417,1.09511291409350757612,-1.6184803,7.24665,0.78410107,-1.0167782,9.689994,1.11380591409350757614,-1.5747862,7.019799,0.32561144,-1.075147,9.680908,1.13773741409350757615,-1.5131354,7.1113777,0.04309563,-1.1464642,9.6717,1.14641061409350757621,-1.3910311,7.9188223,0.078410104,-1.2303803,9.663545,1.1280421409350757640,-1.110311,8.34918,-0.029927522,-1.3188673,9.656219,1.09015731409350757642,-0.66379243,8.676587,-0.093972415,-1.4048805,9.649024,1.04547881409350757652,0.2885013,9.138069,0.16460137,-1.4858158,9.640971,1.00719611409350757667,1.0899603,9.446322,0.5518635,-1.5557091,9.631826,0.98897831409350757686,0.9684546,9.095572,0.92655605,-1.611723,9.621289,1.00176421409350757687,1.0313023,9.065046,1.2485762,-1.667249,9.608488,1.03326521409350757711,1.0444705,9.242217,1.5903485,-1.7197855,9.592516,1.09378251409350757713,0.9576807,9.39365,1.6897079,-1.7688159,9.5742035,1.17317061409350757714,0.66379243,9.408614,1.536479,-1.8154405,9.555051,1.2552281409350757721,0.7170634,9.23264,1.270124,-1.8653594,9.536113,1.32415781409350757739,1.4359225,8.610147,1.0498575,-1.9166961,9.519122,1.37221481409350757752,1.271321,8.599973,1.7848774,-1.9629946,9.505209,1.40287531409350757753,0.9127894,8.740632,2.6132712,-2.0033455,9.492544,1.43129841409350757767,0.55964464,9.007586,2.7263973,-2.0371826,9.479171,1.47159651409350757772,0.22146365,9.402629,2.2307975,-2.0663588,9.464531,1.52419881409350757783,-0.017357962,9.6923275,1.3611037,-2.0937643,9.449852,1.5769771409350757807,0.37229836,9.828796,0.49081135,-2.123279,9.436231,1.61852661409350757809,1.0193313,9.88925,0.18794483,-2.153924,9.425329,1.64139651409350757813,1.06123,10.239402,0.6721721,-2.1858063,9.41784,1.64223651409350757821,0.37469256,10.576386,1.5556326,-2.2195125,9.41265,1.62671161409350757840,-0.20470424,10.939108,1.9566613,-2.2551672,9.407355,1.60819161409350757842,-0.8822633,11.40059,2.0721815,-2.2873058,9.40274,1.5896951409350757855,-1.6938977,11.558009,1.757344,-2.313451,9.401161,1.56093941409350757867,-1.9853917,11.227011,1.18094,-2.3353636,9.404088,1.50983881409350757873,-1.5855601,11.15698,1.1109096,-2.3444946,9.412469,1.44193481409350757883,-1.389834,11.865065,1.6196774,-2.3317423,9.425992,1.37260821409350757911,-1.5101427,12.501923,1.7609353,-2.2999063,9.443226,1.30626321409350757912,-1.785476,12.417527,0.9295488,-2.2614682,9.461376,1.24037241409350757914,-2.1015105,11.95784,-0.10295067,-2.2161744,9.481738,1.16430151409350757921,-3.513491,9.915586,-1.5263035,-2.1630244,9.50444,1.07580091409350757938,-4.2538977,8.677784,-2.4510639,-2.1134822,9.526464,0.974703131409350757954,-4.2969937,8.710106,-2.837129,-2.06203,9.548628,0.8614591409350757955,-5.153519,10.022128,-2.520496,-2.005354,9.570962,0.738673751409350757965,-6.5152216,12.704233,-1.38325,-1.948003,9.590732,0.62732291409350757975,-7.5602903,16.350601,-0.27114335,-1.8975312,9.604867,0.56242521409350757994,-7.4046674,18.142662,0.05746084,-1.8547,9.613227,0.56246031409350757995,-6.127361,16.70614,-0.17178397,-1.8026658,9.619571,0.62022861409350758001,-4.908712,13.801375,0.6967127,-1.7304803,9.627208,0.701939461409350758024,-3.8714242,10.829573,2.3948002,-1.6565154,9.631154,0.81683371409350758025,-3.2363622,8.451532,3.8115692,-1.5944284,9.628384,0.960428541409350758035,-4.0396166,7.045537,4.6417584,-1.54561,9.618805,1.1225311409350758056,-5.9130797,6.622362,4.5896845,-1.5095052,9.6043005,1.28421331409350758057,-5.717354,8.69993,4.1455603,-1.4819196,9.58963,1.41891871409350758061,-3.8750155,8.783728,3.1741128,-1.4257913,9.584183,1.51028421409350758088,-2.4079683,7.244256,2.267309,-1.3087804,9.595262,1.54545781409350758089,-1.2240356,6.4032927,1.6717514,-1.1526562,9.617567,1.53107211409350758108,-0.19812019,6.52001,1.3078327,-0.98611605,9.642413,1.49058991409350758110,1.0342951,8.154651,1.6130934,-0.8167721,9.66556,1.44231011409350758113,1.4395138,8.306085,0.98581254,-0.6412078,9.685607,1.39579921409350758121,1.2665327,7.354389,0.48003745,-0.4728527,9.700997,1.35552911409350758141,1.376666,6.655881,0.5201403,-0.3315001,9.710426,1.32969731409350758142,1.4790181,6.3566055,0.9127894,-0.21604376,9.714513,1.32362821409350758153,1.4694413,5.903503,1.2354081,-0.11686361,9.713714,1.34183431409350758166,1.3670892,5.522825,1.5951369,-0.02648498,9.708858,1.3812131409350758184,1.2491747,5.3324857,1.8183962,0.055108286,9.700953,1.43488091409350758185,1.067814,5.2289367,2.0638018,0.12778291,9.69082,1.49735281409350758207,1.0785879,5.2397103,2.2828712,0.19126458,9.679169,1.56445121409350758208,1.1827357,5.353435,2.3056161,0.24597572,9.666908,1.63118841409350758216,1.2934675,5.450999,2.1679497,0.29571813,9.654484,1.69526371409350758222,1.5005659,5.681441,2.1709423,0.33594367,9.643758,1.74800051409350758238,1.5765818,5.9873,2.3481133,0.36634052,9.6359825,1.78438281409350758253,1.590947,6.3901243,2.6617537,0.38576204,9.631759,1.80300751409350758254,1.7076644,6.8947024,2.8862102,0.39211416,9.630975,1.80581381409350758266,1.9428947,7.3819222,3.1022868,0.38391003,9.633268,1.79531811409350758281,2.190096,8.042722,3.3979707,0.36397675,9.638077,1.77352941409350758282,2.355296,8.922591,3.6302083,0.33076304,9.645096,1.74157891409350758300,2.6078842,9.988609,3.8031895,0.28602096,9.653512,1.70244291409350758301,2.9532478,10.760141,3.6661212,0.23463951,9.661747,1.66313081409350758315,3.127426,9.782708,3.177704,0.18268867,9.668904,1.62767311409350758321,0.7781156,12.066776,3.544017,0.13211197,9.675792,1.59123111409350758334,-1.9249382,17.352575,3.2202013,0.06584113,9.681484,1.56042851409350758354,-1.5041572,17.337013,0.7577648,-0.028112946,9.688214,1.5192491409350758356,0.18854338,14.627376,-1.0450691,-0.09871026,9.697585,1.45516311409350758373,1.7782934,12.25951,-0.43993455,-0.10990071,9.706648,1.39258841409350758374,3.4033577,10.263943,1.7208325,-0.06666246,9.710612,1.36745741409350758382,4.537611,9.821015,6.5457473,0.012797815,9.704266,1.41330971409350758403,3.755904,12.911331,10.336966,0.1354791,9.683087,1.54592251409350758404,2.6126726,17.911621,7.1365166,0.2948414,9.647588,1.73421861409350758416,0.581791,19.545065,3.0238767,0.45713896,9.622216,1.83694721409350758432,-3.6613328,16.676214,2.8981812,0.5779778,9.616452,1.83307651409350758433,-5.0200424,12.0967045,1.2066777,0.6240937,9.613653,1.83264861409350758450,-4.048595,8.948928,-0.36511576,0.6345705,9.608277,1.857071409350758454,-3.2854433,8.101978,1.448492,0.62410593,9.59546,1.92562741409350758467,-2.8933928,9.188348,2.397793,0.58447933,9.5786,2.0197021409350758482,-2.5845408,9.43914,1.033098,0.52098715,9.567274,2.08954951409350758483,-2.6964695,9.329605,0.6572084,0.45309505,9.568148,2.1013451409350758500,-2.7754784,9.770139,0.48003745,0.38355598,9.575985,2.07936841409350758501,-2.6725276,9.628283,0.16220717,0.31744823,9.584935,2.04905841409350758514,-2.1978772,9.260772,0.047884032,0.2586375,9.5942545,2.0134041409350758530,-1.371279,8.686164,-0.15442601,0.20164669,9.605765,1.96443491409350758533,-0.94331545,8.70831,-0.15263036,0.14671843,9.618066,1.9083221409350758565,-0.9959879,10.095152,0.46806642,0.088702075,9.632326,1.8387031409350758566,-1.0342951,11.403583,0.96067345,0.024533115,9.646492,1.76493291409350758567,-0.86370826,10.894217,0.7978677,-0.047675945,9.65848,1.69760821409350758588,-0.74998367,10.001179,0.52971715,-0.12662746,9.667198,1.64305951409350758589,-1.1234791,9.980828,0.44113165,-0.2139391,9.673901,1.59382341409350758595,-1.5658079,10.204686,0.480636,-0.3101004,9.681532,1.53041861409350758601,-1.9500773,10.023325,0.5638345,-0.41191185,9.690275,1.44889471409350758613,-2.0667946,9.553463,0.36032736,-0.5117006,9.697518,1.3662831409350758630,-1.9835961,8.826823,-0.108936176,-0.60212,9.702014,1.29567471409350758635,-1.7770962,8.294113,-0.3196259,-0.68009824,9.704361,1.23825411409350758649,-1.9219455,8.222886,-0.24001873,-0.75098497,9.705535,1.18701841409350758654,-2.219425,8.351574,0.11192893,-0.8106728,9.705235,1.14963251409350758663,-2.2768857,8.394072,0.59855044,-0.8645927,9.702963,1.12933371409350758685,-1.2108675,7.7470384,1.067814,-0.9196426,9.697887,1.1294361409350758686,-0.95468795,7.6788034,0.7703344,-0.9767244,9.690007,1.14898061409350758703,-1.1384429,7.7799582,0.4973954,-1.0477436,9.680137,1.16943431409350758704,-1.216853,8.158242,0.3842694,-1.1406856,9.669538,1.17015211409350758716,-1.0097545,8.574833,0.2705448,-1.2531815,9.658504,1.14597921409350758733,-0.49081135,8.300697,0.10115502,-1.3752136,9.646277,1.1083921409350758734,0.27712885,8.05589,0.1412579,-1.4957056,9.632489,1.07164611409350758748,0.88405895,8.350377,0.51954174,-1.608099,9.617784,1.04050161409350758764,1.2192472,8.681973,0.9175778,-1.7113355,9.601306,1.02792971409350758764,1.2401965,8.971074,1.2743138,-1.8037975,9.582941,1.04112941409350758782,0.9475053,8.805874,1.4526819,-1.8862728,9.562289,1.08396721409350758783,0.84814596,8.450933,1.6759412,-1.9657925,9.538239,1.15240361409350758802,0.65541273,8.06008,1.9237411,-2.0442736,9.5115795,1.2333781409350758803,0.3513491,7.6165543,1.7345991,-2.1241915,9.483762,1.31014161409350758817,0.29628247,7.2448545,1.3922282,-2.206766,9.456183,1.37155721409350758833,0.3405752,7.2670007,1.4167689,-2.286344,9.430585,1.41671341409350758834,-0.06584055,7.524976,1.7441759,-2.3520415,9.409028,1.4520571409350758849,-0.62009823,7.765593,2.2786815,-2.4029567,9.390138,1.49046771409350758853,-0.7080852,7.928399,2.8383262,-2.4481895,9.370715,1.53832321409350758864,0.16460137,8.322245,2.328361,-2.4853723,9.351138,1.59672681409350758881,0.25079262,8.474277,1.7202339,-2.5129185,9.335178,1.64622641409350758882,0.061650693,8.823831,1.2276269,-2.5414295,9.323321,1.66949921409350758902,-0.020350715,9.496601,0.9864111,-2.5725124,9.315915,1.66321911409350758903,0.16699557,10.542868,1.0684125,-2.6032867,9.311696,1.63879071409350758918,0.14544775,11.702259,1.5735891,-2.6270971,9.310567,1.6068881409350758934,-0.002992752,12.289437,2.2146366,-2.6405993,9.312501,1.5732011409350758937,-0.08738836,12.475587,2.15538,-2.6432574,9.316599,1.54420921409350758951,-0.23163901,12.61445,1.774702,-2.635891,9.323573,1.51441791409350758963,-0.8702923,12.291832,2.0488381,-2.618838,9.33486,1.47393391409350758964,-1.6214731,11.602302,2.1272483,-2.6053512,9.345547,1.42943721409350758980,-1.6490064,10.991181,1.8495208,-2.5876827,9.357357,1.38353241409350758982,-1.3096284,10.780492,1.7202339,-2.5523286,9.372956,1.34301571409350759000,-1.1013328,10.677541,0.7505822,-2.4907048,9.394959,1.30441441409350759002,-1.4945804,10.332776,-0.5823896,-2.4075062,9.42467,1.24495271409350759017,-1.9919758,9.616311,-1.5125369,-2.314253,9.459124,1.15741241409350759032,-2.5731683,8.939949,-2.1763294,-2.2147582,9.495078,1.05297061409350759034,-3.3943794,8.857349,-2.2720973,-2.1110394,9.530333,0.941636151409350759058,-4.343082,10.220248,-1.9129672,-2.0086396,9.562202,0.836700441409350759060,-6.3284736,17.396868,-0.05865794,-1.9114105,9.588444,0.760695041409350759063,-6.3392477,19.594147,0.011372458,-1.8286527,9.606363,0.737707561409350759100,-5.6946087,19.41039,-0.20649989,-1.738683,9.622747,0.741693441409350759102,-5.288193,17.140688,0.60812724,-1.6320062,9.63864,0.77690091409350759104,-4.176685,13.666702,1.9656396,-1.5254284,9.649676,0.85275781409350759112,-3.1729157,10.189124,3.1944637,-1.4310179,9.652906,0.97159231409350759140,-4.1946416,7.8446016,4.1838675,-1.3605422,9.64679,1.121951409350759142,-6.7767878,7.929596,4.1599255,-1.323252,9.631897,1.28296071409350759145,-6.6205664,10.438121,3.2980127,-1.3199942,9.612497,1.42404271409350759146,-4.2413282,9.800066,2.2002714,-1.2966169,9.60152,1.51657771409350759165,-2.9460652,7.399879,1.6675615,-1.196039,9.608198,1.55640531409350759166,-1.6729485,6.266823,1.6831238,-1.046608,9.624738,1.56186471409350759187,-0.08319851,7.6584525,2.421735,-0.88667244,9.641671,1.55640711409350759188,0.9983821,8.822633,2.7874494,-0.71229476,9.657896,1.54533681409350759194,1.501763,9.416994,2.345719,-0.5302968,9.671879,1.53099021409350759203,1.3676877,8.730456,1.3072342,-0.3610358,9.682684,1.51185361409350759223,0.7769185,7.317279,0.6596026,-0.22752273,9.690175,1.48967341409350759224,1.0636241,6.628946,0.88765025,-0.13271986,9.693713,1.47807931409350759234,1.2198458,6.342839,1.4939818,-0.056494918,9.69232,1.4920291409350759259,0.82480246,5.168483,1.6041151,0.014344752,9.6859255,1.53396431409350759261,0.8379706,4.7614684,1.7106571,0.07583923,9.676476,1.59075011409350759263,0.87927055,4.537611,1.7711107,0.12989464,9.665508,1.65272461409350759293,0.89662856,4.4394484,1.697489,0.17851518,9.653849,1.71514031409350759294,0.97025025,4.4837413,1.6244658,0.2240788,9.641786,1.77655841409350759297,1.1025299,4.6722846,1.5975311,0.26379064,9.630285,1.83259311409350759327,1.2838906,4.9524064,1.6418238,0.2973473,9.620151,1.88007721409350759328,1.4742297,5.3079453,1.7172412,0.32364905,9.612181,1.91614991409350759330,1.6968905,5.767632,1.8219875,0.34194502,9.607284,1.9374131409350759334,1.7393875,6.205172,2.1218612,0.3522082,9.605675,1.94354061409350759363,1.6992847,6.6893997,2.6354175,0.35220265,9.606684,1.93855521409350759365,1.721431,7.299921,3.3399115,0.33884487,9.609428,1.92729741409350759366,1.8034325,8.015189,3.6978445,0.30978477,9.613082,1.9139241409350759391,1.863886,9.190144,3.4757824,0.26499343,9.618143,1.89512631409350759393,1.6639702,10.444106,3.345897,0.20774084,9.624622,1.86919241409350759395,1.1258733,10.764331,3.8163576,0.14588687,9.63238,1.83477151409350759425,0.65780693,9.717466,4.021062,0.07610124,9.637891,1.8098821409350759427,-0.40043023,9.831789,4.183269,0.00810688,9.63976,1.80148021409350759429,-2.457648,14.488512,2.6850972,-0.057255965,9.638035,1.80980071409350759435,-1.5664065,14.200609,0.2645593,-0.13539003,9.635799,1.81754571409350759453,-0.089184016,12.835316,-0.5554548,-0.17405337,9.636033,1.81300221409350759455,2.005144,11.660959,-0.2148796,-0.15513708,9.638146,1.80346751409350759464,4.028843,9.941324,1.7663223,-0.08572525,9.637227,1.81298071409350759514,5.079299,9.065046,6.0926447,0.018565292,9.62563,1.87544731409350759517,4.343082,12.179903,10.943896,0.15898733,9.598877,2.00166941409350759524,2.391209,18.278532,10.373477,0.3243813,9.552192,2.19562751409350759526,0.6206968,19.608511,3.8947675,0.4729349,9.508579,2.35236931409350759529,-3.5003228,17.036541,0.9983821,0.5872659,9.501976,2.35328871409350759585,-4.7524905,13.0519905,0.6512229,0.62351096,9.51568,2.28767441409350759588,-3.9067385,11.200674,-0.16220717,0.6262832,9.528461,2.23306781409350759591,-3.8792052,10.310031,1.483208,0.61404157,9.530916,2.22598151409350759595,-3.6697125,10.526707,2.4049757,0.567142,9.522939,2.27208921409350759596,-3.46022,10.474632,1.3790601,0.48820642,9.516817,2.3156491409350759597,-3.342904,9.746795,0.5758055,0.4030755,9.520062,2.31869151409350759598,-3.2908301,9.356541,0.80924016,0.32391414,9.528032,2.2982741409350759614,-3.1507695,9.309854,0.74998367,0.25316522,9.534726,2.2793211409350759615,-2.8287494,9.308656,0.6937199,0.19307153,9.541055,2.25862771409350759616,-0.492607,8.830415,1.4969746,0.1361844,9.550364,2.2231521409350759631,0.3669114,8.744822,1.34195,0.091654345,9.562356,2.17332841409350759634,0.3286042,8.918402,1.1186907,0.03995675,9.576317,2.1125781409350759649,0.26874915,9.442133,1.2970588,-0.02454466,9.5901575,2.04906371409350759663,0.25258827,9.671378,1.2174516,-0.101528674,9.602599,1.98750771409350759664,0.11432313,9.712678,0.93732995,-0.18852629,9.61395,1.92530991409350759705,-0.28790274,10.002377,0.60693014,-0.2811337,9.62514,1.85688171409350759707,-0.74878657,10.275913,0.31124622,-0.38168213,9.637284,1.77411221409350759710,-1.2695254,9.974244,0.08439561,-0.49043578,9.649368,1.6791521409350759713,-1.4425066,9.260772,-0.2753332,-0.6049521,9.659238,1.58225871409350759719,-1.4407109,8.48146,-0.6183026,-0.71971756,9.66573,1.49199631409350759748,-1.400608,8.021174,-0.62847793,-0.82873017,9.668346,1.41657651409350759749,-1.496376,7.5908165,-0.40581718,-0.9261994,9.668071,1.35681681409350759750,-1.5993267,7.543531,0.09816227,-1.0083343,9.666131,1.31131941409350759768,-1.377863,7.705738,0.6703765,-1.0740151,9.663002,1.28190851409350759769,-1.3329718,7.766192,0.93373865,-1.1280527,9.65838,1.27026891409350759785,-1.3162124,7.674015,0.8948329,-1.1833365,9.651002,1.27603641409350759786,-1.5334862,7.515998,0.52852005,-1.2509928,9.6407585,1.28887081409350759794,-1.6466122,7.2083426,0.19572599,-1.3371671,9.629477,1.28668761409350759815,-1.2797008,8.6813755,-0.08559271,-1.4369419,9.618666,1.2597131409350759816,-0.8475474,8.91481,-0.46447513,-1.5351729,9.608571,1.22024261409350759831,-0.20709845,9.464279,-0.3226187,-1.6296196,9.59917,1.17075881409350759849,-0.088585466,9.004593,-0.06464344,-1.7156574,9.589529,1.12598261409350759852,0.26874915,9.050082,0.492607,-1.8011782,9.577548,1.09395491409350759866,0.4818331,9.407417,1.1665748,-1.8785523,9.564316,1.07949391409350759867,0.44951138,9.277532,1.4730326,-1.9429799,9.550247,1.08994751409350759884,0.43993455,9.090784,1.5185224,-1.995613,9.534612,1.13097621409350759885,0.2789245,9.001001,1.4431051,-2.0444152,9.516784,1.19230081409350759897,0.350152,9.063251,1.0773908,-2.09721,9.497459,1.25314831409350759911,0.6871359,9.131485,1.0486604,-2.1555197,9.478496,1.2970231409350759914,1.1216835,9.077616,1.3371617,-2.2146938,9.460962,1.3250411409350759927,1.5400703,8.974665,1.7675194,-2.2711353,9.444055,1.34988551409350759944,1.7711107,9.006987,2.5713725,-2.321979,9.427918,1.37592021409350759945,1.4784195,8.962694,3.1908724,-2.363996,9.411936,1.4132951409350759963,0.7469909,8.845977,3.4931402,-2.3995898,9.395048,1.46473471409350759964,-0.22026655,8.799889,3.4105403,-2.4344516,9.375917,1.52840611409350759979,-0.91219085,8.761581,2.409764,-2.4718368,9.355176,1.59409121409350759983,-0.78290397,8.702325,1.2126632,-2.5142698,9.334676,1.64701261409350759995,0.17836803,9.604341,0.82240826,-2.5599341,9.3170185,1.67639481409350760012,-0.6410475,10.506954,1.1785458,-2.5979712,9.306245,1.67772041409350760031,-1.6944963,11.15698,1.1611878,-2.6350148,9.298755,1.66139831409350760032,-2.5683799,11.90457,0.91458505,-2.6692584,9.293184,1.63773451409350760048,-2.8778305,12.30919,0.9600749,-2.701212,9.28911,1.60818761409350760049,-2.954445,11.868058,1.1749545,-2.719321,9.290434,1.56955931409350760063,-2.212841,10.74398,0.6769605,-2.7200909,9.298003,1.522711409350760063,-1.1899183,10.103531,0.16340427,-2.6964357,9.313545,1.4688481409350760077,-0.7649474,9.727641,0.7308301,-2.6436317,9.33692,1.41547181409350760084,-0.57760113,9.062054,0.5374983,-2.5684469,9.3651085,1.36682621409350760104,-0.81642276,8.127716,-0.23582886,-2.4806798,9.396655,1.3112961409350760105,-1.3078327,7.1784153,-0.43035775,-2.3872092,9.430156,1.24248491409350760115,-1.8728642,6.793547,-0.40102878,-2.2910702,9.463495,1.16775141409350760137,-3.1693244,7.426215,-0.42317516,-2.1926124,9.495572,1.0940591409350760138,-4.8015714,9.655217,0.3286042,-2.1003618,9.524316,1.0228941409350760143,-6.0561333,13.292009,1.4502877,-2.0187736,9.546777,0.97674311409350760172,-6.549339,17.349583,2.066196,-1.9459374,9.561965,0.975979151409350760173,-5.8693852,19.513342,1.7220296,-1.8669162,9.574335,1.00852541409350760175,-5.3564277,19.04827,0.87807345,-1.7662028,9.590141,1.0392771409350760185,-4.8039656,15.127764,1.2563573,-1.6600925,9.607286,1.05571381409350760206,-4.1683054,12.669517,2.2906525,-1.5662664,9.618042,1.10020641409350760208,-4.032434,10.276512,3.321955,-1.4883479,9.620244,1.1858051409350760216,-5.222951,8.5473,3.6014779,-1.4300115,9.614902,1.29580381409350760248,-5.7598505,9.402629,3.1370027,-1.3909502,9.606316,1.3979941409350760253,-4.4741645,10.138845,2.5330653,-1.3470458,9.602171,1.46771111409350760256,-2.6042929,9.510367,1.9710265,-1.2763853,9.604431,1.51529591409350760286,-1.4748282,8.063671,1.5676036,-1.1480731,9.617855,1.53271111409350760288,-0.45729253,8.651448,2.1404164,-0.98211217,9.6369295,1.52822141409350760289,0.46746787,9.246407,2.557606,-0.8051816,9.655147,1.5166491409350760290,0.7661445,9.279327,2.2110453,-0.6285944,9.6693735,1.50946521409350760295,0.45549688,8.447941,1.3652935,-0.46773422,9.678654,1.50840661409350760320,0.3226187,7.421427,0.97025025,-0.34058028,9.6835985,1.51072791409350760321,0.56323594,6.7109475,0.9576807,-0.2484403,9.684432,1.52330551409350760323,0.54527944,6.1746464,1.1121067,-0.17686778,9.681088,1.5542281409350760350,0.36152446,5.589264,1.2611457,-0.11546945,9.674221,1.60202551409350760351,0.33039984,5.179257,1.4293385,-0.05828191,9.6657095,1.65561681409350760355,0.37349546,4.953005,1.5783775,-0.006403803,9.655765,1.71364521409350760364,0.47884035,4.255095,1.7220296,0.042474125,9.644991,1.77277311409350760385,0.42317516,4.156334,1.6783354,0.08628762,9.633755,1.83131471409350760386,0.33877954,4.2173862,1.5580268,0.12027201,9.622799,1.88617621409350760395,0.45310268,4.4220905,1.4796166,0.1439765,9.612929,1.93422631409350760419,0.664391,4.784812,1.5119383,0.16048685,9.604975,1.97208111409350760420,0.9259575,5.1666875,1.6801311,0.17267424,9.600169,1.99432031409350760424,1.0989386,5.515642,2.071583,0.18213819,9.59882,1.99997091409350760453,1.086369,5.9005103,2.520496,0.18663046,9.6003685,1.99211081409350760454,1.127669,6.5379663,2.9346926,0.18133126,9.604072,1.97466811409350760456,1.3245921,7.5734587,3.2854433,0.17012393,9.608385,1.95458871409350760464,1.4850036,8.774749,3.7014358,0.14544469,9.61439,1.92685011409350760486,1.5939398,9.985018,4.0503907,0.10628245,9.621362,1.89433731409350760487,1.5747862,11.134235,4.11264,0.055309217,9.628165,1.86165851409350760496,1.8435353,11.3407345,3.839701,-0.001221505,9.633959,1.83227621409350760520,1.2437878,10.734404,3.6230257,-0.053093586,9.638594,1.80695191409350760521,-1.2725182,14.221559,4.3819876,-0.10381401,9.641496,1.78918531409350760524,-2.9765913,17.080833,3.5152867,-0.170108,9.640053,1.79188411409350760549,-2.1948843,15.255255,0.41599256,-0.23585269,9.638727,1.79156541409350760550,-0.03232172,13.404537,-1.4239515,-0.23984365,9.645193,1.75587451409350760558,4.5124717,10.895413,2.9658175,-0.17559081,9.652406,1.72355461409350760564,4.601057,12.088325,8.815451,-0.054102324,9.646383,1.7648681409350760586,2.5187001,17.361553,10.949283,0.09972572,9.615521,1.92411051409350760588,1.3431472,19.608511,5.348048,0.25240198,9.569346,2.12939171409350760595,-2.106299,18.579004,0.8122329,0.39076567,9.547855,2.20367221409350760618,-4.782418,14.17966,-0.41180268,0.46737304,9.5517645,2.17158171409350760619,-4.406528,10.064027,-0.58538234,0.4938231,9.56273,2.11677721409350760624,-3.430891,8.308478,1.5131354,0.49889287,9.563237,2.11329221409350760652,-2.9855695,8.526351,4.0276456,0.47681928,9.547302,2.18907361409350760653,-2.397793,9.111135,3.903746,0.4237495,9.525657,2.29188181409350760655,-1.9189527,8.833407,2.5210943,0.36188862,9.512933,2.35446931409350760664,-1.763928,8.635287,2.0632033,0.30991262,9.507798,2.38246561409350760682,-1.9482816,8.822633,1.7076644,0.25759923,9.511138,2.37535141409350760684,-2.006341,9.294291,0.8810662,0.21052185,9.517025,2.35633061409350760695,-1.7262194,9.580399,0.45729253,0.16901115,9.526793,2.31992241409350760714,-0.79487497,9.634866,0.5177461,0.12805896,9.542965,2.2551721409350760733,0.09756372,10.027515,0.57640404,0.085366644,9.563625,2.16798881409350760734,0.28491,10.900202,0.55725044,0.036782503,9.585639,2.0699161409350760740,0.03172317,11.441292,0.5686229,-0.025813071,9.605767,1.97458521409350760744,-0.3172317,10.455479,0.17896658,-0.10863076,9.621495,1.89351891409350760768,-1.0785879,10.025121,0.0688333,-0.20819867,9.632828,1.82638011409350760769,-1.6514006,9.783307,0.23762453,-0.3222722,9.642223,1.75899181409350760776,-2.180519,9.2308445,0.29269117,-0.44272888,9.649839,1.68967571409350760800,-2.4732103,8.632295,0.25558102,-0.5683926,9.655508,1.61817591409350760802,-2.5139117,8.149862,0.044891283,-0.6932647,9.657655,1.55547421409350760804,-2.271499,7.77936,-0.017357962,-0.8139295,9.656273,1.50475751409350760842,-1.9632454,7.505822,0.1376666,-0.92344594,9.65283,1.46305251409350760844,-1.9973627,7.8086886,0.3728969,-1.0143657,9.648992,1.42772981409350760845,-2.079364,8.257003,0.7787141,-1.0856563,9.644987,1.4021361409350760846,-1.9057846,8.333617,1.1899183,-1.1465571,9.639107,1.39407241409350760869,-1.7830818,7.7691846,1.1438298,-1.207722,9.6297245,1.40720261409350760870,-1.8207904,7.225102,0.5315128,-1.2788475,9.617264,1.42940451409350760875,-1.8195933,7.1113777,-0.05267244,-1.3657045,9.603133,1.44398891409350760894,-1.6741456,7.517793,-0.054468088,-1.4600846,9.591203,1.4308711409350760895,-1.5149311,8.112154,5.99E-04,-1.5636462,9.580902,1.38985861409350760908,-1.3652935,8.06008,-0.1921347,-1.6697898,9.570876,1.334361409350760926,-0.6422446,7.8583684,-0.24121583,-1.7770853,9.559196,1.27831841409350760927,0.29209262,7.9942393,0.4997896,-1.8796234,9.5455,1.23322551409350760945,0.4309563,8.4647,0.99778354,-1.9653251,9.530843,1.21282911409350760946,0.5177461,8.33242,1.4341269,-2.0350327,9.51511,1.2213661409350760961,0.789488,8.214506,1.7585411,-2.0924504,9.497489,1.260861409350760964,0.664391,8.079832,1.7950528,-2.1423907,9.477775,1.32377251409350760978,0.42676646,8.012196,1.5245079,-2.1931353,9.456463,1.39135271409350760990,0.5386954,8.059482,1.1384429,-2.2482898,9.43461,1.45042381409350760995,0.91219085,8.289924,0.9684546,-2.3046517,9.414533,1.49182961409350761009,0.99898064,8.543709,1.1324574,-2.3589048,9.397697,1.51302791409350761024,0.89902276,8.789713,1.4568717,-2.4064133,9.383981,1.52330211409350761025,0.6631939,9.053075,2.1505916,-2.4453566,9.372286,1.53325531409350761044,0.2693477,9.375694,2.6204538,-2.476701,9.360667,1.5537861409350761046,-0.47764325,9.730036,2.4839842,-2.5044694,9.347723,1.58685421409350761064,-1.3186066,10.0341,2.1667526,-2.5355096,9.333256,1.62231781409350761065,-1.4784195,10.103531,1.3413515,-2.5746484,9.317711,1.64980721409350761084,-0.9780314,9.923966,0.4985925,-2.6194675,9.303268,1.66071681409350761085,-0.2136825,9.948506,0.46208093,-2.6642988,9.291822,1.65345991409350761113,0.020350715,10.400413,1.1641805,-2.703118,9.283082,1.63949561409350761114,-0.3878607,10.972627,2.0189106,-2.7330098,9.277166,1.62334361409350761127,-1.6436194,11.622053,2.3295584,-2.7534926,9.272385,1.61602771409350761128,-1.9782091,11.836334,2.268506,-2.770348,9.267302,1.61638021409350761144,-2.1176715,11.583148,2.043451,-2.7752726,9.266274,1.61381941409350761145,-1.5999253,11.170747,1.3239936,-2.767135,9.271506,1.59766441409350761158,-0.90740246,11.241974,1.1318588,-2.7383993,9.285432,1.56598851409350761163,-0.31064767,11.481993,1.5448587,-2.682975,9.307626,1.5297441409350761175,-0.26994625,11.192294,0.997185,-2.6061728,9.335611,1.49150931409350761195,-0.81043726,10.116699,-0.092176765,-2.5230892,9.367394,1.43398651409350761196,-1.79206,8.635287,-0.5506664,-2.4434412,9.399955,1.35678171409350761219,-2.618658,7.5453267,-0.7302315,-2.3723164,9.431104,1.26364341409350761220,-3.6888664,7.2783732,-1.0223241,-2.2966306,9.462424,1.16550161409350761225,-5.401319,8.470087,-0.7858967,-2.2191112,9.492782,1.06443311409350761251,-6.7163343,11.68131,-0.21308395,-2.151088,9.518254,0.97265381409350761252,-7.4441714,16.048933,0.19033903,-2.093963,9.537327,0.908355241409350761256,-7.08564,19.208082,-0.38845924,-2.0378354,9.552213,0.87912681409350761274,-5.8502316,19.300259,-0.80564886,-1.9624943,9.569337,0.86418231409350761278,-5.035006,17.438766,0.02633622,-1.8647038,9.588982,0.86296011409350761296,-3.9923313,14.718355,1.3120226,-1.7711494,9.60275,0.90589381409350761297,-2.8443117,11.370663,2.6527755,-1.6899612,9.607623,1.0040041409350761319,-3.614646,7.674015,4.6142254,-1.6088573,9.607354,1.13168471409350761321,-5.0822916,7.9541364,4.0025067,-1.5516357,9.597694,1.28339271409350761324,-3.954024,8.866926,2.9825768,-1.5116047,9.585662,1.41440681409350761351,-2.4552538,8.233061,2.2451627,-1.447884,9.582983,1.49682151409350761351,-1.3036429,7.235876,1.7992426,-1.3344582,9.594212,1.52993641409350761356,-0.36631286,7.256227,1.8082209,-1.1779311,9.61521,1.52663971409350761377,0.47225627,8.237849,2.3822308,-1.0021404,9.6382065,1.50701081409350761378,0.87927055,8.652645,2.3092074,-0.820507,9.658112,1.48931261409350761394,0.7966706,8.470087,1.4263457,-0.6448437,9.673377,1.47659871409350761396,0.20590134,7.380127,0.40462008,-0.49289688,9.68377,1.46697991409350761408,0.025139118,6.5846534,0.1376666,-0.37522137,9.689606,1.46325891409350761436,0.23463176,6.4667387,0.4758476,-0.2739117,9.692486,1.46665371409350761438,0.10295067,6.241684,0.95947635,-0.19021669,9.690749,1.49116911409350761439,-0.29388827,5.497087,1.3563153,-0.113755204,9.684475,1.53896321409350761444,-0.22804771,5.195418,1.7142484,-0.04544658,9.674875,1.60160761409350761469,-0.1364695,5.1559134,1.9740193,0.014701712,9.663524,1.66927831409350761470,-0.049679685,5.303157,2.0931308,0.07123349,9.651155,1.73796651409350761476,0.14844051,5.5282116,2.3020248,0.124061994,9.63883,1.8022051409350761499,0.31483752,5.927445,2.5408466,0.17187195,9.627424,1.85837281409350761500,0.89543146,6.724714,2.5743654,0.21224399,9.617863,1.90317461409350761504,1.1605892,7.102998,2.35769,0.24656405,9.611244,1.93224821409350761529,1.4562732,7.4627266,2.345719,0.27080527,9.606882,1.95061211409350761531,1.5382746,7.668628,2.677316,0.2905665,9.606541,1.94945011409350761536,1.6484078,7.7147164,2.932897,0.29577196,9.609583,1.93360661409350761546,2.0386627,8.017583,3.0974984,0.28564066,9.614741,1.90933671409350761567,2.429516,8.648455,3.2513258,0.26099312,9.621337,1.8794051409350761568,2.5719712,9.443929,3.3327289,0.22314373,9.629163,1.84385971409350761577,2.3636756,10.250774,3.2267854,0.17254984,9.637826,1.80358551409350761601,2.172738,10.46745,3.265691,0.10772125,9.646888,1.7596541409350761602,2.1841104,9.61691,3.4512417,0.032757923,9.654511,1.72038471409350761605,0.91338795,10.046669,3.6170402,-0.042804684,9.658953,1.69504811409350761625,-1.5837644,14.793773,3.5954924,-0.11984175,9.660151,1.68450151409350761626,-2.0410569,15.832257,1.5023615,-0.21764235,9.659661,1.67749491409350761642,-0.55605334,13.309966,-0.4878186,-0.29672816,9.661399,1.65521871409350761645,1.4143747,12.028469,-0.54049104,-0.31023616,9.666805,1.62080561409350761659,2.815581,10.767922,1.0061632,-0.2577014,9.672574,1.5953971409350761673,4.234744,9.996989,4.458602,-0.16296895,9.67213,1.61051211409350761677,1.2569559,12.868236,6.889914,-0.027768882,9.662898,1.67272691409350761690,0.7248446,19.608511,2.7323828,0.10365736,9.649707,1.74436821409350761714,-1.4197617,17.026365,1.0301052,0.22926117,9.652274,1.71797821409350761715,-4.246715,12.333132,1.0702082,0.30261722,9.659783,1.66355231409350761717,-4.410718,10.028712,1.3317747,0.31672496,9.6615305,1.65073071409350761726,-3.968988,9.778519,2.2266076,0.28973597,9.653537,1.70167361409350761760,-4.1802764,10.336368,3.05141,0.24293081,9.640711,1.77990831409350761766,-3.8379054,10.263943,1.9027919,0.17098434,9.626949,1.86091141409350761768,-3.292626,9.821614,0.54527944,0.09701719,9.62059,1.89874281409350761798,-3.0340521,9.122507,0.59735334,0.028782442,9.619726,1.90536611409350761800,-2.645593,8.573038,0.56203884,-0.035262454,9.618018,1.91386621409350761802,-2.2523453,8.15106,0.21787235,-0.09055603,9.614847,1.92793151409350761805,-1.5969325,7.8954787,0.44771573,-0.13468714,9.614116,1.92899481409350761807,-0.46926352,8.0924015,1.0546459,-0.1738992,9.618352,1.90458631409350761843,0.22864626,8.802881,1.3557167,-0.2114087,9.626682,1.85814071409350761845,0.50517654,9.690532,1.5239093,-0.25085634,9.637015,1.79872641409350761846,0.6003461,10.191518,1.3180081,-0.2990746,9.647063,1.73641871409350761847,0.4878186,9.948506,0.88765025,-0.3561584,9.656667,1.671031409350761863,0.030526072,9.627684,0.4973954,-0.42380205,9.664895,1.60642281409350761866,-1.3628993,9.648034,0.1592144,-0.5032808,9.672162,1.53831491409350761879,-2.0805612,9.467871,-0.11611878,-0.5987309,9.678672,1.46124571409350761899,-2.5809495,9.063251,-0.55365914,-0.7049717,9.683569,1.37909521409350761901,-2.4917655,8.7951,-0.919972,-0.8164747,9.686046,1.29780581409350761905,-2.3600843,8.677185,-0.7721301,-0.92095107,9.686553,1.22185541409350761972,-2.5713725,8.475474,-0.2693477,-1.0077482,9.685808,1.15757791409350761977,-2.8095956,8.482059,0.20590134,-1.0765704,9.683623,1.11303021409350761980,-2.60968,8.356961,0.516549,-1.1352234,9.679053,1.09434311409350761985,-2.1703439,7.699154,0.79248077,-1.1898016,9.672933,1.09048241409350761988,-1.9339164,7.199963,0.6087258,-1.243883,9.664111,1.10820271409350761991,-1.7489643,7.331644,0.40701428,-1.3061755,9.653204,1.13136091409350762000,-1.8070238,7.674015,0.4782418,-1.3808697,9.641963,1.13847571409350762016,-1.846528,8.005013,0.51954174,-1.4673303,9.631353,1.11999371409350762017,-1.4939818,8.531737,0.43873745,-1.5607607,9.620788,1.08392511409350762018,-1.122282,8.625112,0.19812019,-1.6542962,9.609673,1.0430251409350762019,-0.47285482,8.853758,0.21188685,-1.7438198,9.597603,1.00773161409350762025,0.3274071,9.43495,0.5506664,-1.8247262,9.5847225,0.98684071409350762057,0.6853402,9.832388,0.9935937,-1.8892388,9.571735,0.991500561409350762059,0.79607207,9.545084,1.3850456,-1.9402859,9.557527,1.02924951409350762060,0.86490536,8.64666,1.5502456,-1.9881704,9.541609,1.08410631409350762077,0.45250413,8.222886,1.5598224,-2.0360398,9.52283,1.15784791409350762078,0.25318682,7.8212585,1.3329718,-2.0882757,9.502386,1.2305111409350762100,0.3298013,7.6985555,1.0145429,-2.1491532,9.480822,1.29055831409350762101,0.6572084,7.961918,0.9864111,-2.2167258,9.459872,1.32940271409350762105,0.7613561,8.197746,1.472434,-2.2810988,9.442026,1.34726151409350762125,0.694917,8.27496,1.8626889,-2.3358483,9.427192,1.35729671409350762126,0.3573346,8.46889,2.066196,-2.383209,9.412905,1.37403391409350762140,0.19991584,8.813056,2.3918076,-2.4283776,9.397242,1.4018631409350762166,-0.15442601,9.235633,2.0123265,-2.471354,9.380893,1.43585061409350762167,-0.6853402,9.882666,1.3700819,-2.513975,9.365168,1.46422851409350762168,-0.7104794,10.542269,0.7978677,-2.558021,9.350525,1.48141351409350762198,-0.28550854,10.796054,0.20111294,-2.5995705,9.338512,1.4848541409350762199,0.42916065,10.811616,0.30585927,-2.6363637,9.329578,1.47613171409350762200,0.26994625,10.738593,1.0097545,-2.6632807,9.324192,1.46176421409350762205,-0.7787141,10.866683,1.7471687,-2.6844606,9.3198805,1.4504831409350762227,-1.6095021,11.113884,2.0266917,-2.70426,9.314331,1.44934551409350762228,-2.1721394,11.479,2.3481133,-2.719095,9.3096075,1.45194131409350762250,-2.7449522,11.586141,2.180519,-2.722491,9.309464,1.446491409350762251,-1.6047137,10.651205,0.90620536,-2.7110908,9.315875,1.42649131409350762257,-0.7032967,11.176133,0.8655039,-2.6679854,9.333241,1.39386441409350762287,0.16400282,11.007941,0.7906851,-2.602412,9.356629,1.36064661409350762288,0.3561375,9.795278,0.2765303,-2.5106447,9.387823,1.31751941409350762290,-0.5542577,8.368932,-0.18674773,-2.4079452,9.42297,1.25692321409350762308,-1.6543933,7.5710645,-0.08559271,-2.304611,9.457698,1.18789761409350762309,-3.0723593,7.957728,0.2693477,-2.200202,9.490273,1.12436881409350762324,-5.2594624,9.898229,1.1659763,-2.0992928,9.519249,1.07110771409350762325,-7.023391,13.681665,2.131438,-2.014592,9.541404,1.03605451409350762340,-7.281366,17.28434,1.87047,-1.9495021,9.554937,1.03585931409350762355,-5.7245364,18.39525,0.2765303,-1.8813838,9.566003,1.05942731409350762359,-5.1277814,17.537527,-0.7032967,-1.7858744,9.583924,1.06274211409350762375,-5.112818,16.121956,-0.03172317,-1.6940751,9.602695,1.04343351409350762377,-4.4999022,14.239514,1.4137762,-1.6148696,9.616466,1.04220431409350762390,-3.4877534,11.993753,3.0214825,-1.5547075,9.621185,1.0890871409350762408,-4.532822,9.173983,4.280833,-1.4986581,9.618484,1.18709211409350762409,-6.1758432,9.464878,4.6501384,-1.4591043,9.609305,1.30486451409350762426,-5.057751,10.728417,3.2549171,-1.4342139,9.597944,1.41170231409350762426,-3.264494,9.071032,0.7918822,-1.3692551,9.598511,1.4710921409350762441,-1.2719196,7.6626425,1.4041992,-1.2505528,9.61474,1.47080211409350762455,-0.20590134,8.15106,2.0213048,-1.1040938,9.635253,1.45371291409350762457,0.6290765,8.355764,2.44448,-0.94656426,9.654133,1.43949331409350762471,0.85054016,8.180987,2.086547,-0.784337,9.6695595,1.43346231409350762477,0.6733692,7.3507977,1.3802572,-0.6289023,9.681851,1.42710791409350762489,0.82001406,6.8881183,0.98461545,-0.4947546,9.690376,1.42204761409350762515,1.2360066,7.2286935,0.9283517,-0.38504675,9.695342,1.4221361409350762516,1.0570401,7.1059904,0.84216046,-0.29151246,9.696418,1.43697051409350762518,0.25737667,6.085462,0.90261406,-0.20877635,9.693206,1.47260531409350762525,-0.16879122,5.410896,1.1839328,-0.14213176,9.686096,1.5263521409350762547,-0.17776948,4.9494133,1.4700398,-0.092392966,9.676535,1.58951141409350762548,-0.017956512,4.6046486,1.5173253,-0.050168637,9.665405,1.65765261409350762557,0.15322891,4.494515,1.4395138,-0.009475831,9.653933,1.7239141409350762574,0.17417817,4.373608,1.4891934,0.029577173,9.643164,1.78294551409350762578,0.40342298,4.5022964,1.6843209,0.064664565,9.633715,1.83241361409350762590,0.6925228,4.735731,2.1811178,0.09910488,9.624862,1.87686361409350762611,0.7846996,4.8548427,2.8700492,0.12844598,9.618124,1.90933911409350762612,0.9103952,5.1768627,3.277662,0.15018326,9.614162,1.92761711409350762617,1.9692309,7.4525514,2.7659016,0.16092487,9.614006,1.92753291409350762650,2.509722,8.917204,2.871845,0.16606954,9.619457,1.89970791409350762652,2.6431987,9.760562,3.4889505,0.1618509,9.628902,1.85160351409350762653,2.8634653,10.125079,3.1202433,0.14371523,9.638606,1.8019531409350762657,3.0496144,10.530297,2.7365725,0.11315935,9.647869,1.75391411409350762680,2.9861681,10.787674,2.996942,0.07520824,9.656764,1.70635681409350762681,2.700061,10.784681,3.192668,0.036801353,9.664002,1.66616391409350762685,1.1534066,12.899959,3.9414546,0.005402444,9.668917,1.63781631409350762714,-0.85473,15.889119,3.66253,-0.029838236,9.671728,1.62086521409350762716,-0.7661445,15.074492,1.7717092,-0.0723793,9.674406,1.60344761409350762719,0.75357497,13.778631,0.26994625,-0.091625124,9.679942,1.5686681409350762725,2.344522,12.631209,0.55605334,-0.06294731,9.686399,1.52974361409350762750,3.9324763,10.967838,2.5127146,0.013282968,9.687111,1.5264691409350762751,4.882974,10.45907,5.7748146,0.12646526,9.676269,1.58877911409350762757,2.8975825,13.694834,10.076596,0.27279475,9.652486,1.71040231409350762775,0.29448682,18.996794,7.394492,0.4200847,9.615494,1.88048121409350762795,-2.5659857,19.608511,1.8447324,0.52189815,9.591992,1.9727351409350762797,-5.081693,16.71093,0.26515785,0.55923843,9.594359,1.95087641409350762798,-5.5976434,12.794614,-0.9600749,0.5538619,9.600799,1.92049811409350762806,-4.5681367,8.420407,2.1134815,0.52939284,9.600281,1.9299581409350762835,-4.2957964,8.692748,3.4446578,0.49117857,9.580151,2.03711841409350762838,-3.8672342,8.824429,2.3906105,0.41488194,9.554269,2.1712311409350762839,-3.241749,8.81605,1.3826514,0.33349603,9.537853,2.2557771409350762859,-2.8975825,8.814852,1.5310919,0.26567617,9.534963,2.27690581409350762861,-2.4594438,8.98484,1.1911154,0.20973523,9.538777,2.2667461409350762866,-1.8112136,9.11712,0.6194997,0.1645438,9.544353,2.24692081409350762890,-0.8038532,9.118318,0.4177882,0.12471052,9.552337,2.2153311409350762895,0.08559271,9.021951,0.3842694,0.08438816,9.564681,2.16336421409350762916,0.25318682,9.176975,0.1340753,0.041207626,9.580363,2.09411931409350762918,0.076015905,9.726444,0.0796072,-0.00860124,9.596894,2.01741481409350762919,-0.025139118,10.317812,0.29328972,-0.063924775,9.613671,1.93485161409350762928,0.07062895,10.287286,0.39384618,-0.13121961,9.62839,1.85667661409350762948,-0.108337626,9.919178,0.32621,-0.20921485,9.639659,1.78985871409350762949,-0.5602432,9.902418,0.516549,-0.29781786,9.64804,1.73119431409350762977,-0.96905315,9.96347,0.93852705,-0.39726987,9.6549835,1.67148241409350762979,-1.4826094,9.820416,1.2276269,-0.5030916,9.660671,1.60896031409350762980,-1.858499,9.539098,1.0031705,-0.6096069,9.664133,1.55025791409350762986,-2.0961237,8.941146,0.50038815,-0.7131433,9.6654625,1.49688981409350763015,-1.7274165,7.796119,0.3585317,-0.8112597,9.665131,1.44827221409350763017,-1.5993267,7.575853,0.39683893,-0.8947354,9.663743,1.4078041409350763020,-1.3060371,7.65127,0.6476316,-0.96773255,9.661814,1.37231481409350763026,-1.4371196,7.826047,1.0384849,-1.0206785,9.659878,1.34735811409350763053,-1.377863,7.844003,1.1324574,-1.0624818,9.656925,1.33616391409350763054,-1.2419921,7.9966335,0.842759,-1.1060475,9.651923,1.33694651409350763057,-1.3491327,7.9385743,0.24779987,-1.1634704,9.64526,1.33629481409350763073,-1.5185224,7.78355,-0.1328782,-1.2423921,9.638468,1.31407541409350763103,-1.6825253,7.755418,-0.1921347,-1.3422605,9.631568,1.26556651409350763105,-1.4562732,7.8954787,0.07062895,-1.4556402,9.623186,1.20240251409350763108,-0.8499416,8.169615,0.40222588,-1.5681944,9.612713,1.14321031409350763113,-0.20231004,8.682572,0.760159,-1.6705085,9.600443,1.10059391409350763140,0.50637364,8.968679,0.96665895,-1.7626678,9.58727,1.07128371409350763144,0.84575176,8.995614,1.1318588,-1.8421093,9.57297,1.06550341409350763148,0.5967548,8.604162,1.3204023,-1.9126033,9.557074,1.08384221409350763182,0.5823896,8.521563,1.2617443,-1.9835389,9.537753,1.12571971409350763183,0.4189853,8.694544,1.122282,-2.0536127,9.516403,1.17947341409350763184,0.23163901,8.878299,0.9552865,-2.1200423,9.495525,1.2291591409350763185,0.21068975,8.879496,0.8996213,-2.1830328,9.476068,1.26843121409350763194,0.8655039,9.097966,1.0803835,-2.2434032,9.457805,1.29903151409350763231,0.99060094,9.344569,1.4095862,-2.2927287,9.442496,1.32402921409350763233,0.7793127,9.519346,2.134431,-2.3309019,9.429491,1.34981191409350763234,0.14425065,9.619304,2.44029,-2.3583915,9.417329,1.38647371409350763235,-0.842759,9.648034,2.235586,-2.3852785,9.4039755,1.43041161409350763238,-1.5053543,9.321824,1.7579426,-2.4133027,9.388913,1.48144511409350763255,-1.4862007,8.8088665,0.89064306,-2.4446445,9.372571,1.53264741409350763270,-0.7966706,8.578424,0.27234045,-2.4790044,9.356694,1.57392171409350763271,0.1921347,8.871715,0.6374562,-2.5141964,9.343135,1.59845051409350763286,0.11492168,9.826403,1.1145009,-2.5441854,9.333713,1.60602651409350763287,-0.4165911,10.724228,1.5251064,-2.5699313,9.327428,1.60154151409350763304,-1.1528081,11.2210245,1.6573862,-2.591391,9.322711,1.59440911409350763306,-1.8363527,11.724405,1.7040731,-2.6077175,9.319575,1.58610021409350763322,-2.1308396,11.841722,1.8052281,-2.6139836,9.320285,1.57155141409350763337,-1.9165585,11.249157,1.3239936,-2.6059778,9.3264475,1.54810741409350763338,-1.0205284,10.69849,0.6703765,-2.5888474,9.336204,1.51775671409350763352,-0.3788824,11.048642,1.2509704,-2.5453956,9.354481,1.47818521409350763359,0.15263036,11.890204,1.5705963,-2.4767551,9.379041,1.4386441409350763370,0.12509704,12.151771,1.0402806,-2.389182,9.408307,1.39497961409350763386,-1.5891514,10.076596,-0.11791443,-2.2953024,9.439665,1.33966161409350763387,-2.2296004,8.645462,-0.47644615,-2.2179596,9.467665,1.27057351409350763414,-3.091513,7.8583684,-0.6386533,-2.1396618,9.495495,1.19491711409350763415,-4.495114,8.4647,-0.05925649,-2.0599773,9.522546,1.11713651409350763418,-5.9567738,10.854114,0.91817635,-1.9884247,9.544793,1.05523381409350763443,-7.017405,14.821305,1.6124948,-1.9302593,9.559669,1.02822261409350763445,-7.0251865,18.126501,1.5286977,-1.883761,9.569429,1.02366271409350763447,-5.796961,18.38328,0.99060094,-1.8291358,9.578274,1.03986381409350763458,-4.6740804,16.206352,1.3862427,-1.7472533,9.590834,1.0646261409350763479,-3.743933,13.643358,1.887828,-1.6511773,9.602921,1.10812441409350763514,-3.0855274,11.361684,2.5600002,-1.4389652,9.602959,1.37220791409350763516,-3.0250738,9.987412,3.441665,-1.4389652,9.602959,1.37220791409350763519,-4.0659533,9.218874,3.7104142,-1.4389652,9.602959,1.37220791409350763521,-5.133168,8.954913,3.1872811,-1.4057188,9.594448,1.46319851409350763523,-4.633379,9.31943,2.3355439,-1.3714529,9.590229,1.5221781409350763546,-3.233968,8.59279,1.690905,-1.3045688,9.596041,1.544181409350763547,-2.3355439,7.2328835,1.4449008,-1.1927849,9.611512,1.53834181409350763548,-1.1061212,6.899491,1.5185224,-1.0644172,9.629178,1.52195421409350763569,-0.040102877,7.317279,1.8806454,-0.91633147,9.647977,1.49909291409350763570,1.2000936,8.647857,1.7082629,-0.7589944,9.664694,1.47919991409350763587,0.9379285,7.797915,0.6901286,-0.598295,9.678338,1.46363351409350763588,0.3537433,6.47033,0.3345897,-0.46169686,9.687569,1.45198271409350763618,0.32142156,6.1662664,0.85054016,-0.3609326,9.691519,1.45415841409350763620,0.45010993,6.18961,1.3545196,-0.2882977,9.69038,1.47777071409350763621,0.15502456,5.644929,1.5981296,-0.22940603,9.684955,1.52296541409350763644,0.049679685,5.269638,1.8309658,-0.17690709,9.676554,1.58221361409350763646,0.09756372,5.1487308,2.0608091,-0.13136916,9.66672,1.6454941409350763647,0.17956513,5.009867,2.1110873,-0.090243176,9.65606,1.70960841409350763672,0.219668,4.985925,2.0608091,-0.049794156,9.645269,1.77107441409350763673,0.22505496,5.133767,1.9422961,-0.012061426,9.635025,1.82661691409350763687,0.3728969,5.353435,1.9177556,0.020505449,9.626065,1.87318981409350763688,0.55485624,5.719748,2.042254,0.047594767,9.619214,1.90757491409350763710,0.6847417,6.0585275,2.204461,0.069493264,9.615356,1.92626441409350763711,0.8026561,6.5020533,2.4762032,0.08593824,9.614787,1.92843711409350763718,0.94331545,7.023989,2.7976246,0.09472265,9.61726,1.91565841409350763746,1.2126632,7.741651,2.9741971,0.09375527,9.62234,1.89002181409350763748,1.5711949,8.630499,2.9819782,0.082053944,9.629777,1.85230661409350763750,1.8884265,9.495404,3.0071173,0.059670992,9.638881,1.8052171409350763794,2.2212207,10.839149,3.1489737,0.03469342,9.648077,1.75607221409350763795,2.2403743,10.882844,3.079542,0.003172493,9.656836,1.7076071409350763796,1.8447324,10.460866,3.015497,-0.03450915,9.664304,1.66446291409350763798,0.1400608,11.794436,3.4093432,-0.07622049,9.669817,1.63071321409350763801,-1.8411411,15.059528,3.4997244,-0.12752835,9.672696,1.61029651409350763807,-1.9195513,14.840459,1.8818425,-0.19560711,9.6739025,1.59615861409350763833,-0.54288524,13.656527,0.14065935,-0.24705257,9.676912,1.57057521409350763835,1.146224,12.448651,-0.38367084,-0.24866234,9.682692,1.53429161409350763839,2.7407625,10.901399,0.75836337,-0.19698367,9.687468,1.51147191409350763862,4.1066546,9.3661175,3.2225955,-0.107063,9.684682,1.53813491409350763864,4.559757,10.034698,7.1311297,0.015660876,9.671912,1.61995631409350763867,2.754529,14.147338,10.092757,0.16805045,9.647876,1.74947231409350763893,0.943914,19.2003,7.1526775,0.32908103,9.613344,1.90937641409350763894,-1.1234791,19.482218,2.3361423,0.4685726,9.592953,1.9814411409350763899,-3.481768,16.065693,1.3323733,0.55680704,9.594692,1.94993461409350763909,-3.7565024,12.385804,0.34596214,0.5859236,9.597762,1.92615221409350763930,-3.1783028,10.1304655,0.5291186,0.583226,9.592063,1.95514211409350763931,-3.301604,9.36911,2.6018987,0.5502789,9.575782,2.04254871409350763939,-3.3746274,9.849147,3.493739,0.4779626,9.556162,2.1498231409350763967,-2.9753942,9.564836,1.0893618,0.38398474,9.543968,2.22162871409350763969,-2.9227216,9.293094,0.961272,0.29416737,9.54585,2.22724581409350763970,-2.5558102,9.093178,0.78888947,0.20877872,9.550452,2.21713381409350763999,-2.0536265,8.618527,0.6404489,0.13630766,9.555706,2.20006321409350763999,-1.1893197,8.160637,0.7733272,0.073401995,9.559475,2.1866491409350764000,0.009576807,7.912238,0.93732995,0.020407997,9.565315,2.16210631409350764024,0.75118077,8.066066,0.9744401,-0.030379064,9.575587,2.1160271409350764025,0.96306765,8.610147,1.0594343,-0.08181962,9.589408,2.05108141409350764027,1.0486604,9.408614,1.3210008,-0.1364434,9.60424,1.97746321409350764070,1.2802993,9.622296,1.3437457,-0.19679034,9.61759,1.90621131409350764071,1.3455414,9.267955,0.9271546,-0.26238567,9.6289015,1.84005921409350764073,0.9935937,9.198523,0.54408234,-0.33350855,9.639975,1.76918881409350764075,0.3776853,9.495404,0.6703765,-0.412999,9.652177,1.68384041409350764098,-0.4165911,9.577405,0.88525605,-0.4997617,9.663282,1.59423381409350764099,-1.2443863,9.083003,0.6338649,-0.5931662,9.671931,1.50741591409350764101,-1.8088194,8.413823,0.18734628,-0.6901128,9.676711,1.43366441409350764121,-2.1290438,7.788338,-0.22984336,-0.78554386,9.677849,1.37570271409350764122,-2.2828712,7.41185,-0.11971009,-0.8722992,9.676633,1.33126561409350764140,-2.5558102,7.619547,0.7517793,-0.9450123,9.673872,1.30136731409350764141,-2.7383683,8.5383215,1.0229226,-1.0066518,9.669202,1.28979731409350764147,-2.4265234,8.311471,0.717662,-1.066372,9.66257,1.29149941409350764170,-2.2655134,7.905654,0.074818805,-1.1298593,9.654247,1.29973651409350764171,-2.384625,7.8009076,-0.13227965,-1.2046527,9.645355,1.29858211409350764185,-2.3110032,8.604162,-0.04070143,-1.2932723,9.637195,1.27370661409350764187,-2.195483,8.870518,0.02813187,-1.3859535,9.629178,1.23630061409350764210,-1.6915035,8.717288,-0.078410104,-1.4819188,9.621548,1.18326821409350764212,-1.0570401,8.714894,-0.10414778,-1.5733957,9.6137705,1.12704421409350764221,-0.3172317,9.31105,0.3597288,-1.6577355,9.605233,1.07786481409350764254,-0.04070143,9.366715,0.76554596,-1.7292845,9.595817,1.04894151409350764259,0.23523031,9.482835,1.0265139,-1.789211,9.584869,1.04853361409350764261,0.22505496,9.610326,1.2180501,-1.8400131,9.57244,1.07384161409350764293,0.27832595,9.705495,1.2234371,-1.8872149,9.558091,1.11879421409350764297,0.16639702,9.556456,0.8391677,-1.9348391,9.542157,1.17219841409350764298,-0.009576807,9.223063,0.3609259,-1.9873362,9.525652,1.21772861409350764299,0.12150574,8.895058,0.11372458,-2.0466478,9.5085,1.25302731409350764300,0.5422867,8.732252,0.33877954,-2.107554,9.491903,1.27764861409350764319,0.84335756,8.666411,0.97623575,-2.1633713,9.47603,1.30194011409350764320,0.8631097,8.562862,2.420538,-2.2105026,9.460709,1.33382641409350764336,0.5434838,8.14687,2.6509798,-2.2507138,9.444053,1.3836681409350764351,0.02932897,8.131308,2.6850972,-2.289885,9.426194,1.44002881409350764352,-0.5410896,8.378509,2.5210943,-2.3295336,9.407792,1.49570561409350764370,-0.84096336,8.71669,1.9009962,-2.3695328,9.390134,1.54308761409350764371,-0.46806642,9.085996,0.9947908,-2.4101956,9.373937,1.5781911409350764392,0.20231004,9.582193,0.66498953,-2.4483285,9.360508,1.59905611409350764392,0.08200141,10.320207,1.1492168,-2.4803798,9.351433,1.60274671409350764401,-0.51595044,10.855909,1.7944542,-2.510072,9.344231,1.5985191409350764419,-1.1252748,11.174338,1.9548657,-2.5375388,9.3388,1.58685711409350764419,-1.7345991,11.513716,1.8860323,-2.560413,9.33531,1.57056191409350764445,-2.1625626,11.583746,1.9339164,-2.574189,9.335982,1.54382531409350764446,-1.8746599,11.282676,1.4544775,-2.5749075,9.342193,1.50454831409350764447,-0.97623575,11.376049,1.3066356,-2.5542893,9.355333,1.45730141409350764469,0.007781155,12.23437,2.106299,-2.5029542,9.37612,1.41208281409350764470,0.5758055,12.634202,2.0913353,-2.420094,9.403629,1.37306121409350764487,0.19153613,11.81778,1.1779473,-2.3197176,9.43555,1.3265381409350764489,-0.9648633,10.378864,0.3878607,-2.2227783,9.467655,1.26220431409350764506,-2.2631192,9.193136,0.19393034,-2.138794,9.496518,1.18833481409350764507,-5.3007627,9.461885,-0.16101007,-2.067683,9.52128,1.11368021409350764521,-6.9132576,11.508927,-0.12330139,-2.021929,9.539297,1.04117441409350764545,-7.835025,14.513052,-0.5291186,-1.9975364,9.551537,0.973856751409350764546,-7.6201453,17.00362,-1.1306617,-1.9861165,9.560006,0.912155751409350764548,-6.5068417,17.405249,-0.96905315,-1.9598289,9.570509,0.857225361409350764575,-5.6108117,16.120758,0.2693477,-1.8993508,9.585323,0.82729841409350764576,-4.421492,13.821128,1.6011224,-1.8174659,9.599069,0.851533831409350764581,-3.1387985,10.818799,2.6970682,-1.7287676,9.607389,0.93800571409350764587,-2.7371712,9.496002,3.9803603,-1.6419162,9.609142,1.06718851409350764608,-3.8325183,8.907029,4.4460325,-1.5643668,9.604717,1.2134891409350764610,-4.887164,8.754997,3.7283707,-1.5030297,9.59529,1.35709561409350764619,-4.132392,9.42238,2.758719,-1.4507201,9.586916,1.46862231409350764636,-3.240552,8.247426,2.0416555,-1.3790132,9.587117,1.5349031409350764654,-2.1751323,7.1431007,1.7022774,-1.2703203,9.5978365,1.56148711409350764655,-1.2324153,7.0646906,1.6801311,-1.1318883,9.615107,1.56170571409350764670,-0.6775591,7.474099,1.7585411,-0.98083127,9.63335,1.55142221409350764671,-0.18734628,7.7907324,1.7441759,-0.8269459,9.649924,1.53803151409350764685,0.30585927,8.503606,1.5107412,-0.67930853,9.663577,1.52454361409350764687,0.18495208,8.5143795,0.96187055,-0.5405923,9.6735115,1.51701441409350764703,-0.08379706,7.297527,0.7230489,-0.41804737,9.679136,1.51985221409350764716,0.018555064,6.947375,0.777517,-0.31439263,9.680009,1.53914561409350764719,0.14185645,6.609194,0.98341835,-0.21844175,9.67801,1.56805721409350764731,0.05805939,6.0531406,1.2689269,-0.13207974,9.671868,1.61490541409350764748,0.26156655,5.843049,1.6400281,-0.054512,9.662374,1.67509771409350764748,0.6290765,5.8532248,2.1493945,0.01560067,9.650389,1.74359551409350764765,0.83497787,5.783793,2.372654,0.0796448,9.636706,1.81602481409350764767,0.997185,5.839458,2.3277626,0.1375669,9.62241,1.88698281409350764782,1.0630256,5.884948,2.088941,0.18690093,9.608985,1.95009241409350764787,1.0839748,5.741296,1.9033904,0.22596782,9.597982,1.99952381409350764807,1.1683705,5.7377043,1.9722236,0.25348464,9.590514,2.03179171409350764808,1.1994951,5.743091,2.0548236,0.26965863,9.586667,2.04780131409350764820,1.2108675,5.8634,2.3948002,0.27475658,9.585979,2.0503451409350764840,1.3150153,6.3284736,3.0041246,0.2745156,9.586398,2.0484151409350764842,1.5556326,7.012018,3.2231941,0.26177388,9.588883,2.03842781409350764847,1.7112557,7.7224975,3.1956608,0.23715635,9.593683,2.01876261409350764870,1.697489,8.4904375,3.4374752,0.19936803,9.600897,1.98832431409350764871,1.6861166,9.269152,3.5613751,0.14851236,9.609006,1.95329271409350764887,1.8118122,10.029909,3.5715504,0.08989585,9.616454,1.91993581409350764888,0.6548142,10.340557,3.2998085,0.032203063,9.622251,1.89252821409350764899,-1.3497312,12.629414,3.675698,-0.030038873,9.6264105,1.87129371409350764919,-1.75076,13.992313,3.0556,-0.10404384,9.62758,1.86260071409350764920,-0.7194576,13.391967,1.6657659,-0.16748782,9.627007,1.86093531409350764933,0.84096336,11.563994,0.6925228,-0.20434824,9.627778,1.85324721409350764954,2.5833437,11.19409,1.3467385,-0.17988132,9.628932,1.84978681409350764956,4.018069,10.600926,2.7814639,-0.09587054,9.628219,1.85973821409350764959,4.5807066,9.555259,5.0212393,0.029402182,9.619582,1.90608851409350764968,3.9612067,10.350134,8.514978,0.18002513,9.600565,1.99176011409350764990,1.5358804,16.003443,10.647614,0.34570876,9.571565,2.1061951409350764995,-0.10175357,19.608511,6.0124393,0.4879013,9.538784,2.22349791409350765000,-1.4257472,18.623299,0.7721301,0.5845345,9.530685,2.23489741409350765025,-3.6924577,14.303559,1.3000516,0.6315816,9.540937,2.17761351409350765026,-3.8181531,11.727997,0.98461545,0.6261195,9.542665,2.17161631409350765028,-3.0322564,11.285668,1.1749545,0.60363305,9.534423,2.21377041409350765054,-2.823961,11.517307,2.4127567,0.5771281,9.521992,2.27353951409350765056,-2.7204118,11.1073,1.9189527,0.52675647,9.508789,2.34005331409350765063,-2.8018146,10.159196,1.2012907,0.45762512,9.50446,2.37196351409350765068,-2.8125885,9.6923275,1.0289081,0.38460758,9.508557,2.36850431409350765088,-2.1350293,9.114127,1.0175357,0.3143274,9.514923,2.35326051409350765089,-1.8764555,9.1829605,0.9127894,0.2571021,9.520067,2.33935951409350765100,-1.1043255,9.214684,1.0139444,0.20623164,9.527138,2.31549881409350765124,0.061052144,9.257779,0.9684546,0.15681626,9.538492,2.2722151409350765125,0.7769185,9.36492,0.82599956,0.106824845,9.553527,2.21113541409350765128,0.85532856,9.408015,0.8002619,0.053145025,9.569803,2.1416031409350765157,0.7344214,9.485827,0.8230068,-0.009174875,9.584565,2.07518961409350765158,0.65062433,9.574412,0.85532856,-0.08141776,9.597661,2.01213121409350765160,0.55844754,9.683349,1.033098,-0.1629997,9.609041,1.95196061409350765168,0.25019407,9.8683,1.1713632,-0.25572038,9.619737,1.88830271409350765189,-0.31124622,9.807249,1.0432734,-0.35831374,9.629997,1.81800811409350765190,-0.7739257,9.266159,0.88405895,-0.4700131,9.639078,1.74288541409350765200,-1.0175357,8.659229,0.6356605,-0.58469504,9.645695,1.67006971409350765219,-1.2216414,8.124125,0.4213795,-0.6969009,9.649169,1.60570041409350765221,-1.4736311,7.721899,0.05686229,-0.80286896,9.6492815,1.55472081409350765241,-1.8273745,7.7374616,0.2813187,-0.9023098,9.646899,1.51445191409350765244,-2.5498247,8.009802,0.61411273,-0.9957351,9.642098,1.48620951409350765248,-2.834735,8.095394,0.7320272,-1.0908102,9.635028,1.46518661409350765271,-2.8215668,7.707534,0.52732295,-1.1862926,9.62543,1.45403221409350765272,-2.6324248,7.4483614,-0.32202014,-1.2849549,9.614043,1.44549051409350765280,-2.618658,7.6728177,-0.3633201,-1.390466,9.6027355,1.42285031409350765310,-2.5264814,7.941567,-0.27832595,-1.5032597,9.591584,1.38279121409350765313,-1.9111716,8.240244,-0.062249243,-1.616249,9.580454,1.33155321409350765315,-1.1228806,8.57184,0.1328782,-1.7216182,9.569032,1.28063731409350765321,-0.32800564,8.696938,0.32561144,-1.8123016,9.557873,1.23815941409350765351,0.28191724,8.953716,0.57999533,-1.885599,9.5472555,1.21030161409350765352,0.6727707,9.191938,0.99778354,-1.9447175,9.536672,1.2001551409350765353,1.1097125,9.272743,1.4526819,-1.9949472,9.525105,1.20951381409350765369,1.3617022,9.16261,1.6944963,-2.038578,9.512983,1.23197051409350765370,1.3437457,8.804677,1.5628152,-2.0769897,9.499201,1.27346341409350765383,1.3652935,8.497022,1.3461399,-2.1144595,9.484396,1.32125681409350765398,1.3126211,8.293514,1.2934675,-2.1533687,9.469701,1.36314891409350765400,1.1492168,8.274361,1.258153,-2.1930194,9.455927,1.39517081409350765416,1.0893618,8.36175,1.2617443,-2.2326183,9.443056,1.41933081409350765431,1.0217255,8.623316,1.5747862,-2.2696967,9.430991,1.44058171409350765432,0.84575176,8.877101,1.8914193,-2.3018942,9.419433,1.46491241409350765448,0.55365914,8.884284,2.2541409,-2.329846,9.408012,1.49382231409350765449,0.076614454,8.690952,2.3475149,-2.3577998,9.395591,1.52776371409350765460,-1.6238673,8.619126,1.9812019,-2.3901339,9.381926,1.56113231409350765468,-1.8447324,8.704719,1.2964603,-2.437017,9.3651905,1.5888761409350765482,-1.3120226,8.872911,0.5967548,-2.4885144,9.348609,1.60661521409350765498,-0.34117374,9.457695,0.7697359,-2.5398066,9.33429,1.60959791409350765500,-0.06464344,10.594342,1.1623849,-2.5816479,9.3245735,1.59931561409350765514,-0.073023155,11.300034,1.4167689,-2.6119697,9.320051,1.5762791409350765529,-0.2753332,11.568184,1.4407109,-2.6309524,9.31859,1.55316941409350765530,-0.57999533,11.745954,1.3174095,-2.6396785,9.318636,1.53801921409350765548,-0.95708215,11.867459,1.6262615,-2.636572,9.322078,1.52241061409350765549,-1.1558008,12.035053,2.1936872,-2.6207736,9.330069,1.5005871409350765565,-0.99898064,11.994352,2.204461,-2.5903206,9.342409,1.47651409350765568,-0.8206126,12.011111,1.7860745,-2.5502803,9.357044,1.45333831409350765597,-0.45729253,12.348694,1.644218,-2.4912763,9.3760395,1.43312381409350765598,-0.35913026,12.242152,0.92057055,-2.4128904,9.399491,1.41347681409350765614,-0.9648633,11.097125,-0.34715924,-2.3262424,9.42685,1.37605231409350765615,-2.0745757,9.928156,-0.94570965,-2.2458844,9.455324,1.3127211409350765630,-3.4165258,8.854955,-0.7368156,-2.176914,9.48129,1.23958861409350765631,-4.734534,8.412027,-0.41180268,-2.1208365,9.502032,1.17636261409350765654,-7.5112095,9.348759,0.04189853,-2.0780182,9.517229,1.12896551409350765655,-8.264784,15.039777,-0.15801731,-2.0630937,9.524089,1.0980841409350765661,-7.7494326,16.795324,-0.17178397,-2.0553982,9.528808,1.07123341409350765669,-6.3769565,16.847998,0.4818331,-2.0244699,9.536716,1.0596951409350765691,-5.120599,15.338453,1.4395138,-1.9610082,9.548495,1.07288411409350765692,-4.159327,12.832921,2.167351,-1.8681586,9.562133,1.1162481409350765700,-3.9576154,11.173141,3.2399535,-1.7667207,9.5722475,1.19212541409350765720,-4.670489,10.292074,3.764882,-1.6814861,9.574441,1.29348671409350765721,-4.8895583,9.731233,3.229778,-1.6244334,9.56936,1.39963651409350765728,-3.9522285,9.671378,2.2876596,-1.576526,9.564408,1.48562091409350765755,-3.2184057,8.799889,1.6687586,-1.5052811,9.567895,1.53620121409350765757,-2.3409307,7.8128786,1.5101427,-1.4001426,9.580715,1.55560391409350765760,-1.2401965,7.350199,1.6825253,-1.2685441,9.598981,1.55588271409350765785,-0.22864626,7.5225816,2.0189106,-1.1184498,9.618705,1.54919051409350765787,0.7074866,8.552687,2.3882163,-0.9562812,9.637281,1.54230891409350765789,1.3958195,9.051878,2.224812,-0.7865416,9.653678,1.53566771409350765800,1.3162124,8.732252,1.5412674,-0.6200247,9.667145,1.5271711409350765812,0.79726917,7.764396,0.8984242,-0.47652128,9.676777,1.51766091409350765830,0.42317516,6.8641763,0.74758947,-0.36625266,9.683689,1.50413261409350765831,0.15502456,6.3823433,0.94451255,-0.28235266,9.684553,1.51660751409350765850,-0.14544775,6.2003837,1.0103531,-0.21444567,9.681044,1.54977211409350765852,-0.13946225,5.774216,1.1701661,-0.15701361,9.673877,1.600571409350765870,0.08439561,5.466561,1.4137762,-0.10844503,9.664039,1.66282921409350765872,0.36032736,5.2444987,1.5807717,-0.06646292,9.652526,1.73052261409350765880,0.5590461,5.1613,1.5628152,-0.028629152,9.640212,1.79886271409350765901,0.6464345,5.2235494,1.513734,0.008022271,9.627471,1.8660441409350765902,0.7218518,5.336077,1.6256629,0.039643005,9.615202,1.927881409350765914,0.7799112,5.3540335,1.9357121,0.06528934,9.604181,1.98136911409350765928,0.7062895,5.4605756,2.285864,0.08380364,9.59518,2.02383231409350765929,0.5979519,5.7544637,2.7832594,0.094452016,9.5887985,2.05339151409350765944,0.6194997,6.337452,3.4913447,0.09568945,9.585385,2.06921341409350765948,0.83737206,7.1586633,3.7128084,0.08670827,9.584988,2.07144331409350765965,1.1815386,8.039131,3.3662477,0.06772373,9.588359,2.0565041409350765979,1.3844471,9.012374,3.1172507,0.037835225,9.596109,2.02080441409350765980,1.5436616,9.946113,3.1004913,-0.003686726,9.606102,1.97311331409350765995,1.745373,10.587758,3.2064347,-0.053478345,9.615028,1.92840431409350766002,1.8794483,10.737396,3.25372,-0.10155279,9.622113,1.89077461409350766018,1.62686,10.550649,3.1184478,-0.14936332,9.625487,1.87031921409350766021,-1.0899603,14.194025,3.3608606,-0.19358225,9.626058,1.86331841409350766029,-1.0953473,14.13836,2.0458453,-0.25368002,9.624825,1.86247271409350766053,0.010773907,12.61445,0.8535329,-0.29169324,9.625601,1.85287011409350766054,1.4496891,12.037448,0.88944596,-0.28350496,9.628513,1.83895551409350766061,3.0005333,10.763732,1.7663223,-0.22616293,9.630722,1.83533621409350766089,3.9474401,9.600749,3.964798,-0.1315601,9.626529,1.86628541409350766091,2.944868,11.554418,8.859145,-0.010985505,9.612795,1.94022231409350766092,0.3345897,17.279552,9.956886,0.12859613,9.584168,2.07306361409350766101,-0.99299514,19.608511,3.9282866,0.24894246,9.549582,2.21673271409350766123,-3.1705215,17.961899,-0.1412579,0.35063758,9.542191,2.23473641409350766124,-4.3688197,13.408727,-0.4854244,0.41076282,9.552231,2.18095061409350766129,-4.128801,10.361506,0.676362,0.43307373,9.558166,2.15042331409350766163,-3.4925418,9.411607,2.8562827,0.42008784,9.547351,2.20045731409350766165,-3.0855274,9.428367,3.8073792,0.37812677,9.52158,2.31665731409350766172,-2.5510218,9.780912,2.586935,0.3189746,9.497894,2.42046261409350766201,-2.134431,9.482835,1.5514427,0.2577236,9.491024,2.4544711409350766202,-2.0147207,9.078813,1.484405,0.20286374,9.497698,2.43372251409350766204,-2.0278888,8.848371,1.3299791,0.15814781,9.506925,2.40078971409350766205,-1.6154876,8.913014,0.8822633,0.12183453,9.516318,2.36542631409350766209,0.32202014,9.236232,1.2886791,0.09152473,9.527492,2.32140871409350766232,1.0702082,9.619304,1.3521254,0.06916443,9.542725,2.2587691409350766233,1.2653356,10.0748005,1.1845313,0.044739746,9.562556,2.17391541409350766253,0.9708488,10.549451,0.9463082,0.01328969,9.584898,2.07363221409350766254,0.6476316,10.645219,0.6338649,-0.033399288,9.606643,1.97020231409350766263,0.4866215,10.4728365,0.39803603,-0.098501585,9.625616,1.87302671409350766285,0.049081136,10.241198,0.3196259,-0.17882483,9.641346,1.78405671409350766287,-0.49200845,10.041282,0.27593175,-0.27141428,9.654239,1.70071731409350766289,-1.0654198,9.574412,0.15622166,-0.37364277,9.664766,1.61960031409350766318,-1.7471687,8.9279785,0.11552023,-0.48214144,9.672374,1.54374681409350766320,-2.1733365,8.343793,0.073621705,-0.59339905,9.676387,1.47845461409350766325,-2.4025815,7.728483,0.1448492,-0.70471156,9.677663,1.42007841409350766330,-2.2104468,7.425018,0.30585927,-0.80843323,9.675628,1.37806941409350766373,-2.220622,7.5968018,0.56563014,-0.89683694,9.671535,1.35185361409350766375,-2.6360161,8.104373,0.9816227,-0.9707304,9.666395,1.33748721409350766377,-2.7563248,8.198944,0.9708488,-1.0402876,9.659788,1.33292271409350766378,-2.6192567,7.8266454,0.427365,-1.1147783,9.651535,1.33248721409350766386,-2.6420016,7.550115,-0.110133275,-1.1988351,9.642869,1.32221951409350766425,-2.6677392,7.4226236,-0.6410475,-1.2966186,9.634414,1.29122351409350766428,-2.4115596,7.6410947,-0.31004912,-1.4047925,9.625899,1.24056941409350766431,-2.0242975,7.6811976,0.04309563,-1.5157955,9.615889,1.18636021409350766437,-1.4329298,7.727885,0.39264908,-1.6239183,9.604071,1.13802551409350766440,-0.8858546,7.7667904,0.6422446,-1.7269467,9.590207,1.10271351409350766461,-0.4854244,8.238448,0.93972415,-1.8226969,9.574563,1.08440031409350766462,-0.32202014,8.801085,1.2904748,-1.9097817,9.557824,1.08218851409350766463,-0.17118542,9.084799,1.4879963,-1.9868481,9.540454,1.09662151409350766484,-0.1328782,9.327211,1.4838065,-2.0548828,9.522517,1.1267421409350766486,-0.09935937,9.336788,1.1324574,-2.1176808,9.504168,1.16474461409350766489,-0.013766659,9.346365,0.60573304,-2.1816864,9.485568,1.19777541409350766515,0.19752164,9.411607,0.27114335,-2.2486124,9.467559,1.21633981409350766517,0.5662287,9.473856,0.42197806,-2.3147104,9.450828,1.22244811409350766531,0.82001406,9.64145,0.9947908,-2.3721442,9.435725,1.22900281409350766532,0.84934306,9.8276,1.5849615,-2.4221509,9.421092,1.24363351409350766560,0.85413146,9.991004,2.4025815,-2.462869,9.406673,1.27246321409350766561,0.7433996,9.758766,2.7790697,-2.4975252,9.391349,1.31732121409350766563,0.2160767,9.394249,2.629432,-2.5321746,9.374586,1.36953251409350766594,-0.82719666,8.948329,2.3493104,-2.5731537,9.35615,1.41836351409350766597,-1.4646529,8.523358,1.5759833,-2.622463,9.335679,1.46225871409350766600,-0.16639702,8.413823,0.6476316,-2.6746733,9.314506,1.5021681409350766630,0.4405331,8.938752,1.043872,-2.713124,9.298451,1.53237091409350766632,0.10534488,9.560646,1.5221137,-2.7372582,9.288021,1.55257381409350766635,-0.7541735,10.095152,1.5346833,-2.7522924,9.281381,1.56565421409350766637,-1.4742297,10.664372,1.3293805,-2.7622778,9.276792,1.57523861409350766659,-1.9177556,11.079168,1.6861166,-2.7696946,