time,acc_x,acc_y,acc_z,gravity_x,gravity_y,gravity_z1409526475358,0.47644615,10.515932,2.2625206,0.180479,9.562126,2.16877271409526475359,0.3172317,9.988609,2.4408886,0.19625294,9.556621,2.19155431409526475370,0.23942018,9.627684,2.5917234,0.2281888,9.549663,2.21861961409526475389,0.28790274,9.569026,2.5073278,0.2734791,9.541822,2.24704531409526475390,0.5674258,9.6288805,2.5731683,0.32301125,9.534132,2.27297141409526475395,0.6919243,9.515156,2.4720132,0.38387057,9.527323,2.2919741409526475420,0.56922144,9.161413,2.4672248,0.45204103,9.5215225,2.30362181409526475421,0.28909984,8.963891,2.4768016,0.5229344,9.515316,2.31424021409526475427,0.3585317,8.868123,2.3948002,0.58801544,9.508466,2.32674151409526475452,0.44532153,8.892065,2.3959973,0.644008,9.501736,2.3393741409526475455,0.64583594,9.029133,2.404377,0.69110006,9.4958725,2.34971551409526475456,0.6799533,9.0716305,2.7162218,0.7333019,9.491444,2.3548161409526475512,0.52133745,9.392453,2.4720132,0.7720976,9.487981,2.3563721409526475518,-0.027533319,9.436746,2.2218192,0.8077163,9.486428,2.35067531409526475519,0.24121583,9.680955,2.2930467,0.8355542,9.486531,2.34050751409526475520,0.5674258,9.760562,2.3014264,0.8610632,9.486736,2.33040481409526475521,0.8798691,9.861717,2.2062569,0.87410635,9.487768,2.32133341409526475522,1.0486604,9.966463,2.1571758,0.8730566,9.489995,2.3126031409526475542,0.9588778,9.856929,2.2008698,0.86791986,9.49308,2.30185771409526475543,0.89184016,9.643845,2.2337902,0.8644705,9.49702,2.28685781409526475547,0.7517793,9.504981,2.44029,0.8628747,9.501419,2.26911881409526475568,0.6368576,9.31524,2.4109612,0.86099654,9.505179,2.25403331409526475570,0.5614403,9.1590185,2.396596,0.85757846,9.50869,2.24048111409526475576,0.6015432,8.990228,2.4145525,0.85110825,9.512614,2.22624681409526475607,0.65541273,8.783129,2.4265234,0.84317666,9.517128,2.20992021409526475609,0.7374141,8.645462,2.4061728,0.8352921,9.521908,2.19225241409526475610,0.78888947,8.585608,2.4372973,0.8285137,9.527624,2.16987561409526475618,0.7757214,8.639477,2.493561,0.8233215,9.534001,2.14367561409526475639,0.8834604,8.859743,2.4522612,0.8191653,9.541028,2.11379961409526475640,0.9295488,8.949526,2.432509,0.81537324,9.548782,2.07998091409526475647,0.9211691,9.102157,2.3451207,0.81091404,9.556691,2.04510551409526475675,0.96905315,9.314642,2.2391772,0.80416197,9.56464,2.01031681409526475677,0.99778354,9.561843,2.0733786,0.7945769,9.572274,1.97752461409526475678,1.002572,9.680955,1.9219455,0.78156686,9.579588,1.94706241409526475711,0.8690952,9.870096,1.8483237,0.7643773,9.586585,1.91925551409526475713,1.0911574,10.180145,1.7483658,0.7411645,9.593575,1.89324311409526475718,0.86729956,10.363302,1.6603789,0.718123,9.600536,1.86666011409526475719,0.7930793,10.593744,1.6519991,0.6925249,9.6076145,1.83971771409526475738,0.5979519,10.788872,1.8010383,0.666733,9.614405,1.81358611409526475739,0.6338649,10.808025,1.8028339,0.6401865,9.6206,1.7901441409526475747,0.59974754,10.222643,1.941099,0.6192992,9.625611,1.77044791409526475765,0.7398083,9.341577,2.297835,0.60559,9.628435,1.75980141409526475781,0.84335756,8.1402855,2.4600422,0.5984985,9.628413,1.7623441409526475784,0.51714754,9.808446,1.8920178,0.59316593,9.626671,1.77363121409526475804,0.8026561,11.7148285,1.6376339,0.5771758,9.626916,1.77757611409526475805,0.91338795,11.066,1.6807296,0.55577874,9.629305,1.77143631409526475807,0.4818331,10.022128,1.8315643,0.5404962,9.6307,1.76857911409526475815,0.338181,9.982025,1.8848352,0.5267048,9.631128,1.7704071409526475839,0.2705448,9.849746,1.9093759,0.51534975,9.63072,1.77595761409526475841,0.23044191,9.687539,1.9422961,0.5041995,9.630136,1.78232011409526475848,0.18854338,9.582792,1.9871874,0.49252778,9.629378,1.78965941409526475871,0.14544775,9.504382,2.058415,0.48007092,9.6283245,1.79869541409526475872,0.10055647,9.456498,2.0961237,0.4665439,9.627163,1.80844351409526475875,0.091578215,9.408015,2.0979192,0.45254752,9.62608,1.81774031409526475896,0.11911154,9.327211,2.15957,0.43832392,9.625222,1.82574711409526475897,0.089184016,9.28232,2.2212207,0.4236682,9.624412,1.83347111409526475912,0.05327099,9.207501,2.3050177,0.40842882,9.623705,1.84061911409526475917,0.059855044,9.140464,2.3349452,0.39306116,9.623049,1.84738731409526475935,0.059855044,9.133281,2.331354,0.3776023,9.622685,1.85248961409526475938,0.061650693,9.099164,2.3900118,0.3629976,9.622467,1.8565481409526475947,0.08738836,9.061455,2.404377,0.34931087,9.622348,1.8597881409526475969,0.16579847,9.024344,2.4408886,0.33677316,9.622326,1.86220671409526475970,0.29388827,8.975264,2.4917655,0.32622474,9.622351,1.8639621409526475976,0.44771573,9.007586,2.4732103,0.3184741,9.622431,1.8648881409526476000,0.61770403,9.054871,2.4744074,0.31451458,9.622772,1.8637961409526476001,0.98461545,9.170391,2.5157075,0.31420243,9.623472,1.86022631409526476007,1.186327,9.200917,2.8137856,0.31905836,9.624335,1.85492991409526476041,1.2593501,9.122507,2.837129,0.32861662,9.624519,1.85230311409526476042,1.3311762,9.299079,2.7012582,0.3404558,9.624522,1.85015381409526476043,1.3293805,9.35235,2.6593595,0.35401744,9.625124,1.84446881409526476048,1.3335704,9.467272,2.6252422,0.3682846,9.626603,1.8339171409526476069,1.3551182,9.674969,2.544438,0.38388768,9.628369,1.82141171409526476070,1.4544775,9.932944,2.2469583,0.40073228,9.630242,1.80782391409526476075,1.6166847,10.081385,1.9057846,0.41909286,9.632683,1.79058051409526476095,1.5346833,10.138845,1.7567455,0.43813044,9.635677,1.76979371409526476096,1.3688848,10.149619,1.632247,0.45511752,9.638923,1.74769411409526476112,1.2617443,10.189124,1.6280571,0.4694507,9.642254,1.72538011409526476139,1.2144588,10.233417,1.7106571,0.48160672,9.645154,1.7057051409526476140,1.1180922,10.137649,1.857302,0.49088076,9.647528,1.68956761409526476141,1.0223241,9.990405,1.7393875,0.4972861,9.649512,1.67630951409526476148,0.842759,9.829395,1.6561891,0.5002846,9.651391,1.66456521409526476171,0.6572084,9.813833,1.5951369,0.49787587,9.653195,1.65478971409526476172,0.4357447,9.800066,1.4981717,0.49104846,9.655069,1.6458671409526476176,0.2861071,9.702502,1.3982137,0.48105684,9.657051,1.63717631409526476195,0.25857377,9.512163,1.0815806,0.46937385,9.658963,1.62926421409526476196,0.23882163,9.535507,0.9427169,0.4564609,9.661144,1.61998381409526476212,0.19991584,9.646837,0.93254155,0.4422378,9.663727,1.60847851409526476228,0.18255788,9.77792,0.93852705,0.42779344,9.666965,1.59285551409526476229,0.17178397,9.792884,1.0606314,0.41364086,9.670979,1.57209681409526476242,0.18974048,9.767744,1.1911154,0.40040043,9.675133,1.54981241409526476260,0.2765303,9.759365,1.2036849,0.38666767,9.679698,1.52458211409526476261,0.3878607,9.744401,1.0408791,0.37367308,9.684677,1.49593011409526476283,0.45968673,9.582193,0.84575176,0.36278433,9.690002,1.46376971409526476285,0.49559975,9.424176,0.62728083,0.35370347,9.695571,1.42871061409526476288,0.47165772,9.299079,0.48602295,0.34553412,9.701308,1.39125981409526476296,0.49081135,9.202713,0.48362875,0.33784518,9.707102,1.35219731409526476322,0.59974754,9.193136,0.39444473,0.33103302,9.712781,1.31251881409526476323,0.7356185,9.264962,0.37110126,0.32573944,9.718498,1.27086161409526476327,0.94331545,9.398438,0.45669398,0.32223466,9.724237,1.22708621409526476349,1.0893618,9.531916,0.54408234,0.3209308,9.730042,1.18054371409526476350,1.0767922,9.635465,0.670975,0.3212389,9.735684,1.1329841409526476356,1.0139444,9.715072,0.8038532,0.32131776,9.741253,1.08403681409526476391,0.9828198,9.739613,0.93493575,0.32143962,9.746497,1.03579851409526476392,1.2389994,10.09575,0.97503865,0.321594,9.751361,0.98891521409526476394,1.3784616,10.247782,0.80205756,0.3246173,9.75577,0.94338271409526476396,1.4311341,10.290877,0.87687635,0.3295444,9.759751,0.899460551409526476439,1.3634979,10.400413,1.0833763,0.33507112,9.762997,0.861404661409526476441,1.3682863,10.311827,1.0594343,0.3388594,9.765482,0.83122111409526476444,1.4215573,10.2896805,0.919972,0.3405173,9.767525,0.806163251409526476446,1.4101849,10.276512,0.8194155,0.3404582,9.769491,0.782004361409526476449,1.240795,10.087969,0.7565677,0.33794856,9.771515,0.75739251409526476478,1.0654198,9.923966,0.58777654,0.33212855,9.7736,0.732703451409526476479,0.98222125,9.925163,0.44831428,0.32104412,9.77583,0.70741881409526476480,0.92057055,9.948506,0.41838676,0.30539078,9.778201,0.681117651409526476494,0.9235633,9.898229,0.38845924,0.28571627,9.780644,0.654018041409526476496,0.97384155,9.835979,0.4237737,0.26174438,9.78313,0.62629181409526476510,0.9504981,9.816826,0.52612585,0.23363632,9.785596,0.59825581409526476529,0.8822633,9.887454,0.521936,0.20093897,9.788015,0.569894251409526476534,0.919972,10.000581,0.6003461,0.16488114,9.790356,0.54047291409526476563,0.6991069,10.064626,0.59376204,0.1281332,9.792404,0.512631541409526476564,0.5470751,10.020332,0.4878186,0.08795155,9.794073,0.488656221409526476565,0.40282443,9.871892,0.48961425,0.04549955,9.795451,0.466323381409526476577,0.39264908,9.665991,0.6344634,0.002292276,9.796377,0.448787721409526476578,0.3393781,9.667787,0.6691794,-0.039641105,9.796834,0.436914921409526476593,-0.28191724,9.757569,0.52253455,-0.081843734,9.796855,0.430516151409526476596,-0.5201403,10.1161,0.47225627,-0.13132994,9.79649,0.426536741409526476610,-0.38367084,9.904214,0.3705027,-0.18862683,9.795622,0.424941571409526476625,-0.46806642,9.797073,0.29628247,-0.24699003,9.794332,0.424818251409526476628,-0.46686932,9.806051,0.22864626,-0.29764542,9.792954,0.424049021409526476640,-0.38726214,9.744401,0.17238252,-0.3420036,9.791531,0.423527031409526476657,-0.2112883,9.586384,0.15023616,-0.38268837,9.789925,0.42580491409526476658,-0.05327099,9.3978405,-0.034715924,-0.4183221,9.788204,0.431809131409526476687,0.12988544,9.160814,0.012569559,-0.45073792,9.786475,0.438307851409526476689,0.23582886,9.042301,0.3274071,-0.4790352,9.784643,0.44910631409526476690,0.4225766,9.015367,0.5542577,-0.5038688,9.782621,0.465659381409526476697,0.65780693,9.0716305,0.7404069,-0.52459294,9.780574,0.485392841409526476719,0.9403227,9.364322,0.84575176,-0.54164964,9.778582,0.50632341409526476720,1.1486182,9.721656,0.79008657,-0.55525553,9.776733,0.52684011409526476728,1.2611457,10.011953,0.65541273,-0.56606317,9.775119,0.545008241409526476747,1.216853,10.200497,0.4842273,-0.5754469,9.773663,0.561073241409526476749,1.1330559,10.300454,0.2813187,-0.58583,9.772254,0.574678541409526476757,0.82480246,10.497976,0.047285482,-0.5984356,9.770982,0.583269831409526476785,0.82719666,10.649409,-0.0712275,-0.61530006,9.769705,0.58708561409526476786,0.89423436,10.851719,-0.09756372,-0.63262814,9.768619,0.58675481409526476791,0.9151836,11.089942,0.062249243,-0.6496002,9.767597,0.58520641409526476799,1.0857705,11.210251,0.22026655,-0.6662481,9.766545,0.584063651409526476840,1.3006501,11.253945,0.3321955,-0.68123704,9.765421,0.585535471409526476841,1.5125369,11.282676,0.51595044,-0.6948496,9.764094,0.59165071409526476843,1.7232267,11.1893015,0.6548142,-0.7069609,9.762498,0.603505431409526476845,1.8543092,11.060015,0.7278373,-0.71930945,9.76056,0.62006141409526476882,1.9369092,11.009138,0.78290397,-0.7337561,9.7582035,0.63989661409526476884,1.9500773,11.016919,0.8870517,-0.75133526,9.755454,0.66107261409526476885,1.8968062,10.96305,0.9187749,-0.77151084,9.7523775,0.68286891409526476887,1.9057846,10.952275,0.96905315,-0.7930298,9.749116,0.70443191409526476890,2.0254946,10.78109,1.1492168,-0.8144752,9.745767,0.726004841409526476922,2.0626047,10.401609,1.3970166,-0.83351815,9.742329,0.75012691409526476924,2.1547816,9.949105,1.7286136,-0.8488086,9.738787,0.778456331409526476925,1.5753847,9.757569,2.0488381,-0.85711277,9.735343,0.811679361409526476930,1.1833342,9.379884,2.392406,-0.8651778,9.73161,0.8471331409526476953,1.1031284,8.966286,2.654571,-0.8708959,9.728018,0.88182551409526476954,0.28670564,9.062054,2.384625,-0.8630486,9.725783,0.91363111409526476957,-1.0235212,8.9602995,2.0027497,-0.8467753,9.724564,0.94141111409526477003,-0.9552865,8.347982,1.4425066,-0.83191305,9.723267,0.967685341409526477004,-0.98820674,7.65965,0.7445967,-0.81408894,9.722688,0.98842481409526477005,-1.4867992,7.714118,0.12868834,-0.7960288,9.723015,0.99985741409526477006,-2.1547816,8.722675,0.0700304,-0.7687194,9.725416,0.99788411409526477008,-2.4947581,10.617686,0.35434186,-0.73527753,9.729044,0.98766491409526477049,-2.260725,12.836513,0.3764882,-0.6998102,9.732738,0.9769811409526477050,-1.6944963,14.842854,-0.093972415,-0.65762854,9.736732,0.96642391409526477052,-1.122282,16.109386,-0.6344634,-0.60285383,9.741716,0.951805651409526477053,-0.7104794,16.840216,-0.7469909,-0.53482443,9.747638,0.931617441409526477057,-0.82121116,16.251242,-0.24779987,-0.45335746,9.753522,0.91306881409526477068,-1.7926586,14.921862,0.760159,-0.36118752,9.75715,0.915418571409526477077,-3.0310593,13.5930805,1.9081788,-0.27319568,9.756459,0.95251231409526477102,-4.267066,12.138004,2.6354175,-0.20336357,9.751865,1.01495971409526477103,-4.8584337,11.116877,2.7257986,-0.14805217,9.743514,1.10110551409526477109,-4.3059716,10.55005,2.3959973,-0.09961576,9.733712,1.18967331409526477145,-3.539827,9.8198185,1.6178818,-0.035220806,9.724589,1.26551911409526477147,-2.77069,9.091981,0.8583213,0.05310498,9.716904,1.32264151409526477150,-0.91458505,8.149264,1.1713632,0.16106026,9.709548,1.36716751409526477180,0.3824737,8.799889,1.7938557,0.28925738,9.699268,1.41806531409526477181,1.115698,8.774749,1.9129672,0.4299561,9.684434,1.4823161409526477182,1.5041572,8.457518,1.6370354,0.5772759,9.6658945,1.5516521409526477183,1.5167267,7.701548,1.2378023,0.72078604,9.64571,1.61590791409526477188,1.376666,6.915652,1.027711,0.8509206,9.625462,1.67236751409526477211,1.3156139,6.077681,0.9708488,0.97411525,9.604132,1.72688981409526477225,1.0031705,5.5725045,1.1474211,1.0850948,9.581613,1.78485171409526477253,0.6895301,4.9344497,1.3521254,1.1855531,9.556929,1.85201851409526477254,0.59136784,4.481347,1.5628152,1.2763791,9.530049,1.92857161409526477256,0.5530606,4.2305546,1.6358383,1.3589817,9.501776,2.0099331409526477257,0.6422446,4.061165,1.7118542,1.4353698,9.473511,2.08870361409526477259,0.7493851,4.2425256,1.95307,1.5083055,9.446055,2.16042521409526477282,0.6967127,4.71957,2.1853075,1.5788242,9.420185,2.22212081409526477283,0.7691373,5.29777,2.2176294,1.6477232,9.3968525,2.27036791409526477288,1.039682,6.0465565,2.223615,1.7150328,9.377367,2.30087921409526477309,1.5077485,6.973711,2.4001873,1.7806478,9.361979,2.31366751409526477310,1.8273745,7.6111674,2.546832,1.845445,9.348012,2.31935021409526477330,1.9207484,7.7452426,2.5887306,1.9049333,9.33734,2.31423741409526477331,2.753332,7.65965,2.6569653,1.9515755,9.3298645,2.30551271409526477336,3.3321302,7.992444,2.754529,1.9839495,9.32446,2.29973721409526477360,3.566762,8.264784,3.132813,1.996838,9.321466,2.30072021409526477363,3.5649664,8.503007,3.6493618,1.9884862,9.320397,2.31225181409526477385,3.4374752,8.916007,3.9079356,1.9601367,9.3218,2.33073021409526477386,3.3674448,9.487024,4.150947,1.9171348,9.327055,2.3454281409526477388,3.0974984,9.844957,4.2945995,1.8693577,9.335346,2.35100321409526477428,2.4540567,9.898827,4.289212,1.823929,9.344601,2.3499221409526477431,1.7549498,10.981605,4.384382,1.7872213,9.352869,2.34522181409526477433,0.7625532,13.037026,4.19524,1.7543977,9.361021,2.33747431409526477471,0.635062,14.536396,2.7724855,1.7285476,9.369835,2.32135961409526477472,1.8327614,14.301764,1.240795,1.72246,9.381,2.2804351409526477473,3.3674448,12.719196,1.09834,1.759993,9.388124,2.22170231409526477475,5.0481744,10.835558,1.6705543,1.8412706,9.381573,2.1831631409526477476,6.564901,9.154829,3.300407,1.9527758,9.357285,2.1904981409526477477,7.5650787,8.76996,6.927024,2.0895772,9.314266,2.24689341409526477498,6.666056,10.578181,10.505158,2.2523584,9.251008,2.348641409526477499,4.84347,14.732121,9.998186,2.403713,9.179165,2.47698931409526477510,3.7870286,16.159664,4.4873323,2.4929738,9.13141,2.5637531409526477528,-2.532467,14.699202,2.5127146,2.5465112,9.116354,2.56471321409526477529,-3.822343,14.060548,1.1498153,2.5031118,9.130635,2.55662231409526477537,-4.4077253,12.76708,0.31603462,2.419593,9.150032,2.56766151409526477559,-4.693234,11.945869,0.87089086,2.307818,9.167737,2.6071011409526477560,-4.4783545,11.455657,0.53330845,2.164272,9.186758,2.66267131409526477584,-4.0821137,10.412383,-0.39504328,2.0137765,9.211541,2.69492081409526477586,-3.4967315,9.033323,0.037708677,1.8850267,9.239506,2.6923261409526477589,-2.7527335,8.377312,0.9684546,1.7853459,9.263224,2.67873881409526477615,-1.6089035,8.237251,1.4730326,1.7088716,9.280473,2.66889071409526477619,-0.5919664,7.978079,1.7651252,1.6551234,9.294113,2.65525961409526477620,0.44532153,7.778163,2.1757307,1.6174363,9.309293,2.6251381409526477644,0.95468795,7.6907744,2.3235726,1.5858876,9.325182,2.5877281409526477645,1.3144168,8.078635,2.2930467,1.5534844,9.345779,2.5324851409526477649,1.7465701,8.924387,2.3810337,1.5167019,9.36993,2.46463541409526477657,2.219425,10.03769,2.2481554,1.4791485,9.394819,2.3916241409526477686,2.3127987,10.690709,1.6531962,1.4438409,9.418855,2.31752061409526477687,1.8920178,10.811018,0.81522566,1.4042593,9.443301,2.24110031409526477691,1.1228806,11.479,0.2789245,1.3508552,9.470014,2.1597261409526477720,-0.107739076,11.116877,0.19273324,1.2790152,9.499718,2.07120371409526477726,-1.5155296,9.912594,0.05746084,1.189703,9.529172,1.98742821409526477727,-1.5939398,9.280524,-0.033518825,1.0927078,9.554514,1.9203241409526477746,-1.8734628,8.877101,0.13108255,1.006569,9.575117,1.86395621409526477747,-2.2254105,8.833407,0.38187516,0.9243553,9.590575,1.82670041409526477749,-2.3642743,8.832211,0.6452374,0.84468824,9.602465,1.80266261409526477757,-2.3038206,8.554482,0.8230068,0.7631275,9.611802,1.78921751409526477783,-2.3122003,8.040926,0.8283938,0.679441,9.618735,1.78569751409526477785,-2.0566192,7.639299,0.635062,0.591236,9.624015,1.788631409526477789,-1.6891093,7.5124063,0.35913026,0.49908614,9.629403,1.787711409526477818,-1.2683283,7.6524673,0.1400608,0.40482497,9.637119,1.76987151409526477819,-0.81881696,7.845799,0.272939,0.3117869,9.647645,1.73092661409526477820,-0.43873745,8.000225,0.623091,0.22233781,9.6588,1.68182091409526477842,0.092775315,8.220491,1.0145429,0.13468787,9.667948,1.63799581409526477845,0.8062474,8.719084,1.210269,0.049860887,9.674674,1.60268551409526477861,1.6897079,9.381081,1.3221979,-0.031003918,9.677596,1.58542561409526477862,2.0757728,9.205706,1.3485341,-0.10323621,9.676531,1.58885791409526477871,2.1134815,8.595782,1.1899183,-0.17383885,9.671348,1.61406021409526477902,2.27928,8.170214,1.436521,-0.2488694,9.66255,1.65638421409526477903,2.067393,7.7907324,1.7477672,-0.32356238,9.650632,1.71201911409526477904,1.3563153,6.8785415,1.7166426,-0.39815322,9.636694,1.7736921409526477910,1.4736311,7.181408,1.7567455,-0.4755869,9.622291,1.83186351409526477934,1.590947,7.499837,2.0039468,-0.54688907,9.608611,1.88306771409526477936,1.8010383,8.038532,2.3666685,-0.60809743,9.596039,1.92786071409526477938,1.9021933,8.508993,2.755726,-0.6572994,9.58416,1.97033921409526477970,1.9327193,8.913613,2.9059622,-0.6999212,9.571858,2.01494741409526477970,1.7016789,9.153631,2.7778726,-0.73650616,9.559716,2.05906721409526477971,1.3132197,9.028535,2.2385786,-0.77547115,9.548663,2.0957261409526477987,1.5526398,8.9519205,1.4460979,-0.82249266,9.540206,2.11622071409526477989,2.0913353,9.115923,1.0235212,-0.8707202,9.535979,2.11597041409526478004,2.355296,10.114903,1.4951789,-0.9099106,9.535826,2.1001211409526478009,2.1260512,11.479599,2.3852234,-0.93272,9.538169,2.0793641409526478024,1.7615339,12.243947,2.7862523,-0.93979985,9.540653,2.06473021409526478040,1.34195,12.250531,2.4007857,-0.93386257,9.542589,2.05846571409526478041,0.9415198,11.968615,1.5095441,-0.9194469,9.545597,2.0509961409526478056,0.7422025,12.02009,1.1330559,-0.8979994,9.551457,2.03313971409526478057,0.81642276,11.936293,1.6992847,-0.87383026,9.561072,1.9981771409526478080,0.81761986,11.352706,2.1775265,-0.8383939,9.573993,1.9509331409526478082,0.6745663,10.325593,1.8950106,-0.7897705,9.58875,1.89803211409526478089,0.61770403,8.605958,2.6569653,-0.7259078,9.604035,1.8455251409526478110,0.12749124,7.6943655,1.6753427,-0.64551824,9.617497,1.80484241409526478111,-1.0606314,6.597223,0.89603,-0.5546711,9.6322155,1.75590261409526478118,-2.067393,5.9531827,0.56563014,-0.46257806,9.647813,1.69591551409526478139,-2.9041667,6.225523,-0.17298107,-0.36918586,9.663604,1.6275341409526478140,-3.5990837,7.8206596,-0.25378537,-0.27233526,9.679795,1.54848331409526478155,-3.721188,11.034876,0.9528923,-0.17191456,9.6949005,1.46621121409526478158,-3.9133227,15.693394,2.6366146,-0.07326649,9.706469,1.39624111409526478179,-3.401562,19.363705,2.754529,0.020764127,9.709936,1.37372051409526478180,-2.6372132,19.608511,1.6555905,0.11889844,9.707356,1.38690151409526478189,-1.8872294,19.608511,0.82779527,0.22812252,9.704325,1.39442791409526478212,-2.1374235,18.430565,0.7152678,0.34445715,9.703739,1.37447631409526478213,-1.6921021,15.032594,1.5035586,0.44356263,9.701767,1.35992771409526478218,-3.083732,11.405378,2.9400797,0.5155926,9.692371,1.40089321409526478247,-5.2301335,11.847109,4.210802,0.53644675,9.678181,1.4884331409526478248,-4.167108,13.63019,3.5122938,0.5120387,9.665273,1.57819861409526478249,-2.2391772,12.109274,1.4161704,0.5264506,9.658282,1.61580791409526478258,-1.0336965,9.654618,0.3226187,0.62205553,9.6564245,1.5927621409526478276,0.1316811,9.369708,2.7222073,0.747389,9.65298,1.55941681409526478278,0.88405895,8.394072,3.3596635,0.89503866,9.640304,1.56008421409526478289,1.6089035,8.01878,2.9149406,1.0484471,9.619234,1.59420571409526478309,2.2230163,7.419631,2.082357,1.2009275,9.594048,1.63780241409526478327,2.5959132,6.640917,1.2515689,1.3448126,9.569127,1.67142571409526478329,2.6755204,5.645528,0.8858546,1.4687742,9.546729,1.69500651409526478336,2.6743233,5.2289367,0.9487024,1.564999,9.526418,1.72294261409526478339,2.4013844,4.9057193,1.1073183,1.6386659,9.505754,1.76799871409526478371,1.8806454,4.51726,1.0737995,1.698245,9.482652,1.83458041409526478373,1.5502456,4.1461587,1.0348936,1.7491026,9.457263,1.91604051409526478375,1.2162545,3.8414967,1.0253168,1.7933443,9.431367,2.00090431409526478390,0.8295909,3.7193923,0.9780314,1.8325554,9.4050255,2.08749841409526478391,0.6536171,3.6481647,1.0905589,1.8624508,9.380204,2.17104581409526478405,0.516549,3.7469256,1.2856863,1.8832983,9.35792,2.24787261409526478421,0.5255273,3.9378633,1.5316905,1.8960043,9.339402,2.31324771409526478422,0.84575176,4.3221326,1.8938135,1.9027551,9.325485,2.36331561409526478436,1.1246762,4.9559975,2.3971944,1.9045807,9.31692,2.39540861409526478438,1.395221,5.655703,3.0585926,1.9011395,9.314022,2.40937231409526478454,1.5981296,6.401497,3.7989995,1.8897096,9.316581,2.4084641409526478458,2.6180596,8.271967,4.301782,1.865145,9.323901,2.39927121409526478471,3.359065,9.673173,4.138976,1.8284247,9.334534,2.38615271409526478487,3.6164417,10.915764,4.246715,1.7878764,9.347006,2.36799171409526478489,3.29502,11.57836,4.2904096,1.7358588,9.362926,2.34367681409526478503,2.3211784,11.325771,4.3317094,1.6749797,9.381855,2.31206421409526478519,1.3120226,10.865486,4.091092,1.6078051,9.402794,2.2743871409526478520,0.61112,13.415909,3.6762967,1.5411719,9.425028,2.22800681409526478537,0.17896658,16.83902,3.0561984,1.475661,9.448794,2.1709721409526478538,0.6392518,17.128717,2.011728,1.4089285,9.472856,2.1095811409526478553,2.2290018,15.531186,0.8834604,1.3692096,9.489595,2.05991131409526478558,3.7193923,12.816162,0.5943606,1.3831851,9.494267,2.02880721409526478570,5.431845,10.159196,1.520318,1.4373686,9.482502,2.04609441409526478587,6.4828997,8.113351,4.6351743,1.5193608,9.451115,2.1303451409526478604,6.4763155,7.751228,9.60853,1.6219759,9.403589,2.2609951409526478604,5.1409497,10.990582,12.500127,1.7513449,9.330332,2.45928651409526478619,4.707599,16.29374,8.607155,1.8809906,9.248759,2.66321681409526478620,2.7623103,16.797121,3.5326445,1.9911207,9.202514,2.74218631409526478637,-1.7567455,14.60882,2.8149827,2.0557883,9.197996,2.7094251409526478638,-3.020884,14.032416,1.2946646,2.0511525,9.208335,2.67763281409526478653,-3.164536,10.736797,0.9804256,2.0121286,9.217557,2.67551161409526478670,-3.5619736,11.082161,2.079364,1.9517602,9.213818,2.73250721409526478671,-3.2561142,11.598111,1.2072762,1.8397621,9.213261,2.81095811409526478686,-3.05141,10.290877,-0.25378537,1.7115177,9.225915,2.85019061409526478690,-3.0705638,8.941146,-0.050876785,1.5964564,9.244433,2.85695481409526478703,-2.7162218,8.60117,0.59495914,1.4960321,9.265406,2.84333541409526478718,-2.0069396,8.602366,0.95109665,1.4005005,9.282512,2.83618571409526478719,-1.0737995,8.603564,1.4850036,1.3219817,9.294871,2.83339451409526478735,-0.15981296,8.358757,2.082357,1.2625557,9.308188,2.81673221409526478738,0.47225627,8.013393,2.1942859,1.2149572,9.3260355,2.77836631409526478754,0.82240826,8.140884,2.0045455,1.1702588,9.347496,2.72492721409526478768,1.1695676,8.759786,1.977012,1.1230236,9.370169,2.66629481409526478772,1.3617022,9.323022,1.785476,1.0736818,9.391189,2.61212021409526478784,1.1575965,9.776124,1.3784616,1.0206921,9.410732,2.56255751409526478790,0.60094464,10.125677,1.0193313,0.9594183,9.431942,2.50766321409526478803,-0.19393034,10.100538,0.5781997,0.88795483,9.455397,2.44487571409526478826,-0.83138657,9.832388,0.320823,0.8063523,9.483382,2.3634011409526478827,-1.270124,9.686341,0.18974048,0.7163421,9.513132,2.27103111409526478830,-1.5173253,9.400833,0.2208651,0.6230638,9.540677,2.18120771409526478839,-1.8836381,8.81964,0.35553896,0.5327619,9.563203,2.10515741409526478864,-1.83336,8.816648,0.5422867,0.45035192,9.5798645,2.0478751409526478867,-1.5215151,8.866926,0.85652566,0.3812392,9.591434,2.0073541409526478870,-1.3724761,8.768166,0.8523358,0.3257336,9.5986805,1.98232531409526478888,-1.163582,8.531737,0.83138657,0.27594167,9.602688,1.97043791409526478890,-0.801459,8.1642275,0.6907272,0.22542934,9.603953,1.97069631409526478902,-0.4961983,7.77517,0.6619968,0.17045857,9.604366,1.97419871409526478926,-0.207697,7.791331,0.60214174,0.113621704,9.605043,1.97500361409526478927,0.090381116,8.524555,0.7164649,0.05003332,9.608664,1.95997321409526478930,0.53809685,8.940548,0.8194155,-0.016204992,9.6155405,1.92653511409526478941,1.0779893,8.890868,0.8062474,-0.079537794,9.62335,1.88553081409526478962,1.54845,8.5383215,0.9403227,-0.13992593,9.628837,1.8537341409526478964,1.797447,8.094796,1.3503298,-0.20038463,9.629438,1.8450381409526478970,2.1511903,8.052897,1.8734628,-0.26096812,9.62422,1.86458221409526478992,2.1631613,7.6572556,2.1188686,-0.3197763,9.613651,1.90941211409526478994,2.047641,7.0407486,2.1655555,-0.38024947,9.59951,1.96855811409526478999,1.8351556,6.43741,2.1452048,-0.44649932,9.584157,2.02853821409526479025,1.7190368,5.969343,2.0242975,-0.518913,9.568292,2.08540581409526479027,1.9632454,5.9358244,1.9434932,-0.59416825,9.553571,2.13228731409526479030,2.0937295,7.2807674,2.15538,-0.6664543,9.540738,2.16807461409526479039,1.757344,8.485649,2.2762873,-0.72953457,9.529761,2.19586631409526479061,1.447295,9.646238,2.72939,-0.78498894,9.519879,2.21947361409526479062,1.1133038,10.24419,2.9299042,-0.83584255,9.509431,2.2455451409526479070,0.91219085,10.751761,2.4091654,-0.8884556,9.497893,2.2739991409526479087,0.6697779,11.03308,1.7705121,-0.9463589,9.48779,2.29273221409526479102,0.8655039,10.994174,1.1282675,-1.0088512,9.481102,2.2937571409526479103,1.7286136,10.816404,0.86849666,-1.0661933,9.477823,2.28133631409526479119,2.80361,11.105505,1.5161282,-1.1070957,9.476775,2.26615171409526479120,3.0771477,11.170148,2.6378117,-1.1290793,9.476422,2.2567661409526479137,2.885013,10.85531,3.4249055,-1.1367743,9.475301,2.25761531409526479138,2.2870612,10.474034,3.6008794,-1.1377857,9.471861,2.27149771409526479152,1.4526819,10.318411,3.0699651,-1.1382611,9.466704,2.29265861409526479167,0.75716627,10.66138,2.7449522,-1.1390923,9.464516,2.30125861409526479170,0.46866497,11.040861,2.718616,-1.1349163,9.468998,2.28482651409526479184,0.26755205,10.519524,2.445677,-1.1181109,9.480894,2.2434041409526479198,0.12868834,9.680955,1.4167689,-1.0850434,9.497902,2.18699461409526479199,0.5859809,9.357738,1.6118963,-1.0347409,9.518552,2.12058121409526479218,0.37588966,8.942344,1.9985598,-0.9649505,9.541325,2.04997441409526479219,-1.4089876,6.6026096,0.516549,-0.88523096,9.565819,1.97025321409526479237,-2.6605566,6.069301,-0.26396075,-0.81534374,9.590512,1.87820971409526479239,-3.2237926,6.9928646,-0.8690952,-0.7374784,9.616723,1.77346341409526479253,-4.072537,8.903438,-0.38965634,-0.649055,9.644172,1.65501531409526479268,-4.455011,12.549209,0.5386954,-0.55258554,9.66953,1.53793731409526479270,-4.540005,17.609354,0.79248077,-0.45171988,9.688348,1.4499131409526479284,-4.3502645,19.608511,0.18016368,-0.3516488,9.700415,1.39596511409526479304,-3.5565867,19.608511,0.19991584,-0.24615799,9.708768,1.36001411409526479304,-3.7511156,19.608511,0.7553706,-0.12740572,9.714708,1.33365151409526479319,-3.7989995,17.744028,1.6579847,-0.020621166,9.7173815,1.320021409526479320,-2.8526914,13.125612,2.5492263,0.06349833,9.712489,1.35421861409526479338,-3.3560722,9.728839,3.7948096,0.1253637,9.701636,1.42581781409526479339,-4.7668557,9.801862,4.2054152,0.16813725,9.683791,1.5382881409526479352,-3.567959,12.408549,3.0454245,0.17327048,9.66593,1.64626681409526479366,-1.1055226,12.819753,1.407192,0.20228802,9.656756,1.69604471409526479370,0.24420857,10.278907,0.61890113,0.31456038,9.656829,1.67842131409526479384,0.3585317,7.903858,1.6885108,0.48302975,9.656214,1.64152981409526479400,1.1725603,7.630321,3.7463272,0.65391135,9.647446,1.6338961409526479401,2.1176715,7.704541,4.4993033,0.8238329,9.62868,1.6673921409526479422,2.9179332,7.259818,2.1745336,0.99651206,9.603617,1.7169431409526479423,3.0747535,6.7330937,1.3467385,1.1575729,9.580938,1.74242941409526479444,2.6964695,6.179435,1.0803835,1.2882069,9.560855,1.76096221409526479446,2.1380222,5.48332,1.0151415,1.3977981,9.540803,1.78595351409526479451,1.903989,5.011064,1.0528502,1.4801692,9.519731,1.8314621409526479474,1.596334,4.8620253,1.2360066,1.5446757,9.495406,1.9030631409526479475,1.3892355,4.577115,1.2868834,1.5995834,9.467788,1.99317171409526479478,0.985214,4.449025,1.2162545,1.650418,9.437969,2.09074951409526479499,0.86729956,4.583101,1.395221,1.6940906,9.40855,2.18623471409526479504,1.0995371,4.8039656,1.6765398,1.7293565,9.381312,2.27391931409526479531,1.4329298,5.097255,1.9273324,1.7568322,9.357768,2.3486441409526479532,1.4652514,5.3366756,1.9752164,1.7775807,9.338748,2.4079861409526479534,1.6693572,5.6323595,2.0931308,1.7888047,9.32581,2.44945551409526479541,1.8842367,5.975329,2.4037786,1.7887045,9.319407,2.47377441409526479568,2.0219033,6.3272767,2.814384,1.7832112,9.315765,2.49139671409526479569,2.1027076,6.554127,3.2650926,1.7640029,9.317658,2.4979891409526479571,2.319383,6.706159,3.6882677,1.7290708,9.324762,2.4959021409526479586,2.700061,7.176021,3.9857473,1.6770983,9.33635,2.4880311409526479604,3.1118636,8.269572,4.317344,1.6106629,9.3514,2.47537421409526479606,3.247136,10.581175,5.277419,1.5353549,9.368575,2.45822551409526479622,3.2357635,10.890026,5.269039,1.4573647,9.3855095,2.44104361409526479623,2.9586349,10.263943,4.9637785,1.3859586,9.402786,2.41601251409526479631,2.3840263,10.5841675,4.7734394,1.3272368,9.418918,2.38596581409526479652,1.4191631,14.571112,4.5525746,1.282244,9.431762,2.35968641409526479653,-0.12808979,16.74804,3.1429882,1.2411249,9.443901,2.33296661409526479670,0.15682021,15.578472,0.82779527,1.1819,9.458118,2.305971409526479692,1.7184383,12.803592,-0.49320555,1.1530467,9.469722,2.27271821409526479693,3.5003228,10.535086,0.2633622,1.1685832,9.472922,2.25134521409526479695,5.0463786,8.98484,3.9432502,1.2195137,9.459808,2.27930121409526479699,5.039196,8.850765,10.453085,1.2976805,9.422153,2.38944721409526479723,4.7560816,13.615227,12.308591,1.4012605,9.352264,2.5965381409526479724,4.983531,18.606539,6.3338604,1.5159514,9.274064,2.80428771409526479731,0.7799112,16.865953,2.947861,1.6319607,9.241766,2.84549711409526479753,-3.6062663,15.095442,2.8137856,1.6835848,9.2465725,2.79943681409526479754,-4.1946416,13.669096,0.45908818,1.6693834,9.262348,2.75544211409526479772,-3.5577838,10.9187565,-0.55605334,1.6430072,9.279238,2.7141591409526479773,-3.7738605,8.923788,1.2773066,1.6091791,9.281238,2.7275571409526479780,-3.4117374,8.947132,1.685518,1.540281,9.272381,2.7965821409526479808,-2.2505496,8.814254,1.06123,1.454744,9.269899,2.85010121409526479809,-1.780089,9.448118,1.0265139,1.3828845,9.278851,2.85673791409526479811,-1.536479,10.218452,0.5686229,1.3205354,9.294228,2.83617731409526479819,-1.1420342,10.4488945,0.5021838,1.2651333,9.312086,2.80265451409526479841,-0.17357962,10.216658,0.91697925,1.2157977,9.33131,2.76023631409526479842,0.86131406,9.623494,1.1779473,1.1725669,9.352753,2.70582371409526479853,1.1599907,9.235633,1.2593501,1.1346905,9.376638,2.63847231409526479874,1.5269021,9.906608,1.5945383,1.0926802,9.401853,2.56546071409526479875,1.6723499,10.435128,1.5993267,1.0437254,9.42603,2.49619961409526479880,1.4024036,10.171766,1.4772224,0.9862311,9.44836,2.43438461409526479907,0.7380127,9.496002,1.4909891,0.9151728,9.4679985,2.38534051409526479908,0.2873042,9.452907,1.7190368,0.8284917,9.4867735,2.34203671409526479911,0.05207389,9.324817,2.0368671,0.72997725,9.50682,2.2930171409526479920,-0.059855044,9.097368,2.0967221,0.6287445,9.526819,2.2393731409526479943,-0.11492168,8.981848,1.6932992,0.533646,9.544703,2.18729661409526479944,-0.4321534,8.602965,1.1043255,0.44782823,9.560099,2.13876841409526479951,-0.7930793,8.168418,0.91697925,0.36972558,9.573668,2.0925061409526479973,-0.91219085,8.003817,0.84814596,0.29859367,9.585495,2.0492771409526479975,-1.198298,8.397064,0.7517793,0.23856267,9.595953,2.00777241409526479980,-1.0941502,8.418612,0.5919664,0.18319705,9.604761,1.97113591409526480001,-1.359308,7.8853035,0.3705027,0.12960896,9.610462,1.94746691409526480006,-1.0600328,7.6285253,0.2717419,0.06758651,9.612295,1.94155141409526480050,-0.48362875,7.4070616,0.3669114,-0.005659341,9.611875,1.94478921409526480052,0.023343466,7.6452847,0.7966706,-0.08668781,9.61214,1.94155851409526480061,0.6961141,8.422802,0.8463503,-0.17075638,9.615636,1.91854351409526480062,0.93732995,8.763975,0.9008184,-0.25229427,9.623415,1.8699271409526480064,1.5526398,8.735844,0.9995792,-0.3309186,9.632828,1.80818751409526480089,1.8836381,8.391677,1.2108675,-0.40662938,9.639328,1.75737681409526480094,1.8644845,8.045116,1.6274586,-0.480878,9.639574,1.73716161409526480095,1.8884265,7.833828,2.0973208,-0.5556725,9.635516,1.73736621409526480096,1.5867572,7.4256167,2.211644,-0.6298519,9.624498,1.77276671409526480100,1.353921,7.140108,2.0482395,-0.705418,9.608431,1.83052621409526480117,1.311424,7.265804,1.6244658,-0.7816377,9.589973,1.89521531409526480119,1.4927847,7.731476,1.3227965,-0.85790175,9.571949,1.95248381409526480131,1.8716671,8.497022,1.3413515,-0.92917854,9.556838,1.99345531409526480148,2.3834279,9.094376,1.567005,-0.9890787,9.544715,2.02250361409526480151,2.6737247,9.470863,2.059612,-1.033623,9.534149,2.04988551409526480164,2.915539,9.636064,3.6529531,-1.0659634,9.52323,2.08379321409526480182,1.7220296,9.540894,3.8977604,-1.0891725,9.509065,2.13583781409526480183,1.1240777,9.160215,3.4572272,-1.122171,9.492535,2.1915591409526480196,1.6633717,8.877101,2.2828712,-1.1617212,9.4759865,2.24197651409526480199,2.1458032,8.860342,1.6633717,-1.1964656,9.462654,2.27970621409526480213,2.4504654,9.585187,2.2505496,-1.2259517,9.453194,2.30316071409526480220,2.1601684,10.344747,2.9861681,-1.246693,9.448373,2.31179051409526480243,1.614889,10.594342,2.983774,-1.2587576,9.447968,2.3069111409526480244,0.664391,10.893618,2.3319526,-1.2632419,9.451295,2.2907731409526480252,0.24361002,11.419744,1.917157,-1.2642807,9.458559,2.26001521409526480272,0.11791443,11.664551,1.7351977,-1.255615,9.471137,2.21164731409526480273,0.079008654,11.3407345,1.3682863,-1.2323298,9.489761,2.14387851409526480280,0.50038815,10.631453,0.46327803,-1.1943092,9.5127,2.06217051409526480298,1.210269,10.179547,0.55844754,-1.1392353,9.538056,1.97433841409526480300,1.6585833,9.868899,0.9720459,-1.0715449,9.562872,1.89041041409526480320,0.6548142,8.8884735,0.7721301,-0.9873782,9.588069,1.80677351409526480322,-0.6159084,7.32506,0.74519527,-0.9026142,9.612601,1.71859731409526480332,-1.6998832,6.347627,0.7254431,-0.81772846,9.635484,1.63070031409526480354,-2.5300727,6.921637,0.25917232,-0.72482675,9.658196,1.53761111409526480355,-4.226963,8.373122,1.2330139,-0.62198776,9.680732,1.43769761409526480360,-4.505289,15.993267,1.5310919,-0.52099955,9.697709,1.36140361409526480388,-3.3518825,19.402012,0.60214174,-0.42812678,9.708385,1.31695711409526480390,-2.385822,19.608511,0.3800795,-0.31598684,9.716842,1.28590141409526480394,-3.2064347,19.608511,0.7188591,-0.18968232,9.72375,1.25821091409526480400,-3.6577415,19.300259,1.0510546,-0.07775551,9.728622,1.2321851409526480424,-3.1124623,16.17762,1.75076,0.012000454,9.730847,1.21690151409526480425,-2.581548,11.510124,2.6168625,0.08921653,9.724949,1.26007961409526480432,-3.0813377,8.628104,4.0773253,0.14251806,9.710348,1.36353531409526480458,-5.479729,7.679402,4.582502,0.15843284,9.690651,1.4955181409526480459,-4.370615,10.338761,3.6403837,0.13876973,9.672626,1.60980141409526480461,-2.0961237,10.913968,2.3529017,0.14750761,9.663296,1.66413741409526480481,-1.0055647,8.783129,1.0791864,0.24154593,9.661874,1.6614031409526480482,0.022146367,8.1720085,1.8626889,0.39797533,9.66205,1.62997031409526480500,1.0079589,8.100183,2.842516,0.57124853,9.657108,1.60758781409526480501,1.4909891,8.206725,3.2429461,0.74682164,9.644516,1.6111961409526480515,2.112883,8.570643,2.783858,0.9182238,9.627053,1.62698861409526480534,2.2266076,8.2037325,1.8854338,1.076337,9.607277,1.64684951409526480535,1.8674773,6.7348895,1.1013328,1.2067077,9.588863,1.66371661409526480551,1.6765398,5.758055,1.0839748,1.3005382,9.572818,1.68528651409526480552,1.5011644,5.433042,1.271321,1.3679212,9.556443,1.7244011409526480565,1.3413515,5.237316,1.4036007,1.4263363,9.536574,1.78596751409526480579,1.0426749,4.8380833,1.4466964,1.4809458,9.5132,1.86446641409526480580,0.908001,4.548983,1.429937,1.5313265,9.488012,1.95014271409526480595,0.9768343,4.3861775,1.7465701,1.5764643,9.462672,2.03543261409526480600,1.2521675,4.5046906,2.0027497,1.6159015,9.4380865,2.11702371409526480613,1.4311341,4.780622,2.030283,1.6490992,9.414703,2.19413451409526480639,1.697489,5.1421466,1.9752164,1.6786863,9.394917,2.25564961409526480640,2.0775685,5.580884,2.1230583,1.7006419,9.3819475,2.292881409526480642,2.4115596,6.0884547,2.516306,1.7138826,9.376534,2.30512571409526480652,2.6288335,6.4380083,2.835932,1.7171628,9.3777075,2.29790471409526480671,2.9269116,6.7330937,2.9221232,1.7090445,9.38416,2.27752181409526480675,3.289633,7.2424603,3.1232362,1.6862483,9.395273,2.24850731409526480681,3.5332432,8.079233,3.271078,1.6449463,9.410287,2.21608381409526480710,3.6218286,9.1668,3.6326025,1.5851785,9.428054,2.18391409526480712,3.3303347,10.00896,4.4963107,1.5119215,9.446635,2.15535861409526480713,2.9047651,10.181343,5.0781016,1.4340369,9.462821,2.1375141409526480737,2.484583,9.791686,5.0930657,1.3580366,9.476626,2.1259511409526480738,0.45729253,16.197971,4.285621,1.2894423,9.487612,2.11966061409526480740,0.6254852,17.10717,2.1517887,1.2008181,9.502101,2.1067761409526480772,1.661576,14.809335,0.20829555,1.1292554,9.514588,2.08992651409526480773,3.3207579,12.632407,-0.04129998,1.1049995,9.517762,2.0884371409526480774,4.8662148,10.161591,1.9614497,1.1368395,9.508979,2.11123231409526480780,5.9382186,8.88608,5.967548,1.2111783,9.481596,2.19152571409526480808,5.436035,10.44231,11.087548,1.3231095,9.428395,2.35056421409526480809,4.8404775,16.42542,10.056246,1.4626522,9.347832,2.57858731409526480812,3.679888,18.546684,3.942053,1.6034937,9.280126,2.7346761409526480832,-0.9044097,16.66963,2.8574798,1.7221413,9.262712,2.72153971409526480849,-4.0306387,15.069704,2.9107506,1.7052046,9.2820635,2.6657041409526480850,-4.1515455,12.377424,1.2210429,1.7052046,9.2820635,2.6657041409526480852,-4.1066546,9.743802,1.352724,1.7052046,9.2820635,2.6657041409526480867,-3.9444473,8.9363575,2.457648,1.6233174,9.27229,2.7495251409526480881,-3.555988,8.759786,1.9901801,1.5122428,9.261229,2.84836171409526480882,-3.2231941,7.827842,1.5059528,1.4006253,9.262319,2.9013921409526480899,-2.8766334,7.193379,1.6232687,1.306503,9.273719,2.90887981409526480900,-2.2816741,7.3687544,1.7064673,1.2297597,9.286712,2.90087461409526480915,-1.3790601,8.245032,1.5304934,1.1692115,9.299128,2.88609621409526480932,0.051475335,10.23222,1.4053963,1.1244797,9.316378,2.84798841409526480934,0.94331545,10.62427,1.7663223,1.093784,9.338439,2.78703551409526480948,1.5328877,10.841544,1.857302,1.069283,9.368176,2.69523531409526480952,1.8249803,11.150395,1.4867992,1.043226,9.402373,2.58407661409526480963,1.9129672,11.377247,0.724246,1.0071247,9.437724,2.46687251409526480979,1.6645688,11.203667,0.24361002,0.9568464,9.470774,2.35781461409526480981,1.0336965,10.688913,0.1945289,0.89026177,9.498975,2.26877021409526480998,0.2633622,10.023325,0.3824737,0.8068211,9.522727,2.19934371409526481000,-0.5374983,9.498995,0.5722142,0.7088313,9.543538,2.14215421409526481012,-0.96187055,8.991425,0.6344634,0.60166824,9.561795,2.09295651409526481032,-1.2366052,8.520366,0.7200562,0.49247316,9.57681,2.05245851409526481033,-1.3180081,7.9266033,0.7685388,0.38370734,9.58825,2.02203321409526481047,-1.2898762,7.541735,0.842759,0.27635288,9.597205,1.99691441409526481052,-1.4634558,7.60997,1.0989386,0.17688072,9.603493,1.97788481409526481063,-1.8112136,7.8086886,1.3940239,0.088181265,9.608032,1.96171871409526481079,-2.019509,7.7889366,1.3012487,0.006399931,9.610944,1.94939221409526481080,-1.9470845,7.574057,0.8912416,-0.07579817,9.6126795,1.93934081409526481094,-1.6531962,7.2508397,0.32680854,-0.16057898,9.613913,1.92803031409526481100,-1.5125369,6.9491706,-0.05207389,-0.24696255,9.615996,1.9084051409526481122,-0.2184709,7.4705076,0.050278235,-0.33501974,9.619931,1.87485111409526481123,0.4914099,8.067862,0.35075054,-0.41458604,9.625933,1.82754281409526481132,1.0684125,8.246229,0.43155485,-0.4835665,9.632834,1.77343361409526481158,1.6136919,8.391078,0.7589619,-0.5440537,9.639108,1.72105231409526481160,2.2697031,8.8777,1.3120226,-0.5984043,9.6437025,1.67670051409526481161,2.717419,9.116522,1.8387469,-0.6457504,9.644149,1.65643331409526481196,3.079542,9.095572,2.11827,-0.6863614,9.639317,1.6682011409526481198,3.0172927,9.045893,2.2290018,-0.72294897,9.629807,1.70720311409526481200,2.5001452,9.123704,2.088941,-0.7596999,9.616988,1.76260131409526481203,2.0135236,8.757391,1.9261353,-0.80064154,9.602755,1.82112061409526481224,1.8423382,8.560468,1.9135658,-0.848341,9.588564,1.87353941409526481225,2.0919337,8.804078,2.0213048,-0.8983295,9.574997,1.91907721409526481232,2.3505075,9.153631,2.2379801,-0.9434243,9.561794,1.96276141409526481251,2.409764,9.3499565,2.520496,-0.98132366,9.548032,2.01059461409526481259,2.268506,9.273342,3.25372,-1.0148287,9.533469,2.0623991409526481261,1.8662802,9.039907,3.4201171,-1.0484664,9.516369,2.123641409526481293,1.3024458,9.005191,3.0813377,-1.0869867,9.498157,2.18492051409526481295,0.7835025,8.98484,2.6390088,-1.1306623,9.480755,2.23769761409526481296,1.0696096,9.200318,1.5448587,-1.1762094,9.465855,2.27695541409526481303,2.468422,10.505757,1.6400281,-1.216912,9.455808,2.29721671409526481327,2.5713725,10.71525,2.319383,-1.237236,9.451372,2.30460331409526481328,2.3349452,10.482413,2.695871,-1.2513146,9.449117,2.3062551409526481332,1.472434,10.527904,2.8263552,-1.2631758,9.447706,2.30556541409526481353,0.6302736,10.943297,2.8263552,-1.2778432,9.446158,2.303831409526481354,0.048482586,11.110293,2.8353333,-1.290684,9.44655,2.29504231409526481360,-0.30705637,10.697892,2.5025394,-1.3014714,9.448856,2.2794041409526481385,-0.079008654,10.17416,1.7274165,-1.296648,9.457852,2.24457761409526481386,0.9516952,9.861717,1.9285295,-1.2679081,9.473731,2.19345241409526481392,1.9985598,9.293094,2.3971944,-1.2095929,9.492901,2.1429271409526481401,1.7142484,8.558074,1.6005238,-1.1270269,9.515151,2.0885651409526481414,0.4249708,7.3298483,0.6889315,-1.0398359,9.5421505,2.0091041409526481435,-1.2042835,6.290765,0.20649989,-0.9582707,9.571465,1.9076651409526481436,-2.223615,6.3589997,-0.28191724,-0.87940985,9.600824,1.79477391409526481441,-3.2740707,7.7590094,-0.45010993,-0.7960119,9.630382,1.67108041409526481474,-4.827309,10.085575,0.23463176,-0.70871717,9.657811,1.54751471409526481475,-5.2301335,13.969568,1.1019313,-0.6222276,9.678649,1.45154041409526481476,-4.8733974,18.360535,1.1354501,-0.5369846,9.694496,1.37796831409526481481,-3.8337154,19.608511,0.3184288,-0.43439183,9.706107,1.33162091409526481502,-4.76925,19.446304,0.4225766,-0.30398723,9.716433,1.29187291409526481504,-4.4262805,17.116747,1.1881226,-0.20299536,9.722483,1.26589911409526481513,-2.9125464,13.293805,2.1918917,-0.12922746,9.721614,1.28215111409526481538,-1.780089,10.326192,3.2273839,-0.07004801,9.712593,1.35316241409526481540,-3.8762126,7.9272017,4.3035774,-0.02712231,9.697093,1.46153091409526481542,-3.6822822,11.067796,4.212598,-0.017425347,9.678788,1.57833771409526481570,-1.8267759,12.435484,2.908955,-0.012347751,9.664382,1.6643211409526481571,-0.12928689,10.815806,1.3736732,0.054933764,9.65955,1.69129011409526481573,0.43754035,8.655638,1.5263035,0.19768213,9.658991,1.68380421409526481582,1.3485341,8.437765,2.920926,0.35940465,9.660436,1.64839911409526481626,1.4856021,7.839215,3.7792473,0.53007054,9.656611,1.62459681409526481628,1.8668787,7.5614877,3.2225955,0.6943743,9.645408,1.62921981409526481630,2.203264,7.2185183,2.2164323,0.84850514,9.63071,1.64312671409526481633,2.5917234,6.815694,1.4293385,0.9859315,9.615813,1.6536231409526481636,2.540248,6.165668,0.9708488,1.1020201,9.600939,1.66670111409526481669,2.1003134,5.401319,0.96905315,1.1941897,9.584744,1.69616151409526481671,1.821389,5.0523643,1.1749545,1.264494,9.565624,1.75222181409526481673,1.483208,4.951209,1.3790601,1.3211089,9.542928,1.83237731409526481674,1.1372458,4.8081555,1.3000516,1.3703249,9.517715,1.92502581409526481681,1.0103531,4.9458222,1.4586674,1.4146295,9.491636,2.01941731409526481707,1.0839748,5.005079,1.6765398,1.4514565,9.466038,2.11134461409526481708,1.2024878,4.9733553,1.9075803,1.4795318,9.442145,2.19710041409526481713,1.2862848,5.130774,2.1625626,1.4977244,9.421062,2.27393871409526481739,1.3958195,5.5922565,2.3876176,1.5057036,9.404003,2.33837341409526481741,1.4754268,5.9878983,2.813187,1.5034562,9.392308,2.3863311409526481742,1.7076644,6.517017,3.2154129,1.4901696,9.386201,2.41847521409526481773,2.0266917,7.045537,3.4943373,1.4655995,9.385703,2.43536261409526481775,2.397793,7.5932107,3.7259765,1.4289407,9.390971,2.43683151409526481777,2.5767596,8.180388,4.2317514,1.3800766,9.401357,2.42492821409526481782,2.622848,9.08001,4.859032,1.3185692,9.414858,2.40670351409526481809,2.7605145,10.219051,5.099051,1.2532258,9.427909,2.39047481409526481811,2.813187,10.93791,4.9637785,1.1834748,9.440522,2.37620191409526481814,2.9460652,10.785878,4.6279917,1.1205409,9.451539,2.36287951409526481849,2.617461,10.125677,4.2880154,1.0736415,9.460401,2.34914681409526481860,2.0386627,11.687894,4.0701427,1.0413442,9.466876,2.3375751409526481862,0.7649474,15.337854,3.685275,1.0203379,9.471705,2.32725051409526481885,0.11671733,15.489886,1.8501194,0.9985408,9.47864,2.3084021409526481886,1.1569979,13.855844,0.20410569,0.9922125,9.489115,2.2677371409526481887,4.575918,9.603143,2.360683,1.0277283,9.492983,2.23549651409526481888,5.0397944,8.400057,6.666056,1.1178764,9.469915,2.2894181409526481893,4.5777135,10.22384,10.351331,1.2345474,9.425141,2.41101431409526481914,4.9865236,15.83525,8.453926,1.359975,9.3554125,2.60713321409526481915,2.8766334,17.35916,4.023456,1.5060736,9.295522,2.7377721409526481931,-1.6262615,15.462353,3.525462,1.6246219,9.275447,2.73808171409526481934,-3.6140475,14.033014,1.8656816,1.6766385,9.280939,2.68764451409526481951,-3.153762,12.238561,0.6464345,1.6850363,9.299056,2.61889841409526481953,-3.0843303,11.2605295,2.35769,1.6717108,9.307179,2.59849211409526481961,-2.7952304,11.178528,2.1877017,1.618922,9.30001,2.65693431409526481986,-2.2469583,10.681731,0.8002619,1.533025,9.294559,2.72606041409526481987,-2.1577742,9.903615,0.011372458,1.4407212,9.302572,2.74897431409526481993,-2.1164744,9.805453,-0.08559271,1.3524255,9.318621,2.73945831409526482023,-2.0895395,10.08318,-0.2681506,1.2737986,9.334712,2.72231081409526482025,-2.0003555,9.90601,-0.19752164,1.1964982,9.349858,2.7053521409526482027,-1.70946,9.283517,0.37349546,1.1270393,9.365014,2.68266081409526482064,-1.0163386,8.729858,1.1575965,1.0606929,9.382532,2.64828921409526482069,-0.48482585,8.5700445,1.6561891,0.9946426,9.40261,2.60230661409526482071,0.045489833,9.138069,2.054225,0.9263148,9.424084,2.54930761409526482074,0.76195467,9.792884,2.0919337,0.8537977,9.444979,2.49675771409526482108,0.6703765,9.4535055,2.042254,0.77922076,9.463741,2.44965581409526482111,0.44532153,9.305663,1.757344,0.6971321,9.480871,2.40779421409526482113,0.011372458,8.78672,1.2964603,0.6081654,9.499619,2.35749961409526482118,-0.19033903,8.414422,0.82899237,0.51594883,9.522033,2.28803091409526482120,-0.1933318,8.269572,0.38965634,0.42393225,9.545173,2.20915081409526482137,-0.33279404,8.181585,0.142455,0.33890522,9.568626,2.12060211409526482138,-0.7068881,8.293514,0.18435353,0.26080534,9.590064,2.032991409526482141,-1.1833342,8.744224,0.30585927,0.18770197,9.608786,1.95099851409526482163,-1.353921,9.355942,0.7870938,0.12083237,9.6244955,1.87745921409526482167,-1.4383167,9.742006,0.89782566,0.062126055,9.636056,1.82014681409526482189,-1.2737153,9.184157,0.9331401,0.008932372,9.642922,1.78448281409526482190,-0.7673417,8.588001,0.7721301,-0.044380557,9.644211,1.77697531409526482195,-0.38307226,7.9702973,0.4914099,-0.10402692,9.641459,1.78936361409526482216,-0.36152446,7.361572,0.62249243,-0.17342809,9.638844,1.79805951409526482217,-0.43155485,7.519589,0.81642276,-0.247997,9.637197,1.7981461409526482221,-0.32321724,8.384495,0.85772276,-0.32951254,9.639838,1.77068921409526482247,0.25438392,8.6017685,0.717662,-0.4081278,9.646135,1.71926951409526482249,1.0606314,8.539519,0.7218518,-0.47858506,9.652622,1.66380481409526482266,2.7287915,8.802881,1.3395559,-0.54102105,9.655592,1.62703011409526482267,2.9484594,8.797494,1.7202339,-0.58753014,9.653729,1.6219461409526482272,2.8951883,8.754997,1.9794062,-0.6296226,9.646739,1.64754811409526482281,2.6916811,8.658031,2.231396,-0.6718296,9.634873,1.69948041409526482293,2.4247277,8.801684,2.3253684,-0.7162776,9.6189995,1.76980141409526482311,2.27928,8.564059,2.0099323,-0.7640255,9.600795,1.84700621409526482313,2.3678656,8.3072815,1.6723499,-0.8165836,9.582151,1.91989081409526482336,2.5623944,8.276755,1.5831659,-0.87115896,9.563543,1.98749261409526482337,2.4881742,8.394072,2.1470003,-0.92048097,9.545514,2.05091831409526482341,2.1972785,8.321647,3.3476925,-0.96289045,9.526527,2.1186131409526482367,1.9381063,8.453327,3.6020765,-0.99882954,9.504505,2.1993521409526482368,1.2384008,8.474277,3.755904,-1.0316832,9.480449,2.2862911409526482375,0.682946,8.3821,3.6176388,-1.0695885,9.455519,2.37055781409526482383,0.81163436,8.444948,2.4067712,-1.1162946,9.432249,2.44068571409526482400,1.3820529,8.822035,1.4532804,-1.1671563,9.415275,2.48209171409526482402,2.1577742,9.727043,1.6406267,-1.2152767,9.406101,2.4937451409526482419,2.296638,10.579977,2.271499,-1.254048,9.403389,2.48475981409526482446,2.1697452,10.998962,2.5600002,-1.286761,9.403276,2.46840671409526482451,1.6454151,11.230003,2.5558102,-1.3172065,9.403283,2.4522711409526482453,0.17896658,11.72261,2.5953147,-1.3492696,9.403191,2.4351341409526482480,-0.02633622,11.435306,2.534861,-1.3901561,9.403812,2.40960261409526482483,-0.08080431,10.740988,2.1948843,-1.4233052,9.409724,2.3667931409526482484,0.044891283,10.547057,2.023699,-1.4400866,9.422334,2.305681409526482496,0.4297592,10.201694,2.7730842,-1.4326361,9.439473,2.23925611409526482497,-0.06464344,9.494206,2.967613,-1.4012665,9.458006,2.18013171409526482511,-0.9900024,8.463503,1.8028339,-1.3598425,9.479674,2.11116461409526482513,-1.9207484,7.398083,0.38726214,-1.3141918,9.507335,2.01342771409526482536,-3.0777464,6.771401,-0.4902128,-1.2623743,9.539623,1.89007081409526482538,-3.454833,7.0593038,-1.3102269,-1.2119843,9.571909,1.75501421409526482542,-3.815759,8.32404,-1.4850036,-1.1459476,9.606082,1.60634921409526482569,-4.1096473,10.703877,-0.81163436,-1.0652843,9.63978,1.45265611409526482570,-3.5332432,14.27842,0.3196259,-0.9694276,9.669777,1.31377721409526482574,-3.2202013,18.410812,1.2904748,-0.8490159,9.693869,1.21592951409526482598,-2.4271219,19.608511,1.4562732,-0.7047858,9.711071,1.16995161409526482600,-2.7060466,19.608511,1.6992847,-0.5372179,9.721861,1.16927751409526482602,-3.0346506,19.029116,2.1440077,-0.38445064,9.724257,1.20888661409526482616,-2.3732524,15.30673,3.0723593,-0.2706352,9.717374,1.29220781409526482642,-1.4610616,10.532692,5.168483,-0.18702962,9.700264,1.42839851409526482645,-4.335301,7.7230964,4.976947,-0.13154206,9.674134,1.60132291409526482649,-4.0120835,10.236409,3.244742,-0.114717394,9.64585,1.76488271409526482679,-2.355296,10.739192,1.5783775,-0.10962394,9.626124,1.86978851409526482683,-1.3868413,8.936956,0.46148238,-0.06224161,9.622375,1.89114221409526482684,-1.050456,7.6009917,0.8343793,0.049400758,9.629653,1.85411691409526482708,0.16340427,8.250419,2.0380642,0.19779561,9.636949,1.80568341409526482709,1.0737995,8.555081,2.7563248,0.35943064,9.636455,1.78324311409526482711,1.8028339,8.341399,2.4049757,0.52745223,9.626255,1.79650061409526482715,1.7729063,7.844003,1.2551602,0.68773156,9.610664,1.8255251409526482735,1.6490064,6.82946,0.46627077,0.82022876,9.595168,1.85212961409526482736,1.4981717,5.8442464,0.16280572,0.9190192,9.580875,1.87952841409526482742,1.3509283,4.9069166,0.492607,0.9866739,9.56673,1.91691851409526482764,1.3497312,4.3041763,1.0630256,1.0413467,9.551347,1.96412161409526482765,1.3730747,4.2197804,1.5280992,1.0833477,9.53324,2.02832031409526482774,1.2300211,4.032434,1.7926586,1.1229726,9.512747,2.1016631409526482810,1.1150994,3.8133647,1.8872294,1.1626581,9.491747,2.1737891409526482812,1.0761937,3.774459,1.8914193,1.2009665,9.471939,2.23840261409526482815,1.1731589,3.9432502,2.0165164,1.2371725,9.454272,2.2927141409526482815,1.5598224,4.380192,2.111686,1.2708641,9.439336,2.33543441409526482842,1.9057846,5.4791307,2.4378958,1.30279,9.427846,2.3640731409526482844,2.1883004,6.2943563,2.791639,1.3310227,9.420784,2.37646961409526482845,2.5611973,7.1580644,3.165733,1.3526164,9.418471,2.37343881409526482872,3.0059202,7.945757,3.5248635,1.3722745,9.417881,2.36448221409526482874,3.4733882,8.695741,4.034828,1.381033,9.42118,2.34616451409526482875,3.8313212,9.492412,4.4885297,1.3765091,9.42723,2.32442781409526482896,4.168904,10.441113,4.7578773,1.3582647,9.434884,2.30401641409526482897,4.2413282,11.227609,4.9063177,1.3296134,9.443358,2.28593951409526482915,3.6942532,10.867282,5.156512,1.2942063,9.452626,2.26787951409526482916,3.0178912,9.864111,4.8895583,1.2537017,9.462294,2.25025271409526482922,1.8261774,10.958859,4.4759603,1.2120534,9.473621,2.22527031409526482947,0.42556936,16.028582,3.9893386,1.1659619,9.487561,2.19023561409526482948,0.34117374,17.815254,2.2571337,1.1024119,9.504324,2.1500921409526482954,1.6938977,16.743849,0.6147113,1.0538948,9.519421,2.10720781409526482962,3.0777464,14.303559,0.7589619,1.0405487,9.530603,2.06282451409526482980,4.43466,11.384429,1.5221137,1.0838063,9.525616,2.06359551409526482982,5.442619,8.523358,4.0934863,1.1598201,9.500063,2.13869431409526482994,5.783194,8.754997,8.69993,1.2628973,9.4534445,2.28207921409526483012,4.670489,16.329653,6.704962,1.3975741,9.388134,2.4657911409526483033,1.8309658,15.448586,4.261679,1.5237881,9.339807,2.5722511409526483034,-2.6623523,13.631986,4.565144,1.6022301,9.317889,2.60387731409526483035,-3.365649,13.191453,2.171541,1.6108339,9.311763,2.62043171409526483042,-2.3906105,12.752117,0.86490536,1.5886954,9.31253,2.63120371409526483076,-3.1860838,12.482769,1.9357121,1.5502006,9.309628,2.66422991409526483078,-3.2638955,12.662932,1.5197195,1.4658098,9.304712,2.7283971409526483082,-2.966416,11.69807,-0.050278235,1.3613805,9.302847,2.7882041409526483102,-2.8820202,9.472659,-0.5327099,1.2443761,9.308961,2.82226821409526483104,-2.5510218,8.119935,-0.08020575,1.1339267,9.316123,2.84507731409526483105,-2.1529858,7.5644803,0.47345337,1.0303174,9.317301,2.88040641409526483128,-1.8046296,7.28376,0.9780314,0.9380491,9.311201,2.93121081409526483129,-1.4933833,7.2843585,1.8010383,0.8603655,9.30529,2.9735091409526483145,-0.7691373,6.932411,2.356493,0.79463416,9.307335,2.98537731409526483146,0.12749124,6.599617,2.2619221,0.73935795,9.318476,2.9647531409526483162,0.76315176,6.994062,1.970428,0.68837315,9.336275,2.92069981409526483163,1.2437878,7.851186,2.0548236,0.6351738,9.356279,2.86827351409526483174,1.3730747,8.459911,2.1200657,0.5793877,9.375159,2.81799341409526483198,1.1049241,8.850765,2.1817162,0.5224188,9.391661,2.77384111409526483199,0.1340753,9.547478,1.5496471,0.4562186,9.408672,2.72747731409526483202,-0.2753332,9.948506,1.0336965,0.37535,9.4326515,2.65605161409526483229,-0.35793316,9.975441,0.5117606,0.28737903,9.464214,2.5527351409526483230,-0.5793968,9.743204,0.18136078,0.19798195,9.498716,2.43014221409526483234,-0.7553706,9.976639,0.14784196,0.109523036,9.5298,2.3111261409526483242,-1.1725603,9.643246,0.581791,0.024815878,9.554784,2.20813971409526483260,-1.3455414,9.306861,0.8074445,-0.051957566,9.572248,2.13067051409526483262,-1.5795746,8.93576,0.89184016,-0.11723054,9.583291,2.07777671409526483277,-1.6011224,8.333019,1.0151415,-0.17463644,9.588765,2.04829341409526483292,-1.6328455,8.058883,1.027711,-0.22897126,9.591143,2.03173451409526483294,-1.3946224,7.743447,0.8038532,-0.28789368,9.589474,2.0321221409526483308,-0.973243,7.8068933,0.8146271,-0.35436523,9.586722,2.0345911409526483331,-0.63087213,8.342596,0.8996213,-0.42460403,9.585898,2.025011409526483333,0.16460137,8.972271,0.9816227,-0.49594346,9.589006,1.99383641409526483335,0.84934306,9.454702,0.98940384,-0.56289256,9.595846,1.94249611409526483343,1.2814964,8.985439,0.8182184,-0.6239542,9.604169,1.88175431409526483372,1.7615339,8.824429,1.1647792,-0.68257326,9.610215,1.82982121409526483373,1.7615339,8.463503,1.407192,-0.7379225,9.610453,1.80695071409526483374,1.8243817,7.9128366,1.6041151,-0.7932136,9.60423,1.81659011409526483392,2.0518308,7.8865004,1.6633717,-0.85010046,9.593469,1.84745571409526483394,2.1458032,7.8865004,1.5765818,-0.90547353,9.581499,1.88292861409526483409,2.4875755,7.909844,1.4203602,-0.9590258,9.569043,1.9194011409526483427,3.0502129,8.041525,1.3377602,-1.010423,9.557278,1.95137971409526483429,3.503914,8.247426,1.4652514,-1.0547541,9.54678,1.97911171409526483444,3.8163576,8.611943,1.6687586,-1.0875986,9.537229,2.0071881409526483446,3.9863458,8.789713,2.203264,-1.107891,9.527365,2.042621409526483464,3.918111,8.548497,2.9358897,-1.1190516,9.5155115,2.09120661409526483465,3.4691982,8.397662,3.4554317,-1.1286335,9.500293,2.1543041409526483474,2.9682117,8.607155,4.1575313,-1.1446294,9.482691,2.22233531409526483494,2.131438,8.458116,4.3999443,-1.1683623,9.464084,2.28832961409526483495,1.7118542,8.289924,3.153762,-1.203318,9.444547,2.35009721409526483510,1.8662802,8.444349,2.0141222,-1.2479285,9.4285345,2.3907761409526483525,2.2373815,9.334992,2.1110873,-1.2950782,9.418565,2.40495281409526483526,2.271499,10.454282,2.48578,-1.3351979,9.414629,2.39841271409526483546,1.9800048,10.971429,2.303222,-1.3689383,9.414921,2.3781621409526483547,0.9720459,11.02889,1.894412,-1.4023476,9.41791,2.34665681409526483567,-0.4878186,11.359888,1.4311341,-1.4430586,9.421976,2.30528881409526483569,-1.5837644,11.92492,1.7106571,-1.4903414,9.428451,2.24801561409526483575,-1.8537107,11.150994,1.3563153,-1.5302927,9.438736,2.17689631409526483595,-1.1378443,9.907805,0.96665895,-1.5469785,9.453673,2.09888551409526483597,-0.6572084,8.416816,1.8543092,-1.5281043,9.472817,2.02509431409526483603,-1.4879963,7.102998,1.1270704,-1.4922811,9.491855,1.9616761409526483634,-2.4762032,6.217742,0.25617957,-1.4381957,9.51609,1.88308931409526483637,-3.0544028,6.583456,-0.1400608,-1.3674258,9.547073,1.77592841409526483638,-3.5739446,8.287529,-0.42676646,-1.2797722,9.582037,1.64836991409526483644,-4.0252514,11.301829,-0.023942016,-1.1775385,9.616661,1.51776961409526483670,-3.6272156,15.740679,0.7308301,-1.0640318,9.647268,1.40301741409526483671,-3.2878375,19.378668,0.8936358,-0.92731696,9.673412,1.3174131409526483674,-2.1140802,19.608511,0.80325466,-0.7704726,9.694937,1.25894861409526483689,-2.7144263,19.608511,0.90620536,-0.59258085,9.711605,1.22637141409526483694,-3.5464113,19.243994,1.2503718,-0.436453,9.720722,1.21962191409526483705,-2.8395233,15.9022875,2.0027497,-0.3233598,9.720409,1.25677531409526483729,-1.982399,11.476007,3.0268695,-0.21630919,9.713131,1.3336651409526483731,-2.6743233,9.030929,4.6698904,-0.13518757,9.695625,1.4652481409526483735,-4.844667,8.552089,4.9021277,-0.09255524,9.671734,1.61844991409526483743,-4.422689,10.624868,3.0585926,-0.082656436,9.650981,1.73842011409526483764,-1.8100165,12.012308,1.8938135,-0.047215924,9.644193,1.77699691409526483766,-0.29269117,7.9541364,1.8764555,0.06605923,9.6483965,1.75342191409526483775,0.7254431,8.079832,3.1914709,0.2262997,9.651844,1.72077231409526483799,1.5113398,8.270171,3.4985273,0.3895571,9.6490755,1.70703891409526483801,1.7621324,7.8039002,2.830545,0.55002743,9.640032,1.71396261409526483804,1.6897079,7.389105,1.6023195,0.6999747,9.627765,1.72817051409526483841,1.4933833,6.843227,0.74758947,0.83696324,9.615038,1.73808631409526483844,1.1504139,5.945401,0.56802434,0.9491245,9.602832,1.74790751409526483846,0.83856916,5.553351,1.0169371,1.0364112,9.589642,1.77060041409526483849,0.8535329,5.4504004,1.4730326,1.1076045,9.57278,1.81810331409526483874,1.0193313,5.2079873,1.5652094,1.1735654,9.550966,1.89002591409526483875,0.93134445,5.009867,1.5705963,1.2414707,9.525058,1.9754591409526483876,0.8367735,5.0344076,1.6460136,1.3082912,9.497413,2.06346631409526483889,0.7254431,4.943428,1.721431,1.3689067,9.469961,2.14856821409526483903,0.7104794,4.823119,1.5161282,1.4207417,9.444053,2.22749951409526483904,1.0528502,4.935048,1.3329718,1.4618845,9.42164,2.2947711409526483920,1.5358804,5.2026005,1.4514848,1.4912986,9.40443,2.34587171409526483923,1.7681179,5.3875523,1.7495629,1.516967,9.389439,2.38907551409526483943,1.8267759,5.6431336,2.2451627,1.530802,9.379733,2.41818931409526483944,1.7304093,6.011242,2.8353333,1.5315937,9.375788,2.43293861409526483957,2.1763294,6.743269,3.8325183,1.5153079,9.377554,2.43633631409526483971,2.8095956,7.378331,4.349067,1.4825146,9.383286,2.43443081409526483975,3.280655,8.404845,4.831499,1.4343994,9.393233,2.42488031409526483996,3.1950622,9.655815,5.2636523,1.3729038,9.406962,2.40719841409526483998,2.712032,10.238205,5.193622,1.3000109,9.42344,2.38309291409526484003,2.381632,9.685144,4.892551,1.2205291,9.442103,2.35103581409526484033,2.2152352,9.431359,4.472967,1.149099,9.459829,2.3155131409526484034,2.005144,12.302606,4.282628,1.0966979,9.4744625,2.2808331409526484036,1.7166426,16.378735,3.721188,1.0522357,9.48788,2.24573371409526484044,1.7256209,16.502035,1.8668787,1.0217127,9.498879,2.21309571409526484069,3.0819361,14.812327,0.6889315,1.0171382,9.505595,2.18620131409526484071,4.4143095,12.627619,1.1366472,1.0635693,9.504314,2.16961431409526484076,5.7484784,10.544662,2.2756886,1.1492375,9.488957,2.19302151409526484108,6.3153057,8.917803,5.4162827,1.2630963,9.454812,2.2762931409526484113,5.4144874,10.177752,10.524911,1.4007218,9.400905,2.41482421409526484118,3.9474401,14.866197,10.834361,1.5483258,9.328815,2.59735941409526484131,3.8187518,16.856377,5.4264584,1.665784,9.26946,2.73362141409526484132,0.038905777,16.136919,4.0797195,1.7618853,9.248655,2.74382071409526484135,-3.4237084,15.19121,3.1322143,1.7902341,9.244518,2.73940681409526484144,-3.8007953,10.506954,0.20231004,1.7546638,9.2504,2.7425621409526484156,-3.5715504,10.364499,1.9057846,1.7016039,9.248989,2.78049521409526484178,-3.0885203,10.714651,1.3910311,1.6071913,9.24318,2.8549851409526484180,-2.5486276,10.456676,0.44113165,1.4947315,9.244146,2.9123781409526484184,-2.0410569,10.15381,0.1364695,1.3928579,9.2527895,2.93534161409526484213,-1.8070238,10.21546,0.0712275,1.3067716,9.264838,2.9369211409526484214,-1.5634137,10.183139,0.27114335,1.2300658,9.277182,2.9310781409526484222,-1.3485341,9.7324295,1.0971429,1.163702,9.28999,2.91758041409526484224,-0.4770447,9.387066,1.6328455,1.1043974,9.305646,2.8906141409526484261,0.08439561,9.124303,1.8166006,1.0507082,9.325886,2.8450451409526484264,0.6823475,9.424176,1.7788919,0.99749863,9.347361,2.793251409526484266,1.0205284,9.74859,1.3904326,0.94245315,9.371447,2.73096591409526484281,1.0354922,9.712079,1.1079168,0.8807167,9.395771,2.66725421409526484281,0.6727707,9.440337,1.1899183,0.812142,9.418433,2.60843421409526484283,0.12868834,9.540894,1.477821,0.7346125,9.439577,2.55442791409526484307,-0.5093664,9.233239,1.46585,0.6481968,9.461075,2.4976541409526484308,-1.01574,8.762179,1.1893197,0.55449444,9.484204,2.43162561409526484331,-1.4059949,8.505402,0.82480246,0.4563488,9.507847,2.35860441409526484333,-1.5568297,8.098986,0.6278794,0.35590369,9.529766,2.28632641409526484335,-1.8722657,7.2807674,0.31483752,0.25901043,9.5479,2.22281861409526484367,-2.1601684,7.7745714,0.44711718,0.17028145,9.563309,2.16437941409526484368,-2.0386627,8.243237,0.7846996,0.086490534,9.575641,2.11423851409526484369,-1.9153614,8.395866,0.6087258,0.013810206,9.585474,2.0709671409526484375,-1.5358804,7.980473,0.2825158,-0.04937515,9.593323,2.0337511409526484391,-0.81642276,7.6650367,0.24181437,-0.108372994,9.598497,2.00686071409526484405,-0.30765492,7.463325,0.19692309,-0.16917993,9.601258,1.98938171409526484407,-0.025737667,7.7853456,0.21188685,-0.23837417,9.60377,1.97006321409526484427,0.7086837,8.104971,0.22146365,-0.31581688,9.608671,1.9349641409526484429,1.228824,8.582615,0.44113165,-0.39357147,9.616908,1.8789831409526484436,1.8489223,8.564059,0.7697359,-0.46724838,9.626041,1.81422511409526484468,2.6713305,8.794501,1.2204443,-0.5368432,9.63193,1.76298181409526484470,3.383007,9.486425,1.7866731,-0.5994335,9.634708,1.72727561409526484471,3.6050692,9.813833,2.0937295,-0.6551681,9.631576,1.72449451409526484476,3.4877534,9.485827,2.1571758,-0.7078733,9.622974,1.75148071409526484501,2.9532478,9.042301,2.0081367,-0.7631126,9.610133,1.79816171409526484503,2.207454,8.561666,2.0213048,-0.8253113,9.594317,1.85426891409526484505,1.9572599,8.376115,1.9913772,-0.89733714,9.576071,1.9141661409526484541,1.8806454,8.287529,1.963844,-0.9725432,9.55666,1.97352481409526484544,1.7878702,8.620922,2.1865046,-1.0452251,9.536896,2.03113341409526484546,1.5580268,8.674192,2.4660277,-1.1102844,9.517323,2.08764151409526484590,1.3634979,8.429385,3.1441853,-1.1697123,9.497472,2.14480731409526484594,1.0576386,8.318055,3.0496144,-1.2249818,9.476475,2.20595051409526484595,1.0348936,8.516774,2.5839422,-1.2807817,9.455213,2.26472381409526484596,1.2611457,8.478467,2.019509,-1.3333871,9.436722,2.31100561409526484597,1.9686323,8.802881,1.4239515,-1.3800832,9.423104,2.33898951409526484610,2.6390088,9.485229,1.5227122,-1.4164577,9.414688,2.3511051409526484611,2.813187,10.486604,2.154183,-1.4407899,9.4101,2.3546911409526484618,2.5210943,10.938509,2.4199393,-1.454424,9.409224,2.34980031409526484624,1.7489643,10.943896,2.207454,-1.4626927,9.411693,2.33473181409526484646,0.8984242,11.180922,1.9841946,-1.4672006,9.4166565,2.3117731409526484648,0.11552023,11.44608,2.521693,-1.4654182,9.424715,2.27984291409526484655,-0.47405192,11.328165,2.8323407,-1.45453,9.435887,2.24025921409526484679,-0.6655881,10.442909,1.9776106,-1.4291018,9.449895,2.19717291409526484680,-0.23104046,9.789292,1.690905,-1.3962197,9.4678335,2.14034681409526484683,0.38367084,9.491214,2.6581624,-1.3361387,9.489911,2.08007961409526484711,0.03172317,9.044696,2.0087352,-1.252427,9.514327,2.0197571409526484712,-0.96426475,8.098986,-0.18016368,-1.1592963,9.543308,1.93692731409526484717,-2.8820202,6.861782,-0.45729253,-1.0637604,9.576657,1.82385741409526484724,-3.2668881,8.219295,-0.47165772,-0.9674557,9.609269,1.70186831409526484742,-3.9713821,10.641029,0.107739076,-0.86168087,9.641531,1.57123881409526484744,-4.228759,14.416685,0.90620536,-0.75043863,9.670082,1.44801271409526484755,-3.6152446,18.77952,1.1611878,-0.6338426,9.691229,1.35967221409526484780,-2.6443958,19.608511,0.55725044,-0.4980818,9.706073,1.30937351409526484782,-3.1783028,19.608511,0.8571242,-0.33977908,9.718134,1.26996151409526484785,-3.651756,19.000984,1.520318,-0.18975985,9.72336,1.2612131409526484818,-2.8353333,15.810111,2.7144263,-0.07106203,9.721529,1.28732821409526484824,-1.4556746,11.534067,3.3686419,0.022793304,9.710196,1.37185481409526484829,-1.2485762,9.551069,4.493318,0.0979997,9.690149,1.50392691409526484831,-3.7900212,8.180388,4.6579194,0.14428574,9.664716,1.65615511409526484884,-3.5021186,11.003751,3.4572272,0.15154015,9.642376,1.78102121409526484886,-1.6579847,11.641207,2.1386206,0.16778453,9.631573,1.83713071409526484887,-0.78050977,9.548675,1.3132197,0.25445777,9.632158,1.82405261409526484889,-0.6787562,7.460931,1.4879963,0.39252865,9.635758,1.78001881409526484890,0.35075054,8.111555,2.9317,0.53851235,9.635085,1.74514751409526484894,1.2120646,8.926183,3.715801,0.6879271,9.628123,1.73101371409526484921,1.5688007,8.48984,2.071583,0.8459585,9.612703,1.74661861409526484922,1.3138182,7.415441,1.055843,0.99405104,9.59563,1.76241951409526484924,1.1097125,6.295553,0.5626374,1.1132426,9.580068,1.77577981409526484926,1.0115502,5.478532,0.7445967,1.2043815,9.565577,1.79432261409526484946,1.0929531,5.1463366,1.049259,1.2711799,9.550517,1.82814431409526484947,1.0594343,4.948815,1.283292,1.325653,9.532831,1.88100311409526484956,1.1145009,5.0385976,1.4562732,1.3764622,9.512124,1.94813791409526484980,0.9756372,4.9865236,1.6065093,1.4251391,9.489769,2.02081371409526484981,0.90859956,5.1170077,1.6627731,1.4685313,9.467173,2.09438351409526484984,1.1665748,5.106832,1.5735891,1.5037813,9.445211,2.16726161409526485005,1.5658079,5.0667295,1.5867572,1.5355207,9.423895,2.2366861409526485006,1.9387048,5.187038,1.785476,1.5587058,9.404843,2.29994821409526485024,2.1057005,5.421071,2.2786815,1.5732615,9.389418,2.352461409526485025,2.1547816,5.783194,3.1118636,1.5786285,9.37814,2.39349151409526485036,2.1092918,6.0740895,3.669114,1.5732241,9.371036,2.42468051409526485058,2.132635,6.4392056,4.1186256,1.5537633,9.369268,2.44397541409526485059,2.3493104,6.899491,4.4544125,1.5181624,9.373564,2.44987921409526485066,2.6611552,7.7649946,4.5783124,1.467547,9.383527,2.44256571409526485097,2.7814639,8.966884,4.743512,1.4072938,9.397996,2.42231251409526485099,2.7377696,10.038289,4.5076833,1.3430846,9.414462,2.39466881409526485100,2.7323828,9.005191,4.5262384,1.2820908,9.431268,2.36174491409526485105,2.4785974,10.3453455,4.459201,1.230327,9.445294,2.33304621409526485129,2.5031378,14.879964,4.0946836,1.1962173,9.455686,2.3085641409526485131,2.6898856,16.096817,2.7389667,1.1793867,9.465139,2.278281409526485136,3.472191,14.627376,1.5011644,1.1821103,9.47398,2.23980671409526485167,4.6830587,12.816162,1.5801731,1.2211473,9.476088,2.2097371409526485168,5.5683146,10.752958,3.1669302,1.3011885,9.464511,2.21366621409526485169,5.7825956,9.368511,7.32925,1.4069285,9.432549,2.28428051409526485194,4.9362454,11.723208,12.124237,1.5289958,9.374551,2.43933841409526485195,4.811747,18.189947,8.262989,1.6574293,9.29258,2.65919231409526485196,2.1272483,19.4894,2.6162639,1.7840315,9.240353,2.75744221409526485204,-2.0428526,17.463905,1.46585,1.8713454,9.229187,2.73688531409526485231,-3.4314895,14.471153,0.6338649,1.8925173,9.2440405,2.67141941409526485233,-2.966416,11.16117,0.62967503,1.8790768,9.256345,2.63809181409526485236,-2.818574,9.035119,2.1218612,1.8430666,9.247187,2.69500141409526485261,-2.777274,8.420407,2.5881321,1.7708714,9.225219,2.8159821409526485263,-2.5312698,7.9541364,1.8794483,1.6755699,9.210608,2.92019941409526485267,-2.409764,7.7093296,1.389834,1.5842987,9.212295,2.9654721409526485289,-2.3092074,7.6644382,0.44113165,1.5069034,9.223735,2.97024681409526485290,-1.903989,9.217078,0.53689975,1.4433169,9.23778,2.95814731409526485303,-1.4143747,10.0508585,1.1210849,1.3891002,9.254502,2.93171531409526485304,-0.33399114,10.84334,1.0773908,1.3441063,9.272601,2.89528131409526485327,0.60453594,11.69807,0.93014735,1.3073549,9.299096,2.82631181409526485329,1.067814,12.5743475,0.88645315,1.2739035,9.335335,2.7201241409526485337,1.2521675,12.83352,0.80086046,1.2328774,9.377652,2.59037381409526485367,1.0714053,11.914146,0.973243,1.1760842,9.418635,2.4650611409526485368,0.6452374,10.802638,1.4915876,1.1035557,9.450724,2.37410471409526485369,0.362123,10.051457,1.9698294,1.0181743,9.473424,2.32119771409526485393,-0.14305355,9.327211,2.2014685,0.9256264,9.49138,2.28633361409526485395,-0.5482722,8.797494,2.0709844,0.82966423,9.507843,2.254551409526485399,-0.7404069,8.089409,1.7256209,0.7344407,9.523239,2.22236351409526485405,-0.9008184,7.3310456,1.3802572,0.6430656,9.537193,2.19061571409526485430,-0.9427169,7.043741,0.82599956,0.55381066,9.549974,2.15908961409526485431,-1.1366472,7.2610154,0.6859388,0.4734186,9.562001,2.12470721409526485438,-1.4909891,8.048708,0.97623575,0.4035238,9.573224,2.08828851409526485453,-1.6424223,8.462306,1.0169371,0.3389261,9.582777,2.05570031409526485457,-1.7711107,8.130709,0.45609543,0.27320728,9.589723,2.03297351409526485471,-1.4514848,7.7147164,0.030526072,0.20037396,9.594659,2.01810381409526485488,-0.5327099,7.2382703,0.17896658,0.12236337,9.598974,2.00377851409526485490,-0.1340753,7.3472066,0.4441244,0.04282105,9.604813,1.9789241409526485505,0.50996494,7.9032598,0.6218939,-0.04330591,9.613744,1.9350541409526485507,1.4927847,8.1343,0.87687635,-0.13017026,9.624866,1.87494461409526485528,2.231396,8.355764,1.2138603,-0.20702523,9.635108,1.81444541409526485529,2.5863364,8.48146,1.4335283,-0.274068,9.643019,1.76279471409526485537,2.468422,8.646061,1.95307,-0.33420274,9.645338,1.73958161409526485561,2.457648,8.971074,2.7509377,-0.39400956,9.639912,1.75706881409526485562,2.0667946,8.757391,2.7275944,-0.4561549,9.6263075,1.81564661409526485565,1.5969325,7.8505874,2.1260512,-0.5265058,9.606321,1.90047241409526485588,1.4700398,7.3088994,1.4263457,-0.6096014,9.582773,1.99229791409526485589,1.6819267,7.2089415,0.86370826,-0.7039401,9.559176,2.07292221409526485606,1.8321629,7.472902,1.1414356,-0.79880565,9.539564,2.12814661409526485608,1.8004397,7.86196,1.9003977,-0.8824633,9.525392,2.15836931409526485619,1.8986019,8.3551655,2.4133554,-0.9490299,9.514839,2.17659471409526485638,1.9387048,8.686164,2.469619,-0.9995093,9.505318,2.19552091409526485641,1.780089,8.799889,2.6102784,-1.043029,9.496379,2.21388481409526485657,1.6573862,9.124303,3.4715924,-1.081554,9.487224,2.2345541409526485658,1.364695,9.4774475,2.6024973,-1.1150233,9.476897,2.2617561409526485665,1.6059108,10.206482,2.2852654,-1.1440599,9.46963,2.27763821409526485694,2.166154,10.53748,2.0368671,-1.1610304,9.466294,2.28290751409526485696,2.72939,10.878654,2.1176715,-1.1673063,9.465501,2.2830041409526485697,2.8688521,11.040262,2.5037365,-1.1659237,9.466136,2.28106931409526485707,2.3439236,10.766725,2.926313,-1.1625118,9.468382,2.2734781409526485730,1.3030443,10.5291,2.735974,-1.1623966,9.471863,2.2589921409526485731,0.5686229,10.460866,2.670732,-1.1675117,9.47689,2.23514911409526485737,-0.19572599,10.326791,2.9340942,-1.1771095,9.48247,2.20625731409526485766,-1.1270704,9.898229,2.416348,-1.1829216,9.490522,2.16819861409526485767,-1.4556746,9.385271,1.5646108,-1.1824439,9.50288,2.11363651409526485768,-0.81881696,8.878299,2.180519,-1.1666363,9.519337,2.04733471409526485790,0.007781155,8.884284,2.303222,-1.1276888,9.538485,1.9788931409526485791,-0.5847838,8.570643,0.76075757,-1.0659549,9.562676,1.89456181409526485799,-1.1569979,7.9708962,-0.75716627,-0.9932212,9.591826,1.78347041409526485807,-1.9608512,7.714118,-1.2689269,-0.9060779,9.623667,1.65361191409526485827,-2.6120741,8.656835,-1.2018893,-0.8046809,9.655733,1.51317751409526485829,-2.5420437,10.879851,-0.545878,-0.6900194,9.685728,1.37147021409526485837,-3.05141,13.891757,0.6895301,-0.55971783,9.71004,1.25389591409526485868,-2.385822,18.06485,-0.053869538,-0.4273948,9.727933,1.16405791409526485869,-2.4091654,19.608511,-0.51714754,-0.28219938,9.7406845,1.09992351409526485870,-3.5972881,19.608511,0.24839842,-0.13193366,9.74827,1.06028761409526485888,-3.2016463,17.253815,1.8124107,-0.014910743,9.749401,1.05799521409526485889,-2.0961237,12.228984,3.1681273,0.07022514,9.742292,1.11946181409526485897,-2.022502,8.924985,4.498705,0.12885976,9.726129,1.24747671409526485905,-4.3305125,7.4465656,5.0703206,0.15376095,9.702683,1.41586051409526485925,-4.8937483,9.109339,3.58412,0.13500606,9.678004,1.57747151409526485926,-3.1280246,11.264719,2.0739772,0.1095028,9.662543,1.67142811409526485937,-1.7304093,9.841366,1.30484,0.14442818,9.660675,1.67955061409526485959,-0.92655605,8.080431,1.7998412,0.2577652,9.662049,1.6579351409526485960,0.13706805,7.891887,3.072958,0.3955794,9.663165,1.62392871409526485967,1.5819688,8.815451,3.8863878,0.5541376,9.657121,1.61349621409526486000,2.4558525,8.893262,3.5685577,0.72292,9.64277,1.63241361409526486002,2.8215668,8.20433,2.123657,0.88992816,9.624189,1.65934311409526486004,2.6360161,7.00304,0.9032126,1.03329,9.607277,1.67420161409526486049,2.5821466,6.0758853,0.56563014,1.1446086,9.593112,1.68299111409526486051,2.3122003,5.470751,0.8595184,1.2308848,9.578613,1.70455121409526486053,2.2200236,4.9637785,1.0995371,1.3029002,9.560655,1.7511991409526486058,1.7926586,4.6178164,1.3551182,1.3685558,9.538844,1.81876391409526486059,1.3724761,4.4687777,1.4742297,1.4269375,9.514697,1.89862881409526486087,1.1168951,4.4077253,1.412579,1.4787892,9.489636,1.98251941409526486090,0.9391256,4.3634324,1.3449428,1.5226568,9.464686,2.06678651409526486092,0.80086046,4.407127,1.3551182,1.5552495,9.441686,2.14620071409526486094,0.8996213,4.522647,1.5759833,1.5743515,9.422018,2.2175161409526486118,1.2186487,4.7387238,2.0260932,1.581518,9.406105,2.27911761409526486119,1.323395,5.0864816,2.5504234,1.5783845,9.394188,2.32987741409526486120,1.4814123,5.7562594,3.1094694,1.5654147,9.38679,2.36813261409526486143,1.6531962,6.541558,3.5859156,1.5424619,9.384162,2.39347391409526486145,1.9249382,7.192182,4.055179,1.5074022,9.386358,2.40715771409526486146,2.3080103,7.8733325,4.455011,1.4596981,9.39285,2.4112331409526486192,2.5941176,8.879496,4.9266686,1.4024662,9.402848,2.4062261409526486194,2.7856536,10.129868,5.01705,1.3448951,9.413244,2.39843651409526486197,2.7593174,10.777499,4.560954,1.2848344,9.42546,2.38333371409526486199,2.5755625,10.25257,4.3209357,1.2302556,9.439127,2.35791041409526486202,2.1338322,9.86471,4.643554,1.1878456,9.451836,2.32856351409526486227,1.7172412,12.539632,4.9164934,1.1614919,9.461814,2.30117681409526486228,1.6531962,16.441582,4.1958385,1.1485941,9.469162,2.27730371409526486229,2.1571758,16.69417,2.2403743,1.1458505,9.475156,2.253631409526486237,5.448006,13.028647,1.0833763,1.1704233,9.479266,2.2235161409526486257,6.5726824,9.885659,3.2974143,1.2579865,9.468967,2.21958111409526486258,6.87914,7.9714947,7.5411367,1.3671116,9.436144,2.29359961409526486266,5.8280854,9.813833,12.71381,1.4958653,9.381204,2.4342961409526486294,4.6980224,16.262016,10.150218,1.6314671,9.295607,2.66465521409526486295,3.128623,18.97285,3.8899791,1.7511227,9.228979,2.8160091409526486298,-1.7274165,16.333244,3.5895069,1.8424586,9.213486,2.808461409526486329,-4.5046906,15.668853,2.8269536,1.8536981,9.218682,2.78389791409526486329,-4.747103,13.573927,-0.05207389,1.8011013,9.2298355,2.7814691409526486330,-4.662708,10.458471,-0.3681085,1.7280085,9.2339525,2.81398251409526486357,-4.5819035,8.940548,0.62249243,1.628561,9.225233,2.90055971409526486358,-4.458602,8.349778,-0.18854338,1.497961,9.215535,3.00006681409526486359,-4.179079,7.6255326,-1.0378864,1.364055,9.219729,3.05062871409526486365,-4.076727,7.025785,-0.78050977,1.2479353,9.236997,3.0481041409526486389,-3.4500446,7.5070195,-0.39564183,1.1539769,9.255665,3.02842781409526486390,-2.6683378,8.578424,0.3357868,1.0697138,9.277091,2.99360681409526486397,-1.7399861,9.124901,1.0755951,1.0054625,9.301497,2.9396571409526486429,-0.49679685,9.288904,1.4568717,0.9569166,9.33018,2.86398961409526486430,0.30705637,9.237429,1.8375498,0.91702574,9.363107,2.76797651409526486432,1.5251064,10.428544,1.9608512,0.8788263,9.397753,2.6608811409526486469,1.8267759,10.887632,1.7399861,0.84424424,9.43107,2.551971409526486470,1.6861166,11.003153,1.6011224,0.8072376,9.461481,2.44931981409526486471,1.1282675,10.757148,1.6095021,0.7623738,9.488742,2.356471409526486471,0.55126494,10.457873,1.6220716,0.7029922,9.513544,2.27347231409526486489,-0.061052144,9.973646,1.423353,0.6292337,9.537198,2.19460561409526486489,-0.492607,9.638457,1.0085574,0.5461159,9.559985,2.11632871409526486497,-0.79726917,9.169792,0.5554548,0.45998338,9.581395,2.03854471409526486519,-0.91578215,8.733449,0.46686932,0.3740265,9.600029,1.9672191409526486520,-0.7942764,8.604761,0.53450555,0.2922066,9.615258,1.90573611409526486537,-0.4333505,9.03452,0.8912416,0.22036067,9.627269,1.85406781409526486538,-0.22685061,9.63726,1.1587936,0.16557927,9.636213,1.8128381409526486546,-0.38845924,9.649231,1.0187328,0.1218962,9.642572,1.78222421409526486572,-0.4213795,8.93935,0.74399817,0.072630644,9.645964,1.76649761409526486584,-0.2861071,8.088212,0.46806642,0.0080816,9.646344,1.76589621409526486587,-0.008379706,7.912238,0.2172738,-0.07324468,9.645902,1.76680681409526486589,0.20949265,7.958925,0.1352724,-0.16476986,9.646105,1.75952321409526486613,0.30107087,7.991845,0.31364042,-0.25563627,9.649795,1.72815071409526486632,0.40940848,7.875128,0.7781156,-0.34782034,9.655083,1.68190561409526486647,1.3664906,7.937976,1.6903064,-0.43790627,9.657857,1.64451491409526486648,2.0045455,8.444948,1.8447324,-0.51557386,9.655647,1.63494751409526486649,2.4941597,8.455123,1.7441759,-0.5773545,9.648987,1.65351071409526486650,2.973,8.44016,1.8195933,-0.6272024,9.638664,1.69504451409526486680,3.056797,8.455722,1.9698294,-0.6711077,9.625169,1.75389711409526486681,2.9364884,8.525154,2.132635,-0.7163801,9.608473,1.82604591409526486683,2.7042508,8.324639,2.2062569,-0.7676143,9.589187,1.90490081409526486687,2.4905684,7.9822683,2.0410569,-0.8269405,9.568969,1.98025851409526486715,2.3056161,7.802105,1.8201919,-0.8913319,9.548721,2.0488651409526486717,2.03148,7.994838,1.939902,-0.95552,9.530049,2.10607271409526486722,1.8303672,8.631097,2.5761611,-1.013702,9.512649,2.15692781409526486756,1.7956513,8.990228,3.3171666,-1.0598934,9.494972,2.21190451409526486758,1.8614918,9.329007,3.292626,-1.0945272,9.475963,2.27564671409526486760,1.7483658,9.449316,2.9340942,-1.1242434,9.457558,2.33689171409526486761,1.9177556,9.375694,2.0482395,-1.1576141,9.442147,2.38247731409526486766,2.3247697,8.979453,1.1647792,-1.1959975,9.431831,2.40427881409526486793,3.0238767,8.910022,1.0133458,-1.2363232,9.425883,2.40720681409526486795,3.3967736,9.412804,1.8195933,-1.2705101,9.422964,2.4008231409526486798,2.8275523,9.936536,2.6755204,-1.2935797,9.421791,2.3930981409526486825,0.28431144,10.770915,2.6647465,-1.3168402,9.41988,2.38792631409526486826,-0.87927055,11.282676,2.369661,-1.352407,9.417535,2.37727211409526486827,-1.6436194,11.096526,2.7503393,-1.3906652,9.416996,2.35724881409526486853,-1.9506758,9.920375,2.582745,-1.4262236,9.418794,2.32864881409526486854,-1.666963,8.907029,2.0069396,-1.4484507,9.425902,2.28577231409526486858,-0.53330845,8.5700445,2.6856956,-1.4418381,9.439899,2.23154691409526486866,-0.30406362,8.271368,2.7730842,-1.3971478,9.459445,2.17652581409526486892,-0.8158242,7.8733325,1.18094,-1.3273644,9.485092,2.10749321409526486894,-1.6597804,7.2322845,-0.10654198,-1.244233,9.518872,2.00333361409526486898,-2.272696,7.29214,-0.92775315,-1.1517932,9.557238,1.8716281409526486938,-2.6150668,8.4664955,-1.2557588,-1.0456438,9.59661,1.72686891409526486941,-2.9819782,10.5362835,-0.83617496,-0.9331633,9.635013,1.570391409526486944,-2.9346926,13.868413,-0.11492168,-0.8044282,9.669502,1.42267841409526486947,-2.6276364,18.371307,-0.16519992,-0.6577947,9.696656,1.30864351409526486950,-2.2176294,19.608511,-0.46267948,-0.49126005,9.717573,1.22386031409526486982,-2.4893713,19.608511,-0.12629414,-0.31090146,9.731986,1.16712491409526486984,-4.2437224,19.608511,0.7182605,-0.14653738,9.738258,1.14685071409526486985,-4.325125,17.350182,2.2523453,-0.051094703,9.735353,1.1792591409526487000,-3.5631707,11.865065,3.5739446,-0.005422025,9.721905,1.28645031409526487001,-5.267244,7.0569096,5.100847,0.019250022,9.69972,1.44410931409526487018,-5.121197,9.703699,3.4608185,0.010054361,9.674259,1.60592651409526487019,-3.181894,11.28926,1.9428947,-0.007988368,9.65273,1.73064261409526487033,-1.4808137,9.531317,1.4532804,0.009447993,9.645113,1.77260411409526487050,-0.8762778,7.2568254,1.7980455,0.10246158,9.647779,1.75506381409526487050,0.7942764,7.814076,3.235165,0.24922128,9.651143,1.72154741409526487070,2.2026656,8.650849,4.200627,0.41935816,9.647623,1.70818641409526487071,2.9975405,8.534731,3.7960067,0.6053999,9.635354,1.72158361409526487078,3.1651347,8.023568,2.4061728,0.7898195,9.618847,1.73907121409526487099,2.834735,7.234679,1.2964603,0.946176,9.604479,1.74044141409526487100,2.6168625,6.237494,0.65182143,1.0663583,9.593106,1.73365811409526487121,2.4588451,5.556942,0.5955577,1.1567012,9.58174,1.73858441409526487122,2.0949266,5.4486046,0.90979666,1.2294567,9.566743,1.77094291409526487127,1.6699557,5.3737855,1.0606314,1.2943077,9.548597,1.8219321409526487162,1.5173253,5.3169236,1.2575544,1.352821,9.525421,1.89911521409526487163,1.2970588,5.083489,1.4939818,1.4051019,9.498821,1.99210681409526487166,0.9840169,4.7399206,1.5646108,1.4496336,9.470642,2.09186481409526487168,0.8218097,4.5543704,1.6130934,1.4826363,9.443194,2.19049051409526487195,1.0384849,4.4238863,1.8028339,1.5027953,9.418468,2.2813311409526487205,1.525705,4.95899,2.223615,1.51146,9.397665,2.3600341409526487209,1.7142484,5.6245785,2.6461914,1.5109111,9.381903,2.4222841409526487228,1.894412,6.227917,3.0113072,1.5026578,9.371512,2.46722081409526487229,2.1176715,6.8366427,3.3620577,1.4868884,9.366362,2.49616461409526487230,2.4492683,7.32925,3.6792896,1.4614203,9.364635,2.51758961409526487252,2.6138697,7.539341,4.209605,1.4338273,9.366384,2.52693081409526487253,2.7036524,8.081029,4.909311,1.3940883,9.371183,2.53136851409526487258,2.9125464,9.188946,5.1762643,1.346292,9.377478,2.53393221409526487267,2.8892028,10.15381,5.0308166,1.2981217,9.385474,2.52945421409526487287,2.8353333,10.627861,4.7884035,1.2563741,9.395751,2.51232431409526487288,2.3403323,10.260351,4.578911,1.2250873,9.407104,2.48515031409526487298,1.8698715,12.686276,4.209007,1.2016152,9.417158,2.4583871409526487319,1.3784616,16.452953,3.4380736,1.184048,9.425218,2.43591671409526487321,1.775899,16.381727,1.7196354,1.1677953,9.432234,2.41653281409526487327,2.8335378,14.546571,1.0241197,1.1767398,9.435994,2.39743521409526487366,3.8839936,12.25532,2.208651,1.207552,9.4337635,2.39088751409526487369,4.5005007,9.7479925,4.781221,1.2723607,9.413682,2.4359941409526487370,4.4220905,9.059061,9.609129,1.3539476,9.370616,2.55514811409526487371,4.1958385,13.052589,10.376471,1.4566234,9.302464,2.7409491409526487388,-0.24301147,17.486052,2.8383262,1.5755048,9.235952,2.89574721409526487389,-3.3357215,15.626356,2.5234885,1.64153,9.230539,2.87626981409526487398,-3.4805708,13.114839,1.049259,1.6626742,9.244815,2.81767921409526487414,-2.7461493,10.502765,0.99658644,1.6651753,9.255286,2.78159831409526487433,-2.5354595,8.698733,1.9818004,1.6463932,9.244924,2.82686541409526487434,-2.0446482,8.829816,2.0057425,1.5939806,9.223398,2.92550061409526487454,-1.9273324,8.622119,1.6490064,1.5207837,9.212499,2.9979141409526487456,-1.7357962,8.271967,1.3263878,1.4522709,9.211035,3.03614121409526487458,-1.3748703,8.447342,1.1683705,1.3862357,9.225214,3.02393341409526487469,-1.2150574,8.89805,1.1300632,1.3313112,9.243921,2.99130961409526487490,-0.8110358,9.1668,1.4203602,1.2869772,9.261471,2.95622251409526487492,-0.30047232,9.206305,1.6280571,1.2499937,9.278243,2.9192681409526487499,0.64823014,9.322423,1.4466964,1.2128885,9.298681,2.8694631409526487521,1.1994951,9.916184,1.2761095,1.1707761,9.326842,2.79458331409526487522,1.5981296,11.250354,1.2192472,1.1176659,9.362255,2.69618081409526487527,1.6657659,12.089521,1.0432734,1.0550995,9.399411,2.59002641409526487552,1.2665327,11.346122,1.0456676,0.9857718,9.431342,2.49969341409526487553,0.6003461,10.238804,1.3682863,0.9080919,9.457972,2.42745451409526487558,0.13467385,9.731832,1.5933412,0.82201755,9.477129,2.38301041409526487567,-0.3393781,8.656237,1.541866,0.7295029,9.49456,2.34340621409526487588,-0.3321955,8.350976,1.4814123,0.63366646,9.512179,2.2994111409526487590,-0.40342298,8.285135,1.0755951,0.5418711,9.5291395,2.2521741409526487621,-0.49559975,8.094796,0.7308301,0.45501435,9.545312,2.2023571409526487622,-0.5327099,8.224682,0.82480246,0.37263563,9.5612755,2.14792231409526487624,-0.46088383,8.565256,1.0755951,0.29741818,9.576188,2.09250021409526487627,-0.207697,8.881291,1.0408791,0.22988486,9.587983,2.0464961409526487675,-0.18375498,8.668207,0.9044097,0.1686179,9.595628,2.01640461409526487677,-0.15622166,8.153454,0.8002619,0.10667846,9.598908,2.00498491409526487679,-0.15622166,7.751228,0.7751228,0.042052258,9.599926,2.00251131409526487681,-0.29927522,7.5926123,0.8571242,-0.030853111,9.598906,2.00760171409526487687,-0.40342298,7.8589673,0.9947908,-0.11427169,9.59969,2.0008151409526487718,-0.5279215,8.146272,1.1408371,-0.20592298,9.60454,1.9699781409526487719,-0.37229836,8.435969,1.2904748,-0.29703268,9.612657,1.91806891409526487721,0.207697,8.783728,1.4454993,-0.38089433,9.620804,1.86158061409526487722,0.9816227,9.051279,1.5448587,-0.45408583,9.625131,1.82237331409526487727,1.6837224,9.11712,1.7100586,-0.51574284,9.623865,1.81263581409526487749,1.9913772,8.868123,1.8285716,-0.5680264,9.617001,1.83332071409526487750,1.9782091,8.72088,1.7022774,-0.6182412,9.605172,1.87851951409526487768,1.6585833,8.2115135,1.4987702,-0.6726862,9.589857,1.93714941409526487780,1.7010803,8.197746,1.5035586,-0.73452514,9.5729,1.99761761409526487780,1.690905,8.626907,1.3688848,-0.7997888,9.555429,2.05535841409526487799,1.822586,8.967483,1.3976152,-0.8667323,9.539574,2.10135561409526487800,2.0069396,9.09617,1.9596541,-0.93048894,9.525228,2.13884041409526487815,2.088941,9.106346,2.8574798,-0.9868802,9.510323,2.1795041409526487830,1.6627731,9.02614,3.229778,-1.0337795,9.492551,2.2345431409526487831,1.2838906,8.895657,3.5332432,-1.077829,9.471295,2.3028721409526487848,1.3078327,8.257602,2.9299042,-1.1215801,9.447159,2.3798391409526487849,1.9608512,7.631518,1.5879543,-1.1643836,9.422961,2.45405911409526487862,2.9526494,7.5333557,1.0043676,-1.2021124,9.403257,2.51079151409526487880,4.0839095,8.292317,1.6136919,-1.2295225,9.388026,2.55414321409526487881,4.019266,8.943541,2.932897,-1.2401088,9.379695,2.57950691409526487896,3.0591912,9.218275,3.4374752,-1.242595,9.374528,2.59703091409526487898,1.9177556,9.808446,3.1172507,-1.2492185,9.3704605,2.60850551409526487912,1.1061212,10.614095,2.5013423,-1.2596501,9.369427,2.60720321409526487928,0.9175778,11.271901,2.2822728,-1.2667309,9.374626,2.58498861409526487928,1.091756,11.073781,2.2385786,-1.2601622,9.387791,2.5400341409526487945,1.1432313,10.198701,1.447295,-1.2349702,9.4081545,2.47626451409526487947,1.6502035,9.967062,2.3648727,-1.191811,9.433748,2.3988261409526487961,1.70946,10.141838,2.586935,-1.1238189,9.459951,2.32738451409526487983,0.81283146,9.425373,1.3413515,-1.0390356,9.488351,2.24988631409526487985,-0.37708676,8.134899,0.04070143,-0.96219116,9.518071,2.15659481409526487987,-2.0003555,7.391499,-0.5506664,-0.882438,9.550312,2.04529711409526487999,-2.7180176,7.848193,-0.504578,-0.8022933,9.582853,1.92239791409526488020,-3.6379895,9.6923275,0.40641573,-0.71500486,9.614426,1.79499141409526488021,-4.5274353,13.454815,1.5849615,-0.62736654,9.6417265,1.67746851409526488027,-4.392163,18.499397,1.3263878,-0.5465732,9.662117,1.58592711409526488046,-3.9366663,19.608511,-0.31423897,-0.46218118,9.679179,1.50674841409526488047,-4.583699,19.608511,-0.65900403,-0.3635657,9.696597,1.41922271409526488063,-5.1726727,19.608511,-0.19632454,-0.27937624,9.710735,1.3393911409526488077,-4.9733553,17.826628,1.1653777,-0.21924132,9.717285,1.30257491409526488078,-3.916914,12.8832,2.2343888,-0.17793913,9.711152,1.35360481409526488093,-2.8508956,8.347982,3.2453403,-0.12626465,9.697478,1.45373581409526488099,-3.7732618,6.3021374,4.355053,-0.091959305,9.676174,1.59173081409526488112,-5.297171,7.2370734,3.9360676,-0.08407862,9.652949,1.72739961409526488127,-3.650559,10.010756,2.8018146,-0.08614708,9.636173,1.81855631409526488128,-1.5717934,9.486425,1.7495629,-0.02845533,9.631581,1.84450791409526488146,1.2509704,7.365163,2.6449943,0.115328215,9.634771,1.8243631409526488147,2.7748797,8.957906,3.7457285,0.31027272,9.635994,1.7949231409526488161,3.12982,8.945336,3.7600937,0.52177083,9.630298,1.77637961409526488179,3.020884,8.86932,2.4372973,0.728903,9.618326,1.76830151409526488180,2.6880898,8.063073,1.1713632,0.9059036,9.605869,1.75413971409526488194,2.333748,7.2747817,0.75596917,1.0452645,9.595326,1.73423211409526488199,1.9183542,6.47033,0.87807345,1.1655949,9.583625,1.72218331409526488213,1.4616601,5.575497,1.1947067,1.2570235,9.569534,1.73617031409526488226,1.0432734,5.0463786,1.4927847,1.3293315,9.55156,1.78072021409526488227,0.789488,4.8141413,1.7543513,1.3889828,9.530476,1.84692791409526488241,0.7541735,4.653131,1.7962499,1.4406896,9.507595,1.92365461409526488247,0.84335756,4.608838,1.8261774,1.4879428,9.484175,2.00171281409526488261,1.0642227,4.827309,2.11827,1.5304619,9.461494,2.07562731409526488287,1.4047978,5.0266266,2.4396915,1.5677199,9.440361,2.14294721409526488288,1.9375077,5.167286,2.3894134,1.5990278,9.422018,2.19979021409526488289,2.2720973,5.583278,2.3008277,1.6240295,9.408617,2.23848961409526488300,2.6581624,6.0519433,2.480393,1.6462177,9.398338,2.26531409526488321,2.9041667,6.622362,2.8293478,1.656261,9.394625,2.2733741409526488322,3.0867245,6.92044,2.9532478,1.6528845,9.397062,2.2657391409526488327,3.6403837,7.2430587,3.198055,1.6326818,9.405593,2.2449031409526488360,3.7523127,7.700351,3.8420951,1.5961244,9.418512,2.2168521409526488367,3.6230257,8.567651,4.26527,1.5418148,9.433892,2.18972421409526488370,2.9520507,9.501988,4.5795093,1.473256,9.450859,2.16360021409526488403,2.4971523,9.423578,4.882974,1.3927101,9.469718,2.13428641409526488405,2.3385365,8.152855,4.9242744,1.3118172,9.488026,2.10401461409526488407,0.97025025,9.76116,4.787805,1.2428977,9.502752,2.07925651409526488409,-0.022744916,15.687408,3.840898,1.1778957,9.514744,2.06218621409526488411,0.52971715,18.261175,2.553416,1.0936325,9.530577,2.03530171409526488432,1.8836381,16.9294,0.50278234,1.0330186,9.544087,2.00340961409526488433,3.9564183,14.417883,-0.03172317,1.0359715,9.548996,1.97834241409526488439,5.8292828,11.584944,1.7723078,1.1068095,9.5395565,1.98550871409526488447,6.607398,9.944916,6.1411276,1.2167289,9.508625,2.06786131409526488471,6.2626333,11.441292,10.643424,1.3546,9.451023,2.23910881409526488472,5.533599,16.615759,9.163807,1.5182699,9.372577,2.4535841409526488479,3.353678,17.488447,4.3299136,1.6739266,9.315124,2.56842781409526488511,-1.2868834,15.573684,3.6864722,1.7759721,9.302919,2.54401761409526488513,-3.6583402,14.304158,2.5719712,1.7869967,9.30769,2.51871821409526488515,-3.7487214,11.973403,1.9285295,1.7335969,9.318347,2.51663611409526488533,-3.5936968,9.628283,2.9502552,1.6696533,9.313032,2.5787721409526488534,-2.9903579,10.115502,2.1571758,1.5683771,9.295268,2.7034391409526488539,-2.8520927,9.697116,1.0271125,1.4397601,9.284856,2.80872541409526488547,-2.5983074,9.346964,0.6254852,1.3110273,9.292605,2.84589341409526488568,-1.632247,9.9790325,0.52732295,1.1975464,9.311181,2.83516981409526488587,-0.85891986,10.415975,0.3866636,1.1064763,9.327766,2.81760361409526488589,-0.4213795,10.247183,0.6548142,1.0379454,9.34061,2.8010851409526488590,0.20111294,9.653421,1.0199299,0.98166203,9.355628,2.77109031409526488627,0.50517654,8.778939,1.2695254,0.9280776,9.375778,2.72100021409526488628,0.60333884,8.7532015,1.1312603,0.86832935,9.399799,2.6570981409526488630,0.9720459,9.173983,1.3563153,0.7995016,9.424537,2.590231409526488633,1.2090719,8.782531,1.4748282,0.7254855,9.44721,2.52869561409526488658,0.81283146,7.849989,1.5711949,0.64863414,9.4624195,2.49244521409526488659,0.19991584,7.3484035,1.751957,0.56758845,9.470049,2.48322561409526488661,-0.5231331,7.1844006,1.6316484,0.48065308,9.475894,2.4792731409526488684,-1.0402806,7.1059904,1.3263878,0.3875449,9.487381,2.45149061409526488685,-1.2605472,7.3525934,1.0049661,0.2935792,9.505882,2.3921561409526488688,-1.412579,7.577648,0.6404489,0.20379473,9.527494,2.3142431409526488710,-1.4526819,7.6267295,0.6218939,0.119954266,9.547989,2.23426371409526488711,-1.5298948,7.77517,0.54049104,0.044053953,9.565212,2.16221671409526488732,-1.2904748,8.698134,0.94211835,-0.017430881,9.579675,2.09760481409526488734,-1.4167689,9.36073,1.0875661,-0.066775784,9.592487,2.03718521409526488740,-1.3251907,9.3738985,0.5129577,-0.10299583,9.602643,1.98721721409526488769,-1.1821371,9.21229,0.19153613,-0.13238822,9.60957,1.9516731409526488770,-0.46986207,8.884883,0.23044191,-0.16598362,9.61324,1.93092311409526488772,0.39683893,8.789114,0.5009867,-0.20520605,9.615706,1.9148021409526488780,0.83378077,9.138668,0.97743285,-0.2497738,9.619385,1.89089161409526488798,1.2132617,9.858126,1.3156139,-0.29679817,9.62529,1.85366921409526488800,1.484405,9.809045,1.3581109,-0.3400367,9.632527,1.80809631409526488808,2.099715,9.816826,1.2635399,-0.37989962,9.637944,1.77090851409526488836,2.3265655,9.567828,1.3299791,-0.41809106,9.638722,1.75801161409526488838,2.284667,9.0476885,1.7076644,-0.46243858,9.636089,1.76133511409526488840,2.124854,8.923788,2.1823149,-0.5116844,9.626909,1.79754981409526488870,1.905186,8.534731,2.4582467,-0.5678058,9.611834,1.8602861409526488871,1.8363527,8.017583,2.4588451,-0.62893814,9.592767,1.93743411409526488872,1.9668367,7.836222,2.2038627,-0.6966271,9.57252,2.01294971409526488879,2.156577,7.9954367,2.1697452,-0.76676923,9.554461,2.07237631409526488893,2.112883,8.66701,2.3959973,-0.83318496,9.538867,2.11807131409526488911,1.9841946,8.931569,2.6342204,-0.8940594,9.523395,2.16240841409526488912,1.9841946,8.804078,3.1561563,-0.9538024,9.506063,2.21255451409526488927,1.5556326,8.459313,2.6809072,-1.0157093,9.485889,2.27082011409526488932,0.99658644,8.432977,2.4313118,-1.0858846,9.464795,2.3257091409526488944,0.9816227,8.704121,1.965041,-1.1616423,9.443854,2.37373351409526488961,1.5939398,8.829217,1.3144168,-1.2315148,9.427226,2.4044081409526488962,2.44029,9.2069025,0.9487024,-1.2854785,9.416228,2.41921451409526488978,2.9909565,9.88925,1.8860323,-1.319937,9.410452,2.42313081409526488979,2.77069,10.38066,2.783858,-1.3372597,9.408087,2.42281531409526488994,1.7938557,10.668563,3.0232782,-1.3448762,9.408235,2.41801861409526489010,0.83617496,11.240178,2.8461072,-1.350615,9.410486,2.4060291409526489011,0.049081136,11.765706,2.984971,-1.355823,9.415503,2.383371409526489025,-0.54647654,11.6507845,2.966416,-1.359108,9.423581,2.34932851409526489028,-0.40342298,10.900801,2.0284874,-1.3561069,9.435426,2.30306241409526489049,0.4237737,10.637438,1.9135658,-1.3349766,9.452539,2.24448231409526489050,1.5089456,10.755353,3.21661,-1.2978567,9.472071,2.18308281409526489060,1.572392,10.649409,2.8874073,-1.2295617,9.494226,2.1256111409526489084,0.5931635,10.319608,1.1797429,-1.1486292,9.521243,2.04866051409526489086,-2.088941,8.938153,-0.30645782,-1.0699636,9.553105,1.94003991409526489088,-3.0591912,8.309675,-0.55605334,-1.0080043,9.584562,1.81397141409526489122,-3.3123782,8.567052,-0.81761986,-0.94555175,9.613862,1.68819631409526489124,-3.4883518,10.050261,-0.29149407,-0.8718654,9.642255,1.56113411409526489126,-4.2658687,12.627619,1.2264298,-0.78422225,9.668612,1.4399031409526489129,-3.8618474,16.592417,1.894412,-0.6926627,9.688088,1.3533431409526489158,-3.8546648,19.463663,1.2503718,-0.5855849,9.700725,1.31279871409526489160,-4.224569,19.608511,0.80086046,-0.464841,9.711528,1.28084121409526489162,-3.9707835,18.510172,1.270124,-0.34840778,9.716922,1.27688051409526489187,-2.9879637,14.304756,2.6126726,-0.23868817,9.715429,1.31295841409526489188,-1.8956091,9.680356,3.7726634,-0.14066249,9.703689,1.41032741409526489190,-2.31639,8.166023,4.8739963,-0.06283983,9.681913,1.55788471409526489219,-4.301183,8.335413,4.518457,-0.020793928,9.653893,1.72403981409526489220,-3.8043866,10.750565,2.973,-0.011522498,9.62907,1.85775381409526489221,-2.4546554,10.833164,1.1324574,0.016811142,9.618323,1.91258251409526489228,-1.364695,9.256582,0.45070848,0.11077018,9.622471,1.888441409526489248,-0.80205756,7.651869,0.9271546,0.25417385,9.630338,1.83368091409526489249,0.22026655,7.1730285,1.9237411,0.412427,9.632844,1.79126971409526489260,1.5089456,8.445546,3.0454245,0.57547784,9.629389,1.7646781409526489280,2.219425,8.531139,1.8776526,0.74687177,9.618272,1.76108321409526489281,1.7483658,7.6530657,0.7374141,0.9128372,9.604649,1.75722541409526489288,1.4263457,6.6630635,0.40821138,1.0456593,9.59243,1.74992881409526489313,1.198298,5.6778493,0.8499416,1.1422818,9.581099,1.75161111409526489316,1.3036429,5.0918684,1.4574703,1.215351,9.567118,1.77864521409526489321,1.377863,4.831499,1.8070238,1.2779772,9.548682,1.83298591409526489330,1.1683705,4.699219,1.903989,1.3382748,9.526424,1.90438461409526489366,1.1246762,4.6471453,1.9716251,1.3961586,9.502584,1.98040991409526489368,1.1390414,4.748899,2.1039047,1.4485213,9.478798,2.05537721409526489370,1.2384008,4.809353,2.0566192,1.4927603,9.456048,2.1272541409526489371,1.4760253,4.96318,2.0320787,1.5322568,9.434014,2.19589451409526489400,1.6484078,5.2648497,1.8950106,1.5621455,9.415253,2.25457641409526489401,1.7543513,5.523423,1.8423382,1.5817468,9.401397,2.29830551409526489403,1.8992004,5.8945246,2.0991163,1.5911555,9.393164,2.32531761409526489409,2.1254525,6.567894,2.6581624,1.5900476,9.390313,2.33755041409526489433,2.273893,7.077859,3.1196449,1.5780963,9.391984,2.33894281409526489434,2.4510639,7.383718,3.4278982,1.5522057,9.397861,2.3326551409526489440,2.815581,7.9224133,3.9145198,1.5084444,9.407934,2.32072141409526489473,3.1453824,8.937555,4.4663835,1.4485207,9.421016,2.30578641409526489475,2.697667,10.7116585,5.1906295,1.3783863,9.4355545,2.28926781409526489476,2.2840683,10.373477,5.6706667,1.300622,9.450113,2.27467751409526489509,1.7735049,9.236232,5.1984105,1.2230455,9.463768,2.26089331409526489511,1.2587515,11.192893,4.565144,1.1558794,9.47776,2.2375031409526489513,0.7493851,15.778388,3.894169,1.1003242,9.492498,2.20276211409526489518,0.5602432,16.906057,2.4648306,1.0482296,9.509955,2.15229031409526489545,1.7034745,15.222933,0.7110779,1.0100192,9.526328,2.09745811409526489546,3.5523968,12.918514,0.30166942,1.0163028,9.5351305,2.05397491409526489548,5.5551467,10.577583,0.76434886,1.0719504,9.529634,2.05119091409526489570,6.361394,8.509591,3.8576574,1.1625,9.505381,2.11346221409526489571,6.289568,8.144476,9.1350765,1.2704788,9.460846,2.24692271409526489572,5.823297,12.39957,11.209054,1.4025431,9.396836,2.42955141409526489593,5.8125234,17.259201,6.4936733,1.5473015,9.32519,2.61095291409526489594,2.2852654,17.207726,4.5280337,1.6869154,9.291973,2.64271351409526489609,-2.6258407,15.73589,4.5423994,1.7646782,9.294162,2.58357571409526489610,-3.8259344,14.824298,1.7926586,1.7593653,9.311148,2.52538181409526489625,-3.5595794,12.2080345,0.50637364,1.7171159,9.327354,2.49446821409526489629,-3.602675,10.753557,1.3491327,1.6562612,9.329097,2.52886561409526489643,-3.0011318,10.554838,1.0618285,1.5621272,9.324606,2.60420511409526489657,-2.1691468,8.46889,-0.51714754,1.4546297,9.3288765,2.65075471409526489660,-2.0374656,8.265383,-0.18495208,1.3622476,9.342088,2.65331271409526489672,-1.6256629,8.832211,-0.022146367,1.2785773,9.356329,2.644761409526489690,-0.92775315,9.374496,0.50278234,1.2046825,9.369408,2.63312031409526489690,-0.15263036,9.424176,1.3449428,1.1412725,9.382265,2.61552981409526489705,0.35194764,8.82802,1.70946,1.0853002,9.398757,2.57990151409526489709,0.44472298,8.574833,1.6573862,1.0364282,9.420615,2.5195711409526489731,0.60693014,8.761581,1.7794905,0.9853226,9.445792,2.44469861409526489733,0.8343793,8.918402,1.7609353,0.92568934,9.469397,2.37571551409526489741,0.7667431,9.096769,1.5400703,0.8550198,9.488727,2.32451731409526489764,0.32680854,9.272743,1.4437037,0.7690388,9.505623,2.28519181409526489767,-0.17717093,9.263166,1.2940661,0.66600364,9.524119,2.24008971409526489769,-0.7116765,9.220071,1.0444705,0.5501069,9.546074,2.17721371409526489792,-1.3275849,8.963891,0.7625532,0.42934462,9.5687475,2.10360151409526489793,-1.6484078,8.626308,0.4830302,0.30612114,9.589378,2.02990721409526489808,-2.0141222,8.149264,0.10414778,0.18749388,9.6054535,1.96735931409526489809,-1.9554642,7.739856,0.19273324,0.07769962,9.616799,1.91872581409526489823,-1.8986019,7.9565306,0.39683893,-0.013614684,9.624526,1.88114751409526489840,-1.6944963,8.536526,0.97144735,-0.083575524,9.630371,1.84914491409526489841,-0.92775315,8.954913,0.78529817,-0.13454583,9.634197,1.82607211409526489858,-0.2873042,8.362348,0.38965634,-0.17299218,9.635856,1.81404851409526489862,0.32800564,8.093599,0.29029694,-0.21084055,9.634607,1.81667591409526489881,0.7404069,7.8463974,0.5081693,-0.2533885,9.631599,1.82715341409526489882,0.985214,8.067862,0.6536171,-0.30276656,9.629728,1.82950151409526489889,1.4598645,8.525752,0.6512229,-0.3584915,9.631793,1.80843411409526489908,2.2140381,8.748413,0.6865373,-0.41154668,9.635877,1.77508141409526489909,2.7736826,8.81964,0.87807345,-0.46166182,9.642153,1.72804731409526489934,3.1238346,8.583812,1.3820529,-0.50785077,9.64695,1.68785141409526489935,3.2130187,8.434174,1.9416976,-0.5532111,9.647398,1.67095111409526489943,2.9945478,8.240842,2.4863784,-0.5993439,9.642571,1.68285311409526489967,2.6491842,8.051102,2.842516,-0.64789325,9.631977,1.72501061409526489968,2.1936872,7.9104424,2.7802668,-0.7000713,9.615906,1.79294551409526489970,1.7459716,7.7997108,2.5222914,-0.76056653,9.596012,1.87309921409526489998,1.673547,7.809886,2.0374656,-0.8299263,9.574907,1.95006851409526489999,1.7926586,8.143877,1.8974048,-0.9001164,9.555285,2.01412341409526490001,1.9129672,8.55987,2.1829133,-0.9600601,9.538196,2.06676241409526490009,1.9500773,8.941146,2.2463598,-1.0112574,9.521757,2.11751771409526490027,1.6555905,9.34397,2.396596,-1.0483056,9.507267,2.16410181409526490046,1.508347,10.01315,1.1761516,-1.0768723,9.494329,2.20645621409526490047,2.0913353,9.576807,0.5919664,-1.1001358,9.486038,2.2305151409526490049,2.8514943,9.626487,1.2791022,-1.1173699,9.480938,2.2435921409526490062,3.0789435,9.79827,2.8526914,-1.1266259,9.477211,2.25467921409526490087,2.5504234,9.822811,3.4512417,-1.1310339,9.472842,2.2707731409526490093,1.6687586,9.840768,3.1651347,-1.1359966,9.4694,2.28261951409526490094,0.35075054,10.272323,2.4594438,-1.1418178,9.468768,2.28233771409526490115,-0.22445641,11.335348,2.1960814,-1.148387,9.47179,2.26644561409526490117,-0.39444473,11.8578825,2.5851393,-1.1539737,9.477553,2.23936181409526490122,-0.5943606,11.465832,2.6868927,-1.147031,9.487657,2.19979021409526490150,0.020350715,10.915166,2.0201077,-1.1280508,9.5017,2.14838811409526490152,0.79726917,10.700885,2.2691047,-1.0861813,9.519489,2.09043341409526490153,1.027711,10.415975,2.28347,-1.0171584,9.5380125,2.04012231409526490161,0.7140707,9.946711,0.80684596,-0.9295479,9.557622,1.9895251409526490179,-0.23642741,8.883685,-0.2136825,-0.8336688,9.580949,1.91854991409526490181,-1.4383167,7.5686703,-0.44352585,-0.7358324,9.605353,1.83470321409526490189,-2.2960393,7.086837,-0.39205053,-0.63466984,9.628565,1.74880651409526490212,-2.6384103,8.1959505,0.18614918,-0.52545226,9.650581,1.66149881409526490213,-3.0400376,11.379042,1.3018472,-0.40353575,9.669421,1.58424021409526490221,-2.8700492,19.604921,1.2180501,-0.28047046,9.683432,1.5241041409526490252,-2.328361,19.608511,0.16220717,-0.15501152,9.693672,1.47617851409526490253,-2.8886044,19.463064,0.25079262,-0.011262788,9.69973,1.4441351409526490255,-2.9574378,17.00841,0.97025025,0.11892822,9.702183,1.42263631409526490277,-2.4420857,12.998719,2.1392193,0.21931064,9.698929,1.43285731409526490279,-1.5771804,9.994595,3.7128084,0.2855871,9.6866255,1.50270181409526490281,-2.698864,8.382699,4.7417164,0.3215932,9.666331,1.62141931409526490289,-4.0294414,8.737639,4.0539823,0.3240419,9.644374,1.74683321409526490313,-2.9861681,10.746374,2.947861,0.31273347,9.630056,1.82608741409526490315,-1.654992,9.925163,1.9213469,0.3395466,9.627173,1.83647781409526490320,-0.91099375,8.078036,1.6142905,0.43541577,9.6297655,1.80234471409526490343,-0.1400608,7.6811976,2.4881742,0.5575357,9.630826,1.76260241409526490344,1.1085154,8.901043,3.6182373,0.70225865,9.626123,1.73636091409526490357,1.4311341,8.584411,3.6613328,0.8555558,9.612569,1.74268421409526490374,1.5047557,7.996035,2.6868927,1.0048776,9.593472,1.76802561409526490375,1.2372037,7.385514,1.6992847,1.1330428,9.57509,1.79003471409526490387,1.2635399,6.335656,1.1456255,1.2334832,9.559462,1.80709391409526490389,1.192911,5.4234653,1.1210849,1.3119322,9.544214,1.83226921409526490406,1.2677298,5.0481744,1.4047978,1.3746881,9.526964,1.87551571409526490409,1.115698,4.9799395,1.6112977,1.4295268,9.506381,1.93793211409526490421,0.908001,5.131373,1.6328455,1.479695,9.483407,2.0114411409526490438,0.7068881,5.115212,1.6292542,1.5275277,9.4596405,2.08620791409526490441,0.81642276,5.040992,1.4610616,1.568609,9.436438,2.1595151409526490454,0.88944596,5.1116204,1.3102269,1.6014247,9.4151535,2.22727041409526490474,1.0013748,5.321113,1.4311341,1.624728,9.396869,2.28680681409526490475,1.1168951,5.5419784,1.70946,1.6396985,9.382346,2.33524561409526490493,1.353921,5.798158,2.183512,1.6461042,9.372652,2.3694191409526490494,1.5927427,6.0980315,2.9269116,1.6440991,9.368583,2.38683841409526490501,1.834557,6.371569,3.5392287,1.6325774,9.370193,2.38842771409526490530,2.2349873,6.588843,3.7301662,1.6106708,9.377087,2.37621021409526490531,2.7275944,7.2568254,3.8899791,1.5770308,9.38978,2.34848451409526490533,2.9981391,8.255806,4.020463,1.5299056,9.407479,2.30848741409526490541,2.9867666,9.362526,4.2173862,1.476988,9.426441,2.26519781409526490563,2.6635494,10.111312,4.766257,1.4105264,9.447438,2.21961951409526490564,2.1338322,10.395025,5.3767786,1.3371564,9.467116,2.18085051409526490569,1.8183962,10.022727,5.194819,1.2670592,9.483186,2.1527071409526490593,1.5071499,11.294646,4.551976,1.2115241,9.496152,2.12736231409526490594,1.0654198,15.814301,3.9552212,1.1681535,9.506814,2.10387971409526490601,2.166154,16.068686,0.9947908,1.126763,9.515277,2.08813831409526490629,3.5194764,13.860632,1.1671734,1.1248516,9.521768,2.05937531409526490631,4.546589,11.58674,2.0530279,1.1693804,9.514624,2.06758261409526490632,5.8424506,10.348937,4.3400893,1.2411212,9.490874,2.13385221409526490642,6.045958,11.520899,9.693524,1.33256,9.446989,2.26915961409526490665,5.602432,16.033968,10.579977,1.4407872,9.378007,2.47941851409526490666,4.380192,18.469471,5.354632,1.5479959,9.300639,2.69670221409526490670,0.19812019,17.490242,3.2848446,1.6432599,9.260189,2.77830981409526490695,-3.0831332,16.499043,2.473809,1.6800673,9.254606,2.77488851409526490700,-3.558981,14.120403,0.1945289,1.6622306,9.267666,2.74185371409526490702,-3.1944637,10.581175,-0.2669535,1.624529,9.277704,2.7304761409526490739,-3.3614593,8.08462,1.0241197,1.5647768,9.272914,2.7811741409526490741,-3.1956608,7.330447,1.6328455,1.4707677,9.260236,2.87319641409526490743,-2.7216089,7.1395097,1.5400703,1.3636148,9.25196,2.951641409526490744,-2.5671828,6.4002995,1.3617022,1.2670594,9.254987,2.98499081409526490767,-2.0231004,6.147113,1.3401544,1.1883947,9.261657,2.99663571409526490768,-1.2503718,6.7564373,1.4694413,1.1220955,9.270975,2.99337651409526490770,-0.6218939,7.929596,1.2617443,1.0773417,9.279366,2.9838051409526490792,0.10235212,8.893861,1.3485341,1.0475737,9.292522,2.95330741409526490793,1.6460136,9.849147,1.6543933,1.0248808,9.315718,2.88746211409526490802,1.733402,10.397419,1.5304934,1.007705,9.347965,2.78755521409526490828,1.650802,10.819398,0.96187055,0.98031396,9.38563,2.66820571409526490829,1.2683283,10.19451,0.5650316,0.9383701,9.422304,2.55147961409526490830,0.62009823,9.339182,0.58418524,0.8791326,9.451337,2.4636921409526490870,-0.04129998,8.96449,0.8230068,0.60663176,9.508192,2.32307361409526490871,-0.6476316,8.516774,0.8846575,0.60663176,9.508192,2.32307361409526490872,-1.0049661,8.234259,0.84455466,0.60663176,9.508192,2.32307361409526490873,-1.1186907,8.12592,0.7086837,0.5039856,9.527349,2.26847461409526490889,-1.210269,8.137892,0.82779527,0.40487933,9.546779,2.20578581409526490890,-1.0923545,8.372523,0.89064306,0.31258273,9.564789,2.14184781409526490904,-1.09834,8.555679,1.0109516,0.2326935,9.580891,2.07913611409526490921,-0.97144735,8.889671,1.2958617,0.16991672,9.594443,2.02192541409526490922,-0.8846575,9.299079,1.4520833,0.124625914,9.604228,1.97829631409526490938,-1.0342951,9.312846,1.335366,0.08850714,9.609626,1.95388261409526490941,-0.90740246,8.8328085,0.92895025,0.048645083,9.611417,1.94646081409526490953,-0.61171854,8.567052,0.53211135,-0.002080606,9.612914,1.93965471409526490969,-0.2825158,8.813655,0.3429694,-0.06358692,9.618021,1.91311621409526490970,-0.025139118,9.178771,0.15382746,-0.1272019,9.625444,1.87217041409526490986,0.81522566,9.398438,0.7080852,-0.19354631,9.636921,1.80629481409526490990,1.377863,9.551667,1.1432313,-0.25163698,9.648298,1.73707811409526491003,1.8142064,9.518747,1.371279,-0.30039456,9.655681,1.68760241409526491027,2.3702598,9.64145,1.6101006,-0.34130746,9.656874,1.67292681409526491029,2.5594015,9.281721,2.0512323,-0.37734848,9.651547,1.69577521409526491030,2.4426842,8.750209,2.1811178,-0.4188855,9.639817,1.75180981409526491067,2.2272062,8.255207,2.1829133,-0.4713171,9.623252,1.82791861409526491068,2.0470424,7.702147,2.1853075,-0.53539664,9.603318,1.9131221409526491069,2.1643584,7.3789296,1.9590555,-0.6114368,9.581816,1.99633051409526491070,2.3762453,7.453748,1.7004818,-0.69381213,9.560149,2.07185361409526491088,2.4223335,7.8386164,1.846528,-0.7781641,9.541614,2.12660881409526491090,2.2822728,8.370728,2.333748,-0.85876435,9.526523,2.16293551409526491104,1.9794062,8.689157,2.777274,-0.92992496,9.512298,2.1958631409526491118,1.7178397,8.598776,3.1962593,-0.99296343,9.496739,2.23525671409526491122,1.2162545,8.428188,2.943671,-1.05325,9.479342,2.28103021409526491136,0.4758476,8.53892,2.7216089,-1.1180797,9.461927,2.32211381409526491153,0.19632454,8.76637,2.0925324,-1.187469,9.446085,2.35197881409526491154,0.8726865,8.884284,0.9403227,-1.2547008,9.4336815,2.36681151409526491172,1.9087774,9.160215,0.47405192,-1.3107946,9.426641,2.36445241409526491174,2.15538,10.189722,2.369661,-1.3510809,9.424425,2.35057351409526491193,1.6244658,10.329185,2.6719291,-1.3811295,9.421008,2.3468041409526491194,0.8110358,10.641029,2.5312698,-1.4083436,9.41726,2.34566831409526491204,0.17357962,11.116877,2.694674,-1.4325967,9.41455,2.34186651409526491225,-0.60573304,11.128848,3.2172086,-1.450398,9.414046,2.33291051409526491226,-1.3587095,10.202292,3.019687,-1.4631178,9.415627,2.31854821409526491230,-1.1486182,9.527725,2.2290018,-1.4661981,9.420962,2.2948081409526491255,0.05207389,8.928576,2.8395233,-1.4426111,9.431445,2.26651291409526491256,0.4213795,8.291719,2.6342204,-1.3824527,9.446226,2.24232361409526491276,-0.37110126,7.6530657,1.186327,-1.2977294,9.468433,2.19887381409526491282,-1.7878702,6.870162,0.18614918,-1.2032688,9.499186,2.1184991409526491284,-2.7886465,6.7983356,-0.38187516,-1.1059829,9.534076,2.01211741409526491291,-2.8700492,8.109759,-0.6859388,-1.0104192,9.568876,1.89368841409526491319,-3.5595794,10.156802,-0.23642741,-0.9012281,9.605371,1.75927071409526491320,-3.481768,13.694834,0.094570965,-0.78344697,9.639298,1.62497841409526491322,-2.903568,18.191744,0.065242,-0.65079826,9.667796,1.51015561409526491343,-1.9668367,19.608511,-0.004189853,-0.49572045,9.691163,1.41632991409526491344,-2.7850552,19.608511,0.39863458,-0.31774697,9.708071,1.35010711409526491350,-4.3718123,19.484013,1.0486604,-0.16889818,9.715857,1.32061551409526491379,-3.7337575,11.892,3.435081,-0.09070465,9.714257,1.33992471409526491381,-4.332308,9.152434,4.799177,-0.034732144,9.69992,1.44247961409526491384,-5.288193,9.785102,4.7381253,-0.0179514,9.678833,1.57805721409526491391,-4.0019083,12.083536,3.265691,-0.025650648,9.656184,1.71109381409526491409,-2.0638018,11.295245,1.7040731,-0.02961999,9.640805,1.79565421409526491411,-1.073201,8.806473,1.1575965,0.024459247,9.636831,1.8169391409526491422,-0.29927522,8.3150625,2.332551,0.14324725,9.6386,1.80201671409526491438,0.94451255,8.618527,3.6403837,0.29562822,9.637064,1.79164491409526491455,1.9231426,8.449138,4.2383356,0.46401927,9.627597,1.8067831409526491456,2.2331917,8.491036,3.696049,0.64088255,9.611829,1.83640831409526491470,2.445677,8.136096,2.4636335,0.8050367,9.595918,1.85490251409526491471,2.735974,7.760206,1.5215151,0.94840485,9.583163,1.85307941409526491488,2.6390088,7.183802,1.0253168,1.0708928,9.571771,1.84520471409526491503,2.3331497,6.413468,0.8631097,1.1691607,9.559105,1.85120711409526491503,1.8686744,5.8466406,0.9804256,1.2522684,9.544799,1.87057351409526491517,1.5376761,5.4222684,1.3461399,1.3174788,9.527188,1.9150271409526491522,1.2336124,5.3318872,1.6130934,1.3719033,9.506042,1.98076941409526491534,1.1791444,5.3139305,1.7226281,1.4198654,9.482201,2.05966931409526491550,1.1444284,5.118803,1.6938977,1.4628361,9.457378,2.14207821409526491551,1.0085574,4.8416743,1.6837224,1.4995694,9.433272,2.22149471409526491572,1.0169371,4.8763905,1.7585411,1.5265771,9.411338,2.2949231409526491574,1.1438298,4.943428,1.8722657,1.5432451,9.392575,2.35972951409526491592,1.4526819,5.191228,2.1110873,1.5507585,9.377811,2.41292571409526491593,1.7699136,5.5940523,2.4546554,1.5503405,9.367829,2.45165971409526491603,1.9632454,5.9705405,2.8006175,1.542057,9.363335,2.47394631409526491625,2.178125,6.3177,3.1854854,1.5299983,9.361493,2.4883631409526491626,2.497751,6.6534867,3.5284548,1.5047756,9.365818,2.4874681409526491630,2.9376855,7.3723454,3.8307228,1.4649532,9.376048,2.4726581409526491655,3.245939,8.400057,4.2173862,1.4114525,9.391122,2.44642931409526491656,3.1268275,9.564238,4.8189297,1.3467108,9.40958,2.41175771409526491677,2.855684,10.626065,5.204396,1.273205,9.428988,2.3756081409526491679,2.5689783,10.53329,5.398925,1.1991763,9.446787,2.3432011409526491682,2.4073699,9.375095,5.005079,1.1367278,9.460249,2.31990151409526491706,2.0602105,12.378023,4.7165775,1.0948917,9.470354,2.29869961409526491708,1.3293805,17.037737,3.8109705,1.0693434,9.478756,2.27597981409526491711,0.943914,16.928802,2.1679497,1.0343268,9.491434,2.2390271409526491723,1.8303672,15.597027,0.98341835,1.0200104,9.501892,2.20091251409526491741,3.277662,13.026253,1.0582372,1.0515223,9.502866,2.1817971409526491745,5.2259436,9.454104,6.4906807,1.125519,9.485419,2.22045541409526491751,4.3502645,10.728417,9.982624,1.2319176,9.434082,2.37715051409526491776,