time,acc_x,acc_y,acc_z,gravity_x,gravity_y,gravity_z1409526409442,4.6034513,12.65994,10.022727,2.8542616,9.098952,2.2874951409526409444,4.9506106,15.231313,4.4161053,2.9777086,9.026616,2.41326481409526409461,2.180519,14.507666,3.4213142,3.0792778,8.994026,2.40747641409526409466,-2.1068976,13.461399,2.8161798,3.1243231,8.991351,2.35894081409526409473,-2.480393,13.490728,0.004788403,3.1022968,9.014799,2.29772691409526409502,-1.477821,14.550761,-1.2018893,3.047202,9.052497,2.22199461409526409503,-1.086369,14.917073,-0.635062,2.9614928,9.097338,2.15369531409526409505,-1.6490064,13.86183,-1.3850456,2.8499742,9.14524,2.10062961409526409535,-2.3654714,10.75655,-0.712275,2.7324686,9.196452,2.03206441409526409536,-1.7806876,9.880272,0.11492168,2.6308038,9.23867,1.97388061409526409537,-1.1546037,9.118916,0.39803603,2.5461102,9.27305,1.9230871409526409564,-0.670975,8.182184,0.8050503,2.4738107,9.29844,1.89464041409526409565,0.001795651,7.7051396,1.1659763,2.41516,9.319237,1.86794691409526409568,0.705691,8.000225,1.3790601,2.3613749,9.340355,1.8308731409526409572,1.2198458,8.715493,1.7483658,2.3067925,9.363163,1.78333591409526409593,1.5233108,9.510966,2.1134815,2.25002,9.386426,1.73285821409526409594,1.5897499,10.168175,1.5717934,2.188465,9.409572,1.68552551409526409611,1.2491747,10.523713,0.50757074,2.1204302,9.434193,1.63406731409526409614,0.84575176,10.878056,-0.4213795,2.0441458,9.462797,1.56439231409526409625,0.19871874,10.957064,-0.88405895,1.9618716,9.495361,1.46954121409526409665,-0.59017074,10.62008,-0.9911995,1.8744748,9.528689,1.36411981409526409672,-0.9259575,10.1621895,-0.75716627,1.7824513,9.560973,1.25740241409526409673,-1.1899183,9.52174,-0.7326257,1.6890578,9.58907,1.1692791409526409678,-1.1007342,9.148843,-0.6913257,1.6005019,9.611656,1.10673051409526409680,-0.7469909,9.068638,-0.44711718,1.5226696,9.628823,1.0666051409526409706,-0.5446809,9.148245,-0.26276365,1.4564146,9.641783,1.04176581409526409707,-0.31124622,8.768166,0.004189853,1.3944888,9.652476,1.02736541409526409708,0.38606504,7.877522,0.34955344,1.3314707,9.661215,1.02882491409526409730,0.55844754,7.7009497,0.18674773,1.2663482,9.667843,1.04859551409526409732,0.91338795,7.7290816,0.21428105,1.190161,9.675116,1.07054211409526409733,0.7200562,8.249222,0.24899697,1.1024916,9.684848,1.07639371409526409744,0.42676646,8.560468,-0.074818805,1.0085206,9.695859,1.0693991409526409759,0.7230489,8.239645,-0.37469256,0.90414566,9.709462,1.03886931409526409778,1.2389994,8.1079645,-0.34715924,0.7950341,9.723073,1.00006971409526409779,1.6118963,8.337808,-0.030526072,0.68397254,9.734507,0.97053531409526409784,1.7938557,8.469488,0.46567222,0.5768993,9.742268,0.962189261409526409793,1.7633295,8.184579,0.9528923,0.47856423,9.745571,0.9824511409526409815,1.7256209,7.8709383,1.4347254,0.38910037,9.744276,1.03347121409526409818,1.4856021,7.5082164,1.8561049,0.3059085,9.73912,1.10741171409526409824,1.3126211,7.3484035,2.3666685,0.22543111,9.731757,1.18847261409526409838,1.3688848,6.453571,2.2547395,0.14513963,9.723554,1.26563741409526409856,1.7848774,6.168062,2.1398177,0.06368425,9.715984,1.32890641409526409857,2.083554,6.3607955,2.0278888,-0.014651567,9.708418,1.38448571409526409881,2.0536265,7.1688385,1.9800048,-0.0838529,9.701981,1.42651681409526409883,2.0254946,8.456321,2.2559366,-0.13773015,9.696795,1.4572461409526409884,2.1697452,9.46009,2.5139117,-0.17608543,9.692103,1.48409351409526409893,2.2756886,11.089942,1.6292542,-0.20557958,9.687742,1.50857091409526409918,2.6856956,11.254543,1.1522095,-0.232262,9.686843,1.51046661409526409918,3.1399956,10.68652,0.89064306,-0.25633463,9.688852,1.49359371409526409924,3.7271736,10.406996,1.0516531,-0.27580962,9.69148,1.47292981409526409941,3.602675,10.733206,1.8776526,-0.2862011,9.693569,1.45712631409526409956,3.1663318,11.028292,2.4839842,-0.29059532,9.693985,1.45347451409526409957,2.397793,10.845734,2.8060043,-0.29165652,9.692978,1.45996561409526409976,1.0833763,10.565612,2.0027497,-0.29822478,9.689616,1.48081741409526409977,0.24839842,10.755353,1.6095021,-0.30992568,9.686825,1.49658131409526409984,-0.0688333,10.570999,1.5520413,-0.3211336,9.686821,1.49424211409526409992,-1.09834,8.770559,0.42916065,-0.32478464,9.690516,1.46928141409526410007,-1.2012907,7.477092,-0.43394905,-0.32177243,9.697594,1.42250631409526410030,-1.0971429,6.251859,0.05327099,-0.29879978,9.70682,1.36336821409526410031,-1.4371196,5.521628,0.2148796,-0.24962972,9.717753,1.29358881409526410033,-1.970428,5.628768,-0.5482722,-0.176473,9.731099,1.20206951409526410061,-2.385822,6.743868,-1.283292,-0.0839041,9.745314,1.09189051409526410063,-2.4821887,9.424775,-1.2970588,0.028412988,9.757657,0.978618861409526410065,-2.4492683,13.345281,-0.7230489,0.14768998,9.767097,0.867390631409526410072,-0.7338228,17.996017,-0.8714894,0.28134137,9.771766,0.77706941409526410091,1.0295067,19.608511,-2.4462755,0.44773692,9.771049,0.704663931409526410106,-1.2192472,19.608511,-1.536479,0.6478291,9.764947,0.629693151409526410107,-2.0404584,19.329588,0.16101007,0.79016405,9.756865,0.591314141409526410123,-1.6663644,15.501858,1.6555905,0.8783056,9.748065,0.61173031409526410137,-2.1996727,11.502942,2.9670146,0.9484952,9.7355,0.700545851409526410138,-4.4077253,11.217434,3.7984009,0.9957522,9.7203865,0.83242871409526410154,-4.4238863,11.896789,2.8778305,0.9895426,9.707852,0.97406461409526410155,-1.9871874,11.816583,1.6166847,0.97765404,9.697452,1.08352761409526410172,-0.11432313,9.901819,1.1139023,1.0372558,9.684421,1.1430191409526410172,0.3752911,7.7877398,1.8543092,1.145034,9.667094,1.18599051409526410189,0.55844754,6.6026096,2.665345,1.2973022,9.64326,1.22268261409526410204,2.207454,7.745841,3.466804,1.4571432,9.6145935,1.26756221409526410205,3.7660792,8.549096,3.3572693,1.624698,9.581491,1.31369111409526410222,4.261679,8.823232,2.6767175,1.8026991,9.545375,1.34406081409526410224,3.7032316,8.489241,1.5131354,1.9676127,9.511214,1.35487891409526410238,2.60549,7.0766616,0.5351041,2.0988405,9.483342,1.35333261409526410257,2.3558946,6.5625067,0.36152446,2.1965947,9.461029,1.35436441409526410258,1.9662381,6.1926026,0.29747957,2.277046,9.439628,1.37072371409526410271,1.5460558,5.703587,0.5243302,2.3481886,9.416873,1.40672841409526410273,1.4221559,5.149928,1.1797429,2.4109573,9.393808,1.45397211409526410292,1.388637,4.9278655,1.3018472,2.4700825,9.368773,1.51498481409526410293,1.4909891,4.784812,1.2988545,2.524491,9.343648,1.57910731409526410306,1.6256629,4.845266,1.4586674,2.5729558,9.320013,1.63940741409526410320,1.6849195,4.84347,1.4921862,2.6140826,9.298624,1.69486461409526410324,1.8549078,4.8021703,1.4820108,2.64777,9.280116,1.74331881409526410340,2.219425,4.9266686,1.6418238,2.6744373,9.265091,1.78210751409526410354,2.3906105,5.2361193,1.8004397,2.6940398,9.254399,1.80793711409526410355,2.3307555,5.5964465,2.1667526,2.7059748,9.2488575,1.81844681409526410371,2.1721394,5.831078,2.7180176,2.7065327,9.249457,1.81455121409526410373,2.2158337,6.0824695,2.9771898,2.6913977,9.256762,1.79975841409526410387,2.813187,6.901885,2.7844565,2.6676946,9.267129,1.7816031409526410403,3.70383,8.439561,2.6809072,2.6300118,9.283403,1.75266371409526410405,4.3783965,10.015544,3.1364043,2.5808237,9.303387,1.71951191409526410419,4.514866,10.702681,3.3806129,2.5228622,9.323127,1.69848971409526410424,4.8362875,10.396222,2.5659857,2.4591029,9.340561,1.69620911409526410436,3.810372,9.822811,2.2936451,2.3999007,9.355633,1.6979441409526410453,3.229778,10.228029,2.3253684,2.3405247,9.36904,1.7068861409526410454,2.9287071,12.341511,4.0665517,2.2913206,9.377001,1.72976951409526410474,1.0432734,13.96059,2.677316,2.264868,9.373647,1.78199051409526410475,2.308609,12.765883,0.83856916,2.2476466,9.370278,1.82109361409526410488,4.0318356,10.633847,0.002992752,2.2730176,9.361293,1.83575071409526410504,5.461174,8.476072,1.2162545,2.3260763,9.345529,1.84955721409526410505,6.415862,7.7248917,4.979341,2.404533,9.3167515,1.89387431409526410521,5.8586116,10.584765,11.476007,2.5043998,9.26881,1.99688271409526410525,6.2530565,17.683575,11.123461,2.617629,9.193228,2.19156671409526410538,4.5914803,19.608511,4.8261123,2.7285745,9.120358,2.3546391409526410554,0.0724246,18.376696,0.7092823,2.8077087,9.092779,2.36823631409526410554,-3.3704374,16.66963,-2.082357,2.8136437,9.1066265,2.30719691409526410571,-2.8209682,14.920067,-2.2242134,2.7629943,9.143031,2.2228971409526410573,-1.7741034,13.434464,0.15502456,2.6992745,9.167196,2.20154791409526410587,-1.3856442,12.441469,1.2138603,2.6149511,9.173495,2.27583381409526410601,-1.5215151,10.525509,1.1641805,2.5144203,9.177276,2.37185241409526410604,-2.2110453,8.605958,1.0654198,2.428887,9.180689,2.44660451409526410617,-2.6210523,8.298303,1.2611457,2.3470097,9.188,2.49852041409526410636,-2.3181858,8.647258,1.6071079,2.2778902,9.199304,2.52080041409526410637,-1.347337,9.247604,1.8231846,2.220682,9.216227,2.51000551409526410653,0.8499416,9.745,1.5370775,2.1695158,9.240404,2.4654691409526410654,1.6753427,9.131485,1.01574,2.1270983,9.26876,2.3949821409526410670,2.0679917,9.456498,0.973243,2.0826519,9.299511,2.31344961409526410673,2.4037786,9.739613,0.7254431,2.029694,9.332218,2.2272081409526410697,2.3786395,9.895834,0.38486794,1.9710336,9.365326,2.13918041409526410699,2.0141222,9.97604,0.24959552,1.9059576,9.398768,2.04960971409526410705,1.6059108,9.911995,0.41479546,1.8339404,9.432316,1.95920031409526410724,1.2503718,9.649231,0.5518635,1.7517619,9.466711,1.8663041409526410725,0.88944596,8.867524,0.50996494,1.6610955,9.500775,1.77381281409526410733,0.5895722,8.270171,0.44113165,1.5679524,9.53199,1.68910341409526410753,0.11911154,8.064868,0.3453636,1.4757094,9.55873,1.61967891409526410754,-0.51116204,7.752425,0.18076223,1.382126,9.581807,1.56495541409526410782,-0.8774749,7.8865004,0.10354923,1.0885587,9.6377535,1.44884531409526410783,-1.1109096,8.26239,0.23283611,1.0885587,9.6377535,1.44884531409526410785,-1.2455834,8.326435,-0.01436521,1.0885587,9.6377535,1.44884531409526410811,-1.0295067,7.9667063,-0.23702596,0.99039406,9.653147,1.41643321409526410812,-0.8283938,7.53994,-0.20590134,0.89066976,9.66736,1.38537311409526410814,-0.78290397,7.3472066,-0.1364695,0.79076284,9.680318,1.35519171409526410836,-0.53330845,7.551911,-0.010175358,0.68304104,9.693048,1.32237351409526410837,-0.089184016,8.002021,0.142455,0.5679466,9.706022,1.28099681409526410855,0.4758476,7.767389,0.1448492,0.451315,9.718401,1.2326321409526410856,1.3329718,7.7769656,0.2873042,0.3375303,9.729053,1.18407171409526410879,1.7549498,7.9248075,0.6027403,0.23397675,9.736611,1.14632021409526410890,2.3253684,8.251018,0.93014735,0.14248258,9.740344,1.1295091409526410891,2.6240451,8.191761,1.1420342,0.06391083,9.740362,1.13650661409526410911,2.6222494,8.313866,1.3377602,-0.006356276,9.737549,1.16211241409526410913,2.5270798,8.408437,1.5071499,-0.070941485,9.7330675,1.19697991409526410914,2.4863784,8.6574335,1.602918,-0.13418822,9.727801,1.23380451409526410935,2.5833437,8.892065,1.4155718,-0.19689941,9.722294,1.26831661409526410936,2.8203697,9.058462,1.2180501,-0.2561522,9.717274,1.29590831409526410953,3.1238346,9.22426,1.210269,-0.3105173,9.712805,1.31734911409526410954,3.3333273,9.425972,1.311424,-0.3577096,9.708261,1.33869181409526410970,3.2190042,9.636064,1.7585411,-0.39636883,9.702967,1.36591841409526410973,3.1627405,9.478644,2.3582888,-0.4308131,9.695812,1.40570081409526410986,2.9735985,9.236232,2.144606,-0.46426418,9.68661,1.45753591409526411003,2.0853498,9.448118,2.244564,-0.50018156,9.67743,1.50583451409526411019,1.8064252,10.149021,1.6220716,-0.541943,9.669137,1.54417681409526411020,2.1015105,9.929353,1.1563994,-0.5793688,9.66327,1.56714961409526411037,2.3241713,10.275315,1.359308,-0.60357016,9.660217,1.57679521409526411038,2.4103625,10.881048,1.6340426,-0.6205451,9.658471,1.58089711409526411050,1.816002,11.440094,1.8614918,-0.62889546,9.659006,1.57431051409526411053,1.0067618,11.730989,1.6986861,-0.63839734,9.660318,1.56239911409526411068,0.6871359,11.939884,1.8531121,-0.65281314,9.662416,1.54335561409526411084,0.33159694,12.091916,1.927931,-0.6679863,9.665897,1.51480081409526411085,0.1388637,11.67712,1.3994108,-0.6820524,9.671613,1.47142271409526411099,0.061052144,10.568604,0.87807345,-0.685223,9.679557,1.41669741409526411105,0.6793547,9.854534,1.7621324,-0.66809696,9.688537,1.36245861409526411130,0.31184477,8.665813,1.4610616,-0.62581474,9.698281,1.31227491409526411131,-0.623091,7.409456,0.19093758,-0.57130295,9.710239,1.24710131409526411134,-1.6603789,6.655881,-0.4902128,-0.5182304,9.723274,1.1660811409526411163,-2.9167361,6.5786676,-0.7673417,-0.45561853,9.737744,1.06731151409526411166,-3.6445735,7.463325,-1.4012065,-0.3826698,9.752166,0.95876441409526411168,-3.5751417,9.396045,-1.6585833,-0.29490247,9.76572,0.845077931409526411211,-2.8341362,12.293029,-1.508347,-0.18285859,9.777377,0.73474741409526411213,-1.3652935,16.14111,-1.5382746,-0.041650254,9.7853985,0.64391721409526411215,0.130484,19.348143,-1.4670471,0.13266134,9.788669,0.57859451409526411215,0.011372458,19.608511,-0.8110358,0.3307064,9.78616,0.54044321409526411216,-1.7764976,16.742054,0.87567925,0.50370556,9.778835,0.53948891409526411238,-1.6340426,13.335704,1.6304513,0.61594033,9.769271,0.5935861409526411239,-2.0003555,11.090541,2.5300727,0.7036615,9.758272,0.671846331409526411255,-3.8732197,10.301651,3.1226375,0.77514434,9.744442,0.78448371409526411256,-4.537611,10.35193,2.5181017,0.79210114,9.732302,0.90843951409526411271,-2.7688942,11.777677,1.7184383,0.7781919,9.723613,1.00805631409526411284,-0.908001,10.868479,0.908001,0.7931487,9.716533,1.06315891409526411285,0.27353755,9.080608,0.6548142,0.8818621,9.707458,1.07610391409526411302,0.8870517,8.858546,1.7770962,1.0270461,9.694026,1.06838661409526411307,1.4437037,8.780735,2.6114755,1.1890347,9.675746,1.06609031409526411332,2.0482395,8.631097,2.5438392,1.3498089,9.653779,1.07376071409526411334,2.5318682,8.498219,1.6567876,1.5014257,9.63063,1.08030771409526411335,2.6605566,7.8248496,0.5201403,1.6383849,9.608263,1.08044551409526411361,2.5121162,6.669049,0.09636662,1.7633706,9.586282,1.07893251409526411363,2.3894134,5.7095723,0.14065935,1.8642886,9.565952,1.08966981409526411366,2.0991163,5.097854,0.4997896,1.9418539,9.546511,1.12416551409526411396,1.8076223,4.787206,0.90261406,2.0041182,9.526405,1.1838581409526411398,1.6328455,4.6142254,1.2922704,2.0571895,9.505087,1.26161351409526411399,1.4520833,4.4957123,1.6370354,2.1063278,9.482415,1.34817351409526411407,1.0378864,4.554969,1.7932571,2.1531937,9.459271,1.43399511409526411437,1.0899603,4.771644,1.5885528,2.1949236,9.437478,1.51219181409526411439,1.3964181,4.914099,1.4652514,2.230184,9.418756,1.57597451409526411440,1.6256629,5.0397944,1.5155296,2.259139,9.403877,1.62288641409526411468,1.963844,5.5222263,1.8483237,2.2820482,9.393179,1.65253671409526411471,2.1027076,5.9651537,2.2882583,2.3030176,9.384189,1.67436461409526411472,2.3930047,6.4541693,2.7629087,2.3155584,9.379148,1.68527961409526411487,2.765303,6.971317,3.1890767,2.318596,9.377418,1.69072321409526411488,3.3740287,7.723695,3.2243912,2.3074532,9.379487,1.6944821409526411507,4.0815153,8.925584,3.074155,2.280563,9.385997,1.69483831409526411508,4.9027267,10.51713,3.0442274,2.239994,9.396679,1.68974441409526411515,4.2664676,11.3551,3.3991678,2.192531,9.409682,1.67960661409526411548,3.4632127,11.841123,3.4374752,2.1300714,9.425417,1.6717341409526411549,2.6461914,11.728596,3.709217,2.056614,9.4429455,1.66478621409526411550,2.3062148,12.340314,3.9312792,1.985726,9.458097,1.66482831409526411555,2.80361,14.8512335,3.7116113,1.9309678,9.468563,1.66975621409526411572,1.6190789,15.805323,2.722806,1.8889294,9.475558,1.6781371409526411592,1.8471266,14.912285,1.110311,1.8561451,9.482783,1.67389871409526411594,2.8257565,12.741941,0.56682724,1.8493694,9.487664,1.65361461409526411595,5.348048,9.264363,2.211644,1.8750314,9.482546,1.65408071409526411624,5.448006,9.432556,6.986879,1.9410008,9.457982,1.7174081409526411625,5.0984526,12.747927,9.388862,2.024775,9.4125805,1.86387111409526411626,5.5683146,17.302896,6.125565,2.1197786,9.352808,2.04985571409526411634,1.4329298,16.959328,4.553173,2.229755,9.304341,2.1512391409526411650,-2.1003134,16.092028,1.8860323,2.291462,9.284482,2.17208961409526411654,-3.0831332,14.343662,-1.1372458,2.3030357,9.295361,2.1125091409526411676,-2.1888988,11.84232,-1.3090298,2.299053,9.316199,2.02315571409526411678,-2.405574,10.825383,0.43035775,2.2841887,9.332382,1.96456661409526411686,-2.0260932,10.676943,0.98700964,2.2209766,9.345264,1.97577271409526411705,-1.834557,9.688137,0.16280572,2.1248174,9.360384,2.00966291409526411706,-1.7190368,8.832211,-0.10235212,2.0271833,9.379909,2.01946831409526411715,-1.5352819,8.820239,-0.06464344,1.9431075,9.400808,2.00488781409526411745,-1.5011644,9.270947,-0.20410569,1.8736613,9.419997,1.98076641409526411746,-0.9379285,9.1512375,-0.29029694,1.8115851,9.438915,1.94818581409526411749,-0.092775315,8.922591,0.06344634,1.7533702,9.459592,1.90058361409526411755,0.6925228,8.713099,0.6194997,1.6954626,9.48311,1.83477911409526411779,1.1492168,9.045294,0.98700964,1.6366096,9.508336,1.75597071409526411780,1.5759833,10.096947,1.4089876,1.5748806,9.533189,1.67583441409526411786,1.5424645,10.247183,0.84814596,1.5099051,9.55762,1.59451221409526411810,0.9403227,9.363723,0.19512744,1.4376721,9.581145,1.518271409526411811,0.52492875,8.9758625,-0.10534488,1.3530499,9.603757,1.45172561409526411815,0.41479546,8.665215,0.049081136,1.2578274,9.626268,1.38679731409526411832,0.18315643,8.236652,0.18674773,1.1611274,9.647862,1.319441409526411834,-0.22026655,7.855376,0.3298013,1.0704721,9.6671295,1.25343841409526411850,-0.5201403,7.687183,0.5267244,0.9884746,9.683254,1.19495091409526411854,-0.3878607,7.8446016,0.47884035,0.9156016,9.696332,1.14595521409526411868,-0.16460137,8.350976,0.39743748,0.8561162,9.706685,1.10351351409526411881,-0.062249243,9.274539,0.30286652,0.8113918,9.715094,1.06253271409526411886,-0.16519992,10.376471,0.31483752,0.7717669,9.72228,1.02569321409526411898,-0.47285482,9.986814,0.25079262,0.7334033,9.72804,0.998870851409526411915,-0.05686229,8.815451,-0.073621705,0.6835204,9.732398,0.99179581409526411916,0.38606504,8.297106,-0.338181,0.6180509,9.735896,1.00035681409526411932,0.40940848,8.16363,-0.61171854,0.53629684,9.740655,1.00120591409526411934,0.20590134,8.4347725,-0.65660983,0.4421714,9.748076,0.97463591409526411947,0.14963761,8.811859,-0.7009025,0.34126085,9.756873,0.92593031409526411969,0.58119243,8.5143795,-0.58119243,0.24016863,9.764689,0.87381371409526411971,1.1563994,8.329428,0.030526072,0.14603662,9.769443,0.840871331409526411990,2.544438,8.395268,0.9091981,0.061124478,9.770429,0.839865571409526411992,2.7850552,8.260594,1.3431472,-0.009514957,9.768947,0.859057251409526411995,2.8742392,8.091804,1.6208745,-0.07179763,9.764275,0.90783291409526412022,2.5713725,7.8326306,1.91596,-0.1289071,9.756686,0.98024091409526412023,2.2529438,7.7213006,2.0548236,-0.18761571,9.746626,1.06698911409526412026,2.042254,7.542334,1.7280151,-0.24962406,9.735167,1.15526371409526412034,2.232593,7.510012,1.3150153,-0.3161127,9.723673,1.23314431409526412048,2.6563668,7.712322,1.2689269,-0.3804794,9.713023,1.29723011409526412070,2.574964,8.071452,1.9710265,-0.43089238,9.70329,1.35310711409526412071,3.0262709,9.036316,2.7844565,-0.4638489,9.693458,1.41141451409526412091,2.6360161,8.907029,2.855684,-0.47527447,9.683157,1.47681691409526412092,2.746748,9.330803,2.5366566,-0.48386955,9.673284,1.53748271409526412095,2.9825768,9.7324295,2.0925324,-0.49072462,9.664655,1.58871251409526412121,3.6332011,9.685144,1.2479776,-0.497176,9.659008,1.62073151409526412122,4.027047,9.623494,0.80325466,-0.50216556,9.656578,1.63362491409526412126,3.6954503,10.119094,1.3431472,-0.5086452,9.656724,1.63074821409526412134,3.2854433,11.145607,1.8962077,-0.52001494,9.657702,1.62135621409526412149,2.585738,11.350311,2.3235726,-0.5295513,9.658483,1.61359611409526412169,1.6639702,11.369465,2.4594438,-0.5389922,9.658421,1.6108361409526412170,0.10654198,11.297041,2.295441,-0.55218256,9.659172,1.60183921409526412190,-0.427365,10.582372,1.6478093,-0.57720834,9.662373,1.5734651409526412191,-0.22984336,10.250176,1.4532804,-0.5990629,9.668998,1.52380441409526412195,0.30406362,10.223241,2.0632033,-0.6006498,9.677507,1.46814911409526412219,-0.27353755,9.694122,1.8171991,-0.5865869,9.686981,1.41022521409526412220,-0.81761986,9.252393,0.338181,-0.55895007,9.698897,1.33767651409526412231,-1.7040731,8.632893,-0.7954735,-0.5147511,9.714283,1.24021691409526412234,-2.9550436,8.15525,-1.3587095,-0.45474675,9.731202,1.1257551409526412249,-3.5290532,8.599973,-1.7890673,-0.38197815,9.747631,1.00409051409526412265,-3.4284968,10.390237,-1.7878702,-0.2936625,9.763001,0.876332641409526412266,-2.2559366,13.690644,-1.5610195,-0.18541735,9.776199,0.7496471409526412280,-0.9343372,17.698538,-1.3754689,-0.04551639,9.785536,0.64157441409526412298,0.18974048,19.608511,-1.5394717,0.12567465,9.789429,0.5671651409526412299,-1.1115081,19.608511,-1.3180081,0.31389835,9.787393,0.528033551409526412315,-2.706645,18.532318,-0.7721301,0.469947,9.782034,0.511220631409526412316,-2.4941597,15.236101,0.61291564,0.5649023,9.775438,0.540451171409526412330,-2.166154,11.116279,2.034473,0.62983215,9.766361,0.626013341409526412334,-2.717419,9.471462,3.0591912,0.67531013,9.754712,0.74828911409526412347,-4.1862617,10.014347,3.4374752,0.688583,9.742998,0.8776241409526412366,-1.5280992,11.415554,2.0081367,0.6764302,9.732982,0.990909041409526412367,0.01616086,9.318831,1.6531962,0.7177669,9.723425,1.05365871409526412381,0.76434886,7.7051396,1.9907787,0.8326288,9.71173,1.07675091409526412398,0.81402856,6.8348475,2.5719712,0.9895488,9.696455,1.0816421409526412398,2.4881742,7.8188643,2.9472623,1.1525528,9.678121,1.08444021409526412414,3.469797,8.277354,2.5061307,1.3237906,9.655724,1.08855661409526412415,3.445855,7.9307933,1.2467805,1.5011082,9.629632,1.08961511409526412430,2.6599581,6.8887167,-0.17896658,1.6708449,9.602457,1.08234571409526412434,2.4157495,6.1836243,-0.66498953,1.8112622,9.577527,1.07734931409526412448,2.31639,5.7640405,-0.60932434,1.9221123,9.554446,1.09015441409526412464,1.8154035,5.21517,-0.24959552,2.012649,9.530953,1.13162451409526412468,1.5466543,5.1050367,0.3549404,2.0879629,9.50586,1.2039321409526412479,1.1468226,5.1768627,0.9235633,2.1508439,9.478897,1.30183141409526412486,0.9175778,5.096657,1.2773066,2.203495,9.450746,1.41364591409526412497,0.78410107,4.9542017,1.5933412,2.248433,9.422996,1.5238531409526412517,0.7661445,5.0236335,1.738789,2.2848015,9.398035,1.62080691409526412519,0.8984242,5.1888337,1.8698715,2.3123767,9.376017,1.70694091409526412535,1.0133458,5.4982843,2.018312,2.3360207,9.357871,1.77304211409526412537,1.1420342,5.876568,2.030283,2.3530736,9.34493,1.81816121409526412557,1.8261774,6.525397,2.48578,2.3630023,9.337194,1.84482561409526412558,2.380435,6.7606273,2.7862523,2.3667338,9.333493,1.8587321409526412568,2.984971,7.138911,2.9526494,2.362406,9.333775,1.86281781409526412582,3.3560722,7.776367,3.3441012,2.3481221,9.338388,1.85774241409526412599,3.7942111,8.845378,3.6804867,2.3210135,9.347607,1.8454081409526412599,3.9426517,9.705495,3.8863878,2.2824123,9.3606615,1.82729021409526412615,4.156334,10.533889,3.9875429,2.2347152,9.3764925,1.80494621409526412616,4.5884876,10.720038,4.283227,2.1846364,9.39342,1.77803161409526412632,3.903746,10.071808,4.4364557,2.1427116,9.408397,1.7496471409526412634,3.204639,11.827356,4.3544545,2.099021,9.422807,1.72488531409526412648,2.4893713,15.699379,4.098873,2.0548615,9.436445,1.70336411409526412665,2.7850552,16.837822,2.0506337,2.004758,9.449081,1.69298721409526412669,4.220379,14.65012,-0.35194764,1.9763921,9.457249,1.6806911409526412695,6.2249246,12.261306,-0.7104794,1.9987624,9.456528,1.65814051409526412697,8.081628,9.584588,0.6841431,2.0702655,9.440507,1.66169541409526412698,6.6600704,6.667852,5.495291,2.1805632,9.403525,1.72894681409526412715,6.505645,8.347384,10.557233,2.2910671,9.351486,1.86309051409526412716,5.975329,14.045585,10.227431,2.4244928,9.282508,2.03157111409526412734,5.8801594,18.384476,5.209184,2.5472643,9.224943,2.14061981409526412735,-3.8720226,16.127342,3.1681273,2.6472874,9.195416,2.14628961409526412748,-4.2610803,14.874577,-0.8415619,2.6065857,9.215057,2.11159131409526412767,-3.1196449,12.979566,-2.022502,2.5423067,9.247219,2.04842261409526412769,-2.5809495,12.372037,-1.4131776,2.471176,9.272657,2.02027321409526412783,-2.3971944,11.700463,-1.353921,2.3670886,9.297462,2.0308841409526412798,-2.3427265,10.178948,-1.7124528,2.2413154,9.326492,2.04045441409526412799,-2.1589713,9.852738,-1.1761516,2.1216044,9.356915,2.02911971409526412814,-1.8148049,10.195708,-0.4866215,2.0183659,9.3851595,2.00384331409526412815,-1.3251907,9.792884,0.08738836,1.934297,9.408305,1.97804331409526412829,-0.90261406,8.546701,0.6859388,1.8684877,9.426317,1.95542471409526412836,-0.23343466,7.477092,1.2395979,1.8107381,9.441933,1.93429981409526412853,0.46627077,7.2352777,1.5801731,1.7565316,9.458374,1.903721409526412857,1.1456255,8.05589,2.0817583,1.6982774,9.477171,1.86265731409526412869,1.8034325,9.147048,2.4139538,1.6366599,9.496714,1.81773821409526412893,1.951873,9.2308445,2.1410148,1.574403,9.515443,1.7742581409526412894,1.602918,8.842385,1.5155296,1.5085207,9.533808,1.7324171409526412896,1.1228806,8.809465,0.65062433,1.4338858,9.553745,1.6853241409526412923,0.6386533,8.907627,0.04129998,1.352808,9.577067,1.61867181409526412925,0.24061728,8.875306,-0.25139117,1.2704558,9.60269,1.53123341409526412927,-0.59017074,8.206725,-0.7751228,1.1915631,9.627476,1.43605691409526412954,-0.6733692,8.158242,-0.5189432,1.114931,9.650006,1.34338451409526412956,-0.39863458,8.513183,-0.12569559,1.0416063,9.669772,1.25737151409526412957,-0.4177882,9.194932,0.32920274,0.9788518,9.685291,1.18633461409526412967,-0.40162733,9.894038,0.62368953,0.9272908,9.696575,1.13444361409526412988,-0.22565351,9.441534,0.6512229,0.8814566,9.704423,1.10345531409526412990,0.016759412,8.268375,0.19812019,0.83359677,9.7096,1.09507741409526412995,0.29029694,7.7727757,-0.12150574,0.77477187,9.713538,1.10330621409526413021,0.47046062,8.069058,-0.091578215,0.70015633,9.718512,1.10937241409526413023,0.8571242,8.371924,0.02813187,0.61324406,9.726412,1.09143231409526413027,1.01574,8.539519,0.10115502,0.5219325,9.736409,1.04896031409526413053,1.417966,8.519168,0.09636662,0.4282319,9.7460165,1.00108411409526413055,2.7018566,8.732252,0.075417355,0.33576167,9.753006,0.96775181409526413057,3.210026,8.977059,0.6817489,0.25362265,9.757711,0.94506171409526413067,3.4332852,8.857349,1.0247183,0.18017407,9.758856,0.95008051409526413088,3.1860838,8.696938,1.3066356,0.11135769,9.756663,0.982596461409526413090,2.586935,8.702325,1.5065514,0.04401662,9.751197,1.04049381409526413096,2.1763294,8.754398,1.6639702,-0.02551502,9.742772,1.11718371409526413120,1.9883845,8.6496525,1.4879963,-0.09694778,9.73232,1.2012371409526413121,2.6252422,7.797915,1.091756,-0.16811675,9.72097,1.28251841409526413127,3.0178912,7.6369047,1.62686,-0.2308278,9.709662,1.35630111409526413148,2.8508956,7.8529816,2.6036944,-0.28124404,9.697887,1.42908991409526413149,2.7132292,7.949348,3.7295678,-0.32023513,9.685226,1.50472991409526413166,1.7908629,7.6889787,3.3123782,-0.34988216,9.6711035,1.58673321409526413169,1.8070238,8.478467,2.6844985,-0.3841662,9.65771,1.65875121409526413193,2.486977,9.32781,2.1045034,-0.4127687,9.6468315,1.71425381409526413194,2.6850972,9.099164,1.3299791,-0.43014243,9.640231,1.74680551409526413196,4.028843,9.815628,0.92296475,-0.44495022,9.637369,1.75884591409526413223,4.2544966,10.644022,1.4862007,-0.448599,9.638042,1.75422191409526413225,3.406949,11.28926,2.0644004,-0.44849014,9.640204,1.74233511409526413227,2.6922798,11.373655,2.344522,-0.45885772,9.641802,1.73074711409526413266,2.0452468,11.51611,2.835932,-0.4790119,9.643033,1.71838331409526413270,0.98820674,11.376648,2.9376855,-0.49983472,9.646109,1.69503451409526413271,0.074220255,10.644022,2.3289597,-0.5203297,9.65241,1.65246241409526413272,-0.0664391,10.291476,1.8315643,-0.54276234,9.660156,1.5991171409526413305,0.092176765,10.428544,2.429516,-0.54661965,9.670188,1.53592121409526413308,-0.45789108,10.081385,2.2164323,-0.530705,9.682035,1.46523851409526413309,-0.5518635,9.434352,0.66858083,-0.5036457,9.697357,1.37040191409526413310,-2.782661,7.7093296,-1.6226702,-0.45591813,9.716709,1.24423461409526413316,-3.715801,8.26658,-2.2493525,-0.3987668,9.737316,1.09363731409526413334,-3.9097314,10.1065235,-2.5061307,-0.32776827,9.756482,0.934874241409526413336,-3.0669725,13.136386,-2.1511903,-0.23885457,9.772884,0.77724241409526413347,-1.7226281,17.116747,-1.6340426,-0.11968539,9.784831,0.64277041409526413372,-0.34356794,19.594746,-1.7256209,0.038793914,9.791126,0.55023581409526413373,-0.84216046,19.608511,-1.6998832,0.23157197,9.791229,0.498600331409526413376,-2.1799207,19.247585,-1.1372458,0.4152881,9.786618,0.469075951409526413399,-2.034473,16.022596,0.63087213,0.55403644,9.779074,0.482844831409526413400,-1.2587515,11.040262,2.5276785,0.66115594,9.768495,0.55657031409526413416,-1.2904748,8.459911,3.8774097,0.7502752,9.75395,0.684063431409526413418,-3.4237084,8.922591,4.36044,0.8116899,9.737029,0.83776581409526413436,-3.8935704,10.02572,3.477578,0.83117807,9.721662,0.984290061409526413437,-1.5688007,11.41735,2.3768437,0.848605,9.70952,1.08419641409526413447,-0.11911154,9.927557,1.7357962,0.93047017,9.697841,1.12094321409526413468,0.44113165,8.166023,1.8489223,1.0774518,9.683557,1.11275231409526413482,0.74399817,6.892308,2.3062148,1.2427422,9.666359,1.08972591409526413484,2.393603,7.9996266,2.9897594,1.4061038,9.646274,1.06895821409526413498,3.6882677,8.722076,2.5875335,1.5766606,9.621358,1.05547491409526413499,2.8832173,7.5566993,0.29149407,1.7500072,9.592414,1.04568361409526413514,2.5300727,6.949769,-0.2633622,1.8932328,9.566957,1.02926491409526413516,2.2379801,6.2362967,-0.089782566,2.0036578,9.545034,1.02374771409526413528,2.0380642,5.5407815,0.44532153,2.0902941,9.5245495,1.04116561409526413550,1.869273,5.125387,0.8936358,2.1616073,9.503266,1.08892361409526413551,1.6424223,5.1026425,1.2324153,2.2231147,9.4803295,1.16254271409526413556,1.459266,5.179257,1.5676036,2.2783191,9.455682,1.2528811409526413597,1.364695,5.155315,1.9375077,2.327681,9.430356,1.34932631409526413599,1.3192052,5.3079453,2.131438,2.369591,9.405714,1.44498631409526413602,1.417966,5.3420625,2.291251,2.406392,9.381654,1.53761041409526413604,1.6837224,5.6323595,2.2643163,2.4338925,9.3607235,1.61969351409526413629,1.8914193,6.0489507,2.1033063,2.4529681,9.34414,1.68534261409526413631,2.397793,6.5990186,2.2158337,2.4639404,9.333015,1.73037711409526413635,2.7383683,6.907272,2.4690206,2.4670722,9.327135,1.75741521409526413661,3.0400376,6.9731126,2.8089972,2.4595716,9.326187,1.77289351409526413663,3.3010056,6.9916677,3.2632968,2.4389715,9.330063,1.78093351409526413665,3.7367504,7.471705,3.6182373,2.4037414,9.338503,1.78459861409526413681,4.377199,9.548675,3.9851487,2.3576167,9.350372,1.78398361409526413682,4.50888,10.282497,3.7337575,2.3065748,9.363928,1.77959471409526413700,4.4723687,10.114903,3.095703,2.2562733,9.378558,1.76698731409526413700,3.7313633,10.555437,3.2465374,2.21128,9.393528,1.74420481409526413707,2.6862943,14.204799,4.344279,2.1701727,9.407301,1.72145821409526413741,2.203264,16.93838,3.5727475,2.129069,9.418961,1.70899021409526413743,3.2363622,16.003443,0.90021986,2.0953195,9.428517,1.69795851409526413744,4.38498,13.417107,-0.32561144,2.1049929,9.430657,1.67395161409526413748,5.3683987,10.044873,0.27473465,2.1589293,9.42107,1.65917431409526413776,6.209362,7.2221093,3.3063924,2.2383711,9.39545,1.69870381409526413778,6.2219315,8.066066,8.759786,2.334891,9.35081,1.81136081409526413779,5.485116,13.270461,10.305841,2.4576025,9.284565,1.98178221409526413806,4.7123876,17.996017,6.397307,2.5803695,9.218561,2.12843351409526413808,0.3286042,15.729306,3.7008374,2.6711545,9.181638,2.17551281409526413809,-2.5480292,14.122199,2.2319946,2.7036593,9.177597,2.15228821409526413839,-3.0585926,12.658144,0.35194764,2.6712172,9.193237,2.1258791409526413841,-2.0739772,13.177088,0.5255273,2.6069367,9.209148,2.1367871409526413850,-1.400608,14.48911,1.2515689,2.5132751,9.223915,2.1847691409526413852,-1.5981296,13.636176,-0.86251116,2.393658,9.245352,2.2280631409526413882,-1.9141643,12.021287,-1.8830396,2.2705402,9.278707,2.21824571409526413883,-2.1134815,10.788872,-1.252766,2.155889,9.314358,2.18295381409526413884,-1.894412,9.244612,0.31304187,2.0539255,9.340686,2.16872671409526413898,-1.0283096,8.032547,1.2635399,1.9718264,9.35577,2.17987871409526413899,0.007781155,7.153875,1.7118542,1.9064035,9.369069,2.1809591409526413909,0.91697925,7.451953,1.8602947,1.8496833,9.382915,2.17025141409526413944,1.8830396,8.492832,2.042254,1.7912188,9.402718,2.13326361409526413946,2.4432828,8.987833,1.8309658,1.7294145,9.425892,2.08136531409526413950,2.2469583,8.759187,1.4772224,1.6626908,9.450312,2.02422051409526413952,1.8854338,8.5538845,1.0600328,1.587702,9.475273,1.96693161409526413979,1.4706384,8.605359,0.5410896,1.5034541,9.501231,1.90699031409526413980,0.7374141,8.449737,-0.09995792,1.4090533,9.530893,1.8294811409526413982,0.001197101,8.170812,-0.362123,1.3066443,9.564757,1.72582861409526413999,-0.65541273,7.6919713,-0.58418524,1.2034765,9.598007,1.61254351409526414001,-1.1240777,7.369353,-0.58119243,1.1033932,9.626724,1.50967411409526414008,-1.3700819,7.6069775,-0.4854244,1.0077752,9.649756,1.42723691409526414037,-1.6490064,8.046313,-0.48123455,0.91419005,9.669536,1.35451961409526414039,-1.5478514,8.590396,-0.07182605,0.82979435,9.685153,1.29601471409526414040,-1.2653356,8.985439,0.24420857,0.7554912,9.697347,1.2494341409526414049,-0.90740246,8.99322,0.24779987,0.6863246,9.706771,1.21571661409526414073,-0.55006784,8.719084,0.12749124,0.61457026,9.71399,1.19629321409526414075,0.25917232,7.545925,-0.4914099,0.5355693,9.720226,1.18354431409526414077,0.8900445,7.8667483,-0.41120413,0.450041,9.727273,1.1610361409526414104,1.6184803,8.546701,-0.16699557,0.3601207,9.735429,1.1234531409526414105,2.6240451,9.057265,0.2172738,0.27603954,9.743201,1.07900251409526414109,3.323152,9.438541,0.6619968,0.2042478,9.748969,1.04223291409526414130,3.8660371,9.377489,1.0761937,0.140114,9.753006,1.01471321409526414131,4.1383777,9.305065,1.3251907,0.08135096,9.754486,1.00686481409526414145,4.0282445,9.181165,1.6101006,0.026052525,9.753426,1.01999961409526414147,3.6349967,8.892664,1.7537527,-0.025809601,9.749819,1.05391861409526414162,3.2369606,8.422802,1.8866309,-0.079955034,9.743953,1.10425411409526414176,2.980781,8.288128,1.8064252,-0.138774,9.736436,1.16316251409526414177,2.8245595,8.429385,1.7316064,-0.19940515,9.728159,1.22210911409526414190,2.689287,8.516175,1.733402,-0.25746107,9.719498,1.27885951409526414197,2.460641,8.597578,1.8010383,-0.31272012,9.710223,1.33574321409526414208,2.3948002,8.706514,2.2301989,-0.3657381,9.700125,1.39434931409526414232,2.1763294,8.598177,2.8951883,-0.41558254,9.689212,1.45494221409526414234,1.7106571,8.504205,2.6264393,-0.46646324,9.677256,1.51773871409526414236,1.1079168,8.974665,2.4756045,-0.5211923,9.666213,1.569421409526414248,1.3006501,9.352949,0.6985083,-0.57826227,9.656854,1.60659771409526414270,3.527856,10.089166,0.21188685,-0.62780875,9.651634,1.61931961409526414271,4.350863,10.533889,0.79607207,-0.6492536,9.650681,1.6165471409526414276,3.9438488,10.92175,1.5705963,-0.6566188,9.652158,1.60470471409526414315,3.0160956,11.152191,2.1272483,-0.66306657,9.654101,1.59030021409526414317,1.809418,11.57836,2.5737667,-0.6759456,9.654635,1.58160951409526414318,0.4345476,11.614272,2.6162639,-0.69688076,9.654098,1.57580261409526414341,-0.53211135,11.077373,1.8435353,-0.7249666,9.655034,1.55727521409526414342,-0.6362591,10.419566,0.57760113,-0.7498044,9.660164,1.51308981409526414344,0.11671733,10.094553,0.88944596,-0.76648146,9.668335,1.45127371409526414365,0.599149,9.611523,1.7280151,-0.75294036,9.679736,1.38064351409526414368,-0.7038953,8.430583,1.2976574,-0.71092314,9.6935,1.30424231409526414368,-1.2072762,7.74225,-0.05566519,-0.6576288,9.709323,1.21117831409526414376,-2.814384,7.313089,-1.1228806,-0.58756346,9.727148,1.0989891409526414392,-3.8007953,7.872135,-1.8249803,-0.5066087,9.74464,0.977622331409526414396,-3.9498343,9.844358,-2.1320367,-0.41411176,9.760872,0.85104111409526414408,-3.4446578,13.385384,-1.7717092,-0.30508476,9.775016,0.72553171409526414438,-2.4013844,18.213291,-1.3162124,-0.17187771,9.785267,0.62404031409526414439,-0.95229375,19.608511,-1.489792,-0.013893136,9.790509,0.562246261409526414440,-0.75716627,19.608511,-1.1647792,0.16680743,9.791486,0.519000771409526414470,-1.9566613,17.144878,0.40102878,0.3377136,9.787297,0.514919341409526414471,-1.4856021,12.461222,2.019509,0.45600578,9.779691,0.565763951409526414473,-1.6645688,9.697714,3.2758665,0.5449715,9.768329,0.6731641409526414477,-4.0240545,8.959103,3.9282866,0.60312676,9.75362,0.820686161409526414498,-4.0545807,10.7990465,3.3842041,0.61488634,9.738415,0.97753871409526414500,-2.232593,11.5203,2.0057425,0.61432064,9.724922,1.10403681409526414508,-0.7787141,9.560646,1.2563573,0.66589195,9.7135315,1.1723071409526414532,0.12988544,7.374141,1.2360066,0.790878,9.701719,1.19228271409526414534,0.75237787,7.055712,2.441487,0.9510147,9.687359,1.19207781409526414537,1.9255368,7.511808,3.0334535,1.1147935,9.668973,1.19940611409526414569,2.4666264,7.4268136,2.8006175,1.282234,9.646397,1.2138121409526414570,2.707842,7.3747396,1.8166006,1.4463661,9.621339,1.22810071409526414572,2.7252002,7.0461354,0.6500258,1.5925299,9.597236,1.23584871409526414577,2.5623944,5.9837084,0.09636662,1.7150884,9.575384,1.2413211409526414600,2.1134815,4.8757915,0.29747957,1.8111788,9.555527,1.2577551409526414601,2.0763714,4.4448357,0.7044938,1.882199,9.53679,1.29513721409526414609,1.9111716,4.1946416,1.0821792,1.9405717,9.51704,1.35297371409526414634,1.5915456,3.9552212,1.2761095,1.9952874,9.495454,1.42322891409526414635,1.3156139,3.5769374,1.543063,2.0462599,9.473548,1.49503091409526414637,1.110311,3.3123782,1.5328877,2.0924091,9.452666,1.56183061409526414666,1.1719618,3.3560722,1.4790181,2.1322975,9.434387,1.61741751409526414667,1.347337,3.5003228,1.3347675,2.1699762,9.4173765,1.66571431409526414669,1.6651673,3.9737763,1.5831659,2.2028096,9.403846,1.69872891409526414677,1.9033904,4.5441947,2.006341,2.2306721,9.394155,1.71591931409526414698,2.1799207,5.3845596,2.5264814,2.2521663,9.3885145,1.71870161409526414700,2.6210523,6.543353,3.2291796,2.264699,9.387115,1.70986191409526414709,3.1866825,7.9756846,4.056975,2.265301,9.3899355,1.69349971409526414736,3.7978024,9.332,4.5364137,2.2517512,9.396303,1.67615871409526414738,4.420295,10.672154,4.6339774,2.2231607,9.405907,1.66038581409526414739,4.772841,12.098499,4.6686935,2.182198,9.418389,1.64389041409526414769,4.734534,12.8371105,4.23235,2.1342704,9.43229,1.62702271409526414770,4.3957543,12.554595,3.34051,2.0863836,9.447189,1.60249291409526414771,4.6920366,13.484742,2.4061728,2.043165,9.462477,1.56761351409526414777,3.4638114,16.059109,3.4332852,2.0219998,9.474565,1.52136221409526414794,2.7222073,18.423382,2.677316,2.0006166,9.481838,1.50421861409526414817,3.549404,17.221493,0.23403321,1.980834,9.485061,1.51007391409526414819,5.000889,14.069527,-1.0414777,1.9986193,9.482308,1.50391011409526414821,7.0371575,11.168951,2.6366146,2.0548644,9.468723,1.51367761409526414829,5.023035,6.9000893,8.728063,2.143096,9.432472,1.61431841409526414853,4.6579194,10.8624935,12.421717,2.225221,9.377652,1.81064511409526414855,4.797382,16.626534,8.508993,2.321951,9.303898,2.05339671409526414858,1.073201,16.53316,4.7919946,2.4300854,9.247479,2.17926761409526414887,-3.3883939,14.984112,2.700061,2.4978719,9.219925,2.2190111409526414888,-4.232949,13.4260845,0.12629414,2.5058143,9.2244835,2.19092661409526414890,-2.5049336,12.6060705,-0.5638345,2.4833949,9.243713,2.13469271409526414915,-1.6927006,13.132795,0.049679685,2.447505,9.25685,2.11915661409526414916,-1.1336545,13.522451,-0.64583594,2.3765585,9.2683325,2.14950851409526414918,-0.9684546,12.0889225,-1.922544,2.2798488,9.289225,2.16401931409526414928,-1.5269021,10.970232,-1.9686323,2.1843834,9.317638,2.1402051409526414940,-1.9865888,10.455479,-1.287482,2.0963404,9.346153,2.1036121409526414960,-1.8794483,9.896433,-0.32441434,2.0163739,9.370491,2.07329181409526414961,-1.2138603,9.143456,0.7146692,1.945945,9.390345,2.05064461409526414985,-0.4177882,8.516175,1.1827357,1.8841575,9.40854,2.02477721409526414986,0.40940848,7.8787193,1.4024036,1.8271441,9.426075,1.99525031409526414991,1.0666169,7.8954787,1.6184803,1.7719508,9.445477,1.9528321409526415016,1.6831238,8.673594,1.9117701,1.71103,9.466059,1.90696121409526415027,1.9111716,9.041702,1.9027919,1.6434891,9.486745,1.86306431409526415030,1.0923545,8.374319,0.9947908,1.5700992,9.507665,1.81920711409526415059,0.7529764,8.484452,0.39803603,1.4864101,9.530911,1.76711611409526415061,0.37349546,8.673594,0.1376666,1.3963751,9.557465,1.69569421409526415063,0.107739076,8.520964,-0.17118542,1.3037597,9.5868025,1.60119741409526415067,-0.50397944,7.8637557,-0.5907693,1.2146099,9.6151705,1.49787371409526415083,-0.7637503,7.772177,-0.760159,1.1289864,9.639942,1.40260731409526415084,-0.8194155,7.8487916,-0.46746787,1.0438625,9.661996,1.31399681409526415089,-1.0827777,8.3312235,-0.38606504,0.9640239,9.679594,1.24358191409526415106,-0.8475474,9.074024,0.035913024,0.8897227,9.693578,1.18884861409526415109,-0.039504327,9.548077,0.3321955,0.82254475,9.704314,1.14895121409526415131,0.34835634,9.233239,0.26156655,0.76215005,9.711851,1.12670681409526415132,0.66020113,8.675988,-0.013766659,0.69948316,9.716853,1.12421881409526415137,0.93732995,8.32045,-0.14305355,0.6235982,9.721043,1.13262961409526415158,1.3640964,8.449138,-0.059855044,0.52891004,9.726417,1.13466011409526415159,1.6364368,8.582615,-0.0688333,0.422552,9.733437,1.1189511409526415180,1.8650831,8.265383,-0.108337626,0.31316364,9.74095,1.08915171409526415182,2.2948422,8.210316,0.017357962,0.20188297,9.747211,1.05901051409526415190,2.806603,8.614936,0.39983168,0.0942644,9.751414,1.03509461409526415213,3.1950622,9.050681,1.0576386,-0.005602825,9.752195,1.03202551409526415215,2.7419596,8.008605,1.6639702,-0.09272653,9.748826,1.0593381409526415231,2.2948422,7.377134,1.7986441,-0.17945305,9.7413435,1.11554711409526415233,2.0003555,6.729502,1.7328035,-0.2700289,9.731021,1.18520881409526415239,1.9740193,6.464943,1.5580268,-0.3676165,9.719227,1.25373961409526415273,1.9728222,6.427833,1.417966,-0.46622738,9.707218,1.3126051409526415278,1.8764555,6.7402763,1.4143747,-0.5579206,9.695776,1.36054091409526415281,1.8273745,7.438186,1.7986441,-0.63577104,9.685195,1.40113911409526415283,1.9542671,8.194754,2.2697031,-0.6959891,9.67541,1.43958881409526415321,2.0578163,9.058462,2.3068132,-0.7388157,9.666572,1.47714261409526415322,2.0362685,10.014946,2.3612814,-0.77230877,9.658574,1.51190211409526415322,2.472612,10.448297,2.1212628,-0.79321915,9.652857,1.53738391409526415323,3.58412,10.896012,1.4520833,-0.80164886,9.64994,1.55126981409526415329,3.1136594,10.616488,1.7501614,-0.7941383,9.6502905,1.55294661409526415342,3.7391446,11.702858,2.4181437,-0.7921929,9.650821,1.55063591409526415360,3.3752258,12.137405,2.9173348,-0.7803025,9.652321,1.54731971409526415363,2.9227216,11.991958,2.8095956,-0.7650102,9.653731,1.54616421409526415380,2.095525,11.890802,2.1290438,-0.7502499,9.656081,1.53870521409526415381,1.5035586,11.992557,1.6950948,-0.7421694,9.661461,1.50856471409526415389,1.1115081,12.022484,1.6178818,-0.7352089,9.670957,1.449991409526415408,0.38965634,11.007342,0.001795651,-0.7292252,9.681722,1.37945561409526415409,0.25797522,9.794081,0.3429694,-0.7191876,9.695104,1.28768731409526415427,-0.6721721,8.342596,0.7038953,-0.6952185,9.707544,1.20443331409526415445,-1.9901801,6.9557543,-0.23283611,-0.6623071,9.7196455,1.12258951409526415447,-3.1585505,6.129755,-1.353921,-0.6231975,9.732672,1.028171409526415450,-4.3275194,6.397307,-1.9967642,-0.57507443,9.74609,0.92380411409526415458,-4.9344497,7.7506294,-1.9219455,-0.5132971,9.759605,0.8105651409526415484,-4.5112743,10.460866,-1.3269863,-0.43050128,9.77259,0.693950241409526415485,-3.2357635,14.628572,-0.4309563,-0.3168132,9.783653,0.59171781409526415490,-1.8752584,19.046473,-0.092775315,-0.16654739,9.790964,0.52881631409526415520,-0.86251116,19.608511,-0.83018947,0.017312296,9.7934265,0.508803371409526415521,-1.9458874,19.608511,-1.2413936,0.21681525,9.791663,0.496701331409526415522,-2.3906105,18.66819,-0.688333,0.37989184,9.786353,0.503334761409526415541,-1.5131354,14.499884,0.60932434,0.4957325,9.779332,0.53789031409526415542,-1.0971429,10.161591,1.9656396,0.5934366,9.768725,0.62470111409526415560,-2.991555,8.469488,3.2429461,0.6656787,9.754975,0.75348181409526415561,-4.1742907,10.251971,3.4105403,0.6886162,9.741497,0.894112171409526415580,-1.9009962,12.4289,2.3690627,0.69186467,9.730001,1.00934331409526415580,0.4794389,12.0571995,1.353921,0.7654591,9.718601,1.06454751409526415589,2.9107506,8.869919,2.5659857,0.9213411,9.704539,1.06932491409526415609,3.582923,8.494029,3.506907,1.1128767,9.684035,1.07300821409526415617,4.216788,8.595184,3.2555158,1.301666,9.658742,1.088461409526415636,4.3155484,8.588001,1.7603368,1.4873856,9.629967,1.1053611409526415639,3.791817,7.885902,0.6536171,1.6537789,9.602271,1.10987011409526415640,3.2842462,6.666056,0.2208651,1.7884562,9.578343,1.1077721409526415670,2.7515364,5.7005944,0.35075054,1.8875562,9.55845,1.1151541409526415671,2.4229321,5.4168816,0.7811083,1.9561992,9.540723,1.14816011409526415672,1.804031,5.084686,1.0301052,2.0094433,9.521719,1.21218861409526415678,1.5436616,4.830302,1.2569559,2.0564668,9.500209,1.29898741409526415693,1.3365631,4.582502,1.4036007,2.1017585,9.476458,1.39634051409526415705,1.316811,4.4436383,1.3676877,2.1442852,9.4517765,1.49544921409526415724,1.1563994,4.3688197,1.4514848,2.1809967,9.428041,1.58923321409526415725,1.3132197,4.3502645,1.4915876,2.2124252,9.4049425,1.68005861409526415740,1.6771383,4.3448777,1.5664065,2.235003,9.384591,1.76199321409526415741,2.0290859,4.5136685,1.6932992,2.2504687,9.367531,1.83170651409526415758,2.3786395,4.795586,2.0649989,2.2599902,9.354594,1.88531911409526415759,2.5007436,5.093664,2.5689783,2.2622476,9.346431,1.92272561409526415773,2.566584,5.3875523,2.9107506,2.2533376,9.343949,1.94510961409526415789,3.232771,6.733692,3.482965,2.228965,9.348095,1.9532611409526415790,3.5643678,7.8326306,3.8474822,2.1902716,9.357838,1.95038461409526415806,3.8121676,9.318831,4.0264487,2.1371853,9.37322,1.93535761409526415812,4.3622355,10.692505,4.1425676,2.0743499,9.392453,1.91030651409526415829,3.1860838,10.647015,4.933253,2.014549,9.4111395,1.8821351409526415830,2.861071,10.851719,4.824915,1.9503148,9.429205,1.85924271409526415838,2.5025394,12.243947,4.2556934,1.8936025,9.444691,1.83915381409526415858,2.4959552,16.780361,3.9713821,1.8569777,9.457887,1.80842381409526415859,1.922544,18.151041,2.31639,1.836977,9.468009,1.77559151409526415878,4.060566,16.707338,-0.089782566,1.8275517,9.474501,1.75051381409526415879,6.232107,13.958196,-0.8451532,1.8708246,9.471165,1.72262931409526415891,7.840412,10.357317,-0.65541273,1.9547548,9.454479,1.72108481409526415908,5.9029045,6.0878563,3.1280246,2.0581572,9.420732,1.78443591409526415911,5.9705405,6.63972,9.876082,2.1374867,9.375519,1.92384481409526415933,3.882198,10.746374,13.457808,2.2455413,9.307845,2.11942651409526415934,3.8468835,16.131533,7.241862,2.3465188,9.236415,2.31362941409526415938,1.4933833,16.385319,4.010288,2.439361,9.197347,2.37249161409526415965,-4.1258082,14.887745,2.6222494,2.4879363,9.194105,2.33430961409526415967,-6.0782795,13.883976,-0.20290859,2.4514751,9.217196,2.28121471409526415970,-2.8299465,15.41806,-1.821389,2.358635,9.249942,2.24628881409526416003,-2.124854,15.393519,-3.618836,2.251051,9.281296,2.2272661409526416005,-2.1643584,13.232154,-4.1635165,2.1249928,9.319225,2.1924491409526416006,-2.3762453,11.317391,-2.6210523,2.0055563,9.355652,2.14940141409526416011,-2.1398177,9.843162,-0.7128736,1.8984714,9.382781,2.128291409526416026,-1.7465701,8.257602,0.9983821,1.8076023,9.397379,2.14295431409526416040,-0.93972415,6.8887167,1.9249382,1.7379899,9.403256,2.17452051409526416041,-0.34715924,6.171055,2.259528,1.6845293,9.406881,2.20075921409526416057,0.25737667,6.057929,2.2409728,1.6401179,9.415338,2.19814731409526416059,1.2880806,7.125743,2.6659436,1.6003277,9.428711,2.1699661409526416081,2.136825,8.893262,3.1998506,1.5604893,9.4445915,2.12954621409526416082,2.4241292,10.0341,2.8754363,1.5180854,9.461891,2.08289151409526416090,2.066196,9.856929,1.6639702,1.4704591,9.481642,2.02647381409526416123,1.5215151,9.806051,0.43754035,1.410532,9.505905,1.95410881409526416125,1.0324994,9.920973,-0.51116204,1.336966,9.535975,1.8569081409526416127,0.61171854,10.01315,-1.1917139,1.2575985,9.570222,1.7319621409526416153,-0.41180268,9.649231,-1.6543933,1.1816841,9.603507,1.59583681409526416154,-0.9720459,9.5570545,-1.7052702,1.107725,9.632168,1.47128491409526416155,-1.0426749,9.368511,-1.5813702,1.0340921,9.656867,1.35866221409526416159,-0.66498953,9.258977,-0.47165772,0.96712834,9.675362,1.2737481409526416185,-0.09756372,9.59177,0.15023616,0.90876395,9.688062,1.21902351409526416186,0.3716998,9.36073,0.3764882,0.85381484,9.697006,1.18721031409526416190,0.6631939,8.5060005,0.25019407,0.798885,9.702522,1.18035891409526416221,0.7254431,7.465719,0.073023155,0.738476,9.704948,1.19959581409526416222,0.88166475,6.7372837,0.0676362,0.66287166,9.706041,1.23440651409526416223,0.7757214,6.904279,0.30705637,0.57129794,9.708409,1.2612641409526416240,1.2174516,7.745841,0.22565351,0.47063163,9.713589,1.26297741409526416241,1.9740193,8.027759,0.18914193,0.37088636,9.7209835,1.23906421409526416258,2.837129,8.039131,0.33877954,0.27568075,9.728356,1.20559861409526416261,3.6774938,7.867945,0.46327803,0.18484206,9.734207,1.17534351409526416282,4.1455603,7.638102,0.80684596,0.09798987,9.737313,1.1599721409526416283,4.235343,7.467515,1.1959038,0.020108577,9.736942,1.16701791409526416290,3.851672,7.361572,1.4305356,-0.047096975,9.733222,1.19689321409526416313,3.2782607,7.293337,1.6502035,-0.11227363,9.726593,1.24547051409526416315,2.8401217,7.179612,2.0440497,-0.180702,9.717388,1.3077011409526416319,2.7611132,7.3819222,2.3493104,-0.25117213,9.706167,1.37753281409526416343,2.6102784,7.397485,2.2936451,-0.31813234,9.69387,1.44847061409526416345,2.3558946,7.586028,2.5103204,-0.3823117,9.681289,1.51554481409526416350,1.7441759,8.752005,3.1902738,-0.44307026,9.668515,1.57921361409526416359,1.1791444,9.467272,2.973,-0.5024851,9.654664,1.64480521409526416384,1.1438298,10.051457,2.208651,-0.5590004,9.641891,1.70054971409526416386,2.5498247,10.246585,0.770933,-0.6104198,9.631919,1.73894291409526416392,4.1683054,10.468647,0.090381116,-0.6494614,9.626612,1.75411961409526416423,4.823119,10.816404,1.0133458,-0.671517,9.625966,1.74935511409526416425,4.2945995,11.122264,2.19249,-0.68315476,9.627416,1.73682481409526416426,3.390788,11.033679,2.9215245,-0.6998005,9.627357,1.7305191409526416452,2.4319103,11.009736,2.9604304,-0.72286993,9.624404,1.73744231409526416454,1.5472529,11.208455,3.0292637,-0.74613404,9.621768,1.74219391409526416455,0.48362875,10.890625,3.1238346,-0.76193696,9.6236,1.72515381409526416461,0.027533319,10.080787,2.3660698,-0.769605,9.631125,1.67914351409526416481,0.17238252,9.627085,1.8459295,-0.77301145,9.641578,1.61642731409526416482,-0.015562311,9.637859,2.3014264,-0.74963915,9.655876,1.54028941409526416490,-0.2777274,9.34397,1.6184803,-0.70664793,9.672271,1.45541661409526416517,-1.1378443,8.462306,-0.08499416,-0.6480808,9.692303,1.34523461409526416519,-2.2810757,7.7919292,-1.103727,-0.57385707,9.715132,1.20717571409526416520,-3.3955765,7.9367785,-1.7788919,-0.48280922,9.737482,1.05769031409526416545,-3.8085763,9.481637,-2.0805612,-0.37636262,9.756974,0.911151231409526416547,-2.0219033,17.372927,-1.2689269,-0.2512916,9.772635,0.776431261409526416550,-0.3184288,19.608511,-1.4077905,-0.092558935,9.783732,0.66363331409526416559,-0.207697,19.608511,-1.963844,0.10827523,9.788239,0.59080681409526416588,-2.8089972,19.608511,-1.7304093,0.3111954,9.786127,0.552499531409526416589,-2.938284,18.283321,-0.2705448,0.4635161,9.781138,0.53373731409526416591,-1.6849195,12.2319765,1.5981296,0.57379985,9.773125,0.57201521409526416617,-1.929128,8.417415,3.6014779,0.6675824,9.760328,0.67876061409526416620,-4.7644615,9.101558,4.547188,0.725415,9.744266,0.832749371409526416622,-4.583101,11.513716,3.25372,0.7176951,9.728958,1.00133621409526416644,-1.7322049,11.847109,1.5879543,0.69796187,9.717074,1.1232631409526416645,0.054468088,9.849746,1.2401965,0.76117283,9.706903,1.16919621409526416650,0.9391256,7.6482773,1.9470845,0.9082839,9.693962,1.17153311409526416685,1.4065934,6.1596823,2.6288335,1.0866634,9.675594,1.17149731409526416686,2.6078842,5.969343,3.074155,1.2661052,9.652832,1.17905811409526416688,4.1862617,7.1981673,2.9406781,1.4489652,9.625739,1.18997231409526416691,4.3939586,7.787141,1.934515,1.640017,9.594259,1.19621651409526416713,3.530849,7.3711486,0.5231331,1.8186762,9.561767,1.19810061409526416714,2.72939,6.63553,-0.22266077,1.9601306,9.532902,1.20502031409526416719,2.3612814,5.969942,-0.2633622,2.0636878,9.507558,1.23204581409526416735,1.5664065,4.569334,0.41000703,2.1399322,9.483192,1.28847151409526416739,1.1372458,4.1491513,0.8050503,2.194504,9.4586315,1.37435321409526416752,0.7930793,3.945046,1.1791444,2.2346447,9.4338255,1.47637711409526416796,0.6967127,3.7175968,1.5209166,2.2662814,9.408849,1.58364371409526416800,0.8595184,3.702633,1.8489223,2.2924092,9.384909,1.68486631409526416802,1.0510546,3.8893807,1.9393034,2.3130884,9.363594,1.77289041409526416805,1.1402385,4.1371803,1.9758149,2.3315036,9.34398,1.85054871409526416808,1.3551182,4.5795093,2.1320367,2.341527,9.329483,1.91007631409526416832,1.7328035,5.145139,2.4821887,2.3446143,9.3206,1.94925321409526416833,2.1757307,5.6569,2.759916,2.3407815,9.316953,1.97117661409526416834,2.8844144,6.3105173,3.1112652,2.3288264,9.319002,1.97564471409526416839,3.6613328,7.245453,3.7313633,2.3083704,9.326921,1.96223381409526416855,4.4119153,8.439561,4.220978,2.2805684,9.339233,1.93600641409526416873,4.772841,9.391256,4.3957543,2.2468328,9.35411,1.90335451409526416874,5.005677,10.043676,4.1653123,2.2057421,9.370908,1.86847381409526416886,5.121796,10.723031,3.9348705,2.1615663,9.38909,1.8283881409526416891,4.4167037,11.182119,3.8253357,2.1233165,9.406638,1.78243961409526416902,4.172495,11.960834,3.1477766,2.083242,9.424523,1.73461041409526416921,2.7886465,14.598645,3.8881836,2.0563145,9.439534,1.68438771409526416922,4.1102457,16.291346,0.748188,2.0230954,9.448815,1.6725341409526416935,5.7706246,13.749901,0.38845924,2.0169454,9.450361,1.67122091409526416939,6.184223,11.584944,2.7365725,2.0596435,9.435748,1.7014461409526416951,3.6876693,11.18152,8.711902,2.1291242,9.405811,1.77986691409526416973,3.9618053,16.579847,9.621099,2.182581,9.359383,1.95158461409526416974,4.245518,19.605518,4.8943467,2.237854,9.305089,2.13955951409526416985,-0.3465607,19.510948,3.0657754,2.323699,9.269017,2.20365831409526416991,-4.84766,18.403032,1.3874398,2.3686283,9.261264,2.1883771409526417005,-3.8672342,15.017032,-2.2002714,2.356794,9.273695,2.14813921409526417020,-2.622848,9.799467,-1.6376339,2.3534825,9.284381,2.10517951409526417021,-1.471237,8.084022,0.52073884,2.3393426,9.277148,2.15229821409526417035,-0.53929394,8.512584,1.42455,2.2899103,9.263759,2.26041031409526417039,-0.4902128,7.695563,1.1617863,2.2202818,9.25661,2.35709521409526417051,-0.85473,6.7989345,1.1569979,2.1573157,9.259961,2.40198041409526417069,-0.8948329,7.16824,1.5221137,2.1064646,9.269954,2.40855961409526417071,-0.45489833,8.026561,1.5664065,2.0682366,9.282054,2.39505051409526417085,0.6476316,8.599973,1.8022354,2.0395892,9.296533,2.3632461409526417103,1.8567034,8.632295,1.8142064,2.0164342,9.315141,2.30922961409526417104,2.6563668,8.561666,1.5496471,1.9957777,9.338917,2.22977331409526417118,3.3794158,10.74817,1.400608,1.9732869,9.364463,2.14087561409526417119,3.5296519,11.307815,0.88046765,1.9475051,9.394636,2.02939461409526417136,3.13401,10.845734,0.055066638,1.9118488,9.42634,1.91294171409526417140,2.3247697,10.114903,-0.43514615,1.8612776,9.45766,1.80519061409526417154,1.6124948,9.415198,-0.046088383,1.7912472,9.489083,1.70854311409526417167,0.842759,8.844181,0.35254622,1.7042031,9.520591,1.62000941409526417171,0.49081135,8.793902,0.54168814,1.6079055,9.550581,1.53994951409526417184,-0.010773907,8.49343,0.50278234,1.5132284,9.577037,1.47001311409526417201,-0.4830302,7.9385743,0.34715924,1.4235305,9.599227,1.41379441409526417202,-0.7721301,7.5590935,0.16460137,1.3373487,9.617371,1.37406851409526417230,-1.115698,7.5213847,0.090979666,1.2539164,9.63265,1.34540311409526417231,-1.477821,7.864354,0.2837129,1.1716273,9.64681,1.31785931409526417233,-1.2749124,8.135497,0.58538234,1.0909675,9.659748,1.2920681409526417243,-0.92895025,8.053496,0.58657944,1.0114312,9.671189,1.27102521409526417281,-0.6159084,7.8493905,0.5141548,0.93090475,9.680986,1.25790181409526417284,-0.06344634,7.599795,0.3537433,0.84470505,9.689905,1.25004171409526417286,0.28491,7.3352356,-0.04129998,0.7521501,9.699429,1.23520531409526417291,0.85173726,7.9074497,-0.2801216,0.6563557,9.710619,1.20146061409526417313,1.2228385,7.9008656,-0.21308395,0.5647403,9.722445,1.1513251409526417315,2.783858,8.5700445,0.3309984,0.47825298,9.732801,1.10193221409526417316,3.482965,8.780735,0.6655881,0.4052806,9.739411,1.07238591409526417321,3.7894228,8.786121,1.2210429,0.33865225,9.743327,1.05985331409526417343,3.6912606,9.059659,1.917157,0.27304614,9.742423,1.08674171409526417344,3.0891187,9.038112,2.2655134,0.20508693,9.7367,1.15107461409526417352,2.0524294,8.796896,2.146402,0.13144061,9.727281,1.23819091409526417379,1.3581109,8.255207,1.5233108,0.049164888,9.715879,1.33029321409526417385,1.4191631,7.8493905,0.90500826,-0.041336235,9.704537,1.41088711409526417388,2.0416555,7.860164,1.009156,-0.1320413,9.69462,1.47218161409526417435,2.2661119,7.921815,1.6238673,-0.21061794,9.686016,1.51892781409526417436,2.6485856,8.264186,2.6102784,-0.27440017,9.67749,1.56246271409526417437,2.1871033,8.416218,2.6862943,-0.32360107,9.668062,1.61067021409526417438,1.9740193,8.921992,2.4313118,-0.37013245,9.659311,1.65260831409526417440,2.0895395,9.657013,1.7687165,-0.41484407,9.651715,1.68603351409526417453,2.5121162,10.055647,0.84694886,-0.45422453,9.647737,1.69861141409526417454,3.958214,10.78947,0.18255788,-0.48533466,9.647554,1.69101621409526417477,3.1471782,10.469246,1.2156559,-0.4982319,9.6510725,1.66702211409526417479,3.1136594,10.688315,1.5825673,-0.518636,9.653465,1.64682331409526417480,2.3995886,10.633248,1.9428947,-0.53611124,9.65553,1.62902841409526417510,1.1384429,11.282676,2.0644004,-0.5524307,9.657431,1.61221841409526417511,0.29328972,11.456255,1.9381063,-0.5714305,9.661247,1.5824521409526417514,-0.26755205,11.246164,1.2066777,-0.5868473,9.668881,1.52929881409526417520,-0.24061728,10.487801,0.5398925,-0.58916456,9.6803665,1.45388221409526417536,0.6727707,9.9712515,1.4885949,-0.5692289,9.69345,1.37236421409526417552,0.27952304,9.314642,1.2078748,-0.5314923,9.705848,1.29785061409526417553,-0.8146271,8.430583,0.3752911,-0.47562605,9.719737,1.21280181409526417570,-1.9901801,7.216124,-0.11192893,-0.4091803,9.734516,1.1145241409526417572,-3.1519666,7.053318,-0.7793127,-0.331288,9.74878,1.01090421409526417585,-3.6056678,8.400057,-1.2635399,-0.23862113,9.762724,0.8959321409526417602,-3.4494462,11.057022,-1.115698,-0.13049679,9.775511,0.769907241409526417602,-2.8502972,15.313314,-0.41359833,-0.001828312,9.78455,0.658023361409526417619,-1.0696096,19.406202,-0.3184288,0.1460862,9.78777,0.59044451409526417620,0.6362591,19.608511,-1.2599486,0.3265189,9.785018,0.56319441409526417638,-0.7966706,19.608511,-1.5520413,0.52757794,9.77703,0.54930481409526417653,-1.7184383,19.236214,-0.79367787,0.6904314,9.767477,0.53860881409526417653,-0.9660604,14.950592,0.9415198,0.7902929,9.758491,0.56364531409526417670,-0.39624038,10.155006,2.6611552,0.86393696,9.746393,0.657135371409526417672,-2.4546554,8.42759,4.3664255,0.9127063,9.730954,0.8036871409526417686,-3.7684734,10.083779,2.9029696,0.9162325,9.715567,0.968853351409526417702,-0.7553706,10.567408,1.9919758,0.9032363,9.7041445,1.08817611409526417703,0.42676646,8.746617,1.816002,0.96655416,9.691854,1.14199981409526417719,0.62608373,6.6684504,2.0039468,1.1044217,9.675975,1.15159671409526417720,2.0739772,7.2149267,2.719813,1.2663863,9.656894,1.1450151409526417733,3.120842,7.793725,2.8107927,1.4292471,9.634208,1.14441941409526417750,3.578733,7.901464,2.2152352,1.5947484,9.607382,1.15124881409526417752,3.6882677,7.5806413,1.1911154,1.756896,9.578175,1.15856481409526417766,3.3357215,6.779781,0.59615624,1.8996513,9.550121,1.16485861409526417775,2.8748376,5.819107,0.36152446,2.011812,9.525096,1.18133531409526417808,2.023699,4.9865236,0.6787562,2.0957956,9.502423,1.21736741409526417811,1.9267339,4.650737,0.7751228,2.1574535,9.480825,1.2766091409526417813,1.6525977,4.2299557,1.0480618,2.2097082,9.458371,1.35159411409526417818,1.4580688,4.128801,1.3383588,2.2595537,9.434499,1.43355321409526417822,1.2497733,4.127005,1.5544355,2.307688,9.409944,1.51589241409526417847,1.1845313,4.2598834,1.6454151,2.348858,9.387116,1.59227631409526417849,1.3395559,4.446631,1.6765398,2.3790665,9.368378,1.65648011409526417852,1.6023195,4.7040076,1.7513585,2.3972416,9.355348,1.70325521409526417883,2.006341,5.2540755,1.9524715,2.4110453,9.345196,1.73913051409526417886,2.8700492,6.9252286,2.7156234,2.4145434,9.340708,1.7582841409526417888,3.292626,8.088212,3.3931823,2.4129016,9.339873,1.76495521409526417923,3.6206315,8.815451,4.2491093,2.4034936,9.342638,1.76315631409526417924,3.9264908,9.041702,4.819528,2.3837452,9.348572,1.75850991409526417925,4.208408,9.433155,4.7896004,2.352866,9.3577585,1.75122681409526417926,3.9193082,9.46847,4.1479545,2.3103936,9.371181,1.73593151409526417931,4.7925935,9.950302,2.8191724,2.2549007,9.389991,1.70701061409526417950,6.7863646,11.168951,1.54845,2.2054973,9.409643,1.66276451409526417956,5.09127,11.509526,2.854487,2.1897094,9.423405,1.6046861409526417982,4.8398786,13.478158,3.8983588,2.1628468,9.436736,1.56220691409526417983,4.766257,15.562909,3.8989575,2.1433077,9.444321,1.54319311409526417984,3.982156,14.676456,2.055422,2.1344411,9.444603,1.55371051409526418000,4.437653,12.147581,0.2873042,2.1480646,9.439335,1.5668991409526418001,4.675277,9.612122,1.5478514,2.191215,9.428623,1.5716271409526418016,3.9103298,9.178771,6.7103486,2.2523034,9.409218,1.60128971409526418019,3.6086605,14.177864,9.380483,2.3233964,9.3753395,1.69565831409526418032,4.115034,19.437925,4.8536453,2.399108,9.332144,1.82366551409526418047,0.75836337,19.032707,1.661576,2.482901,9.307611,1.83683591409526418053,-2.2451627,16.480488,0.7044938,2.5141795,9.311919,1.7712871409526418072,-1.9722236,9.362526,0.10175357,2.4828577,9.325478,1.74392771409526418074,-2.1757307,9.570822,2.268506,2.4673822,9.322798,1.7798521409526418080,-1.9123687,10.829573,1.6873137,2.4075067,9.316529,1.89118611409526418105,-1.721431,10.505158,0.044891283,2.3127577,9.318378,1.99733441409526418107,-1.8818425,9.705495,0.034117375,2.2135262,9.334116,2.03592371409526418112,-1.8477252,9.433753,0.5781997,2.1241903,9.356144,2.02996591409526418120,-1.2330139,8.91481,0.6979098,2.0506666,9.373269,2.0265761409526418141,-0.049081136,8.580819,1.4598645,1.9952973,9.384012,2.03212021409526418143,1.2120646,8.167819,1.83336,1.9512618,9.39429,2.02738211409526418152,2.022502,8.257003,1.685518,1.9122674,9.408413,1.99884411409526418176,2.574964,9.351752,1.8124107,1.8701282,9.427352,1.94885581409526418177,3.0250738,10.620679,1.8004397,1.820073,9.448106,1.89499311409526418180,3.0867245,10.881048,1.3108255,1.7635139,9.470927,1.83356451409526418206,2.546832,9.952098,0.7457938,1.6986744,9.495493,1.7664951409526418207,1.8231846,9.248801,0.16998832,1.6190854,9.521551,1.69971011409526418212,1.0600328,8.773552,-0.027533319,1.5253226,9.549694,1.62699011409526418221,0.272939,8.259995,-0.12389994,1.4223651,9.57886,1.54683081409526418241,-0.5530606,7.8068933,-0.362123,1.3164686,9.606295,1.46848251409526418242,-1.0462662,7.4495587,-0.47764325,1.2094643,9.630511,1.40030031409526418252,-1.661576,7.074866,-0.34356794,1.1050481,9.650801,1.34585071409526418274,-1.8136078,7.6015906,0.059855044,1.0043726,9.667568,1.30374991409526418275,-1.5831659,8.124125,0.30645782,0.9111348,9.6813135,1.26980131409526418280,-1.2958617,8.337209,0.22565351,0.82361436,9.69318,1.23867141409526418297,-0.8810662,8.128913,0.044292733,0.74127066,9.702993,1.21359111409526418300,-0.41479546,7.8308353,-0.18555063,0.6618751,9.710983,1.19545911409526418319,0.36272156,8.103774,-0.39205053,0.5817088,9.717916,1.18075261409526418336,0.7966706,8.371924,-0.4225766,0.49912116,9.725144,1.15881311409526418337,1.6448165,8.929773,-0.31184477,0.41528967,9.732785,1.12730051409526418357,2.4636335,8.832211,0.12749124,0.33296186,9.739774,1.09377231409526418359,2.891597,8.826224,0.58538234,0.25011817,9.744637,1.07233381409526418361,3.1771057,8.851364,1.1755531,0.16449869,9.746859,1.06868471409526418384,3.0825348,9.000402,1.7818847,0.08294183,9.745801,1.08760321409526418385,2.4863784,9.029133,2.1643584,0.012031287,9.740948,1.13321421409526418399,2.0745757,8.860941,2.1003134,-0.05779233,9.733774,1.19193951409526418400,2.055422,8.649054,1.6915035,-0.12514217,9.724064,1.26384251409526418414,1.8674773,8.143278,1.4628572,-0.19128308,9.713589,1.33416461409526418431,2.0536265,7.968502,1.4694413,-0.2582471,9.703396,1.39563761409526418432,2.3068132,7.900267,1.6328455,-0.32032308,9.693538,1.45021621409526418449,2.8772318,8.437167,2.6132712,-0.3732144,9.683403,1.50426711409526418452,2.397793,8.617929,2.8820202,-0.41146013,9.672491,1.5633311409526418465,3.0693667,10.036493,2.3331497,-0.44563073,9.662065,1.6175051409526418483,1.6190789,9.880272,2.4594438,-0.46426865,9.654859,1.65485331409526418483,1.9788077,10.171766,1.5215151,-0.48951724,9.649376,1.67937791409526418497,3.1322143,10.386645,0.7278373,-0.5120378,9.646122,1.69130581409526418500,3.882198,10.312426,0.94092125,-0.52459145,9.6454115,1.69151641409526418514,3.7828386,10.335769,1.460463,-0.5240931,9.64653,1.68527731409526418530,3.0280666,10.46745,1.9626468,-0.5183871,9.648891,1.67349021409526418534,1.8369513,11.086949,2.0500352,-0.51949763,9.650598,1.66326931409526418550,0.9840169,11.607688,1.9776106,-0.5301428,9.651904,1.65229371409526418552,0.038307227,11.886014,1.8842367,-0.54266685,9.655391,1.6276781409526418580,-0.46507367,11.527483,1.2683283,-0.55283237,9.662767,1.57976981409526418582,0.107739076,10.697293,0.7026982,-0.5502986,9.673706,1.51227621409526418584,0.8559271,9.958083,1.1965023,-0.5205668,9.6870165,1.43566631409526418605,0.094570965,9.003395,1.0073603,-0.46555036,9.701331,1.35565781409526418607,-0.65182143,8.02716,-0.16938977,-0.41165847,9.715451,1.26922191409526418613,-2.005144,7.128137,-1.1671734,-0.3468604,9.730974,1.16542711409526418631,-3.0992942,7.5165963,-1.614889,-0.2709992,9.747081,1.04468991409526418632,-3.8193502,12.387001,-0.93014735,-0.18376367,9.76243,0.911915241409526418649,-2.6150668,16.894085,-0.82360536,-0.09230156,9.7748,0.78430111409526418652,-0.8439561,19.593548,-1.555034,0.030608198,9.782784,0.68307361409526418669,-0.031124622,19.608511,-2.1176715,0.20021869,9.78581,0.60680831409526418682,-2.0254946,19.607315,-1.3317747,0.38868982,9.783331,0.55293821409526418683,-2.3582888,17.865534,0.17058687,0.52167296,9.778246,0.533077241409526418699,-1.4095862,13.80377,2.0362685,0.60570925,9.771207,0.571872531409526418701,-0.97623575,9.833585,3.41892,0.6737835,9.759974,0.6777461409526418716,-3.0023289,9.078813,4.7644615,0.74032867,9.745175,0.80862891409526418731,-4.1252093,9.943718,4.0737343,0.7638227,9.729227,0.96388881409526418732,-2.3636756,11.415554,2.492364,0.7574615,9.7160425,1.09322611409526418746,-0.061650693,10.525509,1.4873978,0.7883926,9.705711,1.16102971409526418763,0.8146271,8.327632,1.520318,0.8998892,9.694494,1.17362681409526418764,1.1755531,6.6726403,2.0494366,1.0588616,9.679622,1.16367911409526418782,2.0757728,6.4858923,2.741361,1.2248452,9.661054,1.15506641409526418783,2.9161377,7.019799,2.7323828,1.3912814,9.638707,1.15328591409526418797,3.241749,7.1993647,1.8142064,1.5538709,9.613688,1.15451221409526418824,2.758719,6.905476,0.5895722,1.6993881,9.588805,1.15640321409526418825,2.496554,6.3482256,-0.08080431,1.8156565,9.567013,1.16019061409526418827,1.489792,5.0625396,0.060453594,1.9154341,9.544965,1.18115641409526418833,1.3227965,4.7159786,0.52133745,1.9895679,9.52364,1.22975811409526418854,1.1162965,4.644751,1.0217255,2.0478637,9.500747,1.30861761409526418855,0.82899237,4.6962266,1.5310919,2.0985343,9.47532,1.40884641409526418861,0.7667431,4.697424,1.9057846,2.146935,9.44756,1.51810821409526418887,0.7721301,4.955399,1.9901801,2.193572,9.419187,1.62405611409526418888,0.830788,5.142745,2.0566192,2.2355576,9.392635,1.71786361409526418893,1.22224,5.5222263,2.2870612,2.2712722,9.369732,1.79439151409526418901,1.6771383,6.1638722,2.3822308,2.301095,9.351267,1.8517891409526418920,2.0165164,6.7905545,2.4019828,2.3248358,9.337988,1.88879011409526418922,2.5073278,7.506421,2.5600002,2.3470774,9.327211,1.91435071409526418933,2.871845,7.9325886,2.7246015,2.3605657,9.321504,1.92553651409526418956,3.2142158,7.911041,2.8173769,2.364095,9.320902,1.92411451409526418957,3.5523968,7.8972745,2.955642,2.35424,9.32603,1.91131351409526418961,4.2066126,8.311471,3.0424318,2.3286297,9.337336,1.88734361409526418989,4.4502225,8.990826,3.6134489,2.2926717,9.3531,1.85298651409526418991,4.8997335,9.902418,3.8325183,2.2467408,9.371196,1.81748511409526418993,5.53719,10.694301,3.7493198,2.1985412,9.389168,1.78334821409526419001,4.887164,10.376471,4.4580035,2.1579406,9.405031,1.74901681409526419022,4.2419267,10.873865,4.8853683,2.1172755,9.418291,1.7272281409526419023,3.2980127,14.57171,4.091092,2.083654,9.426951,1.72086611409526419032,3.6469676,15.143326,1.1097125,2.0399384,9.437305,1.71648551409526419046,5.0960584,13.742119,-0.4177882,2.0209281,9.444545,1.69907161409526419063,6.87914,12.811972,1.0869676,2.0499585,9.442142,1.67750641409526419066,4.9601874,11.396998,6.344036,2.1332603,9.422947,1.68157121409526419086,6.017826,15.770008,8.145673,2.214859,9.385849,1.78062631409526419087,6.281787,19.530102,4.796783,2.3110847,9.332074,1.93434491409526419093,1.5807717,18.708292,2.9299042,2.4197075,9.288965,2.00762491409526419102,-2.1996727,17.457321,2.2661119,2.476752,9.275798,1.99891751409526419120,-2.4552538,14.43943,0.22325931,2.474202,9.285099,1.95848121409526419124,-2.5785553,9.660006,0.05925649,2.4527686,9.2914295,1.95541691409526419158,-2.5953147,7.3711486,1.7776948,2.4093454,9.289824,2.01609661409526419159,-1.8531121,7.563283,2.144606,2.3481698,9.276378,2.1461409526419160,-1.3299791,7.339425,1.3174095,2.2647898,9.269345,2.26281861409526419165,-1.2443863,6.909666,0.6380547,2.1824615,9.275372,2.31834941409526419184,-1.168969,7.4405804,1.0480618,2.1102977,9.291289,2.3214211409526419185,-0.7062895,8.863934,1.115698,2.0516233,9.309324,2.30167531409526419200,0.34596214,9.66659,1.0875661,2.006117,9.327394,2.2683931409526419218,2.2284033,9.466674,0.91338795,1.9718938,9.347466,2.21515561409526419221,2.2828712,9.964069,0.6410475,1.946859,9.370701,2.13777951409526419222,2.2828712,11.430517,0.74519527,1.9109849,9.399922,2.0396061409526419233,2.1996727,12.078748,0.6027403,1.8598281,9.432658,1.93298351409526419246,1.8189948,11.3802395,0.40462008,1.7969391,9.465588,1.82867541409526419263,1.4425066,10.508151,0.42796355,1.7188325,9.497401,1.73647761409526419266,0.94451255,9.65821,0.3788824,1.6245387,9.526878,1.66429031409526419285,0.30645782,8.57184,0.44831428,1.5185916,9.554482,1.6050411409526419287,-0.23044191,7.7877398,0.38067806,1.4078568,9.58001,1.55297211409526419293,-0.46806642,7.2580223,0.17118542,1.3008205,9.602628,1.50592661409526419318,-0.7044938,6.809708,0.06943185,1.2009046,9.622159,1.46364941409526419320,-0.91458505,6.782175,0.109534726,1.1077149,9.638951,1.42617791409526419321,-1.1013328,7.1347213,0.18255788,1.0227886,9.653364,1.39171621409526419333,-1.1402385,7.65127,0.6655881,0.94782,9.665973,1.35684381409526419353,-1.2587515,8.195353,0.75596917,0.8786016,9.676954,1.3247581409526419355,-0.931943,7.8326306,0.50278234,0.80864877,9.687018,1.29543891409526419361,-0.7637503,7.3897038,0.19632454,0.7342703,9.695411,1.27681141409526419382,-0.6572084,7.386112,-0.0688333,0.651333,9.703381,1.26117841409526419384,-0.11731588,7.49026,-0.23702596,0.5578324,9.71286,1.2327071409526419404,1.4550761,8.407239,-0.40402153,0.46063572,9.7238655,1.18518161409526419406,2.1505916,8.597578,-0.15203181,0.37312272,9.734918,1.12363521409526419413,2.9191303,8.9602995,0.2136825,0.2935518,9.744144,1.06577241409526419435,3.5865142,9.108142,0.7212533,0.22202732,9.750286,1.02615421409526419437,4.0186677,9.223063,1.3024458,0.15827921,9.752619,1.01574791409526419441,3.8851907,9.338584,1.7411832,0.10342967,9.750909,1.03896991409526419468,3.333926,9.246407,1.9865888,0.05246074,9.746872,1.07987611409526419469,2.871845,9.0429,1.8285716,-0.003083447,9.739342,1.14701471409526419474,2.6258407,8.531139,1.5304934,-0.0634608,9.729536,1.22575761409526419482,2.7736826,8.602965,1.4760253,-0.1285127,9.719064,1.30141371409526419502,2.5103204,8.375516,1.939902,-0.18981263,9.708799,1.36879281409526419503,2.8006175,8.78672,2.546832,-0.24695946,9.69838,1.43206741409526419516,1.8309658,8.459911,2.9771898,-0.29204056,9.687789,1.49393241409526419535,1.4814123,8.895657,2.44029,-0.34004214,9.677028,1.55237821409526419537,1.2395979,9.290101,1.9919758,-0.38808754,9.668148,1.59583271409526419542,2.2409728,9.655815,0.7661445,-0.43418512,9.661605,1.62334411409526419571,2.5210943,9.282919,0.5141548,-0.4684012,9.658638,1.63148051409526419573,3.4931402,10.156802,1.0169371,-0.50193566,9.656597,1.63358871409526419574,3.685275,10.668563,1.8962077,-0.52143425,9.656477,1.62817231409526419582,2.4642322,10.45069,1.9596541,-0.5285781,9.656648,1.62485891409526419606,1.6214731,11.025897,1.8680758,-0.54060847,9.65627,1.62313661409526419607,0.7146692,11.462839,2.0644004,-0.55161333,9.657115,1.61439661409526419614,-0.031124622,11.071986,1.8872294,-0.5608042,9.6608515,1.58866431409526419635,0.002992752,10.359112,1.0588357,-0.563051,9.668722,1.53921041409526419636,0.7517793,9.882666,0.7314286,-0.54621166,9.680174,1.47183171409526419642,0.9504981,9.287707,1.2605472,-0.5007495,9.69356,1.39805191409526419667,1.1162965,9.036914,0.8074445,-0.43189424,9.708112,1.31773131409526419668,-0.83258367,7.809886,0.11492168,-0.34170866,9.724277,1.22150461409526419676,-1.7262194,7.180211,-0.74878657,-0.25826105,9.738934,1.12110451409526419682,-2.8209682,7.5884223,-1.4742297,-0.15894283,9.751922,1.02231941409526419706,-3.0322564,9.700109,-1.3257892,-0.047248367,9.763244,0.92045841409526419711,-2.7868507,13.771448,-0.3669114,0.080953434,9.771966,0.820065861409526419714,-1.809418,18.84117,0.19752164,0.22275625,9.775459,0.74911511409526419747,0.01316811,19.608511,-0.87208796,0.38348597,9.772635,0.720376551409526419748,0.3250129,19.608511,-1.8734628,0.5741926,9.764332,0.706071261409526419750,-1.8124107,19.590555,-1.4167689,0.74680257,9.754018,0.6868891409526419770,-2.136825,17.393276,-0.20231004,0.83605,9.746409,0.69204591409526419771,-1.7866731,12.792818,1.2940661,0.8792888,9.737481,0.76072871409526419773,-4.0575733,8.157045,3.470994,0.9048116,9.725897,0.870997131409526419782,-4.7159786,8.808268,2.9735985,0.90884364,9.71101,1.02015551409526419797,-2.2816741,10.24419,2.1529858,0.8894449,9.698334,1.14960861409526419813,-0.2621651,9.239823,1.780089,0.90997976,9.686705,1.22885371409526419814,0.7368156,7.555502,2.079364,1.0101852,9.672373,1.26298761409526419828,1.4101849,7.037756,3.0585926,1.1682928,9.653074,1.27421991409526419845,2.4432828,7.467515,3.5769374,1.3386153,9.629164,1.28750931409526419846,3.1016884,7.4848733,3.2016463,1.5081933,9.600958,1.31047511409526419863,3.0083144,7.03596,2.0961237,1.670838,9.570995,1.3322021409526419864,2.7539306,6.0746884,1.2886791,1.8113135,9.543525,1.34560821409526419878,2.6007016,5.1409497,0.97743285,1.9197994,9.520364,1.35920731409526419882,2.5731683,4.5340195,1.2078748,2.0117624,9.498502,1.37901541409526419894,1.9871874,4.085107,1.4927847,2.0858397,9.477586,1.41245421409526419909,1.8590976,4.1659107,1.5251064,2.1496398,9.455816,1.46183621409526419913,1.7064673,4.2969937,1.5382746,2.2094228,9.432956,1.51927411409526419935,1.6286557,4.3568487,1.5933412,2.267966,9.409417,1.57784831409526419936,1.650802,4.361637,1.5693992,2.3205893,9.387,1.63385561409526419942,1.7369933,4.365228,1.46585,2.3617468,9.36785,1.68402211409526419968,1.9716251,4.530428,1.3587095,2.3894157,9.353324,1.7252281409526419970,2.4349031,5.467758,1.6531962,2.4045863,9.343709,1.75597971409526419974,2.6539726,6.1088057,2.0512323,2.4089525,9.338568,1.77721241409526419983,2.8766334,6.7887588,2.6611552,2.4012833,9.338298,1.78897351409526420012,3.140594,7.2550297,3.448249,2.3885345,9.339972,1.79728361409526420014,3.4572272,7.7051396,4.173692,2.3616064,9.346241,1.8002751409526420018,3.7373488,8.595184,4.6321816,2.3220415,9.357129,1.79517091409526420045,3.82773,9.852738,4.9613843,2.2707658,9.372508,1.78048591409526420046,3.6601357,10.761936,5.0026846,2.209041,9.391285,1.75905681409526420048,3.9558198,11.058818,4.63278,2.1401184,9.411707,1.7349551409526420083,4.4657845,10.947487,3.433884,2.0794013,9.429832,1.71018531409526420084,3.4033577,12.418724,3.0897174,2.0413997,9.444156,1.67660551409526420085,3.072958,16.907253,2.9388826,2.0121028,9.455783,1.64620951409526420085,2.854487,17.770962,1.0582372,1.9851896,9.46348,1.63461511409526420104,4.6483426,14.995483,-0.89603,1.9790632,9.468284,1.61408911409526420105,5.5683146,12.095507,-0.48003745,2.01523,9.463842,1.59528391409526420114,5.650316,9.734225,2.2415714,2.0844135,9.4457445,1.61354361409526420128,5.6443305,10.742783,8.583213,2.1613755,9.411742,1.70820341409526420147,5.6018333,16.019604,10.235811,2.255574,9.35436,1.8917571409526420148,5.9238534,19.585768,6.26383,2.3627837,9.288571,2.0760771409526420164,-3.9438488,16.786945,0.49440265,2.4782095,9.247126,2.12591931409526420167,-3.1866825,13.022661,-2.0937295,2.4691038,9.263862,2.06271671409526420188,-2.9311013,9.710882,-0.60573304,2.454709,9.280476,2.00438831409526420189,-2.5372553,9.390657,1.5113398,2.4107003,9.284743,2.03776221409526420194,-1.4742297,9.4696665,1.6460136,2.3219187,9.286439,2.13099531409526420215,-0.91219085,8.440758,1.043872,2.2275395,9.288952,2.2189661409526420235,-0.789488,8.119935,0.81642276,2.1339521,9.298063,2.27214741409526420237,-0.62847793,8.53054,0.86490536,2.0558057,9.310782,2.29203061409526420238,-0.3274071,8.51857,0.78290397,1.9964526,9.322726,2.2959471409526420243,0.3705027,8.154651,0.90261406,1.9531819,9.3331995,2.29059981409526420272,1.1127052,7.804499,1.2629414,1.918048,9.346106,2.26755381409526420273,1.553837,7.7847466,1.377863,1.884189,9.365471,2.2154391409526420274,1.7375919,8.585608,1.5879543,1.8472772,9.390906,2.13748431409526420318,2.1918917,10.1544075,1.7705121,1.802084,9.419616,2.04785561409526420320,2.586935,11.073781,1.5885528,1.7487197,9.448266,1.96026421409526420321,2.4091654,10.661979,1.1641805,1.6880753,9.475015,1.88278721409526420322,1.9267339,10.098145,0.59615624,1.6203835,9.50064,1.8117961409526420323,1.5735891,9.728839,0.24540567,1.5420784,9.526583,1.74258541409526420349,1.0654198,9.227253,0.32142156,1.4575502,9.5535145,1.6662231409526420351,-0.08259996,8.309077,0.11731588,1.3716189,9.579525,1.58801381409526420354,-0.30945057,7.9888525,-0.08499416,1.2830253,9.603403,1.5162051409526420362,-0.41120413,7.877522,-0.15382746,1.1976137,9.623896,1.45489951409526420386,-0.7284359,8.170214,0.015562311,1.1215148,9.640485,1.40486481409526420388,-0.6859388,8.607754,0.50996494,1.0565263,9.6536255,1.36442881409526420396,-0.44232875,8.690353,0.7182605,1.0010101,9.66337,1.3370351409526420418,-0.30825347,8.16363,0.5542577,0.9488514,9.670023,1.32691661409526420419,0.037708677,7.477092,0.23523031,0.8925048,9.675549,1.32573211409526420424,0.47524905,7.277176,0.022146367,0.8336134,9.6789875,1.33892071409526420448,0.7332243,7.644686,-0.018555064,0.7646415,9.683265,1.34909881409526420449,0.92895025,8.100781,-0.074220255,0.6890781,9.690366,1.33879381409526420454,1.4203602,8.145673,-0.11851298,0.612087,9.699914,1.30668681409526420463,2.0572178,8.028955,0.12030864,0.5360752,9.70958,1.26770281409526420489,2.8389246,8.16363,0.4770447,0.45965415,9.71719,1.23908011409526420490,3.5529952,8.674791,1.0929531,0.38497308,9.721359,1.23180911409526420495,3.8684313,8.570643,1.7298107,0.31927302,9.720795,1.25483061409526420535,3.639785,8.34918,2.0446482,0.2602246,9.715218,1.31042231409526420538,2.8820202,8.189367,2.2972364,0.19885749,9.706236,1.38557671409526420540,2.0979192,8.037335,1.5310919,0.129009,9.695741,1.46504371409526420542,1.7729063,7.892486,1.0767922,0.049847826,9.685983,1.53285121409526420544,2.0721815,8.23366,1.1731589,-0.034914076,9.678124,1.58211111409526420572,2.211644,8.6257105,1.5987282,-0.112704866,9.672096,1.61500621409526420573,1.9752164,8.617929,2.5821466,-0.17897858,9.666326,1.64332121409526420576,2.472612,9.455899,2.086547,-0.23862578,9.658799,1.67960171409526420595,1.3150153,9.27394,2.2888567,-0.28964362,9.651925,1.7107971409526420596,1.939902,9.840169,1.4706384,-0.34701753,9.6453705,1.73689351409526420611,2.5300727,9.9712515,0.53570265,-0.3961095,9.641366,1.74858151409526420632,3.3446999,10.213664,0.5931635,-0.43327925,9.6405,1.74453961409526420633,3.5458126,10.738593,1.6023195,-0.45454857,9.642151,1.72994841409526420634,3.0992942,10.861296,2.3517046,-0.4694329,9.643332,1.71935151409526420642,2.44029,10.721834,2.2092497,-0.4810681,9.643757,1.71374711409526420667,1.7058687,11.050438,2.2140381,-0.489226,9.644765,1.70574531409526420669,0.57041854,11.662755,2.304419,-0.49077597,9.6483135,1.68510091409526420674,-0.23223756,11.631032,2.1380222,-0.48653388,9.6556835,1.6436071409526420698,-0.27832595,10.769718,1.1073183,-0.4686728,9.665797,1.58842621409526420699,0.49919105,10.136452,0.80205756,-0.42666423,9.677699,1.52659641409526420703,0.61052144,9.303269,1.1210849,-0.3577716,9.691273,1.45657781409526420737,-1.3425486,8.234857,0.19093758,-0.27202815,9.706131,1.37382731409526420739,-2.5354595,6.3823433,-0.31184477,-0.17925373,9.722033,1.27293461409526420741,-3.0627825,7.431602,-0.75836337,-0.06658968,9.736388,1.16990281409526420743,-3.1789012,9.946711,-0.2873042,0.052214902,9.748218,1.06766451409526420769,-2.5474305,14.501081,0.7015011,0.18707207,9.755249,0.985152541409526420770,-0.6997054,19.147629,0.61052144,0.34018445,9.755657,0.939057651409526420803,1.8411411,19.608511,-0.5279215,0.9741805,9.716185,0.90395721409526420804,1.5149311,19.608511,-0.58538234,0.9741805,9.716185,0.90395721409526420805,0.18734628,19.542072,-0.34237084,0.9741805,9.716185,0.90395721409526420806,0.19812019,16.75223,0.52492875,1.1268893,9.699399,0.90672051409526420844,0.45789108,12.592304,1.8668787,1.2319481,9.681974,0.955025431409526420845,-0.3250129,10.29806,3.2225955,1.301044,9.662319,1.05699471409526420847,-2.9616275,9.284714,3.5571852,1.3319927,9.643422,1.18347411409526420848,-2.831742,9.533711,2.629432,1.3348984,9.627341,1.30489811409526420884,-0.9696517,9.528324,1.7549498,1.3470627,9.6155615,1.3772461409526420885,0.08080431,8.324639,1.9009962,1.4239607,9.602061,1.39396791409526420886,0.5542577,6.892308,2.541445,1.5604955,9.581603,1.38856761409526420887,0.9780314,5.931635,3.2130187,1.716859,9.554851,1.38838961409526420895,2.0644004,6.575675,3.5823243,1.8704277,9.524285,1.39995281409526420915,2.9867666,6.692991,2.3110032,2.0213056,9.490671,1.41841081409526420916,2.6156654,5.7281275,1.5502456,2.1630337,9.457501,1.43084881409526420923,2.4480712,5.09127,1.3479356,2.2779543,9.428482,1.44396141409526420947,2.2816741,4.6160207,1.3970166,2.3649998,9.40353,1.46656121409526420948,2.2397757,4.3179426,1.3904326,2.4346478,9.379658,1.50495351409526420954,2.0841527,4.1958385,1.42455,2.499779,9.354777,1.55229931409526420963,1.8740613,4.31495,1.5969325,2.5647795,9.3268175,1.61331281409526420981,1.6968905,4.408324,1.5951369,2.6323037,9.295802,1.68208561409526420984,1.7040731,4.8261123,1.632247,2.6995952,9.263911,1.7500081409526420995,1.9524715,5.3713913,1.6543933,2.7615802,9.234057,1.81004181409526421027,2.3020248,5.920861,1.6986861,2.8155227,9.208463,1.85672681409526421033,2.8407204,6.5391636,1.9327193,2.8591301,9.188947,1.88654221409526421036,3.3560722,7.301118,2.0649989,2.8913364,9.176347,1.89874731409526421070,3.9205053,8.131308,2.408567,2.9105577,9.171428,1.89312931409526421071,4.2957964,8.911818,2.8431146,2.914019,9.174166,1.87445271409526421072,4.5980644,9.17099,3.1902738,2.8970377,9.184044,1.85227781409526421073,4.782418,8.974067,3.594894,2.8712373,9.197525,1.82535461409526421075,5.020641,9.041702,3.99293,2.8255236,9.217026,1.79811881409526421097,5.434838,9.801862,4.474763,2.7631564,9.240256,1.77567931409526421098,5.1343656,9.156026,4.3873744,2.691234,9.26314,1.7668871409526421103,4.298789,7.8972745,3.822343,2.6108963,9.285296,1.77112751409526421133,3.1920695,10.449493,3.7606924,2.527138,9.306764,1.7799191409526421135,2.8078,15.074492,3.2465374,2.4427648,9.327106,1.7911991409526421136,3.560178,15.682021,1.1587936,2.3607872,9.345908,1.8030731409526421143,4.646547,14.279617,-0.15741876,2.3225923,9.354812,1.8064991409526421167,6.357204,11.351509,-0.5009867,2.350665,9.346083,1.8153511409526421168,5.419874,6.8366427,1.9482816,2.4193058,9.322594,1.84569381409526421175,5.9603653,6.271611,6.5948286,2.4996064,9.28142,1.94360591409526421198,5.1355624,11.097125,12.182297,2.5975866,9.220977,2.0967911409526421198,5.61141,17.413628,8.800487,2.7011964,9.144612,2.29128981409526421203,2.8772318,16.761208,4.3382936,2.803617,9.094105,2.3679911409526421238,-1.7824832,14.898519,4.010886,2.8629084,9.081651,2.34473251409526421239,-4.1371803,14.370597,1.1414356,2.8441741,9.091551,2.32911371409526421241,-3.2124202,13.751098,-1.7633295,2.7662961,9.115761,2.32828261409526421244,-2.2134395,13.7367325,-1.2755109,2.6707823,9.141002,2.34081241409526421269,-2.0608091,13.290214,-1.2300211,2.5548987,9.165539,2.37398081409526421271,-1.9901801,11.834539,-2.0213048,2.424949,9.194572,2.3978871409526421276,-1.9123687,10.652402,-1.8722657,2.3109636,9.223319,2.40004091409526421303,-1.3120226,9.5971575,-0.18734628,2.2030904,9.250895,2.39535521409526421304,-0.6123171,8.994417,0.92775315,2.1213028,9.268379,2.40158531409526421305,0.3549404,8.406042,1.4903905,2.0639548,9.2802305,2.4057831409526421345,1.2868834,8.143877,1.7669208,2.0232878,9.294427,2.38544231409526421346,2.143409,8.426393,1.9758149,1.9875481,9.313428,2.34096221409526421348,2.7192147,9.032724,2.2936451,1.9500864,9.334684,2.28719041409526421349,2.867655,9.357738,2.433706,1.9065154,9.356215,2.23536321409526421380,2.7682958,9.34397,2.190096,1.8548932,9.378384,2.18533521409526421382,2.5510218,8.924387,1.8567034,1.7931937,9.402689,2.1317351409526421384,2.0165164,8.508993,1.2856863,1.7219851,9.42843,2.07602481409526421408,1.4508862,8.486248,0.9792285,1.6430176,9.457358,2.00730231409526421410,0.47644615,8.268974,0.47225627,1.5608766,9.488733,1.92301931409526421411,0.034117375,8.233061,0.18495208,1.4773921,9.520089,1.83183051409526421446,-0.3728969,8.018182,-0.2124854,1.3963692,9.547868,1.74893431409526421448,-0.8295909,7.797915,-0.3585317,1.3177276,9.570864,1.68301681409526421449,-1.1438298,8.100781,0.035913024,1.2419964,9.589471,1.63398281409526421450,-1.2641385,8.643068,0.19871874,1.1687386,9.604887,1.59705561409526421476,-0.83976626,8.876503,0.44113165,1.0967264,9.6182785,1.56726471409526421478,-0.2813187,9.0476885,0.52732295,1.0272155,9.629267,1.54676091409526421481,1.0085574,8.380304,0.29448682,0.95542204,9.638496,1.53524771409526421503,1.5197195,8.255806,0.33997664,0.88830954,9.646485,1.52532861409526421504,2.2373815,8.53054,0.2741361,0.8133818,9.655245,1.5116451409526421505,2.9179332,8.322844,0.20649989,0.73593485,9.665698,1.484281409526421536,3.7618895,8.009802,0.43754035,0.66103536,9.676958,1.44564741409526421537,4.1653123,8.094197,0.92296475,0.5907809,9.686727,1.41020831409526421538,4.3065705,8.061875,1.4646529,0.51959604,9.692892,1.3958041409526421544,4.1479545,7.8128786,1.9716251,0.44454846,9.694509,1.41041981409526421567,3.3985693,7.4926543,2.1751323,0.36518717,9.691928,1.45036021409526421568,2.4648306,7.61416,2.172738,0.27623534,9.686501,1.50525071409526421575,1.893215,7.6883802,1.7669208,0.17715877,9.679477,1.56420161409526421594,1.7699136,7.9966335,1.2401965,0.07373705,9.672278,1.61616181409526421608,1.7914615,8.182184,1.18094,-0.028463705,9.6649885,1.6605871409526421609,2.0829554,8.507795,1.5053543,-0.11969251,9.657723,1.69836941409526421633,2.1769278,8.564658,2.3349452,-0.19845662,9.649505,1.73725741409526421635,2.1769278,8.738836,2.813187,-0.268741,9.63953,1.78259481409526421636,1.6304513,8.915408,2.7222073,-0.33233637,9.62911,1.82761561409526421644,1.6160861,9.566033,2.2457612,-0.39361778,9.620009,1.86303731409526421669,2.220622,9.8677025,1.395221,-0.44591114,9.61353,1.88457051409526421671,3.6403837,10.01315,1.3215994,-0.48452705,9.610708,1.88942291409526421676,3.484162,10.894217,2.1679497,-0.5022199,9.611468,1.88091661409526421701,3.0119057,11.048642,2.4570496,-0.51073486,9.613385,1.86878761409526421703,2.3780408,10.965444,2.054225,-0.5125574,9.61556,1.85706441409526421705,1.7932571,11.331757,1.9812019,-0.51567155,9.618869,1.8389741409526421742,1.1264719,11.90457,1.905186,-0.5113092,9.625126,1.80718181409526421747,0.66259533,11.545439,1.8776526,-0.5018835,9.636284,1.74943731409526421749,0.48003745,10.69849,0.94331545,-0.4855668,9.65027,1.67538021409526421752,0.9660604,10.165182,0.9008184,-0.45616636,9.664755,1.59837281409526421777,1.5221137,9.721656,1.3934253,-0.40821397,9.678473,1.52673441409526421779,-0.31124622,8.655039,0.92775315,-0.3420555,9.692731,1.45064341409526421780,-0.8379706,7.6309195,0.55006784,-0.27576378,9.707455,1.36369111409526421796,-2.4426842,6.63972,-0.0688333,-0.19202231,9.721317,1.27652551409526421797,-3.2321723,7.117962,-0.8038532,-0.08872202,9.7334385,1.19276421409526421804,-3.3476925,8.868123,-0.65301853,0.021017509,9.743941,1.10705771409526421849,-3.3171666,11.98657,0.27712885,0.14694822,9.751207,1.03089271409526421852,-2.4019828,17.28434,0.8870517,0.28440782,9.752768,0.98641621409526421856,0.04309563,19.608511,-0.18076223,0.43124953,9.748166,0.97860321409526421858,2.2170308,19.608511,-1.1647792,0.6149217,9.739285,0.968812471409526421860,0.3184288,19.118898,-0.37948096,0.81687796,9.727782,0.9345471409526421885,0.4818331,14.984112,0.8924387,0.9500743,9.717326,0.917236861409526421886,-0.089782566,10.945692,2.6629508,1.0411103,9.703483,0.96379711409526421887,-3.271078,8.905233,4.0743327,1.084838,9.687256,1.07265641409526421910,-4.281431,8.926183,3.6260185,1.069276,9.673087,1.2076561409526421911,-1.9560628,10.53329,2.4498668,1.0408748,9.662592,1.31198021409526421917,-0.12210429,9.88506,1.9829975,1.0472496,9.652635,1.37851751409526421925,0.83617496,8.406042,2.2960393,1.1330422,9.64109,1.39141409526421949,1.2587515,6.9647326,2.895787,1.2742355,9.62482,1.38187591409526421950,1.9818004,6.564901,3.4326868,1.4221134,9.60436,1.37994741409526421955,2.9945478,7.15567,3.4452562,1.5627767,9.580008,1.39699381409526422001,3.3554738,7.097611,2.5504234,1.7014921,9.552207,1.42500571409526422004,3.163339,6.0561333,1.5275006,1.8289545,9.524686,1.45109781409526422006,3.1376014,5.319318,1.1186907,1.930352,9.500855,1.47576391409526422008,3.0232782,4.8542438,1.1605892,2.0066893,9.480043,1.5074371409526422013,2.835932,4.730344,1.3323733,2.0692987,9.459281,1.55254821409526422041,2.4911668,4.5244427,1.335366,2.1267486,9.437654,1.60562471409526422042,2.006341,4.1880574,1.3162124,2.1813254,9.414421,1.66759751409526422046,1.6358383,4.1814733,1.2629414,2.232156,9.390617,1.73325491409526422048,1.590947,4.4244847,1.3293805,2.2760713,9.367893,1.79790541409526422071,1.6394296,4.4921207,1.2216414,2.3120449,9.3475,1.85717431409526422072,1.7770962,4.8458643,1.3102269,2.340255,9.330268,1.90780711409526422075,1.9859903,5.41748,1.8177977,2.36055,9.316862,1.94789351409526422092,2.2002714,6.173449,2.6120741,2.3718677,9.307378,1.97923221409526422109,2.4791958,6.885724,3.53863,2.3727705,9.302061,2.0029991409526422111,2.8981812,7.4244194,4.2862196,2.361488,9.300991,2.02122071409526422125,3.318962,7.945757,4.674679,2.3373463,9.304671,2.0323111409526422127,4.028843,8.698134,4.6399627,2.3088043,9.310503,2.03822261409526422142,4.345476,9.570223,4.696825,2.268259,9.322265,2.0299721409526422144,4.763264,10.290278,4.261679,2.2172275,9.339044,2.00912241409526422163,5.1846437,10.21127,3.5697548,2.1626143,9.358404,1.97832481409526422165,4.5657425,10.645219,3.645172,2.1141348,9.376997,1.94236081409526422176,3.767875,14.264055,4.0162735,2.071159,9.393032,1.91092481409526422194,3.3836055,16.957533,3.0508115,2.0285084,9.406286,1.89138621409526422197,4.0294414,15.767015,0.777517,1.9968861,9.415783,1.87773171409526422204,5.57849,13.907319,-0.18315643,2.0124087,9.416205,1.85895121409526422236,7.7159133,11.578958,0.20350714,2.0767686,9.400867,1.86578041409526422238,6.7067575,7.4345946,2.707842,2.176925,9.364151,1.93496011409526422239,5.177461,9.900622,13.543999,2.2662685,9.317709,2.05297681409526422279,5.4617724,18.025347,9.685144,2.3545797,9.233586,2.31673551409526422281,2.621651,19.450495,3.9390604,2.4482007,9.17078,2.46444731409526422283,-2.767697,17.04492,2.9269116,2.508987,9.156455,2.45656231409526422285,-4.7219644,15.90169,-0.32022446,2.4971051,9.171828,2.4109021409526422287,-3.945046,14.115615,-2.3415294,2.437941,9.20339,2.35041641409526422328,-3.560178,12.630611,-1.1408371,2.3631277,9.227151,2.3336021409526422329,-3.3171666,11.8099985,-1.074398,2.2539895,9.242932,2.37868171409526422330,-2.956839,9.90601,-1.8770541,2.1139224,9.263837,2.42550061409526422332,-3.0693667,8.436568,-1.5807717,1.9828745,9.288132,2.44321409526422336,-2.959832,7.793725,-0.83497787,1.8758878,9.309297,2.44712851409526422363,-2.2810757,7.7614036,0.14065935,1.7921988,9.3252125,2.44925171409526422365,-0.98940384,7.5824366,1.1450269,1.7247477,9.336937,2.45300941409526422368,0.38965634,7.3106947,1.685518,1.6803415,9.349626,2.435441409526422396,1.3485341,7.2861543,1.7705121,1.6488321,9.367059,2.38955281409526422397,2.011728,7.8290396,1.9524715,1.6191465,9.389141,2.32224321409526422398,2.6204538,8.962694,2.3786395,1.586032,9.413649,2.24456831409526422405,3.0951042,10.202292,2.3511062,1.5490085,9.438795,2.1633631409526422434,3.2668881,10.977415,1.881244,1.507519,9.464575,2.0783691409526422435,2.2242134,10.933721,0.16519992,1.4565574,9.491899,1.98813761409526422437,1.2964603,10.460866,-0.19692309,1.3853906,9.524,1.88267871409526422480,0.2693477,9.770737,-0.3645172,1.3014781,9.556408,1.77527771409526422483,-0.3705027,9.163208,-0.4321534,1.2120426,9.587614,1.6670391409526422486,-0.5955577,8.444948,-0.5231331,1.1235636,9.614224,1.57311621409526422488,-0.4321534,7.77936,-0.41120413,1.0409713,9.634749,1.50279341409526422491,-0.34117374,7.685986,-0.06584055,0.9690856,9.649355,1.45643751409526422528,-0.36032736,8.270171,0.37469256,0.91116244,9.659166,1.42853831409526422529,-0.1448492,8.831612,0.7978677,0.86249655,9.665915,1.41300451409526422530,-0.076015905,8.453926,0.64942724,0.8135656,9.670882,1.40802061409526422530,0.1364695,7.8128786,0.3489549,0.75539374,9.675,1.4121421409526422536,0.31004912,7.515399,0.08619126,0.6849428,9.679128,1.41977231409526422560,0.5686229,7.3753386,0.050876785,0.60341156,9.684954,1.41702461409526422561,0.78529817,7.5734587,0.3321955,0.5203041,9.691496,1.40520051409526422565,1.4909891,8.441357,0.6799533,0.43444425,9.69971,1.37742661409526422576,2.44029,8.62152,0.56802434,0.3560728,9.707391,1.34542111409526422591,3.38181,8.450335,0.65421563,0.28754807,9.713142,1.32007041409526422610,3.5924997,7.9864583,0.81283146,0.22721499,9.7162695,1.30877761409526422611,3.8402996,7.778163,1.2797008,0.16829781,9.716316,1.31729781409526422620,3.152565,8.308478,2.3882163,0.11376725,9.712527,1.35065481409526422627,2.7521348,8.380304,2.3080103,0.05903945,9.704383,1.41132721409526422657,2.4672248,7.945757,1.8219875,0.001513583,9.693853,1.48309541409526422659,2.6018987,7.949348,1.4891934,-0.06240491,9.682806,1.55233651409526422660,2.6539726,7.865551,1.4694413,-0.12706892,9.671785,1.61580571409526422679,2.9538465,8.240842,1.8770541,-0.1913314,9.661561,1.66973111409526422680,2.778471,8.4664955,3.0256724,-0.24725719,9.651752,1.71841621409526422684,2.871845,9.024344,3.2573113,-0.2976957,9.6406765,1.7717581409526422704,2.3110032,9.307459,3.1884782,-0.3422278,9.629487,1.82379771409526422705,2.1823149,9.403826,2.3505075,-0.39191276,9.619006,1.86856161409526422725,2.6617537,9.496601,1.1653777,-0.44409502,9.611616,1.89473941409526422727,3.3225534,9.710283,0.8559271,-0.4920945,9.608984,1.89623011409526422738,3.767875,10.336966,1.3742718,-0.53166103,9.610191,1.8793471409526422761,3.2668881,11.110293,1.8968062,-0.56307256,9.613198,1.85466241409526422763,2.3122003,11.183915,2.0129251,-0.5930288,9.615711,1.83215991409526422765,1.4089876,11.191696,1.4850036,-0.6305719,9.617241,1.81147841409526422802,0.51954174,11.422138,1.3652935,-0.6671645,9.620357,1.78158651409526422803,-0.22026655,11.587936,1.4682442,-0.6973669,9.627358,1.73148781409526422805,-0.25139117,10.92594,0.7493851,-0.71325654,9.63783,1.6655081409526422806,1.436521,10.271724,1.666963,-0.7018932,9.651503,1.58942071409526422829,0.06344634,9.249998,0.9307459,-0.6492297,9.667438,1.51312531409526422830,-0.7870938,8.067263,-0.24241292,-0.5849188,9.686254,1.41589771409526422836,-2.4863784,7.1167645,-0.5847838,-0.50422746,9.706944,1.30053111409526422853,-3.259107,7.7727757,-0.789488,-0.4104924,9.72706,1.17736451409526422856,-3.6589386,9.532514,-0.712275,-0.299572,9.745442,1.05215441409526422873,-3.5895069,12.720992,-0.109534726,-0.17432004,9.759804,0.94140621409526422894,-2.7162218,17.478271,0.28191724,-0.044596426,9.769747,0.848818061409526422895,-0.90500826,19.608511,-0.825401,0.106439024,9.773656,0.796676461409526422897,-0.41240123,19.608511,-1.8070238,0.29492077,9.772412,0.76379811409526422905,-2.5689783,19.608511,-1.2162545,0.48645273,9.766856,0.73639561409526422929,-2.7976246,17.483658,0.048482586,0.6120102,9.760246,0.73035571409526422931,-1.9267339,12.451046,1.4580688,0.69281006,9.751135,0.77831531409526422937,-1.1707647,8.483853,2.6120741,0.7573656,9.737138,0.88598611409526422959,-3.433884,7.5950065,4.0037036,0.8055055,9.719796,1.02328361409526422960,-3.8839936,9.85633,3.8522706,0.82044965,9.703044,1.16111731409526422967,-1.7950528,11.243171,2.493561,0.84422207,9.688685,1.25978411409526422987,0.40043023,10.233417,1.7501614,0.9454168,9.671661,1.31738961409526422988,1.7788919,8.033744,2.6701334,1.0937765,9.655603,1.32036721409526423004,3.217807,7.4202294,3.204639,1.277888,9.634916,1.30604961409526423005,3.6314054,7.603386,2.9562407,1.4656175,9.609293,1.29763261409526423021,3.626617,7.427412,1.9303252,1.6441588,9.581081,1.29229011409526423036,3.5170822,6.919243,1.0271125,1.80702,9.553693,1.27750671409526423037,3.1124623,6.145916,0.7015011,1.944004,9.529236,1.25892031409526423054,2.8054059,5.2899885,0.4878186,2.0498576,9.507764,1.25335681409526423056,2.4570496,4.9643774,0.7954735,2.1304696,9.48747,1.27255831409526423070,2.136825,5.003283,0.9756372,2.195403,9.465886,1.32196841409526423085,1.8339585,4.9787426,1.192911,2.2518632,9.442026,1.39557531409526423086,1.7196354,4.8297033,1.3736732,2.3039393,9.416861,1.47817731409526423102,1.6220716,4.772841,1.5179238,2.3511727,9.391104,1.56510081409526423105,1.6980876,4.8494554,1.6376339,2.3904886,9.366919,1.64827081409526423119,1.9099745,4.808754,1.6328455,2.4205976,9.346151,1.72062681409526423134,2.2876596,5.04578,1.6585833,2.4422834,9.329953,1.77696671409526423136,2.6318262,5.5431757,1.846528,2.4560282,9.319147,1.81434131409526423152,2.9783869,6.0944405,2.1577742,2.4616277,9.313925,1.83346661409526423156,3.1896753,6.8079123,2.60968,2.4576013,9.314252,1.83719791409526423177,3.4985273,7.354389,3.1184478,2.440477,9.320194,1.8298681409526423179,4.4819455,7.623737,4.045004,2.4094617,9.33125,1.81457281409526423185,4.753089,8.983644,4.6818614,2.371089,9.344691,1.79584751409526423226,5.0763063,10.038289,4.8644195,2.3284755,9.35871,1.7785161409526423227,5.7215433,10.66976,4.657321,2.2776618,9.374724,1.7598811409526423228,4.8374844,9.601347,4.56694,2.2310612,9.388998,1.74340831409526423229,4.1677065,9.89763,4.0653543,2.18182,9.402535,1.73273921409526423237,4.0641575,14.605229,3.7948096,2.1346042,9.415428,1.72150291409526423251,3.441665,17.988235,2.6420016,2.0919678,9.426847,1.71131781409526423257,3.4943373,16.017807,0.19692309,2.0523198,9.436803,1.70443571409526423278,5.577293,13.728951,-0.95468795,2.046055,9.439884,1.69489111409526423280,5.6269727,10.9582615,1.0456676,2.0931222,9.428338,1.70166921409526423285,4.80636,9.455899,5.8346696,2.1558862,9.398671,1.78536761409526423314,4.757279,12.146384,9.909002,2.2208998,9.354121,1.9334881409526423315,5.535993,17.615938,7.626131,2.2976913,9.288891,2.14651561409526423317,3.357868,18.602348,5.1918263,2.3928795,9.229214,2.29480481409526423344,-2.771887,17.391481,3.8414967,2.4723196,9.196547,2.3412751409526423345,-4.959589,15.861587,0.14963761,2.4712431,9.200367,2.32735851409526423347,-3.6673183,11.977592,-2.2056582,2.4212358,9.22438,2.28447721409526423357,-2.9257145,9.3182335,-0.6631939,2.3632264,9.237241,2.29323361409526423383,-1.9440918,8.091205,0.98581254,2.2742422,9.240385,2.3692841409526423384,-1.9129672,7.635708,0.4429273,2.1715474,9.245856,2.44313481409526423386,-1.785476,8.073847,0.80924016,2.07614,9.261089,2.46825271409526423406,-1.3485341,8.983045,0.92416185,1.9994276,9.280841,2.45737361409526423408,-0.5279215,9.569624,0.55725044,1.9415658,9.300463,2.42942261409526423424,0.2693477,9.100959,0.5734113,1.8993205,9.31807,2.39511131409526423425,1.0307038,8.37013,0.5105635,1.8700738,9.33564,2.3492621409526423437,1.6286557,8.462905,0.599149,1.8409445,9.35752,2.2843231409526423452,2.1930888,9.739014,1.1402385,1.8029464,9.384968,2.20049021409526423470,2.779668,10.842142,1.401805,1.7556065,9.415207,2.1076391409526423470,2.682703,10.424355,1.0875661,1.7034805,9.444578,2.0170511409526423487,2.1398177,9.610924,0.84455466,1.6433375,9.471634,1.93854891409526423488,1.5466543,9.258378,0.7799112,1.5695871,9.497508,1.87192821409526423502,1.0049661,8.837597,1.0324994,1.4842438,9.52387,1.80646221409526423505,0.5470751,8.509591,0.9888053,1.3955439,9.549485,1.7407481409526423517,0.28431144,8.192958,0.7697359,1.3071697,9.573428,1.67665141409526423535,0.08738836,7.9152308,0.3573346,1.2263465,9.594405,1.61674171409526423537,0.07182605,7.73387,0.21906945,1.1519998,9.612559,1.56269571409526423552,0.095169514,7.929596,0.2681506,1.0850686,9.627982,1.51492791409526423571,0.23104046,9.976639,0.78888947,1.0289527,9.640692,1.47265341409526423572,0.20111294,9.6845455,0.5542577,0.97973865,9.651093,1.43768071409526423587,0.44532153,8.862736,0.18315643,0.9292614,9.659426,1.415041409526423588,0.7098808,8.007407,-0.19752164,0.8688858,9.665907,1.4091341409526423601,0.7074866,7.513005,-0.2220622,0.79509103,9.671919,1.41146721409526423605,0.92895025,7.6428905,0.095768064,0.7108849,9.679772,1.4025221409526423618,1.42455,8.421006,0.3549404,0.6224741,9.688462,1.38442051409526423633,1.8112136,8.737639,0.6853402,0.53833514,9.698547,1.34862941409526423638,2.6318262,8.541913,0.7170634,0.46236584,9.7073765,1.3128071409526423652,3.0801406,8.346188,0.9044097,0.39469343,9.713086,1.29250481409526423666,3.2692823,8.040926,1.2892777,0.32753378,9.7147255,1.29893221409526423667,2.983774,7.797915,1.6861166,0.25722992,9.711415,1.33889581409526423685,2.4827871,7.5926123,2.1440077,0.17981775,9.703043,1.41032561409526423686,1.9183542,7.0742674,2.12246,0.092321835,9.690393,1.50271521409526423702,1.7489643,6.7923503,1.6005238,-0.007684636,9.676177,1.59435081409526423705,1.9452889,7.080253,1.3239936,-0.11553364,9.663755,1.66399681409526423717,2.308609,8.042722,1.5771804,-0.21817291,9.654363,1.70764761409526423735,2.4253263,8.544308,2.023699,-0.3102824,9.645483,1.74321351409526423736,2.4432828,9.0429,2.2942438,-0.3889175,9.636975,1.7742121409526423749,1.7118542,9.869498,2.468422,-0.45931756,9.627711,1.80737251409526423778,1.4742297,10.155006,1.9506758,-0.5311886,9.6176405,1.84098411409526423781,2.066196,10.209475,0.91697925,-0.6017362,9.608681,1.86589121409526423782,3.1759086,9.923966,0.43514615,-0.6598764,9.603381,1.87350331409526423786,4.223372,9.994595,1.2156559,-0.6968514,9.601901,1.86769521409526423817,4.341286,10.569203,2.4468741,-0.7126824,9.602068,1.8608511409526423818,3.300407,10.444705,3.482965,-0.7155713,9.601731,1.86147751409526423820,2.3145945,10.370484,3.539827,-0.7200158,9.599309,1.87222431409526423839,1.5334862,11.091738,3.3476925,-0.72717774,9.597363,1.8794191409526423840,0.60094464,11.503541,3.2788591,-0.7368246,9.597294,1.87601671409526423846,-0.092775315,10.876859,2.7287915,-0.7421898,9.6026,1.84651791409526423875,-0.19033903,10.17835,1.5233108,-0.7363933,9.613415,1.79175521409526423877,0.27473465,9.774328,1.4221559,-0.70851713,9.628669,1.71963781409526423878,1.0073603,9.479243,1.5586253,-0.65592533,9.647186,1.63461211409526423886,0.1364695,8.704121,0.20829555,-0.57921183,9.6699095,1.52569091409526423907,-2.2750902,7.831434,-0.83617496,-0.4920398,9.695492,1.38770761409526423908,-1.8543092,7.9116397,-1.702876,-0.40580037,9.719694,1.23824921409526423918,-3.0244753,8.411429,-2.2457612,-0.29082215,9.74139,1.09137141409526423943,-3.2674868,10.511743,-2.243367,-0.15921785,9.75903,0.95203771409526423944,-1.3617022,18.568232,-0.7218518,-0.017369214,9.772452,0.818088651409526423946,0.09995792,19.608511,-0.7068881,0.14538465,9.779495,0.714654151409526423973,-0.7260417,19.608511,-1.2108675,0.34605193,9.778198,0.66144171409526423975,-3.1370027,19.451693,-0.9696517,0.5336172,9.77078,0.6461621409526423978,-3.3345244,16.172832,0.45429978,0.6559097,9.762295,0.661649641409526423986,-2.586935,11.154586,1.9668367,0.73627484,9.751789,0.728632571409526424012,-2.4540567,7.8505874,3.2740707,0.7939082,9.737609,0.84799551409526424013,-4.931457,7.3909006,3.946243,0.82457185,9.720817,0.99809341409526424018,-4.547786,9.288904,2.959832,0.8098881,9.705797,1.14541321409526424038,-1.6729485,10.636241,1.6579847,0.8033492,9.694116,1.24464371409526424039,0.30526072,9.494805,1.5490485,0.8800101,9.682699,1.28113011409526424053,1.1671734,7.689577,2.0560207,1.007732,9.668122,1.29703311409526424069,1.721431,6.603807,2.9191303,1.1820636,9.648617,1.29510921409526424070,3.25791,7.065289,3.425504,1.3612365,9.624486,1.29872831409526424084,4.019266,7.2382703,3.13401,1.5422711,9.595637,1.30979241409526424086,4.135385,6.817489,1.9835961,1.7170656,9.56475,1.31819131409526424099,3.7068229,5.971139,1.0217255,1.8652924,9.536958,1.31814941409526424117,3.2734723,5.397129,0.7200562,1.9774382,9.514089,1.31994551409526424118,3.0585926,4.9015293,0.79367787,2.060462,9.493988,1.33756431409526424133,1.9381063,4.289212,1.4879963,2.12857,9.47343,1.37612691409526424137,1.7441759,4.2515035,1.7058687,2.1846945,9.451893,1.43500271409526424151,1.6705543,4.343082,1.8483237,2.23592,9.429027,1.50483271409526424169,1.774702,4.5196543,1.8537107,2.2840517,9.40559,1.57745911409526424170,2.1374235,4.8135424,1.8339585,2.3272552,9.382912,1.64779591409526424189,2.4366987,5.2618566,1.9788077,2.3641026,9.36249,1.71031821409526424189,2.712032,5.885546,2.055422,2.3935518,9.345485,1.76159121409526424198,2.9813797,6.553529,2.2343888,2.4146152,9.332874,1.79931131409526424216,3.1160536,7.020398,2.3558946,2.4253883,9.325052,1.82518041409526424218,3.4165258,7.519589,2.5743654,2.4217496,9.323081,1.84001761409526424239,3.8660371,7.650073,3.1094694,2.4026906,9.326967,1.84530941409526424240,4.647744,8.291121,3.7403417,2.3706124,9.335753,1.842361409526424246,4.074931,8.673594,4.939238,2.3304768,9.347947,1.83170551409526424279,4.171298,9.463681,5.21098,2.273961,9.363219,1.82472651409526424280,4.096479,10.005967,5.084686,2.2141504,9.379599,1.8141281409526424281,4.1341877,10.125079,4.219182,2.1538,9.397384,1.79463521409526424286,4.9655743,9.714474,2.630629,2.1042762,9.415009,1.76068161409526424307,3.0304608,11.159973,3.3883939,2.0822861,9.428626,1.71332931409526424308,2.4319103,16.162657,3.4081461,2.0586329,9.437723,1.6916911409526424318,4.944625,15.561712,-0.51475334,2.0304613,9.44209,1.70134461409526424341,6.908469,12.564771,-0.1448492,2.068188,9.437613,1.68060891409526424341,5.1768627,8.582016,3.663727,2.1609504,9.414755,1.69206931409526424346,5.4713492,10.142437,9.689933,2.2454517,9.376201,1.79310151409526424389,5.78499,16.4751,9.868899,2.341263,9.311378,1.99678331409526424390,5.294777,19.323603,5.1517234,2.4427564,9.240679,2.19391409526424391,-0.9235633,17.687164,5.0224366,2.551544,9.19384,2.26568411409526424393,-4.654927,17.415422,2.328361,2.5918171,9.179111,2.27964571409526424399,-3.976769,13.848661,-1.2252327,2.5608037,9.1959305,2.2466751409526424432,-2.823961,11.244369,-1.0450691,2.52313,9.210222,2.23069931409526424433,-1.4772224,10.660183,0.50038815,2.4645307,9.211833,2.28880241409526424434,-0.6242881,9.818622,0.7044938,2.3774366,9.210417,2.3846251409526424455,-0.6877344,8.945934,0.5626374,2.2822669,9.216271,2.45397951409526424456,-0.6266823,9.136872,0.8146271,2.1950166,9.229084,2.4852141409526424458,-0.3489549,9.589376,0.87567925,2.1225233,9.244116,2.49231081409526424467,0.089184016,9.735423,0.9720459,2.063638,9.25925,2.4855731409526424494,0.5967548,8.977059,1.258153,2.0131094,9.274375,2.47057651409526424495,1.0582372,7.8811135,1.2306197,1.9677545,9.29262,2.43835071409526424498,1.1180922,7.5429325,1.0845734,1.9230089,9.315844,2.38484761409526424526,1.9764135,9.770139,1.6232687,1.8697815,9.344019,2.31594821409526424527,1.9153614,9.630077,1.0319009,1.8075407,9.374696,2.24015381409526424529,1.3162124,8.661623,0.46567222,1.7351453,9.406202,2.16402671409526424556,0.75357497,8.334216,0.29747957,1.6510657,9.436873,2.09518721409526424557,0.14784196,8.142081,0.27473465,1.5545624,9.467607,2.02932121409526424558,-0.23403321,7.916428,0.30466217,1.4493284,9.499735,1.95573071409526424567,-0.61171854,7.852383,0.10115502,1.3428987,9.531785,1.874061409526424588,-0.931943,7.8182654,-0.26396075,1.2394191,9.561936,1.78986331409526424589,-1.4305356,7.804499,-0.5315128,1.1368515,9.589536,1.7084461409526424598,-1.8339585,7.9092455,-0.55246204,1.0354075,9.613732,1.63537231409526424621,-1.9081788,8.107366,-0.19512744,0.9351922,9.6343775,1.57307611409526424622,-1.7298107,8.482059,0.27712885,0.839403,9.6510725,1.52400771409526424627,-1.3269863,8.336012,0.207697,0.74647963,9.664011,1.48998741409526424655,-0.9828198,7.7745714,-0.010773907,0.6544538,9.673716,1.47014511409526424656,-0.79487497,7.5441294,-0.3286042,0.56066495,9.681414,1.45817161409526424658,-0.16460137,7.8206596,-0.4842273,0.46157786,9.689388,1.439831409526424667,0.7577648,8.254609,-0.47764325,0.36080676,9.698956,1.4037421409526424711,1.8668787,8.841188,-0.35075054,0.26601282,9.709686,1.34967921409526424713,2.7862523,8.647258,-0.1436521,0.18120624,9.719764,1.28987241409526424715,4.1581297,8.409035,1.3174095,0.101806775,9.728544,1.23102741409526424718,4.220379,8.817246,2.023699,0.035234846,9.733345,1.19630711409526424720,4.2778397,9.176975,2.52289,-0.022329088,9.733768,1.19316961409526424741,4.091092,9.519944,2.3786395,-0.07079295,9.729681,1.22420841409526424742,3.353678,9.263166,1.9578584,-0.115051754,9.722306,1.27824191409526424746,2.9813797,9.101558,1.4209588,-0.1638443,9.712712,1.34415341409526424774,2.421735,8.306085,1.376666,-0.21663567,9.702234,1.41071891409526424776,2.9855695,8.091205,1.3880384,-0.27799165,9.691039,1.47542211409526424778,3.0532057,7.9702973,1.9506758,-0.33467418,9.6802,1.53366451409526424803,2.9203274,8.076241,3.1142578,-0.38509086,9.670083,1.58480511409526424804,2.5851393,8.474277,3.003526,-0.43224722,9.659174,1.63827561409526424807,1.7088615,9.196129,2.8520927,-0.4750105,9.649496,1.68284851409526424818,1.745373,10.140641,2.3505075,-0.51250666,9.640959,1.72035961409526424837,2.569577,10.569802,1.4730326,-0.5375763,9.634184,1.75040261409526424839,3.433884,10.760739,1.1438298,-0.54850477,9.629836,1.77082071409526424847,3.9953241,10.830172,1.6418238,-0.55079687,9.628189,1.77904271409526424875,3.4584243,10.675147,2.0620062,-0.5493716,9.628393,1.77837541409526424877,2.5450363,10.445902,2.4265234,-0.55353266,9.628887,1.77440811409526424879,1.54845,10.806828,2.472612,-0.5655297,9.629241,1.76869551409526424905,0.39085343,11.255142,2.1637597,-0.57960266,9.632091,1.74851641409526424907,0.5057751,10.922348,0.92416185,-0.5892961,9.637641,1.7143451409526424908,1.340753,10.878056,0.93493575,-0.5884665,9.648912,1.65002131409526424918,1.5688007,10.914567,1.7184383,-0.55712783,9.663498,1.57378531409526424930,0.40521863,10.078991,1.0348936,-0.50280535,9.679461,1.49185861409526424949,-0.4878186,9.118916,-0.34596214,-0.44600275,9.697084,1.39212631409526424950,-2.0961237,8.009203,-1.0696096,-0.38539428,9.715484,1.27720871409526424965,-3.196858,7.6943655,-1.5352819,-0.31999716,9.732346,1.16165551409526424970,-3.596091,8.612542,-1.7190368,-0.24283801,9.747426,1.04838171409526424993,-3.750517,10.928333,-1.2719196,-0.14954978,9.760642,0.936958551409526424994,-3.0753522,14.752472,-0.492607,-0.03812164,9.770858,0.83622911409526424998,-2.0266917,18.93215,-0.08379706,0.09369784,9.776202,0.766474661409526425014,-0.8122329,19.608511,-0.44951138,0.2402833,9.777582,0.71524881409526425018,-1.654992,19.604921,-0.4441244,0.40793002,9.77324,0.69839211409526425030,-2.219425,17.864336,0.27832595,0.54392815,9.765627,0.71210031409526425047,-1.4526819,13.798383,1.3958195,0.6351938,9.755935,0.76724221409526425048,-0.8343793,9.246407,2.4863784,0.70863765,9.74191,0.873748961409526425066,-1.6310499,8.311471,3.8253357,0.7653835,9.723929,1.01477441409526425067,-3.9707835,8.659229,3.9965212,0.7875915,9.705276,1.1652041409526425080,-0.6787562,11.326369,1.8207904,0.7836593,9.690508,1.28465181409526425098,0.41718966,9.139865,1.3724761,0.8462134,9.679052,1.33051471409526425099,0.60573304,6.9886746,1.4568717,0.98458177,9.666339,1.32773381409526425114,2.1039047,7.695563,2.2918496,1.1547555,9.650407,1.3063591409526425118,3.0472202,8.083424,2.778471,1.332513,9.629486,1.2914381409526425129,3.6649241,8.121731,2.2691047,1.5166003,9.60259,1.28864311409526425146,3.7008374,7.994838,1.0857705,1.6961488,9.571938,1.2928721409526425147,3.040636,7.2490444,0.25198972,1.8532485,9.542329,1.29607251409526425167,2.544438,6.271013,-0.1352724,1.978521,9.515824,1.30573581409526425169,2.0260932,5.531803,0.25617957,2.0738637,9.491642,1.33348741409526425190,1.7902644,5.309741,0.9068039,2.1471856,9.467591,1.38732981409526425191,1.5837644,5.209783,1.3617022,2.210202,9.441332,1.46514841409526425199,1.4215573,4.9961004,1.5640123,2.2679193,9.413,1.55639061409526425219,1.3108255,4.709395,1.6112977,2.3200674,9.384443,1.64921441409526425220,1.2437878,4.6710877,1.7010803,2.3633144,9.357228,1.73994861409526425227,1.1378443,4.673482,1.6118963,2.4004889,9.331746,1.82388751409526425247,1.2934675,4.8763905,1.5783775,2.4263678,9.3103695,1.89741051409526425248,1.5747862,5.0942626,1.6011224,2.44258,9.293589,1.95791081409526425268,1.7884687,5.3223104,1.7651252,2.4500024,9.281878,2.00365071409526425270,2.2936451,6.3512187,2.7006595,2.4480915,9.275724,2.03424841409526425278,2.5803509,6.7767878,3.2980127,2.4367158,9.274364,2.05401281409526425307,2.9400797,7.021595,3.933075,2.4131777,9.278243,2.0642571409526425308,3.2501287,7.472902,4.595072,2.375907,9.287242,2.06702691409526425309,3.66672,8.504205,5.0463786,2.3255208,9.300949,2.0626921409526425337,3.8121676,9.269152,5.1170077,2.2683742,9.3176,2.05114671409526425339,4.07553,9.679757,4.777031,2.2123902,9.334882,2.0336461409526425340,4.333505,9.061455,4.24492,2.1608644,9.35243,2.00826241409526425347,4.343082,9.759365,4.052785,2.1271727,9.368308,1.96985781409526425369,3.913921,14.651916,4.912902,2.1153064,9.381506,1.91916981409526425370,3.7541082,17.170017,3.2357635,2.1089385,9.391285,1.87789731409526425378,4.831499,16.3099,0.4938041,2.1086974,9.398438,1.84205011409526425409,7.107786,15.095442,-0.008379706,2.1513865,9.397141,1.79879361409526425411,5.856816,12.227188,3.0364463,2.24427,9.378661,1.78167571409526425412,6.0824695,12.670714,8.440758,2.3212118,9.343298,1.866861409526425440,5.341464,17.398066,9.565434,2.40168,9.283251,2.05513791409526425441,4.3927617,19.549854,3.8498764,2.4804716,9.218994,2.24227211409526425442,0.41060558,18.241423,3.0232782,2.5574393,9.182133,2.30615881409526425447,-3.6535518,17.37951,2.789245,2.5925927,9.166763,2.32794141409526425470,-3.2267854,9.858724,-0.82121116,2.5564775,9.168353,2.36138081409526425471,-2.5785553,8.110358,2.0709844,2.5249946,9.158533,2.43229681409526425479,-1.5807717,8.45213,2.742558,2.4481106,9.14413,2.561651409526425497,-1.3916297,7.9954367,2.3900118,2.3452454,9.135932,2.68420391409526425499,-1.246182,7.7428484,2.2822728,2.252447,9.140329,2.7479521409526425518,-0.6937199,8.7849245,2.2080526,2.1807384,9.154961,2.75707671409526425520,0.005985504,9.539098,1.4012065,2.124834,9.173539,2.73891831409526425528,0.89184016,10.046669,0.8726865,2.0814993,9.193316,2.70567971409526425559,1.3084313,9.896433,0.9552865,2.0434349,9.214679,2.6616681409526425560,1.6244658,9.71986,0.801459,2.005698,9.241828,2.5954171409526425561,1.6011224,9.901221,0.46926352,1.9636233,9.276673,2.5015781409526425568,1.6555905,10.25676,0.3728969,1.9125669,9.317012,2.38867381409526425597,1.7441759,10.000581,0.26755205,1.8510267,9.357374,2.27676421409526425598,1.5436616,9.209895,0.2657564,1.7777438,9.393411,2.18491221409526425600,1.2330139,8.742428,0.6356605,1.6901728,9.424922,2.11767531409526425623,0.82599956,8.311471,0.86610246,1.5888214,9.454864,2.06194071409526425623,0.3489549,7.551312,0.89543146,1.4793252,9.484944,2.00445081409526425627,-0.18195933,6.9665284,0.74399817,1.3674957,9.514108,1.94476381409526425648,-0.70509243,6.859388,0.65900403,1.2571857,9.541104,1.88605241409526425649,-1.2012907,6.9006877,0.5327099,1.1467017,9.566173,1.82860841409526425671,-1.3694834,7.120356,0.48841715,1.0442306,9.588068,1.77452851409526425672,-1.2725182,7.5561004,0.5177461,0.95538694,9.606534,1.72399151409526425679,-1.021127,7.6404963,0.54408234,0.8814363,9.6225,1.67360721409526425705,-0.7787141,7.454347,0.21787235,0.8187614,9.636494,1.62419971409526425708,-0.7930793,7.3926964,-0.110133275,0.75996554,9.648653,1.5799821409526425709,-0.415394,7.727885,-0.110731825,0.6954536,9.660062,1.5394561409526425740,0.24600422,8.028955,-0.13946225,0.62271374,9.672059,1.49462741409526425742,0.86729956,8.627506,-0.17357962,0.54337215,9.685719,1.43596761409526425743,1.673547,9.306861,-0.2184709,0.4636347,9.700791,1.36017871409526425748,2.789245,10.241198,0.06404489,0.3908494,9.715606,1.27460551409526425776,3.466804,10.4883995,0.4866215,0.33033478,9.728374,1.19164731409526425777,3.9653966,10.180145,0.866701,0.27812713,9.737461,1.12910691409526425779,4.2760444,10.064626,1.0540473,0.23195827,9.7422495,1.09779921409526425797,4.1401734,10.003573,1.2485762,0.19629027,9.742838,1.09953961409526425819,3.4985273,9.504981,1.4694413,0.16908187,9.739252,1.13523841409526425821,2.72939,9.009381,1.5280992,0.13627161,9.732217,1.19823071409526425822,2.3582888,8.787319,1.2761095,0.090542555,9.723471,1.27134921409526425828,2.2852654,8.347982,0.84096336,0.033279315,9.714543,1.34049241409526425854,2.8431146,7.7811556,