time,acc_x,acc_y,acc_z,gravity_x,gravity_y,gravity_z1409350947072,-1.460463,9.507375,0.92296475,-1.6322088,9.635427,0.81535541409350947076,-1.4706384,9.640253,0.8242039,-1.6333593,9.635965,0.806672931409350947107,-1.644218,9.512762,0.789488,-1.6343533,9.636574,0.79732121409350947108,-1.9219455,9.6288805,0.39205053,-1.6377795,9.636714,0.788552761409350947110,-1.6053122,9.850943,0.24001873,-1.6443955,9.636701,0.774849241409350947116,-1.91596,9.880272,0.07062895,-1.6505803,9.637639,0.74960081409350947137,-2.083554,10.037092,-0.18195933,-1.6617005,9.638432,0.71399471409350947139,-1.9069817,10.126276,-0.41599256,-1.6791277,9.637715,0.682174441409350947145,-2.0973208,10.175956,-0.6548142,-1.6993486,9.635952,0.656550771409350947160,-2.2224178,10.717644,-1.1965023,-1.7168361,9.634291,0.63506321409350947162,-1.7483658,9.835979,0.3878607,-1.7312472,9.632991,0.61536651409350947177,-1.9566613,9.3822775,1.110311,-1.7386959,9.630809,0.62836571409350947196,-2.1739352,9.374496,0.76075757,-1.7466035,9.627023,0.66350191409350947198,-2.2164323,9.36073,0.37708676,-1.7589378,9.623316,0.684329031409350947217,-2.1320367,9.586982,0.034117375,-1.7725708,9.62129,0.677631561409350947218,-2.0494366,9.697116,0.11492168,-1.7846341,9.6202965,0.65983461409350947222,-2.0009542,9.56304,0.11252748,-1.7950178,9.619917,0.636789261409350947241,-1.9351135,9.654019,0.012569559,-1.8039618,9.619607,0.615875071409350947248,-1.7447745,9.717466,0.10654198,-1.8106631,9.619714,0.594143151409350947261,-1.5837644,9.642049,0.20350714,-1.8141189,9.62042,0.571737231409350947262,-1.7232267,9.5971575,0.20709845,-1.8145052,9.621621,0.549916451409350947288,-1.5676036,9.559449,0.39803603,-1.8144989,9.6228,0.528885961409350947291,-1.4993688,9.481637,0.504578,-1.8138487,9.623875,0.51129421409350947294,-1.484405,9.544485,0.5919664,-1.8118037,9.6249895,0.497359161409350947315,-1.5245079,9.648633,0.61770403,-1.8074198,9.626326,0.487343371409350947316,-1.6089035,9.76535,0.6386533,-1.8029085,9.627558,0.47963411409350947322,-1.6490064,9.910199,0.6500258,-1.7990026,9.6285515,0.474313231409350947344,-1.6334441,10.0269165,0.6051345,-1.7957474,9.629359,0.470253141409350947346,-1.6035166,10.051457,0.51834464,-1.7925473,9.630153,0.46621291409350947368,-1.5035586,10.040085,0.5105635,-1.789202,9.630999,0.461528571409350947370,-1.5071499,10.040085,0.4914099,-1.7854384,9.631933,0.456571221409350947374,-1.5179238,10.026319,0.4950012,-1.7825229,9.6326685,0.452442741409350947403,-1.5155296,10.006566,0.46627077,-1.7801647,9.633173,0.450992551409350947404,-1.5592239,10.003573,0.46686932,-1.777926,9.633492,0.45299221409350947406,-1.6310499,9.961076,0.5021838,-1.7765115,9.633455,0.459270541409350947432,-1.6956934,9.902418,0.623091,-1.7759908,9.6330385,0.469909431409350947434,-1.7100586,9.838373,0.8002619,-1.7764933,9.632299,0.482996281409350947436,-1.7549498,9.788693,0.8230068,-1.7783816,9.631065,0.500316861409350947443,-1.8237832,9.7402115,0.76195467,-1.7822785,9.629324,0.51964231409350947465,-1.9141643,9.662399,0.60812724,-1.7883862,9.627115,0.539184631409350947466,-2.0045455,9.595961,0.45190558,-1.7971061,9.624499,0.55662851409350947474,-2.1057005,9.483433,0.4758476,-1.8079983,9.621525,0.572549161409350947506,-2.0871453,9.531916,0.4961983,-1.8204548,9.618133,0.58981591409350947509,-1.9853917,9.46847,0.58418524,-1.8324727,9.6146555,0.60897831409350947512,-1.9201498,9.387665,0.6183026,-1.8436166,9.6112175,0.629267041409350947544,-1.9147629,9.305065,0.6171055,-1.8542216,9.607881,0.64875031409350947545,-1.9111716,9.255983,0.6931214,-1.8649218,9.604524,0.667525771409350947547,-1.7717092,9.283517,0.7224504,-1.8751475,9.601169,0.686858241409350947548,-1.5891514,9.396643,0.7553706,-1.883048,9.598254,0.705714341409350947563,-1.4646529,9.519346,0.7493851,-1.8879285,9.595754,0.72639411409350947564,-1.3844471,9.613318,0.6655881,-1.8907564,9.593468,0.74888131409350947578,-1.3467385,9.674969,0.54647654,-1.8922201,9.591417,0.771110061409350947598,-1.3078327,9.677363,0.45130703,-1.8934582,9.589495,0.7917151409350947599,-1.2216414,9.670779,0.33159694,-1.8948764,9.58766,0.810318051409350947603,-1.1234791,9.729437,0.21188685,-1.8963059,9.586019,0.826232251409350947636,-1.0827777,9.850345,0.19393034,-1.8974504,9.584772,0.83800861409350947638,-1.1647792,10.238205,0.2645593,-1.8984618,9.583758,0.8472441409350947639,-1.2467805,10.338761,0.3513491,-1.8995556,9.582787,0.855735361409350947643,-1.3383588,10.349535,0.38307226,-1.9008561,9.581601,0.866056261409350947664,-1.411382,10.284293,0.53450555,-1.902628,9.580215,0.87743281409350947665,-1.4520833,10.139444,0.76075757,-1.9050469,9.578488,0.890930061409350947674,-1.453879,9.952697,0.9504981,-1.9080039,9.576352,0.907414731409350947696,-1.435324,9.746795,1.1510124,-1.911931,9.5737095,0.92682141409350947698,-1.4401124,9.512762,1.3623008,-1.916901,9.570478,0.94965051409350947703,-1.4167689,9.3583355,1.5412674,-1.9228036,9.566593,0.976488231409350947726,-1.423353,9.3182335,1.602918,-1.9284086,9.562364,1.00641409350947727,-1.4598645,9.31105,1.5532384,-1.9334624,9.557969,1.03794191409350947744,-1.4826094,9.342773,1.5801731,-1.9377862,9.55364,1.06926121409350947745,-1.4628572,9.428367,1.567005,-1.9416692,9.549282,1.10069921409350947765,-1.234211,9.531317,1.555034,-1.9437805,9.545103,1.13274151409350947766,-1.3754689,9.634268,1.4796166,-1.9424096,9.541413,1.16570031409350947775,-1.3599066,9.901221,1.4454993,-1.9411404,9.537619,1.1984161409350947799,-1.2761095,10.039486,1.4305356,-1.9409342,9.533576,1.23048291409350947801,-1.1671734,10.0269165,1.4718355,-1.9396504,9.529801,1.26136491409350947808,-1.1486182,10.034698,1.5514427,-1.9335492,9.527029,1.29131111409350947837,-1.055843,9.980828,1.8291701,-1.9245594,9.524764,1.32111541409350947838,-1.3012487,9.942521,1.7477672,-1.9133853,9.522644,1.35226171409350947839,-1.4520833,10.095152,1.6944963,-1.9028499,9.520673,1.38070681409350947844,-1.6220716,10.018537,1.738789,-1.893863,9.518631,1.40689741409350947866,-1.8046296,9.855731,1.7160441,-1.887739,9.516461,1.42961841409350947867,-1.9925743,9.680955,1.7429788,-1.8807268,9.514889,1.44918411409350947876,-2.0775685,9.461287,1.7735049,-1.8701414,9.514025,1.46842481409350947894,-2.3768437,9.2787285,1.5879543,-1.8561937,9.513606,1.48869251409350947895,-2.3361423,9.161413,1.4281414,-1.8420109,9.513515,1.50679341409350947914,-2.19249,8.710705,1.4867992,-1.8256084,9.514053,1.52326521409350947916,-2.1458032,8.2833395,1.3108255,-1.8066103,9.51503,1.53972771409350947923,-1.8423382,7.8326306,1.3790601,-1.7851033,9.517024,1.55243411409350947949,-1.6370354,7.630321,1.3497312,-1.7600507,9.520065,1.56236221409350947951,-1.5095441,7.530363,1.4670471,-1.7305669,9.524661,1.56728211409350947954,-1.477821,7.7560163,1.6136919,-1.6974145,9.529856,1.57194831409350947964,-1.3018472,8.358158,1.7926586,-1.6575658,9.536335,1.5751791409350947986,-1.1384429,9.126697,1.8644845,-1.6058661,9.544222,1.58094941409350947987,-0.830788,10.005369,1.8698715,-1.5402942,9.55325,1.59163441409350948010,-0.6290765,10.816404,2.0494366,-1.4597168,9.563125,1.60818641409350948011,-0.5351041,11.534067,2.461838,-1.3644004,9.572712,1.63462541409350948027,-0.26755205,11.40897,2.5941176,-1.2594669,9.579996,1.67565011409350948028,0.10295067,11.235989,2.5719712,-1.1497641,9.584552,1.72766441409350948042,0.34955344,11.020511,2.4121583,-1.0377723,9.587055,1.78375281409350948043,0.6332663,10.97502,2.259528,-0.927415,9.588077,1.83823251409350948056,0.93254155,11.036672,2.1266496,-0.8207938,9.588289,1.88716761409350948077,1.0953473,11.048642,1.9746178,-0.71670365,9.587979,1.93064371409350948078,1.0588357,10.816404,1.9452889,-0.62111455,9.587663,1.96502531409350948090,0.94331545,10.45907,2.0380642,-0.5384201,9.587116,1.99191091409350948094,0.8230068,10.128072,2.178125,-0.46972108,9.585864,2.01518491409350948105,0.61530983,9.659407,2.3397336,-0.41186276,9.583251,2.04011771409350948123,0.53211135,9.220071,2.5659857,-0.36221114,9.578427,2.07193661409350948124,0.3196259,8.854955,2.8191724,-0.31742227,9.571001,2.11319331409350948140,0.2861071,8.668207,2.835932,-0.2781079,9.561016,2.16333531409350948143,0.2657564,8.304289,2.8592753,-0.24239962,9.549176,2.21921409350948157,0.30166942,7.993641,2.932897,-0.20971535,9.536066,2.27812391409350948173,0.3333926,7.726089,2.943671,-0.17892668,9.52214,2.3382151409350948175,0.45609543,7.5004354,2.9149406,-0.14903146,9.507842,2.39773231409350948189,0.34835634,7.2101383,3.0280666,-0.12036972,9.493836,2.45416831409350948207,0.52612585,7.3460093,3.1956608,-0.094469406,9.479928,2.50846981409350948208,0.7469909,7.3669586,3.093907,-0.06888678,9.466117,2.56091861409350948225,1.1180922,7.4387846,2.9987376,-0.038395345,9.45314,2.6090351409350948225,1.5023615,7.617751,3.1160536,-5.10E-04,9.440993,2.65292621409350948238,1.7435774,7.7590094,3.180697,0.04219839,9.429304,2.69385171409350948243,1.9141643,7.8475947,3.151368,0.08845848,9.4179535,2.7321611409350948255,2.0350714,7.9301944,3.17531,0.13707404,9.40733,2.76654741409350948273,2.1152773,8.012196,3.25372,0.18631417,9.39776,2.79602961409350948275,2.2301989,8.171411,3.1824925,0.23500718,9.388607,2.82297951409350948288,2.3463178,8.467094,3.1262288,0.28239423,9.381191,2.84322021409350948305,2.469619,8.596381,3.1250317,0.32880512,9.375539,2.8568421409350948306,2.6408045,8.81964,3.3500867,0.37478566,9.371055,2.8658811409350948323,2.6090813,9.199121,3.3542767,0.4210504,9.366032,2.87585951409350948324,2.6964695,9.399636,3.3518825,0.46488196,9.361154,2.8849741409350948348,2.882619,9.460688,3.41473,0.5066569,9.356279,2.89373951409350948349,3.0885203,9.485827,3.525462,0.5486032,9.350533,2.90464951409350948357,3.1824925,9.475053,3.7463272,0.58982044,9.343535,2.91905141409350948375,3.1190462,9.457695,3.74094,0.62862027,9.334729,2.93905781409350948376,3.0107086,9.578004,3.8911762,0.6627517,9.32552,2.96071341409350948397,2.7018566,9.553463,3.915717,0.693051,9.315951,2.98380781409350948399,2.585738,9.378088,3.9977183,0.71704453,9.306538,3.0074261409350948404,2.4127567,9.151836,4.197634,0.73589,9.296956,3.03240441409350948434,2.3582888,8.901043,4.362834,0.74966234,9.287083,3.0591631409350948436,2.2720973,8.647258,4.8841715,0.7600718,9.277104,3.08674861409350948437,2.0404584,8.696339,5.4767365,0.76783204,9.266376,3.11690241409350948444,1.520318,9.433753,5.7885814,0.77203536,9.255076,3.14927121409350948470,0.62368953,10.866683,5.899313,0.77004856,9.244701,3.1800821409350948471,-0.6931214,12.728773,5.473145,0.75664896,9.236418,3.20725131409350948500,-2.1547816,14.2862015,4.3221326,0.72470516,9.232811,3.22496871409350948501,-3.1304188,15.210962,2.9867666,0.67193466,9.237397,3.22325831409350948502,-3.1830912,15.55872,1.9237411,0.6069855,9.2499075,3.20018551409350948503,-2.6898856,14.888942,0.9020155,0.5458112,9.267348,3.16049771409350948525,-1.7034745,12.919711,0.85473,0.49640933,9.287128,3.11018011409350948527,-0.84216046,10.546458,1.6490064,0.46015653,9.30272,3.06888371409350948547,-0.5614403,8.72088,2.4983494,0.43123206,9.31218,3.0442991409350948549,-0.66618663,7.3202715,3.2106245,0.40817192,9.318164,3.0291281409350948556,-0.7146692,6.4631476,3.6224272,0.39377692,9.32302,3.0160641409350948580,-0.9415198,6.2368956,4.211401,0.38796663,9.327435,3.00313741409350948582,-1.6454151,6.6109896,3.9755719,0.38494143,9.3316555,2.990391409350948584,-1.6112977,7.117363,3.4392707,0.3764964,9.339602,2.96655851409350948615,-1.3221979,7.711724,2.6689363,0.36603975,9.351044,2.93161941409350948618,-0.8936358,8.558074,1.7633295,0.3487015,9.369392,2.87459441409350948620,-0.6356605,9.367912,1.2593501,0.32543257,9.394577,2.79399591409350948624,-0.6171055,9.945514,0.74519527,0.2922548,9.424887,2.69378731409350948652,-0.6398504,10.368689,0.34596214,0.24888183,9.457855,2.58019471409350948653,-0.5554548,10.518327,0.13227965,0.19997415,9.490185,2.46308521409350948659,-0.45370123,10.439917,-0.038905777,0.15081279,9.518566,2.3546881409350948675,-0.7320272,10.277111,0.5291186,0.10422106,9.541567,2.26231151409350948677,-0.9427169,10.080188,0.7721301,0.05453655,9.558126,2.19308921409350948691,-1.4407109,10.017939,1.0456676,-7.96E-04,9.570786,2.13785391409350948708,-1.70946,10.044274,1.3275849,-0.063670434,9.581171,2.08985571409350948710,-1.7256209,10.036493,1.448492,-0.1307056,9.590167,2.0449961409350948724,-1.7345991,10.056246,1.4532804,-0.19688849,9.59822,2.00144861409350948725,-1.7483658,9.9233675,1.3676877,-0.25943705,9.6057205,1.95786491409350948742,-1.9285295,9.689334,1.5167267,-0.31660903,9.612745,1.91449511409350948773,-1.9207484,9.458294,1.5813702,-0.37114903,9.618901,1.87333311409350948777,-1.4083891,8.91481,1.2120646,-0.42111036,9.624733,1.83236921409350948780,-1.1887212,8.722076,0.97982705,-0.4623064,9.631162,1.7881221409350948799,-1.1390414,8.494628,0.75237787,-0.50061095,9.637906,1.74085061409350948800,-1.0067618,8.277952,0.5847838,-0.5391888,9.6443615,1.69292031409350948801,-0.7799112,8.221688,0.60094464,-0.57744235,9.650074,1.6471191409350948804,-0.676362,8.579023,0.8714894,-0.61433476,9.655313,1.60247791409350948823,-0.51834464,8.913613,0.9307459,-0.64949346,9.659908,1.5603551409350948824,-0.5793968,9.080608,0.88944596,-0.6809694,9.66423,1.51964591409350948840,-0.33159694,9.5492735,0.8846575,-0.711505,9.66813,1.48034141409350948863,-0.12749124,9.3583355,0.7697359,-0.74078065,9.671771,1.44170451409350948864,-0.02633622,9.288904,0.801459,-0.7702955,9.674811,1.40536491409350948865,-0.0724246,9.243414,0.8619126,-0.80099404,9.677063,1.37231711409350948876,-0.1604115,9.3583355,0.84455466,-0.834661,9.677865,1.34633981409350948893,-0.22385786,9.474455,0.9163807,-0.87180316,9.676746,1.3307641409350948898,-0.25378537,9.415796,1.1312603,-0.9097256,9.673676,1.32770411409350948904,-0.22146365,9.291897,1.2862848,-0.94749624,9.668493,1.33898711409350948926,-0.05267244,9.238626,1.2671312,-0.98519284,9.662166,1.35733821409350948928,0.20290859,9.220071,1.0313023,-1.0217484,9.654256,1.38627091409350948940,0.41060558,9.328408,0.7356185,-1.0566267,9.645512,1.42057931409350948959,0.57400984,9.19134,0.4997896,-1.089322,9.63653,1.45639181409350948960,0.48123455,9.412206,0.6434417,-1.1191891,9.627592,1.49241191409350948964,0.30526072,9.821015,0.7823054,-1.1460901,9.618461,1.53038531409350948975,0.092775315,10.05445,1.1073183,-1.1692792,9.60973,1.56724931409350948994,-0.44232875,10.301053,1.4443022,-1.1899894,9.600955,1.60499311409350948996,-0.6775591,10.533889,1.9913772,-1.2149045,9.590316,1.64931391409350949004,-0.9720459,10.755353,2.0003555,-1.2467259,9.576025,1.70757441409350949030,-1.3521254,10.817003,2.0189106,-1.2847512,9.559027,1.77336691409350949031,-1.0193313,10.608109,2.2176294,-1.3268279,9.540351,1.84163441409350949036,0.17537527,10.366894,2.2661119,-1.3684176,9.52016,1.91425311409350949065,1.0402806,10.022128,2.1481974,-1.4026887,9.49984,1.98894561409350949066,1.401805,9.7084875,2.1362264,-1.4333287,9.480175,2.0596771409350949068,1.4802152,9.749788,2.3181858,-1.4608363,9.461605,2.12471251409350949096,1.5059528,10.202292,2.315193,-1.4819733,9.444584,2.18494991409350949098,1.520318,10.733805,2.043451,-1.494735,9.429456,2.24087451409350949099,1.401805,11.182717,1.7998412,-1.4982947,9.417171,2.28963071409350949104,1.276708,11.266515,1.8620903,-1.4953225,9.408027,2.328831409350949130,0.973243,11.289858,2.3642743,-1.4885926,9.402133,2.3567761409350949131,1.09834,11.196485,2.8874073,-1.4815147,9.397099,2.38118721409350949138,0.5363012,10.125079,2.1260512,-1.4647151,9.39678,2.39280991409350949156,-0.6344634,9.834782,1.9859903,-1.4465957,9.402085,2.38297411409350949157,-1.5741876,9.664195,2.086547,-1.4257301,9.410761,2.36120721409350949170,-2.255338,9.303269,1.7477672,-1.404543,9.420748,2.33391641409350949188,-2.9562407,8.463503,1.3401544,-1.3864516,9.431652,2.30044721409350949189,-3.7936125,7.6464815,1.0857705,-1.3712701,9.443878,2.25902581409350949213,-4.520851,7.1987658,1.027711,-1.3595539,9.458762,2.20313551409350949215,-5.048773,7.3789296,0.8559271,-1.3508753,9.477293,2.12754681409350949216,-5.8083334,8.377911,0.59376204,-1.3415449,9.498959,2.03480551409350949225,-6.154894,10.394426,0.37708676,-1.3296497,9.522431,1.93021581409350949246,-5.9238534,12.880805,0.30705637,-1.3172386,9.545788,1.82022571409350949247,-5.4504004,14.975732,0.65780693,-1.2956234,9.568963,1.7107641409350949256,-5.203199,16.209942,1.0187328,-1.2549448,9.590824,1.61605511409350949270,-4.717176,15.927426,1.3838485,-1.1943046,9.611489,1.53730371409350949286,-4.2341456,14.205398,1.4329298,-1.1136423,9.629922,1.48149121409350949287,-3.7547069,12.110471,1.769315,-1.0196081,9.643908,1.4580321409350949314,-3.3303347,11.288661,2.8868086,-0.9212287,9.650916,1.47701081409350949316,-2.8365304,10.851719,3.9815574,-0.82254416,9.650258,1.53828451409350949318,-2.231396,10.264542,4.4717703,-0.7200661,9.644531,1.6232461409350949326,-1.0684125,10.217256,3.9372647,-0.6087731,9.638811,1.7009121409350949350,-0.8834604,8.483853,3.0011318,-0.48207217,9.637928,1.74595761409350949351,-0.55126494,7.6560583,2.2319946,-0.35643297,9.639182,1.76904561409350949356,-0.16519992,7.315483,1.6747441,-0.23907442,9.643092,1.76749311409350949372,0.25917232,7.6171527,1.5646108,-0.13343437,9.647538,1.75430691409350949389,0.4938041,7.9828672,1.6777369,-0.03043284,9.650946,1.7403211409350949389,0.50876784,7.9732904,1.7220296,0.07115224,9.652306,1.73157011409350949407,0.5614403,7.924209,1.726818,0.16486207,9.651424,1.73008611409350949409,0.581791,7.815273,1.7016789,0.2470039,9.648478,1.73673961409350949422,0.48961425,7.6650367,1.6292542,0.31654975,9.643593,1.75251771409350949425,0.3776853,7.3867106,1.448492,0.37464288,9.636765,1.77843241409350949440,0.36511576,7.129933,1.376666,0.42284417,9.628136,1.81401111409350949456,0.3417723,6.8025255,1.4059949,0.46600994,9.618329,1.85499251409350949458,0.37349546,6.583456,1.5586253,0.503389,9.60648,1.90591961409350949472,0.34356794,6.4392056,1.8764555,0.53677213,9.592835,1.96463131409350949486,0.23163901,6.35062,2.235586,0.5679692,9.578086,2.02684261409350949487,0.062249243,6.4248405,2.441487,0.5982339,9.563187,2.08757381409350949511,-0.090979666,6.4392056,2.463035,0.6274726,9.549626,2.14039471409350949513,-0.1328782,6.464943,2.3307555,0.65489846,9.538743,2.1803411409350949516,0.20829555,6.1985884,2.0626047,0.6786977,9.531486,2.20466881409350949539,0.5967548,6.203975,1.9195513,0.6988311,9.528379,2.2117931409350949542,0.9307459,6.330868,1.8549078,0.71210647,9.529,2.20486571409350949560,1.0887632,6.528988,1.9446903,0.7157432,9.532492,2.18853951409350949562,1.0941502,6.8809357,2.27928,0.7139668,9.537021,2.1693071409350949566,1.3730747,7.550115,2.059612,0.6967966,9.543653,2.1455871409350949593,1.7369933,8.74542,1.8357542,0.6662005,9.553165,2.11272121409350949596,1.6585833,9.953894,2.0153193,0.62439597,9.56548,2.06932451409350949597,1.2683283,10.484209,2.565387,0.57067513,9.579028,2.02161531409350949604,0.44113165,10.114903,3.329736,0.5064678,9.59092,1.98195121409350949620,-0.70509243,10.286089,3.5739446,0.4370129,9.599103,1.95873181409350949624,-1.4891934,12.508507,3.5248635,0.3680161,9.6052265,1.94283331409350949645,-1.4305356,15.322891,3.321955,0.30193245,9.610638,1.92740071409350949647,-0.38726214,15.660473,1.970428,0.24989042,9.615817,1.90892641409350949656,1.043872,14.317327,0.61650693,0.24042307,9.6229925,1.87366271409350949681,2.3080103,12.700043,0.4794389,0.26365373,9.630885,1.82946241409350949683,3.7714663,11.502343,1.2078748,0.32693902,9.6337185,1.80415141409350949685,5.0212393,10.600926,2.7581203,0.42698213,9.6263485,1.82249371409350949708,5.6748567,9.932345,4.8763905,0.56372565,9.606914,1.88674961409350949709,3.4859576,11.696274,7.7081323,0.7286613,9.577065,1.9797121409350949716,1.6304513,15.368979,5.7879825,0.8742428,9.541434,2.08977271409350949739,0.3764882,16.686987,3.5535939,0.9729531,9.51792,2.15243121409350949740,-1.0749966,14.787189,2.8419175,1.0224648,9.505123,2.185771409350949766,-2.5887306,13.468581,1.2982559,1.0338045,9.492016,2.23680041409350949769,-3.679888,12.392986,0.6332663,1.0138363,9.484117,2.27904961409350949772,-4.871003,11.269507,0.997185,0.97254974,9.480251,2.3128721409350949797,-5.8693852,10.526707,1.5993267,0.8859059,9.482624,2.33782051409350949798,-6.10282,10.229825,2.0751743,0.7508938,9.489816,2.35583261409350949799,-5.2277393,9.888652,2.0961237,0.5982149,9.499316,2.3612581409350949805,-4.039018,9.081207,2.0440497,0.46424615,9.507713,2.35760071409350949819,-3.079542,8.429984,1.7112557,0.36338785,9.512257,2.35696941409350949835,-2.5432408,7.9834657,1.1611878,0.292435,9.514484,2.35784961409350949837,-1.4694413,7.6883802,0.82121116,0.23973712,9.517417,2.35196071409350949853,-0.27712885,7.382521,0.79248077,0.19459479,9.5224285,2.33577871409350949871,0.33159694,7.119757,1.0791864,0.1472041,9.52955,2.31006381409350949872,0.31543607,7.1107793,1.5334862,0.09060542,9.5382805,2.27671409350949887,0.18854338,7.7829514,2.0213048,0.026595455,9.546854,2.24216061409350949888,0.19093758,8.574833,2.046444,-0.04363602,9.555489,2.2048021409350949902,-0.45549688,8.887277,1.5873557,-0.11440643,9.563475,2.167321409350949905,-0.9516952,8.946533,1.1432313,-0.18843335,9.571075,2.12823371409350949921,-1.1294646,9.138668,0.92775315,-0.265612,9.579749,2.08044551409350949935,-1.4203602,9.279925,0.6775591,-0.34414822,9.591833,2.01213431409350949937,-1.8656816,9.292496,0.35793316,-0.4229076,9.607497,1.92029541409350949954,-2.1164744,8.834005,0.108337626,-0.5019104,9.623882,1.81642161409350949993,-2.2601264,8.582016,0.13227965,-0.57704496,9.637324,1.72028541409350949994,-2.2882583,8.813056,0.3681085,-0.6471258,9.646166,1.64411221409350949995,-2.5438392,8.53054,0.46148238,-0.71356434,9.652044,1.58090621409350949996,-2.6114755,8.1343,0.5793968,-0.78083897,9.653046,1.54252641409350949998,-2.4384944,7.9188223,0.56682724,-0.8486359,9.6495695,1.52841141409350950005,-2.070386,7.901464,0.5279215,-0.91378367,9.642951,1.53260651409350950017,-1.8106151,7.8847046,0.4902128,-0.9720598,9.63561,1.54288881409350950041,-1.5448587,7.9583263,0.5189432,-1.0277902,9.6296215,1.5441661409350950044,-1.2072762,8.340201,0.7218518,-1.0860656,9.625814,1.52792981409350950046,-0.8062474,8.853758,0.7757214,-1.1465421,9.623849,1.49578691409350950057,-0.25498247,8.846576,0.6362591,-1.205989,9.623157,1.45286541409350950078,0.15741876,8.599973,0.7116765,-1.2633159,9.622904,1.40505211409350950080,1.055843,8.941745,1.6071079,-1.3173411,9.621147,1.36695061409350950085,1.2695254,9.871294,1.9303252,-1.3610653,9.617975,1.34627721409350950110,1.3072342,9.894637,1.9506758,-1.3917739,9.612065,1.35704121409350950112,1.2731167,9.8042555,1.6394296,-1.4139626,9.602875,1.39853121409350950117,1.264737,9.710283,1.3198037,-1.4297034,9.591417,1.45981881409350950146,1.1079168,9.68694,1.1965023,-1.4411752,9.578565,1.53118791409350950147,1.0893618,9.720459,1.2952632,-1.4519329,9.564647,1.60617611409350950148,1.1737574,9.938332,1.5292963,-1.4632471,9.550111,1.6806871409350950170,1.1827357,10.20289,1.8273745,-1.4745018,9.535616,1.75164961409350950171,1.0127473,10.181343,2.4115596,-1.4872663,9.520491,1.8217281409350950185,0.54288524,9.871892,2.7952304,-1.5063213,9.502064,1.9005731409350950186,-0.35434186,9.551667,3.228581,-1.5377496,9.478206,1.99231661409350950200,-0.9792285,9.239823,3.2908301,-1.5808576,9.449754,2.09127781409350950205,-0.8218097,8.853758,2.4498668,-1.6366868,9.416908,2.1939651409350950219,-0.2765303,8.494628,1.4622587,-1.6989787,9.384976,2.28169011409350950232,0.32022446,8.215105,1.2120646,-1.7643484,9.357713,2.34321781409350950237,0.7206547,8.361151,1.4030021,-1.8286736,9.336324,2.37895271409350950250,0.5686229,9.351752,1.6005238,-1.8873802,9.320329,2.39575721409350950266,0.22864626,10.418967,1.9548657,-1.9354987,9.3087435,2.40240481409350950267,0.17238252,11.31799,2.207454,-1.9686327,9.300332,2.40804961409350950283,0.5351041,11.377845,2.9514523,-1.9812201,9.296391,2.41294311409350950285,1.5047557,10.965444,3.5913026,-1.9722902,9.29613,2.42125271409350950300,1.6118963,10.430939,3.7882257,-1.9366881,9.300231,2.4342041409350950305,0.9259575,10.165182,3.7966053,-1.8894731,9.309561,2.43564651409350950317,0.18195933,10.304645,3.8151605,-1.8254578,9.32612,2.42106751409350950334,-0.78050977,10.338761,2.883816,-1.7533529,9.347245,2.3927341409350950339,-1.822586,9.723452,1.6358383,-1.6876618,9.372078,2.34229561409350950351,-3.383007,8.874108,0.58538234,-1.6328206,9.400052,2.26788641409350950371,-4.8135424,8.462905,0.089184016,-1.5923709,9.430131,2.16965341409350950373,-5.5527525,8.707113,0.07062895,-1.5606338,9.4624405,2.04867031409350950389,-6.0477533,9.889849,0.3549404,-1.5277754,9.495987,1.91376731409350950390,-6.2087636,12.802395,0.52852005,-1.4893442,9.528473,1.77776031409350950397,-5.6551046,16.279375,0.6913257,-1.4429157,9.558765,1.64875271409350950405,-5.3642087,18.266562,0.85772276,-1.3819078,9.588438,1.52400351409350950417,-5.439028,17.666216,0.85054016,-1.3071595,9.614923,1.41950681409350950432,-5.1720743,15.944785,1.2479776,-1.2305709,9.635851,1.34404851409350950437,-4.684854,13.317747,1.5412674,-1.1568325,9.649528,1.31101951409350950449,-4.085107,11.954249,2.4516625,-1.0856375,9.655785,1.32574591409350950469,-3.1148565,11.1073,4.7147818,-1.0134951,9.655127,1.3862721409350950474,-2.6629508,11.116877,5.1523223,-0.929378,9.648585,1.48709681409350950490,-1.8052281,11.48319,4.783615,-0.83591336,9.641379,1.58601371409350950491,-1.5101427,9.576208,3.5865142,-0.7280264,9.638297,1.6563861409350950501,-1.2958617,7.793725,2.2541409,-0.616822,9.641176,1.68452841409350950505,-0.84335756,6.785766,1.4107834,-0.51992637,9.647975,1.67828691409350950518,-0.2136825,7.277176,1.3730747,-0.43349063,9.655525,1.65930691409350950533,0.23882163,7.6584525,1.6226702,-0.35260728,9.662335,1.63868961409350950537,0.42796355,7.340024,1.5951369,-0.2684856,9.666434,1.63044551409350950557,0.6159084,6.9958572,1.5340848,-0.18491833,9.667785,1.63405261409350950559,0.74639237,6.7229185,1.5101427,-0.11102964,9.66676,1.64676361409350950566,0.66259533,6.469133,1.4622587,-0.047854844,9.663179,1.6706461409350950587,0.5081693,6.120178,1.4826094,0.006747465,9.656741,1.70812621409350950589,0.32561144,5.5617304,1.5400703,0.05341964,9.64725,1.76014041409350950607,0.25558102,4.8883615,1.5149311,0.092432454,9.63497,1.82461851409350950608,0.18495208,4.4155064,1.602918,0.12597275,9.6204405,1.89779941409350950617,0.2136825,4.197634,1.8555063,0.15589602,9.604727,1.97365341409350950639,0.3321955,4.1503487,2.0380642,0.18458027,9.588011,2.05094481409350950640,0.44951138,4.1515455,2.0494366,0.2114893,9.571881,2.1224371409350950645,0.6422446,4.2491093,1.922544,0.2358936,9.5579815,2.18167831409350950674,0.65062433,4.43466,2.0368671,0.25710338,9.547575,2.22443721409350950678,0.66020113,4.732738,2.2577322,0.2721578,9.541064,2.2504321409350950680,0.74998367,5.179257,2.4797945,0.2795611,9.538645,2.25975941409350950687,0.8924387,5.8041434,2.6449943,0.27887848,9.540267,2.2529861409350950715,1.0684125,6.7043633,2.8844144,0.26901394,9.545917,2.23013451409350950719,1.3413515,8.003817,3.2453403,0.24889044,9.555197,2.1924131409350950721,1.6334441,9.634268,3.7726634,0.22021745,9.567057,2.1432021409350950751,1.7717092,11.299435,4.1383777,0.19200704,9.578893,2.09245281409350950753,1.6280571,12.514492,4.244321,0.15939862,9.590941,2.03931981409350950754,1.0737995,12.928689,4.150947,0.12621604,9.602552,1.9863171409350950767,-0.077213004,14.553754,4.3742065,0.093139544,9.613426,1.93487861409350950768,-1.2761095,17.153856,3.9995139,0.056170803,9.621316,1.89670691409350950783,-1.0217255,17.116747,1.4688427,0.010690467,9.625469,1.87633571409350950785,0.4369418,15.577275,-0.44352585,-0.014824352,9.632646,1.83910811409350950798,2.130241,13.732542,-0.06703765,0.003394173,9.642599,1.78624571409350950815,3.8175547,11.882423,0.89782566,0.06369667,9.64673,1.76264151409350950821,5.41748,9.961076,2.086547,0.16788185,9.6398735,1.79305781409350950838,6.7492547,8.396465,4.9865236,0.32216933,9.62129,1.87012581409350950840,4.5082817,10.81461,10.12448,0.5086644,9.591367,1.97923031409350950846,1.9273324,15.680824,6.113594,0.695549,9.547096,2.13061981409350950878,-0.20051439,18.070238,4.0922894,0.83557254,9.526047,2.17408781409350950880,-1.9015948,15.869368,3.6164417,0.9106961,9.5218935,2.16207221409350950882,-3.3093853,13.795989,0.736217,0.9311741,9.514479,2.18585871409350950886,-4.4424415,11.936293,-0.2861071,0.9151274,9.506601,2.2265351409350950910,-5.4551888,10.562021,-0.3309984,0.86123455,9.501011,2.27144621409350950911,-5.7885814,10.045472,0.7978677,0.75227934,9.502748,2.30265621409350950918,-5.6700683,9.606734,1.1653777,0.60186523,9.512197,2.30787371409350950940,-4.921282,8.993818,1.6693572,0.44841224,9.526229,2.28479271409350950942,-3.7415388,8.373122,2.0015526,0.31941608,9.537607,2.25885221409350950946,-2.7910407,7.8715367,1.8441339,0.2228253,9.544202,2.24252941409350950966,-1.5352819,7.439982,1.3425486,0.1618368,9.545791,2.24099971409350950967,-0.23822308,7.2711906,0.96665895,0.124514125,9.546148,2.24186021409350950986,0.3788824,7.3083005,0.81881696,0.09527926,9.548561,2.23299981409350950987,0.22864626,7.5387425,1.2186487,0.062876,9.554265,2.20962831409350951000,-0.026934769,8.194156,2.019509,0.020525632,9.561945,2.1769641409350951019,-0.110133275,9.355343,2.7030537,-0.031514205,9.569597,2.14294311409350951021,-0.26156655,9.943718,2.694674,-0.08670637,9.576072,2.11227631409350951026,-0.63206923,9.759963,1.4311341,-0.14130685,9.58116,2.0860961409350951037,-0.7116765,10.02153,0.91219085,-0.19594826,9.588046,2.04972841409350951054,-0.78170687,10.613496,0.521936,-0.2522152,9.597012,2.00103241409350951059,-1.0779893,10.853515,0.46327803,-0.30915627,9.611542,1.92173971409350951066,-1.7794905,10.769119,0.24899697,-0.37095207,9.62966,1.81726341409350951082,-2.321777,10.402207,0.061052144,-0.43778923,9.647655,1.70337571409350951086,-2.5192988,10.063428,0.15801731,-0.5057605,9.662195,1.59893051409350951100,-2.247557,9.686341,0.36511576,-0.5720022,9.670964,1.52173611409350951130,-2.1152773,9.28232,0.60932434,-0.6360995,9.673123,1.48204771409350951132,-2.0021513,8.780735,0.83856916,-0.69909066,9.668742,1.48226231409350951133,-1.9722236,8.281544,0.95588505,-0.7585256,9.658566,1.5189241409350951156,-1.8836381,7.8715367,0.9828198,-0.8150215,9.644291,1.57917821409350951157,-1.5490485,7.8104844,1.0175357,-0.873716,9.628767,1.64129951409350951158,-1.3012487,7.9313917,1.1025299,-0.9343837,9.6136,1.6958881409350951166,-1.3198037,7.9876556,1.2312182,-1.004814,9.600892,1.72731771409350951184,-1.0833763,8.372523,1.3808558,-1.087209,9.590207,1.73675011409350951186,-0.6338649,8.257003,1.3964181,-1.1781719,9.580252,1.73236741409350951198,0.1412579,8.519168,1.489792,-1.270388,9.569355,1.72742181409350951219,1.5185224,8.291719,1.5352819,-1.3565011,9.555298,1.73970321409350951220,1.6328455,7.8793178,1.62686,-1.4289175,9.537211,1.78050581409350951226,1.3617022,7.331644,1.8058267,-1.4946494,9.513769,1.85057011409350951248,0.91937345,6.8569937,1.9093759,-1.5555847,9.48518,1.94471431409350951249,0.61411273,6.415862,1.8231846,-1.6173463,9.452244,2.05174851409350951266,0.7428011,6.3218894,1.6035166,-1.6827517,9.417444,2.1564991409350951267,0.81163436,6.6044054,1.4036007,-1.7482678,9.385057,2.24380021409350951282,0.80325466,7.2328835,1.4514848,-1.8126827,9.359079,2.30048231409350951286,0.53091425,8.063073,1.9865888,-1.873776,9.33925,2.33190441409350951301,0.22625206,8.690353,2.843713,-1.9325131,9.320794,2.3576621409350951318,-0.35434186,8.961497,3.0346506,-1.9878209,9.29844,2.39957571409350951319,-1.1336545,9.0794115,2.6635494,-2.0429716,9.270568,2.46033291409350951333,-1.4700398,9.288305,2.3810337,-2.1023817,9.239004,2.52807711409350951349,-1.050456,9.670779,2.0242975,-2.1599925,9.208972,2.58836581409350951350,0.008978256,9.987412,1.8136078,-2.2090404,9.184838,2.63235351409350951364,1.1192893,10.141838,2.2786815,-2.2448509,9.168543,2.65873531409350951366,1.5286977,10.433332,2.882619,-2.266841,9.156325,2.68207881409350951380,1.4323312,10.752958,3.3441012,-2.276672,9.149195,2.69803141409350951386,0.9900024,10.942101,3.5218706,-2.2786343,9.143547,2.7154661409350951406,0.825401,10.849923,4.534618,-2.2764883,9.138288,2.73490021409350951408,0.760159,10.54586,4.4580035,-2.2626915,9.135699,2.75492431409350951442,0.5907693,10.399814,3.3854012,-2.2320497,9.143549,2.75388071409350951444,0.28191724,9.91798,2.6635494,-2.182411,9.164941,2.72237681409350951446,0.15143326,9.69113,2.2948422,-2.1167502,9.196552,2.66705581409350951448,-0.6697779,8.838196,1.3132197,-2.040114,9.2377825,2.58296251409350951475,-2.3127987,7.507618,0.23582886,-1.9674257,9.287081,2.45962381409350951477,-4.197634,7.3352356,-0.19153613,-1.9044718,9.337802,2.3127551409350951481,-5.470751,8.647857,0.4381389,-1.8536853,9.3888035,2.1411691409350951509,-6.171055,11.218631,1.2749124,-1.8047739,9.436485,1.96619311409350951510,-6.129755,15.017032,1.4101849,-1.7497395,9.47858,1.80701611409350951511,-5.415684,18.949509,0.801459,-1.6743695,9.518363,1.66361891409350951518,-5.403115,19.608511,0.092176765,-1.5644681,9.561474,1.51692321409350951533,-5.934029,19.608511,0.015562311,-1.4368165,9.6045475,1.36331961409350951549,-4.8428717,18.553268,0.9271546,-1.3209752,9.639164,1.22961141409350951550,-3.232771,14.1347685,1.8806454,-1.2138318,9.660436,1.1717531409350951570,-3.3141737,10.53329,3.3063924,-1.1143167,9.668265,1.20554951409350951571,-3.642778,10.541072,5.0583496,-1.0347583,9.663766,1.30816291409350951578,-3.6409822,11.669339,6.289568,-0.9656916,9.652001,1.44108141409350951607,-1.4508862,11.324574,4.2556934,-0.8959042,9.636418,1.58340551409350951608,-1.146224,8.696938,2.6910827,-0.7867716,9.6343,1.6527691409350951610,-0.8774749,7.1604586,1.3245921,-0.6656386,9.642913,1.65576351409350951618,-0.65062433,7.023989,0.76195467,-0.5589166,9.655181,1.62342011409350951642,-0.37588966,7.503428,0.9379285,-0.46666014,9.66607,1.58736221409350951645,0.1436521,7.6369047,1.2336124,-0.37454957,9.673486,1.56645621409350951647,0.5770026,7.787141,1.4742297,-0.27785408,9.676844,1.56585531409350951665,0.61650693,7.8326306,1.5173253,-0.18166879,9.676294,1.58325771409350951667,0.25617957,7.551911,1.3946224,-0.092227414,9.672151,1.61597561409350951678,-0.08559271,6.6750345,1.1917139,-0.01566462,9.664469,1.66378371409350951696,-0.16101007,5.7604494,1.0995371,0.050862845,9.6546755,1.71903041409350951698,-0.01616086,5.024831,1.1827357,0.10363141,9.641783,1.78764391409350951713,-0.01616086,4.4544125,1.3467385,0.14616705,9.626038,1.86773221409350951731,-0.08140286,4.1772833,1.5292963,0.18241741,9.608002,1.95535961409350951732,-0.019752163,3.9719806,1.7363948,0.21331488,9.588902,2.04397321409350951748,0.059855044,4.034828,1.9189527,0.23947187,9.570488,2.12574321409350951749,0.015562311,4.1539397,1.99437,0.26188752,9.553992,2.1961471409350951765,-0.039504327,4.3059716,1.963844,0.2802756,9.540461,2.25198581409350951767,0.108936176,4.462792,1.8764555,0.29347464,9.530667,2.29142931409350951782,0.8218097,5.2439003,2.0632033,0.3005355,9.524945,2.31419181409350951799,1.0241197,5.5204306,2.195483,0.3028725,9.521192,2.32928871409350951800,1.1234791,5.8280854,2.2631192,0.30241016,9.521316,2.32884051409350951817,1.3221979,6.3763576,2.3918076,0.28954452,9.52572,2.31240441409350951819,1.5957354,7.185598,2.6856956,0.26441038,9.533741,2.28216461409350951833,1.845331,8.464102,3.1609447,0.22767946,9.543972,2.24301981409350951848,1.9123687,9.854534,3.8534677,0.18234599,9.554861,2.20040631409350951849,1.9075803,11.221623,4.425682,0.1321604,9.564486,2.16184191409350951865,1.5664065,11.605893,4.32333,0.08434066,9.57158,2.13263341409350951866,0.6560113,11.050438,4.2299557,0.04168445,9.577394,2.1076551409350951880,-0.5303157,13.389573,5.3875523,0.00387801,9.5824,2.08517961409350951896,-1.5610195,16.877327,5.495291,-0.03171572,9.582643,2.08383511409350951901,-1.1552023,16.730682,2.6138697,-0.07645254,9.581228,2.08916661409350951916,0.40581718,15.020024,-0.11552023,-0.09321064,9.585496,2.06880951409350951918,2.432509,13.274652,-0.13826515,-0.06685951,9.595618,2.02237961409350951930,4.2880154,11.414356,1.8752584,-0.004239099,9.600017,2.00251651409350951947,4.8901567,10.307637,5.919065,0.09546923,9.5892515,2.05122831409350951948,3.6493618,12.180501,9.114127,0.23925285,9.560385,2.1707591409350951963,2.0147207,18.022354,7.0634937,0.4116849,9.520076,2.31712721409350951966,-1.5610195,16.845604,4.248511,0.58365303,9.493378,2.38862011409350951979,-2.4169466,14.614207,2.5516205,0.69293106,9.482628,2.40208391409350951998,-3.6685154,12.373235,1.3497312,0.7544485,9.469243,2.43611431409350951998,-4.5406036,10.274716,1.508347,0.75434554,9.446413,2.5232221409350952013,-4.7255554,10.288484,2.0566192,0.7184723,9.419339,2.63253471409350952031,-4.547786,10.102334,1.7531542,0.6273566,9.399638,2.72463421409350952032,-4.2173862,9.149442,1.7866731,0.5081266,9.396492,2.76009771409350952045,-3.5206735,8.085817,2.4887726,0.39301646,9.403064,2.75650481409350952046,-2.665345,7.49026,2.6982653,0.30016896,9.408571,2.74937421409350952062,-1.3676877,7.116166,2.2242134,0.2333185,9.408874,2.75482131409350952066,0.06823475,6.8444242,1.9632454,0.18502763,9.407829,2.76204781409350952081,0.88525605,6.8947024,1.763928,0.14324015,9.411586,2.75171281409350952096,1.0007763,7.3286514,1.6519991,0.099126,9.422899,2.7146921409350952102,0.6757634,8.08881,1.9428947,0.051008742,9.439162,2.6589481409350952122,0.46627077,9.173983,2.267309,-0.002798545,9.455734,2.59990141409350952123,0.20949265,10.064626,2.2026656,-0.060865387,9.471321,2.54180341409350952127,-0.36511576,10.338163,1.6861166,-0.122254655,9.484556,2.48970681409350952146,-0.89782566,10.172364,1.0911574,-0.19085065,9.495614,2.44281409350952147,-1.6466122,10.2657385,0.3172317,-0.26763707,9.507459,2.38893181409350952162,-2.2062569,10.000581,0.2160767,-0.35419148,9.524183,2.30973891409350952167,-2.6384103,9.703699,0.17298107,-0.45071548,9.542879,2.21375561409350952178,-2.7790697,9.2308445,0.27712885,-0.556809,9.559162,2.11725761409350952193,-2.6384103,8.534132,0.22385786,-0.66213983,9.570474,2.03420761409350952209,-2.271499,8.171411,0.272939,-0.7546445,9.577099,1.96979731409350952210,-2.010531,8.543709,0.5518635,-0.83435327,9.579322,1.92635681409350952227,-2.255338,8.548497,0.76434886,-0.9076092,9.5786495,1.89634281409350952228,-2.156577,8.507197,0.95229375,-0.97755414,9.571835,1.89597981409350952247,-2.0817583,7.7907324,0.90620536,-1.0443103,9.558311,1.92833541409350952249,-1.726818,7.7027454,0.9624691,-1.1120304,9.53938,1.98343421409350952272,-1.3449428,7.6668324,0.94930094,-1.1837358,9.519159,2.03832031409350952273,-1.1115081,7.839215,1.067814,-1.2628015,9.50189,2.07118491409350952279,-0.7290344,8.7125,1.2384008,-1.3479581,9.489414,2.07470731409350952309,-0.16579847,8.824429,1.198298,-1.4342197,9.48037,2.05816171409350952311,0.374094,8.344392,1.1061212,-1.5177425,9.471482,2.03908591409350952313,0.8355764,8.220491,1.3611037,-1.6007456,9.459437,2.03151581409350952340,1.3221979,8.222287,1.5969325,-1.6791835,9.443012,2.04456761409350952342,1.4556746,8.081628,1.8112136,-1.7493018,9.424582,2.07065371409350952345,1.134253,7.4016747,1.8674773,-1.8059633,9.403079,2.1191971409350952347,0.91338795,7.265205,1.7136499,-1.8550577,9.3778925,2.18730551409350952361,0.8170213,7.2394676,1.5975311,-1.8993083,9.350791,2.26400881409350952378,0.98700964,7.430405,1.608305,-1.9437604,9.323874,2.3361471409350952381,1.2707225,7.6722193,1.8166006,-1.9899464,9.300028,2.39164851409350952393,1.5448587,8.20433,2.1278467,-2.0382175,9.279537,2.43027661409350952398,1.3922282,8.60117,2.3732524,-2.086732,9.260882,2.46008731409350952412,0.8086416,8.913613,2.7581203,-2.136986,9.240595,2.49301171409350952431,-0.16400282,9.184756,3.3051953,-2.188507,9.215532,2.54063491409350952432,-0.7733272,9.498995,3.1878796,-2.2415495,9.185937,2.6008491409350952447,-0.6344634,9.55885,2.3642743,-2.294932,9.1517725,2.67371421409350952448,-0.12389994,9.454104,1.8088194,-2.342176,9.117859,2.74759131409350952460,0.504578,9.522937,2.2816741,-2.382604,9.0874,2.8129631409350952475,0.54168814,10.160992,3.1597476,-2.415539,9.061333,2.86841371409350952478,-0.08140286,10.709264,3.550601,-2.4391453,9.040689,2.91322611409350952493,-0.5530606,10.9834,3.2626984,-2.4558053,9.02505,2.94752241409350952511,-0.3184288,10.96305,3.6912606,-2.4655764,9.015121,2.96966651409350952512,-0.24361002,10.410587,4.540005,-2.4601765,9.011524,2.98502141409350952529,-0.44651863,9.879673,4.248511,-2.4354117,9.015514,2.99326781409350952530,-0.58777654,10.049063,3.0256724,-2.3887365,9.033227,2.9774391409350952540,-0.25917232,10.550649,2.818574,-2.3350704,9.061077,2.9350891409350952547,-0.54288524,10.493188,1.5376761,-2.258261,9.103232,2.8638791409350952561,-1.4622587,9.585785,0.29508537,-2.1834736,9.155407,2.7534251409350952580,-2.7712884,8.243237,-0.11731588,-2.1208403,9.211862,2.61037251409350952581,-3.8815994,7.4387846,0.029927522,-2.0690942,9.266248,2.45476751409350952593,-5.036802,7.7374616,0.7068881,-2.0177147,9.31745,2.29877141409350952599,-5.9687448,9.607931,1.2497733,-1.9615016,9.3657875,2.14591151409350952610,-5.922058,13.113043,1.8273745,-1.8969802,9.412298,1.99512931409350952629,-5.490503,17.609953,2.168548,-1.8114275,9.457974,1.85360431409350952633,-5.5485625,19.608511,1.9895816,-1.6947355,9.504736,1.71996741409350952653,-5.979519,19.573198,1.9632454,-1.5661323,9.547801,1.59909641409350952654,-5.2822075,17.323246,1.8429368,-1.4453973,9.58317,1.49802211409350952667,-3.982156,13.404537,2.1481974,-1.3354688,9.6070175,1.4464241409350952687,-3.079542,10.031107,2.794632,-1.2339827,9.61813,1.46262051409350952689,-2.7605145,10.259753,4.2850223,-1.1444585,9.617933,1.53491411409350952690,-2.6288335,10.733206,5.1966147,-1.0619153,9.609115,1.64549231409350952699,-1.8674773,12.330139,5.0906715,-0.9725807,9.599384,1.75393391409350952713,-1.1905168,12.194866,4.1533413,-0.85905415,9.59892,1.81471191409350952727,-0.7529764,8.1756,1.5298948,-0.7326824,9.608614,1.81882231409350952729,-0.7074866,7.6387005,0.9415198,-0.62497956,9.623302,1.78097051409350952748,-0.49799395,7.6788034,1.0199299,-0.5394083,9.636056,1.7394951409350952749,-0.13467385,7.8727336,1.3150153,-0.4630239,9.646332,1.70419471409350952761,0.25857377,7.7201033,1.4437037,-0.38716736,9.652676,1.68710971409350952779,0.31543607,7.5704656,1.5263035,-0.3120905,9.655579,1.68607031409350952780,0.27353755,7.3298483,1.46585,-0.24221025,9.655494,1.69798931409350952794,0.2837129,6.692991,1.4646529,-0.18148093,9.652563,1.72205711409350952812,0.3309984,5.9448028,1.7663223,-0.12968306,9.646251,1.76165321409350952813,0.350152,5.345654,2.0620062,-0.08542147,9.636,1.81951381409350952829,0.3489549,4.9057193,2.1511903,-0.04792663,9.62222,1.89234521409350952830,0.40880993,4.6579194,2.135628,-0.014833376,9.606229,1.9724441409350952844,0.54408234,4.585495,2.098518,0.014782851,9.589738,2.05111651409350952847,0.57161564,4.607641,2.0799627,0.041659825,9.574037,2.1228491409350952860,0.52253455,4.7500963,2.0518308,0.06757205,9.558712,2.19017271409350952875,0.56563014,4.943428,1.9297266,0.09227102,9.544934,2.24858051409350952879,0.7517793,5.100847,1.7166426,0.11730419,9.533527,2.29532581409350952892,0.88944596,5.3157263,1.6112977,0.14159232,9.525561,2.32680461409350952909,1.1893197,5.593454,1.8124107,0.16116372,9.521788,2.34093671409350952910,1.3754689,6.108207,2.1703439,0.17380503,9.521841,2.33981081409350952928,1.5065514,6.6708446,2.517503,0.17612894,9.525514,2.32463771409350952929,1.6825253,7.6231384,2.8628666,0.16531566,9.532509,2.29659461409350952945,1.858499,8.917803,3.366846,0.14177053,9.5424385,2.25658371409350952948,1.9512744,10.451289,3.657143,0.107687786,9.5542555,2.2079381409350952962,1.858499,11.792641,3.739743,0.06850772,9.566572,2.15554951409350952976,1.4083891,12.398374,3.8055837,0.030851504,9.578619,2.10225751409350952983,0.5434838,12.588114,3.9773676,-0.008498948,9.589477,2.05237871409350953002,-0.760159,15.150508,4.8081555,-0.048391107,9.5973835,2.01451781409350953003,-1.5544355,16.445173,4.433463,-0.093338214,9.598381,2.0081811409350953008,-1.2270284,15.108011,2.0608091,-0.13634923,9.59472,2.02315881409350953037,0.030526072,13.410522,0.6667852,-0.15535642,9.595247,2.01928231409350953039,1.5813702,12.224793,1.2036849,-0.14132527,9.597921,2.00756671409350953041,2.6916811,11.112088,3.0663738,-0.09349881,9.593852,2.0296891409350953048,2.3020248,10.772112,6.873753,-0.007450609,9.577946,2.10554481409350953070,1.5406688,13.575722,7.318476,0.11329116,9.547999,2.23456361409350953072,0.350152,18.01936,4.4783545,0.25031668,9.514546,2.36243821409350953080,-0.599149,17.364546,4.2850223,0.3953243,9.4966545,2.41405491409350953099,-1.9267339,11.774085,2.545635,0.52824605,9.485044,2.43419171409350953102,-3.2854433,10.313622,1.6699557,0.61875623,9.473737,2.45679761409350953108,-3.3464954,8.718486,2.1619642,0.64551014,9.457789,2.51076581409350953129,-3.1453824,8.568848,2.6270378,0.6239929,9.438751,2.5866961409350953130,-3.2956185,9.063251,2.3319526,0.5654762,9.426917,2.64270021409350953144,-3.2315738,9.147646,2.0859482,0.48414832,9.428597,2.6528381409350953148,-2.9299042,9.338584,1.8567034,0.39861983,9.440283,2.62536551409350953165,-2.6629508,9.309255,1.4622587,0.32220936,9.454046,2.58603951409350953168,-1.5628152,9.231443,0.93972415,0.25953984,9.463613,2.55794621409350953180,-0.4973954,9.196129,0.56563014,0.20840515,9.471071,2.53491021409350953200,0.17896658,9.099164,0.33997664,0.16337928,9.477968,2.51233171409350953202,0.10594343,9.341577,0.64823014,0.1120831,9.488679,2.47442961409350953208,-0.23523031,9.7563715,1.3623008,0.046821665,9.502543,2.42278121409350953231,-0.55006784,10.008362,1.7938557,-0.030732993,9.514618,2.37518721409350953233,-0.9947908,9.679757,1.8429368,-0.1171357,9.521406,2.34510351409350953240,-1.4269443,9.23683,1.763928,-0.20970133,9.522623,2.3336861409350953264,-1.6424223,8.957906,1.7166426,-0.3069456,9.521715,2.32661631409350953266,-1.7525556,8.786121,1.560421,-0.40474224,9.523737,2.30326341409350953269,-1.9327193,8.5383215,1.3204023,-0.50093,9.5306225,2.2553761409350953301,-2.6222494,8.321647,1.0528502,-0.5968759,9.538541,2.19781231409350953303,-2.4642322,8.236053,0.9540894,-0.69684875,9.546831,2.1313891409350953306,-2.2008698,8.189965,0.6051345,-0.79119205,9.553689,2.06675151409350953309,-1.8974048,8.325836,0.34476504,-0.8752651,9.559907,2.00312141409350953335,-1.851915,8.661025,0.52612585,-0.94756365,9.5657835,1.94121891409350953338,-1.99437,9.14226,0.85293436,-1.0104316,9.569234,1.891871409350953344,-1.8980033,9.239224,0.96187055,-1.066719,9.567163,1.87132871409350953361,-1.6005238,8.855554,0.8206126,-1.1192127,9.557939,1.88774321409350953362,-1.2024878,8.499416,0.7667431,-1.1743923,9.543427,1.9272161409350953379,-0.82599956,8.588001,0.7733272,-1.2421588,9.5277195,1.96214411409350953380,-0.7517793,8.604761,0.78888947,-1.3257464,9.51427,1.97267961409350953392,-0.4297592,8.932767,0.8900445,-1.4160256,9.501947,1.96933321409350953408,0.14963761,8.992621,1.002572,-1.5117283,9.492606,1.94306951409350953409,0.4842273,8.219295,1.0785879,-1.6038215,9.484499,1.90851141409350953426,0.8726865,7.7626004,1.4161704,-1.6901419,9.474555,1.8832461409350953428,1.1091139,7.802105,1.9841946,-1.7702494,9.460241,1.8816141409350953443,1.2246342,7.913435,2.3612814,-1.838691,9.440752,1.91358551409350953458,1.2108675,7.7931266,2.3678656,-1.8952214,9.417033,1.97433321409350953462,1.1833342,7.611766,2.1505916,-1.9469056,9.391123,2.04616331409350953475,1.3401544,7.8607626,1.359308,-1.9995471,9.365543,2.1115891409350953481,1.34195,8.376713,1.2593501,-2.0524335,9.343992,2.1558571409350953499,1.3281834,8.980052,1.5161282,-2.1038609,9.326206,2.18312861409350953501,1.3042414,9.630676,1.9853917,-2.1517158,9.310016,2.205481409350953508,1.2024878,10.0825815,2.4821887,-2.1905706,9.295042,2.23024561409350953534,0.7380127,10.101735,2.706645,-2.222317,9.278594,2.26702551409350953535,-0.006584055,9.993997,2.9029696,-2.2545848,9.258056,2.31854771409350953540,-0.46028528,9.772532,2.7742813,-2.292125,9.232212,2.3838621409350953568,-0.010175358,9.205107,2.0470424,-2.3331044,9.202752,2.45690461409350953569,0.6715736,8.596381,1.7729063,-2.3692389,9.174105,2.5284151409350953571,1.4221559,8.486847,2.5971103,-2.3969915,9.148318,2.59482311409350953599,1.2036849,9.26556,3.1854854,-2.4131877,9.126674,2.65532231409350953600,0.3842694,10.479421,3.233968,-2.422198,9.1108465,2.70107631409350953601,-0.22924481,11.225813,2.8209682,-2.4240212,9.100518,2.73405961409350953608,-0.1376666,11.416751,2.9460652,-2.4235897,9.096354,2.74826811409350953626,0.2208651,10.822391,4.086902,-2.407587,9.0982275,2.75611831409350953628,0.24420857,9.873089,4.407127,-2.3724022,9.103451,2.76935031409350953645,0.007781155,9.19553,3.857059,-2.317533,9.115054,2.7776271409350953664,-0.049081136,9.054871,3.1022868,-2.2441378,9.137464,2.76423261409350953675,-0.54049104,9.937733,1.5191209,-2.019902,9.2681,2.48852011409350953676,-1.6962919,9.832987,-0.06703765,-2.019902,9.2681,2.48852011409350953680,-3.2106245,9.291298,-0.7679402,-2.019902,9.2681,2.48852011409350953697,-4.4903255,8.880095,-0.8511387,-1.975843,9.320574,2.3223541409350953702,-5.361216,9.0554695,-0.21667525,-1.9382412,9.369936,2.14893631409350953708,-6.126762,10.490194,0.35254622,-1.8995099,9.414767,1.98101311409350953736,-6.4643445,13.537415,0.53450555,-1.8551986,9.456524,1.8173611409350953737,-6.275801,17.368137,0.9331401,-1.7977195,9.496463,1.66006271409350953740,-6.4583592,19.545065,1.0749966,-1.7176338,9.534583,1.52048531409350953765,-6.663662,18.854338,1.2324153,-1.6221123,9.568836,1.40589381409350953767,-6.2123547,15.941194,1.893215,-1.5284339,9.594943,1.33092191409350953769,-5.067328,12.509106,2.6007016,-1.4422017,9.610573,1.31428751409350953802,-3.9240966,9.931747,3.517681,-1.3577176,9.616956,1.35689041409350953803,-3.7205894,10.040684,4.6100354,-1.2753963,9.614707,1.44954121409350953805,-3.3153708,10.606912,4.985925,-1.2002128,9.605966,1.56693841409350953809,-2.2649148,11.753136,5.0038815,-1.1158701,9.599966,1.66309871409350953835,-0.86969376,11.774684,4.4208937,-1.0153639,9.598305,1.73550511409350953836,-0.34835634,9.867104,3.2531216,-0.8872908,9.60688,1.75811151409350953841,0.11312603,7.349601,1.2521675,-0.76454705,9.620578,1.74078861409350953858,0.45429978,7.5124063,1.2120646,-0.6639562,9.635641,1.69822791409350953860,0.7080852,8.00621,1.4562732,-0.57493454,9.648099,1.65952661409350953873,0.7769185,8.18398,1.5753847,-0.4859705,9.656918,1.63651511409350953892,0.7637503,8.010401,1.6603789,-0.39678282,9.661853,1.63143041409350953893,0.49559975,7.6428905,1.7256209,-0.31204176,9.663109,1.64235281409350953908,0.17058687,7.025785,1.644218,-0.23868163,9.660651,1.66890471409350953909,0.030526072,6.2243257,1.6352397,-0.17835072,9.654313,1.71255391409350953923,-0.02873042,5.605425,1.8596961,-0.12868783,9.645707,1.7647051409350953929,-0.01436521,5.327099,2.0913353,-0.08464184,9.633688,1.8317421409350953941,0.025139118,5.1475334,2.1865046,-0.04544227,9.618755,1.90993871409350953955,0.18136078,5.149928,2.19249,-0.010490159,9.602079,1.99257311409350953960,0.24420857,5.2002063,2.247557,0.020380927,9.5854025,2.0712481409350953972,0.1921347,5.282806,2.2649148,0.04655821,9.569648,2.1424471409350953990,0.29568392,5.4462104,2.3056161,0.0688775,9.555485,2.20416781409350953993,0.3788824,5.49589,2.1296425,0.09044406,9.5432205,2.25591661409350954010,0.5482722,5.4922986,1.9381063,0.109048836,9.533854,2.29437951409350954013,0.825401,5.5587378,1.8680758,0.12228697,9.528139,2.31733661409350954031,1.0582372,5.78918,2.0248961,0.1284594,9.526353,2.32432561409350954033,1.2743138,6.2123547,2.8030117,0.13220644,9.526234,2.32460451409350954040,1.4173675,6.8689647,3.1920695,0.12569687,9.528411,2.316031409350954057,1.7657237,8.049905,3.4380736,0.107661664,9.533228,2.2970361409350954082,2.0967221,9.591172,3.6457705,0.07995982,9.540853,2.26630781409350954083,2.3026235,11.01632,3.417723,0.045868676,9.550584,2.2259011409350954084,2.332551,11.7543335,2.9317,0.009940014,9.562006,2.1767731409350954089,1.9045875,12.10269,3.0520086,-0.024016762,9.574787,2.11973481409350954119,0.91937345,13.75409,3.9671922,-0.054328606,9.586532,2.06539421409350954121,-0.3681085,15.225925,4.337096,-0.08257219,9.594117,2.0289171409350954123,-0.7158663,14.662091,2.9149406,-0.11368564,9.597719,2.01028941409350954171,-0.15023616,13.470976,1.3389573,-0.1320666,9.603123,1.9831771409350954174,1.0576386,12.250531,1.4389153,-0.13651575,9.61083,1.94517661409350954177,2.4432828,11.146206,2.6246436,-0.10495149,9.613885,1.93198691409350954182,2.4851813,10.986992,6.411672,-0.03839103,9.606884,1.96893511409350954184,0.8283938,14.180857,9.099762,0.060754914,9.585483,2.07007961409350954206,-1.1988965,19.342756,5.1241903,0.17560652,9.553398,2.20729451409350954208,-2.6737247,19.608511,2.2864625,0.28899527,9.537336,2.264091409350954209,-1.821389,17.019781,2.231396,0.39150238,9.531815,2.27192381409350954210,-1.2850877,12.56896,1.8177977,0.4816339,9.518773,2.30897671409350954224,-2.6013002,7.9325886,1.9614497,0.5269458,9.494006,2.39928581409350954247,-2.72939,6.5247984,2.902371,0.5135077,9.462597,2.52308541409350954248,-3.0538042,6.1890116,2.813187,0.46459946,9.431735,2.64516451409350954249,-3.1052797,6.203975,2.3930047,0.40358776,9.411606,2.72565321409350954261,-3.110068,6.723517,2.2469583,0.33554783,9.405424,2.75604991409350954277,-3.0142999,7.557896,2.1003134,0.2722487,9.409213,2.75008251409350954287,-2.156577,8.025963,1.6633717,0.2226656,9.417085,2.72751241409350954289,-0.94930094,8.396465,1.3215994,0.1918082,9.425326,2.70125871409350954307,0.05686229,9.033323,0.95349085,0.16754897,9.435249,2.66802861409350954309,0.51355624,10.028113,1.1145009,0.13322394,9.450464,2.6156011409350954329,0.45130703,11.210251,1.5029601,0.08108787,9.470935,2.54267381409350954330,0.30526072,11.921927,1.5544355,0.012215485,9.493419,2.45871261409350954340,-0.25198972,11.498154,1.3066356,-0.06488646,9.51402,2.37689281409350954362,-0.7858967,10.706271,1.2401965,-0.1475448,9.531677,2.30124881409350954364,-1.0995371,10.259753,1.3844471,-0.23417532,9.543586,2.24400191409350954369,-1.3126211,10.012551,1.5035586,-0.32280368,9.551464,2.19903041409350954389,-1.3335704,9.622296,1.4514848,-0.41140082,9.558824,2.15174911409350954392,-1.4490906,9.146449,1.2282255,-0.4976504,9.566969,2.09663151409350954406,-1.8387469,8.706514,1.0749966,-0.5803657,9.573891,2.04308581409350954409,-2.3774424,8.902839,1.2306197,-0.6630457,9.577319,2.0014311409350954430,-1.6430209,8.67958,0.9564836,-0.7491369,9.576781,1.9734361409350954431,-1.2144588,8.451532,0.45789108,-0.827332,9.575457,1.94846691409350954442,-1.1150994,8.373122,0.20111294,-0.8929967,9.576219,1.91545671409350954463,-1.3066356,8.218696,0.30825347,-0.9473739,9.577855,1.88084771409350954465,-1.4867992,7.8290396,0.65900403,-0.9986346,9.577749,1.85468041409350954469,-1.2497733,8.02716,1.1569979,-1.0514313,9.571866,1.85587331409350954500,-0.92895025,8.010999,1.3904326,-1.1099494,9.56042,1.88063611409350954501,-0.7691373,7.675811,1.2958617,-1.1790177,9.546884,1.90718151409350954502,-0.8002619,7.8027034,1.2114661,-1.2620522,9.534286,1.91703551409350954509,-0.80086046,8.01459,1.3856442,-1.357409,9.523557,1.90518021409350954528,-0.492607,7.949348,1.5245079,-1.4541103,9.514332,1.87974241409350954529,0.19393034,8.118738,1.5514427,-1.541716,9.505128,1.85635041409350954544,0.5351041,8.221688,1.620276,-1.6138437,9.495036,1.84666661409350954565,0.85413146,8.422802,1.7250223,-1.6754831,9.482062,1.85839861409350954567,0.88765025,8.522759,1.8088194,-1.7320211,9.467132,1.8825271409350954569,0.705691,8.448539,1.7202339,-1.7828598,9.447626,1.93240021409350954602,0.6398504,8.224682,1.4341269,-1.8311611,9.424495,1.99903511409350954605,0.74399817,8.226477,1.1258733,-1.8800572,9.400425,2.06586051409350954607,1.2665327,9.020754,1.0217255,-1.929308,9.379578,2.11463431409350954610,1.3269863,9.633071,1.1366472,-1.9731196,9.3650255,2.1385781409350954634,1.2761095,10.236409,1.4089876,-2.0118182,9.355122,2.1458531409350954635,1.0660183,10.781689,1.8070238,-2.0443199,9.346358,2.15331031409350954642,0.8738836,10.929531,2.5330653,-2.0717666,9.335507,2.1740441409350954659,0.60812724,10.6877165,2.9215245,-2.0980582,9.319466,2.21723411409350954673,0.130484,10.245388,3.1364043,-2.1278172,9.297565,2.27992771409350954674,-0.18255788,9.564836,3.0346506,-2.1634085,9.271794,2.3502941409350954687,0.24361002,8.825027,2.4438813,-2.2001526,9.243127,2.42782521409350954689,0.6631939,8.13849,2.0757728,-2.2294414,9.214752,2.50765681409350954707,1.1677719,7.9702973,2.5222914,-2.2516007,9.187172,2.58777381409350954711,0.95947635,8.4664955,2.9592333,-2.2657459,9.162215,2.66281821409350954731,0.2873042,9.196129,2.8880057,-2.274721,9.142895,2.72093651409350954732,-0.34715924,10.044274,2.532467,-2.2812505,9.131145,2.75472071409350954740,-0.21787235,10.362105,2.8880057,-2.282963,9.127554,2.7651861409350954756,0.22744916,9.938332,3.788824,-2.2704144,9.130313,2.76640251409350954760,0.19033903,9.592968,3.6966474,-2.2359993,9.137812,2.76967291409350954775,0.30526072,9.446322,3.4745853,-2.1785996,9.15333,2.7641731409350954789,0.21906945,9.564836,3.0304608,-2.110006,9.173951,2.74898081409350954796,-0.45310268,10.41777,1.3455414,-2.0232785,9.20584,2.70725871409350954829,-1.6256629,10.355521,-0.093972415,-1.9364784,9.251338,2.6140381409350954831,-3.0831332,9.631275,-0.7284359,-1.8616492,9.305986,2.47048191409350954832,-4.494515,9.228451,-0.65900403,-1.8006916,9.360737,2.30315261409350954834,-5.441422,9.754577,0.30765492,-1.7488606,9.409921,2.1366481409350954842,-6.415862,11.407174,1.2497733,-1.6994816,9.452004,1.98538951409350954865,-6.9090676,14.021044,1.3437457,-1.6511024,9.487162,1.85419291409350954867,-6.941988,16.60738,1.002572,-1.5973661,9.5176935,1.74136031409350954870,-6.8749504,17.903841,0.8265981,-1.5322688,9.546455,1.63942611409350954897,-6.2009826,17.408838,1.340753,-1.4590178,9.573788,1.54409931409350954898,-5.2798133,15.012842,2.4007857,-1.3724236,9.597447,1.47508131409350954901,-4.0037036,12.162544,3.2243912,-1.2791938,9.612651,1.45979731409350954910,-2.6910827,10.149021,3.6284127,-1.1863589,9.618523,1.49899291409350954933,-2.1350293,9.275137,4.209007,-1.093907,9.618256,1.56937471409350954934,-2.1529858,9.615114,4.9637785,-1.000725,9.615313,1.64763051409350954945,-1.8022354,10.420164,5.263054,-0.9091554,9.611757,1.71986751409350954966,-1.471237,10.487202,4.560954,-0.812567,9.610796,1.77277361409350954967,-0.8511387,10.491392,3.8947675,-0.71069986,9.616181,1.78728331409350954970,-0.45908818,8.009203,1.9865888,-0.6046258,9.626805,1.76902511409350954997,-0.40102878,7.701548,1.2982559,-0.5094126,9.639871,1.72736621409350954998,-0.049679685,7.949947,1.1408371,-0.42188248,9.652357,1.68059921409350955001,0.31244332,8.316259,1.2922704,-0.33620298,9.663027,1.63807361409350955027,0.4381389,7.840412,1.1959038,-0.25185966,9.670788,1.60712081409350955028,0.21308395,7.0646906,1.0354922,-0.1745207,9.675162,1.59097281409350955030,0.2172738,6.754043,1.2264298,-0.112340726,9.676245,1.5899891409350955041,0.48841715,6.6492968,1.6017209,-0.06369959,9.674024,1.60611071409350955063,0.8158242,6.7480574,1.8351556,-0.017793505,9.668397,1.64078511409350955065,0.931943,6.6504936,1.851915,0.03218553,9.659761,1.69067591409350955070,1.0720038,6.4607534,1.7681179,0.08396781,9.648878,1.74999611409350955097,1.2300211,6.301539,1.7100586,0.13320582,9.6371355,1.8106011409350955099,1.2659341,6.1866174,1.7441759,0.17890023,9.625255,1.8689211409350955102,1.210269,6.1159883,1.7663223,0.22289018,9.613072,1.92601721409350955134,1.086369,6.0758853,1.6160861,0.2632464,9.601202,1.97939751409350955135,1.0540473,6.0519433,1.4502877,0.2994152,9.590635,2.02496621409350955137,1.158195,6.091448,1.4622587,0.33041453,9.582348,2.0590891409350955163,1.3377602,6.1219735,1.6358383,0.35444486,9.577037,2.07969211409350955165,1.5634137,6.2141504,1.8447324,0.3675347,9.574826,2.0875811409350955167,1.6777369,6.703166,2.2906525,0.36495793,9.5759735,2.082771409350955170,1.6968905,7.3867106,2.6354175,0.34329715,9.580138,2.06724121409350955202,1.7830818,8.468291,3.0412347,0.301939,9.587048,2.04150771409350955203,1.9285295,9.768942,3.4051533,0.24525896,9.595736,2.00800921409350955204,2.0362685,10.972028,3.6481647,0.18628567,9.60426,1.97329271409350955226,1.9405005,11.839328,3.9707835,0.1219507,9.612558,1.93758791409350955227,0.99658644,11.391612,4.3167458,0.060847852,9.619069,1.90793261409350955244,-0.0724246,11.754931,4.5687356,0.001847674,9.622549,1.89127791409350955245,-1.1115081,14.479533,5.367202,-0.053210635,9.62195,1.89358331409350955250,-1.4036007,15.190611,4.060566,-0.107230544,9.614878,1.92692211409350955271,-0.6907272,13.724163,1.5514427,-0.14234789,9.608067,1.95835821409350955272,0.8487445,12.161347,0.8738836,-0.14323081,9.607364,1.9617421409350955287,2.2703018,10.909779,1.8626889,-0.10770094,9.606744,1.96704711409350955290,2.4971523,10.117896,4.5483847,-0.035682138,9.597497,2.01424311409350955317,1.8070238,11.029489,6.736685,0.07130583,9.575512,2.11539171409350955327,1.8177977,14.511256,5.4713492,0.19672969,9.544827,2.24230481409350955351,1.2395979,17.190968,4.6710877,0.3504504,9.518352,2.33421751409350955352,0.5189432,15.563508,5.0362034,0.5107909,9.500242,2.37800171409350955353,-0.6500258,12.801797,4.0264487,0.6394035,9.483511,2.41341661409350955354,-2.4121583,9.594764,2.280477,0.7103822,9.466343,2.46050931409350955381,-2.4462755,9.317036,3.2585084,0.7230036,9.44682,2.53085951409350955383,-2.6874914,10.290877,2.6330233,0.6952315,9.427437,2.60968851409350955406,-2.9801826,10.606314,1.7489643,0.6344951,9.421997,2.64457631409350955408,-2.9376855,10.0987425,1.543063,0.553637,9.432562,2.62500831409350955411,-2.8766334,9.718064,1.2312182,0.46925646,9.449108,2.58157541409350955430,-2.3349452,9.4295635,0.9498995,0.39270073,9.464242,2.53855821409350955432,-1.3102269,9.168595,0.7086837,0.32863817,9.472797,2.51565431409350955433,-0.2885013,8.820239,0.45130703,0.27754927,9.476509,2.50781421409350955457,0.31423897,8.665813,0.36511576,0.22826822,9.482033,2.49185541409350955459,0.16220717,8.813056,0.7667431,0.1696186,9.492373,2.4569221409350955472,-0.1448492,9.258977,1.602918,0.097949214,9.504474,2.41366581409350955473,-0.3890578,9.309255,2.0320787,0.017157033,9.513085,2.38145281409350955487,-0.76315176,8.811859,2.0961237,-0.06585501,9.515281,2.37180761409350955490,-1.2234371,8.494628,2.0350714,-0.14927578,9.511989,2.38121411409350955506,-1.5813702,8.62152,1.99437,-0.23497474,9.508343,2.38884641409350955521,-1.774702,8.90643,1.7866731,-0.3225186,9.510082,2.37164331409350955522,-2.0332758,9.029133,1.3718776,-0.41060677,9.515109,2.3376341409350955538,-1.9776106,8.825027,1.0486604,-0.49960503,9.525299,2.27803971409350955555,-2.042254,8.613141,0.62129533,-0.5875449,9.536425,2.20947531409350955556,-1.9590555,8.668207,0.4417302,-0.6742403,9.546405,2.1405491409350955568,-1.9255368,8.933964,0.480636,-0.7558241,9.554778,2.07493761409350955571,-1.8028339,9.474455,0.6997054,-0.83135337,9.560574,2.01858331409350955584,-1.858499,9.481637,0.82779527,-0.898447,9.561627,1.98456291409350955590,-1.9075803,9.221867,0.8702923,-0.9588135,9.555904,1.98387311409350955602,-1.5466543,8.772355,0.8194155,-1.0179807,9.543244,2.0150891409350955620,-1.1923125,8.626907,0.95468795,-1.0803443,9.526181,2.06279751409350955625,-1.1414356,9.145252,1.2401965,-1.148899,9.509119,2.10406021409350955639,-0.8403648,8.786121,1.1426327,-1.2211096,9.492954,2.13613771409350955663,-0.19572599,8.437765,0.89603,-1.3006648,9.480507,2.14445421409350955664,0.38726214,8.27496,0.93493575,-1.383725,9.4722805,2.12875631409350955666,0.8499416,8.059482,1.3066356,-1.4629313,9.466632,2.1007461409350955671,1.2276269,7.72968,1.7663223,-1.5356592,9.45873,2.0843591409350955696,1.4263457,7.560889,2.1721394,-1.6022196,9.445149,2.09581611409350955699,1.3754689,7.392098,2.2649148,-1.6629137,9.425411,2.13699151409350955703,1.0815806,7.165846,2.0452468,-1.7199874,9.400905,2.1988711409350955723,0.88166475,6.885724,1.7525556,-1.7796063,9.373523,2.26725821409350955724,0.91338795,6.9210386,1.5107412,-1.8436233,9.346652,2.32627151409350955735,1.3599066,8.13849,1.5269021,-1.9084206,9.321677,2.37374571409350955763,1.632247,8.942344,1.827973,-1.965543,9.303334,2.39896441409350955765,1.7926586,9.572019,2.1284454,-2.0134087,9.28946,2.41298771409350955766,1.6573862,9.809045,2.3894134,-2.0524945,9.276565,2.4296121409350955771,1.3138182,9.900024,2.9227216,-2.0864403,9.261039,2.45974061409350955795,0.7846996,9.92636,3.3249476,-2.1167557,9.240857,2.5092421409350955796,0.23403321,9.69113,3.233968,-2.1451712,9.216491,2.57389551409350955804,-0.061650693,9.19553,2.908955,-2.1733108,9.190155,2.64351131409350955822,0.18734628,8.734647,2.689287,-2.2020793,9.163609,2.71099621409350955823,1.0899603,8.661623,2.9041667,-2.2293653,9.1385145,2.77269771409350955837,1.584363,9.090784,3.441665,-2.2492712,9.117399,2.82563451409350955862,1.282095,9.935339,3.5853171,-2.2624452,9.09938,2.87280821409350955864,0.90141696,10.817602,3.2034419,-2.2699802,9.088737,2.90042161409350955867,1.0013748,11.148601,3.430891,-2.2704384,9.0874195,2.90418931409350955871,0.91338795,10.560823,4.1718965,-2.2551446,9.093659,2.89655851409350955895,0.58418524,10.075399,4.003105,-2.2246609,9.103226,2.89008551409350955896,0.260968,9.573814,3.5984852,-2.1784902,9.118479,2.8771381409350955905,0.1436521,9.347562,3.767875,-2.1160326,9.141772,2.84970451409350955931,-0.1376666,9.637859,1.3461399,-2.0423017,9.172653,2.80389481409350955932,-2.1649568,10.004171,-0.24480712,-1.9702688,9.217278,2.70744061409350955933,-3.7475243,9.332,-0.76195467,-1.9178772,9.270649,2.5587481409350955956,-4.8757915,8.64666,-0.74878657,-1.8806432,9.324798,2.38363481409350955959,-5.7095723,8.632893,-0.27114335,-1.849752,9.374988,2.20418641409350955964,-6.603807,10.049063,0.26276365,-1.8121004,9.423117,2.0227621409350955972,-7.3968863,13.1555395,0.3184288,-1.7675115,9.469842,1.83532451409350956011,-7.5124063,16.811485,0.044292733,-1.7183589,9.51386,1.64441381409350956014,-7.402273,19.346346,-0.02932897,-1.6563019,9.554535,1.46216291409350956017,-7.2221093,19.519327,0.3633201,-1.5796964,9.590173,1.30519941409350956020,-6.5708866,17.179594,1.4251486,-1.4946011,9.618098,1.19530931409350956025,-5.0517654,13.989321,2.5474305,-1.4071712,9.635003,1.16489141409350956056,-3.2908301,10.626065,3.2022448,-1.3138541,9.641568,1.21834531409350956058,-2.3331497,8.844181,4.2359414,-1.2156601,9.640274,1.32577231409350956059,-1.7016789,8.746018,4.9081135,-1.1198918,9.633688,1.45200381409350956062,-1.2066777,9.419388,5.521628,-1.0230888,9.6243,1.58003281409350956071,-0.55725044,11.830349,5.497087,-0.91924953,9.616993,1.68487971409350956087,0.0676362,11.807006,4.5286326,-0.7961795,9.617753,1.74221721409350956112,-0.088585466,9.605537,3.0771477,-0.6601904,9.627882,1.74311031409350956114,0.45609543,7.8625584,0.91817635,-0.54633796,9.641931,1.70443551409350956115,0.8882488,8.573636,1.3305776,-0.45482388,9.656478,1.64801221409350956123,0.9091981,8.990228,1.5831659,-0.3664538,9.666699,1.60966751409350956143,0.94451255,8.6257105,1.3180081,-0.27541962,9.671706,1.59769421409350956145,0.7374141,8.090606,1.0600328,-0.18881106,9.672727,1.60408941409350956151,0.3489549,7.216124,1.0360907,-0.11455818,9.670817,1.62251941409350956174,0.26635495,6.431424,1.4269443,-0.05001228,9.666808,1.64945891409350956175,0.39444473,5.8466406,1.7429788,0.005176964,9.658313,1.69922631409350956190,0.6584055,5.4324436,1.8656816,0.053949106,9.645231,1.77116331409350956219,0.9151836,5.201403,1.9710265,0.099778324,9.628612,1.85749781409350956225,1.0217255,5.348048,2.0254946,0.14389527,9.609996,1.94875561409350956228,1.0546459,5.613206,2.1589713,0.18644553,9.590541,2.03890871409350956252,0.96426475,5.8041434,2.2816741,0.22663565,9.57126,2.12367441409350956253,0.8750807,6.069301,2.255338,0.2625405,9.553138,2.19978211409350956254,0.85532856,6.160281,2.0530279,0.29210255,9.537798,2.2617451409350956256,1.0007763,6.2458735,1.9135658,0.31378657,9.526412,2.30637961409350956267,1.1917139,6.2380924,1.8896236,0.3254276,9.519115,2.33472251409350956271,1.3682863,6.1165867,1.95307,0.33207068,9.513744,2.35558751409350956287,1.5544355,6.157887,2.1751323,0.32323578,9.512011,2.36380531409350956312,1.7405846,6.895301,2.9897594,0.2977923,9.513222,2.36227351409350956314,1.9297266,7.89907,3.4141316,0.25656158,9.516335,2.3545611409350956315,2.0566192,9.1751795,3.904943,0.20159517,9.521909,2.33730961409350956323,2.018312,10.5045595,4.027047,0.13833252,9.529178,2.31214641409350956349,1.785476,11.401787,3.9013517,0.07326353,9.537662,2.27992131409350956351,1.0181342,11.139622,3.8845923,0.013543372,9.54648,2.24386671409350956352,-0.12030864,12.014703,4.4005427,-0.03950988,9.554015,2.21124981409350956372,-1.5939398,14.900913,5.097255,-0.08495266,9.557558,2.19459441409350956373,-2.3600843,15.6550865,3.6020765,-0.14030015,9.557377,2.19255041409350956388,-1.6436194,14.2862015,0.6703765,-0.18796061,9.556333,2.19353531409350956404,0.3345897,12.495937,-0.40940848,-0.20382805,9.558975,2.18055731409350956405,2.1086931,10.699687,0.9876082,-0.17833705,9.559602,2.18004271409350956418,2.9741971,8.955511,3.693056,-0.11846242,9.548634,2.23158071409350956444,2.5887306,8.461707,7.5465236,-0.023890287,9.522568,2.34318881409350956447,2.0512323,11.680113,8.052897,0.110048816,9.482605,2.49769471409350956451,0.9792285,17.314867,5.935226,0.27566126,9.445383,2.62281511409350956459,-0.5386954,17.722479,4.50888,0.44190982,9.427711,2.66333771409350956476,-1.4909891,14.230536,4.4795513,0.5627733,9.420839,2.66485451409350956477,-1.9835961,11.91295,2.3277626,0.6266906,9.404287,2.70869731409350956483,-2.9227216,9.809045,2.191293,0.6607076,9.386061,2.76328161409350956509,-3.1435869,9.563639,1.751957,0.6483093,9.361863,2.84703661409350956512,-3.6134489,9.102157,1.5005659,0.59382224,9.348715,2.90160061409350956514,-3.3554738,8.245032,1.9919758,0.51355815,9.352942,2.9032951409350956545,-2.7204118,7.904457,2.3289597,0.4324189,9.365629,2.87548661409350956546,-1.9422961,8.04392,2.1338322,0.3643778,9.376653,2.84886221409350956547,-0.98341835,8.317456,1.9626468,0.3174591,9.383196,2.83288721409350956551,0.17896658,8.656835,1.8794483,0.28610578,9.388867,2.81739331409350956569,0.92775315,9.23683,1.6514006,0.2584804,9.399176,2.7855151409350956572,1.2491747,10.049662,1.5915456,0.22600217,9.416241,2.73014931409350956588,1.2150574,10.946889,1.7016789,0.18560894,9.436604,2.66203711409350956603,0.90620536,11.506534,1.7040731,0.13750498,9.456528,2.59337041409350956605,0.22924481,11.525687,1.5640123,0.080585115,9.472655,2.53628021409350956620,-0.5410896,11.402386,1.6376339,0.011789222,9.483081,2.4982871409350956640,-1.039682,10.871471,1.7351977,-0.066743344,9.48851,2.4767151409350956642,-1.3383588,10.444705,1.714847,-0.15193215,9.492609,2.4571711409350956645,-1.6837224,10.052056,1.5053543,-0.24264498,9.499015,2.42491771409350956651,-2.3014264,9.605537,1.2449849,-0.33860624,9.507862,2.37829331409350956667,-2.6779146,9.246407,1.1300632,-0.4393895,9.516021,2.3286671409350956673,-2.3469162,7.8876977,0.7721301,-0.54023206,9.5211,2.28630471409350956685,-1.9476831,7.4387846,0.670975,-0.63002986,9.523992,2.25101141409350956704,-1.9285295,7.3603745,0.6697779,-0.7113564,9.5262985,2.21675781409350956706,-2.2535424,7.24665,0.7469909,-0.78715545,9.528459,2.18157121409350956720,-2.2457612,7.219715,0.83976626,-0.85937405,9.528336,2.15469031409350956735,-2.1601684,6.83365,0.8619126,-0.9286159,9.524024,2.1449991409350956736,-1.7657237,6.7839704,1.0319009,-0.9975214,9.515776,2.15066241409350956752,-1.2940661,7.5345526,1.1845313,-1.0671812,9.506055,2.16019421409350956752,-1.2922704,8.08462,1.2988545,-1.1387519,9.497891,2.15955641409350956770,-1.1665748,8.284536,1.1354501,-1.2137518,9.492368,2.14292981409350956772,-0.5303157,8.116942,0.80564886,-1.2956424,9.489117,2.10912041409350956784,0.17477672,8.01878,0.6003461,-1.3789369,9.487435,2.06337211409350956800,0.7721301,7.9409685,0.75477207,-1.4562753,9.485351,2.01935651409350956803,1.2599486,7.800309,1.2000936,-1.5261298,9.481449,1.98580561409350956817,1.7250223,7.9182234,1.7944542,-1.5870438,9.471818,1.98402931409350956834,1.9405005,8.161834,2.172738,-1.6365123,9.455711,2.02032971409350956834,1.9440918,8.192958,2.2577322,-1.6754138,9.434588,2.08612781409350956850,1.809418,8.130111,2.1817162,-1.708102,9.410614,2.16636971409350956851,1.5011644,8.116942,1.9351135,-1.7406232,9.385837,2.24648711409350956864,1.1426327,9.282919,1.8926164,-1.7775232,9.362957,2.31210971409350956873,1.2336124,10.193314,2.1877017,-1.8141813,9.344729,2.3569381409350956894,1.228824,10.770316,2.5743654,-1.8444362,9.330304,2.39037421409350956895,1.1976994,10.709863,3.3393128,-1.8710489,9.314839,2.42968231409350956903,0.87807345,10.177153,3.4165258,-1.8987972,9.295374,2.48214081409350956921,0.12330139,9.615712,2.8628666,-1.9341847,9.268608,2.55387021409350956923,-0.3226187,9.036316,2.2122424,-1.9811716,9.236804,2.63188461409350956931,-0.055066638,8.404246,1.917157,-2.034347,9.204329,2.70409941409350956955,0.56682724,8.025364,2.1164744,-2.08407,9.173224,2.77109961409350956956,1.1953052,8.188768,2.815581,-2.1266582,9.143915,2.8348781409350956965,0.9427169,8.921992,3.2968156,-2.1587026,9.120263,2.88637971409350957008,0.20590134,9.811439,3.163339,-2.1828814,9.106163,2.9125981409350957011,0.077811554,10.489596,3.2381577,-2.1994894,9.102561,2.91136341409350957012,0.26396075,10.305243,4.0898952,-2.199186,9.107711,2.89544031409350957013,0.073023155,10.03769,4.27365,-2.174944,9.118398,2.88007571409350957015,0.1604115,10.189722,3.6403837,-2.1394424,9.13208,2.86326931409350957033,0.78529817,10.451887,3.4410665,-2.077948,9.157422,2.82739261409350957034,1.3299791,11.149797,3.084929,-1.9878191,9.193964,2.77308181409350957069,1.3162124,11.954847,1.9165585,-1.8791432,9.239886,2.69512751409350957076,-0.700304,10.403405,0.10354923,-1.7666543,9.294305,2.58170821409350957079,-2.3535004,8.768166,-0.28550854,-1.679923,9.348967,2.43825721409350957105,-3.7696705,7.8116817,-0.030526072,-1.604112,9.401034,2.28424261409350957106,-5.056554,7.8446016,0.83378077,-1.5292714,9.449342,2.13111191409350957108,-6.4362125,9.777321,1.6160861,-1.4545876,9.49115,1.99315421409350957109,-7.0712748,13.898341,1.8782512,-1.3901508,9.524446,1.87691271409350957112,-6.951565,18.480244,1.7830818,-1.332254,9.552989,1.77085651409350957137,-7.018004,19.608511,1.4317327,-1.2703645,9.581576,1.65830211409350957139,-6.8839283,19.346945,1.1115081,-1.200651,9.608793,1.54917181409350957159,-6.178836,15.929222,1.3335704,-1.1275128,9.631988,1.45736441409350957160,-4.506486,12.737153,2.087744,-1.054762,9.646176,1.4174441409350957163,-2.9346926,9.770737,2.955642,-0.9829151,9.6499405,1.44322671409350957186,-2.6922798,8.921394,4.2155905,-0.9121965,9.644944,1.52096571409350957187,-2.4827871,9.79827,5.5288105,-0.84637564,9.633919,1.6253181409350957202,-1.9686323,10.044873,5.629367,-0.7731553,9.621751,1.73047071409350957203,-0.7188591,11.426328,5.1247888,-0.6736602,9.61662,1.79922271409350957216,0.11552023,10.262147,4.123414,-0.5416598,9.621281,1.81877611409350957234,0.34476504,8.381501,3.027468,-0.4040611,9.629613,1.81043611409350957235,0.7793127,7.521983,1.3742718,-0.27945095,9.640402,1.77622531409350957251,1.134253,8.003218,1.2192472,-0.16934547,9.65067,1.73386551409350957252,1.1941081,7.764396,1.1821371,-0.06397385,9.657754,1.70121421409350957265,1.3634979,7.6201453,1.3120226,0.034629006,9.66107,1.68312321409350957283,1.3814543,7.526173,1.4999673,0.12124438,9.660805,1.68064491409350957284,1.1336545,7.2149267,1.7190368,0.19457601,9.656944,1.69586871409350957299,0.74639237,6.71394,1.7579426,0.25620723,9.649013,1.73243181409350957313,0.6715736,6.2123547,1.7076644,0.306795,9.637101,1.7895641409350957314,0.8122329,5.8634,1.7220296,0.3503913,9.621407,1.86445011409350957329,1.0223241,5.563526,1.7022774,0.3908672,9.602807,1.95030941409350957332,1.0815806,5.185841,1.7130513,0.4304642,9.582709,2.03881931409350957347,1.0061632,5.043386,1.8249803,0.4674442,9.561735,2.12723951409350957352,0.83258367,5.1116204,1.9806033,0.5005373,9.541243,2.21010471409350957364,0.7302315,5.2444987,1.9255368,0.5286904,9.522905,2.2814761409350957380,0.87208796,5.4180784,1.7118542,0.5508416,9.508609,2.33523681409350957383,1.115698,5.6425347,1.6753427,0.56590617,9.499974,2.3665651409350957404,1.3084313,5.7885814,1.8950106,0.57221097,9.497062,2.37672331409350957406,1.5191209,5.954978,2.1230583,0.5676439,9.498752,2.3710531409350957412,1.774702,6.2345014,2.3690627,0.5499053,9.503988,2.3541911409350957438,2.1865046,7.472902,3.3135753,0.516975,9.512156,2.32852531409350957439,2.295441,8.602366,4.036624,0.47103932,9.521774,2.29876921409350957444,2.332551,9.977836,4.325125,0.42097792,9.530948,2.27028661409350957452,2.2732944,11.101913,3.9600096,0.36176354,9.541166,2.2373361409350957472,2.0207062,10.758944,3.6631286,0.30102542,9.552795,2.19633751409350957474,1.5071499,10.146626,3.8708255,0.24480157,9.563899,2.15460161409350957486,0.23104046,13.127408,4.7734394,0.198526,9.571961,2.1233321409350957514,-0.46986207,15.820287,4.6525326,0.15228052,9.574863,2.11404851409350957516,0.14065935,15.796943,2.8981812,0.10682605,9.573282,2.12397361409350957518,1.513734,13.983933,1.7124528,0.095642395,9.573059,2.12550571409350957547,2.669535,12.087128,2.6479871,0.13052797,9.57213,2.12783271409350957548,3.1920695,10.89661,5.6700683,0.19488545,9.560472,2.17481541409350957550,2.0219033,11.664551,8.428188,0.2929542,9.535183,2.2726341409350957553,0.9600749,15.972318,5.756858,0.40610996,9.493111,2.4261741409350957565,0.28431144,18.959682,3.517681,0.54118985,9.460442,2.52538181409350957586,-0.24001873,16.184803,5.021838,0.68556774,9.444979,2.54808711409350957587,-1.5682021,13.074137,5.099051,0.8098584,9.42274,2.59355471409350957592,-3.1292217,11.157578,2.7162218,0.8756035,9.390715,2.6866721409350957619,-3.9055414,9.390657,1.982399,0.87765104,9.356757,2.80200341409350957621,-3.6804867,8.986037,1.5981296,0.8295052,9.327739,2.91128851409350957624,-3.822343,9.10455,1.0773908,0.7485868,9.315384,2.97214721409350957632,-3.472191,8.902241,1.2976574,0.65200084,9.32342,2.96970081409350957659,-2.8365304,9.024943,1.2545617,0.5606222,9.342431,2.92832371409350957661,-2.4199393,9.105149,0.89303726,0.4825948,9.362521,2.87761881409350957667,-1.541866,8.867524,0.93254155,0.41576692,9.380622,2.8286851409350957688,-0.3585317,8.288128,0.9247604,0.3626724,9.393999,2.79135351409350957690,0.49679685,8.009802,0.81642276,0.3141242,9.406445,2.75509021409350957693,1.021127,8.746018,1.1127052,0.262238,9.421538,2.70855121409350957717,1.1959038,9.800665,1.7585411,0.20722719,9.439042,2.65177771409350957722,1.0031705,10.441712,2.2290018,0.15268545,9.456399,2.59298941409350957742,0.47884035,10.400413,2.3116016,0.09991788,9.471136,2.54125571409350957746,0.08439561,10.14124,2.3002293,0.045255292,9.482535,2.49996921409350957749,-0.023942016,9.94312,2.4253263,-0.014153614,9.4917345,2.46519061409350957753,-0.23283611,9.900024,2.4169466,-0.07926658,9.500698,2.42916441409350957774,-0.8822633,9.879673,2.1505916,-0.14934798,9.509751,2.39012891409350957775,-1.4335283,9.7641535,1.8668787,-0.22727819,9.51941,2.34511421409350957806,-1.757344,9.345168,1.4185646,-0.31267187,9.527339,2.30270481409350957811,-1.7567455,8.77834,0.79966336,-0.40197352,9.532793,2.2659851409350957815,-1.3569138,7.964312,0.45370123,-0.4882868,9.537428,2.22922641409350957817,-1.4562732,8.088212,0.7074866,-0.5657786,9.541865,2.19160181409350957853,-1.4760253,8.2169,0.9888053,-0.63667905,9.544161,2.16194771409350957855,-1.3413515,8.030751,1.2491747,-0.7028109,9.541505,2.1531711409350957857,-1.1025299,7.8829093,1.4305356,-0.7681607,9.532373,2.17121651409350957859,-0.82121116,8.121731,1.5945383,-0.83871925,9.518546,2.20550471409350957865,-0.65900403,8.391078,1.7046716,-0.9154124,9.503244,2.24070331409350957890,-0.6123171,8.983045,1.6226702,-0.99404055,9.489723,2.2643841409350957893,-0.3609259,8.881889,1.2455834,-1.0764272,9.481072,2.26295781409350957894,0.12808979,8.549694,1.0444705,-1.1601342,9.47764,2.23580621409350957919,0.7098808,8.251018,1.4137762,-1.2415882,9.476551,2.196321409350957921,1.2545617,8.210915,1.8890251,-1.3165833,9.473544,2.16540121409350957924,1.6166847,8.160038,2.2062569,-1.3803854,9.466351,2.15711741409350957933,1.7675194,8.298303,2.3062148,-1.4342757,9.454525,2.17375561409350957955,1.7812861,8.379107,2.172738,-1.4799349,9.43894,2.21056771409350957957,1.5987282,8.181585,1.9680338,-1.5209062,9.420001,2.26292041409350957967,1.4041992,7.903858,1.8046296,-1.5636965,9.397884,2.32487151409350957990,1.4646529,7.9505453,1.7136499,-1.6116406,9.374323,2.3864371409350957993,1.5269021,8.218098,1.6095021,-1.6601541,9.351373,2.44255921409350957995,1.4012065,9.032724,2.0141222,-1.7081784,9.330888,2.48738341409350958022,1.3072342,9.255385,2.6916811,-1.7531257,9.311745,2.52752071409350958031,1.1073183,9.328408,2.9071593,-1.7975906,9.290208,2.57508851409350958038,0.45130703,9.409213,2.944868,-1.8447093,9.264692,2.63304331409350958041,-0.22266077,9.2865095,2.9873652,-1.9003938,9.234251,2.69954181409350958066,-0.3693056,9.03452,2.5187001,-1.962225,9.200821,2.76857041409350958067,-0.13706805,8.728661,1.9369092,-2.0232666,9.168012,2.83272811409350958068,0.21068975,8.683769,2.0775685,-2.0790062,9.138544,2.88706181409350958088,0.62129533,9.02614,2.8927941,-2.1265624,9.11344,2.93144271409350958091,0.17896658,10.004171,3.1519666,-2.1660504,9.090649,2.97300171409350958095,-0.4770447,11.090541,2.9783869,-2.1960075,9.075102,2.99841021409350958133,-0.22984336,11.510124,3.4524388,-2.2180862,9.0681505,3.00318651409350958138,-0.14724341,10.960057,4.414908,-2.2249777,9.067341,3.00053221409350958140,-0.36870706,10.260351,4.3837833,-2.218241,9.068386,3.00235821409350958142,-0.3716998,9.64145,3.7056258,-2.1957965,9.075148,2.99842791409350958166,-0.1592144,9.454104,3.6254199,-2.150427,9.093701,2.9750021409350958169,0.13227965,10.026319,3.425504,-2.0859675,9.12349,2.92934781409350958173,-0.014963761,10.659584,2.3469162,-2.0133781,9.162479,2.85756281409350958193,-2.0614076,10.655993,-0.023942016,-1.9426312,9.2106285,2.74970911409350958195,-3.5033157,8.647258,-0.350152,-1.8959707,9.261975,2.60604721409350958196,-4.450821,7.7865424,-0.33399114,-1.8554311,9.311169,2.45558481409350958216,-5.3683987,7.841609,0.2657564,-1.8124199,9.359065,2.30074671409350958218,-6.3260794,9.862914,0.8499416,-1.7623315,9.405656,2.14434431409350958238,-6.615778,13.339294,1.2539631,-1.7092302,9.449302,1.98988031409350958239,-6.27221,16.924612,1.1336545,-1.6470577,9.489911,1.84368611409350958244,-6.0746884,19.214666,1.027711,-1.5643588,9.529229,1.70790871409350958263,-5.773019,18.912397,1.3976152,-1.4642686,9.565655,1.58889011409350958265,-5.2199583,15.908872,2.0733786,-1.3590046,9.593505,1.51266031409350958280,-3.8265328,12.89517,2.6611552,-1.2599607,9.608016,1.50629191409350958298,-2.3229742,10.080188,3.4081461,-1.1625581,9.611106,1.56380881409350958299,-1.7926586,8.6813755,4.1078515,-1.0563253,9.609094,1.64920461409350958315,-1.5310919,9.651027,5.127183,-0.95418185,9.600219,1.75946581409350958316,-1.1623849,10.254965,5.37199,-0.85119796,9.588544,1.87235051409350958331,-0.5177461,10.619482,4.7441106,-0.7382061,9.581655,1.95380251409350958333,0.0688333,10.728417,3.678691,-0.609169,9.585113,1.98113991409350958346,-0.16819267,9.111733,2.693477,-0.47290686,9.596933,1.96103181409350958360,0.14305355,8.048109,1.4879963,-0.3556264,9.610605,1.91838341409350958364,0.7667431,8.19236,1.0899603,-0.25868732,9.6228,1.87222241409350958379,0.7565677,8.330027,1.412579,-0.16606055,9.631303,1.83870481409350958396,0.6135142,8.104971,1.532289,-0.07924992,9.634841,1.82591431409350958397,0.50637364,7.826047,1.4586674,-0.001475772,9.633942,1.83236741409350958411,0.34237084,7.378331,1.4718355,0.07068185,9.630828,1.84731251409350958413,0.25378537,6.7444663,1.6962919,0.13360988,9.623886,1.87972551409350958430,0.33997664,6.269217,1.95307,0.18752573,9.612535,1.9324581409350958433,0.60214174,5.8622026,2.1164744,0.23343597,9.596703,2.00479271409350958447,0.82121116,5.593454,2.1697452,0.27492994,9.577611,2.08906671409350958462,0.90381116,5.4432178,2.079364,0.3130724,9.5570965,2.17584061409350958464,0.9235633,5.5647235,2.0644004,0.34670722,9.53747,2.25540521409350958475,0.8738836,5.734113,2.11827,0.37527,9.519852,2.32421331409350958493,0.760159,5.8663926,2.1254525,0.39860034,9.50472,2.3815561409350958493,0.7733272,5.896919,2.0308816,0.41712627,9.492653,2.42609861409350958508,1.0342951,5.801749,1.9093759,0.43410823,9.482472,2.46265551409350958513,1.4041992,5.801749,1.982399,0.44434938,9.476606,2.48331741409350958527,1.7393875,5.865794,2.1649568,0.44672796,9.475258,2.48803261409350958533,2.0123265,6.0148335,2.3427265,0.43764207,9.477905,2.4795491409350958546,2.1206641,6.39192,2.5965118,0.4150425,9.483935,2.46030191409350958575,2.231396,8.166622,3.4859576,0.3775389,9.492995,2.43122941409350958577,2.3355439,9.607333,3.9264908,0.32782164,9.503678,2.39646271409350958578,2.3810337,10.839149,4.0162735,0.27006373,9.515559,2.35618661409350958608,2.1559787,11.410766,3.9564183,0.21120822,9.527497,2.3135671409350958609,1.4802152,11.024101,4.220379,0.15608196,9.538043,2.27414731409350958610,0.29388827,12.499529,4.832696,0.10745836,9.544764,2.24863361409350958613,-1.2072762,15.283386,4.8039656,0.055239074,9.548239,2.2357351409350958631,-1.435324,15.362994,2.5683799,-0.004160773,9.5471735,2.24094941409350958633,-0.31423897,13.548189,0.3824737,-0.049575493,9.546872,2.24169181409350958647,1.6609775,12.136209,0.65900403,-0.05442995,9.548794,2.23336941409350958661,2.9137435,10.794258,3.0220811,-0.014044162,9.546656,2.24311921409350958664,2.4660277,10.41358,6.9000893,0.06309826,9.531814,2.30455061409350958681,2.1206641,13.198037,7.2328835,0.17384383,9.5004635,2.42514971409350958700,1.6867151,17.913418,5.3941364,0.32253274,9.467367,2.5367971409350958701,-0.007182605,18.43715,4.7058034,0.49447775,9.447933,2.5811741409350958704,-1.2282255,15.771205,4.7560816,0.6361371,9.437314,2.58898021409350958713,-2.2720973,13.096882,3.3794158,0.72472644,9.425641,2.60815431409350958729,-3.0945058,11.106702,1.3982137,0.77650714,9.406287,2.66255741409350958752,-3.2585084,9.680356,1.5340848,0.77540284,9.3813095,2.74957471409350958754,-3.2692823,8.146272,2.0524294,0.7339956,9.359187,2.83500481409350958755,-3.3919852,7.7572136,2.2541409,0.6669265,9.347905,2.88829571409350958765,-2.9694088,7.8248496,2.397793,0.5849618,9.349737,2.90010791409350958788,-2.6868927,8.616732,2.0177135,0.50845206,9.358876,2.88501361409350958789,-1.7645266,9.46847,1.4742297,0.4454493,9.369324,2.8614231409350958795,-0.3764882,9.624092,0.9020155,0.39725,9.379126,2.83630131409350958814,0.83018947,9.554661,0.61052144,0.357347,9.390589,2.80348161409350958815,1.3126211,9.463082,0.61770403,0.3151767,9.405599,2.75785681409350958832,0.9923966,9.750985,1.2018893,0.26612595,9.4218445,2.70710281409350958833,0.4914099,10.144831,1.6645688,0.20115094,9.43976,2.64969281409350958845,-0.045489833,9.798869,1.7471687,0.11870646,9.456147,2.59568241409350958861,-0.6584055,8.790312,1.8100165,0.024422495,9.466813,2.55915261409350958877,-0.9995792,8.061277,2.166154,-0.075984634,9.47012,2.5458711409350958878,-1.192911,7.880515,2.3959973,-0.17962503,9.469753,2.542031409350958896,-1.5125369,7.8607626,2.3247697,-0.28237084,9.472153,2.52368781409350958896,-1.9710265,7.745841,1.8740613,-0.38121948,9.479439,2.48300341409350958909,-2.2164323,7.7727757,1.4544775,-0.4749391,9.48949,2.42784021409350958913,-2.131438,7.626131,1.1905168,-0.5616276,9.499421,2.36980251409350958928,-1.9829975,7.433398,0.82899237,-0.6396131,9.5083275,2.31364631409350958943,-1.7675194,7.8248496,0.85173726,-0.71210957,9.517044,2.25592141409350958945,-2.067393,8.588001,1.1115081,-0.77683866,9.5261755,2.1952031409350958958,-2.3864205,9.153033,1.1312603,-0.83438456,9.533735,2.14058181409350958965,-2.1092918,9.264363,0.8846575,-0.8865119,9.536245,2.10819821409350958977,-1.7633295,8.6496525,0.4973954,-0.93608403,9.532352,2.10437751409350958998,-1.4460979,8.2115135,0.39923313,-0.98963356,9.524883,2.11367681409350959000,-1.0726024,8.804677,0.65182143,-1.0538294,9.518007,2.113621409350959019,-0.6919243,9.512163,1.1115081,-1.1305013,9.514004,2.0919041409350959020,0.030526072,9.83957,1.0773908,-1.2112509,9.512563,2.05290061409350959025,0.91458505,9.395446,0.88405895,-1.2849236,9.513426,2.00351951409350959051,1.4993688,9.00579,1.0636241,-1.3492513,9.514715,1.95450681409350959052,1.7447745,8.941146,1.5819688,-1.4071451,9.513301,1.92026961409350959053,1.6837224,8.870518,2.054225,-1.4592893,9.504925,1.92283391409350959065,1.4706384,8.802881,2.2254105,-1.5050884,9.48749,1.97297761409350959079,1.2779051,8.630499,2.2499511,-1.547805,9.462423,2.05845881409350959094,1.2078748,8.508394,2.098518,-1.5918341,9.433456,2.15554671409350959099,1.2366052,8.746617,1.8303672,-1.6391516,9.405092,2.24227621409350959120,1.3263878,9.239823,1.5891514,-1.6870439,9.381371,2.30524971409350959121,1.1336545,9.759963,1.827973,-1.7309847,9.36287,2.34750081409350959125,0.8170213,10.089166,2.3343468,-1.769204,9.345491,2.38790941409350959154,0.5279215,9.906608,2.8054059,-1.8038068,9.324177,2.44467521409350959156,0.13706805,9.276933,2.5761611,-1.8395835,9.29864,2.5142791409350959157,-0.20829555,8.453327,2.349909,-1.8826457,9.266347,2.60016731409350959185,0.09995792,7.8487916,1.9829975,-1.9359009,9.229139,2.69178131409350959186,0.7613561,7.492056,1.7579426,-1.9929299,9.191743,2.7767761409350959188,1.3850456,7.5572977,2.2457612,-2.0465088,9.157413,2.85026381409350959193,1.7776948,8.230667,3.2662897,-2.0892682,9.127968,2.91299941409350959217,0.8655039,9.399037,3.6996403,-2.1153839,9.105817,2.9630461409350959218,-0.25737667,10.580576,3.3650506,-2.134183,9.091175,2.99435951409350959228,-0.427365,11.253945,3.3249476,-2.1480117,9.083803,3.00681851409350959256,-0.35793316,10.898406,4.1018662,-2.1480908,9.082283,3.01134631409350959258,-0.54527944,10.192117,4.155137,-2.1312478,9.083836,3.01862551409350959259,-0.52492875,9.631873,3.4979286,-2.1083388,9.087714,3.02303981409350959285,-0.31364042,9.598953,3.3249476,-2.064156,9.103062,3.00731021409350959287,-0.01616086,9.968858,3.233968,-1.9992326,9.130683,2.96716881409350959290,-0.44951138,9.935339,2.2499511,-1.9215877,9.169015,2.89949231409350959296,-1.5149311,9.474455,0.92655605,-1.8457047,9.216566,2.7961921409350959312,-4.0497923,7.247847,-0.1352724,-1.7798587,9.269453,2.66077351409350959314,-4.8297033,6.8468184,0.18974048,-1.7280052,9.322034,2.5068041409350959330,-5.723339,7.881712,0.7553706,-1.6692932,9.374724,2.34486341409350959346,-6.39611,10.580576,1.2378023,-1.6050067,9.425056,2.18235281409350959347,-6.229713,14.5884695,1.6729485,-1.5335714,9.471222,2.02842261409350959361,-5.9064956,18.713678,1.9405005,-1.4410714,9.516225,1.88020061409350959378,-5.9825115,19.608511,2.408567,-1.3315527,9.558138,1.74337741409350959379,-5.6227827,19.193117,2.6384103,-1.2099379,9.594259,1.62991191409350959394,-4.4879313,15.898696,2.9652188,-1.086752,9.6219425,1.55164671409350959395,-2.731784,12.542026,3.3446999,-0.9687559,9.637227,1.53484811409350959412,-1.4520833,10.010158,3.9360676,-0.85895085,9.640393,1.57969441409350959414,-1.2629414,9.752781,4.5938745,-0.7591723,9.6349745,1.66172041409350959430,-1.0516531,10.4010105,5.5922565,-0.66674376,9.6259365,1.75133811409350959444,-0.60333884,11.7387705,5.686229,-0.57058674,9.617499,1.82990131409350959445,-0.0676362,11.679515,4.577115,-0.45720756,9.615702,1.87072611409350959458,-0.14425065,9.835979,3.6990416,-0.3304769,9.623306,1.85826531409350959476,-0.004189853,8.549096,2.3391352,-0.21425289,9.633216,1.8236371409350959477,0.08379706,7.9625163,1.4622587,-0.11439853,9.645036,1.76935121409350959494,0.3776853,8.282143,1.3383588,-0.031797115,9.655186,1.7166111409350959495,0.7326257,8.556877,1.4562732,0.045273505,9.661911,1.67804191409350959510,0.8607155,8.249821,1.3850456,0.12147315,9.664553,1.65893981409350959515,0.7799112,7.760206,1.3150153,0.19212884,9.663634,1.65760591409350959526,0.61530983,7.0425444,1.4718355,0.25331295,9.659037,1.67608441409350959544,0.59855044,6.4416,1.6897079,0.30549353,9.649611,1.72106621409350959545,0.7763199,5.871181,1.87047,0.35035312,9.635084,1.79243531409350959561,0.9540894,5.306748,1.9333179,0.39033467,9.616153,1.88352011409350959574,1.0546459,4.9996915,1.8962077,0.4255315,9.594616,1.98309581409350959575,1.1593921,4.8279076,1.9009962,0.45687643,9.571978,2.0830041409350959590,1.2779051,4.8386817,2.018312,0.48186553,9.5498295,2.17692041409350959594,1.1905168,4.970961,2.0895395,0.50164515,9.529274,2.26090671409350959608,1.0953473,5.0691237,1.9494787,0.5159514,9.511283,2.33231141409350959617,1.151611,5.056554,1.7513585,0.52402276,9.497078,2.38773871409350959652,1.2533646,4.984728,1.8369513,0.5251314,9.487967,2.42345071409350959654,1.3748703,5.079299,2.0201077,0.5179287,9.48395,2.44066881409350959656,1.3862427,5.295376,2.1440077,0.5002599,9.484546,2.44203831409350959657,1.3575124,5.6616883,2.4145525,0.46903235,9.489626,2.42845341409350959685,1.4425066,6.3925185,3.132813,0.42448872,9.498186,2.40305661409350959686,1.5586253,7.427412,4.1036615,0.37059683,9.507217,2.37610361409350959688,1.3700819,10.781689,4.755483,0.31562793,9.516331,2.3473881409350959694,1.0205284,11.647791,3.9612067,0.25955036,9.526105,2.3143841409350959718,0.6410475,11.436503,3.5296519,0.2069342,9.538999,2.26606631409350959719,-0.30645782,13.575722,4.232949,0.1655258,9.5518875,2.21459671409350959726,-1.2569559,16.692375,4.36044,0.12962854,9.561618,2.17463781409350959748,-1.0456676,16.807297,1.8968062,0.09011194,9.568379,2.14671921409350959749,0.44232875,15.237298,0.39384618,0.071871646,9.577532,2.10620261409350959754,2.1481974,13.664308,1.1647792,0.09644889,9.585678,2.06782171409350959778,3.1196449,12.427104,3.7726634,0.15808892,9.583803,2.0727041409350959779,2.6611552,12.703035,6.2021794,0.25508082,9.564459,2.1509251409350959797,2.5552118,15.696386,5.1702785,0.37319735,9.533238,2.26902221409350959798,1.5735891,17.758392,5.1355624,0.5309319,9.501173,2.36985231409350959806,-0.25019407,16.296732,6.1225724,0.70461106,9.474772,2.4295291409350959831,-1.9117701,14.48073,5.448006,0.8482546,9.450878,2.47624161409350959832,-2.9789855,12.13142,2.6527755,0.9297227,9.42712,2.5368111409350959834,-3.0639796,9.231443,1.7160441,0.9479558,9.399236,2.63175321409350959846,-2.6318262,7.792528,2.541445,0.9224397,9.3667,2.75398541409350959869,-2.6001031,7.2191167,2.498948,0.8668475,9.341139,2.85693741409350959871,-2.7497406,7.1622543,2.5677812,0.7911644,9.334711,2.89958931409350959875,-2.046444,8.377911,2.4319103,0.708423,9.34608,2.88432621409350959901,-1.5795746,8.986636,1.797447,0.6367821,9.364927,2.83955241409350959902,-0.9068039,9.026739,1.1378443,0.57878685,9.3843565,2.78734181409350959906,0.023942016,8.756793,0.6362591,0.5316238,9.401543,2.73838931409350959928,0.7757214,8.810662,0.40162733,0.48944458,9.418163,2.68869141409350959929,0.92416185,9.318831,0.557849,0.44117287,9.436841,2.63092831409350959945,0.7128736,10.377667,1.033098,0.3796265,9.458083,2.56338571409350959960,0.338181,11.0139265,1.3533225,0.3028427,9.480531,2.4896211409350959961,-0.3489549,10.476428,1.4036007,0.21527678,9.5002165,2.42279481409350959974,-1.033098,9.626487,1.6160861,0.122734256,9.511944,2.382911409350959975,-1.3132197,9.11293,1.9788077,0.025408436,9.515257,2.3726851409350959990,-1.38325,8.868722,2.160767,-0.07537337,9.51505,2.3724541409350959994,-1.5867572,8.600571,1.9829975,-0.17814781,9.514607,2.3687371409350960010,-1.8830396,8.231265,1.5753847,-0.27852163,9.517409,2.34770541409350960026,-1.9021933,8.003817,1.258153,-0.37477806,9.52262,2.3129351409350960027,-1.7184383,7.5968018,1.1031284,-0.4619418,9.528343,2.27325251409350960042,-1.7142484,7.2747817,0.8319851,-0.54017454,9.533844,2.23257661409350960046,-1.7932571,7.422025,0.7721301,-0.61256695,9.539303,2.19016961409350960060,-1.9901801,7.855376,0.9498995,-0.6781398,9.543551,2.15201381409350960074,-1.7591397,8.561666,0.7637503,-0.7374983,9.543885,2.1309091409350960075,-1.6825253,7.9421654,0.57161564,-0.7926691,9.539367,2.13131761409350960091,-1.292869,7.9278,0.54647654,-0.85028225,9.530775,2.14749261409350960094,-0.9271546,8.32404,0.6596026,-0.91496384,9.521824,2.160581409350960114,-0.7398083,9.033323,1.1228806,-0.98200846,9.514039,2.1654381409350960115,-0.05207389,9.057265,1.1378443,-1.054212,9.509786,2.15011481409350960129,0.81163436,8.970475,1.0444705,-1.1238862,9.509072,2.11773441409350960151,1.3820529,8.736442,0.9995792,-1.1882722,9.510393,2.07624461409350960153,1.6819267,8.695142,1.2779051,-1.2479751,9.510729,2.03936241409350960155,1.7705121,8.862138,1.8136078,-1.3022357,9.505603,2.02930571409350960183,1.5849615,8.868123,2.2409728,-1.3472834,9.4922085,2.06233121409350960184,1.4257472,8.74961,2.3828292,-1.3861136,9.470769,2.13391951409350960190,1.3186066,8.565256,2.1242554,-1.4248762,9.444991,2.22086641409350960194,1.2731167,8.607754,1.7513585,-1.4690814,9.419132,2.30046491409350960207,1.3652935,9.118916,1.5394717,-1.5177963,9.396896,2.35902861409350960224,1.5269021,9.779117,1.714847,-1.5660788,9.377463,2.40436841409350960226,1.6849195,10.263943,2.1098902,-1.6066277,9.362136,2.43712431409350960248,1.8052281,10.386047,2.7988217,-1.6385187,9.347234,2.47282581409350960250,0.8595184,9.924564,3.4045548,-1.6624426,9.32821,2.52808071409350960255,0.038905777,9.4535055,3.2136173,-1.69291,9.300801,2.60759261409350960279,-0.20410569,8.941146,2.4378958,-1.7310393,9.268125,2.69736051409350960281,0.272939,8.492233,1.922544,-1.7722034,9.234977,2.7829691409350960286,1.0241197,8.202535,2.4420857,-1.8095322,9.204514,2.85882881409350960295,1.46585,8.574235,3.1609447,-1.8400921,9.177548,2.92524461409350960316,0.9528923,9.537302,3.2225955,-1.8633139,9.157322,2.97353961409350960319,0.35314476,10.308834,2.9724014,-1.8839664,9.142236,3.00675851409350960328,0.45968673,10.7356,3.3865983,-1.9039239,9.135271,3.0153441409350960353,0.57281274,10.47164,4.2293572,-1.9103922,9.134487,3.01362371409350960355,0.6183026,10.067019,4.1946416,-1.8989064,9.137526,3.01167541409350960357,0.98461545,9.490017,3.6780925,-1.8660697,9.147202,3.00281241409350960379,1.2653356,9.007586,3.6457705,-1.8063427,9.166032,2.98184081409350960381,1.1288661,9.28232,3.3051953,-1.7276514,9.192039,2.94822381409350960387,0.5093664,9.913192,2.1416135,-1.6456373,9.224793,2.89231131409350960395,-0.51954174,9.950901,0.86370826,-1.5705332,9.266429,2.7994841409350960415,-1.8483237,8.987833,0.14844051,-1.5050188,9.31474,2.67225051409350960416,-3.2243912,7.8302364,-0.1933318,-1.4448395,9.364728,2.52679941409350960427,-4.3526587,7.465121,-0.24361002,-1.3889252,9.412133,2.37761071409350960441,-6.558317,10.724228,1.2533646,-1.3284516,9.458739,2.22213241409350960458,-6.7480574,15.148713,1.5771804,-1.2821333,9.499652,2.06957221409350960459,-6.785766,19.193117,1.2922704,-1.2301259,9.53857,1.91647431409350960476,-7.3286514,19.608511,1.1605892,-1.1661454,9.576756,1.75961031409350960478,-7.249643,19.091963,1.3748703,-1.096606,9.609397,1.62090091409350960497,-6.3111157,15.330672,1.9033904,-1.0265,9.633473,1.52080971409350960499,-4.5142674,11.801619,2.4540567,-0.95494616,9.644951,1.49445591409350960508,-2.9203274,8.375516,2.8006175,-0.88363504,9.644398,1.54114871409350960539,-2.496554,8.614936,4.1916485,-0.81432253,9.635919,1.6298261409350960542,-2.1428106,9.251794,5.0840874,-0.749501,9.6230345,1.73373761409350960543,-1.1569979,10.773908,5.6377463,-0.6812258,9.609756,1.83273571409350960570,0.30466217,12.549209,5.145139,-0.5892739,9.60263,1.90070091409350960572,0.81642276,10.6158905,3.90614,-0.45803085,9.606604,1.91670931409350960574,0.6326678,8.384495,2.597709,-0.31855634,9.6185665,1.88470031409350960575,1.0773908,7.638102,1.3982137,-0.20985973,9.632451,1.82818461409350960602,1.4203602,7.6728177,1.2443863,-0.1265286,9.644529,1.7712891409350960603,1.5969325,7.8703394,1.3868413,-0.048828695,9.652131,1.73330741409350960608,1.6819267,7.7410526,1.3994108,0.027095804,9.655042,1.71750071409350960636,1.4598645,7.402273,1.3605051,0.097742,9.65434,1.7188821409350960637,0.95468795,6.8144965,1.5526398,0.1574341,9.6503525,1.7367591409350960639,0.7098808,6.1728506,1.6843209,0.20831461,9.644064,1.76607041409350960663,0.736217,5.605425,1.8489223,0.25278547,9.633539,1.81697991409350960665,0.98341835,5.321113,1.9853917,0.2934363,9.618715,1.8880181409350960676,1.2030864,5.2289367,1.8920178,0.33149704,9.600552,1.9722811409350960684,1.2916719,5.2720323,1.8489223,0.36834842,9.580804,2.059831409350960706,1.2431892,5.366603,1.8166006,0.40344176,9.561168,2.14282631409350960707,1.0899603,5.4408236,1.7154455,0.4338387,9.542837,2.21730421409350960709,1.0085574,5.366603,1.541866,0.4575915,9.527035,2.27960731409350960727,1.0654198,5.2444987,1.4215573,0.47391528,9.515373,2.32453661409350960729,1.2036849,5.1541176,1.5867572,0.48066568,9.508839,2.34975771409350960735,1.388637,5.2181625,1.8908207,0.4759997,9.507316,2.35686061409350960760,1.5382746,5.544971,2.2816741,0.46685815,9.507918,2.35625221409350960762,1.5969325,6.167464,2.695871,0.44392595,9.512678,2.34143041409350960767,1.6478093,7.1059904,3.1411927,0.4083231,9.52098,2.31400591409350960775,1.8309658,8.506598,3.6822822,0.36301678,9.532024,2.27577111409350960797,1.9578584,10.229227,4.1653123,0.31508622,9.544421,2.2305071409350960798,1.9369092,11.71842,4.423288,0.27214536,9.55693,2.18207451409350960806,1.4101849,12.287044,4.537012,0.24078853,9.568837,2.1330181409350960825,-0.7284359,15.267824,5.2145715,0.21766163,9.5795355,2.08698821409350960827,-1.6741456,17.025167,3.934272,0.17543899,9.5867405,2.05766921409350960841,-0.9331401,16.613365,1.0115502,0.12348186,9.592744,2.03332261409350960857,0.6967127,14.576498,-0.27114335,0.10205723,9.603053,1.9852831409350960858,2.0530279,12.576741,0.88765025,0.11170104,9.610684,1.94747671409350960876,2.9460652,11.358691,3.9294837,0.15798897,9.610196,1.94668881409350960878,2.7682958,11.703457,5.959168,0.23168278,9.596358,2.00664261409350960893,2.813187,14.582484,5.374983,0.33804992,9.571669,2.10696171409350960906,1.9267339,16.400282,4.718373,0.48658365,9.547229,2.1872531409350960909,0.009576807,15.249867,4.9458222,0.6435339,9.529819,2.22234231409350960923,-1.5682021,12.858659,5.225345,0.75942224,9.517149,2.23998671409350960936,-2.8101943,10.623073,3.779846,0.8128679,9.500327,2.29203531409350960937,-3.1352072,9.611523,2.517503,0.8137486,9.47566,2.39166671409350960954,-2.9484594,9.660006,2.303222,0.7802378,9.450268,2.50081441409350960955,-2.6354175,9.833585,1.4742297,0.73042935,9.428024,2.59792281409350960970,-2.7455509,9.7641535,1.0420763,0.6590491,9.420072,2.64542981409350960975,-2.6126726,9.383475,1.417966,0.5721692,9.426787,2.64172051409350960987,-2.3906105,9.123704,1.0348936,0.48699605,9.438534,2.61673861409350961011,-2.2559366,8.747216,0.6278794,0.41304544,9.44815,2.59466121409350961013,-0.7092823,7.581838,0.8996213,0.34765515,9.453978,2.58298661409350961016,0.33159694,7.2807674,1.0582372,0.2928182,9.45751,2.57685021409350961048,0.62249243,7.479486,1.3377602,0.23675281,9.46361,2.56016681409350961049,0.4985925,8.249222,1.8980033,0.17298006,9.473131,2.52987381409350961050,0.30825347,9.257779,2.2816741,0.100443,9.483816,2.4935011409350961055,-0.023343466,9.562442,2.2732944,0.021698914,9.492718,2.4613481409350961074,-0.7505822,9.094974,1.9476831,-0.06063925,9.499336,2.43502711409350961075,-1.311424,8.854955,1.7717092,-0.14763613,9.501733,2.42191151409350961092,-1.6178818,8.855554,1.5891514,-0.23785,9.503112,2.40929341409350961104,-1.8171991,8.817246,1.1623849,-0.32952517,9.508902,2.37541221409350961107,-2.0308816,8.696938,0.75477207,-0.42156655,9.52014,2.31508421409350961120,-2.1667526,8.86513,0.6572084,-0.5134705,9.533547,2.240141409350961139,-1.9075803,9.117719,0.76554596,-0.598781,9.5462675,2.16347981409350961140,-1.7890673,9.412206,0.6584055,-0.6704127,9.55754,2.09149841409350961154,-1.8393455,9.658808,0.7823054,-0.7313733,9.566549,2.0289421409350961155,-2.0817583,10.13705,0.943914,-0.78534526,9.570691,1.98884981409350961170,-1.9662381,9.904214,0.7739257,-0.83446085,9.571456,1.96502291409350961175,-1.8543092,9.10455,0.44232875,-0.8797344,9.565708,1.97324841409350961187,-1.6160861,8.252813,0.635062,-0.92733943,9.555437,2.00101181409350961211,-0.6404489,8.819042,1.1737574,-0.98371863,9.543272,2.03191041409350961212,-0.2753332,9.303867,1.311424,-1.0429323,9.5332775,2.0492181409350961216,0.23822308,8.963891,1.0737995,-1.1040206,9.526829,2.04720621409350961244,0.74519527,8.599374,0.95827925,-1.1659402,9.522806,2.03153561409350961245,1.0121487,8.334815,1.0785879,-1.2321371,9.519295,2.0087931409350961247,1.2300211,8.292916,1.6077064,-1.301014,9.514242,1.98921741409350961255,1.3814543,8.262989,2.1272483,-1.3667806,9.503829,1.99487971409350961274,1.3215994,8.140884,2.3469162,-1.4251958,9.485691,2.03982071409350961276,1.0552444,7.8050976,2.2110453,-1.4811642,9.463077,2.10397671409350961288,0.7906851,7.6710224,1.9524715,-1.5366151,9.434042,2.192731409350961310,0.61650693,7.7667904,1.6130934,-1.5956094,9.401248,2.28931161409350961312,0.6452374,8.201937,1.2916719,-1.657776,9.369314,2.374481409350961316,0.9403227,8.74542,1.2366052,-1.7180223,9.342642,2.43594721409350961351,1.3838485,9.293693,1.5298948,-1.7698134,9.3228445,2.47441631409350961353,1.6059108,9.636662,2.2254105,-1.8096447,9.3078985,2.50172161409350961355,1.4808137,9.686341,2.8191724,-1.8406194,9.292902,2.53465991409350961357,0.98461545,9.619304,3.0190883,-1.8703386,9.273494,2.58351661409350961382,0.4261679,9.55047,3.0065188,-1.903397,9.248955,2.64656661409350961384,0.801459,9.404425,1.9255368,-1.9391118,9.22067,2.71836521409350961390,1.650802,8.643068,2.337938,-1.9711965,9.19412,2.78440981409350961409,2.099715,8.717887,3.2746694,-1.9967678,9.167071,2.85448651409350961411,1.4700398,9.209895,3.8043866,-2.0159004,9.142112,2.92033621409350961416,0.35314476,9.959281,3.4685998,-2.0361915,9.121556,2.97010371409350961445,-0.009576807,10.6637745,3.2668881,-2.0591185,9.107665,2.99680521409350961448,0.24660277,10.369886,4.0456023,-2.0740056,9.100155,3.00933271409350961452,0.10414778,10.061034,4.4286747,-2.0717502,9.096132,3.0230141409350961456,0.20590134,9.888652,3.9199066,-2.0511487,9.097112,3.03409721409350961488,0.5141548,9.698911,3.6050692,-2.0055482,9.108863,3.02932261409350961489,0.6787562,9.964667,3.1603463,-1.9344685,9.133321,3.00177841409350961492,0.54168814,10.6398325,1.8429368,-1.8500525,9.166278,2.9541611409350961517,-0.25438392,10.687118,0.25558102,-1.7648569,9.211111,2.86550471409350961519,-1.6178818,9.72824,-0.99658644,-1.691379,9.265568,2.7310981409350961520,-2.96881,8.369531,-1.2156559,-1.634064,9.321969,2.5692651409350961542,-4.1635165,7.517793,-0.80325466,-1.5831528,9.374607,2.40432211409350961543,-5.3265004,7.723695,0.12210429,-1.5309463,9.423462,2.24164441409350961547,-6.634333,9.822811,1.2132617,-1.4757301,9.467853,2.08623651409350961556,-7.3190746,13.706804,1.9470845,-1.422496,9.505175,1.94898431409350961572,-7.3298483,19.557634,1.834557,-1.3697073,9.535342,1.83617271409350961576,-7.1089835,18.500595,2.123657,-1.3105636,9.564162,1.72616041409350961599,-6.1836243,15.092449,2.4570496,-1.2402331,9.586478,1.65276311409350961600,-4.5100775,12.000936,2.7748797,-1.1509324,9.603819,1.61629551409350961610,-3.241749,8.926183,2.9933507,-1.0571924,9.611459,1.63480721409350961627,-2.7659016,9.009381,4.1515455,-0.968245,9.609077,1.70251181409350961629,-2.4349031,10.436924,5.1541176,-0.8912968,9.5982065,1.8028971409350961635,-1.513734,11.930307,5.461174,-0.8169465,9.584746,1.90674081409350961667,-0.12629414,12.902353,4.5022964,-0.71849024,9.578947,1.97432391409350961668,0.39803603,10.779295,3.217807,-0.581619,9.586955,1.98050811409350961670,0.17836803,8.994417,2.1470003,-0.4394959,9.602538,1.94126151409350961697,0.28191724,8.100781,1.2814964,-0.32684958,9.618168,1.88531461409350961699,0.5554548,8.09719,1.1587936,-0.2407121,9.630543,1.8344221409350961700,0.7086837,8.333019,1.5562311,-0.15967092,9.63858,1.80074131409350961710,0.6332663,8.433576,1.7723078,-0.07753084,9.643699,1.77861951409350961735,0.45729253,8.181585,1.8411411,0.002495762,9.64496,1.77345291409350961738,0.33399114,7.9427643,1.7621324,0.07443404,9.64307,1.78213881409350961746,0.30107087,7.3088994,1.6885108,0.13442469,9.638201,1.80483471409350961776,0.25677812,6.6983776,1.8016368,0.18197803,9.629684,1.84566351409350961778,0.712275,5.7095723,1.9135658,0.21880175,9.617081,1.9063791409350961780,0.9911995,5.4527946,1.8327614,0.2510146,9.601005,1.98194361409350961799,1.3024458,5.3235073,1.7968484,0.28117636,9.5833025,2.06195431409350961800,1.448492,5.4282537,1.7950528,0.30938312,9.565839,2.13761951409350961801,1.4197617,5.5790887,1.7914615,0.3343504,9.549765,2.20468041409350961820,1.335366,5.6138043,1.7609353,0.3578815,9.534527,2.26607631409350961822,1.3180081,5.544971,1.7447745,0.37732145,9.521857,2.31565481409350961837,1.4137762,5.495291,1.8602947,0.39260095,9.51238,2.35178421409350961838,1.5813702,5.539584,2.1068976,0.4021171,9.506583,2.37351541409350961852,1.7998412,5.7359085,2.2918496,0.40444514,9.50444,2.38168481409350961856,1.9680338,6.10701,2.504335,0.39721212,9.506099,2.3762791409350961873,2.0452468,6.679224,2.7886465,0.37743333,9.51133,2.3585011409350961888,2.0883424,7.6003933,3.2022448,0.3431724,9.519446,2.33082961409350961889,2.088941,9.066842,3.667917,0.2966052,9.529365,2.29643751409350961912,2.0338743,10.799645,3.8013937,0.24292931,9.539835,2.25897151409350961914,1.7717092,12.08593,3.6565444,0.18990967,9.550184,2.21998021409350961916,1.0181342,12.0649805,3.7780502,0.14051706,9.560473,2.1789891409350961942,-0.15741876,11.827955,4.0078936,0.096018806,9.568659,2.14521171409350961944,-1.3664906,14.391546,4.496909,0.056954954,9.574005,2.12263751409350961948,-0.9487024,15.415667,1.186327,0.015335393,9.575279,2.11759381409350961956,0.7015011,13.391369,0.43754035,-0.004894787,9.581899,2.0874791409350961972,2.4438813,11.874043,1.6118963,0.014169596,9.585795,2.069471409350961989,3.316568,10.140042,3.8181531,0.066192575,9.5811,2.09010361409350961990,3.345897,10.243592,6.193201,0.14632563,9.561663,2.17338281409350962007,3.1130607,12.964004,5.0691237,0.26525396,9.527504,2.30796841409350962021,1.6400281,15.724518,4.3448777,0.42319956,9.495049,2.4156461409350962022,-0.4417302,14.545973,5.4408236,0.5866455,9.472682,2.4687091409350962039,-1.7543513,12.389994,5.2139726,0.7237749,9.450785,2.51578931409350962040,-2.8101943,11.964424,3.5128925,0.8249768,9.436212,2.5392341409350962053,-3.0214825,10.576386,2.633622,0.86867493,9.422321,2.57597351409350962058,-2.285864,9.001001,2.3403323,0.86367583,9.398253,2.6640761409350962072,-2.1188686,8.276755,2.0949266,0.8268083,9.374994,2.75612781409350962083,-2.5528176,8.318055,2.1015105,0.7644857,9.368289,2.79662591409350962088,-2.544438,8.37372,2.5031378,0.68688107,9.379609,2.77875881409350962116,-2.0907366,8.899248,2.397793,0.6174257,9.397774,2.73331741409350962117,-1.4401124,9.307459,1.9231426,0.56782275,9.414173,2.6872491409350962119,-0.40641573,9.399636,1.2449849,0.53136903,9.427407,2.64801741409350962146,0.45848963,9.488221,0.66858083,0.499546,9.440424,2.60753871409350962149,0.81642276,10.001179,0.5823896,0.46429232,9.454857,2.56135031409350962150,0.48482585,10.875661,1.1372458,0.41570908,9.471755,2.5066761409350962158,0.093972415,11.334749,1.4796166,0.34753373,9.489972,2.44745561409350962182,-0.39205053,10.819398,1.5795746,0.26432467,9.507056,2.39090321409350962183,-0.79008657,9.725247,1.7729063,0.17463596,9.519044,2.3511091409350962196,-0.93732995,9.008782,1.9351135,0.08745405,9.523528,2.33777021409350962238,-1.1665748,8.5862055,2.0135236,0.003190832,9.524038,2.33732771409350962241,-1.3736732,8.191162,1.9207484,-0.08141878,9.525618,2.32945591409350962243,-1.7016789,7.8326306,1.6394296,-0.1651023,9.530713,2.3040521409350962245,-2.0847511,7.6387005,1.2012907,-0.2455532,9.538243,2.26540111409350962246,-1.9698294,7.599196,0.89184016,-0.32455373,9.546069,2.222071409350962322,-1.763928,7.583634,0.81761986,-0.3960453,9.553554,2.17788081409350962325,-1.6118963,7.9008656,0.88286185,-0.45991972,9.560696,2.13353591409350962327,-1.7711107,8.43178,0.9068039,-0.5180671,9.567682,2.08841441409350962328,-2.1254525,8.944737,0.8924387,-0.57496977,9.572999,2.04877971409350962330,-2.220622,9.03871,0.6745663,-0.63438,9.574128,2.02583961409350962331,-2.0967221,8.228871,0.47764325,-0.69674903,9.569933,2.0251721409350962332,-1.5616181,8.079832,0.5482722,-0.76236546,9.561619,2.04074481409350962333,-1.5167267,8.992023,1.122282,-0.8324451,9.552461,2.05619071409350962359,-0.7769185,8.865729,0.88286185,-0.9120212,9.544618,2.05886031409350962360,0.011372458,9.230247,0.8283938,-0.9958221,9.538444,2.04861431409350962361,0.64823014,9.335591,0.8451532,-1.0752053,9.538103,2.00970961409350962362,1.0648212,8.908825,1.2186487,-1.1494756,9.540324,1.9573711409350962368,1.4664485,8.65025,1.7824832,-1.2138766,9.538743,1.92594891409350962387,1.6286557,8.620323,2.1559787,-1.2682173,9.528962,1.93930461409350962388,1.5424645,8.511986,2.1152773,-1.3123665,9.510843,1.99798421409350962402,1.4275428,8.143278,1.8674773,-1.3492324,9.486873,2.08547881409350962418,1.3395559,7.917625,1.644218,-1.3842961,9.460147,2.18167781409350962419,1.2150574,8.209119,1.5304934,-1.4216063,9.43394,2.26941321409350962434,1.2306197,8.81605,1.5179238,-1.4608397,9.411982,2.3347261409350962436,1.3796587,9.394249,1.7184383,-1.4993609,9.395725,2.37542681409350962452,1.6514006,9.85214,2.409764,-1.5347245,9.381767,2.4077861409350962467,1.7914615,9.835979,2.9095535,-1.5650699,9.367944,2.44184141409350962470,1.477821,9.540296,2.9580362,-1.5955628,9.349564,2.49203851409350962483,0.8295909,9.118318,3.141791,-1.6336668,9.324854,2.55902861409350962488,0.5291186,8.6257105,2.9496565,-1.6793442,9.294539,2.63851141409350962498,0.82240826,8.218098,2.223615,-1.7268665,9.261829,2.72155331409350962512,1.4688427,7.9325886,3.0831332,-1.7698917,9.231002,2.7975851409350962516,1.4131776,8.866327,3.697246,-1.8037323,9.201841,2.87107351409350962533,0.45190558,10.073005,3.4398694,-1.8312038,9.1779175,2.9296631409350962536,-0.49440265,11.019313,2.8473043,-1.8602504,9.161696,2.96195481409350962549,-0.5129577,11.1653595,2.9861681,-1.8893965,9.153133,2.9699681409350962566,-0.30166942,10.449493,3.904943,-1.91502,9.1470375,2.97234061409350962568,-0.36152446,9.718064,4.047398,-1.9282448,9.143445,2.97484181409350962585,-0.24959552,9.5013895,3.05141,-1.9268718,9.145778,2.96855711409350962605,0.35673606,9.624691,2.8431146,-1.9013878,9.159861,2.9414411409350962606,0.97862995,9.818622,3.0508115,-1.8453348,9.185361,2.89728621409350962633,0.5919664,9.554661,2.1691468,-1.7685636,9.219504,2.83607751409350962635,-0.95109665,8.576031,0.96426475,-1.6925448,9.261571,2.74389891409350962636,-2.5833437,7.3442135,0.27593175,-1.6294218,9.308816,2.61941271409350962637,-3.8546648,6.847417,0.15023616,-1.5725052,9.358847,2.47176361409350962653,-4.935647,7.4387846,0.6703765,-1.5134647,9.409643,2.3105081409350962667,-6.0363812,9.491214,1.4574703,-1.4499156,9.458047,2.14790341409350962668,-6.482301,13.306375,1.8261774,-1.3896108,9.501122,1.99199221409350962702,-6.0064535,18.137276,1.0953473,-1.3255486,9.540449,1.84204651409350962703,-6.3033347,19.608511,0.19632454,-1.2402604,9.581722,1.68010531409350962704,-6.671443,19.608511,0.3788824,-1.1486044,9.621063,1.51202951409350962716,-5.29777,13.937246,1.1641805,-1.069411,9.649814,1.38125621409350962717,-3.417723,10.242993,2.1709423,-0.9826859,9.663785,1.34758541409350962733,-3.2082303,9.012374,4.010288,-0.893446,9.664913,1.40057531409350962737,-3.0556,9.892242,5.527613,-0.8119433,9.654614,1.51643681409350962753,-2.1428106,10.473435,5.6425347,-0.73141634,9.638727,1.65238441409350962770,-0.8822633,11.662156,4.929063,-0.6305511,9.628399,1.75121361409350962771,0.06943185,10.828975,3.90614,-0.50788265,9.624064,1.81378541409350962787,-0.16400282,8.213309,2.9741971,-0.35921875,9.63044,1.81548521409350962789,0.55964464,7.392098,1.7304093,-0.22067739,9.640717,1.78277131409350962802,1.2192472,7.553706,1.4951789,-0.10691662,9.650537,1.73957921409350962816,1.5975311,8.078036,1.6112977,-0.009641688,9.656864,1.70742181409350962817,1.7681179,8.283937,1.7076644,0.08425419,9.658766,1.69456471409350962834,1.4329298,8.006809,1.8154035,0.17314656,9.65693,1.6982671409350962839,0.9247604,7.4567413,1.7992426,0.25203672,9.652033,1.7161471409350962851,0.5722142,6.8869214,1.8058267,0.3159628,9.644051,1.75009541409350962868,0.4189853,6.4044895,1.8896236,0.36696663,9.632337,1.80383631409350962869,0.5626374,5.955577,1.8902222,0.41018108,9.616559,1.87721371409350962880,0.8002619,5.5527525,1.8561049,0.4507331,9.598558,1.95829681409350962899,1.0953473,5.369596,1.7729063,0.48987588,9.5779295,2.04784321409350962901,1.1492168,5.5192337,1.8507179,0.52751726,9.555825,2.13970571409350962915,1.210269,5.6569,1.9285295,0.56156313,9.533527,2.22865181409350962917,1.2479776,5.731719,1.9243397,0.59118325,9.512262,2.31036191409350962931,1.3724761,5.801749,1.8046296,0.61502504,9.4935255,2.38015441409350962937,1.6017209,5.9322333,1.8489223,0.63208383,9.478601,2.4345381409350962957,1.8219875,6.0651116,1.946486,0.6399315,9.468375,2.47199581409350962958,2.110489,6.213552,2.0644004,0.63460344,9.463186,2.49314381409350962968,2.2098482,6.3488245,2.5007436,0.61346114,9.463016,2.49908191409350962982,2.160767,6.6893997,2.9975405,0.5748228,9.465229,2.49988321409350963002,2.1649568,7.3765354,3.6858735,0.5302334,9.470222,2.4908061409350963003,2.1260512,8.533533,4.372411,0.47415394,9.477506,2.47436551409350963018,1.8357542,10.01734,4.4196963,0.4164194,9.486694,2.44940921409350963019,1.5448587,10.91337,3.9133227,0.36170128,9.498952,2.41028711409350963033,1.2707225,10.430939,3.5098996,0.31483358,9.51335,2.3595431409350963037,0.7733272,10.733805,4.143166,0.27954498,9.525616,2.31406191409350963049,-0.48243165,14.531608,5.53719,0.25386006,9.531933,2.29090211409350963065,-1.0019734,15.764023,4.267066,0.22475393,9.530768,2.29876451409350963082,-0.12808979,14.90211,1.2012907,0.20882367,9.531019,2.29923271409350963083,2.6731262,11.861474,3.1346085,0.22652182,9.536583,2.2743491409350963101,2.6204538,11.541848,6.3901243,0.27887073,9.530473,2.29406381409350963102,2.100912,14.360422,5.758055,0.35161448,9.5042095,2.39097331409350963118,1.5215151,17.896658,3.7606924,0.45683542,9.470927,2.50264331409350963119,0.43394905,16.21114,4.3777976,0.5997756,9.446848,2.56275841409350963133,-0.79248077,13.988124,5.889736,0.7495542,9.424648,2.60472421409350963137,-2.5558102,12.564172,4.614824,0.86431366,9.399405,2.65980321409350963150,-3.6613328,10.393828,2.5121162,0.9092846,9.371899,2.74064091409350963166,-3.821146,8.910022,2.5103204,0.8963861,9.338323,2.85702561409350963169,-3.3393128,8.995016,2.1948843,0.8404968,9.305422,2.97877141409350963182,-3.4344823,9.269751,1.578976,0.7591547,9.288761,3.05171871409350963199,-3.4231098,9.15842,1.7812861,0.6676074,9.293503,3.05867741409350963200,-2.7144263,9.235035,1.8411411,0.58159435,9.304528,3.04267791409350963214,-1.9913772,9.388264,1.4856021,0.5037018,9.320958,3.00606181409350963217,-0.866701,9.35235,1.436521,0.43976372,9.335294,2.97141171409350963233,0.3345897,8.835801,1.459266,0.38703066,9.345764,2.94572781409350963237,1.3293805,8.133103,1.3802572,0.3376989,9.355952,2.91933441409350963252,1.6759412,7.9966335,1.3317747,0.28460604,9.369933,2.87988851409350963272,1.6238673,8.674192,1.5412674,0.22517245,9.388392,2.8244971409350963273,0.8678981,9.487024,1.6537948,0.16251375,9.407909,2.76319221409350963277,0.05626374,9.060258,1.5077485,0.09407675,9.424699,2.70861241409350963307,-0.65062433,8.626308,1.7034745,0.019823767,9.436507,2.6687711409350963309,-1.1282675,8.47308,2.0410569,-0.061152387,9.4452915,2.63687541409350963312,-1.4095862,8.398261,2.1098902,-0.14670008,9.451917,2.60962561409350963318,-1.7926586,8.173804,1.5921441,-0.23689212,9.459741,2.57440921409350963344,-1.946486,