time,acc_x,acc_y,acc_z,gravity_x,gravity_y,gravity_z1409527267122,1.6621746,9.419987,3.0508115,1.7668307,9.146346,3.06481081409527267135,1.6879122,9.212888,2.9897594,1.7654351,9.149077,3.0574531409527267149,1.7100586,9.160215,2.9963434,1.7645609,9.150628,3.05331561409527267153,1.8561049,9.198523,3.040636,1.7640637,9.151634,3.0505861409527267175,1.9877859,9.274539,3.1202433,1.7657934,9.152315,3.04754111409527267177,2.0757728,9.200917,3.1914709,1.7697294,9.152952,3.04334021409527267183,2.0949266,9.155427,3.1723173,1.775407,9.152756,3.0406251409527267222,2.0566192,9.162011,3.168726,1.781006,9.151435,3.04132581409527267224,1.9949685,9.205706,3.1118636,1.7850528,9.149658,3.04429821409527267226,1.9165585,9.217078,3.067571,1.7869191,9.148367,3.0470811409527267257,1.8405426,9.203311,3.0783448,1.7873659,9.147854,3.04835371409527267259,1.8273745,9.178172,3.0532057,1.7865635,9.148118,3.04803281409527267262,1.8297687,9.148245,3.0747535,1.7848394,9.149124,3.04602481409527267264,1.8148049,9.165603,3.1352072,1.7824731,9.1508875,3.04211141409527267265,1.8112136,9.205107,3.153762,1.7801112,9.152914,3.03739741409527267272,1.7914615,9.250597,3.1549592,1.7785087,9.154772,3.03273181409527267293,1.7782934,9.254189,3.0873232,1.7774141,9.15632,3.02869921409527267294,1.7483658,9.242217,3.0352492,1.7770705,9.15788,3.02417661409527267303,1.726818,9.2494,3.0137014,1.7774048,9.159574,3.01884941409527267326,1.7052702,9.264363,3.0178912,1.7781963,9.161292,3.01316241409527267328,1.6938977,9.215282,3.0214825,1.7787578,9.162948,3.00779131409527267332,1.6537948,9.18715,3.0238767,1.7789509,9.16423,3.0037651409527267362,1.6591818,9.184756,3.0238767,1.7786578,9.16517,3.00107221409527267364,1.6657659,9.102157,3.0113072,1.7785455,9.16592,2.9988431409527267366,1.6986861,9.231443,3.0214825,1.7788124,9.166651,2.99645571409527267373,1.7447745,9.257181,3.0214825,1.7784238,9.167701,2.99347161409527267394,1.7681179,9.367912,3.05141,1.7777134,9.169168,2.9893941409527267395,1.7274165,9.321824,2.9700072,1.7772511,9.170925,2.98427721409527267403,1.7405846,9.212888,3.0232782,1.7765517,9.17269,2.97926141409527267426,1.596334,9.594764,3.1741128,1.7748653,9.174545,2.9745491409527267427,1.4239515,9.46009,3.0879216,1.7695447,9.177835,2.96756391409527267432,1.2521675,9.60853,3.0771477,1.7624636,9.181846,2.95936541409527267463,1.5837644,9.379884,2.521693,1.7510445,9.188304,2.94606231409527267464,1.8435353,8.531737,2.2936451,1.7387993,9.200777,2.91422221409527267466,1.9261353,8.95611,3.028665,1.7309346,9.21918,2.86023881409527267472,1.9045875,8.965687,3.2321723,1.7245138,9.238445,2.80135561409527267498,1.7429788,8.598177,3.063381,1.7144969,9.247661,2.776991409527267501,1.7459716,9.0429,3.008913,1.7061498,9.24731,2.7832911409527267504,1.6980876,9.293094,2.8999767,1.7007554,9.247109,2.7872541409527267534,1.6944963,9.330803,2.819771,1.6972666,9.2496805,2.78084141409527267535,1.673547,9.633071,2.8682537,1.6938057,9.2531185,2.7714991409527267537,1.6932992,9.754577,2.8616695,1.6890792,9.256595,2.76276331409527267564,1.7435774,9.694122,2.8269536,1.6843452,9.259669,2.75534271409527267565,1.6771383,9.39365,2.743755,1.679805,9.26233,2.74915621409527267566,1.6687586,9.223063,2.7982233,1.6738245,9.264891,2.7441761409527267571,1.6166847,9.056666,2.8287494,1.6668875,9.267322,2.74018671409527267588,1.6095021,8.93576,2.8754363,1.6595954,9.269431,2.73747681409527267591,1.5945383,8.996812,2.930503,1.6523925,9.270836,2.7370811409527267603,1.5472529,9.235035,2.9670146,1.6444364,9.271723,2.73886851409527267624,1.4748282,9.345168,2.8778305,1.6353333,9.273016,2.73993871409527267625,1.4197617,9.415198,2.8257565,1.625224,9.275397,2.73789071409527267631,1.3988123,9.380483,2.8072014,1.6141359,9.278605,2.73357461409527267653,1.3772645,9.422979,2.8203697,1.6027273,9.281842,2.72929481409527267654,1.365892,9.346964,2.8389246,1.5903503,9.284779,2.7265481409527267663,1.335366,9.376292,2.8832173,1.5773785,9.287388,2.72519781409527267685,1.371279,9.448717,2.870648,1.5637629,9.29004,2.7240021409527267686,1.3862427,9.476251,2.8802247,1.5507164,9.292519,2.72300981409527267701,1.3880384,9.498995,2.907758,1.538386,9.294806,2.72219631409527267703,1.38325,9.51755,2.9173348,1.5268706,9.29697,2.72128271409527267718,1.3916297,9.625289,2.8802247,1.5159081,9.298856,2.72097281409527267733,1.4742297,9.184157,2.9239187,1.5050129,9.3004,2.72174551409527267734,1.4167689,9.338584,2.956839,1.4946696,9.300597,2.72676251409527267748,1.5328877,9.103952,2.9257145,1.4837312,9.301323,2.73026081409527267751,1.5155296,9.217078,2.9496565,1.4745214,9.302567,2.73101191409527267773,1.4676456,9.355343,2.80361,1.4651846,9.304801,2.72842481409527267774,1.4796166,9.260174,2.516306,1.4557357,9.307548,2.7241111409527267783,1.489792,9.194333,2.3331497,1.4465947,9.310967,2.71728521409527267809,1.3742718,9.303867,2.4480712,1.4371874,9.314684,2.70952921409527267812,1.3227965,9.397242,2.6856956,1.425442,9.318273,2.703391409527267813,1.311424,9.395446,2.7497406,1.4132167,9.322023,2.69686651409527267835,1.3401544,9.384073,2.791639,1.4020514,9.326656,2.68665671409527267836,1.3281834,9.361329,2.9352913,1.3915969,9.331848,2.67404151409527267852,1.3814543,9.267356,3.0400376,1.3803301,9.33722,2.6610881409527267854,1.4879963,9.20391,3.1064768,1.3678927,9.34265,2.64841961409527267876,1.5855601,9.205706,3.1118636,1.355649,9.348196,2.63511941409527267877,1.6286557,9.214086,3.1226375,1.3428677,9.354036,2.6208941409527267883,1.6861166,9.255983,3.0801406,1.330093,9.359586,2.6075661409527267906,1.7160441,9.330803,3.0137014,1.3175865,9.36455,2.59606621409527267907,1.7567455,9.386468,2.9322984,1.3055696,9.36881,2.58675031409527267911,1.8602947,9.413403,2.8993783,1.2940322,9.372588,2.57885621409527267935,1.8836381,9.385869,2.9562407,1.2832965,9.3758,2.5725331409527267936,1.7998412,9.281123,2.9412768,1.272016,9.378537,2.568151409527267951,1.6412252,9.14585,2.942474,1.259288,9.381161,2.564841409527267952,1.7968484,9.155427,2.9981391,1.2442794,9.383768,2.56263041409527267965,1.6448165,9.062054,3.0520086,1.2297686,9.3860655,2.56122061409527267982,1.584363,9.099164,3.0298622,1.2141093,9.388483,2.5598291409527267983,1.6077064,9.116522,2.914342,1.1969167,9.391594,2.55651121409527267997,1.6047137,9.115324,2.8299465,1.1783625,9.395756,2.54982781409527268016,1.5837644,9.0476885,2.7670987,1.1588155,9.4009,2.53980781409527268017,1.5460558,8.977658,2.712032,1.1382477,9.407194,2.52576881409527268033,1.4036007,8.905831,2.7353754,1.1172999,9.414216,2.50889951409527268034,1.134253,8.921394,2.767697,1.0953879,9.421668,2.4905181409527268047,1.5831659,9.3583355,2.6497827,1.0724005,9.429783,2.46972251409527268051,1.4520833,9.269751,2.694674,1.055322,9.438057,2.44535571409527268063,1.5059528,9.329605,2.747945,1.0392268,9.445662,2.42278651409527268081,1.6298528,9.345168,2.7371712,1.0239073,9.452625,2.40206121409527268083,1.6938977,9.351752,2.700061,1.0101016,9.458766,2.38366631409527268098,1.7016789,9.396045,2.5779567,0.9976533,9.464827,2.3647681409527268115,1.6585833,9.436148,2.5151088,0.985915,9.471289,2.3437271409527268116,1.5945383,9.595961,2.5103204,0.9750962,9.47764,2.32248381409527268131,1.5879543,9.674371,2.505532,0.96561986,9.483131,2.30395631409527268132,1.584363,9.764751,2.4797945,0.95713884,9.487901,2.28780171409527268146,1.5753847,9.81084,2.393603,0.94870013,9.492362,2.27275561409527268151,1.5622166,9.774927,2.2409728,0.9401825,9.496528,2.2588511409527268163,1.5334862,9.721058,2.1775265,0.93148535,9.500519,2.24563671409527268181,1.1504139,9.527725,2.2182279,0.9222008,9.504412,2.23295711409527268183,1.5735891,9.665991,2.2481554,0.90911716,9.508066,2.22273561409527268196,1.2509704,9.38168,2.3995886,0.90057045,9.510866,2.2142311409527268213,0.94092125,9.31524,2.4480712,0.89117897,9.513031,2.20871661409527268214,1.3215994,9.512762,2.3822308,0.87929434,9.515221,2.20404621409527268232,1.1773487,9.353547,2.2631192,0.8701732,9.517399,2.19825081409527268233,1.2066777,9.481039,2.1068976,0.86182845,9.519566,2.19214371409527268246,1.204882,9.521142,2.0087352,0.85411,9.522055,2.18434671409527268252,1.0319009,9.469068,1.9333179,0.8470865,9.524774,2.17521121409527268264,1.2515689,9.573814,1.9087774,0.84028244,9.527415,2.1662571409527268280,1.1857284,9.375095,1.9752164,0.8365247,9.529766,2.1573571409527268285,1.103727,9.362526,1.9141643,0.83273596,9.531796,2.14983581409527268298,0.8882488,9.277532,1.6364368,0.82736987,9.534026,2.14200851409527268313,0.83856916,9.34038,1.6681601,0.8188977,9.537225,2.13099861409527268314,0.712275,9.375694,1.7280151,0.81061816,9.540598,2.11903171409527268333,0.5494693,9.423578,1.690905,0.8018941,9.544007,2.10696361409527268334,0.8038532,9.515755,1.6777369,0.7907401,9.548175,2.09224531409527268357,0.6410475,9.36492,1.6334441,0.78212535,9.552751,2.07451681409527268358,0.5446809,9.281123,1.5412674,0.7746419,9.557306,2.05625991409527268363,0.6817489,9.214086,1.5532384,0.76696914,9.562081,2.03685021409527268379,0.6775591,8.971074,1.5891514,0.76219916,9.567006,2.01540471409527268383,0.7781156,8.951322,1.6244658,0.76001525,9.571928,1.99272511409527268397,0.97384155,9.003994,1.4670471,0.7588802,9.5768585,1.9693351409527268427,1.1755531,9.118318,1.2635399,0.76030946,9.582489,1.94119081409527268429,1.3491327,9.357738,1.1779473,0.76422536,9.58893,1.90755571409527268430,1.4862007,9.566033,1.2192472,0.7695534,9.596108,1.8689241409527268432,1.6406267,9.792884,1.4562732,0.77520585,9.603858,1.82629131409527268458,1.5975311,10.0341,1.5795746,0.78085893,9.612024,1.78035081409527268459,1.5107412,10.220248,1.6136919,0.78419095,9.62071,1.73129431409527268465,1.2569559,10.291476,1.6310499,0.7861167,9.629072,1.6832671409527268481,1.1845313,10.3932295,1.6394296,0.78668267,9.636423,1.64038831409527268483,0.65780693,10.268731,1.5275006,0.78812104,9.64238,1.60429411409527268515,0.50517654,10.189124,1.4317327,0.7850351,9.648117,1.5709781409527268516,0.6979098,10.116699,1.4239515,0.78036684,9.653198,1.54181441409527268518,0.6218939,9.937733,1.3784616,0.77760243,9.657673,1.5149581409527268536,0.7505822,9.892242,1.3940239,0.77531433,9.661727,1.49006381409527268537,0.94211835,9.821015,1.3868413,0.77501416,9.665441,1.46595111409527268543,1.1210849,9.74859,1.2545617,0.7769948,9.669211,1.43979671409527268565,1.2545617,9.688137,1.2126632,0.7802183,9.673326,1.41012111409527268567,1.3180081,9.589975,1.1779473,0.782399,9.677703,1.37852061409527268589,1.3521254,9.486425,1.2174516,0.7814617,9.682504,1.344921409527268590,1.5113398,9.355942,1.3054385,0.7767163,9.6877985,1.3090761409527268592,1.5245079,9.266758,1.2078748,0.7702185,9.693124,1.27298931409527268620,1.3449428,9.128492,1.0785879,0.7622395,9.698463,1.23660921409527268622,1.5783775,9.194932,0.88046765,0.74768007,9.704171,1.20018891409527268623,1.5664065,9.087193,0.80086046,0.7305521,9.709931,1.16358151409527268632,1.3976152,9.062054,0.96546185,0.71108526,9.715409,1.12942371409527268657,1.2976574,9.241618,0.98820674,0.6860422,9.720718,1.09879831409527268659,1.1773487,9.473258,0.9923966,0.655946,9.7263365,1.06701141409527268664,1.2503718,9.568427,1.0139444,0.623287,9.732103,1.03346981409527268690,1.0498575,9.759963,0.9475053,0.5900162,9.737713,0.99961251409527268692,1.0642227,9.901819,0.9600749,0.55408543,9.743168,0.96646841409527268694,1.0564415,9.93893,1.0420763,0.5176771,9.748264,0.934755151409527268720,1.0462662,9.998785,1.1049241,0.4814389,9.752908,0.905203461409527268721,0.82480246,10.090961,1.1647792,0.44554684,9.757175,0.87715461409527268724,1.0767922,10.178948,1.0462662,0.407843,9.760999,0.85262341409527268733,1.039682,10.178948,0.99898064,0.3732295,9.764257,0.830896741409527268753,0.83018947,10.022727,0.97025025,0.341466,9.766937,0.81285311409527268755,0.7398083,10.033501,0.8774749,0.30960256,9.769102,0.79949151409527268764,0.7254431,9.868899,0.78290397,0.27670667,9.770783,0.79093881409527268780,0.7026982,9.840169,0.741604,0.2450041,9.771882,0.78783441409527268784,0.7044938,9.826403,0.6075287,0.21427126,9.772493,0.78921681409527268798,0.670975,9.856929,0.4309563,0.18414558,9.772842,0.7924721409527268820,0.6290765,9.913192,0.21428105,0.15478681,9.773041,0.796311741409527268822,0.61291564,9.8994255,0.23822308,0.12646687,9.773226,0.79904841409527268826,0.65062433,9.857527,0.16759412,0.09871756,9.773223,0.802983461409527268833,0.79487497,9.704897,0.010175358,0.071884066,9.773135,0.806890961409527268851,1.1683705,9.485229,0.04070143,0.04743965,9.772973,0.810653571409527268854,1.6118963,9.144054,0.42317516,0.027096096,9.772634,0.81564771409527268864,2.654571,9.281721,1.5424645,0.011502515,9.771901,0.82473761409527268882,3.2190042,9.539098,1.7794905,0.007785685,9.770218,0.844505551409527268886,3.7535098,9.838373,2.046444,0.011990444,9.7681465,0.868072871409527268914,4.0946836,10.259753,2.1757307,0.0235395,9.7656555,0.895438431409527268916,4.2640734,10.909779,2.107496,0.04050642,9.762994,0.923431409527268918,4.2479124,11.335348,2.0632033,0.060683895,9.760784,0.94541571409527268942,3.982156,11.610682,1.8668787,0.08068024,9.758935,0.962854271409527268944,3.570952,11.792641,1.5867572,0.09474165,9.757834,0.97266841409527268945,3.1896753,11.942278,1.347337,0.098290645,9.757189,0.978780751409527268966,2.9125464,12.040441,1.1725603,0.08890198,9.756743,0.98409461409527268967,2.618658,11.972804,0.9935937,0.067312375,9.756343,0.9897611409527268981,2.2319946,11.911154,0.92895025,0.03466456,9.755925,0.99554951409527268993,1.9153614,11.735778,1.2557588,-0.007209785,9.75502,1.0049481409527268994,1.543063,11.371261,1.4395138,-0.055042237,9.752649,1.02624691409527269012,1.1617863,10.765528,1.8680758,-0.10555954,9.748694,1.05933431409527269013,1.0139444,9.956287,2.546832,-0.15532288,9.742996,1.10467281409527269030,0.85652566,9.165004,2.7694929,-0.19824257,9.735549,1.16196581409527269033,0.31423897,8.450933,2.4343045,-0.23750696,9.727296,1.22217981409527269046,-0.108337626,7.9355817,2.2876596,-0.27007627,9.719405,1.27695241409527269064,0.62249243,7.513005,2.2361844,-0.29352477,9.712358,1.3245161409527269065,0.91338795,7.8876977,1.323395,-0.29683498,9.706958,1.36281341409527269077,0.8936358,8.567651,0.34476504,-0.2781979,9.705288,1.37855581409527269096,0.5255273,8.672397,-0.24660277,-0.23532735,9.708,1.36739661409527269096,0.090979666,8.63828,-0.1400608,-0.17027576,9.713319,1.33896841409527269112,-0.1376666,8.954913,0.5506664,-0.0852976,9.7188225,1.30675481409527269113,-0.003591303,10.851121,1.2545617,0.020706724,9.722702,1.28025261409527269129,0.7194576,13.636176,1.5568297,0.1473704,9.72333,1.26710441409527269133,1.3545196,15.858594,1.6376339,0.28768685,9.720583,1.26407661409527269145,1.5981296,16.976686,1.8315643,0.43930218,9.71173,1.28830211409527269161,0.5931635,16.950949,2.131438,0.59022903,9.695777,1.34682141409527269164,-1.1593921,16.279375,2.1972785,0.71726537,9.673859,1.43958511409527269179,-2.806603,15.71135,2.1709423,0.8059214,9.648193,1.55988731409527269196,-4.086902,15.105618,1.9428947,0.8535971,9.620886,1.6971471409527269197,-4.701015,14.019248,1.6747441,0.86910063,9.594622,1.8325651409527269212,-4.522647,12.846089,1.2042835,0.87345296,9.57119,1.9493111409527269213,-3.928885,11.754931,0.82719666,0.8919254,9.549898,2.04311321409527269226,-3.3638535,10.5285015,0.8122329,0.9343352,9.527287,2.12796261409527269243,-2.079364,9.344569,1.7112557,0.99692446,9.499647,2.22108911409527269244,-1.067814,7.515998,2.2403743,1.0781035,9.46559,2.3260921409527269260,0.093972415,7.252037,2.8502972,1.1777681,9.42507,2.43953321409527269264,1.2210429,7.2364745,3.17531,1.2949069,9.380151,2.55075961409527269278,2.0614076,7.555502,3.2944214,1.4298234,9.331575,2.6547471409527269296,2.1745336,6.945579,2.891597,1.5747796,9.280207,2.7510421409527269297,2.0057425,5.581483,2.1511903,1.7160906,9.227658,2.8417871409527269310,1.7603368,4.4502225,1.6609775,1.8387972,9.176468,2.9294481409527269313,1.3826514,3.7966053,1.6238673,1.9354242,9.127616,3.01847341409527269327,1.0498575,3.3608606,1.7501614,2.0103004,9.079661,3.11269071409527269344,0.8678981,3.1597476,1.763928,2.0723107,9.031181,3.21149251409527269345,0.6835446,3.2190042,1.8052281,2.1283016,8.983459,3.30729271409527269360,0.44771573,3.3925838,1.9231426,2.1843553,8.93633,3.3972051409527269376,0.3609259,3.669114,2.0578163,2.2409446,8.893132,3.47286031409527269377,0.3274071,4.1252093,2.3175871,2.3017633,8.855229,3.52947761409527269393,0.51475334,4.6860514,2.5803509,2.3672974,8.823642,3.56506161409527269393,0.91338795,5.2917843,2.8113914,2.4384122,8.797887,3.58074141409527269425,1.6035166,6.1770406,3.0071173,2.5124178,8.777305,3.58009481409527269427,2.3463178,7.000047,3.2112231,2.58567,8.760699,3.56859281409527269429,3.779846,7.5974007,3.7032316,2.6519537,8.747788,3.55158141409527269460,4.209605,7.6494746,4.248511,2.7084968,8.7365885,3.53644511409527269461,4.3783965,7.8248496,4.9039235,2.7417493,8.729039,3.52945951409527269462,4.5298295,8.150461,5.662287,2.7591338,8.722582,3.53187371409527269464,4.8985367,8.781932,5.957971,2.7551699,8.720039,3.54123231409527269478,5.016451,9.406818,5.9244523,2.7357574,8.721495,3.55268431409527269494,5.018845,10.350134,5.3779755,2.707435,8.727787,3.55892351409527269495,4.458602,11.903971,5.0451818,2.677815,8.739124,3.55350731409527269510,3.7852328,13.290214,5.021838,2.6475422,8.753791,3.54006391409527269513,3.9618053,12.809578,4.38498,2.6227298,8.767558,3.5244281409527269525,4.5860934,11.601105,4.1180267,2.627159,8.7717905,3.51057081409527269544,5.097255,10.250176,4.4244847,2.6724143,8.761043,3.5032461409527269546,5.616797,8.428787,4.811148,2.752524,8.732154,3.5133311409527269559,6.084265,6.5427547,5.6060233,2.856784,8.68431,3.5485141409527269565,6.205771,5.693412,6.913856,2.9729671,8.624584,3.5983911409527269577,5.5623293,6.439804,9.296086,3.0964172,8.553488,3.6633911409527269595,4.8440685,10.022727,11.543644,3.2136679,8.479379,3.73401641409527269596,5.2008047,15.956158,8.086416,3.300812,8.415783,3.80126861409527269611,4.086902,17.609953,3.7499185,3.35121,8.403514,3.78427841409527269613,-0.7930793,14.450803,2.771887,3.357432,8.433466,3.71142771409527269627,-1.4634558,14.06354,1.6915035,3.3040698,8.469508,3.67708641409527269643,-1.7064673,12.506711,2.677316,3.2326303,8.509596,3.64791751409527269645,-2.119467,11.353903,3.810372,3.1427968,8.545954,3.64141371409527269659,-2.067393,10.387842,3.8301241,3.027052,8.578643,3.6625441409527269665,-1.5993267,9.6528225,2.6611552,2.9155533,8.603734,3.69401121409527269678,-1.2904748,8.962095,1.7980455,2.8297567,8.626691,3.70716361409527269691,-0.7787141,8.497022,1.3772645,2.752246,8.651274,3.7082351409527269693,-0.08259996,8.179192,1.0283096,2.68638,8.674564,3.70211981409527269716,0.7685388,8.15106,0.9271546,2.6300275,8.692902,3.69956951409527269718,1.6358383,7.949348,1.560421,2.5804398,8.714039,3.68473081409527269751,2.2457612,7.8422074,2.0919337,2.5340593,8.745685,3.64169361409527269753,2.3050177,8.344392,2.284667,2.4878235,8.788631,3.56946951409527269755,2.0602105,9.102755,1.7872716,2.4363267,8.838654,3.48035981409527269756,1.6825253,9.077616,1.2485762,2.3747268,8.891644,3.38670421409527269789,1.3994108,8.980052,1.1827357,2.3021045,8.942066,3.3030521409527269791,1.2617443,9.1751795,1.5328877,2.2195785,8.990037,3.22847751409527269792,0.90021986,9.4457245,1.8285716,2.1301332,9.035961,3.1597991409527269794,0.4189853,9.483433,1.8854338,2.0348566,9.082834,3.08737441409527269811,-0.3196259,8.599374,1.1994951,1.9396244,9.129871,3.00893881409527269813,-0.2825158,8.042124,1.0067618,1.8472875,9.174347,2.93074971409527269826,-0.4417302,7.7703815,0.94092125,1.7626815,9.212481,2.8624411409527269842,-0.724246,7.586028,0.943914,1.6848336,9.244395,2.80586531409527269845,-0.9355343,7.4830775,0.961272,1.6141294,9.271121,2.7588621409527269859,-0.91219085,7.550115,0.6811504,1.5481808,9.294593,2.71736741409527269874,-0.88046765,7.569867,0.4866215,1.4837011,9.317356,2.6750511409527269875,-0.6075287,7.9726915,0.39743748,1.4185553,9.341102,2.62715171409527269890,-0.39564183,7.699753,0.6003461,1.3565273,9.365526,2.57238671409527269893,0.3226187,7.948151,0.97384155,1.2936846,9.391392,2.50969391409527269918,0.98700964,8.44016,1.4215573,1.2349082,9.418904,2.43508481409527269920,2.1703439,9.320627,1.6543933,1.1808128,9.446688,2.35290651409527269925,2.967613,9.051279,1.7202339,1.136791,9.472473,2.2694431409527269951,3.435081,9.0315275,1.9877859,1.0986854,9.494358,2.1955491409527269956,3.6337996,9.106346,2.3415294,1.0615418,9.510515,2.1432741409527269957,3.7834373,9.437943,2.794632,1.0243075,9.5197935,2.12008071409527269984,3.781043,9.500791,2.879626,0.98984283,9.5222435,2.12543631409527269988,3.7295678,9.333796,2.6396074,0.9549026,9.521403,2.14509731409527270005,3.6936548,9.111135,1.9363106,0.9164945,9.520758,2.1646231409527270006,3.5511997,8.98484,1.7579426,0.8740075,9.522791,2.1732351409527270008,3.4530375,9.095572,1.8722657,0.8308012,9.526462,2.17409831409527270014,3.333926,9.160814,2.1888988,0.7920467,9.529281,2.1762061409527270035,3.2495303,9.043498,2.7934349,0.761309,9.528327,2.1912951409527270037,3.1950622,8.739435,3.2477345,0.73564017,9.522727,2.22416381409527270046,2.7275944,8.628703,3.5805287,0.70836115,9.514752,2.26673841409527270064,1.9339164,8.887277,3.41473,0.6733091,9.507118,2.30905961409527270065,1.8130093,9.46009,2.742558,0.63058674,9.501274,2.34489321409527270073,2.123657,10.038289,1.6711528,0.5869604,9.496933,2.3736371409527270091,2.8766334,10.38904,1.6597804,0.5479623,9.495155,2.39001251409527270093,3.5625722,10.445304,2.0649989,0.5177828,9.4942045,2.40049931409527270117,3.7235823,10.489596,1.9991584,0.5025682,9.495818,2.39734891409527270119,3.469797,10.418967,1.7304093,0.49764454,9.501265,2.3767071409527270126,2.835932,10.690709,1.5131354,0.5000222,9.508889,2.34550331409527270148,2.0368671,10.755353,1.9075803,0.50772136,9.516847,2.31133461409527270149,1.6041151,10.526108,2.0147207,0.5199045,9.522893,2.28355121409527270154,1.3934253,10.126276,1.043872,0.5395821,9.527688,2.25884461409527270178,2.134431,9.718663,0.36032736,0.5692078,9.532533,2.2309681409527270179,1.5053543,8.541314,1.7932571,0.6195273,9.534931,2.20718571409527270192,0.51475334,7.9595237,1.2078748,0.6794839,9.532645,2.19940731409527270194,-1.0893618,6.8563952,0.91219085,0.7496084,9.532028,2.1791961409527270215,-2.5881321,6.3087215,1.3221979,0.82138115,9.531523,2.15540981409527270217,-3.4685998,7.111976,2.204461,0.90919673,9.526818,2.14091251409527270226,-3.4045548,10.092158,2.8054059,1.0056409,9.514434,2.15282151409527270253,-2.8909986,14.707581,2.7850552,1.1096616,9.497122,2.17801281409527270254,-1.2623428,19.028517,2.4899697,1.2212905,9.479821,2.19358971409527270256,-0.10594343,19.592949,2.6886885,1.3531511,9.461867,2.19372421409527270284,0.19572599,18.65921,3.3093853,1.4958141,9.43746,2.2061921409527270286,-0.5434838,17.53214,2.77069,1.6192666,9.408695,2.24161741409527270287,-0.2777274,16.04175,2.3870192,1.6983964,9.384818,2.28277021409527270294,0.14425065,12.909535,2.9682117,1.7502413,9.36172,2.33778121409527270314,-0.5542577,12.633005,4.8201265,1.7894485,9.334617,2.41519831409527270315,0.26994625,14.85662,5.378574,1.8112074,9.302712,2.51981141409527270325,0.7799112,12.764088,4.100669,1.8383094,9.269593,2.6202421409527270343,1.0127473,10.040085,2.6372132,1.9188552,9.235119,2.68346051409527270345,1.2084733,8.867524,2.520496,2.040371,9.200994,2.7109021409527270364,1.4891934,8.88608,3.3889925,2.1705172,9.163467,2.736811409527270366,1.6879122,7.8835077,3.9671922,2.2980866,9.11806,2.78390771409527270374,1.9027919,7.4615297,3.6846764,2.423568,9.065139,2.84955241409527270399,2.3038206,7.114969,3.2369606,2.5430279,9.009829,2.91999961409527270401,2.2296004,6.4661403,2.7395654,2.6555786,8.953451,2.99232651409527270405,2.2014685,5.903503,2.2505496,2.7556305,8.897796,3.06694151409527270426,1.8596961,5.08289,1.9991584,2.843489,8.842492,3.14567761409527270427,1.6005238,4.722563,1.8357542,2.9116368,8.789832,3.22980261409527270452,1.30484,4.2024226,1.7794905,2.9608104,8.738679,3.3225741409527270455,1.2192472,3.7523127,1.7896658,2.997987,8.687406,3.42220041409527270457,1.163582,3.6583402,1.8124107,3.0281098,8.636077,3.52407721409527270483,1.0145429,3.6792896,1.8620903,3.0528007,8.587796,3.6194731409527270485,0.9403227,3.750517,1.8782512,3.0733037,8.545541,3.7012051409527270487,0.842759,3.7217865,1.8782512,3.0880926,8.512754,3.763921409527270498,1.0414777,3.7241807,2.0362685,3.09606,8.490913,3.80646561409527270516,1.2880806,3.8355112,2.3768437,3.0983794,8.479087,3.83086421409527270517,1.5143325,4.0402155,2.8263552,3.0952857,8.4757,3.8408461409527270531,1.8926164,4.4035354,3.3488896,3.0917687,8.47592,3.84319281409527270555,2.2984335,4.8620253,3.9444473,3.0796196,8.4844,3.83422761409527270556,2.8018146,5.510854,5.607819,3.0597348,8.502108,3.81084971409527270557,3.9498343,7.7452426,6.26383,3.0288718,8.528022,3.7774571409527270581,4.4580035,9.337387,6.265626,2.9879284,8.565737,3.72435551409527270583,4.650737,10.268731,5.8466406,2.9344826,8.616736,3.64842841409527270586,4.311359,9.863512,5.6545057,2.8699484,8.677009,3.55574441409527270594,3.4081461,10.262746,6.2129536,2.797628,8.7365265,3.4665231409527270619,2.926313,13.990518,5.895722,2.7182305,8.7873745,3.40053921409527270621,3.6062663,16.313492,4.162918,2.632429,8.833606,3.3478541409527270628,3.731962,14.103643,3.6314054,2.5669677,8.876692,3.28411531409527270652,5.1726727,11.745355,3.591901,2.5186698,8.895011,3.27192041409527270653,6.976105,9.419987,3.3039982,2.5355961,8.872904,3.31854491409527270655,7.4058642,6.2464724,4.0677485,2.6048863,8.8131485,3.42248151409527270694,7.277775,5.2223525,7.713519,2.7006981,8.722006,3.57816311409527270697,5.9920883,8.3821,12.429498,2.8213036,8.6030855,3.76796671409527270699,6.2243257,16.679804,11.548432,2.9457548,8.477366,3.95312171409527270701,4.653131,19.51035,7.507618,3.051117,8.414595,4.0069521409527270723,-0.1592144,16.803705,5.000889,3.1094766,8.436471,3.9150341409527270726,-2.542642,13.583504,2.6515784,3.0869997,8.490059,3.81572341409527270727,-2.0272903,12.070967,1.0827777,3.0248725,8.529416,3.77751421409527270750,-1.1013328,11.219828,2.956839,2.9503381,8.555163,3.77823781409527270752,-1.127669,11.085154,1.395221,2.8648772,8.565271,3.82086591409527270755,-1.389834,10.305841,-0.16699557,2.762146,8.591874,3.83674621409527270777,-1.4873978,10.001179,-0.41958386,2.6605124,8.637531,3.80593321409527270779,-1.0283096,9.894637,-0.20949265,2.5628521,8.688848,3.75581381409527270793,-0.1604115,9.888053,0.362123,2.4764569,8.727908,3.7230581409527270794,0.88046765,9.420585,1.0726024,2.406852,8.755206,3.70456651409527270810,1.5819688,8.593987,1.7130513,2.3533282,8.7853775,3.66733881409527270836,1.7788919,8.198944,2.1134815,2.305183,8.826866,3.5976331409527270838,1.5873557,8.099585,2.3157916,2.2510698,8.875442,3.5113581409527270839,1.4526819,8.106767,2.5133133,2.1856277,8.922408,3.43279431409527270864,1.453879,8.180388,2.5378537,2.108869,8.965658,3.3674991409527270865,1.2473791,8.468291,2.31639,2.0278757,9.004919,3.31203151409527270866,0.81402856,8.870518,2.0919337,1.9390695,9.045688,3.25360321409527270874,0.44771573,9.196129,1.7190368,1.8475001,9.090774,3.18040751409527270891,0.15622166,9.622296,1.2898762,1.760512,9.139191,3.0896921409527270895,0.008978256,9.77792,1.0803835,1.681408,9.187854,2.98774341409527270909,-0.26994625,9.710283,0.96785605,1.6103939,9.23141,2.89103651409527270926,-0.40043023,9.644443,0.90261406,1.5461112,9.267721,2.80878781409527270928,-0.31304187,9.503783,1.4149733,1.4927737,9.297184,2.73941681409527270939,-0.2112883,9.320028,1.2779051,1.4492611,9.320586,2.68267081409527270956,0.16938977,8.826823,0.91817635,1.4088405,9.34201,2.6291451409527270957,0.6584055,8.384495,0.7236475,1.3711716,9.359126,2.58786441409527270972,0.90500826,7.6506715,0.7882909,1.3281578,9.371818,2.56426241409527270974,0.96426475,7.1826053,1.0402806,1.2763764,9.382597,2.5511051409527270990,1.2120646,7.2580223,1.4652514,1.2162311,9.396406,2.52957221409527270994,1.7280151,7.529764,1.6220716,1.1526359,9.415534,2.4878791409527271008,2.391209,7.4208283,1.8950106,1.092754,9.437482,2.43109561409527271032,2.8634653,7.165846,2.2870612,1.035977,9.458015,2.37551861409527271033,2.8832173,6.782175,2.6102784,0.9775214,9.4740305,2.33614921409527271040,2.8341362,6.616975,2.8987796,0.91456515,9.4843855,2.31957221409527271065,2.653374,7.037756,3.1597476,0.8502876,9.489105,2.32471131409527271066,2.486977,7.577648,3.0573955,0.7842754,9.490837,2.34079221409527271067,2.4235306,8.028955,2.4277205,0.7177686,9.489423,2.36771541409527271074,2.6461914,8.276755,1.8237832,0.6450506,9.488856,2.3907951409527271090,2.9945478,8.461707,1.508347,0.56978375,9.491302,2.4001961409527271095,3.4171243,8.701726,1.5095441,0.4982754,9.495756,2.39848571409527271114,3.8480806,8.966286,2.597709,0.43705857,9.499308,2.39636041409527271116,4.0623617,9.120711,2.8532898,0.39010304,9.497881,2.41007851409527271126,3.8013937,9.234436,3.5003228,0.35323286,9.492923,2.4351681409527271147,3.1519666,9.330803,3.7421372,0.31829453,9.485695,2.46792981409527271148,2.461838,9.635465,3.539827,0.27952188,9.47855,2.49986621409527271155,2.2385786,9.710283,3.0053217,0.23668402,9.473096,2.52484421409527271186,2.5875335,9.436746,1.9297266,0.19268385,9.469561,2.54178931409527271188,3.2387564,9.311649,1.8022354,0.15667415,9.4691,2.5459741409527271189,3.6900635,9.438541,2.5833437,0.1300052,9.469206,2.54708741409527271195,3.7140055,9.656414,2.6922798,0.113892704,9.470031,2.54479431409527271221,3.572149,9.866506,2.3439236,0.106906936,9.475145,2.5259851409527271224,3.2160115,10.229825,1.8417397,0.11081103,9.485352,2.4872081409527271256,2.9532478,10.773309,1.644218,0.22311522,9.524281,2.32565831409527271257,2.8700492,11.13603,1.9686323,0.22311522,9.524281,2.32565831409527271258,3.0508115,10.97502,1.9722236,0.22311522,9.524281,2.32565831409527271259,3.4823663,10.670359,0.75357497,0.302484,9.532258,2.28362771409527271275,3.7421372,10.003573,0.11971009,0.40375084,9.53897,2.2395121409527271276,3.235165,8.5862055,1.5957354,0.5147159,9.5409355,2.20817181409527271288,1.982399,6.939594,2.1362264,0.6345987,9.534323,2.20552731409527271306,-1.4036007,5.647922,1.6843209,0.75777906,9.523345,2.21405721409527271307,-2.6623523,6.4900823,2.5809495,0.8750844,9.51198,2.21965531409527271328,-3.2255883,9.28232,3.4374752,0.9928117,9.496918,2.2345671409527271329,-3.4117374,14.333487,3.3596635,1.1067598,9.477973,2.2613061409527271335,-2.7569232,19.27452,1.738789,1.2155215,9.459648,2.2820981409527271362,-1.039682,19.608511,0.66259533,1.3302647,9.447372,2.26891111409527271364,0.7625532,19.608511,1.4999673,1.4779273,9.429416,2.2521631409527271367,-0.5542577,19.337368,2.520496,1.6373279,9.402103,2.25610541409527271375,-1.2186487,17.572243,2.669535,1.7664459,9.374265,2.27447531409527271399,-0.18674773,15.237298,2.837129,1.8452572,9.35158,2.30507611409527271401,-0.03232172,11.8261595,3.41473,1.8977804,9.329271,2.35234281409527271407,-1.0666169,11.174936,5.185841,1.9375356,9.301012,2.4305381409527271432,0.3824737,14.531009,5.145139,1.9549946,9.267878,2.54063961409527271434,0.6817489,12.506711,3.6589386,1.9818029,9.235265,2.63680621409527271436,1.1354501,10.181941,2.5115175,2.0582957,9.204507,2.68530231409527271468,1.726818,9.574412,3.181894,2.1652856,9.177378,2.69400931409527271471,1.2653356,8.287529,4.035427,2.275814,9.145622,2.71083951409527271473,1.3605051,7.819463,4.6273932,2.3750994,9.1045265,2.76349161409527271478,1.9357121,7.6111674,4.6722846,2.4642441,9.05658,2.84187941409527271505,2.4654293,6.851607,3.3770216,2.549497,9.005351,2.92815951409527271507,2.3463178,6.2009826,2.581548,2.6305287,8.955917,3.0070361409527271508,2.2307975,5.589264,1.8980033,2.693076,8.912528,3.07970671409527271531,2.0895395,4.987122,1.5119383,2.739122,8.873097,3.1521011409527271532,1.8746599,4.3783965,1.4568717,2.7734735,8.833104,3.23334241409527271535,1.5915456,3.9522285,1.411382,2.8007247,8.788995,3.32865121409527271566,1.3910311,3.9336734,1.471237,2.8230772,8.741732,3.43260311409527271570,1.2354081,3.9103298,1.5801731,2.8429132,8.694084,3.5356931409527271572,1.0145429,3.8774097,1.6310499,2.8633134,8.649355,3.627741409527271575,0.75357497,3.8774097,1.5933412,2.8818104,8.611435,3.70253061409527271595,0.57161564,3.74513,1.5915456,2.8931706,8.580216,3.76561161409527271603,0.717662,3.5739446,1.774702,2.9002347,8.557287,3.81206821409527271607,1.1713632,3.41892,2.1517887,2.9000545,8.54398,3.8419381409527271622,1.608305,3.4213142,2.8832173,2.8914063,8.540265,3.8566871409527271638,2.0386627,3.5996823,3.6104562,2.872896,8.546803,3.85603671409527271639,2.3971944,3.964798,4.2521024,2.8438296,8.564754,3.83771131409527271657,2.8311436,4.7518916,5.005079,2.8018742,8.596224,3.79800341409527271658,3.4165258,6.2105594,5.8963203,2.7457814,8.641416,3.73591161409527271673,4.2012253,8.197746,6.001665,2.6771255,8.697185,3.6554581409527271675,3.9881415,11.416152,5.365406,2.6009245,8.761257,3.5561161409527271688,2.995745,10.697293,5.345654,2.5141923,8.832011,3.44162871409527271706,1.9069817,12.373833,6.344036,2.4254878,8.897636,3.33458351409527271708,2.1260512,15.692795,5.925649,2.3334668,8.948906,3.262271409527271723,2.3415294,15.47612,4.9057193,2.2584727,8.989786,3.20209861409527271736,3.376423,13.997102,4.3406878,2.2166262,9.015785,3.15793921409527271737,5.3402667,11.917738,4.372411,2.2243276,9.015839,3.1523681409527271756,6.703765,9.121908,4.4717703,2.2872145,8.982109,3.20324371409527271757,7.1305313,7.156269,6.1866174,2.3817058,8.917036,3.3142631409527271771,6.5906386,8.277354,10.588956,2.48988,8.823388,3.48119331409527271775,6.974908,15.136143,11.352706,2.6089325,8.702855,3.69109271409527271790,6.161478,19.455282,8.076241,2.734518,8.597809,3.84323861409527271805,1.3808558,17.747618,5.456984,2.838283,8.562534,3.84675741409527271807,-1.1049241,14.815919,3.3506854,2.8785322,8.569981,3.79998281409527271821,0.16340427,12.082937,1.816002,2.874026,8.60591,3.72138021409527271838,0.9498995,9.670779,1.846528,2.8576407,8.625872,3.68763181409527271839,0.38965634,8.143877,3.4009635,2.818496,8.618644,3.73435951409527271855,0.025139118,7.9852614,4.0773253,2.7468574,8.603956,3.82061621409527271855,-1.1456255,7.1634517,3.2674868,2.662397,8.6068,3.87362961409527271870,-1.0672154,7.5171947,2.2535424,2.578649,8.634958,3.86761711409527271875,-0.6787562,8.152257,1.276708,2.5028408,8.6754675,3.82654521409527271889,-0.18195933,8.780735,0.81642276,2.4404647,8.713611,3.77988461409527271904,0.56802434,9.411008,0.7266402,2.3883798,8.74703,3.73570591409527271907,1.4185646,9.467871,1.2569559,2.340441,8.780905,3.68624831409527271921,2.100912,9.611523,1.9740193,2.2948759,8.821068,3.61838171409527271937,2.2224178,9.913791,1.8495208,2.2433429,8.87379,3.52046131409527271938,2.055422,9.634866,1.2084733,2.177301,8.938278,3.39660841409527271954,1.5831659,9.111135,1.009156,2.0955648,9.004504,3.27076721409527271955,1.0708067,8.795698,1.4185646,1.9978105,9.062354,3.17062741409527271970,0.6344634,8.748413,1.7675194,1.8886442,9.108873,3.1035231409527271977,0.23463176,8.991425,1.9859903,1.7747128,9.150539,3.0476931409527271992,0.16639702,9.355343,2.0709844,1.6622474,9.194248,2.97877981409527271995,0.29149407,9.390657,1.9027919,1.557118,9.240452,2.89133451409527272007,0.39504328,8.887876,1.4975731,1.4609752,9.284638,2.79847171409527272024,0.32441434,8.377312,1.1947067,1.3694757,9.325263,2.70820861409527272042,0.14185645,7.961319,1.3640964,1.2825154,9.359122,2.6329391409527272043,-0.17238252,7.867945,1.395221,1.2017969,9.385248,2.57744121409527272047,-0.29328972,7.5770497,0.6428431,1.1306953,9.404955,2.53746631409527272056,-0.12509704,7.507618,0.3752911,1.0695987,9.421652,2.50176671409527272075,0.10534488,7.7087307,0.62967503,1.0134274,9.437827,2.46389411409527272077,0.29388827,8.258799,1.0941502,0.9568561,9.455709,2.41750961409527272088,0.801459,8.955511,1.5107412,0.8967272,9.476914,2.35676841409527272115,1.5741876,9.259575,1.8339585,0.8353264,9.501101,2.28072621409527272116,2.4462755,9.033323,1.7986441,0.7768613,9.525186,2.1994831409527272122,3.4584243,8.93935,1.785476,0.7189118,9.546339,2.12625741409527272157,3.9199066,8.683769,2.1380222,0.66480553,9.564192,2.06268551409527272160,3.9097314,8.438962,2.4953568,0.61068463,9.575571,2.02629951409527272161,3.8229415,8.306085,2.4905684,0.55916667,9.57922,2.0239211409527272163,3.8139634,8.261193,2.3834279,0.5108089,9.575482,2.05416851409527272181,3.8295257,8.154053,2.4510639,0.4638608,9.566672,2.10571221409527272182,4.1341877,8.310873,2.641403,0.4131775,9.556152,2.1632471409527272187,4.3526587,8.382699,2.9191303,0.36102864,9.547227,2.21144991409527272211,4.4442368,8.387487,3.1292217,0.3125472,9.541514,2.2432591409527272213,4.020463,8.103176,3.2034419,0.2729406,9.536816,2.26826521409527272216,3.4943373,7.699154,3.560178,0.23807606,9.529469,2.30281931409527272248,3.0107086,7.3873096,3.6469676,0.20215705,9.519458,2.34721541409527272250,1.7202339,7.9607205,3.4213142,0.16842662,9.506594,2.40140061409527272251,1.6011224,8.790312,2.4211364,0.12849852,9.495947,2.44558241409527272256,1.929128,9.504981,1.3078327,0.09061258,9.491707,2.46367571409527272279,2.4211364,9.989806,1.4401124,0.059659228,9.493891,2.45619371409527272280,2.8604724,10.564415,2.0003555,0.037852615,9.499124,2.43630721409527272288,3.1376014,11.134833,2.1811178,0.024692982,9.505937,2.40975761409527272314,2.9406781,11.320983,2.0560207,0.018384675,9.514817,2.37451271409527272316,2.4271219,11.656171,1.8423382,0.0162085,9.525681,2.33056141409527272318,1.7938557,11.640609,2.3511062,0.018726913,9.537982,2.27967861409527272349,1.0061632,11.3323555,2.259528,0.028822191,9.548768,2.23396131409527272351,0.92296475,10.949283,1.3557167,0.040039897,9.558903,2.19001771409527272353,1.3611037,10.664372,1.0642227,0.06738383,9.569,2.14477971409527272356,1.9087774,9.993398,2.2571337,0.1156934,9.576591,2.10854131409527272376,1.5652094,9.546879,2.3882163,0.1840164,9.579512,2.09033441409527272377,0.49081135,8.834005,1.0055647,0.26475736,9.5830965,2.0650821409527272388,-0.80205756,7.5962033,0.038307227,0.35416248,9.589338,2.02226281409527272407,-2.3900118,6.5337763,0.19812019,0.45760065,9.593765,1.98006271409527272409,-3.3279405,6.9707184,1.1330559,0.57804835,9.593447,1.94988141409527272424,-2.2972364,9.356541,3.5745432,0.7189115,9.588169,1.92888671409527272430,-1.0223241,19.120693,3.6900635,0.88758576,9.573218,1.93289471409527272436,0.94690675,19.608511,3.5356374,1.054666,9.553698,1.94548761409527272459,1.3401544,19.608511,4.19105,1.249414,9.525557,1.96802911409527272460,0.22266077,18.781315,3.9187095,1.430214,9.487076,2.0298441409527272467,-0.15981296,15.278,3.0783448,1.5534366,9.450003,2.11060861409527272485,0.8158242,11.520899,2.5875335,1.6276528,9.415496,2.20671031409527272487,-0.20649989,7.2424603,3.819949,1.6706125,9.380903,2.3190691409527272505,-0.15263036,11.606491,4.9200845,1.6808205,9.345143,2.45225291409527272525,0.8738836,14.001291,4.1305966,1.6690547,9.311486,2.5847431409527272527,0.94092125,10.891224,2.3918076,1.6979263,9.282681,2.66819741409527272529,0.9552865,7.9583263,1.7890673,1.7959867,9.25893,2.68645861409527272536,1.5448587,7.5788455,3.1106665,1.924107,9.234346,2.68236111409527272559,1.5394717,7.0263834,4.0426097,2.052534,9.202342,2.69711261409527272560,1.8698715,7.0485296,4.2880154,2.1853461,9.156142,2.74949571409527272567,2.0937295,7.1664443,3.9234982,2.3127964,9.100246,2.82964591409527272585,2.1823149,6.9306154,2.938284,2.4322395,9.0420265,2.91485121409527272587,1.9680338,6.2446766,2.179322,2.5398722,8.986638,2.993291409527272602,1.5873557,5.1624975,1.7824832,2.6254628,8.936384,3.06893521409527272623,1.264737,4.0575733,1.596334,2.6864505,8.89055,3.14825421409527272625,1.0552444,3.965995,1.6567876,2.731337,8.845883,3.23427531409527272628,1.103727,3.9306808,1.845331,2.767817,8.79983,3.3275441409527272639,1.1492168,3.8013937,1.9746178,2.8004432,8.751406,3.42648841409527272658,1.1623849,3.9103298,1.9237411,2.8325064,8.702459,3.52342151409527272659,1.0684125,4.020463,1.903989,2.8660867,8.654358,3.61358981409527272673,1.0474633,4.32333,1.8854338,2.8940299,8.6119585,3.6917681409527272690,1.3916297,4.597466,2.0386627,2.9196608,8.576856,3.75280121409527272692,1.8483237,4.6830587,2.4774003,2.9429998,8.548991,3.79787851409527272708,2.2744915,4.8261123,3.1387985,2.9622316,8.528026,3.82992771409527272709,2.4660277,5.117606,3.828927,2.9741552,8.515114,3.84937021409527272716,2.468422,5.2642508,4.5543704,2.9747674,8.512622,3.8544041409527272739,2.6072857,5.54557,5.4085016,2.95887,8.523608,3.8423431409527272741,3.0137014,6.1884127,6.1076083,2.922065,8.550172,3.81136231409527272755,3.6290112,7.5345526,6.4218473,2.8656518,8.592574,3.75847051409527272756,4.079121,8.965088,6.1806316,2.7954745,8.644155,3.69246821409527272771,4.309563,9.16261,5.2852,2.724274,8.705058,3.60148381409527272786,2.939481,8.869919,5.3049526,2.6523004,8.76973,3.496791409527272790,2.0308816,12.508507,6.6480994,2.5776274,8.828747,3.4028621409527272803,5.583877,17.394474,4.699818,2.4976358,8.876896,3.33660361409527272817,6.5427547,14.180857,5.1541176,2.4772308,8.912604,3.25564151409527272818,7.5148005,10.824186,5.878962,2.5140176,8.903702,3.25179821409527272835,7.949947,7.5225816,5.8364654,2.5956247,8.84801,3.33854061409527272836,7.6973586,5.7377043,7.5411367,2.699633,8.756656,3.49332791409527272851,5.8825536,7.1047935,11.558009,2.8148503,8.638334,3.6913681409527272856,5.237316,14.383166,11.129447,2.9263685,8.507391,3.9026991409527272868,3.9833531,18.90342,7.8984714,3.0228744,8.403856,4.0506571409527272882,-0.24121583,17.294516,5.09127,3.0915983,8.372113,4.0644951409527272888,-1.6154876,14.833876,2.355296,3.1093721,8.391678,4.0102281409527272902,-0.65900403,11.713632,0.6769605,3.0897965,8.426581,3.9517451409527272922,-0.7068881,8.856153,1.2216414,3.045924,8.442564,3.9516891409527272924,-1.1336545,8.136695,3.1022868,2.963382,8.43607,4.0275911409527272942,-1.4191631,8.60117,3.6008794,2.8482368,8.429048,4.12420851409527272943,-1.6938977,8.758589,2.6551697,2.7292423,8.447557,4.166581409527272948,-1.7938557,8.505402,2.1589713,2.6240134,8.4953785,4.1368451409527272956,-1.4095862,8.74542,2.1272483,2.5348604,8.549062,4.0814721409527272970,-0.5781997,9.597756,1.5705963,2.4640403,8.590613,4.03735881409527272981,0.37828386,9.975441,1.0426749,2.4085085,8.628187,3.99046971409527272988,2.207454,9.164406,1.910573,2.3650386,8.664628,3.93715551409527273003,2.7455509,9.232041,2.0242975,2.3361876,8.703601,3.86780951409527273022,3.044826,9.731233,1.6867151,2.30489,8.753044,3.77386981409527273024,2.9759927,9.632472,1.1402385,2.2649407,8.810936,3.66167431409527273029,2.585738,9.07582,0.97982705,2.210051,8.869801,3.55143521409527273037,2.0374656,8.850166,1.4311341,2.1355116,8.92347,3.46145681409527273056,1.5987282,9.0429,2.142212,2.0434544,8.971128,3.39316251409527273057,1.22224,9.213487,2.4732103,1.942845,9.015748,3.33347631409527273068,0.86610246,9.3499565,2.3415294,1.8429096,9.060693,3.26771351409527273082,0.4345476,9.241618,1.9919758,1.7465892,9.105485,3.19530131409527273088,0.12509704,8.953716,1.5406688,1.6486309,9.152272,3.11260721409527273103,-0.19931729,8.488642,1.09834,1.5508567,9.196861,3.03034331409527273120,-0.6703765,8.242638,1.0289081,1.4547082,9.234973,2.96133831409527273122,-0.8062474,7.841609,1.2910733,1.3671569,9.264395,2.9107151409527273138,-0.961272,7.435792,0.98700964,1.2927573,9.285882,2.87603661409527273140,-0.95947635,7.574057,0.5267244,1.2250437,9.304326,2.8459051409527273156,-0.81522566,7.7530236,0.3196259,1.1570691,9.323072,2.81281071409527273157,-0.5506664,7.9068513,0.492607,1.0870533,9.343705,2.7719871409527273168,0.036511578,9.012972,1.7998412,1.0177851,9.367997,2.71572451409527273182,0.95468795,9.703101,2.0093338,0.94982547,9.395814,2.64327811409527273192,2.1559787,9.56723,2.0081367,0.8910846,9.424227,2.56131081409527273208,3.063381,9.323022,2.110489,0.8390601,9.4519415,2.47531181409527273209,3.1256304,8.600571,2.27928,0.7920944,9.474233,2.40456061409527273217,2.9269116,8.223484,2.4672248,0.7400072,9.488431,2.36484121409527273245,2.7216089,8.376713,2.5671828,0.682517,9.494329,2.35845071409527273246,2.498948,8.532935,2.3523033,0.621006,9.492594,2.38230851409527273248,2.5474305,8.31207,1.9393034,0.558078,9.48583,2.42445141409527273268,2.9550436,8.239047,1.8303672,0.491504,9.4791565,2.46463081409527273270,3.390788,8.389881,2.0458453,0.42055488,9.476116,2.4893281409527273287,3.7259765,8.188768,2.4289176,0.35085648,9.475391,2.50284671409527273289,3.9360676,7.8386164,2.954445,0.288912,9.472142,2.52298121409527273306,4.0946836,7.6506715,3.506907,0.23334882,9.4652195,2.55451971409527273308,3.911527,7.4866686,4.4155064,0.18608387,9.452094,2.60646841409527273316,3.413533,7.8092875,4.200627,0.14374249,9.434711,2.67132071409527273334,2.7377696,8.365341,3.8564603,0.101438366,9.419821,2.7252691409527273337,2.742558,8.890868,2.5797524,0.057335827,9.408984,2.76371311409527273349,3.6445735,8.970475,1.3652935,0.01778101,9.402246,2.78708461409527273372,4.286818,9.091981,2.8341362,-0.01096132,9.398431,2.79996161409527273374,3.6966474,9.564238,3.233968,-0.031362887,9.39357,2.81607271409527273377,3.2908301,10.312426,2.871845,-0.055635672,9.3925705,2.81902811409527273389,3.0735564,10.831967,2.885013,-0.071671516,9.398074,2.8002581409527273405,2.4432828,11.104307,3.2561142,-0.06553071,9.406263,2.77278141409527273409,1.661576,11.128249,2.823961,-0.051077057,9.417303,2.73536131409527273417,1.7172412,10.867282,1.8848352,-0.01780271,9.431474,2.68651751409527273437,2.2056582,9.953894,1.8686744,0.04108071,9.44687,2.6316111409527273440,2.3145945,9.274539,2.6426,0.1277226,9.458901,2.58519841409527273457,2.0284874,9.768942,2.2762873,0.23418115,9.468648,2.54170631409527273458,0.85054016,9.81922,1.0821792,0.3541883,9.482292,2.47610191409527273469,-0.5770026,9.060856,0.61770403,0.47871813,9.497781,2.39444541409527273488,-1.8740613,8.53054,1.2282255,0.60668004,9.506559,2.3297361409527273505,-2.4013844,9.573814,2.3062148,0.73742294,9.506988,2.28993461409527273506,-2.0697873,13.133393,2.9831753,0.87248766,9.501252,2.2661331409527273510,-1.3018472,18.388666,3.0705638,1.003856,9.492923,2.2465691409527273517,0.34596214,19.608511,2.819771,1.1318952,9.483433,2.22569161409527273535,0.05865794,19.608511,2.7204118,1.2752055,9.46699,2.2181841409527273537,-1.5969325,19.307442,2.5091233,1.3881868,9.447217,2.23460031409527273549,-1.6190789,11.554418,2.303222,1.4276356,9.431193,2.27703021409527273569,-2.03148,8.301296,3.8367083,1.4504068,9.402414,2.3793571409527273570,-3.0220811,10.876859,4.908712,1.4456955,9.362898,2.5330831409527273589,-1.4760253,13.264476,4.1461587,1.4045419,9.320528,2.70654751409527273591,-0.49200845,10.56681,2.9897594,1.3839457,9.2843485,2.83830451409527273597,0.12090719,7.864354,2.606687,1.4386858,9.255201,2.90548541409527273616,0.557849,6.405088,2.7880478,1.5521264,9.225891,2.94010781409527273617,1.0881647,6.1596823,3.2812533,1.6787852,9.191203,2.97890421409527273634,1.9979613,6.8091097,3.8660371,1.8169864,9.145214,3.03875111409527273637,2.815581,7.280169,3.952827,1.9639343,9.089129,3.11465641409527273653,2.8413188,6.899491,3.1465795,2.1188219,9.028464,3.18870431409527273666,2.2942438,6.136339,2.005144,2.2664132,8.970416,3.25044731409527273668,2.1206641,5.394735,1.4927847,2.3892376,8.919228,3.3029271409527273683,1.9063832,4.601057,1.3730747,2.4871032,8.871553,3.35860731409527273699,1.6819267,4.3807907,1.2844892,2.5661817,8.823929,3.42394691409527273700,1.4628572,4.1946416,1.3275849,2.6342356,8.775067,3.4970561409527273713,1.2324153,3.7152026,1.1857284,2.6946921,8.724965,3.57547661409527273717,1.0893618,3.5194764,1.1881226,2.747195,8.674985,3.65622071409527273730,0.84216046,3.4997244,1.4371196,2.7950854,8.625961,3.73505881409527273745,0.6206968,3.494936,2.2002714,2.8358939,8.580206,3.80895851409527273770,0.6452374,3.5930982,2.4067712,2.8707736,8.538399,3.87618281409527273772,0.8882488,3.8804023,2.6940753,2.8990614,8.502827,3.9329071409527273774,1.1031284,4.2730513,3.0202854,2.919456,8.475682,3.97617751409527273786,1.4185646,4.735731,3.5003228,2.9322007,8.457967,4.00442171409527273796,2.0129251,5.327099,4.425682,2.9378693,8.450026,4.01701161409527273797,2.7072437,5.9292407,5.453393,2.935602,8.451791,4.01495461409527273821,3.4476504,6.915652,6.211158,2.926034,8.464021,3.99613481409527273822,4.245518,8.236652,6.7043633,2.9083822,8.490735,3.95210581409527273829,4.8937483,9.7958765,6.6708446,2.8911138,8.524808,3.89095071409527273837,5.057751,10.963648,6.269217,2.8626568,8.577596,3.79479581409527273858,4.506486,10.796653,6.232107,2.8254535,8.642777,3.67281821409527273859,4.5765166,11.738173,6.6600704,2.779349,8.707308,3.55364351409527273871,5.229535,15.446791,6.5403605,2.7350674,8.759809,3.45768141409527273890,5.6563015,15.83944,5.4402246,2.6982884,8.800375,3.38275581409527273892,5.671864,13.173496,5.2409077,2.6814508,8.820062,3.34465841409527273897,6.120178,10.852917,5.4474072,2.6922612,8.803352,3.37980841409527273921,7.086837,8.8884735,5.485116,2.7309346,8.752011,3.48061511409527273923,7.712322,6.646304,7.5842323,2.792651,8.674445,3.6229141409527273929,5.228338,6.975507,12.218808,2.8739238,8.573,3.79666021409527273955,5.437232,14.404715,11.5155115,2.9383917,8.454086,4.00807481409527273957,4.959589,19.591753,6.949769,2.9916606,8.364164,4.1546521409527273958,-0.40222588,18.125303,4.605247,3.0443676,8.347793,4.14928671409527273969,-1.6106992,14.855423,2.3008277,3.0381439,8.384327,4.07959941409527273988,-0.9624691,11.967417,1.1905168,3.019322,8.431044,3.99644681409527273990,-0.7978677,9.788095,1.4933833,2.9971187,8.457255,3.95758721409527273998,-1.2467805,8.907029,2.5552118,2.9528093,8.463063,3.97842431409527274019,-1.4221559,8.832211,2.4636335,2.8693566,8.47342,4.01725531409527274021,-1.6555905,8.644265,1.5951369,2.7757967,8.505805,4.01455071409527274039,-1.4227544,8.625112,1.2354081,2.6948957,8.559809,3.95444271409527274040,-0.81522566,8.862138,1.1731589,2.6317368,8.617888,3.86993071409527274051,-0.14425065,8.839992,0.86729956,2.589739,8.664338,3.79379681409527274071,0.7356185,8.419808,0.74639237,2.5590775,8.690489,3.75458771409527274073,1.7184383,7.6829934,1.0073603,2.5371606,8.708313,3.7280691409527274078,2.633622,7.3059063,1.34195,2.5124304,8.733824,3.68488861409527274102,2.8299465,7.5052238,1.7705121,2.4804227,8.774443,3.6093041409527274104,2.855684,8.254609,2.2541409,2.4354403,8.829139,3.50504471409527274128,2.681506,9.181165,1.9099745,2.374642,8.890711,3.3892081409527274130,2.0961237,8.871116,2.1918917,2.2980502,8.953836,3.27386211409527274132,1.6837224,8.933964,2.6599581,2.2099411,9.011186,3.17571409527274159,1.4694413,9.0237465,2.7952304,2.1180818,9.062543,3.0910291409527274160,1.2587515,9.183559,2.5623944,2.0260015,9.110949,3.00937531409527274161,0.724246,9.390059,2.2816741,1.9454075,9.157186,2.9209151409527274169,0.2124854,9.463082,1.7226281,1.8746456,9.200137,2.8308261409527274180,0.15322891,9.204509,1.163582,1.8084351,9.238376,2.7481591409527274197,0.30166942,9.030929,1.13964,1.7498327,9.270133,2.6782671409527274198,0.6242881,9.129091,1.6938977,1.7055062,9.294644,2.62130141409527274214,1.0199299,9.683948,1.7657237,1.6768216,9.311682,2.5790021409527274218,1.2126632,10.053253,1.1408371,1.6551958,9.324575,2.54617261409527274240,1.471237,9.546879,0.5267244,1.6260704,9.337619,2.5169771409527274241,1.3988123,8.685565,0.39683893,1.5785618,9.352895,2.49036261409527274249,1.4053963,8.339603,0.7386112,1.509824,9.372184,2.4602871409527274271,1.340753,8.380903,1.417966,1.435081,9.392988,2.4254281409527274272,1.4820108,8.510789,2.0512323,1.3526059,9.417551,2.3770951409527274278,1.775899,8.182783,2.4552538,1.2728429,9.443032,2.31935551409527274306,2.5737667,8.073847,2.629432,1.1982216,9.465292,2.26779941409527274307,3.9594111,8.164826,2.6300306,1.1298262,9.480338,2.23988081409527274310,3.8097734,7.873931,2.6408045,1.0711648,9.485947,2.24495461409527274318,3.425504,7.759608,2.6581624,1.0048139,9.484185,2.2827551409527274335,3.0783448,7.9583263,2.7341783,0.924967,9.478477,2.33951451409527274338,2.861071,7.8068933,2.6072857,0.8333558,9.472593,2.39705941409527274350,2.823961,7.4615297,2.5809495,0.73444134,9.469725,2.44034981409527274366,2.944868,7.2699933,2.771887,0.63344806,9.4681835,2.47439811409527274383,2.96881,7.303512,3.2908301,0.53535366,9.469224,2.49350861409527274384,2.8137856,7.429208,4.257489,0.44736558,9.468856,2.51217941409527274400,2.6258407,7.978079,4.0659533,0.3766393,9.462226,2.54848861409527274404,2.3127987,8.689755,3.3261447,0.32289457,9.4510145,2.59700681409527274414,2.4833858,9.317635,2.5785553,0.27824104,9.440488,2.64010831409527274417,3.165733,9.4217825,1.4951789,0.23760684,9.43508,2.6633051409527274430,3.7116113,9.206305,1.1408371,0.19910613,9.437008,2.65963321409527274446,3.7163997,9.211691,2.0087352,0.16152656,9.444126,2.63681751409527274449,3.2866404,9.664195,2.9215245,0.12567674,9.452065,2.61018131409527274462,2.5570073,10.338163,2.8293478,0.09406368,9.459277,2.58526851409527274479,2.0572178,11.098322,2.397793,0.063860916,9.46735,2.55648371409527274480,1.6310499,11.481394,2.8018146,0.04389292,9.478083,2.51682691409527274496,0.050278235,10.897209,2.0494366,0.03688976,9.489902,2.47200631409527274498,0.5255273,10.708067,1.1773487,0.02994915,9.504249,2.41635321409527274519,1.4024036,10.143036,2.2098482,0.046051703,9.518564,2.35906431409527274520,1.441908,9.720459,2.3582888,0.091899194,9.526142,2.32691981409527274530,0.97982705,9.432556,1.0253168,0.15864414,9.531797,2.30001431409527274554,-0.01316811,8.701726,0.078410104,0.24327897,9.543492,2.24342661409527274556,-1.1330559,8.237849,0.22445641,0.34574386,9.55905,2.1622781409527274558,-1.9578584,8.474277,0.6488287,0.46771637,9.571268,2.08385921409527274580,-2.4756045,9.888053,1.4377182,0.61089635,9.576121,2.0236311409527274581,-1.4371196,12.926295,1.9261353,0.7583814,9.575246,1.97735111409527274599,-0.34356794,17.327436,2.3385365,0.92474246,9.565228,1.95490071409527274600,0.60214174,19.608511,2.5139117,1.1018953,9.54631,1.95555251409527274612,0.57520694,19.608511,2.8449101,1.2805698,9.518706,1.98110141409527274618,-0.9516952,19.378668,2.5629928,1.4339219,9.485185,2.03605581409527274630,-1.7298107,16.645687,2.5713725,1.5173924,9.457101,2.1050331409527274645,-1.4838065,12.400169,3.1992521,1.5453213,9.430996,2.19970971409527274649,-0.53091425,9.560047,4.0336313,1.548162,9.399341,2.32937171409527274661,-1.6130934,9.361329,4.9224787,1.5490532,9.36106,2.47818351409527274678,-0.5434838,12.124836,4.23235,1.5479693,9.323219,2.61758731409527274679,0.7990648,8.1343,2.4582467,1.5864688,9.285824,2.72524931409527274694,1.5640123,6.6947865,2.7802668,1.6725938,9.255046,2.77794151409527274698,2.207454,6.3643866,3.5350387,1.8034625,9.220896,2.8094491409527274718,3.2501287,6.7522473,4.449624,1.9540399,9.177068,2.8519421409527274720,3.9630024,7.1071877,4.494515,2.1174216,9.120672,2.91552161409527274730,3.915717,6.851607,3.6601357,2.2832487,9.057,2.98796081409527274751,3.376423,6.215946,2.677316,2.4349978,8.994035,3.05753181409527274754,2.883816,5.3887496,2.2421699,2.5548465,8.937795,3.1239381409527274758,2.4193408,5.058948,2.1428106,2.6387315,8.888247,3.19477341409527274778,2.095525,4.4418426,1.9722236,2.6948035,8.842534,3.27383881409527274779,1.7411832,3.828927,1.8004397,2.7366827,8.796023,3.3631731409527274796,1.5646108,3.650559,1.7764976,2.7711933,8.748192,3.45832851409527274804,1.3605051,3.554791,1.929128,2.7967932,8.698331,3.5619311409527274830,1.2910733,3.6224272,2.1440077,2.8128853,8.648688,3.66855071409527274832,1.2779051,3.7229836,2.2385786,2.8234568,8.602099,3.76860331409527274833,1.1133038,3.787627,2.1260512,2.8326845,8.562656,3.8506111409527274850,1.4598645,4.0162735,2.3199813,2.8395596,8.53367,3.90944551409527274853,1.941099,4.192846,2.9933507,2.8426647,8.515477,3.9466821409527274865,3.0184898,4.5801077,4.6405616,2.8421595,8.506133,3.96714021409527274879,3.2974143,5.849633,5.234922,2.8389056,8.503617,3.97486071409527274880,3.7582982,6.558317,5.692813,2.8250952,8.514925,3.96046731409527274895,4.301782,7.565677,6.1704564,2.7985716,8.54122,3.9224951409527274898,4.768651,8.839393,6.4523735,2.7677374,8.5741,3.87231611409527274911,4.823119,10.094553,6.389526,2.7215471,8.6220045,3.79797431409527274928,4.506486,10.208278,6.0716953,2.6631951,8.681874,3.70173341409527274930,3.7187939,8.759786,5.605425,2.6010609,8.743734,3.5988851409527274942,3.1244333,10.95467,6.669049,2.5452895,8.797686,3.50608681409527274961,3.551798,16.265009,6.232107,2.497267,8.839509,3.43469741409527274962,3.5206735,15.948975,5.031415,2.452403,8.881071,3.35897141409527274976,4.396353,14.205398,4.6393642,2.4235384,8.909663,3.30375051409527274978,5.9244523,12.100894,5.3342814,2.430824,8.905298,3.31015871409527274994,7.207744,8.817246,4.4873323,2.4767985,8.855394,3.40849731409527274998,7.760206,5.0140567,3.7307649,2.5414798,8.783212,3.54492071409527275019,6.9078703,2.3983915,6.2554507,2.6200013,8.682415,3.73117281409527275021,5.849035,3.1226375,10.561422,2.7115972,8.563791,3.9343511409527275030,4.1934443,8.307879,12.556391,2.8270326,8.439502,4.11741541409527275053,5.309142,15.446791,8.036138,2.9313815,8.358268,4.2091261409527275055,-1.2539631,13.430873,3.8576574,3.0209122,8.370945,4.11968141409527275058,-1.1450269,13.02326,1.6621746,3.017222,8.43856,3.98214481409527275079,-0.52253455,13.059772,0.45609543,2.973281,8.502584,3.87763761409527275080,-1.0989386,12.858659,1.7950528,2.8970098,8.553748,3.82244871409527275095,-1.4766239,12.545018,1.9782091,2.7692876,8.604121,3.8040171409527275098,-2.0524294,11.8578825,0.22565351,2.6126776,8.668083,3.76943611409527275116,-2.0266917,11.21085,-0.78050977,2.4682014,8.741081,3.69754981409527275136,-1.1749545,11.288661,-0.21787235,2.3306952,8.821104,3.5953241409527275138,-0.47165772,10.836157,0.20171149,2.2164578,8.88653,3.50532341409527275139,-0.1412579,9.801263,0.825401,2.131738,8.922479,3.46633361409527275151,0.32022446,8.554482,1.4993688,2.0732436,8.935902,3.46723651409527275166,0.9355343,7.519589,2.32058,2.0282223,8.946778,3.46581751409527275170,1.5053543,7.2262993,2.8927941,1.9848517,8.966232,3.4405581409527275178,1.9901801,7.8224554,3.3279405,1.9367532,8.994993,3.39256051409527275196,2.3600843,8.554482,3.1387985,1.8809447,9.029058,3.33294561409527275198,2.086547,8.5622635,2.404377,1.8161367,9.0645275,3.2720631409527275217,1.4077905,8.173206,2.0362685,1.7398314,9.100166,3.2140861409527275219,0.84216046,8.207323,1.9405005,1.6528327,9.135774,3.15851021409527275230,0.39983168,8.591593,1.7082629,1.5653737,9.173393,3.09335471409527275248,-0.46387658,9.503783,1.06123,1.4812614,9.215848,3.00739261409527275265,-0.88405895,9.558251,0.8726865,1.3993627,9.263411,2.8985191409527275266,-1.2318168,9.583391,0.7266402,1.3230801,9.309269,2.7852031409527275279,-1.2348095,9.627684,1.0935516,1.2532072,9.349372,2.68125461409527275280,-1.2078748,9.896433,1.4347254,1.1917988,9.381255,2.59654571409527275294,-0.81522566,9.948506,1.1707647,1.1356102,9.405519,2.53318291409527275299,-0.37229836,9.217676,0.44711718,1.0849087,9.423413,2.48850441409527275312,-0.019153614,8.34918,0.21906945,1.0366333,9.436043,2.4610711409527275330,0.051475335,7.6847887,0.5931635,0.9877635,9.446067,2.44265031409527275332,0.12749124,7.8865004,1.2372037,0.9291424,9.454979,2.43114471409527275352,0.50278234,8.526949,1.7184383,0.86142206,9.468361,2.4038471409527275353,1.3748703,8.9758625,1.5616181,0.7925626,9.488364,2.34801861409527275358,2.4929626,8.779537,1.6418238,0.72723806,9.512026,2.27219751409527275377,3.2070332,8.488044,1.982399,0.66184044,9.5322695,2.20639821409527275378,3.514688,7.9409685,2.3540988,0.59344596,9.543448,2.17733651409527275393,3.6858735,7.699753,2.6252422,0.52561057,9.543634,2.19389411409527275398,3.620033,7.623737,2.4774003,0.45888197,9.535818,2.24231481409527275411,3.5356374,7.5405383,2.2409728,0.38826123,9.526253,2.29568581409527275427,3.3836055,7.6728177,2.2744915,0.31099224,9.519007,2.33712891409527275430,3.5613751,8.200141,2.3020248,0.2293037,9.512619,2.37231421409527275447,3.8307228,8.119935,2.3277626,0.15165684,9.508136,2.3964031409527275459,3.8426938,7.9032598,2.6180596,0.08198606,9.503777,2.41700341409527275460,3.6337996,7.872135,3.2620997,0.022148557,9.497393,2.44324141409527275476,3.465607,8.118139,3.7702692,-0.027140228,9.487365,2.48184971409527275479,3.0855274,8.365939,3.8307228,-0.06714476,9.474514,2.52971721409527275495,2.7377696,8.646061,3.4512417,-0.10235475,9.462663,2.5725341409527275499,2.7389667,8.949526,2.9861681,-0.13460502,9.454866,2.59957121409527275511,3.3195608,9.4295635,2.5264814,-0.16162454,9.450527,2.61377551409527275528,4.0156746,9.599552,2.7210102,-0.17834772,9.448489,2.62004231409527275530,4.377199,9.6923275,3.496133,-0.18453372,9.447366,2.62366581409527275543,4.104859,9.931747,3.781043,-0.18566579,9.445407,2.6306311409527275557,3.4278982,10.359711,3.288436,-0.18643852,9.445212,2.63127161409527275559,2.7246015,11.196485,2.4534583,-0.1896775,9.449298,2.61633351409527275576,2.106299,11.908161,2.9741971,-0.19027247,9.45849,2.58285671409527275579,1.3180081,11.91295,3.6828809,-0.1822909,9.4684515,2.5466831409527275595,0.8499416,11.16117,2.4199393,-0.16353929,9.476496,2.5178751409527275599,1.3377602,9.8994255,1.1282675,-0.12962314,9.484227,2.49058941409527275618,0.83258367,7.4866686,2.2984335,-0.07341595,9.488784,2.4754791409527275620,-0.024540568,7.2245035,1.1695676,-0.004863076,9.488611,2.47722321409527275631,-0.7374141,7.055712,1.0073603,0.077890396,9.495498,2.44945761409527275654,-1.3874398,7.819463,1.7100586,0.16753092,9.5052395,2.4068111409527275655,-1.3509283,10.149619,2.8089972,0.2794947,9.516252,2.35228281409527275659,-0.7332243,14.444219,3.845088,0.4186351,9.521779,2.3088681409527275680,0.8762778,19.193716,3.2788591,0.58433264,9.519133,2.28364921409527275681,3.0083144,19.608511,2.7952304,0.78297913,9.510674,2.2592971409527275696,2.4774003,19.608511,2.8562827,1.014372,9.4904375,2.25234531409527275711,0.52373165,19.277514,2.4522612,1.2118864,9.463599,2.26759961409527275712,-0.694917,15.278598,2.0578163,1.3263913,9.439799,2.30244471409527275727,-0.44472298,10.4249525,2.3002293,1.3778169,9.411997,2.38460451409527275730,-1.7112557,8.653842,3.738546,1.3979503,9.374293,2.51769421409527275745,-1.0319009,12.677298,3.8468835,1.3866274,9.332116,2.67567831409527275763,-0.32920274,12.234969,2.4833858,1.3673894,9.293321,2.81688481409527275764,-0.15502456,9.578004,1.5849615,1.3975613,9.266,2.8911051409527275777,-0.17717093,7.338228,1.6861166,1.4893769,9.245353,2.91129141409527275779,-0.025139118,6.585252,2.731784,1.6065487,9.218804,2.93309241409527275794,0.6961141,6.9784994,3.9522285,1.7290796,9.17811,2.99048231409527275810,1.8602947,6.7522473,4.0144777,1.8571026,9.123595,3.07922171409527275811,1.5179238,5.9346275,2.7521348,1.9887501,9.063185,3.17395161409527275826,1.2659341,4.9757495,1.7681179,2.10383,9.00782,3.25629661409527275830,1.1420342,4.2916064,1.3946224,2.1941376,8.959669,3.3287331409527275842,0.98102415,3.899556,1.3227965,2.2595367,8.916436,3.40030121409527275861,0.8858546,3.7427359,1.4107834,2.3064003,8.875302,3.47561571409527275863,0.7781156,3.7852328,1.5993267,2.347514,8.832615,3.5559051409527275886,0.7505822,3.8744168,1.7136499,2.3835378,8.789682,3.6373921409527275887,0.6667852,4.019266,1.8764555,2.4237876,8.747375,3.71201751409527275891,0.6721721,4.336498,1.9919758,2.46949,8.7069,3.7764931409527275910,0.8158242,4.5801077,2.0817583,2.5178652,8.668862,3.83165551409527275911,1.0654198,4.8099513,2.1709423,2.5658588,8.633763,3.8787741409527275929,1.7417817,5.130774,2.3918076,2.6108723,8.603108,3.9166661409527275931,2.2984335,5.2983685,2.7910407,2.651839,8.578553,3.94291231409527275945,2.8401217,5.3396683,3.5182793,2.6855116,8.560962,3.95832731409527275961,3.2902317,5.493496,4.560954,2.7055194,8.55203,3.96400791409527275962,3.454833,5.4803276,5.498883,2.7174847,8.546294,3.96818881409527275976,3.7666779,5.7664347,6.4260373,2.7093334,8.552889,3.95954321409527275979,4.173094,6.5948286,7.0784574,2.6775105,8.575185,3.93287731409527275993,4.469376,9.269751,6.9784994,2.6214123,8.614838,3.88370731409527276009,4.3041763,10.31063,6.2985463,2.5431373,8.673454,3.8044761409527276011,3.882198,10.333973,5.963358,2.4525142,8.743414,3.70247051409527276027,3.0903158,10.609306,6.667852,2.3634489,8.810386,3.60022471409527276045,3.4003649,14.314932,6.7330937,2.2868748,8.860489,3.52594951409527276046,3.2094274,15.729306,5.6156,2.2356393,8.8933735,3.47565721409527276057,3.5811272,14.226945,5.0092683,2.2112746,8.909477,3.44990971409527276059,5.240309,12.923901,5.0104656,2.226709,8.899093,3.46674441409527276077,6.317101,10.1699705,4.6495395,2.270738,8.871532,3.5085671409527276079,5.695806,6.261436,6.1381345,2.3531086,8.818112,3.58805681409527276095,5.0385976,5.708974,11.009736,2.439372,8.7342615,3.73263121409527276109,4.8021703,11.361684,11.233594,2.536733,8.609246,3.95173931409527276111,5.1080294,18.350359,6.821679,2.6412637,8.493585,4.12954571409527276126,1.364695,17.365744,4.255095,2.7442803,8.46015,4.1310041409527276142,-1.0043676,14.988301,3.0262709,2.7883985,8.496164,4.0262141409527276143,-0.9504981,12.681488,1.4371196,2.7837338,8.549748,3.91446421409527276159,-0.91338795,10.554838,2.042254,2.7477863,8.582848,3.86714431409527276160,-0.9056068,10.412383,3.5901055,2.6686559,8.596097,3.89304451409527276175,-0.78410107,10.848726,0.2885013,2.5586596,8.61056,3.93470791409527276179,-1.2653356,9.994595,-0.14903906,2.4602933,8.647493,3.91640421409527276192,-1.1264719,9.794081,-0.19812019,2.3613412,8.695716,3.87026861409527276211,-0.6596026,9.459491,0.207697,2.278156,8.734324,3.83301281409527276213,0.11791443,9.156625,0.94690675,2.2132623,8.754451,3.8251091409527276226,0.9660604,8.846576,1.4173675,2.1629145,8.770572,3.81697061409527276241,1.6154876,8.634688,1.7986441,2.1220615,8.798294,3.77587871409527276242,1.9841946,9.064447,2.1823149,2.0838876,8.840675,3.69733141409527276257,2.0368671,9.512762,2.3714569,2.0384881,8.892646,3.59663871409527276259,1.8680758,9.240421,2.2786815,1.9782009,8.946383,3.4956141409527276274,1.4012065,8.575432,2.204461,1.902356,8.995611,3.41034031409527276279,0.85293436,8.417415,2.2457612,1.8140349,9.040927,3.33785841409527276291,0.3854665,8.553286,2.0973208,1.7195144,9.082146,3.27540831409527276315,-0.01316811,8.684368,1.7477672,1.6220204,9.124089,3.20787141409527276317,-0.09756372,8.779537,1.3928268,1.5296746,9.17,3.12115171409527276320,-0.2753332,8.7849245,1.1677719,1.4471695,9.2183275,3.0163781409527276348,-0.7032967,8.932168,1.0139444,1.3721218,9.264333,2.90857741409527276350,-0.76075757,9.201516,1.009156,1.300381,9.3046255,2.81129031409527276353,-0.729633,9.593566,1.3640964,1.2376541,9.337092,2.73080971409527276359,-0.24839842,9.799467,0.91578215,1.185843,9.362238,2.66695481409527276375,0.18974048,9.43076,0.516549,1.1419348,9.382759,2.6134671409527276390,0.5793968,8.84059,0.28550854,1.0971668,9.399039,2.573851409527276411,0.98102415,8.224083,0.5021838,1.0513982,9.41285,2.54228331409527276412,1.3916297,8.049905,1.1204864,0.9972164,9.424286,2.521661409527276414,1.8908207,8.408437,1.5460558,0.9357621,9.437332,2.49629781409527276437,2.5037365,8.574235,1.9758149,0.87013566,9.455085,2.45247271409527276439,3.1573534,8.288726,2.247557,0.80501366,9.476038,2.39312151409527276440,3.6403837,8.070854,2.432509,0.74052846,9.495664,2.3354631409527276462,3.9372647,8.124125,2.5941176,0.6758206,9.50883,2.30126621409527276464,3.9384618,7.6841903,2.5611973,0.6133049,9.512937,2.30179881409527276478,3.7457285,7.1604586,2.379238,0.5511976,9.50926,2.33249191409527276480,3.6332011,7.1550717,2.291251,0.48311377,9.502266,2.37569931409527276491,3.436278,7.359776,2.3235726,0.40996802,9.494838,2.41875221409527276507,3.271078,7.6931686,2.3750482,0.33265257,9.489079,2.45298171409527276511,3.292626,7.8865004,2.4905684,0.25602192,9.486047,2.47381641409527276526,3.3494883,7.728483,2.7670987,0.18033582,9.484542,2.48623061409527276543,3.305794,7.3849154,3.1591492,0.10787907,9.482051,2.49989031409527276544,3.0705638,7.2634096,3.705027,0.04039704,9.476427,2.52311281409527276557,2.1158757,7.6201453,3.5003228,-0.020060353,9.466372,2.56081911409527276559,1.7250223,8.169016,2.9616275,-0.078299195,9.454004,2.60500841409527276573,2.1200657,8.850765,2.2361844,-0.131562,9.442331,2.64489151409527276579,3.3010056,9.226056,1.6352397,-0.17643735,9.434279,2.67088751409527276592,4.51726,9.336788,2.0452468,-0.20623526,9.431068,2.68007851409527276610,4.8123455,9.646238,2.9215245,-0.22137685,9.429125,2.6857021409527276612,4.3448777,10.061034,3.1627405,-0.2289535,9.42889,2.68588921409527276633,3.7445314,10.621876,2.971803,-0.23834202,9.4306345,2.6789411409527276635,3.093907,11.23539,3.5733461,-0.24622458,9.43491,2.66312551409527276640,1.6831238,11.312004,3.8492777,-0.24520898,9.440636,2.64285041409527276662,1.163582,10.963648,2.8580782,-0.23830716,9.449073,2.61316181409527276663,1.5394717,10.831368,2.195483,-0.21228388,9.46178,2.56906321409527276671,2.510919,11.2928505,2.5091233,-0.15676089,9.474022,2.52759481409527276680,2.5779567,11.59871,1.79206,-0.07061631,9.483916,2.49414281409527276694,1.6011224,11.3323555,0.46926352,0.028707843,9.498269,2.43976571409527276715,0.4854244,10.29387,-0.13347675,0.1300505,9.519929,2.350411409527276717,-0.88645315,9.261371,0.65182143,0.22613275,9.541795,2.25242421409527276721,-2.047641,9.34397,1.4221559,0.3335676,9.559574,2.16186521409527276749,-2.7431567,11.052234,1.9057846,0.4540157,9.569283,2.09596631409527276752,-1.965041,18.822016,1.982399,0.58303154,9.571187,2.05496381409527276754,-1.7411832,19.608511,1.8626889,0.70769393,9.571334,2.01473241409527276761,-2.5181017,19.595345,1.7776948,0.83311653,9.564048,2.00131871409527276790,-3.17531,17.61893,2.0045455,0.93189144,9.551602,2.01713591409527276793,-3.039439,13.901334,2.9047651,0.9932522,9.53338,2.07328271409527276798,-1.939902,10.824186,3.560178,1.0260063,9.505758,2.1813481409527276817,-2.5785553,9.017162,4.4101195,1.0470501,9.468914,2.32674621409527276818,-2.4552538,12.326548,4.374805,1.0531111,9.427593,2.48633171409527276820,-1.1623849,13.232154,3.1531637,1.0475603,9.387009,2.63763171409527276848,-0.6512229,10.248381,2.202067,1.0683174,9.354686,2.7420671409527276849,0.26515785,8.095394,2.0488381,1.1464492,9.329741,2.7949961409527276853,0.7835025,6.8611836,2.574964,1.2697774,9.306278,2.81979441409527276861,1.1109096,6.290765,3.2902317,1.4146435,9.276074,2.85019781409527276888,2.2505496,6.751649,4.2700586,1.5675169,9.236931,2.89695951409527276889,3.1974564,7.2352777,4.7046065,1.728391,9.188765,2.9579831409527276892,3.3237505,6.9767036,3.958214,1.8917117,9.133706,3.02774291409527276923,2.9694088,6.499659,2.734777,2.0350175,9.079672,3.09655621409527276925,2.6617537,5.97892,2.0883424,2.143563,9.032792,3.15977861409527276926,2.094328,5.2498856,1.8166006,2.2297766,8.988654,3.22530411409527276959,1.572392,4.4783545,1.8740613,2.29245,8.947737,3.29440121409527276963,1.2240356,4.26946,1.939902,2.3381534,8.905651,3.37532281409527276965,0.7625532,3.9989154,2.023699,2.3768206,8.860558,3.46577761409527276967,0.80924016,3.9378633,2.291251,2.4105017,8.812485,3.5637051409527276982,0.8750807,3.882198,2.345719,2.4389155,8.763182,3.66452461409527276984,0.96426475,3.8827965,2.2750902,2.4640694,8.715036,3.76123711409527276992,1.2354081,3.9755719,2.3463178,2.489596,8.670768,3.84578941409527277010,1.5975311,4.0922894,2.6521769,2.5150397,8.633274,3.91299651409527277014,1.9955671,4.2143936,3.289633,2.5371697,8.604532,3.96171361409527277036,2.4899697,4.510676,4.1078515,2.5531623,8.585784,3.9920011409527277037,3.1352072,5.039196,4.863222,2.568468,8.571287,4.0132771409527277041,3.6487634,5.6269727,5.4845176,2.572277,8.569197,4.01530461409527277063,4.235343,6.3350577,6.0238113,2.563601,8.5825815,3.99219681409527277064,4.650737,7.5722613,6.4164605,2.5405374,8.613162,3.9407491409527277072,4.7004166,9.196129,6.7211227,2.50185,8.660862,3.86013051409527277097,4.3754034,10.55843,6.791752,2.4503746,8.7208185,3.75677541409527277099,4.0384197,10.675147,6.2925606,2.393666,8.7830105,3.64684681409527277103,3.5063083,10.089765,6.7971387,2.3469632,8.836577,3.5464131409527277139,4.212598,14.573505,7.4932528,2.3189695,8.871063,3.47807651409527277142,4.457405,15.68681,4.068946,2.3097281,8.889832,3.4360531409527277144,5.072715,12.238561,3.364452,2.320224,8.909879,3.37653921409527277149,6.4463882,8.595184,2.7688942,2.350805,8.899725,3.3821631409527277176,7.179612,5.4180784,3.6978445,2.4085042,8.847871,3.47630071409527277180,6.2105594,3.5930982,7.913435,2.485148,8.75589,3.65086771409527277182,4.4681787,6.353613,11.510723,2.5773585,8.626137,3.88810591409527277204,4.845266,15.2492695,9.495404,2.673886,8.483757,4.1287521409527277205,2.8383262,19.455881,6.7624226,2.7715516,8.403057,4.22818231409527277206,-2.6916811,16.11238,4.420295,2.8304431,8.414463,4.16602851409527277229,-3.3093853,14.097059,1.8680758,2.8175697,8.473855,4.05283451409527277230,-1.9740193,11.611878,0.51475334,2.7692916,8.534613,3.95749741409527277232,-1.2084733,9.720459,2.429516,2.6981788,8.560897,3.94984411409527277240,-0.8158242,10.101735,4.284424,2.6027834,8.564923,4.00475071409527277266,-0.57161564,10.1861315,2.8933928,2.4793017,8.565753,4.0806051409527277269,-0.7074866,10.000581,1.6525977,2.3676422,8.591106,4.09360071409527277273,-0.5189432,9.923966,1.4850036,2.276149,8.638981,4.04444741409527277306,-0.0712275,9.933543,1.1246762,2.2024105,8.679972,3.99723321409527277309,0.599149,9.486425,1.0085574,2.1489208,8.70274,3.97678831409527277315,1.2378023,8.585009,2.2200236,2.1120567,8.721641,3.9550711409527277347,2.4636335,8.511986,3.0280666,2.082638,8.749205,3.9095321409527277350,2.8293478,9.487623,3.6008794,2.0579236,8.790048,3.83019731409527277354,3.0556,10.14543,3.0873232,2.0258389,8.841033,3.7286051409527277357,2.823961,9.757569,2.3259668,1.979203,8.896866,3.61924431409527277358,2.1428106,8.990826,1.9566613,1.9148929,8.952127,3.51610781409527277378,1.3892355,8.887277,1.9560628,1.837097,9.003072,3.4263911409527277379,0.7918822,8.953716,1.8034325,1.746245,9.049596,3.35049531409527277381,0.47225627,8.960898,1.4891934,1.6533349,9.09623,3.2703931409527277392,0.22804771,9.126697,1.429937,1.5671594,9.1451845,3.17490321409527277426,-0.007182605,9.197925,1.3970166,1.487223,9.194599,3.06885861409527277430,-0.4213795,9.030929,1.2659341,1.4087505,9.240641,2.96586751409527277431,-0.8870517,8.854955,1.436521,1.3286729,9.280725,2.876311409527277456,-0.9911995,9.054273,1.75076,1.2498907,9.313158,2.80593011409527277465,-0.88166475,9.065046,1.8351556,1.1765332,9.338583,2.75264621409527277468,-0.9487024,8.765172,0.9911995,1.1088123,9.360536,2.7057931409527277509,-0.61291564,8.215105,0.57400984,1.0419983,9.379243,2.66729381409527277512,-0.29867667,7.665635,0.39264908,0.9770627,9.393984,2.63985061409527277514,0.2100912,7.4112515,0.29987377,0.91406584,9.406723,2.61695081409527277516,1.5897499,8.447941,1.3874398,0.8554979,9.42222,2.58075361409527277518,2.1272483,8.632295,1.9590555,0.8062933,9.442185,2.52297951409527277541,2.914342,8.45213,2.3385365,0.75831836,9.4661255,2.44700051409527277543,3.5242648,7.8589673,2.5073278,0.70595855,9.489749,2.36995221409527277546,3.5811272,7.5495167,2.292448,0.64615273,9.506899,2.31770131409527277547,3.4919431,7.305308,2.1883004,0.5814178,9.514329,2.30432321409527277566,3.5871127,7.3962874,2.3139958,0.5170263,9.51197,2.32927471409527277568,3.5859156,7.717709,2.4762032,0.45375207,9.505282,2.36941461409527277573,3.6403837,8.11395,2.4636335,0.395478,9.494905,2.42090561409527277596,3.7708676,8.26658,2.4756045,0.3377825,9.486876,2.46079041409527277598,4.033033,8.3629465,2.7180176,0.279349,9.484184,2.47842551409527277601,4.0617633,8.158242,3.1794999,0.22259194,9.4845085,2.48293041409527277628,3.821146,7.8170686,3.675698,0.1691849,9.482631,2.4942911409527277630,3.3183637,7.566276,4.288614,0.12031039,9.4749775,2.52600551409527277633,2.6874914,7.668628,3.7541082,0.07530586,9.461717,2.57694721409527277641,2.1865046,8.257003,3.0783448,0.030211452,9.449177,2.62345931409527277663,2.271499,8.829217,2.1080947,-0.015293577,9.440652,2.65409761409527277665,3.1471782,9.068638,1.1731589,-0.05875892,9.436316,2.6688791409527277673,4.23235,9.221268,1.4251486,-0.09542685,9.435027,2.67236921409527277695,4.1264067,9.98442,3.0202854,-0.118094906,9.436415,2.66655611409527277697,3.3704374,10.629059,2.7623103,-0.13507915,9.438161,2.65956071409527277701,2.984971,11.294646,2.5450363,-0.1531717,9.443346,2.64010241409527277731,2.273893,11.275493,3.1920695,-0.16197723,9.45107,2.61178871409527277733,0.95109665,10.954071,3.2387564,-0.16077983,9.459,2.58299761409527277735,0.61052144,10.614694,2.0602105,-0.15274054,9.468926,2.54685951409527277741,1.5292963,10.5291,1.6801311,-0.12441088,9.482328,2.49806761409527277771,2.0177135,10.414778,2.2284033,-0.062394205,9.494064,2.45544671409527277774,1.8148049,10.007165,1.7986441,0.025456587,9.502432,2.42353651409527277780,1.2132617,9.233239,0.6817489,0.11571889,9.511406,2.38540121409527277811,0.05746084,8.265383,0.47105917,0.22034846,9.525673,2.32021881409527277812,-1.2497733,7.889493,0.84934306,0.33642697,9.541839,2.23841951409527277813,-1.9500773,8.831013,1.46585,0.46711475,9.553357,2.1646121409527277814,-2.2026656,11.666347,2.3720553,0.613936,9.556182,2.11491781409527277821,-1.6759412,16.615759,3.032855,0.768963,9.549919,2.0923981409527277842,0.04249708,19.608511,2.8042088,0.9231413,9.535682,2.0949851409527277844,0.50757074,19.608511,2.690484,1.0931221,9.514087,2.1113121409527277858,-0.93732995,19.593548,2.610877,1.2470417,9.488338,2.14166261409527277872,-2.244564,17.409437,2.4582467,1.3285916,9.467725,2.18344431409527277873,-1.4490906,10.338163,3.3022027,1.3460776,9.448005,2.25691961409527277893,-2.5911248,8.075643,4.5394063,1.3796035,9.415097,2.37129071409527277894,-1.043872,12.620436,4.301183,1.3814582,9.375415,2.52261231409527277902,-0.16879122,11.683704,3.1597476,1.377668,9.336644,2.664491409527277929,0.53211135,8.993818,2.3624785,1.4163246,9.302493,2.76189351409527277930,0.99060094,7.478289,2.4552538,1.5216514,9.27291,2.8050131409527277933,1.2844892,6.728904,3.003526,1.6631261,9.244489,2.81848221409527277942,2.079364,6.612785,3.8115692,1.8158875,9.209513,2.83863431409527277971,2.835932,6.71394,4.4861355,1.9733467,9.164613,2.87856751409527277974,3.0472202,6.8665705,4.237737,2.1320982,9.110692,2.93595531409527277984,3.0705638,6.6085954,3.4105403,2.2786424,9.054372,2.9994221409527278011,2.8485014,6.0645127,2.7682958,2.4023883,9.0021105,3.0595641409527278015,2.285864,5.3923407,2.3199813,2.506329,8.952765,3.12036971409527278016,2.0805612,4.8255134,2.1051018,2.5847921,8.909374,3.17998271409527278017,1.9476831,4.5501804,1.9961656,2.641233,8.869032,3.24569941409527278021,1.702876,4.38917,1.839944,2.68801,8.827429,3.31986281409527278035,1.6382325,4.3317094,1.7363948,2.731018,8.783075,3.40139721409527278041,1.4939818,4.423288,1.869273,2.7709358,8.736338,3.48837071409527278056,1.3024458,4.5687356,2.2379801,2.8061244,8.688684,3.57810571409527278074,1.5340848,4.7016134,2.1877017,2.8329613,8.643552,3.66520791409527278075,1.762731,4.7375264,2.308609,2.8509762,8.605187,3.7407321409527278088,2.067393,4.778228,2.794632,2.8613522,8.575833,3.79975531409527278112,2.3666685,4.8883615,3.582923,2.8705847,8.550891,3.8486891409527278113,2.6994624,5.09546,4.3167458,2.8693862,8.535891,3.88273361409527278114,3.116652,5.5102553,5.0014873,2.8589456,8.531631,3.89975431409527278121,3.645172,6.133346,5.539584,2.8374903,8.539882,3.89736751409527278145,4.2293572,7.165247,5.9867015,2.802568,8.562775,3.8723251409527278146,4.6441526,8.347982,6.4763155,2.753063,8.601795,3.8210161409527278153,4.6561236,9.339182,6.546346,2.6915445,8.6540365,3.74615051409527278175,4.8045645,9.913192,6.165668,2.6207924,8.714658,3.6546641409527278176,4.4484267,9.333197,6.0848637,2.55116,8.77429,3.56002831409527278181,3.9911342,10.3214035,6.8043213,2.4893165,8.821092,3.48740961409527278211,4.4765587,14.684836,6.3512187,2.438903,8.849373,3.45119331409527278213,4.422689,15.544953,5.071518,2.3901212,8.876891,3.41445661409527278214,4.753089,13.374011,4.256292,2.3655357,8.893767,3.38755631409527278222,5.8999114,11.345523,4.6830587,2.376085,8.882591,3.40942621409527278245,6.9689226,8.835203,4.9895163,2.4267652,8.832187,3.5033831409527278247,5.5222263,7.8062944,9.946113,2.5082738,8.74455,3.66221621409527278254,5.5539494,14.116213,8.59698,2.5937588,8.618822,3.89341971409527278285,3.3333273,17.505205,7.0874357,2.686437,8.517448,4.05049751409527278287,-0.96665895,15.449185,5.81791,2.7529852,8.482729,4.07857751409527278289,-2.055422,13.540408,4.3305125,2.77633,8.505295,4.01526551409527278311,-1.3509283,11.088146,2.4366987,2.773561,8.549265,3.92273351409527278312,-1.1468226,8.713697,2.392406,2.7498248,8.574744,3.88363651409527278314,-1.0474633,8.453926,2.4271219,2.7001498,8.582101,3.90219451409527278322,-1.1079168,9.054871,1.2162545,2.6193786,8.580622,3.96007511409527278344,-1.2916719,9.279327,0.4189853,2.522089,8.599707,3.98177241409527278345,-1.3377602,9.670779,0.5662287,2.4311874,8.6458645,3.93811751409527278354,-0.8194155,10.439917,0.40342298,2.3500407,8.701372,3.86443331409527278380,-0.18076223,10.794857,0.25198972,2.2829533,8.749385,3.79562521409527278382,0.7020996,10.334572,0.46806642,2.2293675,8.78837,3.73695851409527278383,1.4161704,9.547478,0.84096336,2.1841843,8.8252,3.67634991409527278417,1.6795325,8.924985,1.3533225,2.137009,8.867466,3.60161521409527278418,1.6771383,9.012374,2.0721815,2.0802739,8.917318,3.51059341409527278421,1.8662802,9.527725,2.492364,2.0133443,8.968136,3.41897371409527278423,1.9734207,9.405023,2.5498247,1.9389529,9.020242,3.3235681409527278445,1.6555905,8.371924,2.9735985,1.8601897,9.067724,3.23828171409527278446,1.0360907,8.209119,2.8927941,1.7796161,9.107041,3.17256281409527278455,0.4890157,8.14687,2.6641479,1.699008,9.142483,3.11428711409527278475,0.16759412,8.26658,2.1577742,1.6222553,9.178576,3.04834961409527278476,-0.07182605,8.191761,1.5532384,1.5534096,9.216487,2.96878621409527278481,-0.40701428,8.099585,1.0217255,1.493857,9.253233,2.88383171409527278505,-0.43754035,8.27077,0.82779527,1.4388131,9.286639,2.80330681409527278509,-0.2801216,8.721478,1.3012487,1.3861278,9.315739,2.73240541409527278528,0.22325931,9.574412,1.7154455,1.338973,9.338978,2.67601251409527278530,0.7218518,10.356119,1.240795,1.2986223,9.35918,2.62482711409527278537,1.2940661,10.308834,0.7577648,1.262545,9.377849,2.5753351409527278571,1.7603368,9.465476,0.6039374,1.2256806,9.396097,2.5261541409527278573,1.7717092,8.595782,0.88765025,1.178532,9.41334,2.48405221409527278576,1.7411832,8.27077,1.4089876,1.1141733,9.43089,2.44690161409527278577,1.9249382,8.221688,1.9231426,1.0390993,9.449929,2.40613771409527278594,2.2230163,8.265982,2.3181858,0.96526456,9.469682,2.35876851409527278595,2.8125885,8.685565,2.569577,0.90003073,9.487738,2.31152991409527278602,3.2626984,8.715493,2.5127146,0.8449105,9.501493,2.2755521409527278622,3.7972038,8.604761,2.606687,0.794138,9.509578,2.26001881409527278625,4.0803185,7.7709804,2.4229321,0.74492055,9.513984,2.2582331409527278643,3.7846344,7.6069775,2.4594438,0.69550943,9.512837,2.27872591409527278644,3.5218706,7.3950906,2.2972364,0.64585036,9.5074625,2.31547361409527278654,3.4901476,7.269395,2.1655555,0.5903883,9.5006485,2.35785561409527278680,3.8307228,7.3909006,2.2906525,0.52854854,9.49525,2.3940041409527278682,4.0958805,7.630321,2.6078842,0.46642333,9.492514,2.41765171409527278683,4.26946,7.9996266,3.0184898,0.40754256,9.491265,2.43314551409527278714,3.9857473,8.169016,3.5607765,0.3554685,9.488976,2.45018121409527278716,3.8073792,8.422203,4.0940847,0.3070783,9.483414,2.47810221409527278717,3.1675289,8.567651,3.696049,0.2613444,9.474182,2.518331409527278722,2.291251,8.678981,3.4901476,0.20959319,9.465115,2.55696421409527278752,2.0763714,8.692149,2.8485014,0.14842224,9.456958,2.5912061409527278754,2.5911248,8.5383215,1.8142064,0.084176265,9.451593,2.61355881409527278756,3.4506433,8.264186,1.6633717,0.023521746,9.449361,2.62286661409527278777,3.9414546,8.158841,2.5474305,-0.027106473,9.448822,2.62477521409527278778,3.5745432,8.388085,3.157952,-0.06741583,9.448737,2.62435441409527278783,2.6485856,9.057863,2.694674,-0.103119016,9.450441,2.6170471409527278812,1.9075803,10.303447,1.7609353,-0.13593568,9.456871,2.59220031409527278814,1.4149733,10.965444,2.303222,-0.15855996,9.469412,2.54469971409527278816,0.39983168,11.398195,1.602918,-0.16310397,9.4830065,2.49326871409527278822,1.797447,11.049839,1.1300632,-0.15096973,9.498306,2.43512061409527278849,3.2519245,9.846753,1.9063832,-0.097879946,9.510866,2.38835361409527278851,3.1812954,8.831013,1.7579426,-0.01969247,9.517971,2.3618251409527278854,1.7675194,7.9852614,1.1474211,0.077139646,9.52226,2.34329681409527278878,0.12569559,7.1311297,1.3012487,0.180742,9.531389,2.30007431409527278879,-1.3186066,7.28795,1.6591818,0.29447243,9.543691,2.23643521409527278882,-2.087744,8.8777,1.9428947,0.42278177,9.553091,2.17487621409527278919,-2.1972785,12.285248,2.2146366,0.5637831,9.557114,2.1246431409527278920,-1.1414356,16.83902,1.9871874,0.714745,9.556014,2.08377031409527278922,0.7224504,19.589956,1.5544355,0.8803088,9.551925,2.03866581409527278924,0.81043726,19.608511,2.2493525,1.0702308,9.543814,1.98509541409527278946,-0.75716627,19.608511,2.2038627,1.2393326,9.529774,1.95393461409527278948,-2.3481133,18.48982,1.673547,1.3349366,9.521783,1.92976571409527278954,-2.2661119,15.333066,1.9153614,1.3867663,9.513762,1.93277191409527278976,-2.2284033,11.124659,2.3714569,1.4007474,9.499619,1.99136671409527278978,-3.6499605,7.12694,4.1276035,1.4010706,9.477089,2.09575531409527278982,-1.9871874,12.897565,3.9953241,1.3890786,9.449784,2.22315431409527279010,-0.9660604,13.312959,1.8291701,1.3940301,9.426109,2.31852361409527279012,1.073201,9.012972,2.2188265,1.4740996,9.4087305,2.33949571409527279015,2.0093338,8.774749,3.5164838,1.6248751,9.385287,2.33378311409527279024,2.2744915,8.244433,4.3394904,1.7968973,9.350966,2.34541921409527279056,2.7216089,8.300697,4.514866,1.9720012,9.302944,2.39516741409527279057,3.1352072,7.943961,3.9312792,2.1415308,9.246294,2.4678521409527279062,3.247136,7.4310036,3.152565,2.3045707,9.186841,2.54190231409527279063,3.015497,6.657676,2.6378117,2.4545603,9.128462,2.61088631409527279093,2.498948,5.9011087,2.2266076,2.5793104,9.07445,2.67804031409527279095,2.0572178,5.557541,1.9003977,2.6761937,9.0243225,2.75135561409527279096,1.7166426,5.201403,1.7010803,2.7501528,8.97522,2.83769421409527279102,1.4670471,4.8374844,1.7100586,2.808784,8.92406,2.93977641409527279120,1.4850036,4.5914803,1.8680758,2.858496,8.868899,3.05646971409527279124,1.5885528,4.4957123,1.9716251,2.902373,8.809887,3.1831661409527279135,1.6585833,4.5723267,2.03148,2.9393806,8.750788,3.30970741409527279154,1.5460558,4.4687777,2.067393,2.9668171,8.696258,3.42687941409527279156,1.5011644,4.4478283,2.1697452,2.9828424,8.649721,3.52921341409527279167,1.6142905,4.498705,2.3505075,2.9940886,8.607225,3.62236051409527279183,1.79206,4.469376,2.6641479,2.991641,8.574557,3.70100621409527279184,2.2050598,4.140772,3.9252937,2.9770463,8.552049,3.76431181409527279200,2.3648727,4.060566,4.449624,2.9502082,8.538903,3.8149431409527279202,2.6880898,4.279037,5.063138,2.9080143,8.539216,3.8465071409527279216,3.020884,4.829105,5.805341,2.8492463,8.555277,3.8547911409527279222,3.4033577,5.7963624,6.5469446,2.7749245,8.586781,3.8389311409527279236,3.99293,7.4405804,6.7360864,2.6888623,8.631952,3.79865931409527279253,4.446631,9.303867,6.133346,2.5971427,8.689866,3.72981141409527279254,4.6525326,10.005967,5.5659204,2.5093014,8.756387,3.6331111409527279267,4.256292,8.9519205,5.309142,2.4365704,8.821562,3.52328941409527279284,3.54282,10.592546,6.622362,2.3765993,8.876683,3.42441871409527279285,3.6086605,15.66586,6.5726824,2.331023,8.913735,3.35887341409527279299,3.7014358,16.52059,4.96318,2.3020568,8.944177,3.29736571409527279302,4.791396,14.857219,4.2012253,2.30017,8.968022,3.23329231409527279315,6.591237,12.696451,5.1379566,2.342046,8.967462,3.20466181409527279333,7.5094137,10.327988,7.480085,2.4198234,8.928212,3.25605231409527279334,7.0569096,10.899005,10.236409,2.5096085,8.845024,3.41142231409527279355,7.5572977,16.109386,7.599795,2.5994353,8.7305975,3.63180231409527279357,3.9019501,18.220474,6.1387334,2.7048824,8.645247,3.756821409527279363,-1.9776106,17.350182,4.9254713,2.7709763,8.621388,3.76347471409527279393,-1.7016789,10.91337,1.543063,2.7761564,8.6360035,3.72596241409527279395,-0.9367314,6.8492126,1.3150153,2.815166,8.647925,3.66860031409527279396,-0.6847417,5.032612,3.0220811,2.829758,8.635901,3.68565851409527279403,-0.54168814,4.7081976,4.210802,2.779367,8.607048,3.79002121409527279422,-0.56323594,5.3923407,3.4231098,2.6909666,8.578883,3.91559051409527279424,-0.51116204,6.066907,2.7760768,2.608439,8.5762415,3.97674751409527279435,-0.1316811,7.419631,2.6605566,2.5471618,8.605581,3.95301821409527279461,0.50876784,9.004593,2.1936872,2.5075831,8.64716,3.88703371409527279463,1.4347254,10.041881,1.4269443,2.4896579,8.685,3.81349751409527279465,2.7629087,10.893618,1.2300211,2.4826746,8.723218,3.72990561409527279492,3.5314474,11.455657,1.2473791,2.472799,8.771761,3.62102841409527279494,3.1202433,12.169128,1.4927847,2.454246,8.8269005,3.49755571409527279495,2.204461,12.58153,1.1402385,2.4152484,8.89657,3.34484771409527279503,1.4532804,11.637017,0.9020155,2.3459308,8.975182,3.18011241409527279521,0.95468795,10.511144,1.299453,2.252943,9.049238,3.03412631409527279534,0.7739257,9.794679,1.8674773,2.1442223,9.110295,2.92834541409527279535,0.7302315,9.1255,2.510919,2.028557,9.158357,2.86004761409527279551,0.47345337,8.347982,2.64679,1.915526,9.196891,2.8139581409527279554,0.18914193,7.690176,2.3930047,1.8140756,9.229988,2.77251961409527279563,-0.1352724,7.028179,1.1659763,1.7260666,9.260349,2.72708581409527279581,-0.32022446,6.847417,0.88645315,1.646968,9.290335,2.67349741409527279589,-0.65182143,6.867768,1.0295067,1.5695915,9.31934,2.61853241409527279608,-0.4961983,6.9569516,1.6077064,1.4913526,9.346259,2.56782341409527279609,-0.55246204,7.3244615,1.2467805,1.4134574,9.369036,2.52857451409527279614,-0.5614403,7.629722,0.55964464,1.3374995,9.389325,2.49440861409527279632,-0.4345476,7.768586,-0.095169514,1.2624404,9.4093485,2.457811409527279636,-0.4369418,7.969699,-0.1592144,1.1852973,9.4307995,2.41360781409527279650,-0.090979666,8.483853,0.3393781,1.102193,9.454693,2.3588881409527279656,0.46208093,9.111135,1.0857705,1.0174987,9.481265,2.28925661409527279676,1.4203602,9.504382,1.5933412,0.9319325,9.509837,2.20565371409527279678,2.541445,9.524733,1.8579005,0.846062,9.538079,2.11651181409527279683,3.3435028,9.022549,2.0404584,0.7658473,9.563075,2.03260351409527279707,3.8989575,8.655039,2.3666685,0.6935499,9.583873,1.95927761409527279708,4.1222167,8.498219,2.681506,0.63211894,9.596308,1.91877321409527279714,4.128801,8.464102,2.7114334,0.5850985,9.598123,1.92460621409527279738,4.0677485,8.366538,2.4809916,0.54868984,9.590823,1.97115521409527279739,4.1036615,8.4647,2.2152352,0.5112958,9.579081,2.03720431409527279743,4.23235,8.418612,2.099715,0.46552375,9.5674,2.10202841409527279772,4.570531,8.7370405,2.7856536,0.4120365,9.55889,2.15133241409527279773,4.3783965,8.690353,3.3147724,0.36083743,9.552651,2.18792921409527279775,4.020463,8.400057,4.092888,0.3132072,9.546977,2.21979671409527279784,3.4979286,8.046912,4.1611223,0.2683315,9.538619,2.26122521409527279827,2.5617957,8.140884,4.018069,0.22105822,9.527887,2.31104231409527279828,1.8507179,8.496424,3.2423477,0.16513394,9.516656,2.36143921409527279830,1.893215,8.639477,1.9698294,0.10587591,9.507067,2.40309981409527279831,2.5222914,8.582615,1.3461399,0.04912819,9.500534,2.43060561409527279841,3.4596214,8.676587,1.9333179,0.003105273,9.4960985,2.44836641409527279875,3.899556,9.124303,2.4552538,-0.026895387,9.493561,2.45804671409527279877,3.6912606,9.742605,2.5677812,-0.044292733,9.494729,2.45327521409527279878,3.2106245,10.427945,2.4157495,-0.055557493,9.499913,2.43289071409527279880,2.8125885,11.226412,2.5965118,-0.06097557,9.507732,2.40201971409527279884,2.0853498,11.66874,3.0083144,-0.054574326,9.516536,2.36705541409527279916,1.3437457,11.226412,2.6617537,-0.036685545,9.526211,2.32816121409527279917,1.5448587,10.501567,1.8525136,-0.00642543,9.537208,2.282981409527279919,2.2661119,10.381857,2.5773582,0.035515733,9.549928,2.22890191409527279943,2.5169046,11.045051,3.2878375,0.10467169,9.559837,2.18379261409527279945,1.2150574,11.628039,0.9403227,0.19261867,9.568302,2.1403071409527279946,0.06404489,10.884041,0.20111294,0.27956232,9.5836735,2.06044671409527279971,-1.2677298,10.162787,0.037708677,0.36912024,9.600088,1.96785961409527279972,-2.167351,9.868899,0.53450555,0.4616244,9.612805,1.88448171409527279975,-2.6264393,10.705074,1.596334,0.56212866,9.619303,1.82302031409527279983,-2.2589293,13.087305,2.505532,0.67438895,9.619419,1.78392761409527280001,-1.323395,16.997635,3.2722752,0.79931676,9.612158,1.77140941409527280004,-1.0642227,19.565416,3.447052,0.93444616,9.595531,1.79527021409527280023,-1.2174516,19.608511,3.0520086,1.0647798,9.574592,1.83408071409527280025,-2.086547,18.043303,2.9508536,1.1776189,9.548052,1.90218691409527280035,-2.5121162,14.311939,3.2118216,1.2516912,9.5197115,1.99468861409527280056,-2.2218192,10.501567,3.6727054,1.296007,9.486278,2.12162571409527280057,-1.4820108,8.357559,3.942053,1.3241166,9.443907,2.28686761409527280063,-1.5520413,6.0010667,3.728969,1.3434356,9.395074,2.46944021409527280089,-1.6047137,7.0904284,3.8205473,1.3596382,9.347799,2.63447241409527280091,0.17657238,10.114903,3.3123782,1.3815508,9.308532,2.75915551409527280095,0.6865373,9.140464,2.8868086,1.4486514,9.277776,2.8274861409527280111,0.89902276,7.176021,2.4187422,1.5724621,9.249438,2.85405731409527280143,1.7088615,7.0587053,2.991555,1.7241436,9.218862,2.86536381409527280145,2.747945,7.103596,3.590704,1.8832651,9.181746,2.88431621409527280147,2.9149406,7.0964136,3.2022448,2.0542579,9.13207,2.92501471409527280148,2.48159,6.4601545,2.4474726,2.2178023,9.075649,2.9806631409527280175,1.9692309,5.7239375,1.7764976,2.3606534,9.018616,3.04339861409527280178,1.9434932,5.4091,1.6059108,2.4775465,8.964425,3.10986161409527280179,1.9829975,5.117606,1.8267759,2.5683212,8.914504,3.17895221409527280184,1.5514427,4.537012,1.8866309,2.6410697,8.867308,3.25053791409527280200,1.460463,4.5675383,2.1571758,2.7027822,8.822168,3.32185361409527280221,1.2695254,4.5112743,2.3756466,2.7581255,8.777574,3.39371941409527280223,1.2360066,4.5238442,2.5528176,2.807391,8.732914,3.46772891409527280225,1.4466964,4.697424,2.5276785,2.8508048,8.688708,3.54254821409527280235,1.6059108,4.8201265,2.5121162,2.8912082,8.646036,3.6134981409527280257,1.8154035,4.9787426,2.682703,2.9270747,8.607848,3.6752681409527280258,2.1386206,5.067328,2.9293058,2.9584372,8.57601,3.7242581409527280264,2.566584,5.0523643,3.3973722,2.9843912,8.551656,3.75938421409527280289,2.9520507,5.269039,4.1024647,3.0030649,8.536112,3.779791409527280290,3.3572693,5.5898623,4.929063,3.0110161,8.530655,3.78577761409527280296,3.7612908,5.952584,5.683835,3.0055923,8.536181,3.777621409527280324,4.2161894,6.4870896,6.314707,2.98316,8.554801,3.7532031409527280326,5.358822,8.532935,6.7402763,2.941907,8.587641,3.71052581409527280328,5.7017913,9.674969,6.2207346,2.8879857,8.633253,3.64648681409527280335,5.451597,9.81503,5.801749,2.8304079,8.686137,3.56513761409527280361,4.3766007,8.622718,5.5539494,2.7618628,8.7460165,3.47126871409527280363,3.5164838,10.150218,6.3248825,2.6900005,8.803257,3.38185831409527280364,3.679888,14.796166,6.2554507,2.6228514,8.851087,3.30897331409527280395,3.7774518,16.007034,5.2355204,2.5657628,8.893709,3.23870251409527280397,4.18686,14.104242,4.8135424,2.5309694,8.926967,3.17393351409527280398,5.6646814,12.115259,5.519832,2.5358846,8.9320345,3.15570161409527280423,6.3248825,10.107721,6.939594,2.5810506,8.897214,3.21685841409527280424,5.3199162,10.515932,9.76116,2.641164,8.824011,3.36622551409527280425,5.7879825,16.420034,7.1688385,2.6935005,8.72215,3.58323031409527280435,3.442862,19.247585,5.515642,2.7539673,8.64465,3.72237561409527280448,-1.4574703,17.226282,4.6950297,2.7959418,8.6047,3.78315261409527280475,-2.779668,15.139136,3.6343982,2.7934465,8.607271,3.77914451409527280477,-1.5149311,11.486182,2.086547,2.789135,8.627238,3.73655961409527280479,-0.7445967,7.9673047,1.963844,2.7889013,8.628462,3.73390961409527280484,-0.27832595,6.303933,3.4506433,2.748721,8.6097975,3.80609151409527280507,-0.35913026,6.1967926,4.204817,2.671018,8.590507,3.90374951409527280508,-0.7236475,6.873753,2.6222494,2.5882494,8.591739,3.9564361409527280515,-0.3369839,7.8206596,2.2409728,2.517729,8.619803,3.9408661409527280531,0.47884035,8.8777,1.8022354,2.464006,8.655358,3.89664631409527280546,1.3204023,9.64145,1.7046716,2.427983,8.686891,3.84879451409527280547,2.1739352,10.359711,1.7812861,2.4005728,8.717362,3.79673861409527280572,2.8814218,10.644621,1.8477252,2.3756611,8.753875,3.72777271409527280574,2.7371712,10.829573,1.9818004,2.3470485,8.804498,3.62527081409527280576,2.1493945,11.435306,1.5957354,2.30289,8.870198,3.49094491409527280584,1.5185224,11.304822,0.9528923,2.2344894,8.946611,3.33700231409527280600,0.79726917,10.295067,0.6721721,2.1430292,9.021684,3.19171171409527280613,0.320823,9.570822,0.94211835,2.0324657,9.084903,3.0828611409527280615,0.037708677,8.813655,1.4915876,1.9111217,9.133513,3.01611421409527280633,-0.2861071,8.170812,1.7651252,1.7904625,9.170238,2.97848871409527280656,-0.45968673,7.8068933,1.6921021,1.6785084,9.200559,2.95003821409527280657,-0.39803603,7.527969,1.6765398,1.5782772,9.229944,2.9133461409527280658,-0.29508537,7.6189485,1.6579847,1.4854144,9.259059,2.86945651409527280664,-0.40821138,7.8332295,1.7447745,1.4028274,9.289993,2.81042391409527280677,-0.6039374,8.24563,1.8375498,1.3273042,9.32159,2.7416421409527280684,-0.6159084,8.655039,1.8028339,1.2536438,9.352004,2.67184851409527280696,-0.84216046,8.335413,0.4902128,1.1802219,9.378252,2.61263471409527280724,-0.88645315,8.021174,0.24959552,1.1046903,9.400302,2.56600431409527280726,-0.64942724,7.643489,0.40940848,1.0249121,9.417778,2.53484421409527280727,-0.24899697,7.597999,0.6404489,0.94325185,9.43325,2.50887681409527280751,0.4261679,7.9768815,0.97862995,0.86623204,9.449899,2.47375461409527280754,1.2072762,8.374918,1.4047978,0.8006206,9.469717,2.41947941409527280780,2.034473,8.412626,1.75076,0.74717313,9.491894,2.34863641409527280782,2.6862943,8.191162,2.119467,0.7025136,9.51331,2.27459571409527280785,3.347094,8.122928,2.6024973,0.6603636,9.532428,2.2061571409527280787,3.9641995,8.550293,3.0101101,0.62156874,9.545499,2.16044021409527280810,3.9426517,8.37013,2.8485014,0.5896882,9.550789,2.145951409527280811,3.791817,7.9445596,2.5246856,0.5566143,9.55006,2.15799121409527280816,3.5122938,7.800309,2.3169887,0.5142522,9.545562,2.18819741409527280831,2.996942,7.8811135,2.1978772,0.45927984,9.540124,2.2238471409527280848,2.8269536,8.236652,2.047641,0.3912387,9.537323,2.24873471409527280849,2.9376855,8.549096,2.2349873,0.31423035,9.539479,2.25166251409527280862,3.2668881,8.790312,2.432509,0.23451063,9.545205,2.23706131409527280864,3.436278,8.8645315,2.5677812,0.15791415,9.55079,2.21987921409527280881,3.305794,8.80767,2.7449522,0.08815781,9.553937,2.21018311409527280884,2.7138276,8.413823,3.0879216,0.026045272,9.551583,2.22193261409527280898,2.6390088,8.584411,2.847903,-0.033439256,9.543925,2.25449871409527280912,2.707842,8.695142,2.332551,-0.08746095,9.535676,2.28770881409527280916,3.1872811,8.710106,2.2421699,-0.13470578,9.53082,2.30558181409527280929,4.006098,8.895058,2.5528176,-0.1703318,9.529126,2.3102271409527280946,4.661511,9.43076,2.955642,-0.19040506,9.528133,2.3127481409527280948,4.784812,10.242993,3.2273839,-0.19588755,9.527718,2.31400821409527280964,4.210802,11.026496,3.0669725,-0.19080018,9.52978,2.30592541409527280965,3.8804023,11.715427,3.2267854,-0.17967008,9.534959,2.28531581409527280979,3.1184478,11.456854,3.840898,-0.16265976,9.540573,2.26305131409527280988,2.2242134,10.814011,3.5673606,-0.13370706,9.544768,2.24720671409527281021,1.8902222,10.896012,2.677316,-0.09059609,9.5497675,2.22803621409527281023,2.0524294,11.33056,2.082357,-0.023155328,9.556833,2.1992721409527281024,1.8321629,10.750565,2.2631192,0.07127912,9.563363,2.16964481409527281025,0.99419224,9.8515415,1.8483237,0.18074872,9.568023,2.14258271409527281055,-0.3226187,9.107543,0.75477207,0.29695177,9.5760145,2.093361409527281057,-1.3970166,8.866327,0.6955156,0.41891593,9.588563,2.01354931409527281059,-1.9752164,9.813833,1.3395559,0.55146486,9.597828,1.93597451409527281066,-2.0973208,12.3115835,1.7914615,0.69611853,9.598183,1.88697871409527281106,-0.9283517,19.542671,1.5598224,0.84538645,9.590284,1.86605811409527281108,-1.1145009,19.608511,1.4574703,0.99005604,9.582706,1.83355871409527281109,-2.457648,19.147629,1.4239515,1.122992,9.568777,1.82969211409527281112,-3.4943373,16.07527,1.5185224,1.2127563,9.553911,1.84997261409527281116,-3.3273418,12.756906,2.4516625,1.2605542,9.536731,1.90582251409527281148,-2.498948,9.346365,3.2740707,1.2798764,9.512626,2.01053951409527281149,-2.8862102,8.281544,4.4568067,1.2902567,9.480101,2.15251951409527281159,-1.7615339,12.431892,3.9863458,1.2913979,9.442331,2.31193331409527281176,-0.9163807,12.686276,3.2650926,1.3005434,9.4067745,2.447771409527281177,-0.13946225,9.919178,2.3277626,1.3594965,9.374418,2.5381941409527281178,0.6344634,7.9822683,2.119467,1.4730695,9.34478,2.58370781409527281207,1.2096704,7.307702,2.9921536,1.6059949,9.313188,2.61834071409527281208,1.8543092,6.867768,3.894169,1.7547137,9.275602,2.65604471409527281209,2.4881742,6.523601,4.365228,1.9115239,9.228416,2.7116071409527281216,2.6557682,6.2063694,3.9546227,2.0712354,9.173511,2.7797631409527281235,2.6007016,5.9603653,3.095703,2.2244549,9.116647,2.84762291409527281250,2.741361,5.48751,2.3989902,2.5764837,8.96434,3.02865051409527281251,2.6234465,4.9099092,1.8914193,2.5764837,8.96434,3.02865051409527281267,2.4079683,4.968567,1.7818847,2.5764837,8.96434,3.02865051409527281268,2.15957,5.077503,1.9662381,2.6540234,8.917413,3.09940341409527281276,1.8459295,5.151125,2.0751743,2.7191176,8.869949,3.1781691409527281294,1.4909891,5.017648,2.2230163,2.7752504,8.822448,3.26079921409527281296,1.447295,4.961983,2.3882163,2.8261728,8.775016,3.34398561409527281316,1.6819267,5.067328,2.6719291,2.8710868,8.728616,3.42615341409527281318,1.8896236,5.0900726,2.8042088,2.9105701,8.68394,3.50544571409527281339,2.1583729,5.0505686,2.9843724,2.9442387,8.642552,3.5788441409527281341,2.3834279,5.0517654,3.2998085,2.9720366,8.60593,3.64353251409527281345,2.428319,4.9643774,3.7259765,2.9916205,8.576052,3.6975611409527281362,2.5187001,4.929063,4.1036615,2.999085,8.555703,3.73842431409527281364,2.8921957,5.216367,4.5005007,2.9924555,8.539575,3.78037831409527281380,3.430891,5.746084,4.9907136,2.9707255,8.544028,3.78744771409527281397,3.870227,6.4068837,5.386954,2.932926,8.563038,3.77395341409527281398,3.9486372,7.0940194,5.872977,2.8795848,8.592106,3.74887971409527281411,3.9719806,7.8493905,6.1405287,2.8210166,8.632774,3.69965531409527281416,3.9863458,8.6496525,5.7640405,2.7491472,8.684195,3.6328131409527281432,3.7259765,8.742428,5.5503583,2.678215,8.739878,3.5513511409527281444,3.2333694,8.868722,6.108207,2.619485,8.789546,3.47168181409527281445,4.179079,15.482704,5.8424506,2.5791533,8.82587,3.40916251409527281462,4.4795513,14.3897505,4.891354,2.5557425,8.856945,3.3456071409527281464,5.6946087,12.515091,4.6776714,2.563098,8.867194,3.31267381409527281477,6.5655,10.084377,5.2852,2.6110816,8.84591,3.33204321409527281495,6.5307837,6.807314,5.990891,2.6887355,8.790872,3.41491771409527281496,5.6018333,5.088876,9.029732,2.7769406,8.70655,3.55738571409527281510,4.3658266,8.04392,11.921329,2.8686557,8.5992155,3.74094651409527281516,4.939238,16.2279,9.072228,2.9515688,8.47507,3.95370961409527281529,2.7395654,18.822016,6.187814,3.0330234,8.399784,4.05151561409527281543,-0.7422025,16.072275,4.4675803,3.076902,8.395871,4.0264651409527281544,-1.7070658,13.106459,2.5504234,3.0718498,8.428706,3.96119141409527281568,-0.7577648,10.842142,1.6519991,3.0357811,8.463467,3.91460871409527281570,-0.93134445,9.932345,2.9885623,2.9764469,8.47934,3.92580631409527281577,-1.3269863,10.55843,3.4979286,2.8771489,8.489006,3.97858861409527281604,-1.5173253,10.68652,2.2762873,2.7574873,8.515083,4.00749251409527281605,-1.4227544,10.521319,1.2348095,2.653481,8.562229,3.97714421409527281606,-1.039682,10.502166,0.88645315,2.5692797,8.61492,3.91820861409527281626,-0.51235914,10.593744,0.7020996,2.5022345,8.662316,3.856621409527281627,0.038905777,10.436325,0.688333,2.4413648,8.696173,3.81925441409527281646,1.1073183,9.068039,1.3802572,2.3894114,8.723259,3.7902331409527281647,1.5927427,8.953117,1.6759412,2.3455713,8.751828,3.75156141409527281669,1.8555063,9.393052,1.8561049,2.2985938,8.793033,3.68367171409527281670,1.9572599,9.768942,1.7046716,2.2442045,8.84513,3.59132121409527281677,1.9536686,9.503783,1.7004818,2.1787908,8.902037,3.48956011409527281699,1.7633295,9.119514,2.0332758,2.100507,8.955874,3.39861371409527281701,1.292869,9.149442,2.4211364,2.0100048,9.00371,3.32618171409527281711,0.7625532,9.20391,2.5390508,1.9112831,9.049528,3.2593591409527281732,0.44352585,9.233837,2.2266076,1.8151838,9.09418,3.18926381409527281733,0.2873042,9.136273,2.0308816,1.7232945,9.142482,3.10091331409527281744,-0.10235212,8.908226,1.7938557,1.6427406,9.190423,3.00132061409527281745,-0.41120413,8.703522,1.3736732,1.5648513,9.234804,2.90517451409527281762,-0.44532153,8.700529,1.0648212,1.4832844,9.273343,2.82407021409527281765,-0.24420857,8.768166,1.1097125,1.4051446,9.304252,2.76167851409527281777,-0.0712275,8.8806925,1.0462662,1.3439013,9.326443,2.71694371409527281794,0.17477672,8.974067,0.56203884,1.298012,9.343206,2.68142821409527281798,0.272939,8.953716,0.16160862,1.2547584,9.358745,2.6476171409527281810,0.33039984,8.960898,0.08499416,1.2009778,9.374802,2.61556121409527281826,0.5770026,8.794501,0.7104794,1.1305615,9.392532,2.5831321409527281827,1.3796587,8.508993,1.3323733,1.0554795,9.41013,2.5506491409527281844,2.0991163,8.568848,1.9428947,0.97217053,9.430748,2.50724241409527281845,2.7443538,8.421006,2.3295584,0.8882861,9.453712,2.45125751409527281860,3.3614593,8.180388,2.5001452,0.80945355,9.475109,2.39530871409527281865,4.1144357,8.02297,2.598906,0.7383894,9.490729,2.35610721409527281877,4.4340615,7.4812818,2.6509798,0.6801995,9.4969845,2.34840561409527281892,4.211401,6.963536,2.4612393,0.631115,9.493541,2.3758741409527281896,3.7547069,6.8581905,2.2613235,0.57994074,9.485204,2.42176961409527281917,3.3243492,6.7612257,2.1529858,0.5204343,9.477813,2.46385861409527281919,3.2321723,6.818088,2.1871033,0.4560022,9.473549,2.49285321409527281925,3.4039562,6.811504,2.3953989,0.39168388,9.470583,2.51496271409527281949,3.70802,6.724714,2.8113914,0.32867244,9.4668865,2.53779531409527281951,3.9079356,6.6726403,3.2040405,0.2700953,9.462074,2.5625341409527281956,3.7002387,6.791153,3.7259765,0.21478038,9.457009,2.58635851409527281965,3.3985693,7.0425444,4.152743,0.16245529,9.45165,2.60965821409527281979,2.9891608,7.4549456,4.300585,0.115236886,9.444676,2.63727521409527281992,2.7263973,8.376115,3.752911,0.07072876,9.435969,2.66980271409527281997,2.7449522,9.232041,2.6246436,0.027372869,9.428525,2.69676781409527282017,4.311359,10.216059,2.521693,-0.013909722,9.424741,2.71006681409527282018,4.5567646,10.788872,3.016694,-0.036402415,9.423318,2.71480151409527282025,4.061165,11.304822,2.801216,-0.052399904,9.4240675,2.7119381409527282051,3.2746694,11.558607,2.2062569,-0.066170365,9.427782,2.69869451409527282054,2.8455088,11.605893,2.2092497,-0.08173202,9.436613,2.6672191409527282056,2.2278047,11.340137,2.942474,-0.08615955,9.44691,2.63036851409527282078,1.6837224,11.012131,2.8473043,-0.07669125,9.45607,2.59754591409527282079,2.0057425,10.556634,1.8489223,-0.0467627,9.467045,2.55797841409527282096,2.4522612,10.208876,1.8315643,0.013752777,9.480708,2.50726341409527282097,2.2260091,9.470264,2.405574,0.10246398,9.491519,2.46393591409527282109,1.4610616,8.828619,1.970428,0.20622474,9.49895,2.42854071409527282125,0.18375498,8.313866,1.1971009,0.31824026,9.5090065,2.376531409527282126,-1.0169371,7.3777328,0.9151836,0.44071203,9.5217,2.30508021409527282144,-1.9578584,7.361572,1.4036007,0.5812351,9.530323,2.23729161409527282145,-2.321777,8.901043,2.2625206,0.72802013,9.533378,2.18061691409527282159,-2.5647886,12.327146,3.2070332,0.89098,9.526724,2.14897371409527282177,-1.1923125,17.269377,3.1639376,1.0539244,9.5108795,2.14541981409527282178,0.23762453,19.606117,2.4438813,1.2185051,9.489843,2.15139531409527282193,0.2789245,19.608511,2.6874914,1.3894074,9.464547,2.1592311409527282196,-1.7130513,16.667234,2.4887726,1.5342673,9.43462,2.19188571409527282210,-1.4532804,13.34947,2.8778305,1.6199716,9.404855,2.25716041409527282225,-0.59974754,11.155185,3.317765,1.6735264,9.371468,2.35483931409527282226,-0.86131406,9.3104515,3.5739446,1.7008858,9.337092,2.46902871409527282243,-1.5155296,9.79827,3.8792052,1.7103355,9.304291,2.58366511409527282245,-0.31543607,11.981184,3.4434607,1.7138913,9.276135,2.68072441409527282261,0.44771573,10.676943,2.6581624,1.7333982,9.2514105,2.7526611409527282274,1.0839748,9.246407,2.480393,1.8043665,9.226811,2.7893741409527282276,1.2934675,7.896077,3.007716,1.9245287,9.198985,2.80093841409527282292,1.6831238,7.330447,3.615843,2.0583138,9.166284,2.81300231409527282296,2.4301147,7.2592196,4.0677485,2.1891537,9.126287,2.84409361409527282323,3.0334535,7.2622123,4.018069,2.3188367,9.078437,2.89402531409527282324,2.9843724,6.4966664,3.1759086,2.4449837,9.026029,2.95351721409527282326,2.9376855,6.105214,2.666542,2.553652,8.9761305,3.01302581409527282350,2.5025394,5.7059813,2.292448,2.6363683,8.932131,3.07197241409527282353,2.392406,5.4713492,2.0691888,2.6962447,8.892789,3.13352321409527282356,2.1936872,5.3235073,1.8644845,2.744108,8.854868,3.19868731409527282375,2.0949266,5.04159,1.7842789,2.786871,8.815152,3.27060341409527282377,1.8746599,4.795586,1.9321208,2.8262923,8.772123,3.35146381409527282391,1.6280571,4.6393642,2.231396,2.859821,8.726262,3.44153521409527282397,1.6663644,4.697424,2.2026656,2.884909,8.68036,3.53540021409527282406,1.8620903,4.8781857,2.2080526,2.9026344,8.637812,3.62399081409527282424,2.19668,4.9823337,2.3600843,2.9130032,8.602076,3.69987631409527282425,2.4049757,4.9015293,2.6431987,2.9148977,8.575096,3.76051571409527282443,2.4313118,4.8123455,3.1872811,2.9072714,8.557714,3.80574251409527282445,2.3876176,4.8297033,3.9097314,2.8870957,8.55101,3.8360541409527282466,2.3971944,5.003283,4.7614684,2.852153,8.556173,3.85065031409527282467,2.6485856,5.551555,5.6784477,2.8103316,8.5666275,3.8581491409527282477,3.1681273,6.700772,6.451775,2.7529988,8.590826,3.8456591409527282500,3.6170402,8.246828,6.7402763,2.683329,8.630162,3.80663041409527282501,3.90614,9.883265,6.108207,2.6063807,8.683915,3.73721621409527282505,3.6134489,10.1621895,5.3366756,2.5292382,8.748326,3.63870021409527282527,3.0651767,9.779117,5.355231,2.4589124,8.811349,3.53330971409527282528,3.591901,13.11005,5.6497173,2.4033604,8.859332,3.45057941409527282548,3.7553053,15.2367,5.0637364,2.3705962,8.889944,3.39404631409527282549,3.570952,13.972561,4.7219644,2.3599012,8.906138,3.3588611409527282557,4.64535,12.163742,4.6842556,2.3771472,8.898808,3.36612371409527282576,6.489484,10.903793,5.2026005,2.432336,8.862199,3.42280131409527282577,7.477092,5.360019,6.7666125,2.5119367,8.805113,3.511491409527282595,6.6546836,5.501277,11.154586,2.6117117,8.711635,3.66834831409527282615,6.0088477,10.580576,12.177508,2.7121933,8.583024,3.89179871409527282616,6.279991,17.05749,8.755595,2.8084204,8.455846,4.09656521409527282618,2.7431567,16.791733,5.583278,2.9050422,8.38982,4.16437771409527282626,-0.6865373,14.523826,4.11683,2.9502196,8.396205,4.11950871409527282648,-0.9935937,12.958018,2.094328,2.9385471,8.439293,4.0390211409527282649,-1.0636241,11.6112795,1.922544,2.8992074,8.479217,3.98345141409527282658,-1.4323312,10.976217,3.2890346,2.8277004,8.497991,3.99482731409527282680,-1.6346412,10.790668,3.2513258,2.7131386,8.5126095,4.04286341409527282682,-2.006341,10.041282,2.0015526,2.5812013,8.53747,4.07669071409527282686,-2.0284874,9.631275,1.0881647,2.4546614,8.578777,4.0681191409527282712,-1.4862007,9.76116,0.842759,2.3430936,8.629709,4.02596951409527282714,-1.0301052,9.910798,0.5422867,2.2496898,8.672698,3.9866791409527282732,-0.39205053,9.898827,0.37708676,2.1754284,8.701903,3.9641891409527282734,0.50038815,9.624691,0.60333884,2.116653,8.7268305,3.9411431409527282738,1.3706805,9.04709,1.5029601,2.0666828,8.759869,3.89408781409527282746,1.863886,8.573038,2.3020248,2.018105,8.805002,3.8170141409527282766,1.905186,8.486248,2.0829554,1.9651327,8.859368,3.71755531409527282770,1.8890251,7.953538,1.8459295,1.9038924,8.917048,3.60996341409527282777,1.8543092,7.3537903,2.1470003,1.8350775,8.967577,3.51929761409527282792,1.5286977,7.1688385,2.5252843,1.7581387,9.010945,3.44705651409527282828,1.1162965,7.392098,2.5713725,1.6801469,9.045916,3.3939481409527282830,0.7206547,7.902063,2.28347,1.6021465,9.08084,3.33794451409527282832,0.50158525,8.447941,1.8195933,1.5302986,9.121735,3.25922751409527282834,0.6895301,8.774749,1.2401965,1.4655528,9.167016,3.1604381409527282854,0.8050503,8.817246,1.1079168,1.4094979,9.209684,3.06029821409527282855,0.5638345,9.146449,1.4197617,1.364895,9.24472,2.97365161409527282858,0.4213795,9.579201,1.934515,1.3323567,9.271591,2.90393041409527282879,0.31543607,9.822811,1.9859903,1.3078586,9.291838,2.84985351409527282896,0.47764325,9.85214,1.1917139,1.2825246,9.308618,2.80627081409527282898,0.84455466,9.222465,0.35434186,1.2501122,9.324909,2.7665271409527282899,0.997185,8.544906,0.24420857,1.2145156,9.340814,2.72846651409527282906,1.0684125,7.917625,0.58418524,1.1653229,9.355626,2.69901061409527282924,1.1623849,7.776367,1.3664906,1.1043178,9.371272,2.6702341409527282926,1.38325,8.189965,2.1613655,1.0402848,9.390212,2.62909651409527282945,1.7848774,8.632893,2.4732103,0.98025155,9.4125595,2.57162051409527282958,3.108871,8.5622635,2.1709423,0.9245988,9.434555,2.51091551409527282959,3.7786489,8.764574,2.432509,0.87757576,9.450603,2.46705651409527282975,3.8151605,8.623915,2.7024553,0.8330277,9.456904,2.4583351409527282977,3.6595373,8.2593975,2.5755625,0.7849705,9.4544935,2.4832981409527282991,3.3919852,8.009203,2.2906525,0.72925407,9.448563,2.52254751409527283007,3.3512838,7.904457,2.3630772,0.66299087,9.443109,2.5609631409527283008,3.4165258,7.81228,2.542642,0.5925436,9.43935,2.5919051409527283022,3.5488055,7.6069775,2.6521769,0.51680225,9.437633,2.61427351409527283026,3.558981,7.3029137,2.9352913,0.44155937,9.436549,2.63191031409527283041,3.4727895,7.3669586,3.1465795,0.37270695,9.433378,2.65383741409527283067,3.2704794,7.7572136,3.288436,0.31387904,9.426421,2.68597581409527283069,3.1292217,8.177995,3.912724,0.26427594,9.417085,2.7237951409527283070,2.6402059,8.751406,3.2962172,0.21969885,9.407277,2.76138951409527283078,2.381632,9.3583355,2.5420437,0.17221111,9.403131,2.77882531409527283097,2.6862943,9.667787,1.875857,0.12434885,9.405354,2.77385621409527283099,3.5122938,9.759963,1.3108255,0.08387685,9.409398,2.76162821409527283106,4.495114,9.679159,1.7896658,0.053843528,9.413424,2.7486261409527283126,4.8973393,9.622895,2.7862523,0.040929537,9.414291,2.74587821409527283127,4.4723687,9.660604,2.8054059,0.040933777,9.413474,2.74867681409527283140,3.4284968,9.898229,3.072958,0.048578154,9.415424,2.74186591409527283157,2.2230163,10.028712,3.7020345,0.06456256,9.42026,2.7248721409527283159,1.2072762,10.15381,2.8341362,0.08965719,9.426461,2.70262811409527283178,1.5167267,10.149021,1.6717514,0.12563246,9.435893,2.66805961409527283180,2.472612,9.841366,1.7938557,0.18656339,9.446325,2.627261409527283186,2.581548,9.087791,1.9387048,0.27701268,9.452569,2.59665161409527283210,1.5286977,8.158841,1.1845313,0.38388884,9.456736,2.56772111409527283211,0.32321724,7.2873516,0.95349085,0.49788427,9.466117,2.5129941409527283232,-0.9672575,6.740875,1.3563153,0.6133221,9.4765415,2.44732431409527283234,-1.762731,7.578247,2.0380642,0.7433237,9.484039,2.3813581409527283240,-1.7136499,10.45069,2.919729,0.8845685,9.481691,2.34210921409527283263,-1.0702082,15.237298,3.3333273,1.0326349,9.469851,2.32937811409527283264,0.17058687,19.37448,2.718616,1.1848229,9.452894,2.3258011409527283266,1.3916297,19.608511,2.6940753,1.3478605,9.434905,2.31002761409527283278,0.35913026,19.608511,2.8461072,1.5185052,9.410716,2.30281761409527283293,-1.2294226,18.87409,2.5953147,1.6385839,9.3885765,2.31085751409527283311,-1.3790601,15.448586,3.1573534,1.6820859,9.373137,2.34206771409527283315,-0.5243302,11.520899,3.6792896,1.689536,9.351157,2.4231631409527283338,-1.0307038,11.748946,4.538808,1.6925027,9.321967,2.53115581409527283339,0.2801216,13.868413,3.6996403,1.6826527,9.289369,2.65456941409527283341,0.6452374,11.36767,2.3989902,1.6856073,9.263032,2.743241409527283359,1.0857705,9.187749,2.1386206,1.7444005,9.242668,2.7749881409527283360,1.3862427,7.9301944,2.8844144,1.8579961,9.223775,2.7640971409527283373,1.6346412,7.629722,3.7822402,1.9900625,9.198333,2.75694131409527283378,1.882441,7.20116,4.068946,2.1208704,9.161548,2.78178361409527283393,2.0913353,7.0928226,3.8720226,2.2461457,9.115997,2.8326341409527283409,2.168548,6.6229606,3.25372,2.3627007,9.067344,2.89331911409527283410,2.1960814,6.232107,2.8550856,2.4672558,9.019079,2.95622471409527283422,2.0560207,5.909488,2.5103204,2.5542505,8.972945,3.0219951409527283426,1.7124528,5.547365,2.1320367,2.6278281,8.927772,3.0918911409527283439,1.4437037,5.156512,1.939902,2.6839828,8.885146,3.16556791409527283456,1.3066356,4.746505,1.8064252,2.7266295,8.842653,3.24705771409527283458,1.1420342,4.5435963,1.8052281,2.763249,8.797873,3.33650781409527283472,1.2210429,4.7046065,2.0949266,2.796722,8.750058,3.4329621409527283488,1.2378023,4.7159786,2.2290018,2.8265846,8.701268,3.53110961409527283489,1.2922704,4.7500963,2.1894975,2.8513277,8.655259,3.6230941409527283507,1.3389573,4.698621,2.0745757,2.8693745,8.616106,3.70132421409527283508,1.8794483,4.449624,2.397793,2.878804,8.586558,3.76216651409527283529,2.2427685,4.282628,3.0430303,2.8800595,8.566591,3.80646511409527283530,2.4720132,4.3287168,3.82773,2.8712955,8.556147,3.83645751409527283538,2.6078842,4.5100775,4.5016975,2.8589206,8.549567,3.86029481409527283562,2.9137435,4.9302597,5.1541176,2.8327525,8.554085,3.86956761409527283564,3.469797,5.8215013,5.7903767,2.7933552,8.571276,3.8601551409527283567,3.9713821,7.1490865,6.126762,2.7375124,8.603225,3.82896331409527283598,4.262876,8.607155,5.9280434,2.6702847,8.648898,3.77313281409527283600,4.1641154,9.485229,5.793968,2.5941079,8.7058935,3.69437531409527283601,3.779846,9.106346,5.8909335,2.5167844,8.764083,3.60929941409527283606,3.6194344,10.428544,6.867169,2.4494727,8.812244,3.53763131409527283624,4.350863,15.433024,6.455965,2.4022367,8.843943,3.4906071409527283627,3.791817,15.22413,5.081693,2.3775394,8.870564,3.43959211409527283639,4.196437,13.141773,4.578911,2.3541586,8.895752,3.39026671409527283656,5.9681463,11.757924,4.71538,2.3732104,8.895323,3.37809181409527283658,7.967903,9.633669,4.398747,2.438803,8.858294,3.42830321409527283672,8.72088,6.3123126,4.5657425,2.5420692,8.784231,3.54197121409527283687,7.8948803,4.200627,7.6650367,2.659917,8.680728,3.70677831409527283688,6.0681043,5.5258174,12.865841,2.7840035,8.554506,3.90385991409527283705,5.909488,19.587563,8.149862,2.907688,8.416186,4.10895871409527283706,0.14963761,18.3336,5.2049947,3.0082872,8.373754,4.123211409527283721,-1.8800468,16.051327,1.875857,3.518538,7.9800563,4.4843041409527283727,-0.700304,13.518261,-0.089782566,2.9590287,8.386683,4.13256361409527283742,-0.6775591,10.656591,1.3988123,2.5951753,8.657087,