time,acc_x,acc_y,acc_z,gravity_x,gravity_y,gravity_z1409351135022,0.08678981,9.399037,0.93613285,-0.2881953,9.780744,0.651473051409351135036,0.29328972,9.427768,0.56682724,-0.27779052,9.780874,0.654018641409351135061,0.06943185,9.316438,0.6290765,-0.26354924,9.78101,0.657868861409351135063,-0.04070143,9.147646,0.7332243,-0.24862288,9.780924,0.664929331409351135065,0.078410104,9.2547865,0.81163436,-0.2357862,9.780096,0.681556641409351135097,0.06584055,9.54209,1.1318588,-0.2253101,9.778287,0.71044431409351135098,0.040102877,9.812037,1.4000094,-0.21526393,9.775813,0.746694561409351135099,0.12330139,10.150817,1.4700398,-0.20471184,9.773082,0.78443831409351135102,0.05865794,10.5291,1.3437457,-0.19225568,9.770646,0.81726741409351135124,-0.18674773,10.513538,0.99060094,-0.18118834,9.768983,0.83937811409351135125,-0.18794483,10.083779,1.0289081,-0.17576896,9.768386,0.847448051409351135140,-0.26396075,9.898827,0.96905315,-0.17336188,9.768164,0.850475851409351135153,-0.17896658,9.701904,1.0630256,-0.17217706,9.767949,0.853191551409351135155,-0.29987377,9.40203,0.95109665,-0.17028555,9.767691,0.85653031409351135174,-0.24301147,9.888652,1.1073183,-0.16904461,9.767635,0.85739721409351135175,-0.23044191,10.1460285,1.1228806,-0.16770576,9.767493,0.85929161409351135190,-0.02932897,10.022727,1.0642227,-0.16737989,9.767159,0.86312081409351135204,-0.14604631,9.694122,1.0474633,-0.16537264,9.766844,0.867073361409351135206,-0.18794483,9.670779,0.9923966,-0.16266689,9.766656,0.86970721409351135219,-0.14903906,9.515156,0.90141696,-0.1587582,9.766698,0.86994451409351135222,0.004189853,10.017939,0.79846627,-0.15398557,9.766886,0.86869661409351135236,0.047884032,9.90601,0.9235633,-0.14598055,9.767288,0.86554951409351135254,0.107140526,10.180744,0.86969376,-0.13625966,9.767592,0.86368491409351135256,0.15442601,10.1143055,0.931943,-0.1262848,9.767975,0.86086691409351135274,0.15502456,9.962274,0.9959879,-0.1179647,9.768336,0.857979951409351135275,0.17956513,9.844957,1.0654198,-0.112452365,9.768586,0.85584761409351135283,0.30585927,9.780912,1.0456676,-0.10915566,9.768709,0.85486621409351135316,0.40940848,9.657013,1.2120646,-0.106560975,9.768847,0.853614751409351135318,0.16340427,9.897031,0.7200562,-0.10391572,9.768955,0.85270931409351135320,0.21308395,9.847352,0.90021986,-0.10403993,9.770428,0.835641261409351135323,0.24899697,9.636662,0.8948329,-0.10421441,9.772724,0.80832071409351135347,0.30645782,9.697116,0.842759,-0.10532617,9.774063,0.79182141409351135348,0.3196259,9.826403,0.84694886,-0.10695523,9.774436,0.786993271409351135354,0.3890578,9.8042555,0.87567925,-0.10923253,9.774754,0.78273851409351135370,0.38367084,9.697116,0.9271546,-0.11115298,9.775249,0.77625851409351135385,0.44113165,9.6528225,0.88765025,-0.11332097,9.775734,0.769817651409351135397,0.42317516,9.636064,0.80684596,-0.11564795,9.776249,0.76288581409351135422,0.3788824,9.677363,0.7625532,-0.11867519,9.77692,0.75374571409351135423,0.33279404,9.755175,0.76315176,-0.122102536,9.777698,0.74305011409351135424,0.31124622,9.807249,0.7356185,-0.12580402,9.778561,0.73097211409351135425,0.320823,9.816826,0.7428011,-0.12872575,9.779355,0.71975631409351135438,0.41359833,9.467272,0.8870517,-0.1306877,9.780013,0.71037411409351135454,0.3669114,9.894637,0.6392518,-0.13137539,9.780502,0.70349431409351135455,0.47524905,9.753379,0.6015432,-0.13244331,9.781115,0.694713651409351135470,0.48482585,9.673173,0.6769605,-0.13271482,9.781807,0.68488261409351135487,0.46507367,9.757569,0.700304,-0.13105069,9.782482,0.67547231409351135488,0.45070848,9.915586,0.6769605,-0.12786767,9.783079,0.667367941409351135502,0.38845924,9.982624,0.7086837,-0.12379093,9.783625,0.660125141409351135503,0.3477578,9.940725,0.6769605,-0.1194903,9.784139,0.653262261409351135517,0.48722005,9.8437605,0.7260417,-0.11539602,9.784684,0.64578271409351135522,0.3405752,9.949704,0.6218939,-0.1101739,9.785331,0.63685361409351135537,0.28550854,10.101735,0.48243165,-0.10646424,9.786031,0.626633761409351135553,0.3693056,9.983223,0.41479546,-0.10509382,9.7867155,0.6160961409351135556,0.3764882,9.91798,0.4818331,-0.10461948,9.787399,0.60519471409351135569,0.36990416,9.917382,0.5363012,-0.10235388,9.788025,0.59537941409351135585,0.40761283,9.862914,0.54767364,-0.09819208,9.788481,0.58856911409351135586,0.49679685,9.932944,0.6584055,-0.09343495,9.788707,0.585588631409351135604,0.4141969,9.920375,0.6344634,-0.0879498,9.788684,0.586800341409351135605,0.33997664,9.877877,0.47345337,-0.08311901,9.78842,0.59188751409351135617,0.25318682,9.932944,0.38486794,-0.08026859,9.788163,0.596518041409351135623,0.17417817,9.9550905,0.30107087,-0.07921879,9.788028,0.598868971409351135636,0.11911154,10.019734,0.23403321,-0.07971037,9.788121,0.5972681409351135655,0.092775315,10.053253,0.18734628,-0.08048984,9.788303,0.594157761409351135656,0.034715924,10.068815,0.19991584,-0.08108517,9.788437,0.59188571409351135672,-0.01436521,10.089166,0.20709845,-0.08147505,9.788427,0.591959951409351135683,-0.16938977,10.037092,0.18315643,-0.081323944,9.7883415,0.593439941409351135684,-0.3842694,9.890448,0.20171149,-0.08260405,9.788153,0.59634331409351135704,-0.42437226,9.793482,0.28311434,-0.08666502,9.787852,0.60070911409351135705,-0.40222588,9.731832,0.31783026,-0.09200083,9.7874365,0.606657151409351135719,-0.37110126,9.634268,0.39384618,-0.097868256,9.786949,0.613541071409351135723,-0.35434186,9.605537,0.4381389,-0.10424305,9.786372,0.62162441409351135737,-0.3585317,9.640253,0.46148238,-0.11077859,9.785722,0.630695041409351135750,-0.38965634,9.68275,0.45489833,-0.117521636,9.785109,0.63893041409351135754,-0.3776853,9.74859,0.4141969,-0.124523915,9.784602,0.645303961409351135767,-0.41718966,9.768343,0.38606504,-0.13116145,9.784255,0.649279361409351135784,-0.26755205,9.692925,0.3800795,-0.13744798,9.784017,0.651567761409351135785,-0.61530983,9.774927,0.26276365,-0.14248072,9.783857,0.652881151409351135802,-0.49799395,9.7641535,0.11791443,-0.15211393,9.783772,0.65195351409351135803,-0.4854244,9.815628,0.11671733,-0.16306612,9.783873,0.64782331409351135818,-0.47884035,9.85214,0.16699557,-0.17217706,9.784121,0.64167241409351135835,-0.44532153,9.891046,0.17956513,-0.17965631,9.784313,0.636653071409351135836,-0.4345476,9.944317,0.16579847,-0.18688597,9.784457,0.6323271409351135850,-0.44472298,9.916783,0.17238252,-0.19485243,9.784609,0.62759941409351135868,-0.40162733,9.898229,0.20949265,-0.20308366,9.784782,0.622250441409351135869,-0.41599256,9.848549,0.3441665,-0.21039748,9.784947,0.617189051409351135883,-0.37469256,9.704897,0.31603462,-0.21696737,9.7849,0.615676341409351135884,-0.6512229,9.928755,0.28191724,-0.22331469,9.784711,0.61642451409351135908,-0.55725044,9.835381,0.2184709,-0.23320612,9.78447,0.61657361409351135911,-0.5931635,9.809045,0.16340427,-0.24485272,9.784274,0.615158441409351135923,-0.6314707,9.828796,0.14185645,-0.25490898,9.784211,0.61205231409351135924,-0.6368576,9.88506,0.16460137,-0.26244727,9.784263,0.60804831409351135935,-0.66738373,9.866506,0.20649989,-0.26959568,9.7843075,0.604205671409351135952,-0.7140707,9.820416,0.25737667,-0.27663317,9.784295,0.60118371409351135955,-0.6895301,9.826403,0.28909984,-0.28349736,9.784213,0.599341871409351135967,-0.65660983,9.850345,0.27593175,-0.28969985,9.7841015,0.59819621409351135985,-0.6853402,9.818023,0.2825158,-0.295407,9.7839775,0.59745331409351135986,-0.6931214,9.774927,0.30406362,-0.30075362,9.78384,0.59700321409351136001,-0.6787562,9.710283,0.33518824,-0.30543095,9.783757,0.596007171409351136003,-0.6787562,9.667787,0.3549404,-0.30931598,9.7837105,0.594745161409351136019,-0.6619968,9.673173,0.30825347,-0.3129466,9.78366,0.59367491409351136033,-0.61411273,9.689334,0.16759412,-0.31708252,9.78363,0.592003761409351136039,-0.55964464,9.689334,0.14185645,-0.3216557,9.783763,0.58731421409351136053,-0.55365914,9.685144,0.12569559,-0.32664064,9.783958,0.58125381409351136055,-0.53689975,9.589975,-0.09756372,-0.33208895,9.784215,0.57379771409351136069,-0.5231331,9.553463,-0.08678981,-0.3388703,9.784628,0.562696461409351136085,-0.49559975,9.572019,0.008978256,-0.3468803,9.7850895,0.54960781409351136086,-0.44951138,9.585187,-0.06823475,-0.35594988,9.785481,0.53671271409351136101,-0.44352585,9.677363,-0.28909984,-0.36640653,9.785828,0.52319621409351136103,-0.51834464,9.774328,-0.3645172,-0.37909862,9.786239,0.506180171409351136118,-0.5470751,9.871892,-0.3393781,-0.39428222,9.786725,0.484717131409351136135,-0.53929394,9.980828,-0.3172317,-0.41183427,9.787193,0.460064921409351136136,-0.5129577,10.065224,-0.4405331,-0.43123153,9.787574,0.433397261409351136152,-0.52852005,10.067618,-0.6135142,-0.45165503,9.787873,0.4048651409351136169,-0.60333884,10.063428,-0.6039374,-0.47252584,9.788094,0.374621841409351136170,-0.7104794,10.059837,-0.61112,-0.49453008,9.78817,0.342895151409351136186,-0.83856916,10.098145,-0.46926352,-0.51734257,9.788106,0.309406131409351136187,-0.8050503,10.076596,-0.31124622,-0.5402381,9.787851,0.276622061409351136201,-1.2378023,10.027515,-0.35793316,-0.5604324,9.787493,0.24761051409351136203,-1.1001357,10.117298,-0.25198972,-0.5826887,9.78682,0.221406371409351136219,-1.1091139,10.166978,-0.019153614,-0.60284317,9.786116,0.197284331409351136234,-1.1043255,10.293272,0.1436521,-0.62039155,9.78545,0.174652221409351136235,-1.0552444,10.386047,0.013766659,-0.6355692,9.784847,0.152456761409351136251,-1.2036849,10.429143,-0.08020575,-0.64976645,9.784268,0.127559051409351136255,-1.2521675,10.515334,-0.008379706,-0.66565084,9.783512,0.101043961409351136270,-1.2575544,10.408194,-0.006584055,-0.68307173,9.782538,0.0760521441409351136281,-1.3305776,10.324995,0.005985504,-0.70308083,9.7812605,0.0548112021409351136283,-1.3551182,10.241198,0.15442601,-0.721745,9.779977,0.0392208361409351136299,-1.3239936,10.212467,0.3537433,-0.73816913,9.778772,0.0331599271409351136303,-1.2970588,10.223241,0.50637364,-0.75421613,9.77753,0.038038931409351136316,-1.2180501,10.222643,0.59136784,-0.7694132,9.776282,0.0521522131409351136333,-1.1773487,10.172963,0.6027403,-0.78303915,9.775056,0.074399111409351136337,-1.1641805,10.0664215,0.7086837,-0.79591054,9.773762,0.102500011409351136351,-1.1420342,9.955689,0.7954735,-0.8080776,9.772372,0.134723531409351136366,-1.0684125,9.879673,0.66738373,-0.8196226,9.77087,0.169459331409351136367,-1.0444705,9.863512,0.45370123,-0.8304369,9.769308,0.203465061409351136383,-1.1204864,9.895236,0.14724341,-0.8410464,9.767646,0.237012521409351136384,-1.1348516,9.77792,-0.060453594,-0.85291487,9.765748,0.270404521409351136401,-1.06123,9.664794,0.061650693,-0.8660705,9.763571,0.30500121409351136409,-0.9840169,9.668385,0.18674773,-0.8803078,9.761055,0.34247141409351136432,-0.94451255,9.655217,0.3513491,-0.895749,9.758258,0.380041541409351136433,-1.0348936,9.483433,0.44891283,-0.9128642,9.755123,0.417910931409351136442,-1.4437037,9.207501,0.30346507,-0.93149704,9.751673,0.455623121409351136453,-1.5921441,9.11293,0.48841715,-0.95349526,9.747924,0.489085851409351136471,-1.6531962,9.129091,0.5805939,-0.97535694,9.744213,0.51900931409351136472,-1.6950948,9.282919,0.50637364,-0.9946706,9.740823,0.545350731409351136475,-1.6753427,9.384672,0.25498247,-1.0120757,9.737725,0.568162861409351136483,-1.5993267,9.361329,0.044292733,-1.0257072,9.735571,0.580517351409351136509,-1.5029601,9.252393,-0.012569559,-1.0352852,9.734383,0.58343471409351136511,-1.2276269,9.1668,0.062249243,-1.0420412,9.73394,0.57874681409351136518,-0.86969376,9.088389,0.12090719,-1.045743,9.734043,0.570287051409351136539,-0.7637503,9.288904,0.29029694,-1.0468708,9.734517,0.560021641409351136541,-0.31004912,9.322423,0.48961425,-1.0490496,9.734719,0.55239311409351136546,0.016759412,9.219472,0.74878657,-1.0497537,9.734782,0.54992581409351136568,0.25917232,9.272144,1.1168951,-1.0451859,9.73507,0.55351541409351136569,0.38187516,9.385869,1.3581109,-1.0365547,9.735282,0.565879761409351136585,0.37110126,9.465476,1.5652094,-1.0264848,9.73512,0.586657761409351136587,0.22445641,9.526528,1.6400281,-1.0163487,9.73463,0.61188571409351136602,0.020350715,9.685144,1.484405,-1.0073953,9.733612,0.64211661409351136604,-0.17657238,9.79827,1.3000516,-1.0003457,9.732356,0.67151921409351136618,-0.34596214,9.801263,1.0151415,-0.99531096,9.731033,0.697666651409351136633,-0.66858083,9.68694,0.985214,-0.99285036,9.729707,0.71933081409351136649,-0.7739257,9.583391,0.9259575,-0.99419445,9.72823,0.73723121409351136650,-0.8451532,9.486425,0.9528923,-0.99740404,9.726808,0.751526241409351136665,-0.8858546,9.404425,1.18094,-1.0018634,9.725413,0.76352821409351136666,-0.88166475,9.407417,1.3994108,-1.0056612,9.724092,0.775316831409351136684,-0.8972271,9.598953,1.5382746,-1.0082113,9.722794,0.78814421409351136685,-0.87448215,9.840768,1.5969325,-1.0104094,9.721442,0.801892161409351136698,-0.89064306,10.037092,1.6101006,-1.0102012,9.7203865,0.814846931409351136704,-0.93493575,10.10413,1.5795746,-1.0081924,9.719619,0.82641751409351136716,-0.98820674,10.067618,1.2563573,-1.004775,9.71919,0.835578741409351136732,-1.0163386,9.911396,0.89184016,-1.0008994,9.719411,0.83765261409351136735,-1.0714053,9.622296,0.789488,-0.9970575,9.7202835,0.83207391409351136747,-1.1234791,9.372701,0.87089086,-0.99437666,9.721253,0.82393391409351136764,-1.1683705,9.251195,0.9415198,-0.993014,9.721986,0.81688921409351136765,-1.2312182,9.137471,1.0121487,-0.9925706,9.722487,0.811435041409351136778,-1.299453,9.041702,1.0450691,-0.9921885,9.722865,0.80738371409351136784,-1.4101849,8.944139,0.919972,-0.99117076,9.723194,0.80464351409351136802,-1.4766239,8.904634,0.62009823,-0.990408,9.723526,0.801582341409351136820,-1.4532804,8.81605,0.61770403,-0.98840785,9.724185,0.79603171409351136822,-1.2892777,8.959702,0.7248446,-0.9842692,9.725082,0.790177171409351136825,-1.1234791,9.273342,0.6823475,-0.9776253,9.726131,0.78551971409351136837,-1.091756,9.654618,0.6123171,-0.968123,9.727589,0.779199841409351136875,-1.2246342,9.871294,0.5141548,-0.9567674,9.72953,0.76891521409351136879,-1.3652935,9.9712515,0.47165772,-0.94642305,9.731704,0.75407941409351136881,-1.489792,10.049662,0.53809685,-0.93825597,9.733793,0.737132971409351136883,-1.484405,10.103531,0.7188591,-0.9326282,9.735515,0.72135731409351136885,-1.3551182,10.196306,0.81283146,-0.9288918,9.736839,0.70816581409351136922,-1.1013328,10.313622,0.6667852,-0.9266485,9.737957,0.695654151409351136926,-0.9451111,10.341156,0.4261679,-0.9233972,9.739221,0.682130041409351136929,-0.81283146,10.42196,0.24480712,-0.9217545,9.740359,0.66793551409351136943,-0.55006784,10.48002,0.037110128,-0.92165285,9.741292,0.65434541409351136966,-0.10115502,10.524911,-0.30466217,-0.9216275,9.742176,0.64109721409351136968,0.40342298,10.552444,-0.58538234,-0.9203375,9.743235,0.62671271409351136971,0.75836337,10.540473,-0.62249243,-0.91755414,9.744512,0.61073361409351136973,0.91578215,10.463859,-0.350152,-0.91426176,9.7457485,0.595747651409351136992,1.1288661,10.375273,0.05267244,-0.91170263,9.746615,0.58537351409351136993,0.9792285,10.318411,0.4794389,-0.9089321,9.747077,0.581997331409351136997,0.43275195,10.29387,0.9259575,-0.9084611,9.746796,0.58741761409351137003,0.3196259,10.314221,1.073201,-0.91320944,9.745678,0.59849781409351137020,-0.16519992,9.944317,0.9139865,-0.9177442,9.744518,0.610328561409351137023,-0.63087213,9.588778,0.60453594,-0.9260866,9.7434435,0.6148581409351137035,-0.94451255,9.380483,0.43155485,-0.9398537,9.742508,0.608797671409351137056,-1.043872,9.160814,0.2885013,-0.95805556,9.741687,0.59333181409351137058,-1.1869255,8.968081,0.08200141,-0.9773962,9.741142,0.570320371409351137064,-1.2677298,9.097368,-0.094570965,-0.99743336,9.740781,0.541048651409351137089,-1.1994951,9.275137,-0.1400608,-1.018006,9.740509,0.50649291409351137090,-1.1546037,9.276933,-0.25139117,-1.0390793,9.740252,0.467121271409351137095,-1.0666169,9.128492,-0.29508537,-1.0617975,9.73987,0.421807381409351137121,-0.76554596,9.260174,-0.38486794,-1.0870336,9.73909,0.37265551409351137123,0.011372458,9.547478,-0.41000703,-1.1104325,9.738245,0.322382541409351137125,-0.10295067,9.546879,-0.3537433,-1.1256001,9.738071,0.270926481409351137137,0.20171149,9.77373,-0.22385786,-1.1408913,9.737521,0.222438051409351137166,0.492607,9.979631,-0.25258827,-1.1558173,9.736656,0.178891761409351137168,0.2873042,10.074203,-0.3842694,-1.1666057,9.736032,0.138245871409351137170,0.36511576,10.274716,-0.3250129,-1.1770552,9.735255,0.098808171409351137188,0.5781997,10.238804,-0.29149407,-1.1852714,9.734553,0.0633610041409351137190,0.3866636,10.253169,-0.11372458,-1.1886294,9.734291,0.0339519531409351137196,0.5746084,10.081385,0.16579847,-1.1930698,9.733792,0.0160100551409351137218,0.6015432,10.059238,0.47465047,-1.1937295,9.733716,0.012768881409351137219,0.5805939,10.123882,0.52492875,-1.1873993,9.734484,0.0175292271409351137231,0.5434838,10.125677,0.3393781,-1.1785221,9.735525,0.0320341361409351137254,0.49200845,10.019135,0.06284779,-1.1668603,9.736847,0.051253221409351137256,0.3842694,9.762358,-0.13826515,-1.1536,9.738313,0.06978491409351137258,0.27832595,9.56304,-0.05865794,-1.1408173,9.739687,0.086342071409351137264,0.19931729,9.470863,0.1328782,-1.1299604,9.740777,0.104125561409351137292,0.16220717,9.516952,0.26156655,-1.1219484,9.741456,0.125109311409351137294,0.108337626,9.715072,0.3172317,-1.1175303,9.741651,0.147585351409351137301,-0.002394202,9.919178,0.4345476,-1.1174239,9.741304,0.169582081409351137331,-0.038905777,10.126875,0.65541273,-1.1231949,9.740195,0.193494871409351137333,0.04309563,10.250176,0.59256494,-1.134526,9.738245,0.22318391409351137337,-0.09696517,10.267534,0.6206968,-1.1476578,9.735923,0.255104061409351137360,-0.31244332,10.222643,0.51595044,-1.1680887,9.732433,0.292755451409351137362,-0.4961983,10.247782,0.55844754,-1.1966673,9.727627,0.33415131409351137365,-0.52971715,10.299257,0.55605334,-1.232343,9.721569,0.37788991409351137367,-0.5315128,10.327389,0.1933318,-1.2733808,9.714499,0.421180751409351137388,-0.55964464,10.129868,0.02813187,-1.3178214,9.706864,0.45883391409351137390,-0.54049104,10.0748005,-0.076614454,-1.3655311,9.6987,0.490874471409351137396,-0.38606504,10.065823,-0.19871874,-1.4132874,9.690493,0.51707391409351137413,-0.049081136,10.131064,-0.41599256,-1.4565818,9.682897,0.53877431409351137419,0.5069722,10.12448,-0.5883751,-1.4909704,9.67667,0.556280731409351137444,1.1563994,10.105926,-0.4249708,-1.5137825,9.672331,0.56999771409351137446,1.8614918,10.1161,-0.19692309,-1.5266832,9.669466,0.583985871409351137447,2.136825,10.0825815,0.061052144,-1.5258722,9.66893,0.594917061409351137476,2.718616,10.148422,0.6051345,-1.5158088,9.66996,0.603806441409351137478,3.0137014,10.174759,1.0869676,-1.4942496,9.672554,0.61590081409351137481,3.128623,10.152014,1.5370775,-1.462444,9.676419,0.63130821409351137487,3.0561984,9.946711,2.034473,-1.419122,9.681689,0.649123251409351137508,2.7030537,9.643246,2.4690206,-1.3680614,9.687597,0.67027771409351137509,2.1643584,9.414001,2.6156654,-1.3137817,9.693532,0.692696451409351137516,1.6041151,9.335591,2.4504654,-1.2577395,9.699715,0.709955041409351137533,0.90141696,9.811439,2.2056582,-1.1996298,9.706499,0.717761341409351137553,0.43873745,10.970232,1.7322049,-1.1409519,9.713562,0.717869461409351137555,0.40521863,12.032061,0.91697925,-1.0827599,9.720998,0.707276171409351137557,-0.22744916,12.668919,0.20111294,-1.0175436,9.729851,0.68192491409351137565,-0.5979519,12.624625,-0.17657238,-0.9573145,9.738797,0.64014381409351137593,-1.1085154,12.066776,-0.80924016,-0.9067998,9.746972,0.587062241409351137595,-1.678934,11.52868,-1.4915876,-0.86684304,9.754304,0.52203881409351137597,-2.5127146,11.360487,-1.7447745,-0.83574593,9.76062,0.44966451409351137619,-3.1848867,11.633426,-1.6095021,-0.816779,9.765215,0.379292161409351137621,-5.3881507,11.523293,-1.6017209,-0.80861795,9.7679825,0.32103171409351137625,-4.3424835,12.790424,-1.5394717,-0.8270801,9.767726,0.278989971409351137666,-4.661511,12.741343,-1.602918,-0.8290113,9.768155,0.25742811409351137668,-5.2026005,12.546215,-1.483208,-0.82563424,9.768754,0.245312741409351137670,-5.779603,12.006922,-0.92296475,-0.8096657,9.76995,0.250790861409351137672,-6.1489086,11.385028,-0.06703765,-0.79595894,9.770373,0.27691841409351137696,-6.14412,10.592546,0.79607207,-0.787785,9.769522,0.325942841409351137698,-6.0621185,9.593566,1.6579847,-0.77806354,9.767848,0.392669531409351137700,-5.6227827,8.570643,2.380435,-0.7615686,9.765671,0.471271371409351137721,-5.083489,7.941567,2.7994204,-0.7318958,9.763524,0.555253151409351137723,-4.3161473,7.751827,2.9053638,-0.6850037,9.761972,0.63641751409351137725,-3.3183637,8.130111,2.943671,-0.61366224,9.761832,0.707424641409351137753,-2.4480712,8.801085,2.7012582,-0.51636064,9.7630415,0.76602121409351137755,-0.3333926,9.455301,1.7561469,-0.3988485,9.764884,0.81141171409351137756,0.5231331,9.822212,1.027711,-0.26096418,9.766867,0.842973531409351137764,1.0426749,10.197504,0.4297592,-0.11083266,9.768425,0.857888161409351137782,1.3670892,10.258555,-0.15203181,0.045507807,9.768932,0.858086941409351137798,1.389834,9.890448,-0.45070848,0.20334743,9.767966,0.846096041409351137800,1.1725603,9.425972,-0.43035775,0.35502663,9.765067,0.829354171409351137813,1.0229226,9.063251,-0.08379706,0.49627677,9.7599535,0.816954141409351137816,0.90740246,8.600571,0.3657143,0.6270982,9.752293,0.81848851409351137828,0.9127894,8.00621,0.760159,0.74955595,9.741892,0.839112161409351137847,1.1605892,7.578247,1.0899603,0.86407113,9.729061,0.877002061409351137848,1.3012487,7.0395517,1.4371196,0.9727227,9.714038,0.92827631409351137863,1.4945804,6.907272,1.7465701,1.0753279,9.69749,0.986295341409351137864,1.8537107,7.0826473,1.9303252,1.1749471,9.678868,1.05326811409351137877,2.0290859,6.9569516,1.8992004,1.2707357,9.658884,1.12320551409351137885,2.1188686,6.7809777,1.7609353,1.3603342,9.638738,1.18938111409351137901,2.19668,6.631939,1.6334441,1.4418032,9.619811,1.24532511409351137905,2.2786815,6.679224,1.5155296,1.514043,9.603011,1.28848851409351137916,2.2403743,6.8641763,1.3317747,1.5759,9.588798,1.31981541409351137936,2.1230583,6.8947024,1.0989386,1.6273423,9.576923,1.34338211409351137946,1.8968062,6.930017,1.1683705,1.6656542,9.56763,1.36252121409351137947,1.9285295,6.728904,1.1881226,1.6879365,9.560779,1.38303781409351137972,2.0326772,6.518214,1.2569559,1.6971701,9.555559,1.4075891409351137974,2.2691047,6.5032506,1.477821,1.701194,9.550774,1.43493991409351137976,2.6132712,6.8091097,1.8920178,1.6947117,9.546756,1.46895851409351137998,2.9418752,7.429806,2.3481133,1.6796573,9.543048,1.50974821409351137999,3.0424318,8.284536,3.0585926,1.6592611,9.5392885,1.555381409351138013,3.015497,9.132683,3.7247794,1.6344707,9.535312,1.60521641409351138033,3.3303347,9.847352,3.8265328,1.6072478,9.531123,1.65675491409351138035,3.4757824,10.340557,3.9067385,1.5844613,9.5271015,1.70124581409351138051,2.9245174,10.696694,4.3777976,1.5703337,9.523291,1.73534141409351138052,1.6328455,11.295844,4.2179847,1.5628334,9.519673,1.76174381409351138059,0.760159,12.700043,3.0603883,1.5552984,9.518861,1.77277951409351138065,1.4407109,13.0442095,1.2306197,1.5498168,9.522618,1.75733411409351138081,2.8975825,12.036849,-0.005386954,1.5602964,9.528388,1.71630421409351138111,4.6058455,10.860698,0.12030864,1.6142914,9.529666,1.65828631409351138112,6.0166287,9.723452,1.4041992,1.7082001,9.520685,1.61524151409351138114,6.7504516,8.881889,3.341707,1.8292907,9.499512,1.60728851409351138117,6.597821,9.412206,7.2789717,1.9653355,9.468489,1.62959741409351138134,4.3424835,16.848597,5.4144874,2.103703,9.42833,1.68861371409351138137,2.6210523,17.369335,2.8574798,2.1929505,9.404526,1.7077071409351138145,0.3321955,15.297153,2.3930047,2.2457557,9.394863,1.69218971409351138165,-1.1881226,13.032238,1.472434,2.2663229,9.390784,1.6874061409351138166,-1.6196774,12.07336,0.7164649,2.266788,9.389026,1.69653331409351138182,-1.8555063,11.280281,1.1348516,2.2440457,9.390422,1.718911409351138200,-2.2589293,10.787674,1.1647792,2.2092135,9.389397,1.76890241409351138201,-2.6461914,10.354922,0.760159,2.1458454,9.3941,1.82116041409351138205,-2.8095956,9.44752,0.57640404,2.0591395,9.408219,1.84817871409351138217,-2.5408466,9.033323,0.62728083,1.9671222,9.4281645,1.84676661409351138234,-2.0979192,9.309255,0.7074866,1.8832709,9.448943,1.82788421409351138239,-1.6262615,9.409213,0.53929394,1.811399,9.468057,1.80142341409351138245,-0.83976626,9.198523,0.19033903,1.7496941,9.48555,1.77011411409351138268,-0.06464344,9.060856,0.10474633,1.6916206,9.503275,1.73105871409351138269,0.18195933,9.1668,0.23223756,1.6294873,9.522701,1.68324831409351138280,0.14784196,9.51755,0.6500258,1.5591353,9.54341,1.63181151409351138302,0.13227965,9.842564,1.0253168,1.4827526,9.563349,1.58562431409351138304,0.13227965,9.711481,0.99778354,1.4038365,9.581249,1.54897191409351138306,-0.4285621,9.522937,0.6877344,1.3259561,9.597192,1.51859321409351138339,-0.7104794,9.15423,0.65900403,1.2441713,9.614089,1.48045021409351138341,-1.0342951,8.82802,0.54527944,1.1581223,9.6323185,1.43094121409351138346,-1.2671312,8.563461,0.32202014,1.0682707,9.650915,1.37441211409351138347,-1.2838906,8.326435,0.02813187,0.9788449,9.668436,1.31665431409351138367,-1.1438298,8.168418,-0.207697,0.8967833,9.683779,1.26119021409351138368,-0.86729956,8.429984,-0.130484,0.8257928,9.696748,1.20895151409351138381,-0.7398083,9.021951,0.24121583,0.76897126,9.707032,1.16300921409351138399,-0.6667852,9.293094,0.5554548,0.72511667,9.7143345,1.129731409351138401,-0.8643068,9.1751795,0.6075287,0.68660337,9.719867,1.10596451409351138419,-1.1186907,8.897452,0.30526072,0.6486602,9.723303,1.09864811409351138421,-1.3371617,8.750209,0.08379706,0.6023777,9.726465,1.09701371409351138426,-1.2659341,9.051878,0.14544775,0.54091394,9.731298,1.08610891409351138448,-0.79487497,9.312846,0.24361002,0.46497768,9.738191,1.05916771409351138450,-0.46686932,9.172187,0.130484,0.38081747,9.746011,1.02012861409351138477,0.1364695,9.2308445,0.11671733,0.29299524,9.753128,0.980326831409351138478,1.0348936,9.114127,0.1933318,0.20843671,9.757868,0.95443191409351138480,1.6412252,8.860941,0.43394905,0.13984379,9.759564,0.94961491409351138495,1.8836381,8.81605,0.84096336,0.09012232,9.758298,0.968455731409351138511,2.0458453,8.842385,1.4891934,0.04825316,9.7552,1.00206981409351138512,1.9829975,8.924985,1.6346412,0.012823826,9.748756,1.0639451409351138529,1.9470845,9.011177,1.5304934,-0.023720482,9.739951,1.14155961409351138530,1.7262194,9.007586,1.2617443,-0.06426263,9.730249,1.22004511409351138546,1.5927427,9.1350765,0.89782566,-0.11020152,9.721221,1.28690851409351138560,1.4772224,9.5013895,0.7954735,-0.15911953,9.713627,1.33811561409351138562,1.3724761,9.870695,0.93014735,-0.20609249,9.706834,1.38033621409351138565,1.4209588,9.903615,1.0851719,-0.24663755,9.699151,1.42690441409351138581,1.4030021,9.677363,1.3060371,-0.27939907,9.689339,1.48629071409351138601,1.3976152,9.4535055,1.9351135,-0.30864143,9.676702,1.5609611409351138603,1.1653777,9.116522,2.417545,-0.33974546,9.660431,1.65257951409351138606,0.7745243,8.693945,2.5390508,-0.37627393,9.641524,1.75208971409351138637,0.694917,8.342596,2.2774844,-0.42185187,9.621029,1.85154971409351138639,1.1336545,8.255207,1.7046716,-0.47117025,9.602514,1.93393581409351138640,2.1092918,8.374918,1.3335704,-0.513899,9.588649,1.9910121409351138645,2.7515364,8.92319,1.8435353,-0.54103327,9.579735,2.0264171409351138671,2.915539,9.520543,2.0332758,-0.5528308,9.573597,2.05207511409351138672,2.678513,9.703101,1.8674773,-0.5570595,9.56887,2.07287761409351138680,2.0153193,9.701305,1.6478093,-0.5607563,9.565985,2.0851631409351138697,1.6472107,9.88506,1.5532384,-0.56920093,9.565893,2.08328991409351138699,1.9458874,10.174759,1.9931729,-0.57635915,9.570194,2.06145221409351138713,1.910573,10.317214,2.0231004,-0.5710309,9.578576,2.02365451409351138733,1.6621746,10.253169,1.7938557,-0.5584324,9.58846,1.97989791409351138735,1.8207904,10.205285,2.3666685,-0.5311749,9.600457,1.9285951409351138742,1.0875661,10.6117,2.6791117,-0.4842172,9.612841,1.87862591409351138746,0.024540568,10.723031,2.1092918,-0.43249366,9.626515,1.82031231409351138761,-1.4532804,9.999383,1.2563573,-0.38752356,9.642431,1.74462831409351138767,-2.697667,8.982447,0.65242,-0.34820724,9.65985,1.65421631409351138784,-3.4249055,8.3390045,-0.025139118,-0.30574748,9.678025,1.55330851409351138785,-3.757101,8.796297,-0.42676646,-0.2574659,9.697476,1.43633221409351138799,-4.378995,10.92594,-0.32022446,-0.20394072,9.717073,1.30662621409351138818,-5.6586957,14.586674,-0.09816227,-0.1542617,9.73404,1.181121409351138819,-3.7493198,18.991405,-0.044292733,-0.12893866,9.7482195,1.06112991409351138826,-3.3662477,19.608511,-0.64823014,-0.07560813,9.758972,0.962881409351138853,-3.2800562,19.608511,-0.95229375,-0.001513181,9.766941,0.881632031409351138856,-2.8592753,18.025347,-0.26994625,0.07023199,9.772372,0.816228151409351138859,-2.630629,14.329297,0.96306765,0.13392332,9.77325,0.797541561409351138866,-2.4546554,10.840346,3.7900212,0.1857733,9.768739,0.841220561409351138901,-3.3363202,8.053496,4.5783124,0.2213344,9.758847,0.941439151409351138906,-3.3518825,8.300098,4.7405195,0.24374859,9.747724,1.04540691409351138907,-1.881244,9.132683,4.1922474,0.27022195,9.738327,1.12354291409351138909,-0.43155485,8.995614,3.318962,0.3347626,9.732531,1.15593241409351138933,0.5770026,8.917803,2.8048072,0.45167398,9.729354,1.14282681409351138935,1.6244658,9.3026705,2.1853075,0.5897932,9.7254305,1.11288821409351138938,2.1272483,9.121908,1.3605051,0.7469812,9.720008,1.06481771409351138946,2.183512,8.46051,0.688333,0.9011478,9.712706,1.01077511409351138967,1.9327193,7.7637978,0.29448682,1.0388044,9.703926,0.96182961409351138968,1.6705543,7.373543,0.22505496,1.1552614,9.693876,0.92980721409351138978,1.4514848,6.805518,0.26874915,1.2560338,9.68155,0.9275551409351138999,1.3150153,6.093243,0.521936,1.3481709,9.666062,0.95919111409351139000,1.3180081,5.8304796,0.9355343,1.4348379,9.6474495,1.01898941409351139006,1.4197617,5.723339,1.2378023,1.5194377,9.625753,1.09844821409351139032,1.3042414,5.4845176,1.3880384,1.6033082,9.60122,1.19010531409351139034,1.3359646,5.3803697,1.4550761,1.6810428,9.575462,1.28646021409351139038,1.3359646,5.4563856,1.5592239,1.7528,9.549075,1.38321151409351139049,1.3497312,5.6030307,1.7220296,1.8136222,9.524636,1.47053431409351139078,1.1085154,6.067506,1.9620483,1.8623055,9.503835,1.54250761409351139079,1.1055226,6.4948707,1.87047,1.8963357,9.4881525,1.59664261409351139082,1.1432313,6.8743515,1.6448165,1.9165463,9.478201,1.63124281409351139106,1.4203602,7.264008,1.6651673,1.9227384,9.474152,1.64739431409351139108,1.7495629,7.3950906,1.8381484,1.9157759,9.475185,1.64956821409351139109,2.195483,7.417237,1.9500773,1.8970479,9.479731,1.64509421409351139133,2.7287915,7.814076,2.0446482,1.867452,9.486568,1.63952431409351139135,3.259107,8.635885,2.1332338,1.825712,9.4954815,1.63493111409351139139,3.5087025,9.504382,2.5264814,1.780468,9.504835,1.63047771409351139147,3.6206315,9.915586,2.7730842,1.7232089,9.515129,1.63194311409351139171,3.5284548,9.670779,3.277662,1.6586934,9.525269,1.63963711409351139172,3.4733882,9.121908,3.4763808,1.5924513,9.534076,1.65405381409351139194,1.8620903,9.768942,4.494515,1.5324193,9.541563,1.66752931409351139195,-0.23463176,13.22138,5.3821654,1.4667928,9.548481,1.68683961409351139213,-0.32441434,14.606426,4.0372224,1.3812588,9.555348,1.71983231409351139214,0.91219085,14.184448,1.4736311,1.3218112,9.561798,1.730671409351139231,3.0490158,13.198037,0.08619126,1.3314967,9.565978,1.69988261409351139232,5.1361613,11.6430025,0.93014735,1.4050597,9.560742,1.66985341409351139246,6.173449,10.307637,4.0797195,1.5223818,9.538675,1.69304721409351139248,3.316568,17.013197,8.3821,1.6622388,9.502225,1.76496211409351139264,1.1947067,19.108723,4.3317094,1.7737348,9.455287,1.90310571409351139281,-0.20530279,16.499043,1.7244238,1.8567909,9.429043,1.95342781409351139295,-0.741604,12.7096195,1.0187328,1.9232934,9.412482,1.96888541409351139296,-0.9103952,10.263344,0.427365,1.9735146,9.392778,2.0127931409351139298,-1.2431892,9.519346,1.775899,1.9953082,9.36968,2.09719321409351139313,-2.010531,9.55885,2.7275944,1.9771696,9.348106,2.20773741409351139349,-2.4648306,9.97185,1.6747441,1.916534,9.338241,2.30099031409351139350,-2.825158,10.42196,0.6817489,1.8283154,9.348238,2.33197641409351139352,-2.9634233,10.090961,0.6691794,1.7272961,9.376028,2.29716181409351139353,-2.7048495,9.811439,0.705691,1.6299839,9.406533,2.2429181409351139358,-2.2613235,9.847352,0.7457938,1.5450587,9.43425,2.18588571409351139387,-1.1857284,9.621099,0.5895722,1.4682848,9.456812,2.140861409351139389,0.25019407,9.406818,0.688333,1.4011937,9.477323,2.0946151409351139390,1.4688427,9.129689,0.89543146,1.336956,9.49848,2.04004981409351139421,1.8734628,9.00579,0.89782566,1.272707,9.519974,1.98007441409351139423,1.7405846,8.831612,0.97144735,1.2053622,9.54041,1.92303911409351139424,1.666963,8.655039,1.359308,1.1362809,9.557775,1.878351409351139427,1.1210849,8.692748,1.79206,1.0680392,9.572066,1.84532981409351139450,0.59974754,9.548675,1.797447,0.99625725,9.586621,1.8095711409351139451,-0.011971008,9.5253315,1.4359225,0.9182618,9.604254,1.75655961409351139461,-0.5363012,9.384073,0.87448215,0.83328027,9.623016,1.69516151409351139478,-1.1683705,8.768764,0.16101007,0.7418493,9.642554,1.62518071409351139480,-1.7154455,8.365939,-0.4369418,0.64231783,9.660726,1.55826461409351139493,-1.8884265,8.413225,-0.47884035,0.5340549,9.677003,1.49693491409351139515,-1.7764976,8.622718,-0.14664486,0.4248489,9.69053,1.44343651409351139517,-1.6603789,8.780735,-0.059855044,0.32790247,9.700715,1.39963891409351139520,-1.6693572,8.696938,-0.035913024,0.2496534,9.707946,1.36523691409351139526,-1.4903905,8.541314,0.05746084,0.18351328,9.712598,1.34244511409351139547,-1.3844471,8.515577,0.050278235,0.12029344,9.714875,1.33308341409351139549,-1.4053963,8.591593,0.15023616,0.051621176,9.715873,1.3302521409351139559,-1.2587515,8.673594,0.23762453,-0.029073827,9.716684,1.32499021409351139573,-0.7697359,8.9040365,0.350152,-0.11429303,9.717195,1.3166111409351139591,-0.10414778,9.039309,0.50517654,-0.20322658,9.717887,1.30067811409351139593,0.6362591,8.896255,0.60812724,-0.287614,9.717768,1.28556531409351139608,1.3192052,8.759187,0.74758947,-0.36273164,9.715595,1.28297591409351139609,1.7729063,8.6334915,0.98700964,-0.42722252,9.711087,1.29716631409351139625,2.0033484,8.598177,1.6819267,-0.4803918,9.703957,1.33146951409351139626,2.0284874,8.714894,1.7064673,-0.52427584,9.693778,1.38788061409351139642,1.9578584,8.717887,1.6244658,-0.5655509,9.681929,1.45286311409351139647,1.7561469,8.535329,1.4951789,-0.61079484,9.669422,1.5164411409351139666,1.602918,8.471883,1.359308,-0.66408885,9.657157,1.57120781409351139668,1.5532384,8.732252,1.2898762,-0.7254687,9.644593,1.6204591409351139678,1.4526819,9.107543,1.2384008,-0.7878267,9.632508,1.66268781409351139703,1.38325,9.459491,1.4197617,-0.84834653,9.620552,1.70167121409351139706,1.3066356,9.681553,1.4826094,-0.9028898,9.607848,1.74482881409351139709,1.2084733,9.773131,1.7184383,-0.9538484,9.593568,1.79556011409351139740,1.0540473,9.688736,2.3253684,-1.0047494,9.577132,1.85456591409351139742,0.59017074,9.321824,2.4331074,-1.0599537,9.557925,1.92171741409351139743,0.088585466,8.870518,2.332551,-1.1232251,9.537225,1.98748091409351139747,0.2100912,8.634688,1.7567455,-1.1932263,9.517092,2.0424481409351139761,0.62608373,8.385692,1.0959458,-1.2594956,9.500077,2.08148841409351139777,1.4065934,8.613739,1.0522517,-1.3150537,9.48715,2.10594771409351139779,2.0614076,9.247005,1.3916297,-1.3583918,9.476942,2.1243191409351139797,1.9123687,9.688736,1.6627731,-1.3841555,9.471227,2.13316181409351139800,1.4790181,10.037092,1.6980876,-1.4010547,9.467948,2.1366771409351139806,1.1414356,10.09575,1.4257472,-1.4130428,9.465657,2.13893871409351139825,1.3934253,10.255563,2.2014685,-1.415376,9.465973,2.13599371409351139827,1.5382746,10.032902,3.0520086,-1.3995855,9.470116,2.12801861409351139843,1.2294226,9.354745,2.4941597,-1.3684517,9.478193,2.11224411409351139861,1.3479356,8.792706,2.023699,-1.3236156,9.491561,2.08055831409351139864,1.0235212,8.758589,2.60549,-1.2547271,9.510533,2.036131409351139890,0.7715315,8.79929,2.5558102,-1.1679584,9.532664,1.98358321409351139893,-0.24779987,7.877522,1.7495629,-1.0752184,9.557073,1.91746331409351139894,-1.5951369,6.8408327,1.0582372,-0.99237263,9.581923,1.8363961409351139914,-2.6443958,6.481104,0.45250413,-0.9064292,9.609642,1.73307591409351139916,-3.6768951,7.304111,0.03172317,-0.81699836,9.639942,1.60449451409351139919,-4.8422728,10.027515,0.19931729,-0.7281959,9.669501,1.46317411409351139927,-5.883152,14.688427,0.5847838,-0.6493974,9.694671,1.32742181409351139945,-3.8241386,19.38585,1.074398,-0.58904916,9.713798,1.21059391409351139947,-2.777274,19.608511,-0.1364695,-0.49014214,9.730243,1.11917591409351139958,-3.9845502,19.608511,-1.7902644,-0.36628166,9.746253,1.02311911409351139975,-4.4113164,19.608511,-1.75076,-0.28526437,9.760274,0.908874871409351139980,-4.0378213,17.402254,-0.47285482,-0.24605836,9.768315,0.83059921409351139998,-3.2812533,13.197438,1.401805,-0.22272512,9.770795,0.80768941409351140001,-3.221997,7.414244,4.4274774,-0.19249526,9.766541,0.864907151409351140007,-3.881001,8.316259,5.48751,-0.16259342,9.7569475,0.97259361409351140034,-2.6138697,10.271724,5.3282957,-0.13489418,9.745843,1.08201791409351140037,-1.1653777,10.493786,4.7578773,-0.07730014,9.737373,1.16102471409351140039,0.18914193,9.937134,3.90614,0.033356216,9.7331,1.19834711409351140066,0.93972415,8.881889,2.9819782,0.18883185,9.73154,1.19660931409351140068,1.2892777,7.964312,2.144606,0.35316056,9.730012,1.17155611409351140070,1.6011224,7.545925,1.5388732,0.50516933,9.727131,1.13934541409351140079,2.0925324,7.639299,1.0528502,0.64033747,9.722345,1.11192311409351140100,2.4462755,7.5124063,0.6787562,0.76560795,9.715043,1.09644561409351140102,2.496554,7.4471645,0.676362,0.88767904,9.705604,1.08797821409351140107,2.1164744,6.825869,0.7422025,1.0022553,9.693077,1.10006791409351140126,1.6717514,6.1860185,0.91697925,1.1065327,9.677779,1.1342631409351140128,1.5442601,5.8143187,1.033098,1.1992433,9.660352,1.18737031409351140145,1.453879,5.638345,0.96306765,1.2824818,9.641276,1.25356331409351140148,1.3623008,5.525219,0.84934306,1.3575784,9.621247,1.32626321409351140159,1.2054806,5.398925,0.8475474,1.4213988,9.601784,1.39849731409351140178,0.94570965,5.203199,1.0265139,1.4703425,9.584291,1.46622771409351140182,0.7284359,5.2037973,1.2084733,1.5024215,9.570075,1.52537781409351140187,0.87927055,5.3995233,1.1629834,1.5186096,9.560073,1.57136961409351140213,1.0384849,5.6245785,1.1629834,1.5214348,9.554842,1.60019531409351140215,1.0767922,5.8238955,1.371279,1.5186764,9.552034,1.61945771409351140219,1.0857705,6.0848637,1.8405426,1.5016191,9.553953,1.62403861409351140229,1.2737153,6.3578024,2.2870612,1.4707522,9.559437,1.6200061409351140255,1.6537948,6.7773867,2.6485856,1.4273399,9.567036,1.61397781409351140256,2.1380222,7.7470384,2.9670146,1.3735209,9.575697,1.60929631409351140259,2.6503813,9.211093,3.1830912,1.3110133,9.584793,1.60729431409351140283,2.9586349,10.481815,3.345897,1.2415625,9.5942335,1.60610951409351140284,3.0969,10.971429,3.6924577,1.1702348,9.603396,1.60490661409351140287,3.072958,10.455479,4.0001125,1.1049598,9.611138,1.60483711409351140322,2.131438,11.69388,4.797382,1.0527294,9.617048,1.60454361409351140324,0.6027403,15.334264,5.183447,1.0039691,9.620914,1.61259711409351140326,0.20111294,15.29835,3.1914709,0.9384363,9.623749,1.63499081409351140328,1.1085154,14.041993,0.35254622,0.89244086,9.628446,1.63308291409351140348,3.2824504,12.964602,-1.0648212,0.9002501,9.635144,1.5886921409351140359,5.507861,11.457452,-0.5081693,0.96514666,9.636051,1.54446881409351140365,6.5858502,9.532514,2.3660698,1.0707473,9.623663,1.5520951409351140397,5.725135,12.324752,9.559449,1.2028177,9.59628,1.62327171409351140399,4.650737,17.906235,6.26802,1.3550972,9.54899,1.7750791409351140400,2.7060466,19.305046,2.9418752,1.4967656,9.517427,1.82993641409351140401,-0.32441434,15.4845,2.4007857,1.5949214,9.508614,1.79244981409351140407,-2.5558102,11.48738,1.2024878,1.638319,9.505317,1.77066181409351140423,-2.6264393,10.128072,-0.12270284,1.6567348,9.501923,1.77174841409351140429,-2.4109612,10.012551,1.3383588,1.6529688,9.495704,1.80822671409351140450,-2.2613235,10.110115,1.7298107,1.6273168,9.487693,1.87241361409351140452,-2.2960393,9.970055,0.770933,1.584502,9.4839115,1.9274821409351140459,-2.1338322,9.329007,0.31902736,1.5247663,9.49001,1.94555771409351140487,-2.006341,9.281123,0.5793968,1.4589742,9.503172,1.93171111409351140489,-1.8926164,9.67018,0.741604,1.3975018,9.517777,1.90507141409351140491,-1.2024878,10.015544,0.50637364,1.3438243,9.531805,1.87329391409351140513,-0.12330139,9.986216,0.41120413,1.296497,9.546379,1.8319841409351140515,0.94451255,10.108319,0.2100912,1.2486423,9.562753,1.77905791409351140519,1.3257892,10.35193,0.0688333,1.1941006,9.581009,1.71719971409351140527,0.9403227,10.354323,0.43634325,1.1326978,9.599136,1.65649351409351140548,0.48961425,10.070012,0.9935937,1.0571263,9.615411,1.61145321409351140550,0.12569559,9.518747,1.039682,0.9677853,9.628339,1.59024621409351140559,-0.79128367,9.0081835,1.2791022,0.87061805,9.640517,1.57252751409351140585,-1.0319009,8.957906,1.4688427,0.7640163,9.654999,1.53873111409351140587,-1.264737,8.610147,1.3323733,0.6551044,9.671091,1.48701851409351140589,-1.3006501,8.190564,0.8026561,0.5479954,9.686988,1.42561451409351140616,-1.2096704,7.727885,0.16579847,0.4469044,9.701418,1.36132411409351140618,-1.311424,7.275979,-0.3645172,0.35550153,9.713812,1.29842011409351140620,-1.4024036,7.4962454,-0.4842273,0.2758201,9.7239485,1.24063191409351140629,-1.3994108,8.111555,0.12868834,0.20257922,9.732486,1.18662921409351140659,-1.3706805,8.872313,0.6859388,0.14394085,9.738047,1.14896251409351140662,-1.2030864,9.355343,0.7793127,0.098546304,9.740731,1.13085581409351140682,-1.2473791,9.082404,0.43634325,0.05701573,9.740952,1.13182721409351140684,-1.359308,8.634089,-0.12988544,0.007738486,9.739389,1.14657891409351140686,-1.2731167,8.275558,-0.49320555,-0.057908293,9.7381525,1.15561961409351140688,-0.9540894,8.446744,-0.3477578,-0.14278087,9.7387905,1.14279941409351140712,-0.33399114,9.308656,-0.12569559,-0.24024785,9.740214,1.11395671409351140714,0.4758476,9.547478,0.05566519,-0.33837593,9.740447,1.08609261409351140724,1.2785037,9.3499565,0.2669535,-0.42622957,9.73823,1.07498841409351140748,2.235586,9.252393,0.47764325,-0.4999439,9.733627,1.08487961409351140749,2.825158,8.99741,1.1007342,-0.5595631,9.728003,1.10602131409351140751,2.5905263,8.935161,1.5825673,-0.60274714,9.719731,1.15495041409351140761,2.1230583,8.931569,1.9261353,-0.63672364,9.7074175,1.23734461409351140776,1.6280571,8.774749,1.9458874,-0.669563,9.689937,1.3517321409351140782,1.0702082,8.540716,1.6178818,-0.7098741,9.668313,1.47992771409351140788,0.7691373,8.611943,1.2300211,-0.76513886,9.644988,1.59974871409351140823,0.76195467,9.0429,1.1785458,-0.8329221,9.622776,1.69670281409351140825,0.6961141,9.300875,1.3634979,-0.9023898,9.602839,1.77244161409351140827,0.5494693,9.214086,1.7896658,-0.96369034,9.584818,1.83655381409351140849,0.56323594,8.674791,2.4540567,-1.015659,9.5664835,1.9029521409351140851,0.5530606,8.018182,2.4049757,-1.0635543,9.5461035,1.9776651409351140864,0.56922144,7.289147,2.0787656,-1.1130205,9.523561,2.05752181409351140869,1.0055647,6.8103065,1.5149311,-1.1645919,9.501306,2.13056951409351140917,1.9237411,7.00723,0.9528923,-1.211269,9.48308,2.18504741409351140921,2.9867666,7.6285253,1.5059528,-1.2443552,9.471711,2.21555421409351140924,3.3195608,8.595782,2.4313118,-1.2613702,9.466117,2.2297921409351140928,2.8215668,9.519944,3.0424318,-1.2687877,9.463377,2.23720311409351140929,1.988983,10.172364,3.3746274,-1.2764354,9.461203,2.24204471409351140930,1.186327,10.760141,3.09271,-1.285132,9.4590845,2.2460161409351140951,0.98700964,11.151593,3.4183214,-1.2915878,9.460477,2.23641821409351140953,1.0235212,10.755353,3.1268275,-1.2880394,9.467111,2.2102351409351140955,1.1593921,10.487202,2.3080103,-1.2804887,9.476911,2.17230771409351140980,1.4209588,10.854114,2.381632,-1.2560227,9.493134,2.11499261409351140982,1.5269021,11.341333,2.5252843,-1.2079921,9.513857,2.04882171409351140984,0.8583213,11.119271,1.6190789,-1.1450825,9.5374775,1.97375151409351140988,-0.51595044,10.34355,0.32441434,-1.0842732,9.564174,1.87651691409351141008,-1.7465701,9.440337,-0.34715924,-1.02792,9.594022,1.75171741409351141010,-2.6515784,8.890269,-0.74998367,-0.96697354,9.625881,1.60554021409351141024,-3.2980127,9.503783,-0.85293436,-0.8988283,9.6577835,1.44558991409351141040,-4.43466,11.95365,-0.46567222,-0.8266148,9.687485,1.28052441409351141041,-4.4657845,16.786945,0.37110126,-0.76163405,9.711941,1.12628361409351141052,-4.305373,19.604322,0.5554548,-0.6950192,9.730497,1.00237731409351141072,-4.9296613,19.608511,-0.65301853,-0.62240446,9.74561,0.89781981409351141073,-5.810129,19.608511,-1.6795325,-0.55829686,9.757175,0.81006961409351141087,-5.506664,18.0858,-1.1228806,-0.52556056,9.764842,0.73623281409351141089,-4.741118,14.211383,0.47225627,-0.50913244,9.767152,0.716895641409351141105,-3.7576995,10.327988,2.2457612,-0.4958367,9.7631855,0.77765731409351141109,-3.2124202,6.929418,3.7122097,-0.476982,9.754311,0.892351031409351141129,-3.6487634,8.327033,5.616797,-0.4444112,9.74402,1.01339551409351141131,-2.4319103,8.59698,5.08289,-0.4008777,9.734043,1.12166011409351141140,-0.641646,8.021174,4.0025067,-0.31205538,9.730695,1.1775481409351141167,0.56982,7.091625,3.0777464,-0.16840445,9.734509,1.17531981409351141169,1.7956513,7.654263,2.6509798,0.004831695,9.739422,1.1463211409351141172,2.7353754,8.256405,1.9997569,0.18596305,9.743726,1.09343711409351141202,2.7856536,7.99005,1.3688848,0.36947915,9.7454405,1.02968911409351141203,2.6090813,7.583634,0.7104794,0.53569746,9.743947,0.968975961409351141204,2.2948422,6.981492,0.2885013,0.67505735,9.739617,0.92441551409351141208,1.9728222,6.63553,0.3728969,0.7912073,9.732616,0.90585171409351141224,1.6921021,6.4840965,0.6895301,0.89330727,9.722689,0.917451561409351141263,1.3006501,5.7137623,0.8170213,0.9876395,9.70973,0.95711721409351141267,1.1180922,5.1666875,1.0642227,1.0726718,9.694557,1.01749361409351141270,1.0420763,4.9901147,1.3503298,1.1480516,9.677918,1.09098971409351141274,0.97144735,4.867412,1.4862007,1.2150133,9.6603155,1.17152211409351141280,0.93014735,4.7255554,1.5197195,1.2764245,9.641979,1.25434421409351141305,0.9576807,4.932654,1.5460558,1.3270652,9.624654,1.33241711409351141306,1.0570401,5.2504845,1.4957775,1.3661519,9.609564,1.40010881409351141309,1.3395559,6.0986304,1.3664906,1.394688,9.597678,1.452521409351141310,1.4215573,6.487688,1.6035166,1.4125866,9.589678,1.48765091409351141326,1.5251064,6.752846,2.055422,1.4169489,9.5857525,1.50863591409351141328,1.774702,7.104195,2.468422,1.4068978,9.5853815,1.52035731409351141340,2.0913353,7.49026,2.8431146,1.382804,9.587949,1.52627911409351141364,2.3930047,8.335413,3.1465795,1.3453227,9.593057,1.52766671409351141365,2.730587,9.607333,3.3087866,1.29438,9.600699,1.52365571409351141368,3.0011318,10.67814,3.5823243,1.2322438,9.610623,1.51257311409351141397,3.1232362,10.926538,3.840898,1.1695868,9.620497,1.49949861409351141400,3.1082723,10.33517,3.879804,1.1046375,9.6305,1.48447931409351141402,2.3409307,10.693702,4.341286,1.0474575,9.639866,1.4650031409351141408,0.9504981,14.322713,4.9296613,0.9958924,9.647594,1.45001291409351141424,0.516549,14.9625635,3.056797,0.9352622,9.652015,1.46091311409351141428,1.417966,13.934254,0.516549,0.8876919,9.655922,1.46476861409351141462,3.2585084,12.869432,-0.75237787,0.8941344,9.6595955,1.43636911409351141464,5.2181625,11.352706,-0.2645593,0.96279204,9.65731,1.40704881409351141466,6.221333,8.879496,2.2720973,1.076605,9.642904,1.42327811409351141468,6.513426,8.71669,6.559514,1.2164707,9.615491,1.49429811409351141502,5.163096,13.371616,9.832388,1.3849905,9.574864,1.6044321409351141504,1.6316484,19.49359,3.2172086,1.5467801,9.527151,1.73529411409351141507,-1.5358804,16.364368,2.5851393,1.6460218,9.512258,1.72568051409351141510,-2.9364884,13.177686,0.6967127,1.6917562,9.505282,1.71987681409351141533,-2.421735,12.121244,-0.28550854,1.7026467,9.499531,1.74077221409351141535,-2.617461,11.873445,1.0570401,1.6865783,9.492003,1.79658471409351141542,-3.2345665,11.678317,1.2695254,1.6331428,9.485165,1.88013051409351141568,-3.6966474,10.957064,0.3854665,1.541137,9.486591,1.94932331409351141571,-3.6948519,9.770139,0.17417817,1.4275872,9.498647,1.97689161409351141577,-3.3931823,9.105747,0.4309563,1.31452,9.513797,1.98244631409351141612,-3.0963013,8.877101,0.57400984,1.2138876,9.525412,1.99082961409351141615,-2.544438,8.660426,0.56982,1.1268091,9.5342865,1.99952661409351141619,-1.5807717,8.438364,0.7625532,1.0507137,9.542688,2.0008671409351141623,-0.30286652,7.963713,1.0283096,0.98218036,9.554086,1.98120551409351141628,0.35075054,7.5351515,1.1204864,0.9151904,9.567789,1.94685241409351141660,0.53809685,8.0127945,1.4933833,0.8441963,9.581645,1.91044661409351141662,0.60453594,8.839393,1.9422961,0.7691668,9.594102,1.87936011409351141664,0.47524905,9.015965,1.9201498,0.6914926,9.605604,1.85057471409351141666,0.005985504,9.17099,1.5197195,0.609315,9.618759,1.81069041409351141669,-0.5770026,9.570822,1.1031284,0.51708704,9.635859,1.74735221409351141697,-1.4191631,9.470863,0.13347675,0.41381505,9.6558,1.66272751409351141699,-1.5005659,8.940548,-0.2160767,0.2992258,9.676355,1.564931409351141700,-1.3838485,8.611345,-0.4189853,0.18411359,9.694269,1.46890531409351141721,-1.3491327,8.453327,-0.31184477,0.0718015,9.708131,1.38470841409351141722,-1.0295067,8.4904375,0.16639702,-0.031830434,9.717277,1.32056881409351141739,-0.89423436,8.567651,0.55365914,-0.11804654,9.721746,1.28222781409351141769,-0.919972,8.512584,0.57281274,-0.18414865,9.722261,1.27048231409351141771,-1.0103531,8.412626,0.3609259,-0.23759559,9.71992,1.27949451409351141777,-1.0462662,8.121132,0.22385786,-0.29305282,9.715401,1.30211261409351141779,-1.1234791,7.9128366,0.22385786,-0.361205,9.709326,1.33001071409351141800,-0.9804256,8.045714,0.30705637,-0.44762453,9.702977,1.34991821409351141801,-0.58538234,8.429385,0.47644615,-0.5532907,9.69686,1.35468331409351141804,-0.12808979,8.411429,0.5626374,-0.66820437,9.689837,1.3531251409351141822,0.8678981,9.089587,0.75836337,-0.7811046,9.682718,1.34358381409351141829,1.9075803,9.314043,1.0594343,-0.87757134,9.675745,1.33424661409351141854,2.6862943,9.09258,1.3880384,-0.9475651,9.669266,1.33334651409351141855,3.1794999,8.885481,1.6244658,-0.9905518,9.662884,1.34828391409351141857,3.2573113,8.665215,1.8058267,-1.0142423,9.655186,1.38531981409351141877,2.7299886,8.115147,1.9608512,-1.0297797,9.644498,1.44692151409351141878,2.4259248,8.01878,1.8357542,-1.0519394,9.630066,1.52501481409351141880,2.2768857,7.992444,1.6897079,-1.0825495,9.61387,1.60373991409351141888,2.3127987,8.143877,1.5304934,-1.1225837,9.596967,1.67583421409351141912,2.4115596,8.429984,1.4568717,-1.167762,9.580598,1.73748721409351141915,2.5779567,8.630499,1.5532384,-1.2125677,9.564878,1.79254041409351141925,2.694674,8.659229,2.0530279,-1.2519934,9.550891,1.83939921409351141947,2.4468741,8.556877,2.3535004,-1.2848668,9.537218,1.88705531409351141948,1.7986441,8.598177,2.5252843,-1.3142045,9.522036,1.94270531409351141950,0.93613285,8.866327,2.822764,-1.3444867,9.503895,2.00966051409351141979,0.52852005,9.01776,2.4498668,-1.3769915,9.483242,2.08384161409351141980,0.7493851,8.935161,1.5125369,-1.4090428,9.463147,2.1526371409351141985,1.3904326,9.052477,1.359308,-1.4359572,9.447523,2.2028891409351141990,1.7340006,9.793482,1.7782934,-1.4548305,9.438358,2.2296291409351142007,1.5460558,10.538677,2.0913353,-1.4670272,9.435154,2.23519021409351142008,0.8343793,11.185112,1.9482816,-1.4766711,9.434675,2.23085761409351142020,0.3393781,11.613075,1.7016789,-1.4887623,9.435114,2.2209491409351142033,0.3597288,11.647791,2.0338743,-1.496531,9.438819,2.19988161409351142062,0.4237737,11.320983,2.2960393,-1.4914819,9.446854,2.16859671409351142064,1.1623849,10.05445,1.8501194,-1.4700187,9.459377,2.12829281409351142066,1.4095862,9.982025,2.469619,-1.4223558,9.477378,2.08005171409351142069,1.3634979,9.968858,2.3870192,-1.3484251,9.498446,2.03265211409351142091,0.5105635,9.537901,1.7184383,-1.263818,9.5219,1.97650531409351142095,-1.1234791,8.547898,0.9816227,-1.1857241,9.54728,1.90102951409351142101,-2.7407625,7.5255747,0.44113165,-1.1160979,9.574294,1.80488031409351142124,-3.7858315,7.299921,-0.09696517,-1.045295,9.603282,1.68959211409351142127,-4.705205,8.482059,0.05925649,-0.9750012,9.632212,1.56214361409351142129,-5.663484,11.991359,0.6877344,-0.9003701,9.661499,1.41955171409351142171,-5.0427876,17.683575,1.5436616,-0.8323614,9.686766,1.2822371409351142177,-3.7588966,19.608511,1.1971009,-0.7517658,9.706979,1.1746571409351142180,-4.1240125,19.608511,-0.3453636,-0.6346881,9.724482,1.09637551409351142184,-4.5645456,19.59654,-0.86490536,-0.52424234,9.739477,1.01889771409351142207,-4.39755,17.046717,-0.15023616,-0.45236441,9.749683,0.95362941409351142209,-3.7056258,13.115437,0.88046765,-0.4127473,9.752514,0.942605261409351142210,-2.861071,9.898229,2.1440077,-0.38923943,9.74857,0.992104351409351142211,-2.172738,8.046912,3.3650506,-0.36587623,9.740544,1.07626091409351142221,-2.830545,7.065888,4.3400893,-0.33105537,9.732162,1.16009191409351142236,-3.181894,8.401853,4.80636,-0.29515675,9.723917,1.2364241409351142252,-0.56802434,9.967062,3.6529531,-0.24468847,9.719319,1.2827171409351142254,0.2693477,8.781932,2.5833437,-0.13479432,9.721438,1.28292441409351142271,1.3018472,9.089587,1.9045875,0.016603272,9.727017,1.2470981409351142274,1.6771383,9.200318,1.0737995,0.18033911,9.731902,1.1949651409351142287,1.7046716,8.690353,0.29209262,0.33588126,9.7339115,1.14391981409351142290,1.6932992,7.926005,-0.0688333,0.47319195,9.732502,1.10673671409351142303,1.6424223,7.0491285,-0.11911154,0.5841779,9.728153,1.09186071409351142316,1.3880384,6.3009405,0.089184016,0.67184085,9.721041,1.10470951409351142320,1.2384008,5.616797,0.31184477,0.74137783,9.711124,1.1466561409351142335,1.1240777,5.2439003,0.54408234,0.7990528,9.699819,1.20225691409351142352,1.1605892,5.168483,0.87208796,0.85318905,9.685932,1.27481131409351142354,1.18094,4.997896,1.0726024,0.906283,9.670096,1.35582721409351142371,1.1324574,4.7536874,1.1109096,0.960446,9.65305,1.43754681409351142373,1.0755951,4.6603136,1.2198458,1.01226,9.635931,1.51477681409351142387,1.1168951,4.731541,1.3359646,1.0593344,9.619814,1.58347271409351142390,1.2533646,4.8297033,1.3449428,1.1016079,9.60539,1.6411371409351142402,1.3748703,5.1367598,1.3670892,1.1373311,9.593888,1.68350661409351142416,1.4957775,5.5641246,1.5927427,1.1635162,9.586267,1.70883171409351142420,1.6651673,6.1985884,2.2134395,1.1764113,9.5828705,1.71902511409351142435,1.869273,6.591237,2.5342624,1.1729397,9.583299,1.7190141409351142450,2.1769278,7.311892,2.939481,1.1617696,9.585296,1.71546421409351142451,2.4947581,8.610147,3.3321302,1.1339351,9.590215,1.70656031409351142467,2.8580782,10.342952,3.5984852,1.0922582,9.597412,1.69323841409351142468,3.1142578,11.816583,3.804985,1.0407532,9.606164,1.6759611409351142484,3.117849,11.787852,3.833117,0.98691016,9.615047,1.65748731409351142489,2.7449522,10.760739,3.6499605,0.9391167,9.623409,1.63659881409351142501,0.79846627,13.560759,4.8135424,0.9023167,9.631141,1.61162041409351142520,-0.29628247,16.104,4.395156,0.8527999,9.635669,1.6115241409351142534,-0.12449849,15.5120325,1.6310499,0.7928702,9.637435,1.63143921409351142535,1.2641385,14.398729,-0.7026982,0.77318984,9.641296,1.61801861409351142553,3.5565867,13.438654,-0.37708676,0.8122526,9.645539,1.57295491409351142555,5.2522798,10.727819,1.6466122,0.88682663,9.643148,1.5471331409351142574,6.260239,8.535329,4.9745526,0.99027693,9.625225,1.59524561409351142576,5.934029,9.729437,8.963293,1.1170754,9.591704,1.70931041409351142581,4.4633904,14.800955,9.228451,1.2633373,9.545946,1.8572231409351142606,2.6671407,18.321629,5.2085857,1.3935403,9.50582,1.966681409351142607,0.24779987,16.320076,3.256713,1.4812001,9.490316,1.97745571409351142609,-2.7814639,10.746374,0.54049104,1.5209224,9.484549,1.9749781409351142620,-1.9782091,10.666767,0.45250413,1.5255373,9.479204,1.99695481409351142632,-1.62686,10.668563,1.6657659,1.5119033,9.471117,2.04511281409351142655,-1.775899,11.07438,1.3132197,1.474652,9.464804,2.10078451409351142657,-2.1410148,10.625467,0.5895722,1.4098636,9.468803,2.12708041409351142661,-2.3277626,9.626487,0.63087213,1.3409193,9.478644,2.12782221409351142670,-2.166154,8.978855,0.75118077,1.2627605,9.49359,2.10892751409351142688,-1.8507179,8.892664,0.50158525,1.1913704,9.506797,2.0908951409351142690,-1.4065934,9.100959,0.36391866,1.1301703,9.517674,2.07533261409351142703,-0.56563014,9.10455,0.3842694,1.0755745,9.5297365,2.048821409351142716,0.4985925,9.1668,0.50397944,1.0225748,9.544818,2.00529171409351142721,1.0767922,9.422979,0.5859809,0.96685195,9.56184,1.95110371409351142734,0.94570965,9.506178,0.7433996,0.90411645,9.578225,1.90015031409351142752,0.557849,9.366715,0.84096336,0.8325152,9.591892,1.86357511409351142754,0.18076223,9.021352,0.7823054,0.7516706,9.603759,1.83662921409351142771,-0.19572599,8.937555,0.89184016,0.6651047,9.615396,1.80892461409351142773,-0.59495914,9.15423,1.0690111,0.570757,9.62912,1.76767781409351142781,-0.9708488,9.232041,1.0217255,0.46896076,9.645043,1.70985161409351142799,-1.3281834,8.508993,0.46746787,0.36177784,9.661212,1.64332141409351142801,-1.2078748,8.019379,0.077213004,0.2550858,9.675434,1.57838451409351142816,-0.973243,7.704541,-0.034117375,0.15662001,9.68626,1.52387791409351142833,-1.1019313,8.029554,0.29568392,0.07218991,9.693727,1.48217571409351142835,-1.2862848,8.602965,0.8391677,0.003603285,9.698422,1.45292151409351142848,-1.4185646,9.083601,0.90620536,-0.04749036,9.700438,1.43862181409351142849,-1.4748282,8.965088,0.6769605,-0.08773907,9.700345,1.43735281409351142866,-1.5915456,8.634688,0.24480712,-0.1280008,9.698478,1.4468981409351142869,-1.5316905,8.435371,-0.19093758,-0.17311318,9.696081,1.45823541409351142886,-1.2497733,8.586804,-0.40222588,-0.23233986,9.693699,1.46581961409351142906,-0.61770403,9.118318,-0.43514615,-0.30488223,9.693286,1.45521461409351142908,0.16400282,9.546281,-0.3226187,-0.3825633,9.695242,1.42349311409351142910,0.84455466,9.4295635,-0.037110128,-0.4614283,9.697435,1.38464471409351142937,1.7525556,9.039309,0.4830302,-0.53841716,9.69721,1.3581671409351142940,2.3427265,8.995016,1.0767922,-0.6050857,9.6938095,1.35438291409351142944,2.5582044,9.118318,1.5628152,-0.6564715,9.687258,1.37712311409351142950,2.5127146,8.949526,1.7016789,-0.69680196,9.676328,1.4330221409351142975,2.345719,8.505402,1.678934,-0.735502,9.660227,1.51969271409351142977,2.0512323,8.15106,1.6849195,-0.7813708,9.640847,1.61676661409351142982,1.6059108,7.9236107,1.2425907,-0.83403796,9.618243,1.72168291409351143015,1.7687165,8.034941,1.1079168,-0.89612174,9.595544,1.81463241409351143018,2.142212,8.372523,1.2294226,-0.96161056,9.575398,1.88612231409351143023,2.1763294,8.677784,1.5987282,-1.0253398,9.558424,1.93793861409351143049,1.9351135,8.727464,2.3133974,-1.085389,9.543013,1.98071091409351143050,1.5143325,8.598177,2.9879637,-1.1435316,9.525812,2.03018831409351143052,0.7308301,8.480861,3.2208,-1.2027594,9.504839,2.0932811409351143055,-0.09696517,8.65025,3.1639376,-1.2661235,9.480916,2.16322611409351143073,-0.39683893,8.872313,2.336741,-1.331783,9.456958,2.22771121409351143074,-0.12090719,8.90643,1.1623849,-1.395081,9.436711,2.27434331409351143081,0.7505822,8.99741,0.8265981,-1.4538307,9.420525,2.30445121409351143101,1.3940239,9.625888,1.1647792,-1.501712,9.410388,2.3151341409351143104,1.3581109,10.217256,1.5807717,-1.5393665,9.405709,2.30941031409351143119,1.0851719,10.717046,1.6035166,-1.5705016,9.404607,2.29287551409351143136,1.0127473,11.25215,2.0883424,-1.592361,9.406937,2.2681111409351143138,0.6584055,11.210251,3.0873232,-1.5961342,9.41337,2.23857621409351143153,0.516549,10.903194,2.9867666,-1.5802652,9.422115,2.21289471409351143154,0.78888947,10.4488945,2.5671828,-1.5396653,9.434976,2.18656251409351143161,1.5574282,10.493786,3.7942111,-1.471972,9.453378,2.15345051409351143169,1.3174095,10.477625,3.0023289,-1.3800106,9.474304,2.12215111409351143184,0.14844051,9.928156,1.6555905,-1.2843025,9.500135,2.0660031409351143196,-1.3509283,9.375694,0.84335756,-1.2017789,9.528482,1.98346981409351143201,-2.533664,9.044097,0.20410569,-1.1191199,9.561855,1.8678621409351143213,-3.2022448,9.510966,-0.05865794,-1.0333725,9.598394,1.72434721409351143229,-4.560954,11.548432,-0.03232172,-0.94212174,9.634197,1.57004631409351143230,-4.4436383,16.207548,0.22804771,-0.85989296,9.666165,1.41288351409351143254,-4.2395325,19.471443,-0.047285482,-0.77938646,9.693785,1.26233821409351143256,-4.1036615,19.608511,-0.83497787,-0.6925345,9.716429,1.1321711409351143262,-4.2940006,19.51873,-0.8194155,-0.6037676,9.733668,1.03031921409351143287,-4.220978,16.810886,0.021547815,-0.5343449,9.744244,0.96672621409351143289,-3.4392707,13.069947,1.1097125,-0.48877883,9.746379,0.96932141409351143291,-2.369661,9.767146,2.4343045,-0.45745224,9.743083,1.01659581409351143303,-1.929128,7.4004774,3.8109705,-0.4218043,9.7340765,1.11365851409351143322,-2.9604304,6.980295,4.9308586,-0.3877546,9.721476,1.23002351409351143324,-3.1489737,9.895834,5.4845176,-0.35556847,9.708417,1.33813371409351143330,-1.8088194,10.492589,4.7788267,-0.30642787,9.698351,1.42072781409351143352,-0.5895722,9.074024,3.6774938,-0.20260128,9.6962595,1.45323961409351143353,1.0540473,7.699154,1.8818425,-0.058467533,9.700594,1.43717161409351143367,1.4730326,7.5106106,1.3491327,0.09524813,9.70745,1.38807121409351143380,1.6585833,7.3729444,0.8086416,0.23817426,9.712453,1.33488611409351143382,1.6124948,7.0449386,0.5093664,0.36596215,9.714644,1.28925071409351143396,1.5275006,6.8144965,0.50757074,0.47905064,9.713729,1.25871411409351143401,1.3940239,6.4577603,0.5303157,0.58516824,9.710409,1.23933081409351143412,1.1725603,5.8364654,0.58538234,0.68038625,9.703542,1.24448451409351143429,1.1965023,5.668871,0.8571242,0.7646407,9.693333,1.27476271409351143430,1.323395,5.637148,1.1869255,0.8416306,9.680074,1.32598851409351143447,1.3395559,5.5946507,1.4508862,0.91679734,9.663795,1.39317691409351143450,1.2850877,5.5192337,1.620276,0.9911838,9.6448345,1.47144621409351143468,1.2731167,5.579687,1.7711107,1.0603687,9.624621,1.55327631409351143484,1.2126632,5.8143187,1.9656396,1.1227884,9.60437,1.63273331409351143486,1.2563573,6.075287,2.0338743,1.176537,9.585383,1.70486631409351143501,1.4508862,6.443395,1.8531121,1.2201853,9.569112,1.76454891409351143502,1.6101006,6.781576,1.7244238,1.2524513,9.557008,1.80703311409351143512,1.9237411,7.1107793,1.951873,1.2792931,9.5471115,1.84024041409351143528,2.083554,7.227496,2.1859062,1.2924148,9.541362,1.8607741409351143530,2.1697452,7.161656,2.3810337,1.289417,9.5397005,1.87134341409351143548,2.7856536,7.6626425,3.0867245,1.2686471,9.541875,1.87444251409351143550,3.204639,8.693945,3.6152446,1.2341714,9.5461,1.87594941409351143565,3.478775,9.980229,3.7253778,1.1878661,9.552047,1.87557471409351143581,3.5075054,10.938509,3.681085,1.13282,9.559934,1.86943141409351143582,3.4021606,10.521918,3.4739866,1.074078,9.569248,1.85640651409351143596,2.9658175,9.3026705,3.5835214,1.0199904,9.578876,1.83715941409351143612,1.2246342,12.827534,4.727351,0.9764028,9.58721,1.81725811409351143613,0.20470424,15.489288,4.0186677,0.9273522,9.593409,1.81022811409351143629,0.66618663,14.750677,1.8579005,0.8678625,9.599348,1.80823541409351143630,1.8549078,13.274053,0.44232875,0.83994496,9.605188,1.79031341409351143651,3.7594953,12.058397,0.85891986,0.8685415,9.6085,1.758631409351143653,5.180454,10.085575,2.4013844,0.94782805,9.601506,1.75588151409351143674,5.632958,9.327211,6.2021794,1.0549777,9.579558,1.81369481409351143676,4.404134,11.704654,8.558673,1.1851648,9.540679,1.9342181409351143682,3.072958,16.174627,5.9597664,1.3193692,9.494941,2.0677941409351143701,0.45010993,18.101362,3.3261447,1.4414188,9.465647,2.11996751409351143702,-1.8501194,16.230293,2.6964695,1.5172119,9.4575615,2.10308891409351143714,-2.3277626,12.744934,1.6765398,1.5370077,9.452843,2.10991551409351143729,-1.6585833,10.481216,0.8900445,1.5402192,9.444298,2.14554551409351143730,-1.5269021,9.34397,1.8028339,1.5148994,9.431731,2.217641409351143745,-2.1051018,9.238626,1.9027919,1.4599131,9.423312,2.28915831409351143750,-2.6354175,9.478046,1.6555905,1.3816967,9.42902,2.3140651409351143762,-2.5025394,9.829395,1.9596541,1.2952319,9.449602,2.2798641409351143778,-1.6992847,10.333375,1.851915,1.2200662,9.475692,2.21204021409351143784,-1.0767922,10.721235,1.1665748,1.1660211,9.498225,2.14348221409351143798,-0.33758244,10.691308,0.038905777,1.1247928,9.516512,2.0835711409351143820,0.5189432,10.637438,-0.5770026,1.0825526,9.535958,2.01592661409351143822,1.347337,10.782886,-0.60094464,1.0277647,9.559619,1.93075181409351143824,1.3563153,11.165958,-0.39444473,0.95958674,9.584875,1.83841251409351143830,0.7422025,10.900801,0.046686932,0.88139266,9.608561,1.75188641409351143859,0.14844051,9.554062,0.4429273,0.58601564,9.637335,1.71718981409351143860,-0.2657564,8.097789,0.6721721,0.58601564,9.637335,1.71718981409351143861,-0.36631286,7.633912,1.0827777,0.58601564,9.637335,1.71718981409351143880,-0.38726214,7.785944,1.5951369,0.48108053,9.640495,1.73199981409351143881,-0.48003745,7.8757267,1.8076223,0.37733644,9.647206,1.72029471409351143908,-0.82001406,7.542334,1.6944963,0.2780681,9.6560135,1.68952371409351143911,-1.1025299,6.962937,1.4143747,0.18466443,9.664861,1.65129241409351143913,-1.0941502,6.956353,0.29388827,0.09694807,9.672946,1.61093531409351143937,-1.2503718,7.252037,0.13826515,0.015761487,9.681288,1.56295191409351143939,-1.6316484,7.9343843,0.4417302,-0.06287439,9.689009,1.51312731409351143944,-1.7782934,8.775947,0.705691,-0.1380735,9.695015,1.46902451409351143953,-1.8243817,9.063251,0.48602295,-0.20546266,9.698548,1.43748551409351143988,-1.8716671,8.677185,-0.006584055,-0.26318786,9.699573,1.42106751409351143992,-1.91596,8.358158,-0.45609543,-0.31727338,9.6984005,1.41801981409351143998,-1.6597804,8.377911,-0.6099229,-0.37915277,9.696733,1.41422271409351143999,-1.1408371,8.88608,-0.3489549,-0.45490125,9.696104,1.39608091409351144015,-0.47105917,9.575011,0.011971008,-0.5379072,9.696316,1.36473181409351144018,0.23762453,9.83957,0.20410569,-0.6165325,9.696234,1.33166021409351144035,1.2150574,9.661801,0.3597288,-0.68313557,9.695003,1.30791911409351144036,2.2182279,9.535507,0.74758947,-0.7314568,9.692528,1.30011181409351144042,2.834735,9.624691,1.3299791,-0.7640177,9.689275,1.30561551409351144052,2.8473043,9.702502,1.751957,-0.7794189,9.683013,1.3424511409351144093,2.6030958,9.515156,1.7788919,-0.78948,9.671796,1.41544841409351144094,2.3116016,9.085397,1.6741456,-0.80622363,9.655481,1.51396261409351144096,1.988983,8.837597,1.5269021,-0.8373651,9.635756,1.6190831409351144097,1.6603789,8.862736,1.3551182,-0.8884134,9.614964,1.71277311409351144118,1.6160861,9.270947,1.2725182,-0.9573339,9.595407,1.78384631409351144122,1.8680758,9.697714,1.9249382,-1.033612,9.577742,1.83546361409351144124,1.9991584,9.511565,2.7395654,-1.1054165,9.560144,1.88469791409351144132,1.7465701,9.196129,2.7724855,-1.1700369,9.539891,1.9472781409351144153,1.2330139,8.859145,2.8341362,-1.2303369,9.517965,2.0161851409351144154,0.7038953,8.544906,2.629432,-1.2919958,9.492511,2.09603831409351144162,0.6422446,8.100781,1.9883845,-1.3507698,9.465991,2.17734241409351144183,1.4047978,7.6333137,1.3174095,-1.404094,9.441149,2.25024441409351144185,2.2744915,7.675811,1.3922282,-1.4488919,9.420858,2.30619961409351144206,2.4019828,8.319851,1.8992004,-1.4838445,9.407449,2.33848381409351144208,1.6675615,9.077616,2.219425,-1.5109872,9.400914,2.34736441409351144218,0.60812724,10.108918,1.9381063,-1.5358406,9.397863,2.34344941409351144259,0.12270284,10.85531,2.148796,-1.557546,9.398146,2.32794261409351144260,-0.40761283,11.077971,2.6252422,-1.5679753,9.402841,2.30183321409351144262,-0.6386533,10.939108,2.529474,-1.5651331,9.411399,2.26855061409351144265,-0.31184477,10.621277,2.0123265,-1.5537305,9.422013,2.23203781409351144267,0.46507367,10.667964,2.3942018,-1.5172092,9.438073,2.1888931409351144285,0.96426475,10.617087,2.8790276,-1.4552566,9.458337,2.14301321409351144287,-1.0516531,9.508572,1.009156,-1.3799992,9.48176,2.0885921409351144292,-2.1571758,8.728661,0.45549688,-1.3195444,9.509701,1.99869841409351144315,-3.34051,8.2833395,0.2160767,-1.2588173,9.541965,1.88060451409351144317,-4.3418846,8.705916,0.062249243,-1.1945819,9.576872,1.73979141409351144330,-5.1122193,11.08276,0.15382746,-1.1305945,9.611478,1.58481421409351144331,-5.6419363,14.97214,0.47524905,-1.06892,9.643554,1.42466221409351144346,-5.5527525,18.984823,0.4297592,-1.0078379,9.670617,1.27821911409351144360,-4.560954,19.608511,-0.08439561,-0.93861765,9.692991,1.15556121409351144362,-4.3795934,19.608511,-0.64463884,-0.8489239,9.713471,1.04793731409351144384,-4.2413282,17.794905,-0.39384618,-0.7634496,9.729046,0.96602941409351144385,-3.4530375,13.969568,0.55605334,-0.6964152,9.7372465,0.93349961409351144393,-2.3558946,10.418967,2.1362264,-0.6438753,9.737188,0.971082031409351144420,-1.3299791,7.726089,3.7062242,-0.5972956,9.729634,1.07138361409351144422,-1.9937714,6.63972,5.0601454,-0.54424953,9.717714,1.20009421409351144424,-2.6593595,8.3150625,5.663484,-0.4853845,9.705022,1.32188171409351144431,-2.0332758,9.370307,5.209783,-0.41716304,9.694968,1.4156151409351144452,-0.973243,8.7053175,4.0599675,-0.3171315,9.6923685,1.45870181409351144454,0.017956512,7.9152308,3.0597897,-0.18169191,9.697289,1.44913031409351144462,0.9648633,8.104373,2.4109612,-0.03303243,9.703561,1.41782331409351144481,1.6436194,7.9206176,1.4999673,0.11594803,9.709614,1.37126031409351144484,1.745373,7.804499,0.7751228,0.2586342,9.713529,1.3232011409351144497,1.6591818,7.3442135,0.3854665,0.3823743,9.714759,1.28361191409351144511,1.2635399,6.7851677,0.39264908,0.4866511,9.71318,1.26003751409351144512,0.97862995,6.108207,0.44592008,0.57522327,9.708589,1.25810331409351144528,0.99419224,5.6120086,0.6374562,0.64991754,9.701132,1.27907541409351144531,1.0773908,5.497087,0.9187749,0.7146716,9.690986,1.32076111409351144544,1.1168951,5.395334,1.1905168,0.7738259,9.678524,1.37759831409351144562,1.0815806,5.230732,1.4281414,0.8306266,9.664226,1.44333421409351144564,1.0372878,5.2103815,1.6166847,0.8834759,9.649057,1.51181451409351144579,0.9624691,5.203199,1.7154455,0.9328191,9.633359,1.58071211409351144584,0.94810385,5.254674,1.5472529,0.9749244,9.618465,1.6447091409351144598,1.1941081,5.4288526,1.4670471,1.0098882,9.605772,1.69696351409351144620,1.4281414,5.7855883,1.6166847,1.0395651,9.5958805,1.73457571409351144623,1.5879543,6.125565,1.8920178,1.0641181,9.588961,1.75781111409351144625,1.6579847,6.497265,2.2798786,1.0803412,9.585239,1.76818171409351144634,1.702876,6.9970546,2.6264393,1.0834895,9.58491,1.76803151409351144651,1.8447324,7.5088153,2.855684,1.0703114,9.587949,1.75956991409351144652,2.1787236,8.232463,3.5003228,1.0398909,9.59395,1.74503111409351144663,3.0454245,10.651803,3.7846344,0.99522465,9.601462,1.72969381409351144681,3.2184057,11.637017,3.8714242,0.94718397,9.609477,1.7120671409351144704,3.3153708,11.451467,3.8115692,0.9001193,9.617557,1.69198451409351144712,3.4614172,10.203489,3.7355533,0.85281044,9.626023,1.66817581409351144713,2.087744,11.771092,4.663306,0.81611735,9.63362,1.64246741409351144716,0.7086837,14.857818,4.449624,0.7801349,9.638627,1.63053671409351144746,0.641646,14.531608,2.356493,0.73365664,9.642151,1.63128661409351144747,1.7166426,13.583504,0.2825158,0.70275843,9.647013,1.6160751409351144750,3.7535098,12.369044,-0.12330139,0.7230302,9.65231,1.57495631409351144763,5.1463366,9.874287,1.0552444,0.80072236,9.650474,1.54842021409351144764,5.687426,8.580819,4.4795513,0.9090585,9.636197,1.57724241409351144780,4.695628,10.466851,8.356961,1.041993,9.608141,1.66381821409351144798,3.271078,16.490664,7.8589673,1.1927946,9.5677,1.79073721409351144799,1.1971009,19.60133,4.9003325,1.3330979,9.532099,1.87945071409351144815,-1.7633295,17.178398,3.892972,1.4360975,9.516364,1.88331091409351144816,-3.2902317,13.3386965,2.204461,1.4909458,9.507799,1.88394511409351144823,-3.064578,11.273099,0.74878657,1.5123768,9.496439,1.92373751409351144832,-2.415151,10.434529,1.2683283,1.5065625,9.48115,2.00211951409351144848,-2.130241,9.683948,0.53809685,1.4743603,9.467439,2.08908371409351144866,-2.4355016,9.051878,0.25438392,1.4205668,9.466396,2.13066171409351144868,-2.5312698,9.120711,0.6727707,1.3511171,9.478588,2.121621409351144871,-2.223615,9.588778,0.6063316,1.2809029,9.495987,2.08707931409351144900,-1.4850036,10.226832,0.44771573,1.221835,9.513054,2.04434321409351144901,-0.5434838,10.073604,0.38367084,1.1722596,9.529176,1.99774851409351144904,0.2873042,9.881469,0.25258827,1.1275548,9.5440645,1.95188931409351144912,0.49081135,10.000581,0.11492168,1.0797752,9.559848,1.90100091409351144934,0.26635495,10.159196,0.51714754,1.0207623,9.577822,1.84221541409351144935,0.09876082,10.038289,1.0474633,0.94867337,9.595478,1.78807641409351144944,-0.03172317,9.221268,1.0642227,0.8681841,9.608868,1.7567941409351144971,-0.28311434,8.836999,1.0271125,0.7830276,9.618109,1.74620491409351144973,-0.49559975,9.183559,1.258153,0.6932042,9.628001,1.7295851409351144975,-0.6368576,9.372103,1.287482,0.59985477,9.641926,1.68636911409351145006,-0.80205756,9.077616,1.2635399,0.50787354,9.658252,1.62192261409351145007,-0.96306765,8.829217,0.87927055,0.4209829,9.673312,1.55570631409351145009,-0.9959879,8.719683,0.24600422,0.33736238,9.68662,1.49197341409351145012,-0.87448215,8.623316,-0.095169514,0.26032823,9.697655,1.4346191409351145035,-0.56563014,8.87351,0.20171149,0.19240503,9.70698,1.38127091409351145036,-0.5291186,10.000581,0.5710171,0.1382406,9.714463,1.33434771409351145047,-0.641646,10.164583,0.6278794,0.09713702,9.719671,1.29959961409351145060,-0.7673417,9.561843,0.22445641,0.0598302,9.721863,1.285381409351145063,-0.6422446,8.950723,-0.038905777,0.016745675,9.7206,1.29617081409351145077,-0.59974754,8.531737,-0.05925649,-0.038709965,9.716721,1.32448221409351145093,-0.43993455,8.408437,0.2112883,-0.11143618,9.712769,1.34910931409351145094,-0.29448682,8.978256,0.78769237,-0.19913872,9.710103,1.35817641409351145112,0.16639702,9.251794,0.93014735,-0.29349226,9.707109,1.36244751409351145113,0.9552865,9.457097,0.93134445,-0.3852245,9.703918,1.36233351409351145130,1.6867151,8.827422,0.8487445,-0.47030076,9.698202,1.37625681409351145132,2.2942438,8.080431,1.0235212,-0.5512904,9.688312,1.41530351409351145146,2.4768016,7.6572556,1.4167689,-0.62663364,9.674363,1.477981409351145160,2.2439656,7.4830775,1.7615339,-0.6924921,9.656512,1.56289171409351145165,1.7357962,7.2634096,1.9369092,-0.7498985,9.634165,1.67060691409351145175,1.352724,7.067085,1.9063832,-0.80793303,9.607308,1.79367451409351145191,1.1593921,7.029376,1.6645688,-0.8721582,9.578613,1.91309111409351145192,1.2623428,7.2753806,1.3215994,-0.9444348,9.551849,2.0101211409351145218,1.525705,7.8446016,1.3341689,-1.020199,9.529713,2.07705641409351145220,1.7597382,8.474875,2.297835,-1.0920908,9.509467,2.13255621409351145228,1.7190368,8.404845,2.8688521,-1.1575264,9.490243,2.1830731409351145232,1.3976152,8.381501,2.9604304,-1.2224666,9.468764,2.24019531409351145251,0.8026561,8.4826565,2.7862523,-1.2919016,9.444228,2.30389711409351145253,0.504578,8.877101,2.247557,-1.3658,9.418301,2.36655621409351145265,0.8924387,9.42238,1.5837644,-1.4341727,9.395905,2.41464471409351145283,1.8752584,9.761759,1.3844471,-1.4880095,9.380663,2.44118381409351145286,2.7419596,10.13286,1.857302,-1.5233891,9.37221,2.451811409351145293,2.926313,10.439318,2.6844985,-1.5429773,9.368174,2.45498251409351145318,2.4271219,10.381259,3.3327289,-1.5547178,9.365264,2.45867511409351145320,1.7100586,10.348937,3.144784,-1.5665017,9.360413,2.4696431409351145324,1.2533646,10.407595,3.2381577,-1.5829872,9.355231,2.47875051409351145351,0.8122329,10.08737,3.7828386,-1.5917192,9.352785,2.48238561409351145353,0.1436521,9.627684,3.4284968,-1.590482,9.355198,2.47407771409351145355,-0.16759412,9.314642,2.030283,-1.578336,9.364672,2.44584771409351145364,0.09876082,9.144653,1.6005238,-1.546659,9.383594,2.39299581409351145383,0.4261679,8.908226,2.1930888,-1.493019,9.410177,2.32160471409351145385,-0.20171149,8.126519,1.638831,-1.4269425,9.441519,2.2342691409351145394,-1.4119805,6.9820905,0.8888474,-1.3568239,9.478561,2.11808181409351145425,-3.54282,6.525397,0.4997896,-1.2790247,9.521004,1.97103541409351145426,-4.6800656,8.309077,0.47285482,-1.1951437,9.565384,1.80151461409351145427,-5.5467668,12.297817,0.7320272,-1.1128378,9.606717,1.62571971409351145453,-6.2530565,17.931374,1.1121067,-1.0319866,9.643625,1.45117261409351145455,-4.384382,19.608511,0.9331401,-0.9572558,9.673198,1.2974171409351145457,-3.2650926,19.608511,-0.7272388,-0.8378276,9.6991825,1.18079851409351145490,-4.361038,19.608511,-1.7729063,-0.6892265,9.723798,1.06916951409351145493,-4.5220485,18.889055,-1.2240356,-0.56462055,9.743033,0.96170921409351145496,-3.3500867,14.936227,0.39324763,-0.4778523,9.752864,0.907595931409351145497,-1.9692309,10.68652,2.3660698,-0.41215187,9.752317,0.94490191409351145516,-2.1200657,7.731476,4.0378213,-0.3528778,9.74394,1.04951731409351145517,-2.72939,7.0587053,5.137358,-0.2970308,9.731747,1.17272981409351145524,-3.21661,8.162432,5.2846017,-0.23949157,9.720854,1.27203011409351145545,-2.0470424,9.911396,4.8901567,-0.1793797,9.711612,1.35011411409351145547,-0.5835867,9.686341,3.965995,-0.08176742,9.7090225,1.37790111409351145563,0.30166942,8.008605,3.3704374,0.06253619,9.711094,1.36423031409351145564,1.0857705,7.8206596,3.1310172,0.22494274,9.71287,1.33415481409351145572,1.3192052,7.8529816,2.5001452,0.38013622,9.711529,1.30847331409351145607,1.6885108,7.1742253,1.1049241,0.5191056,9.70734,1.29168461409351145610,1.8656816,7.0066314,0.8511387,0.64198333,9.701786,1.27812211409351145617,1.821389,6.7426705,0.6955156,0.7485496,9.694303,1.27694251409351145620,1.5705963,6.1596823,0.57760113,0.8424216,9.684319,1.29410171409351145650,1.1988965,5.2852,0.5009867,0.92530197,9.671546,1.33244571409351145651,0.97144735,4.9613843,0.6901286,0.9981688,9.656236,1.38966631409351145653,1.0378864,5.28939,1.079785,1.0663736,9.639266,1.45526781409351145654,1.1378443,5.6628857,1.38325,1.1317952,9.61987,1.53216921409351145677,1.1569979,5.7808,1.4688427,1.1963263,9.59874,1.61350431409351145678,1.0971429,5.769428,1.6106992,1.2551749,9.577873,1.69094121409351145692,1.0749966,5.8532248,1.6801311,1.302417,9.559453,1.75811911409351145693,1.1348516,5.9968767,1.6208745,1.3355713,9.544632,1.81290521409351145709,1.3545196,6.10282,1.4826094,1.3538778,9.534205,1.85373521409351145712,1.5460558,6.142923,1.4975731,1.3579189,9.528656,1.87914261409351145724,1.7256209,6.260239,1.7256209,1.3454264,9.528393,1.88943021409351145747,1.8782512,6.4817023,2.15957,1.3153253,9.532874,1.88802441409351145749,2.1374235,6.831256,2.669535,1.2777727,9.538841,1.88366691409351145753,2.557606,7.426215,3.2812533,1.2260958,9.547693,1.87313321409351145788,2.9215245,8.477868,3.8762126,1.1640723,9.558261,1.85875211409351145790,3.3081882,10.912173,4.317344,1.0934684,9.5696125,1.84315661409351145793,3.7134068,10.597934,3.8546648,1.02152,9.580343,1.82863351409351145799,3.9653966,9.105747,3.5314474,0.9578594,9.590621,1.80911581409351145828,1.9297266,11.081563,4.654328,0.91177475,9.599648,1.78488851409351145834,0.46208093,15.318701,4.3197384,0.8654042,9.606818,1.7693181409351145837,0.9211691,15.461156,1.9752164,0.8080433,9.613278,1.76135041409351145855,2.6180596,14.665084,-0.095169514,0.7857547,9.619669,1.73636031409351145856,4.9164934,13.4608,-0.28909984,0.8349304,9.623545,1.69134971409351145858,5.831078,10.8624935,2.385822,0.92645955,9.620822,1.6588721409351145876,6.1447186,10.507553,6.975507,1.044767,9.601445,1.70032921409351145877,4.7524905,13.803171,8.453327,1.1832638,9.561549,1.82949331409351145892,3.549404,18.993801,5.513248,1.3280976,9.514757,1.96873821409351145893,0.2896984,18.67597,3.9336734,1.4680494,9.48563,2.0094971409351145907,-2.532467,15.755044,3.6337996,1.5534371,9.472936,2.00517131409351145913,-2.8975825,12.44925,1.2545617,1.5785855,9.459339,2.0492381409351145924,-2.5192988,10.452486,0.17896658,1.5689243,9.440344,2.14214021409351145940,-2.3744495,10.0341,1.6639702,1.5272926,9.420739,2.2555341409351145965,-2.0111294,10.192716,2.0207062,1.454501,9.408035,2.35450741409351145966,-2.3481133,9.548675,1.2216414,1.3668007,9.409422,2.4010511409351145968,-2.5510218,8.336611,1.4401124,1.2833323,9.418333,2.4121471409351145973,-2.2278047,8.479664,1.3150153,1.2022,9.432971,2.39669871409351145995,-1.614889,8.797494,0.81343,1.1380847,9.445883,2.37706951409351145996,-0.8499416,8.960898,0.64703304,1.0899438,9.457256,2.35429931409351146008,0.40821138,8.968081,0.8182184,1.0465716,9.471737,2.31544851409351146013,1.0540473,9.26556,0.7858967,1.001582,9.491152,2.25505161409351146026,0.9223662,9.895236,0.7930793,0.9497762,9.514028,2.17981241409351146042,0.59495914,10.195708,0.94451255,0.888311,9.536206,2.10761881409351146044,0.3286042,9.811439,0.83378077,0.81727487,9.55383,2.0559221409351146066,0.08020575,9.321226,0.7769185,0.7386828,9.567601,2.02132421409351146068,-0.25797522,9.258977,0.9983821,0.6562844,9.580442,1.98867031409351146073,-0.5303157,9.26197,1.151611,0.5680353,9.595403,1.94318991409351146102,-0.7733272,8.987833,1.1599907,0.4744161,9.612656,1.88206531409351146104,-0.86610246,8.77834,0.89662856,0.3778436,9.629464,1.81688231409351146106,-0.8158242,8.525752,0.44113165,0.28252777,9.643999,1.75609251409351146125,-0.75716627,8.170214,0.065242,0.18984804,9.656159,1.70086051409351146129,-0.75716627,8.194754,0.10354923,0.10187632,9.666021,1.65167711409351146147,-1.0749966,8.399458,0.4165911,0.02369155,9.6732025,1.61213121409351146148,-1.4359225,8.9279785,0.5009867,-0.04163301,9.677026,1.58866161409351146152,-1.5520413,8.5299425,0.14065935,-0.10164339,9.677643,1.58218381409351146173,-1.5119383,8.063073,-0.20111294,-0.1630876,9.675243,1.59168471409351146174,-1.54845,7.6213427,-0.2705448,-0.22737668,9.671568,1.60606461409351146188,-1.3682863,7.5764513,0.051475335,-0.30349094,9.66687,1.62170461409351146194,-0.91697925,8.519767,0.48602295,-0.39406976,9.662774,1.6266281409351146209,-0.4237737,9.3499565,0.641646,-0.49159154,9.659816,1.61761521409351146232,0.5847838,9.299079,0.48243165,-0.5846918,9.657399,1.60099551409351146233,1.6142905,9.10455,0.60573304,-0.6652561,9.654898,1.5845461409351146235,2.3540988,8.911219,1.0546459,-0.73135877,9.651695,1.57489841409351146262,2.5647886,8.741829,1.6226702,-0.7807926,9.645831,1.58704131409351146263,2.4343045,8.517372,1.9698294,-0.8169025,9.634793,1.63518011409351146265,2.1877017,8.406042,2.15538,-0.8469338,9.618351,1.71476751409351146273,1.827973,8.277354,2.1871033,-0.87904,9.599096,1.80417241409351146293,1.4867992,8.25401,1.9488802,-0.91676885,9.577566,1.89740661409351146295,1.6825253,8.425795,1.560421,-0.9620171,9.556734,1.97832081409351146316,1.9979613,8.780735,1.3257892,-1.0112673,9.538867,2.03905441409351146317,2.2110453,9.229049,1.5526398,-1.0572586,9.523948,2.0849441409351146325,2.4133554,9.5732155,1.9782091,-1.0949721,9.51021,2.12775251409351146351,2.2451627,9.187749,3.1172507,-1.1257831,9.495065,2.17870551409351146355,1.6627731,8.622119,3.1130607,-1.1584156,9.474759,2.24887131409351146356,1.0241197,8.119336,3.0095115,-1.2012435,9.451177,2.32436941409351146375,0.91099375,7.961918,2.095525,-1.2520317,9.42732,2.3934231409351146376,1.5023615,7.937377,1.316811,-1.3030006,9.407306,2.44441561409351146389,2.3906105,8.214506,1.4030021,-1.3473983,9.390803,2.48349021409351146393,2.8089972,8.709507,1.858499,-1.3779237,9.380002,2.50744341409351146405,2.3906105,9.0237465,2.2290018,-1.3974779,9.374683,2.51649431409351146420,1.6723499,9.39365,2.1619642,-1.4154438,9.372857,2.5132551409351146427,1.2449849,9.555259,2.4911668,-1.4309486,9.374336,2.49891761409351146440,0.7182605,9.537901,2.9514523,-1.4343306,9.379314,2.4782121409351146462,0.37349546,9.595362,2.6689363,-1.4204812,9.3883915,2.4516791409351146464,0.3405752,9.728839,1.9578584,-1.3822471,9.403661,2.414741409351146466,0.89423436,10.007165,2.0727801,-1.3148774,9.426306,2.36352781409351146473,1.7351977,10.156203,3.0310593,-1.2206492,9.454944,2.29879141409351146498,1.3682863,9.98442,2.5432408,-1.1077675,9.487147,2.2221409351146500,-0.29328972,9.218874,0.9780314,-1.0001379,9.520811,2.1270261409351146504,-2.0901382,8.616732,-0.0664391,-0.895407,9.559292,1.99714061409351146523,-3.3183637,8.822633,0.12629414,-0.7919711,9.601111,1.83352651409351146524,-5.2756233,15.285182,0.8098387,-0.6912945,9.641598,1.65290521409351146544,-5.217564,19.51394,0.320823,-0.62376654,9.677197,1.46053251409351146546,-4.663905,19.608511,-1.8363527,-0.5612566,9.707685,1.27131411409351146553,-5.525219,19.608511,-3.2752678,-0.48317793,9.735023,1.079931409351146572,-6.2728086,19.608511,-2.2224178,-0.42346185,9.757161,0.888185141409351146574,-5.98311,17.192163,-0.23403321,-0.40605247,9.769375,0.75156771409351146593,-5.1235914,12.125435,1.5310919,-0.42038158,9.770388,0.73021051409351146595,-3.4081461,8.309675,3.056797,-0.43562502,9.765866,0.780048551409351146614,-1.9387048,5.1810527,4.023456,-0.42894775,9.755732,0.9011651409351146616,-2.2583308,5.019444,5.2642508,-0.3997218,9.74371,1.03475751409351146625,-1.7196354,9.240421,6.002862,-0.34907925,9.732863,1.1488551409351146648,0.04189853,11.835736,6.1848216,-0.26867148,9.724975,1.23411981409351146650,1.70946,10.897209,4.7058034,-0.13099961,9.721907,1.27975171409351146653,2.3409307,8.988432,2.8107927,0.049029842,9.723871,1.27057061409351146676,2.088941,7.6829934,1.5921441,0.21950236,9.727217,1.2261541409351146677,2.1122844,7.050924,0.9696517,0.35875827,9.729366,1.17522341409351146691,2.3133974,7.064092,0.5859809,0.4767077,9.728634,1.13878721409351146693,2.303222,7.3609734,0.5943606,0.5875383,9.724001,1.12650691409351146706,1.1976994,6.1117983,0.33997664,0.69623387,9.716482,1.1294361409351146722,0.8882488,5.327099,0.5105635,0.7914089,9.70519,1.16334351409351146725,0.84216046,5.047576,0.6607997,0.8715803,9.690387,1.22765911409351146739,0.694917,4.811148,0.7152678,0.94107896,9.672098,1.3172921409351146753,0.7667431,4.6495395,0.6572084,1.0077748,9.65048,1.42232821409351146755,0.8158242,4.583699,0.78050977,1.0728965,9.626443,1.53325241409351146769,0.7374141,4.522647,1.0127473,1.1315438,9.601782,1.6418911409351146773,0.6171055,4.6058455,1.292869,1.1813322,9.578058,1.74231241409351146786,0.50876784,4.9524064,1.5705963,1.221257,9.557017,1.82821441409351146807,0.59017074,5.4504004,1.7770962,1.251272,9.54022,1.8944391409351146809,0.74639237,6.0208187,1.8686744,1.2707281,9.528683,1.9390351409351146823,0.97982705,6.4828997,1.9482816,1.285298,9.519944,1.97207161409351146825,1.2180501,6.817489,2.1452048,1.2840948,9.517561,1.98432211409351146841,1.4981717,7.069479,2.3612814,1.2654433,9.521362,1.97805951409351146855,1.8620903,7.045537,2.5911248,1.2287941,9.530297,1.95803561409351146857,2.396596,7.49445,2.9311013,1.1760126,9.54308,1.92795491409351146873,3.0107086,8.838794,3.318962,1.1112791,9.558569,1.88924151409351146874,3.494936,10.616488,3.7235823,1.0396965,9.575501,1.84369661409351146890,3.7541082,11.990761,3.9384618,0.969977,9.591457,1.79819051409351146904,3.378817,10.247183,3.9312792,0.91226226,9.604681,1.75734881409351146906,1.2641385,13.55178,5.271434,0.86809146,9.615259,1.72151921409351146921,0.08798691,15.844827,4.8141413,0.81742895,9.62303,1.70279241409351146925,-0.20350714,15.190611,2.6378117,0.7518814,9.629315,1.69745221409351146938,1.1510124,13.855246,0.06943185,0.7005994,9.633953,1.69307471409351146953,3.7870286,12.461222,-0.30047232,0.70887077,9.637183,1.67110721409351146954,5.1864395,10.096349,1.9123687,0.78348935,9.633332,1.65995451409351146971,5.5096564,9.287108,6.0369797,0.8861718,9.615173,1.7127581409351146973,4.63278,11.996746,8.353969,1.0091617,9.5789795,1.84259771409351146988,3.465607,17.808073,6.8132997,1.1475635,9.533214,1.99282161409351147003,0.8834604,19.400217,4.7201686,1.2845976,9.500245,2.06532051409351147005,-2.718616,16.230293,3.8839936,1.380362,9.489107,2.05471421409351147020,-3.0591912,12.892178,1.0827777,1.4165988,9.484083,2.0532421409351147037,-2.1499932,10.499173,-0.44352585,1.4454312,9.478008,2.0611821409351147038,-1.7292122,9.126099,0.9247604,1.4619477,9.462707,2.11903211409351147060,-1.6394296,8.589797,2.112883,1.4500952,9.44317,2.21227741409351147062,-1.6047137,8.884883,1.7501614,1.411847,9.43072,2.2887991409351147066,-1.7836803,9.132683,1.7274165,1.3573803,9.434405,2.30649421409351147074,-1.6005238,8.978256,1.572392,1.2987652,9.448603,2.2819971409351147091,-1.359308,10.011953,1.0684125,1.2488668,9.46341,2.24824671409351147106,-0.56084174,10.270527,0.55365914,1.202934,9.477573,2.21335531409351147107,0.533907,10.399215,0.17298107,1.1585075,9.492772,2.17153331409351147120,1.1605892,10.710462,0.02813187,1.1089832,9.512074,2.11210921409351147125,1.0510546,10.814011,0.16759412,1.048539,9.535392,2.03647731409351147138,0.46148238,10.260351,0.51834464,0.9776199,9.558418,1.96246741409351147153,-0.065242,9.293693,0.53809685,0.8931594,9.577254,1.9101931409351147154,-0.3693056,8.6712,0.6679823,0.79663134,9.589114,1.89331781409351147169,-0.49081135,8.765172,1.1444284,0.6936276,9.597648,1.89061451409351147173,-0.58418524,8.881291,1.6376339,0.58604646,9.608452,1.87205831409351147187,-0.7194576,8.617331,1.7621324,0.47630775,9.622078,1.83280111409351147205,-0.724246,8.263587,1.5334862,0.36910877,9.63576,1.78501531409351147217,-0.6171055,8.02297,0.98461545,0.27024537,9.647496,1.7387341409351147218,-0.4830302,7.617751,0.40821138,0.18189503,9.657327,1.69509361409351147225,-0.37349546,7.3088994,0.16579847,0.10520035,9.665654,1.65362181409351147235,-0.41240123,7.4591355,0.2789245,0.03545929,9.673005,1.61310921409351147261,-0.43634325,7.9852614,0.7882909,-0.022245003,9.678708,1.57876971409351147263,-0.90381116,8.389881,0.86729956,-0.06609569,9.681851,1.55812671409351147268,-1.2629414,8.585608,0.1945289,-0.106684744,9.682563,1.55144381409351147274,-1.2282255,8.168418,-0.30047232,-0.15479937,9.682223,1.54951381409351147295,-0.8391677,8.352771,-0.41180268,-0.21502514,9.682175,1.542611409351147296,-0.37469256,8.792706,-0.074220255,-0.29045668,9.68403,1.51841841409351147305,0.06284779,10.034698,0.49679685,-0.37940806,9.687439,1.4764691409351147321,0.84335756,9.727641,0.39743748,-0.47368163,9.690388,1.42913091409351147338,1.6849195,8.831612,0.45609543,-0.56599736,9.690785,1.39238971409351147340,2.2158337,8.541913,1.0791864,-0.65013,9.688002,1.37491121409351147368,2.5366566,8.589797,1.6394296,-0.72387326,9.682948,1.3736511409351147369,2.521693,8.62152,1.8950106,-0.7794277,9.673481,1.40948221409351147371,2.12246,8.714894,1.9865888,-0.8212606,9.658558,1.48599671409351147374,1.8255788,8.803479,1.846528,-0.86083883,9.638858,1.58800861409351147398,1.54845,8.834604,1.4933833,-0.90726656,9.616652,1.6933011409351147400,1.4275428,9.056666,1.0905589,-0.9647455,9.595282,1.7805181409351147405,1.4784195,9.298481,0.8948329,-1.0305032,9.577458,1.83868961409351147421,1.602918,9.622895,1.1282675,-1.0999984,9.562307,1.87687651409351147426,1.6711528,9.944317,1.520318,-1.1657977,9.547259,1.91341261409351147440,1.6747441,10.0987425,2.284667,-1.2256833,9.5298605,1.96210851409351147455,1.5574282,9.805453,2.3690627,-1.2816417,9.507992,2.0312231409351147456,0.81402856,8.860342,2.7539306,-1.3387326,9.48341,2.10787081409351147470,0.89543146,8.467693,2.3068132,-1.4022753,9.454528,2.19452261409351147474,1.5556326,7.920019,1.7711107,-1.4626054,9.425872,2.27687071409351147487,2.4612393,7.645883,2.2661119,-1.5142416,9.400312,2.3476821409351147509,2.5797524,8.185177,2.9861681,-1.5530242,9.379689,2.4041531409351147510,2.1978772,8.986636,3.34051,-1.5829481,9.36447,2.44364051409351147514,1.2850877,9.803658,2.8844144,-1.609749,9.352865,2.4704341409351147526,0.44352585,10.638037,2.3942018,-1.6358407,9.3448,2.48378091409351147547,0.04249708,11.09473,2.6102784,-1.6553003,9.342705,2.47876171409351147550,0.15622166,10.848726,2.9346926,-1.6604711,9.347677,2.45645621409351147555,0.49799395,10.157999,2.1930888,-1.6555787,9.355665,2.4291911409351147588,1.0169371,9.7719345,1.5454572,-1.6274759,9.372056,2.38459281409351147592,1.6537948,9.940127,2.2984335,-1.5714607,9.39609,2.32688931409351147603,1.5071499,9.950901,2.665345,-1.4907684,9.424369,2.26478981409351147627,0.700304,9.628283,1.917157,-1.4017011,9.45539,2.1911771409351147645,-0.36990416,9.167398,0.8900445,-1.3136448,9.49015,2.09327051409351147649,-1.6693572,8.537125,0.3693056,-1.2266,9.528276,1.96921621409351147661,-2.9747956,8.1881695,0.023343466,-1.1413854,9.566317,1.83117971409351147663,-4.821324,11.988965,0.50876784,-1.0575832,9.602918,1.68400591409351147664,-5.0882773,16.883312,0.9451111,-0.9861101,9.6365185,1.52823661409351147666,-4.4699745,19.608511,0.7769185,-0.910228,9.666696,1.37726911409351147667,-4.753089,19.608511,-0.6572084,-0.8172169,9.694121,1.23554841409351147674,-5.7395,19.586365,-1.3144168,-0.7207845,9.716755,1.11154681409351147688,-5.422867,17.030556,-0.49320555,-0.64869684,9.7326,1.01296951409351147705,-4.44723,13.193847,0.78769237,-0.59630346,9.739977,0.973490241409351147706,-3.3943794,9.767744,2.297835,-0.55437243,9.738397,1.01326631409351147722,-2.3756466,6.8348475,3.4913447,-0.51296306,9.728824,1.12127781409351147738,-2.2631192,5.253477,4.569334,-0.46341935,9.715029,1.25453481409351147739,-2.765303,7.40766,5.3300915,-0.40148172,9.701825,1.37251111409351147759,-1.7962499,9.41041,5.2049947,-0.32443735,9.692309,1.4574861409351147760,-0.53809685,9.507974,4.4639893,-0.20609723,9.689844,1.49493811409351147765,0.8265981,9.138069,3.5290532,-0.0420988,9.690809,1.50227091409351147774,1.8806454,8.76996,2.541445,0.13866116,9.694577,1.47185711409351147787,2.0201077,8.486847,2.0913353,0.32724696,9.69682,1.4265281409351147812,2.0380642,8.402451,1.5071499,0.49746317,9.695331,1.38690791409351147814,1.7842789,7.6506715,0.97743285,0.64259386,9.690335,1.36195061409351147816,1.471237,6.996456,0.91458505,0.765113,9.682339,1.35548111409351147846,0.75237787,6.4427967,1.0845734,0.8697431,9.671425,1.3702141409351147848,0.40521863,6.0746884,1.1563994,0.96212065,9.657722,1.40467631409351147849,0.42676646,6.0244102,1.2366052,1.0477474,9.641452,1.45430561409351147854,0.6679823,5.9747305,1.2144588,1.1291304,9.623073,1.51391521409351147871,0.789488,5.79337,1.1803415,1.2078152,9.603094,1.5786641409351147875,0.78888947,5.6485205,1.2216414,1.2837226,9.582009,1.64546251409351147886,0.688333,5.599439,1.3401544,1.3497227,9.561046,1.71319931409351147903,0.6775591,5.625177,1.3706805,1.4011047,9.541632,1.77891931409351147906,0.8062474,5.668871,1.3186066,1.4390867,9.524809,1.83778481409351147920,0.92296475,5.6856303,1.2952632,1.466259,9.511159,1.88635161409351147934,1.062427,5.78918,1.46585,1.4820173,9.50172,1.92128191409351147935,1.2360066,5.931635,1.9500773,1.4850752,9.497236,1.94099741409351147952,1.4873978,6.2500634,2.5965118,1.4749743,9.497241,1.94865811409351147954,1.7351977,6.6947865,3.0358477,1.4513344,9.501104,1.9475721409351147968,2.0602105,7.285556,3.306991,1.4135221,9.509001,1.93681161409351147987,2.5240872,8.409634,3.7720647,1.3624808,9.520382,1.91738741409351147988,3.0699651,9.911396,4.012682,1.3089269,9.531909,1.8973231409351148004,3.550601,10.997167,4.131195,1.2497575,9.544587,1.87332551409351148005,4.128801,11.473015,3.8983588,1.1933631,9.557082,1.84619781409351148021,4.0587707,12.337321,5.0421886,1.1500065,9.568506,1.81427421409351148038,2.5306711,14.746487,4.982932,1.1210446,9.57452,1.80061211409351148039,2.0530279,14.338275,2.9322984,1.0878456,9.577466,1.80530581409351148053,2.8820202,13.140576,0.92416185,1.0713222,9.580521,1.79896381409351148054,4.5753193,11.801021,0.38965634,1.0957919,9.583553,1.7678041409351148071,6.3284736,10.131663,0.9983821,1.1652173,9.579535,1.74504461409351148094,6.7851677,8.637681,4.103063,1.2706919,9.5626745,1.76379251409351148095,5.7400985,10.408194,9.191938,1.3986983,9.532961,1.82665731409351148097,3.684078,15.853207,8.002021,1.5326011,9.486048,1.95867791409351148125,1.5759833,19.602526,4.280833,1.6409165,9.448014,2.05251531409351148126,-1.8243817,18.578407,3.2064347,1.7156787,9.437057,2.04176021409351148127,-3.8947675,14.750677,1.7770962,1.7335756,9.440068,2.0125171409351148134,-3.9695864,12.4312935,5.99E-04,1.7200671,9.439224,2.02800921409351148164,-3.3871968,11.779472,0.7128736,1.6823016,9.431174,2.09599691409351148166,-2.8526914,11.472416,0.99060094,1.6148456,9.4208355,2.19329171409351148168,-2.689287,10.59135,0.35913026,1.5274595,9.418417,2.26510641409351148197,-2.8060043,9.442133,0.38067806,1.4359568,9.428122,2.2844981409351148198,-2.641403,8.879496,0.9576807,1.3573749,9.441786,2.27609251409351148199,-1.2575544,8.46051,1.1426327,1.2990961,9.452703,2.26475761409351148207,0.08259996,8.376713,1.1073183,1.2621546,9.458092,2.26315071409351148224,1.2904748,8.0606785,1.021127,1.2362306,9.462683,2.25826641409351148227,1.7866731,7.952341,0.89303726,1.2059082,9.472181,2.2347191409351148234,1.845331,8.528745,1.0929531,1.1616647,9.488354,2.18907831409351148253,1.5346833,9.473856,1.3718776,1.104436,9.507993,2.13277481409351148255,1.1228806,10.166379,1.1953052,1.0362356,9.527095,2.08112531409351148273,0.5734113,10.175956,0.84216046,0.9573165,9.544364,2.03937171409351148275,-0.18195933,10.065823,0.7721301,0.86687475,9.5615,1.99916481409351148304,-0.86729956,9.843162,0.81881696,0.76404274,9.5814085,1.9450581409351148307,-1.1522095,9.24102,0.7254431,0.65095836,9.604384,1.87148311409351148309,-1.2671312,8.670003,0.5410896,0.53671384,9.626289,1.79357741409351148325,-1.5155296,8.482059,0.30047232,0.42814767,9.645726,1.71669761409351148327,-1.8543092,8.437765,0.17836803,0.32821986,9.661185,1.65050921409351148335,-1.7357962,8.534132,0.36391866,0.23606852,9.673109,1.5955111409351148357,-1.5819688,8.841188,0.50757074,0.15701924,9.681503,1.55378321409351148358,-1.543063,9.267955,0.6218939,0.09599837,9.686491,1.52743291409351148366,-1.3916297,9.197925,0.64823014,0.048847035,9.68791,1.52065541409351148385,-1.364695,8.377312,0.40880993,0.00360124,9.685099,1.53922921409351148386,-0.99060094,7.587824,-0.17896658,-0.05205986,9.678833,1.57731131409351148411,-0.8343793,7.3112936,0.038307227,-0.1215297,9.672852,1.60982541409351148413,-0.6913257,7.721899,0.60812724,-0.20551936,9.667507,1.63324191409351148415,-0.075417355,8.187572,0.9115923,-0.2946639,9.665703,1.63026491409351148444,0.74519527,8.526351,1.0594343,-0.38719636,9.666422,1.60647371409351148447,1.7872716,8.783129,1.0893618,-0.47447455,9.667271,1.57770411409351148449,2.2709002,8.916606,1.2348095,-0.5504409,9.666738,1.55614861409351148455,2.3678656,8.942344,1.4862007,-0.61585814,9.664105,1.5479631409351148482,2.3391352,9.0554695,1.7429788,-0.6703822,9.658598,1.55964241409351148485,2.154183,9.087791,1.7753005,-0.716003,9.648678,1.60022811409351148488,1.8962077,9.108741,1.7932571,-0.75651306,9.63404,1.66833541409351148521,1.5646108,9.060856,1.5382746,-0.79823387,9.616158,1.75005791409351148527,1.3401544,9.066243,1.2156559,-0.84709245,9.597669,1.82691261409351148532,1.2719196,9.1255,0.93732995,-0.9026734,9.57927,1.8955661409351148556,1.4945804,9.452907,1.0067618,-0.9622866,9.562171,1.95174371409351148557,1.6579847,9.832987,1.4047978,-1.0187865,9.546178,2.00073151409351148558,1.7322049,9.780912,2.0099323,-1.0663917,9.530245,2.0512551409351148560,1.8022354,9.377489,2.8808231,-1.1096401,9.511434,2.11464881409351148567,0.93134445,8.403049,3.068768,-1.1550039,9.487365,2.19687131409351148595,0.84335756,7.8847046,2.554613,-1.2137362,9.459078,2.2854041409351148598,1.459266,7.7530236,1.7699136,-1.2754507,9.432084,2.36207751409351148601,2.3535004,7.978079,1.8261774,-1.3303944,9.410074,2.41887261409351148646,2.8880057,8.556278,2.2337902,-1.3713697,9.393559,2.45983891409351148648,2.5504234,9.004593,2.6521769,-1.3999078,9.381796,2.48848871409351148650,1.5149311,9.442133,2.5288756,-1.4277526,9.371463,2.51149541409351148652,0.8038532,10.029311,2.594716,-1.453415,9.364878,2.52131821409351148654,0.22744916,10.369886,3.1693244,-1.4692523,9.36282,2.51977871409351148656,-0.053869538,10.370484,3.0747535,-1.4688472,9.365817,2.50885751409351148677,0.16819267,10.230424,2.3648727,-1.4464931,9.375834,2.48430591409351148679,0.6967127,10.10413,2.3648727,-1.3951088,9.394161,2.44413331409351148686,1.4401124,10.120889,2.996942,-1.31507,9.418353,2.39491131409351148712,1.4520833,9.742605,2.5192988,-1.2149123,9.446363,2.33679631409351148715,0.48123455,9.150041,1.1192893,-1.1102774,9.479521,2.25307771409351148717,-0.7218518,8.555679,0.28909984,-1.0079424,9.518868,2.1320421409351148742,-1.9141643,8.1720085,0.14185645,-0.90587187,9.558903,1.99427941409351148744,-2.8778305,8.640674,0.33638534,-0.8068479,9.5982,1.84226451409351148747,-3.9444473,11.063606,1.0223241,-0.7092941,9.633964,1.68938981409351148755,-4.2784386,19.545065,1.1671734,-0.62006205,9.663695,1.5488451409351148772,-3.5033157,19.608511,0.02873042,-0.54115856,9.689591,1.41044441409351148775,-4.259285,19.608511,-0.9295488,-0.43534467,9.711324,1.29269361409351148786,-4.799776,18.864513,-0.48961425,-0.33625683,9.728217,1.19125971409351148808,-4.123414,15.069105,0.53929394,-0.2721072,9.737375,1.13132691409351148810,-2.906561,11.195886,1.903989,-0.23217744,9.736738,1.14560571409351148816,-1.9135658,8.258799,3.3991678,-0.19941366,9.727837,1.22468271409351148859,-2.4331074,7.2143283,4.8003745,-0.16337936,9.714194,1.33346931409351148861,-2.8389246,8.983045,5.5844755,-0.12881522,9.698009,1.44997971409351148863,-1.7537527,10.2406,5.321113,-0.08921116,9.682352,1.55385791409351148865,-0.7104794,9.193136,4.2796354,-0.015430977,9.672465,1.61665431409351148868,0.23343466,7.6123643,3.064578,0.10648402,9.671284,1.62028121409351148890,0.96785605,7.4016747,2.5893292,0.25500283,9.675109,1.58039641409351148893,1.6406267,8.134899,2.3493104,0.40456358,9.678374,1.52833371409351148897,1.7088615,8.3408,1.9327193,0.5504826,9.678074,1.48399591409351148934,1.7046716,8.264186,1.3401544,0.6824112,9.674043,1.45520111409351148937,1.6035166,7.7410526,0.88405895,0.79582393,9.667266,1.44258131409351148939,1.3102269,7.1083846,0.705691,0.892684,9.65793,1.44841131409351148941,0.9552865,6.609792,0.717662,0.9765658,9.645419,1.47736331409351148960,0.83617496,5.5982423,0.81642276,1.0544486,9.630712,1.51918111409351148962,0.83378077,5.403115,1.0953473,1.1280423,9.611879,1.58420171409351148969,0.88645315,5.203199,1.3239936,1.1993526,9.589575,1.66492591409351148994,0.93613285,5.0505686,1.5304934,1.2686337,9.564865,1.75337641409351148996,1.0348936,5.097255,1.7555484,1.3338845,9.5392275,1.84236221409351148997,1.0079589,5.1607018,1.8130093,1.3926265,9.514303,1.92587981409351149017,1.1043255,5.2810106,1.8830396,1.4423778,9.491998,1.99797941409351149018,1.4041992,5.6431336,1.9620483,1.482496,9.473397,2.05605221409351149035,1.6591818,6.078878,2.0572178,1.5119046,9.459446,2.0984331409351149036,1.785476,6.4206505,2.202067,1.5283701,9.450864,2.1250121409351149050,1.8231846,6.579266,2.3989902,1.5383053,9.444955,2.14402751409351149068,1.9955671,6.7612257,2.6324248,1.5302428,9.444698,2.1509081409351149070,2.336741,7.1754227,2.8568811,1.5052707,9.449322,2.1482221409351149088,2.7491422,7.9756846,3.3267434,1.4660081,9.457668,2.13862661409351149089,3.0945058,9.208698,3.9001546,1.4157052,9.468078,2.12642341409351149095,3.3854012,10.127473,4.0922894,1.3573384,9.479247,2.11468861409351149117,3.606865,10.53329,4.056975,1.2972049,9.490461,2.10209851409351149118,3.828927,10.02153,4.015076,1.2440023,9.500984,2.08665441409351149135,1.6950948,12.727576,5.4264584,1.2073053,9.510286,2.06573321409351149136,1.033098,14.408306,4.064756,1.1594615,9.517431,2.06023051409351149151,1.5568297,13.531429,1.6579847,1.1121974,9.525297,2.04990651409351149165,3.1890767,12.787432,0.26156655,1.0845549,9.535196,2.01845651409351149167,5.1223946,11.588534,0.66858083,1.1174129,9.540878,1.97317411409351149183,6.293159,9.140464,2.6312277,1.2073215,9.53383,1.95419411409351149200,6.281787,8.765172,6.7767878,1.32394,9.509298,1.99770471409351149201,4.365228,12.07336,10.356718,1.4549106,9.466887,2.10515141409351149217,2.8030117,18.443134,7.2526355,1.5747461,9.416045,2.24247031409351149218,0.88166475,19.607315,3.4261026,1.6627266,9.3907795,2.2845121409351149232,-2.3786395,16.957533,3.0753522,1.7132881,9.392195,2.2409161409351149236,-3.2225955,14.155718,1.0965444,1.7077742,9.396022,2.22905611409351149248,-2.823961,12.290634,-0.26874915,1.676029,9.394646,2.25875161409351149265,-2.6641479,10.876859,0.65780693,1.627549,9.388906,2.3173091409351149267,-2.819771,9.964069,1.0043676,1.5717682,9.379918,2.39104181409351149282,-2.9903579,9.243414,0.66020113,1.4942546,9.377915,2.44791821409351149300,-3.0011318,8.684368,0.7799112,1.4079739,9.387457,2.4624441409351149301,-2.6090813,8.471883,1.3156139,1.3295363,9.402002,2.45053031409351149317,-2.2026656,8.920795,1.4036007,1.2683418,9.4141,2.43647841409351149318,-0.2088941,10.0664215,1.1318588,1.2188392,9.425101,2.4191441409351149333,1.3078327,9.9790325,1.3102269,1.1797268,9.438913,2.38444541409351149336,1.9812019,10.336966,1.1067197,1.1405228,9.455996,2.33532641409351149350,1.7046716,10.529699,0.90620536,1.0923654,9.476607,2.27399781409351149366,1.1994951,10.290877,0.98820674,1.0304805,9.497814,2.21359681409351149370,0.7589619,9.6528225,0.997185,0.9571368,9.516895,2.16402461409351149381,0.3489549,9.187749,1.2629414,0.87473804,9.531018,2.13657431409351149399,-0.077811554,9.225458,1.7142484,0.7830244,9.54216,2.12236861409351149400,-0.5201403,9.10455,1.8836381,0.68175286,9.554866,2.10003351409351149415,-0.8924387,8.5778265,1.797447,0.5733752,9.570128,2.06258731409351149416,-1.1815386,8.130709,1.2940661,0.4636387,9.585762,2.0170711409351149431,-1.3215994,7.8715367,0.52492875,0.35784212,9.600001,1.97035551409351149436,-1.1492168,7.539341,0.11372458,0.25727323,9.612887,1.92266261409351149448,-1.0947487,7.5584946,0.11432313,0.16585809,9.624398,1.87453371409351149463,-1.0803835,7.9876556,0.64463884,0.085883215,9.634217,1.82890471409351149467,-1.276708,8.7370405,1.043872,0.019829467,9.640851,1.79554721409351149482,-1.6891093,9.000402,0.87687635,-0.0408347,9.64518,1.77178871409351149498,-2.0697873,8.763377,0.37588966,-0.10051102,9.649334,1.74661051409351149499,-1.7914615,8.058285,-0.20231004,-0.1678795,9.646999,1.75431621409351149512,-1.3329718,8.085817,0.020350715,-0.24449922,9.644608,1.75845631409351149516,-0.9044097,9.063251,0.24001873,-0.33441812,9.643812,1.74798351409351149529,-0.13587095,9.5732155,0.10594343,-0.43615943,9.644853,1.71958221409351149536,0.98700964,9.238028,0.29029694,-0.5391446,9.646026,1.68342361409351149553,1.7735049,8.698733,0.8355764,-0.6330353,9.644654,1.65839791409351149557,2.5420437,8.517372,1.4257472,-0.71457255,9.639643,1.65440681409351149570,2.891597,8.461707,1.8794483,-0.77621967,9.631396,1.67454591409351149619,2.7569232,8.602965,2.1559787,-0.8175901,9.621646,1.71052441409351149623,2.3265655,8.602366,2.1894975,-0.8519035,9.607357,1.77294311409351149627,1.9231426,8.369531,1.83336,-0.8867766,9.588466,1.85616971409351149631,1.6262615,8.243237,1.2934675,-0.9309717,9.566649,1.94496741409351149635,1.6394296,8.2276745,1.0600328,-0.9839391,9.544807,2.02457761409351149675,1.9620483,8.389283,1.353921,-1.0394322,9.524829,2.08988671409351149689,2.3373394,8.665813,1.7705121,-1.0907661,9.506569,2.14610721409351149694,2.5839422,8.588001,1.988983,-1.1341962,9.489324,2.1992521409351149698,2.6210523,8.449737,2.154183,-1.1724063,9.471993,2.25326871409351149701,2.315193,8.310274,2.5851393,-1.208736,9.453421,2.3113161409351149705,1.572392,8.304289,3.0573955,-1.2452632,9.432743,2.3755181409351149739,0.24720132,9.226056,2.5863364,-1.2852821,9.410472,2.44160581409351149741,0.5279215,9.785701,2.011728,-1.3288609,9.390212,2.49568411409351149743,1.6843209,10.29387,1.8902222,-1.3624837,9.375543,2.53243351409351149745,2.6569653,10.636241,2.3127987,-1.3787637,9.366968,2.5552551409351149747,2.8963854,10.679337,2.7455509,-1.3813758,9.362821,2.5690061409351149749,2.5246856,10.509947,2.730587,-1.3788874,9.360347,2.57933971409351149751,1.8171991,10.453085,2.4756045,-1.3741479,9.358432,2.58879781409351149770,1.3850456,10.487801,2.9334955,-1.363798,9.358889,2.59261351409351149772,0.99299514,10.266336,3.4703953,-1.3415666,9.363149,2.58883241409351149776,0.39803603,9.871294,3.0190883,-1.3097445,9.37152,2.57478981409351149808,0.26036942,9.936536,2.190096,-1.2699963,9.385402,2.54396081409351149810,0.75956047,10.1699705,2.372654,-1.2248042,9.403256,2.4998031409351149812,1.1294646,9.8916445,2.7216089,-1.1588074,9.4256735,2.44627671409351149816,0.51475334,9.162011,1.8992004,-1.0820016,9.450903,2.38329981409351149843,-0.78769237,8.354567,0.59615624,-1.0076001,9.479771,2.29979851409351149844,-2.3427265,7.5920134,-0.16879122,-0.9366037,9.512775,2.1909511409351149848,-3.5727475,7.1622543,-0.36272156,-0.86476696,9.5477915,2.06452371409351149876,-4.261679,7.9834657,0.1412579,-0.78823155,9.583028,1.92734581409351149877,-5.1648917,15.989676,1.2635399,-0.70495737,9.616467,1.78800511409351149879,-3.8367083,19.588161,1.2946646,-0.63254124,9.646763,1.64629241409351149925,-3.300407,19.608511,-0.1412579,-0.52460474,9.6731825,1.52470671409351149928,-3.9636009,19.608511,-0.7086837,-0.39230874,9.697771,1.40348151409351149931,-3.9240966,17.52855,0.10295067,-0.27133507,9.715559,1.30563661409351149934,-3.122039,13.030443,1.1091139,-0.1739714,9.723854,1.25968331409351149938,-1.8567034,9.552266,2.2864625,-0.10110227,9.7213955,1.28632061409351149955,-1.5304934,7.1820064,3.5344403,-0.04368176,9.709916,1.37332671409351149956,-2.493561,7.3633676,4.733337,0.005080226,9.69387,1.4829941409351149958,-2.4235306,9.820416,5.21517,0.048949473,9.678158,1.58153861409351149968,-1.2258313,10.277111,4.484938,0.10569705,9.667591,1.64223181409351149985,-0.3309984,8.929773,3.530849,0.21056466,9.665745,1.64300221409351149988,0.7739257,9.100361,3.0867245,0.35310224,9.669014,1.59871411409351149997,1.2096704,9.057863,2.554613,0.50544006,9.671016,1.54480251409351150022,1.1067197,8.608353,1.9387048,0.6523732,9.670097,1.49467041409351150024,1.1498153,8.274361,1.3623008,0.78270125,9.665916,1.45871131409351150029,1.2695254,7.431602,0.95468795,0.88820136,9.65996,1.43759191409351150069,1.276708,6.9916677,0.943914,0.97566545,9.652537,1.43073191409351150072,1.0899603,6.769605,1.0426749,1.0517507,9.6430855,1.44052031409351150075,0.8050503,5.895123,1.3581109,1.1218269,9.630708,1.47016321409351150079,0.9864111,5.685032,1.525705,1.1859578,9.615235,1.52024671409351150082,1.1797429,5.501277,1.5269021,1.247096,9.597066,1.58476571409351150105,1.1976994,5.5084596,1.5640123,1.3067071,9.576904,1.65705121409351150106,1.1528081,5.597045,1.690905,1.3625703,9.555844,1.73195591409351150108,1.1623849,5.6018333,1.7172412,1.4110608,9.535452,1.80401051409351150116,1.2114661,5.7347116,1.7046716,1.4548984,9.5156355,1.8725311409351150135,1.3892355,5.957971,1.7681179,1.4893982,9.499023,1.92890241409351150136,1.6932992,6.266823,1.9566613,1.5146033,9.486568,1.97012581409351150149,1.8327614,6.59004,2.0979192,1.5290347,9.478708,1.99662981409351150175,1.8010383,6.679823,2.2930467,1.5295646,9.475749,2.01022171409351150177,1.8429368,6.6774287,2.420538,1.5134509,9.477592,2.01372771409351150179,2.0428526,6.911462,2.6372132,1.4792957,9.4840555,2.0086711409351150208,2.3768437,7.748235,3.0418332,1.427934,9.494336,1.99724821409351150209,2.7461493,9.056666,3.2273839,1.362292,9.507355,1.98110491409351150210,2.859874,10.221446,3.7181952,1.2879359,9.522191,1.95946411409351150216,3.052607,10.805033,4.1683054,1.2101003,9.5367,1.93840441409351150234,3.0669725,10.259154,4.115034,1.1394082,9.549231,1.91946531409351150236,3.1549592,9.395446,4.772841,1.0807153,9.5600815,1.89928761409351150248,-0.04129998,14.751874,3.394978,1.0423281,9.567367,1.88399711409351150263,0.30705637,14.492702,1.3239936,0.974563,9.579451,1.85869311409351150286,2.0506337,14.0390005,-0.350152,0.9323366,9.591854,1.8158981409351150288,4.12102,12.700043,-0.10055647,0.95885307,9.601497,1.74993991409351150289,5.707178,10.448297,1.9476831,1.0499245,9.598497,1.71374111409351150297,6.0968347,10.301651,6.393117,1.1735809,9.576766,1.75460611409351150330,5.1529207,13.695433,8.078036,1.3217937,9.534038,1.87759541409351150332,4.1946416,18.730438,5.9106855,1.4835715,9.484029,2.00564481409351150335,1.2509704,18.711884,4.4633904,1.6364712,9.44594,2.0655661409351150363,-1.6496049,15.521011,3.928885,1.7416581,9.428572,2.05889731409351150365,-2.4492683,13.086706,2.204461,1.7995114,9.418961,2.0531351409351150368,-2.142212,11.872248,0.9235633,1.8202178,9.406865,2.0899991409351150399,-2.107496,10.688913,1.6484078,1.8077924,9.391217,2.16963721409351150401,-2.1140802,9.735423,1.6819267,1.7627325,9.377432,2.26427411409351150403,-2.321777,9.163807,1.3078327,1.6924175,9.37463,2.3286161409351150406,-2.5432408,8.545505,1.4754268,1.6085832,9.384874,2.34670111409351150437,-2.1589713,8.401853,1.6286557,1.527801,9.400259,2.33909461409351150439,-1.6406267,8.875306,1.3922282,1.4601266,9.41395,2.3272231409351150442,0.23104046,9.31524,0.7278373,1.4011233,9.42652,2.31256751409351150443,1.2904748,8.896853,0.6967127,1.3535138,9.439297,2.28868151409351150451,1.477821,8.981848,0.5979519,1.3045748,9.455456,2.25007031409351150474,1.1611878,9.516952,0.8415619,1.2433621,9.476692,2.19470741409351150476,0.7966706,9.628283,1.2557588,1.1688936,9.499799,2.1349271409351150478,0.40701428,9.056067,1.1839328,1.0854135,9.519566,2.09048771409351150505,0.095768064,8.746018,1.3006501,0.9972156,9.533794,2.0694761409351150507,-0.29628247,8.885481,1.5999253,0.90435284,9.545494,2.05817531409351150511,-0.7074866,8.916007,1.6980876,0.80656385,9.55933,2.03447061409351150519,-0.96067345,8.689755,1.5915456,0.7047533,9.57652,1.9909781409351150536,-0.97264445,8.46889,1.1097125,0.60371965,9.594324,1.93773931409351150538,-0.86370826,8.1558485,0.43035775,0.5073292,9.611016,1.88185311409351150548,-0.5793968,7.860164,0.0712275,0.41529387,9.625998,1.82704711409351150563,-0.7410054,7.825448,0.17537527,0.33195773,9.639075,1.77438121409351150581,-1.009156,8.397662,0.78290397,0.2587282,9.650061,1.72620831409351150582,-1.2683283,9.118318,1.2761095,0.19767308,9.657742,1.69096581409351150597,-1.4478935,9.260174,1.0301052,0.143767,9.661248,1.67631111409351150598,-1.6663644,8.488044,0.5626374,0.0888659,9.660531,1.68423031409351150612,-1.7298107,7.8745294,0.17357962,0.026440319,9.656327,1.71026961409351150627,-1.1240777,8.377312,0.5554548,-0.04821531,9.651415,1.73731421409351150633,-0.676362,8.811859,0.66020113,-0.12961632,9.648228,1.75079211409351150645,0.12808979,8.911818,0.53570265,-0.21423155,9.647913,1.74420931409351150648,1.1659763,8.6334915,0.61650693,-0.29365692,9.648454,1.72959731409351150662,2.0901382,8.365939,0.88765025,-0.37103584,9.64872,1.71316711409351150682,2.4516625,8.409634,1.4891934,-0.4428543,9.646458,1.70883991409351150684,2.3995886,8.495226,2.2188265,-0.5060659,9.640733,1.72353711409351150700,2.1763294,8.468291,2.670732,-0.55904615,9.630259,1.76521531409351150701,1.8471266,8.36175,2.6330233,-0.6057172,9.614184,1.83601831409351150714,1.5813702,8.26239,2.3068132,-0.6532724,9.594146,1.92250191409351150728,1.5849615,8.267777,1.8028339,-0.70844835,9.573457,2.00434731409351150729,1.7549498,8.578424,1.3599066,-0.76958793,9.555572,2.0661991409351150745,1.8363527,9.381081,1.2910733,-0.83098775,9.541857,2.1054211409351150762,1.893215,10.03769,1.584363,-0.8865012,9.53104,2.13161681409351150763,1.9183542,10.376471,1.9033904,-0.9375437,9.520309,2.15756961409351150778,2.0260932,10.325593,2.3475149,-0.9840546,9.508237,2.18985821409351150779,1.9003977,9.860519,2.8006175,-1.0310599,9.492506,2.23599031409351150796,1.2545617,9.354745,2.8263552,-1.0812334,9.472313,2.29708581409351150797,0.47884035,8.866327,2.4809916,-1.1368029,9.449493,2.3632911409351150813,1.1031284,8.658031,1.7226281,-1.1937163,9.42683,2.4249331409351150826,1.9925743,8.719084,1.8662802,-1.2375008,9.408652,2.47310111409351150828,2.3289597,9.175778,2.610877,-1.2648548,9.396552,2.50506281409351150843,1.9841946,9.648034,2.8455088,-1.2804545,9.390013,2.5216071409351150850,1.1803415,10.12448,2.6030958,-1.2916205,9.387747,2.52434021409351150862,0.76195467,10.372879,2.5821466,-1.3058434,9.387187,2.51910111409351150877,0.46507367,10.217256,2.9221232,-1.3112344,9.389565,2.50741531409351150878,0.17597382,9.928755,2.7497406,-1.3031868,9.395093,2.49084781409351150893,0.22685061,9.730036,1.9405005,-1.2774254,9.405888,2.46330621409351150897,0.82001406,9.60853,1.8674773,-1.2278631,9.423332,2.42148181409351150909,1.4933833,9.412206,2.1643584,-1.151931,9.445854,2.37050631409351150924,1.2659341,9.09258,1.8501194,-1.0579003,9.472257,2.30815651409351150931,-0.038905777,8.327632,0.82599956,-0.9616141,9.50274,2.22342541409351150943,-1.6693572,7.313089,0.2148796,-0.870413,9.537184,2.11066581409351150950,-3.0532057,6.659472,0.24480712,-0.78028834,9.573464,1.97745341409351150961,-4.179079,7.361572,0.79367787,-0.6887772,9.6096,1.83072841409351150977,-5.282806,10.126875,1.5119383,-0.60229987,9.642234,1.68372881409351150982,-5.762245,15.38095,1.8010383,-0.5264774,9.669977,1.54427471409351151007,-3.321955,19.608511,-0.21547815,-0.4584034,9.692433,1.42020991409351151008,-4.1341877,19.608511,-0.97264445,-0.3417001,9.717125,1.27715581409351151009,-4.727351,19.349937,0.19393034,-0.23586598,9.737423,1.13900941409351151027,-4.297592,15.860389,1.7304093,-0.16702363,9.74939,1.0449271409351151029,-3.0178912,11.447277,3.0532057,-0.12652385,9.7512045,1.03361651409351151044,-1.6519991,7.4968443,4.085107,-0.09298925,9.744496,1.09842821409351151050,-1.5358804,6.3129115,5.6640825,-0.056245327,9.732909,1.19905261409351151063,-1.8854338,8.974067,6.3949127,-0.01709522,9.719188,1.30670571409351151083,-0.57999533,10.949882,5.783793,0.030049395,9.7069,1.39484231409351151084,0.6943185,10.80623,4.4873323,0.10056962,9.697952,1.45257381409351151089,1.7399861,10.193314,2.8981812,0.22182956,9.6981,1.43806411409351151099,2.3714569,9.403227,1.7130513,0.37797803,9.702523,1.37425831409351151118,2.4438813,8.661025,1.2593501,0.53636754,9.704931,1.30269061409351151120,2.521693,8.362348,0.9115923,0.6757725,9.702925,1.25178581409351151129,2.4103625,8.078635,0.5859809,0.7938772,9.696887,1.22904031409351151151,2.0093338,7.6249337,0.3800795,0.894479,9.6878,1.23159991409351151153,1.2096704,7.2191167,0.25617957,0.9789212,9.676433,1.25647491409351151158,0.7799112,6.7444663,0.27114335,1.0466596,9.663177,1.30303261409351151184,0.60693014,6.1106014,0.61650693,1.1036067,9.647462,1.37075351409351151186,0.6392518,5.407305,0.61291564,1.1571058,9.629463,1.45084361409351151190,0.6548142,5.059547,0.6183026,1.2094347,9.608309,1.54533571409351151197,0.78410107,4.7381253,0.87089086,1.2614982,9.584564,1.64776721409351151210,0.8415619,4.4765587,1.1959038,1.3121315,9.559061,1.75301041409351151229,0.8074445,4.355053,1.5197195,1.358264,9.533322,1.8550691409351151231,0.87328506,4.56275,1.8124107,1.3980125,9.509165,1.94723821409351151253,0.9103952,5.081693,2.0326772,1.4312077,9.488049,2.02459571409351151255,0.9032126,5.57849,2.0727801,1.455755,9.471641,2.08307121409351151258,0.99538934,5.9944825,2.135628,1.4686779,9.461412,2.12015031409351151287,1.234211,6.3182983,2.2134395,1.4662564,9.458037,2.13682841409351151288,1.5131354,6.4619503,2.3343468,1.446852,9.460961,2.13711021409351151290,1.822586,6.775591,2.4109612,1.4214094,9.466213,