time,acc_x,acc_y,acc_z,gravity_x,gravity_y,gravity_z1409350199248,0.046088383,9.871892,0.48961425,-0.28357276,9.799164,0.257623341409350199249,5.99E-04,9.788693,0.545878,-0.28928107,9.79885,0.26315821409350199250,0.062249243,9.745598,0.5638345,-0.29519117,9.79847,0.270633041409350199273,0.11971009,9.694122,0.55844754,-0.30122635,9.798037,0.279483881409350199274,0.1592144,9.682152,0.5770026,-0.30740154,9.797566,0.289137271409350199288,0.22445641,9.727043,0.4866215,-0.31271455,9.797126,0.298217241409350199289,0.26396075,9.809045,0.45310268,-0.3173818,9.796749,0.305600321409350199302,0.22744916,9.861717,0.39205053,-0.32198417,9.796391,0.31216921409350199306,0.20171149,9.897031,0.2896984,-0.32698724,9.7960415,0.317834941409350199322,0.17537527,9.913192,0.2112883,-0.33203956,9.795731,0.32216451409350199345,0.15981296,9.888652,0.23882163,-0.3374417,9.79542,0.32598321409350199347,0.14844051,9.8754835,0.31783026,-0.342691,9.795093,0.330338451409350199348,0.095768064,9.941922,0.37110126,-0.34799176,9.794687,0.336785141409350199358,-0.006584055,10.039486,0.46088383,-0.35407254,9.794153,0.34581371409350199382,-0.16879122,10.160394,0.53330845,-0.36171955,9.793451,0.357620451409350199383,-0.36152446,10.2417965,0.4770447,-0.37171486,9.792551,0.371751841409350199386,-0.5542577,10.271125,0.36152446,-0.38447103,9.791469,0.386935381409350199409,-0.83737206,9.982624,0.15023616,-0.39981854,9.790254,0.401852371409350199410,-0.9127894,9.773131,0.108337626,-0.41860712,9.788923,0.414877271409350199418,-0.86251116,9.585785,0.11492168,-0.43833545,9.787517,0.427522841409350199451,-0.81043726,9.445126,0.18854338,-0.4586853,9.786035,0.439935741409350199452,-0.80924016,9.390657,0.19871874,-0.4797491,9.784495,0.451520951409350199453,-0.76554596,9.374496,0.2220622,-0.50152445,9.782964,0.46093411409350199458,-0.7553706,9.415198,0.32621,-0.5232158,9.781566,0.466483531409350199473,-0.6991069,9.515156,0.4381389,-0.5445324,9.780292,0.468817531409350199492,-0.6332663,9.593566,0.4309563,-0.5645276,9.779123,0.469523641409350199492,-0.61112,9.703101,0.43035775,-0.58262014,9.778099,0.468772531409350199502,-0.49559975,9.831789,0.39923313,-0.5993043,9.77716,0.467325271409350199506,-0.44472298,9.8994255,0.43514615,-0.6139723,9.776305,0.466142181409350199522,-0.46806642,9.922171,0.4309563,-0.62727493,9.775477,0.465803181409350199540,-0.5093664,9.88925,0.42317516,-0.6397274,9.774624,0.466774051409350199541,-0.55844754,9.809045,0.4441244,-0.6521694,9.773686,0.469157731409350199552,-0.6003461,9.728839,0.42197806,-0.66408694,9.772671,0.473574371409350199569,-0.66020113,9.713276,0.47465047,-0.67499626,9.771632,0.479530071409350199570,-0.6769605,9.733028,0.4842273,-0.6852202,9.770514,0.48778061409350199588,-0.6799533,9.771336,0.48602295,-0.69414616,9.76941,0.497166281409350199589,-0.55964464,9.812635,0.45669398,-0.7016724,9.768403,0.50628951409350199602,-0.5081693,9.789292,0.4297592,-0.70687973,9.767584,0.5148131409350199606,-0.47165772,9.766547,0.41060558,-0.71098906,9.766927,0.521574741409350199620,-0.4405331,9.7007065,0.49679685,-0.7144222,9.766385,0.527002631409350199639,-0.4321534,9.611523,0.5781997,-0.7174535,9.76584,0.53293841409350199640,-0.47105917,9.526528,0.6560113,-0.7197538,9.7653475,0.538821641409350199654,-0.4770447,9.491214,0.7320272,-0.72184205,9.764944,0.54333121409350199670,-0.47165772,9.491214,0.8098387,-0.723312,9.764604,0.547477841409350199670,-0.3716998,9.482835,0.8242039,-0.72372586,9.764306,0.55221191409350199687,-0.5482722,9.5570545,0.83258367,-0.72158784,9.764224,0.55645551409350199687,-0.4429273,9.67018,0.7685388,-0.7188268,9.764204,0.56037061409350199703,-0.35913026,9.682152,0.79128367,-0.71391326,9.764377,0.563621409350199706,-0.30705637,9.709086,0.7787141,-0.7064088,9.764733,0.56689451409350199718,-0.22924481,9.705495,0.74998367,-0.69649655,9.765296,0.569456461409350199737,-0.090381116,9.718064,0.6889315,-0.68509537,9.766007,0.57109951409350199740,0.044292733,9.77373,0.6805518,-0.6722563,9.76684,0.572102551409350199752,0.11252748,9.7958765,0.62967503,-0.6580216,9.767789,0.57247961409350199768,0.15263036,9.801862,0.56922144,-0.643764,9.7688,0.57143091409350199769,0.16101007,9.846154,0.53929394,-0.6305088,9.769776,0.56948451409350199786,0.034715924,9.807847,0.3764882,-0.61860466,9.770681,0.567024231409350199786,-0.04070143,9.736021,0.23882163,-0.6089586,9.7715025,0.56328741409350199800,-0.1328782,9.683948,0.15263036,-0.60162216,9.772217,0.5587761409350199806,-0.23822308,9.694122,0.23403321,-0.59654516,9.772812,0.5537551409350199818,-0.3764882,9.686341,0.557849,-0.59333754,9.773212,0.55015321409350199836,-0.4770447,9.718663,0.82599956,-0.59172714,9.773253,0.55115621409350199838,-0.55246204,9.727043,0.9068039,-0.59096295,9.773032,0.555870951409350199862,-0.58119243,9.589376,0.89423436,-0.590918,9.772591,0.563634041409350199863,-0.5823896,9.317036,0.88944596,-0.59106714,9.7721195,0.57158471409350199866,-0.6171055,9.22067,1.0582372,-0.5918628,9.771647,0.5787931409350199892,-0.57640404,9.222465,1.287482,-0.5937638,9.770995,0.587805751409350199894,-0.37588966,9.314043,1.2779051,-0.5960614,9.770094,0.60030751409350199898,-0.22804771,9.474455,1.1797429,-0.5960574,9.769304,0.61304831409350199907,-0.035913024,9.596559,1.002572,-0.5933044,9.7688265,0.623254061409350199921,0.18375498,9.731233,0.7835025,-0.58855283,9.768764,0.628695961409350199946,0.21667525,9.753379,0.4914099,-0.58210474,9.769204,0.62785481409350199947,0.3800795,9.779117,0.2633622,-0.5765917,9.769976,0.620905461409350199948,0.5189432,9.832388,0.18136078,-0.57065684,9.770962,0.610780951409350199978,0.55725044,9.953894,0.11611878,-0.5653805,9.772013,0.59875621409350199979,0.439336,10.196905,0.18136078,-0.5615355,9.773037,0.585500961409350199981,0.22804771,10.1861315,0.16579847,-0.5603221,9.773864,0.572709861409350199987,-0.018555064,10.100538,0.28670564,-0.5631949,9.77447,0.559418441409350200034,-0.24001873,9.9233675,0.3824737,-0.5711697,9.774768,0.54597211409350200035,-0.374094,9.797672,0.3393781,-0.58315253,9.774744,0.53360011409350200036,-0.59855044,9.646238,0.30526072,-0.5969742,9.774559,0.52156831409350200037,-0.6805518,9.677961,0.3609259,-0.6127019,9.774343,0.507152261409350200056,-0.52373165,9.752781,0.3854665,-0.6285266,9.77422,0.48986151409350200057,-0.44711718,9.570223,0.3345897,-0.6421688,9.774328,0.46961951409350200058,-0.51595044,9.281721,0.24959552,-0.6545382,9.774506,0.448361041409350200067,-0.40880993,9.145252,0.29807812,-0.66735,9.774662,0.42544661409350200087,-0.08020575,9.242217,0.39983168,-0.6793237,9.774788,0.403034871409350200087,0.014963761,9.334992,0.41359833,-0.6877265,9.775056,0.38172261409350200107,-0.29448682,9.4217825,0.29029694,-0.69427997,9.77542,0.359889541409350200107,0.08319851,9.836577,0.19033903,-0.70596784,9.77553,0.333186841409350200118,0.08200141,10.150218,0.18435353,-0.71697056,9.775755,0.301653061409350200136,-0.17357962,10.316615,-0.11192893,-0.72872734,9.775873,0.267743171409350200138,-0.32142156,10.399814,-0.39504328,-0.7454732,9.775605,0.228488451409350200154,-0.5279215,10.22384,-0.47405192,-0.76645637,9.774886,0.185835291409350200172,-0.7308301,10.08318,-0.36032736,-0.7904944,9.773669,0.144533561409350200174,-0.36870706,10.196905,-0.23343466,-0.81680715,9.771945,0.11103111409350200188,-0.3561375,10.268731,-0.050876785,-0.840051,9.770213,0.087482471409350200190,-0.15682021,10.427945,0.08020575,-0.8622665,9.768391,0.073815181409350200204,-0.3196259,10.426748,0.16879122,-0.8815388,9.766704,0.069187521409350200217,-0.23463176,10.53329,0.19752164,-0.9031846,9.764706,0.071818451409350200223,0.029927522,10.618883,0.1412579,-0.9257663,9.7625265,0.080115741409350200238,0.094570965,10.66557,0.034117375,-0.9470073,9.760387,0.0916015951409350200240,0.15442601,10.652402,-0.06284779,-0.9671868,9.758265,0.105811911409350200253,0.15562311,10.460866,-0.046088383,-0.987808,9.756017,0.121622641409350200271,0.11851298,10.234015,0.10474633,-1.009705,9.753548,0.138605921409350200272,0.034715924,9.983223,0.28491,-1.0326434,9.750855,0.157675951409350200285,-0.038307227,9.825205,0.46148238,-1.0572693,9.747788,0.1822511409350200287,-0.095768064,9.753978,0.56922144,-1.0835072,9.744275,0.21337271409350200308,-0.18435353,9.693524,0.6488287,-1.1110753,9.740294,0.250154321409350200309,-0.27353755,9.637859,0.5267244,-1.1408843,9.735701,0.291411041409350200319,-0.2657564,9.655217,0.4321534,-1.1742667,9.730375,0.333597181409350200341,-0.18495208,9.7563715,0.39743748,-1.2115303,9.724257,0.37602821409350200342,-0.16340427,9.803059,0.3309984,-1.2518781,9.717415,0.418376241409350200347,-0.23822308,9.733627,0.2873042,-1.2960478,9.7097435,0.459938651409350200368,-0.3309984,9.670779,0.3633201,-1.3436505,9.701373,0.498360461409350200369,-0.2801216,9.701305,0.5422867,-1.3938162,9.692376,0.53434541409350200389,-0.17836803,9.980828,0.712275,-1.4434812,9.683008,0.571028771409350200390,-0.077811554,10.472239,0.81522566,-1.4921634,9.673345,0.60848731409350200406,-0.14425065,10.927735,0.7882909,-1.5380132,9.663702,0.646340371409350200407,0.4237737,11.23958,0.61530983,-1.5818794,9.654111,0.68279521409350200419,0.27952304,11.03308,0.39324763,-1.6153342,9.646252,0.71478441409350200435,0.87448215,10.73979,0.39683893,-1.6458962,9.639086,0.741257971409350200459,1.2934675,10.449493,0.47405192,-1.6680495,9.633483,0.764215051409350200460,1.7351977,10.318411,0.5781997,-1.6843942,9.628882,0.78602821409350200462,2.1996727,10.271724,0.78888947,-1.6943445,9.62541,0.806892161409350200467,2.5552118,10.307038,0.9624691,-1.697441,9.623181,0.82673261409350200494,2.7407625,10.450092,1.204882,-1.6929022,9.622297,0.84608961409350200495,2.72939,10.496181,1.6340426,-1.6838808,9.622547,0.86110951409350200499,2.428319,10.45069,2.1865046,-1.6714731,9.623577,0.87368661409350200521,1.2354081,10.108918,2.6515784,-1.6597575,9.624219,0.88881231409350200523,0.1364695,10.1382475,2.9694088,-1.6586747,9.622509,0.909139631409350200539,-2.112883,9.626487,3.264494,-1.6634102,9.619169,0.93543611409350200540,-2.8167782,9.037513,2.8095956,-1.6808741,9.613236,0.96475341409350200548,-3.164536,8.511387,1.8632874,-1.6983454,9.608604,0.98016611409350200579,-3.3955765,8.133103,0.801459,-1.7106545,9.607568,0.968853241409350200581,-3.5877113,8.001422,-0.13108255,-1.7121414,9.611737,0.923845051409350200582,-3.5350387,8.228871,-0.94810385,-1.7006803,9.621134,0.84372461409350200587,-3.0627825,8.930971,-1.7896658,-1.6814562,9.632847,0.742541551409350200609,-2.6569653,9.883265,-2.3744495,-1.6390483,9.648999,0.617027761409350200610,-2.2272062,11.125855,-2.570774,-1.5701933,9.66832,0.47797351409350200619,-1.9003977,12.563574,-2.517503,-1.4750875,9.688975,0.343914571409350200654,-1.6017209,13.715184,-2.3540988,-1.3577336,9.709463,0.230853421409350200657,-1.7369933,14.339473,-1.7435774,-1.224675,9.7287445,0.148563251409350200658,-2.8395233,14.186244,-0.49081135,-1.088537,9.745486,0.1048147161409350200681,-3.982156,13.520656,1.0426749,-0.9713596,9.757839,0.106812611409350200682,-4.247314,12.640188,2.3918076,-0.8780022,9.766069,0.152899821409350200683,-4.24073,11.425729,3.1453824,-0.79368055,9.771733,0.231636671409350200689,-4.2371383,10.600328,3.1573534,-0.7088303,9.775673,0.322736741409350200705,-4.2000284,10.105327,2.8742392,-0.62231404,9.778327,0.40919281409350200707,-4.183269,9.810242,2.6443958,-0.5291334,9.780619,0.47947571409350200718,-2.3918076,10.64043,2.44448,-0.4242551,9.782854,0.53492231409350200738,-1.6627731,9.800665,1.6005238,-0.28569248,9.785143,0.58286831409350200762,-0.83018947,9.0081835,0.7140707,-0.12504059,9.786587,0.61436471409350200763,0.207697,8.902241,-0.16819267,0.043199237,9.786714,0.62350661409350200764,0.90979666,9.329007,-0.7272388,0.20923367,9.785329,0.611526251409350200767,1.6687586,10.071808,-1.1360487,0.37110224,9.781998,0.587531031409350200792,2.156577,10.355521,-1.2413936,0.5275036,9.776446,0.55966861409350200794,1.1719618,9.322423,-1.0767922,0.67459357,9.768625,0.537838461409350200798,0.45549688,8.045116,-0.6727707,0.7924401,9.760422,0.525942861409350200818,0.260968,7.1969705,0.018555064,0.8933933,9.7511425,0.536174951409350200819,0.3238158,6.83784,0.8218097,0.97634315,9.741169,0.571635541409350200839,0.29568392,6.4936733,1.6944963,1.0565672,9.72915,0.630622571409350200839,0.40821138,5.777209,2.1021092,1.1371157,9.714814,0.70693541409350200847,0.6075287,5.4486046,2.381632,1.216489,9.698997,0.787414131409350200866,0.6733692,5.4767365,2.5037365,1.2931424,9.682683,0.862451551409350200867,0.81761986,5.7855883,2.480393,1.366877,9.666579,0.92698631409350200882,1.1073183,6.1447186,2.179322,1.4360622,9.651641,0.97671041409350200903,1.4215573,6.3470287,1.6382325,1.499617,9.638991,1.00568571409350200904,1.6783354,6.497265,1.0456676,1.5563502,9.629527,1.01013681409350200919,2.2122424,7.0581064,0.2693477,1.6098882,9.6217,1.00078211409350200920,2.5019407,7.177218,0.0688333,1.655775,9.616996,0.97067051409350200936,2.722806,7.245453,0.006584055,1.6910964,9.614592,0.93283621409350200956,3.2507274,7.5890207,0.2657564,1.713098,9.614034,0.897805751409350200962,3.1920695,7.838018,1.0720038,1.7229133,9.6144905,0.87380941409350200964,3.6361938,8.392276,1.8920178,1.7160529,9.616154,0.868999961409350200969,4.1252093,9.02614,2.6234465,1.6976193,9.617876,0.88596451409350201012,3.6523547,9.383475,3.402759,1.6717969,9.619075,0.92136141409350201014,3.9456444,9.975441,3.3943794,1.632294,9.621346,0.967321409350201016,3.7163997,10.012551,3.3620577,1.5906081,9.623826,1.01111251409350201018,3.1130607,9.994595,3.2208,1.5505012,9.626224,1.0498371409350201021,1.7902644,11.207258,3.472191,1.5099708,9.629016,1.08278061409350201048,0.31902736,12.709022,3.0639796,1.4678701,9.6322975,1.11112581409350201050,-0.12868834,13.254301,1.4616601,1.4248905,9.637241,1.1241321409350201051,0.95109665,13.623607,-0.089782566,1.4020495,9.642925,1.10393621409350201090,2.2864625,13.204621,-0.55844754,1.4232887,9.64517,1.0561091409350201092,3.7816415,12.476185,-0.15622166,1.4893361,9.640212,1.00926131409350201095,5.0942626,11.735778,1.5131354,1.5899545,9.6266775,0.98465751409350201096,5.9729347,12.798803,8.12592,1.7160324,9.603649,0.997788251409350201099,3.0412347,18.182167,4.047398,1.8603692,9.563681,1.11599841409350201117,0.53211135,16.802507,0.4902128,1.9456527,9.537656,1.19077051409350201137,-1.8369513,14.264055,0.07062895,1.9965053,9.523649,1.21838921409350201138,-2.895787,11.71004,-1.3748703,2.0264192,9.515417,1.23324181409350201152,-2.3529017,10.05445,-1.198298,2.0388353,9.513475,1.22773161409350201154,-2.5181017,9.012972,1.1001357,2.037774,9.511048,1.24814251409350201167,-2.6431987,8.664616,1.9297266,2.0095537,9.509073,1.30752351409350201168,-2.5360582,8.640076,2.1380222,1.9582152,9.511025,1.36974411409350201182,-2.2505496,8.838196,1.4257472,1.8991121,9.517066,1.41039691409350201200,-1.87047,9.289502,0.95947635,1.8460989,9.526003,1.42042621409350201200,-1.9746178,9.580399,0.50158525,1.8026451,9.536305,1.40703711409350201215,-2.0123265,9.797073,-0.22445641,1.7618451,9.5484705,1.37587231409350201220,-1.4083891,9.96766,-0.6751649,1.7126826,9.564093,1.32862291409350201235,-0.48362875,10.184336,-0.7781156,1.6594915,9.580798,1.27466871409350201250,0.047884032,10.444106,-0.49799395,1.5976382,9.599061,1.21489951409350201251,-0.009576807,10.579977,0.1364695,1.527055,9.617503,1.15851251409350201266,-0.04189853,10.338163,0.5734113,1.4451596,9.6352,1.11571971409350201268,-0.0712275,9.919178,0.57879823,1.3551551,9.651728,1.08541921409350201283,-0.22026655,9.763555,0.6775591,1.2616516,9.667659,1.05594471409350201299,-0.36631286,9.476849,0.789488,1.1637683,9.683556,1.02214181409350201315,-0.4842273,9.003395,0.6679823,1.063348,9.698547,0.988864361409350201316,-0.5470751,8.485051,0.095768064,0.9651548,9.711813,0.958928641409350201320,-0.52133745,8.255806,-0.5081693,0.8756235,9.723228,0.928720531409350201332,-0.6135142,8.391677,-0.81761986,0.7974164,9.733215,0.893908141409350201355,-0.57760113,8.876503,-0.57999533,0.72472674,9.742301,0.85600131409350201356,-0.7086837,9.217078,-0.015562311,0.66435444,9.749513,0.82219961409350201362,-0.8924387,9.209895,0.46327803,0.61322427,9.754192,0.8062791409350201368,-0.8559271,9.150639,0.5506664,0.5622049,9.756396,0.81673261409350201383,-0.7966706,8.655638,0.23942018,0.5037446,9.756911,0.84811381409350201404,-1.0749966,8.2276745,0.03232172,0.43263957,9.757426,0.88082481409350201405,-1.3030443,8.371924,0.2705448,0.34333056,9.759347,0.898690161409350201409,-1.3479356,8.68796,0.30166942,0.23490883,9.762272,0.90180211409350201438,-0.9552865,8.608951,0.012569559,0.11306743,9.765085,0.89483931409350201441,-0.10594343,8.669404,-0.20590134,-0.009564678,9.766936,0.88163321409350201442,0.44532153,8.881889,-0.109534726,-0.11575843,9.767493,0.867814541409350201448,0.7697359,9.068039,0.39264908,-0.20888585,9.766176,0.86518771409350201475,0.93852705,8.865729,0.86011696,-0.28102374,9.762347,0.887695851409350201476,0.8631097,8.37013,1.2587515,-0.33945882,9.75552,0.940751409350201484,0.90021986,8.118738,1.353921,-0.3932282,9.74549,1.0203771409350201504,0.8631097,7.7572136,1.2599486,-0.4468874,9.732996,1.11331081409350201505,0.9840169,7.4202294,0.9415198,-0.5032356,9.719343,1.20478031409350201508,1.2360066,7.387908,0.6841431,-0.5615464,9.705858,1.28506671409350201531,1.5053543,7.841609,0.81402856,-0.6176118,9.694025,1.34715461409350201532,1.7208325,8.422203,1.1474211,-0.6654123,9.684667,1.39099911409350201555,1.7836803,8.833407,1.4083891,-0.7013587,9.67709,1.42562841409350201556,1.5807717,9.154829,1.6927006,-0.7306021,9.669595,1.46135151409350201560,1.2360066,9.580399,2.0721815,-0.75473213,9.661349,1.5030321409350201569,0.59495914,9.64983,2.417545,-0.7784203,9.651537,1.55315071409350201590,0.3878607,9.784504,2.3517046,-0.8095767,9.639887,1.60858681409350201591,0.46088383,9.623494,1.745373,-0.8482918,9.627975,1.65917771409350201602,1.1390414,9.646238,0.8146271,-0.89244634,9.618329,1.69164551409350201615,1.7256209,9.803658,0.3369839,-0.93406373,9.613051,1.69917131409350201633,2.2930467,10.191518,0.5626374,-0.96820605,9.611445,1.68910411409350201633,2.2331917,10.580576,1.1414356,-0.98964876,9.611383,1.67699681409350201651,2.094328,10.782288,1.4437037,-1.0023184,9.610174,1.67640291409350201652,1.6819267,10.869077,1.5855601,-1.0068486,9.607916,1.68660221409350201667,1.2276269,10.7356,1.6514006,-1.0104828,9.605332,1.69908821409350201670,1.5328877,10.703877,2.0602105,-1.0070484,9.603949,1.70892751409350201684,1.5502456,10.318411,2.4390929,-0.9874212,9.60607,1.70845121409350201706,1.240795,9.660006,2.168548,-0.95425415,9.6124325,1.69142931409350201707,0.93254155,9.019556,2.0326772,-0.91019714,9.622791,1.65645271409350201708,0.3286042,8.25401,2.2391772,-0.85341007,9.636064,1.60883811409350201742,-1.2360066,7.0168066,1.8375498,-0.7917752,9.651381,1.54736271409350201743,-2.724003,5.969343,1.0995371,-0.739094,9.668664,1.46323371409350201745,-4.0719385,5.7963624,0.14844051,-0.6933407,9.687763,1.35533211409350201749,-5.4138885,7.0287776,-0.75237787,-0.64908427,9.708365,1.22340611409350201772,-6.3751607,9.842564,-1.3491327,-0.60660595,9.728475,1.07666771409350201773,-6.7468605,13.861231,-1.4796166,-0.5747914,9.746564,0.91896841409350201781,-6.1064115,18.174984,-1.3958195,-0.5399413,9.761329,0.77158881409350201808,-3.4207156,19.608511,-1.8393455,-0.48195916,9.773259,0.64923671409350201809,-1.9925743,19.608511,-1.8986019,-0.35337368,9.784975,0.547505861409350201810,-3.394978,19.608511,-0.88405895,-0.18958497,9.793883,0.46292441409350201841,-3.2573113,18.429367,0.98222125,-0.07185798,9.797236,0.423538151409350201844,-2.6725276,14.426262,3.2543187,0.016500834,9.795759,0.461751251409350201845,-2.1918917,10.519524,5.005079,0.09582791,9.789727,0.567817451409350201848,-3.482965,7.125743,4.848857,0.16339594,9.780579,0.69569331409350201866,-3.1429882,7.8829093,4.174889,0.21013832,9.772329,0.792329971409350201885,-1.3335704,8.334216,3.4596214,0.25794324,9.76513,0.86375971409350201886,-0.12868834,7.714118,2.8329391,0.34111243,9.760736,0.884345951409350201888,1.3682863,8.810063,2.510919,0.47056445,9.757071,0.86516781409350201901,2.556409,9.522937,1.7735049,0.6327935,9.751463,0.823991409350201919,3.4063504,9.628283,0.7769185,0.80644405,9.743111,0.769291041409350201920,2.6527755,8.468291,-0.29269117,0.9742118,9.732437,0.70778591409350201929,2.6569653,7.7494326,-0.75716627,1.111796,9.721732,0.649789631409350201965,2.6509798,7.4112515,-0.45250413,1.2249868,9.710568,0.612098461409350201966,2.2541409,7.165846,-0.14425065,1.3238584,9.697927,0.606638431409350201969,1.6005238,6.247669,0.10175357,1.4118106,9.68396,0.63095691409350201990,1.027711,5.361216,0.40641573,1.4890963,9.669395,0.675113441409350201992,0.9103952,5.031415,0.76075757,1.5610785,9.65438,0.725535451409350201993,1.0528502,5.2361193,1.0139444,1.6295103,9.638504,0.78380181409350202002,0.8750807,5.4521956,1.1875241,1.6981589,9.62144,0.84529991409350202021,0.878672,5.727529,1.3024458,1.7636262,9.604075,0.906506961409350202023,0.8158242,6.0124393,1.5161282,1.820914,9.587966,0.96207391409350202029,0.8122329,6.2464724,1.5927427,1.8670785,9.574429,1.00733111409350202054,1.6124948,7.20954,1.6112977,1.901318,9.564504,1.03713181409350202055,2.1823149,7.654263,1.6178818,1.927235,9.558051,1.04872351409350202063,2.6928782,7.849989,1.5472529,1.9437953,9.555476,1.04160341409350202090,3.1304188,8.015189,1.7178397,1.948607,9.5569,1.01930921409350202092,3.8576574,8.55149,1.5292963,1.9389396,9.561509,0.994208631409350202094,4.0503907,9.082404,1.6460136,1.9259129,9.566983,0.966477161409350202102,4.357447,9.734225,1.7729063,1.8976699,9.574667,0.94605511409350202121,4.7800236,10.084976,1.905186,1.8565732,9.5834255,0.93887311409350202122,4.0533834,9.754577,2.585738,1.8077805,9.592085,0.945650041409350202129,4.0719385,9.616311,2.9466639,1.7447062,9.601497,0.96832891409350202158,3.2597055,9.857527,3.4434607,1.6790142,9.609585,1.00359021409350202161,1.4209588,11.742362,4.0719385,1.613526,9.615856,1.0498651409350202163,-0.0724246,12.7970085,3.3596635,1.5450219,9.620913,1.10514151409350202204,-0.050876785,12.762891,1.8650831,1.4844793,9.625731,1.14542911409350202205,0.878672,12.169128,0.6943185,1.4647145,9.627645,1.15475171409350202205,2.4540567,11.183316,0.39863458,1.4759427,9.626365,1.1511341409350202206,3.957017,10.247183,1.453879,1.5375171,9.616795,1.15053021409350202210,4.9278655,10.951078,4.4101195,1.6327664,9.598428,1.17245511409350202232,3.5715504,15.415667,4.656722,1.7516197,9.57089,1.22486271409350202233,0.5602432,18.48982,0.18974048,1.8564845,9.544658,1.27411281409350202252,-1.0151415,15.660473,-0.84814596,1.9122732,9.53689,1.24953651409350202253,-1.9841946,12.776657,-1.4287399,1.9535673,9.53515,1.19786831409350202262,-1.8219875,10.81461,-0.58897364,1.9761124,9.53694,1.14549581409350202282,-1.881244,9.837176,1.0336965,1.9820937,9.535722,1.14530351409350202283,-2.0620062,9.615712,1.1360487,1.9596885,9.534485,1.193161409350202298,-1.7531542,9.639654,0.6356605,1.9123223,9.53741,1.24548581409350202312,-1.4197617,9.43495,0.207697,1.8637648,9.541976,1.28353061409350202313,-1.702876,9.291298,0.109534726,1.8167404,9.548517,1.30216571409350202330,-1.8968062,9.108741,0.110133275,1.7746928,9.556268,1.3033021409350202331,-1.4335283,8.723872,0.20470424,1.735091,9.56507,1.29200271409350202347,-0.46447513,8.598776,0.43993455,1.6953233,9.574837,1.27231241409350202349,0.36511576,9.036914,0.65242,1.6526151,9.585817,1.24553261409350202363,0.84335756,9.665392,0.7152678,1.6037519,9.598214,1.21353171409350202378,1.0887632,10.225037,0.6805518,1.5442073,9.612246,1.17922851409350202399,1.0486604,10.594941,0.50876784,1.4715279,9.628215,1.14126321409350202400,0.74758947,10.977415,0.23642741,1.3858751,9.646788,1.09051911409350202413,0.37110126,11.599907,0.03232172,1.2889818,9.666933,1.02923611409350202414,-0.712275,11.367071,-0.38367084,1.1845478,9.688212,0.951725541409350202447,-1.2138603,10.101735,-0.56323594,1.0671829,9.7093725,0.871558371409350202453,-1.6418238,9.225458,-0.8810662,0.9464583,9.727377,0.80792851409350202455,-1.8291701,8.942344,-1.0049661,0.8259537,9.7419195,0.763684871409350202456,-1.7896658,9.0842,-0.76315176,0.7136951,9.753092,0.73366151409350202498,-1.6430209,9.284714,-0.23642741,0.6192738,9.7607765,0.71704291409350202499,-1.4149733,9.467871,0.2172738,0.54523253,9.764992,0.719766261409350202501,-0.85891986,9.221268,0.46028528,0.4858397,9.766082,0.746994441409350202501,-0.54527944,8.541913,0.39564183,0.4330473,9.76469,0.79604931409350202517,-0.4997896,8.032547,0.42676646,0.37373045,9.762391,0.85232941409350202518,-0.4818331,7.8428063,0.6206968,0.3065585,9.759795,0.907095551409350202521,-0.46866497,7.6853876,0.9175778,0.21836495,9.757943,0.951456671409350202529,-0.4225766,7.177218,0.7128736,0.10941943,9.756176,0.987648551409350202557,0.46327803,7.269395,0.4225766,-0.012826894,9.753622,1.01837741409350202558,1.1587936,7.632715,0.31543607,-0.13090353,9.75005,1.04392741409350202565,1.5999253,8.150461,0.4201824,-0.23073125,9.745917,1.06500891409350202591,1.887828,8.516774,0.6087258,-0.31309894,9.740809,1.09042221409350202592,2.1039047,8.663419,0.86251116,-0.38288113,9.733601,1.13173261409350202594,1.934515,8.475474,0.9343372,-0.44620648,9.72318,1.19627431409350202614,1.3299791,7.849989,0.7823054,-0.51074576,9.709427,1.27928291409350202614,1.1528081,7.7488337,0.48003745,-0.5843613,9.693303,1.36704711409350202629,1.1839328,7.7679873,0.26994625,-0.6620964,9.676395,1.44893521409350202630,1.4736311,7.9385743,0.4842273,-0.74218893,9.660265,1.51618671409350202646,1.745373,8.417415,0.961272,-0.8179182,9.645867,1.56800991409350202665,1.7262194,8.777742,1.5179238,-0.88280505,9.633025,1.61118321409350202666,1.5340848,8.892065,2.2104468,-0.9371367,9.620418,1.65521531409350202683,1.2892777,8.767567,3.032855,-0.9856917,9.605922,1.71028771409350202684,1.3042414,8.879496,2.9406781,-1.0307078,9.588356,1.78085171409350202689,1.5400703,9.132683,2.2278047,-1.0705642,9.570473,1.85211731409350202712,2.345719,9.51336,1.3000516,-1.1042156,9.55652,1.90368081409350202713,3.2130187,9.940127,0.5482722,-1.1269623,9.549161,1.92714421409350202728,3.5835214,10.550649,0.8948329,-1.1356908,9.546648,1.93445181409350202729,3.0131028,11.048044,1.9081788,-1.136522,9.546843,1.93301211409350202748,2.1709423,11.349114,2.6144683,-1.1365092,9.545337,1.9404351409350202762,1.216853,11.304822,2.717419,-1.1424993,9.540521,1.96050231409350202762,0.25857377,11.225813,2.618658,-1.1555516,9.53433,1.9828311409350202779,-0.049081136,11.066599,2.6396074,-1.1725475,9.530851,1.98956871409350202781,0.18674773,10.84334,2.498948,-1.1848215,9.533241,1.97076821409350202795,-0.050278235,9.886856,1.726818,-1.1826242,9.542495,1.9268081409350202811,-0.1921347,9.26556,2.03567,-1.1667317,9.557197,1.8625551409350202812,-1.1013328,8.330027,1.4664485,-1.139749,9.574387,1.78955171409350202830,-1.934515,7.125743,0.6596026,-1.1159818,9.593667,1.69898431409350202830,-2.6623523,6.1423244,0.39025488,-1.0982513,9.613483,1.59536371409350202846,-3.4799721,6.118981,-0.1388637,-1.0769466,9.635227,1.47410521409350202860,-4.525041,7.2268977,-0.96905315,-1.0478244,9.659475,1.32927881409350202862,-5.241506,9.346365,-1.5532384,-1.0108019,9.684617,1.16484631409350202883,-5.33069,11.968016,-1.4490906,-0.96146286,9.708296,0.997482541409350202887,-4.490924,15.073894,-0.91817635,-0.89157724,9.728367,0.85695411409350202889,-3.0244753,18.294693,-1.1055226,-0.78817767,9.7453165,0.760246161409350202919,-2.082357,19.608511,-1.3096284,-0.64080495,9.761519,0.687374351409350202921,-1.9177556,19.608511,-0.31783026,-0.46619895,9.7754965,0.626679961409350202924,-1.757344,18.55985,1.7238252,-0.30112514,9.783412,0.60378831409350202929,-1.3012487,15.190611,3.881001,-0.15711825,9.783695,0.65196351409350202958,-1.3192052,12.26789,5.549161,0.18779056,9.749147,1.04367381409350202959,-1.8567034,10.639234,6.4308257,0.18779056,9.749147,1.04367381409350202961,-3.5739446,9.068039,5.3265004,0.18779056,9.749147,1.04367381409350202992,-4.337695,7.5704656,3.6649241,0.23865189,9.7375,1.13776371409350202994,-2.3511062,7.5016327,2.5276785,0.27560216,9.734322,1.15647831409350202995,-1.4161704,7.9942393,2.134431,0.34675482,9.736175,1.12119831409350203012,-0.49799395,8.228871,1.5478514,0.45914596,9.737896,1.06440731409350203013,1.270124,9.232041,0.82360536,0.60194474,9.737511,0.99444651409350203028,2.3301568,9.697116,0.08020575,0.75948495,9.734459,0.913190961409350203030,1.9746178,8.607155,-0.7882909,0.91650975,9.728358,0.830325071409350203045,1.9357121,7.5962033,-0.8714894,1.0482984,9.721475,0.75128011409350203060,2.0093338,7.2071457,-0.092775315,1.1655712,9.712351,0.69431851409350203061,1.7166426,6.393117,0.47884035,1.2590398,9.70245,0.66907941409350203075,1.6711528,5.886145,0.8738836,1.3392832,9.691317,0.67462071409350203081,1.6663644,5.773019,1.2773066,1.4130613,9.678801,0.70317171409350203095,1.3204023,5.597045,1.6047137,1.4825692,9.665342,0.744006931409350203112,1.3491327,5.599439,1.7441759,1.5442376,9.652105,0.78906131409350203113,1.2378023,5.6802435,1.9273324,1.5974232,9.63972,0.833309051409350203128,1.4197617,5.9825115,2.0159178,1.6398765,9.629046,0.87331371409350203130,1.6448165,6.3847375,1.8501194,1.6705998,9.620898,0.904338361409350203149,1.9458874,6.6684504,1.4161704,1.6880465,9.616289,0.92080791409350203150,2.1930888,6.7534447,1.0169371,1.6998723,9.613658,0.92650931409350203162,2.195483,6.609194,0.7697359,1.6992531,9.615106,0.912497161409350203182,2.6384103,6.885724,0.74399817,1.6855931,9.62038,0.88172851409350203183,3.1872811,7.3992805,0.7918822,1.6612904,9.62807,0.843085171409350203190,3.8283286,8.283937,0.801459,1.6268748,9.63719,0.80513741409350203222,3.7642837,9.296685,1.5562311,1.5828959,9.647135,0.77305941409350203223,4.3023806,10.718243,2.0093338,1.5231586,9.657949,0.757888731409350203224,4.594473,11.35091,2.327164,1.4573745,9.667933,0.759941041409350203230,3.5416229,10.828376,2.7521348,1.3900813,9.676799,0.77305241409350203253,3.9983168,10.478823,2.1655555,1.3104988,9.686453,0.790967461409350203253,2.4516625,10.860698,3.2758665,1.2402788,9.694761,0.80231831409350203262,-0.006584055,14.225149,4.0653543,1.1631292,9.702438,0.82473821409350203281,-1.359308,16.391304,2.3870192,1.0728923,9.709259,0.865769861409350203284,-0.7356185,15.767015,-0.27712885,0.98408926,9.716547,0.889195141409350203290,1.0971429,13.299191,-2.0165164,0.94311565,9.722058,0.87322021409350203322,3.1495724,11.430517,-1.4431051,0.9646099,9.721956,0.85057991409350203323,4.935048,10.405799,1.4293385,1.0362036,9.713928,0.85804541409350203324,4.841076,11.535264,5.616797,1.1513377,9.69682,0.90359311409350203332,4.797382,15.40609,6.3542113,1.2919515,9.670901,0.987401841409350203370,3.7535098,17.711107,3.3267434,1.4434191,9.640324,1.07290521409350203372,-2.4019828,14.290391,2.3989902,1.5668235,9.618926,1.09165841409350203374,-3.481768,12.686276,0.19812019,1.5944006,9.614752,1.08849321409350203375,-3.341707,11.982381,-0.36750996,1.6021686,9.616877,1.05788471409350203415,-3.5093012,12.012907,-0.30945057,1.5829692,9.621036,1.04894731409350203417,-3.2668881,11.444284,-0.8451532,1.5263529,9.62789,1.06975631409350203419,-2.871845,10.432734,-1.5676036,1.4482611,9.637379,1.09263461409350203423,-2.4265234,10.172364,-1.1749545,1.3682745,9.647618,1.10528651409350203424,-2.415151,10.198102,-0.78050977,1.298191,9.656325,1.11376441409350203431,-2.473809,9.716867,-0.7727286,1.2361016,9.663732,1.1201481409350203462,-1.6968905,8.817246,-0.10115502,1.1763407,9.671153,1.12046651409350203467,-0.57999533,8.2516165,0.8631097,1.1190245,9.6783905,1.11667181409350203503,0.18315643,8.455722,1.2707225,1.0627302,9.6856,1.10912741409350203503,0.5177461,9.012972,1.3221979,1.0064937,9.69262,1.10020521409350203504,0.9115923,9.279925,1.602918,0.9419159,9.700731,1.08581141409350203505,0.8475474,9.3583355,1.4772224,0.86579657,9.709285,1.07264091409350203506,0.50397944,9.090185,1.0606314,0.77733666,9.718442,1.05737091409350203510,-0.08200141,8.704121,0.6063316,0.67996305,9.728554,1.03115091409350203526,-0.85891986,8.242638,0.040102877,0.57599473,9.7396,0.989357651409350203530,-1.3479356,7.74225,-0.29807812,0.46578708,9.750539,0.938302041409350203545,-1.8501194,6.983288,-1.1192893,0.35537413,9.759763,0.889445961409350203563,-1.8124107,7.1245456,-1.3515269,0.24864042,9.767199,0.84286191409350203564,-1.9249382,7.642292,-1.0121487,0.1521778,9.77281,0.79964291409350203570,-1.7555484,8.694544,-0.2124854,0.06920739,9.7766,0.763988851409350203601,-1.4191631,9.640253,0.4213795,-0.00499547,9.778793,0.738614741409350203603,-0.8487445,9.855731,0.97982705,-0.064435065,9.778497,0.73977151409350203605,-0.56682724,9.635465,0.770933,-0.11100714,9.775113,0.777956551409350203612,-0.7236475,9.171588,0.1400608,-0.15843846,9.7691555,0.84196761409350203645,-0.943914,9.046491,-0.08619126,-0.22363807,9.762134,0.9061581409350203650,-1.1007342,8.498219,-0.11432313,-0.3158217,9.755256,0.951665341409350203652,-0.39085343,8.04751,-0.4381389,-0.4312322,9.747676,0.98349081409350203692,1.0881647,8.221688,-0.70509243,-0.5520224,9.738561,1.01297241409350203695,1.745373,8.99741,-0.16220717,-0.6531718,9.72939,1.04054131409350203696,1.6430209,9.512163,0.5686229,-0.7299608,9.7205,1.07211961409350203697,1.4317327,9.481039,1.3652935,-0.79242134,9.710911,1.1138621409350203697,1.6537948,9.066842,2.0248961,-0.85025865,9.698238,1.17968741409350203714,1.596334,8.321048,2.0380642,-0.90003836,9.682319,1.27006731409350203715,1.271321,7.820061,1.9267339,-0.9465818,9.664382,1.36897841409350203722,0.9540894,7.6105685,1.7908629,-0.99626476,9.645917,1.46086291409350203746,1.2204443,7.732673,1.2970588,-1.0501529,9.627982,1.53933021409350203747,1.5023615,8.03554,1.1192893,-1.0969012,9.613182,1.59810511409350203764,1.7926586,8.375516,1.1498153,-1.1296196,9.602587,1.63850381409350203765,1.9829975,8.966884,1.6352397,-1.1470708,9.595484,1.66772461409350203770,2.0961237,9.555259,2.4229321,-1.1522539,9.58939,1.69891061409350203797,1.7794905,9.725846,2.484583,-1.1500369,9.582029,1.74141351409350203798,1.572392,10.011953,1.8884265,-1.1504186,9.573741,1.78617321409350203802,1.4221559,10.23222,1.2802993,-1.15513,9.56606,1.82388891409350203810,1.9602526,10.583569,0.6572084,-1.164237,9.560392,1.84765791409350203829,2.758719,10.848726,0.4890157,-1.1691748,9.557761,1.85813021409350203843,3.068768,10.9025955,0.8996213,-1.1662288,9.557387,1.86189571409350203847,2.4762032,10.805631,1.7435774,-1.1594063,9.557771,1.86419061409350203868,1.4957775,10.593145,2.5019407,-1.1606697,9.5560665,1.8721261409350203869,0.42556936,10.386047,2.8688521,-1.1726289,9.551154,1.88964881409350203870,-0.3705027,10.1939125,3.1316159,-1.1920369,9.545099,1.90801451409350203892,-0.53211135,9.944916,3.0885203,-1.2112622,9.542108,1.9108671409350203893,-0.08379706,9.758766,3.0699651,-1.2174869,9.54621,1.88625741409350203906,0.40462008,9.665392,2.8532898,-1.2099215,9.554258,1.85004041409350203910,0.41120413,9.444528,1.7968484,-1.1770636,9.568801,1.79526381409350203923,-0.6206968,8.849568,0.50038815,-1.1313871,9.588554,1.71755221409350203942,-1.3491327,8.325836,-0.16998832,-1.0880494,9.61171,1.61295021409350203943,-2.0171149,7.629722,-0.55006784,-1.0409427,9.637254,1.48666541409350203956,-3.0214825,7.36636,-1.7220296,-0.98193425,9.664477,1.34316471409350203962,-4.0521865,8.337808,-2.4438813,-0.91104525,9.692654,1.1802031409350203974,-4.642956,10.644621,-2.1440077,-0.83173317,9.719364,1.00626391409350203991,-5.395334,14.283209,-1.1839328,-0.74379724,9.74146,0.849176471409350203992,-5.993285,18.631678,-0.8158242,-0.65561885,9.756825,0.738177541409350204009,-4.4023385,19.608511,-1.596334,-0.57430464,9.768264,0.649305051409350204010,-2.992752,19.608511,-1.7076644,-0.46080017,9.778138,0.5883091409350204024,-3.53863,17.912819,-0.17477672,-0.31829834,9.786557,0.5407191409350204039,-2.7030537,14.816517,2.0775685,-0.19733277,9.790195,0.53245151409350204042,-2.3235726,12.397775,4.2078094,-0.094285645,9.788417,0.59026721409350204057,-2.2439656,10.526707,5.201403,-0.006513109,9.781207,0.70593881409350204074,-2.6431987,9.278131,5.228338,0.06800525,9.771041,0.83217971409350204074,-3.7445314,7.5267715,4.642956,0.123036526,9.762106,0.92550741409350204092,-3.6391866,5.6682725,3.787627,0.15853651,9.758017,0.96247611409350204093,-2.2146366,6.645107,3.572149,0.2090102,9.758771,0.945032241409350204107,0.36870706,7.98167,2.4462755,0.30406007,9.760342,0.90202891409350204110,2.3062148,9.840768,1.7322049,0.43347478,9.760485,0.845827761409350204124,4.1282024,11.017518,0.65900403,0.6007559,9.757534,0.774607841409350204142,3.193865,9.953295,-0.25318682,0.7871704,9.7506275,0.68994511409350204143,2.7605145,8.470686,-1.1007342,0.9494209,9.74156,0.6090871409350204156,2.4809916,7.6746135,-0.5386954,1.0761318,9.732062,0.547065731409350204174,2.2493525,7.241862,0.22026655,1.1723782,9.7222595,0.52306881409350204175,1.9033904,6.754043,0.6326678,1.2580446,9.710651,0.53944241409350204191,1.5735891,6.4625487,0.7661445,1.339561,9.697182,0.58364631409350204192,1.210269,6.157288,0.7541735,1.4156569,9.682945,0.63787471409350204204,1.0546459,5.801151,0.7541735,1.4836597,9.66893,0.69350311409350204210,1.1079168,5.657499,1.0085574,1.5438496,9.655235,0.75057931409350204223,1.1025299,5.795165,1.1827357,1.5990101,9.641463,0.80979021409350204238,1.1091139,5.851429,1.2635399,1.6423045,9.629188,0.867178561409350204244,1.2856863,5.872977,1.2354081,1.6706125,9.619768,0.91625621409350204261,1.4969746,6.017826,1.1162965,1.6842642,9.613917,0.95195881409350204282,1.7597382,6.153697,1.0833763,1.6833136,9.612217,0.97064831409350204283,2.0566192,6.2327056,1.1444284,1.6669854,9.615006,0.97117851409350204285,2.256535,6.3141084,1.3413515,1.6344584,9.621912,0.957991061409350204291,3.256713,7.339425,1.7118542,1.5850527,9.632145,0.93797881409350204312,3.3243492,8.19236,2.3505075,1.5260404,9.643547,0.91848671409350204313,3.4410665,9.298481,2.8856115,1.4541394,9.655649,0.90793381409350204322,3.9893386,10.307637,3.2722752,1.373926,9.667623,0.90544371409350204348,3.5595794,10.213066,3.9067385,1.2982084,9.677361,0.91310911409350204351,3.3207579,9.55047,3.4572272,1.2217917,9.685559,0.93141231409350204352,1.0199299,10.974422,3.903746,1.1514009,9.692899,0.944654051409350204384,-1.049259,15.011644,4.018069,1.0696906,9.7005415,0.96211721409350204385,-1.590947,15.394118,2.2493525,0.9667974,9.708436,0.990935861409350204386,-0.96785605,14.780604,-0.3489549,0.88598174,9.714445,1.00746971409350204391,1.4676456,13.686454,-1.6849195,0.8658392,9.717778,0.992734431409350204414,4.24073,11.705252,-1.2964603,0.9188687,9.714821,0.97381411409350204415,7.076063,10.471041,0.83856916,1.0287757,9.702659,0.985101761409350204424,6.0860605,9.988011,6.326678,1.1929947,9.67958,1.026111409350204454,5.9681463,13.287221,8.611345,1.3623242,9.64726,1.11573891409350204455,5.0146556,17.870321,4.7429137,1.5415531,9.6064,1.22927421409350204456,2.4666264,17.71829,1.2270284,1.6999967,9.575262,1.26284491409350204476,-1.168969,14.717756,2.6084828,1.8027263,9.5612335,1.22612821409350204477,-2.4438813,12.215217,1.4012065,1.838644,9.555808,1.2150311409350204491,-2.2451627,9.821614,1.9416976,1.8432307,9.553367,1.22721421409350204492,-2.3732524,10.008362,1.1773487,1.831258,9.548282,1.28343651409350204508,-2.3373394,9.974244,-0.16400282,1.7884179,9.547403,1.34872111409350204531,-2.0685902,9.582792,-1.3748703,1.7277085,9.553439,1.38463251409350204532,-2.0638018,9.982624,-1.5777789,1.6663532,9.565229,1.37842131409350204533,-2.2667105,10.670957,-1.5508442,1.6080551,9.579859,1.34568111409350204566,-2.1583729,10.650007,-1.3623008,1.5511259,9.595278,1.30194131409350204567,-1.1049241,10.089166,-0.62249243,1.4955872,9.61039,1.25460491409350204568,0.029927522,9.743204,-0.3866636,1.443936,9.624293,1.20764451409350204572,0.46447513,9.675568,0.06703765,1.3898416,9.637994,1.16095461409350204602,0.6985083,9.864111,0.89543146,1.3272865,9.651508,1.12120591409350204602,0.84096336,10.079589,1.560421,1.2524256,9.664338,1.09654561409350204604,0.90141696,9.9790325,1.4760253,1.1666908,9.676428,1.08443131409350204633,0.6793547,9.850345,1.1845313,1.0763493,9.689105,1.06448571409350204634,0.415394,9.685743,0.9768343,0.98357,9.703254,1.02462081409350204635,0.031124622,9.329007,0.76075757,0.8864468,9.717933,0.97283031409350204645,-0.41479546,8.7951,0.48243165,0.78379285,9.731719,0.921782261409350204676,-0.7505822,8.109161,-0.026934769,0.67740494,9.743708,0.87844351409350204678,-0.7685388,7.5124063,-0.6410475,0.5730571,9.753813,0.839732941409350204680,-0.6799533,8.194754,-1.0265139,0.47963485,9.762351,0.79803021409350204704,-0.7009025,9.174581,-0.23882163,0.40516156,9.76924,0.75378191409350204705,-0.6865373,9.803059,0.599149,0.34805357,9.773659,0.7244571409350204706,-0.27712885,9.616311,0.98940384,0.29903498,9.775157,0.726143361409350204724,-0.35434186,9.138069,0.6889315,0.25003773,9.773702,0.76329911409350204728,-0.23104046,9.143456,0.28550854,0.18805128,9.770819,0.81618841409350204747,-0.45310268,8.89446,-0.1376666,0.10771818,9.768517,0.85727211409350204748,-0.4794389,8.428787,-0.42078096,0.007343495,9.767765,0.87241881409350204752,-0.4997896,7.797915,-0.6895301,-0.10218836,9.76689,0.876255631409350204784,0.32441434,7.6369047,-0.830788,-0.22451931,9.765437,0.869619551409350204786,1.359308,8.0367365,-0.4854244,-0.34355855,9.762294,0.86601711409350204788,1.7381904,8.546103,0.24959552,-0.44130582,9.757497,0.875721341409350204801,1.8716671,8.792108,1.0462662,-0.5165998,9.750645,0.91018131409350204826,1.8788497,8.843582,1.5634137,-0.5796555,9.7407255,0.97603351409350204828,1.8004397,8.667608,1.7106571,-0.63935065,9.727323,1.06810391409350204829,1.489792,8.549694,1.5837644,-0.7000268,9.711304,1.17086051409350204832,1.0169371,8.553286,1.2012907,-0.7664641,9.694075,1.26799991409350204857,0.79966336,8.582016,0.78290397,-0.84046733,9.676819,1.35025791409350204858,1.0630256,8.69993,0.5482722,-0.91715276,9.660507,1.41555831409350204875,1.543063,9.11712,0.79128367,-0.9889895,9.64513,1.47097221409350204875,1.6514006,9.400833,1.3814543,-1.0451413,9.632223,1.51603071409350204894,1.666963,9.56723,2.243367,-1.0865961,9.620234,1.56231251409350204895,1.2144588,9.455899,2.468422,-1.1180432,9.606989,1.62054191409350204908,0.8002619,9.297882,2.1158757,-1.1500427,9.591936,1.68598511409350204931,0.85532856,9.223063,1.4616601,-1.1869065,9.576113,1.74919761409350204932,1.9746178,9.3182335,0.4830302,-1.2244661,9.56211,1.7992041409350204933,2.813187,9.349358,0.12868834,-1.2516593,9.552934,1.8289931409350204944,3.2573113,9.648034,0.533907,-1.2685812,9.548197,1.84201791409350204965,2.1499932,9.865907,1.4909891,-1.2782044,9.545943,1.8470431409350204966,1.2467805,10.014946,2.2720973,-1.2947004,9.54183,1.85678231409350204972,0.5117606,10.219051,2.802413,-1.3170338,9.535065,1.87572551409350204997,-0.2088941,10.231621,3.031658,-1.3367671,9.527565,1.89972771409350204998,-0.47524905,10.174759,2.9592333,-1.3527918,9.523082,1.91082841409350205003,0.12569559,10.234613,2.7581203,-1.3586946,9.525274,1.89565071409350205030,1.1282675,10.652402,3.0508115,-1.340024,9.535809,1.85556071409350205031,1.6172832,11.086949,3.3955765,-1.2921722,9.552878,1.80088331409350205032,0.96665895,11.209054,2.6132712,-1.2294234,9.573498,1.73408891409350205061,-0.63087213,11.079168,1.2455834,-1.1731583,9.596177,1.64544081409350205063,-2.6420016,9.222465,-0.12689269,-1.1316788,9.620507,1.52825531409350205064,-3.804985,8.039131,-1.086369,-1.1029108,9.64538,1.385861409350205072,-4.5926776,7.902063,-2.4343045,-1.0774956,9.669363,1.22996441409350205097,-4.9146976,9.509171,-3.0621839,-1.0462191,9.693921,1.05058571409350205098,-5.4408236,12.663531,-2.3786395,-1.0037348,9.71773,0.85361591409350205103,-6.2099605,16.811485,-1.2204443,-0.9489046,9.737632,0.669709561409350205128,-6.3865333,19.562424,-0.6997054,-0.8864692,9.751535,0.54051911409350205129,-5.072715,19.608511,-0.9211691,-0.81054807,9.761101,0.484070061409350205132,-3.9414546,17.574638,0.20709845,-0.7003531,9.769685,0.482896921409350205162,-2.1045034,13.922283,2.6156654,-0.5775641,9.774905,0.53668171409350205163,-1.2162545,10.760739,4.8159366,-0.4503927,9.774735,0.649682041409350205164,-1.2318168,8.711902,6.241085,-0.33350614,9.767442,0.8100791409350205172,-2.1206641,7.851186,6.5523314,-0.23606136,9.754368,0.98335291409350205197,-2.9580362,7.838018,5.6359506,-0.15656112,9.7385,1.14347391409350205197,-3.289633,6.5804634,4.085107,-0.0983141,9.727112,1.24259531409350205204,-1.8339585,7.4345946,3.0292637,-0.04163389,9.7258625,1.25548581409350205223,-0.30286652,8.167819,2.3756466,0.045153074,9.73268,1.20137611409350205224,0.57400984,7.6081743,1.4413095,0.17389804,9.741902,1.11152971409350205240,1.5891514,8.220491,0.59735334,0.32416466,9.749667,1.00463651409350205254,3.9228995,11.012131,-0.44711718,0.47938475,9.753914,0.89540921409350205255,2.168548,9.059061,-1.0726024,0.6508078,9.753048,0.79051851409350205272,1.282095,7.7087307,-1.1833342,0.78334844,9.749376,0.71164141409350205273,1.1366472,6.906075,-0.3764882,0.8755329,9.744553,0.66895381409350205288,1.1079168,6.022016,0.13467385,0.9453285,9.739179,0.65204531409350205293,0.7727286,5.3019595,0.6607997,1.0123912,9.730812,0.67585521409350205304,0.9223662,5.2594624,1.1025299,1.0779067,9.720034,0.727632761409350205319,0.9995792,5.3803697,1.5622166,1.1432014,9.707436,0.793204961409350205324,1.0259154,5.4641666,1.7770962,1.2073519,9.693328,0.86721831409350205338,1.0366893,5.5042696,1.7890673,1.2672732,9.67861,0.94283911409350205355,1.2904748,5.8544216,1.8243817,1.317616,9.665014,1.0108291409350205356,1.5867572,6.295553,1.7824832,1.3571941,9.653651,1.06556641409350205371,1.809418,6.685808,1.6298528,1.3855151,9.645598,1.1014311409350205372,2.067393,6.882133,1.6693572,1.4001988,9.641882,1.11533091409350205386,2.2661119,7.0407486,1.7118542,1.3989296,9.642652,1.1102591409350205392,2.3648727,7.318476,1.7776948,1.3904037,9.645332,1.09761641409350205406,2.944868,7.901464,1.4502877,1.3656105,9.651293,1.07613171409350205420,3.2980127,8.624513,1.6675615,1.330352,9.659248,1.04856681409350205424,3.9917328,9.416395,2.72939,1.2863424,9.66774,1.02495561409350205449,4.032434,9.97604,3.2489316,1.2397853,9.674409,1.01938691409350205450,4.3885717,9.611523,3.139397,1.1898354,9.679994,1.02587221409350205452,3.66672,9.149442,2.5384524,1.1440672,9.685038,1.03030411409350205470,1.2234371,11.40059,3.1902738,1.0958962,9.691513,1.02174891409350205472,0.43155485,14.881161,3.132813,1.0286537,9.699508,1.01577511409350205489,0.43514615,14.141353,1.4514848,0.9542674,9.706214,1.02429221409350205492,1.7190368,12.983157,-0.29987377,0.91395086,9.709462,1.03027071409350205506,3.6589386,12.774263,-0.4225766,0.91184705,9.710374,1.02350781409350205521,5.457583,11.266515,1.0031705,0.9763088,9.704601,1.0187961409350205524,5.2385135,12.2798605,5.7903767,1.0901159,9.689921,1.04281391409350205542,3.323152,16.994043,7.53575,1.228651,9.664115,1.1250271409350205544,2.44448,19.608511,2.5169046,1.3566651,9.633862,1.2322991409350205552,-0.7098808,19.24639,0.040102877,1.4760596,9.61368,1.25253051409350205573,-2.6330233,15.887922,0.86131406,1.5410494,9.606332,1.2304281409350205574,-2.2541409,11.954847,-0.17836803,1.5662086,9.599244,1.25375571409350205589,-1.520318,9.61691,0.4345476,1.5823777,9.58663,1.32778761409350205613,-1.9991584,8.343194,2.633622,1.5795131,9.571974,1.43278181409350205614,-2.172738,7.5070195,2.767697,1.5412244,9.560651,1.54563371409350205616,-1.9339164,7.5602903,1.6136919,1.4943924,9.555013,1.62446941409350205649,-1.7489643,8.585009,0.80445176,1.4375364,9.55864,1.65417651409350205649,-1.6944963,9.646238,0.06703765,1.3823055,9.568713,1.64296711409350205650,-1.3910311,10.610503,-0.53330845,1.332365,9.581989,1.60644911409350205652,-0.79846627,11.001357,-0.7942764,1.2861364,9.5973835,1.55128251409350205696,-0.011971008,11.051635,-1.1390414,1.2379713,9.614403,1.48361121409350205698,0.2837129,11.269507,-1.2802993,1.1814662,9.6334915,1.40368841409350205699,0.06943185,11.234792,-0.741604,1.1097206,9.653863,1.31978851409350205701,-0.033518825,10.362703,0.047285482,1.0215932,9.672033,1.25638891409350205704,0.036511578,9.638457,0.5201403,0.92561543,9.685328,1.22802731409350205736,0.16340427,9.609727,0.99299514,0.8292474,9.695778,1.21435071409350205738,0.19393034,9.686341,1.3682863,0.7331102,9.7045355,1.20620191409350205740,0.005985504,9.4535055,1.3186066,0.63575447,9.713472,1.1894121409350205766,-0.3489549,8.807071,0.9283517,0.53526735,9.722332,1.16624751409350205767,-0.5793968,8.384495,0.35673606,0.43131703,9.730222,1.1433151409350205768,-0.74519527,8.22109,-0.24241292,0.3278392,9.736874,1.12080851409350205772,-1.0151415,8.104971,-0.56802434,0.22984958,9.74285,1.09288761409350205786,-1.1486182,8.457518,-0.45010993,0.14327048,9.748119,1.06020341409350205808,-1.0109516,9.108741,0.0712275,0.07178389,9.751862,1.03267721409350205809,-1.2210429,9.165603,0.4345476,0.012229002,9.753148,1.02290281409350205812,-1.1875241,8.59698,0.091578215,-0.050152272,9.751902,1.03357911409350205824,-1.3257892,8.306683,-0.19033903,-0.11573548,9.749794,1.04810041409350205839,-1.2539631,8.112154,-0.320823,-0.19613326,9.74728,1.05946581409350205857,-1.1641805,8.401853,-0.3441665,-0.29297778,9.745,1.05807821409350205858,-0.7769185,8.486847,-0.4961983,-0.4027794,9.7423,1.04679921409350205879,-0.0724246,8.444948,-0.427365,-0.5153656,9.738776,1.03006551409350205880,0.6027403,8.233061,-0.31423897,-0.6184405,9.734254,1.01599491409350205885,1.0480618,8.116942,0.033518825,-0.702125,9.728503,1.01668121409350205907,1.5460558,8.23366,0.6751649,-0.7678702,9.720768,1.04281751409350205908,1.9758149,8.284536,1.1665748,-0.81898516,9.710464,1.09842821409350205913,2.247557,8.391677,1.453879,-0.861113,9.697302,1.17949741409350205939,2.3594859,8.678383,1.5849615,-0.9005424,9.682373,1.269281409350205940,2.1440077,8.871116,1.5071499,-0.9401917,9.665744,1.36374971409350205964,1.9440918,8.869919,1.0187328,-0.9835041,9.64879,1.4505151409350205965,2.0165164,8.69155,0.45908818,-1.0325736,9.632942,1.52006731409350205966,2.219425,8.628703,0.2717419,-1.0817313,9.619402,1.57077981409350205973,2.409764,8.701726,0.43754035,-1.1244568,9.607786,1.6113441409350205997,2.421735,8.843582,1.0121487,-1.1559092,9.596652,1.65485171409350205998,2.0500352,9.215282,2.5971103,-1.1760172,9.584039,1.7127691409350206004,1.6412252,9.391256,2.695871,-1.1888337,9.567435,1.79478321409350206025,1.1797429,9.225458,2.3187842,-1.2005165,9.54884,1.88383691409350206026,1.5119383,9.127894,1.3377602,-1.2161237,9.530978,1.96262171409350206032,1.8716671,9.099762,0.7308301,-1.2338926,9.517167,2.01777961409350206058,1.9961656,9.509769,0.7422025,-1.2524561,9.506067,2.05825351409350206059,1.8273745,10.102933,1.0887632,-1.2723976,9.498558,2.08057361409350206064,1.5705963,10.3453455,1.0959458,-1.2941601,9.4933195,2.0910371409350206073,1.0181342,10.317214,1.1097125,-1.3171194,9.489257,2.09513121409350206092,0.6063316,10.512939,1.1216835,-1.3412678,9.485753,2.09568521409350206093,0.63087213,10.649409,1.2802993,-1.3614596,9.4845,2.0883131409350206107,1.0097545,10.531495,1.6986861,-1.3708628,9.487651,2.06774971409350206126,1.460463,10.258555,2.3289597,-1.3636454,9.496759,2.03038121409350206127,1.5346833,9.705495,2.5743654,-1.3344355,9.51052,1.98486451409350206133,1.1785458,9.22426,2.9520507,-1.2858427,9.526142,1.94154851409350206168,0.65062433,8.938153,3.2202013,-1.2339852,9.5409355,1.90216231409350206169,-0.36032736,8.214506,2.4253263,-1.1786649,9.556676,1.85770821409350206171,-1.7298107,7.111976,1.8010383,-1.1308218,9.575369,1.78995221409350206176,-2.9059622,6.177639,0.04369418,-1.0882,9.597275,1.69662511409350206203,-4.7800236,7.2245035,-1.0755951,-1.0411546,9.623735,1.57165371409350206204,-5.273229,10.231621,-1.417966,-0.993591,9.65296,1.41546481409350206207,-5.591658,14.423868,-0.54168814,-0.9360093,9.68237,1.24338211409350206227,-5.3396683,18.782513,0.27114335,-0.8652955,9.707227,1.09150931409350206228,-3.3530796,19.608511,-0.6871359,-0.77393216,9.726098,0.98715111409350206233,-2.5450363,19.608511,-1.6537948,-0.63119423,9.743934,0.90980541409350206260,-3.198055,19.562424,-0.9331401,-0.4707157,9.760086,0.83038411409350206261,-2.5486276,17.190369,0.80924016,-0.3288767,9.770911,0.76908821409350206265,-1.7154455,13.764266,3.163339,-0.20761998,9.774536,0.76533791409350206274,-1.4449008,11.060614,4.800973,-0.10133827,9.769965,0.84137721409350206296,-1.4981717,9.497798,5.479729,-0.012680764,9.759034,0.96513861409350206297,-2.7910407,8.191162,4.9661727,0.056232687,9.745813,1.08919571409350206304,-3.5643678,6.4858923,4.1425676,0.09914536,9.735933,1.17139411409350206322,-2.7694929,6.344036,3.7612908,0.1360847,9.732638,1.19484281409350206336,-1.1881226,7.6692266,3.6565444,0.2036787,9.733896,1.17481121409350206337,-0.04309563,7.9810715,3.0382419,0.32040256,9.73568,1.13324651409350206362,1.6436194,9.567828,2.492364,0.46758172,9.736237,1.07584581409350206364,2.7808652,10.647614,1.7471687,0.62791157,9.733903,1.01353531409350206365,1.5837644,10.269928,-0.43035775,0.7895409,9.728735,0.948013251409350206373,1.5861586,7.8853035,-0.4878186,0.9151859,9.724266,0.87832191409350206395,1.4137762,7.314286,-0.16759412,1.0077895,9.719156,0.83231421409350206396,1.1671734,6.618172,0.02873042,1.0798452,9.712972,0.81394031409350206406,1.2204443,5.8364654,0.22984336,1.1449356,9.704769,0.82279411409350206425,1.3311762,5.379771,0.427365,1.2064443,9.69491,0.850658241409350206427,1.2491747,5.1439424,0.6242881,1.2622778,9.684478,0.887670761409350206433,1.1725603,5.1385555,0.8948329,1.3104072,9.674208,0.92894091409350206459,1.1097125,5.2103815,1.1198878,1.3497709,9.664675,0.970872161409350206460,1.2120646,5.482722,1.2623428,1.3802514,9.656506,1.00856041409350206465,1.3239936,5.7347116,1.3269863,1.4063559,9.6492195,1.04169631409350206486,1.54845,5.931635,1.2850877,1.4217478,9.6446905,1.06253161409350206488,1.8507179,6.1979895,1.347337,1.4255595,9.643703,1.06638361409350206508,2.0266917,6.535572,1.4664485,1.4164146,9.646578,1.0524791409350206509,2.180519,6.843227,1.620276,1.3934592,9.652744,1.02626141409350206513,2.520496,7.264008,1.6938977,1.3557751,9.661348,0.99529351409350206538,2.8455088,7.885902,1.8070238,1.3046145,9.671469,0.964915341409350206539,3.3387144,8.902241,1.7651252,1.2419866,9.68204,0.941256761409350206555,3.5021186,9.838972,2.0620062,1.1748573,9.691857,0.92628951409350206556,3.793014,10.040085,2.3678656,1.1048853,9.700505,0.921872261409350206565,2.9622262,9.001001,2.4911668,1.0387751,9.707678,0.92321611409350206585,1.2521675,10.189722,3.1226375,0.96823215,9.714311,0.93012631409350206586,-1.0378864,13.828909,3.8552632,0.8914342,9.7202635,0.94456871409350206605,-1.0133458,14.636952,2.1906946,0.7919375,9.725823,0.975496351409350206625,-0.047884032,14.018051,-0.30346507,0.70959777,9.729852,0.998438241409350206626,1.9967642,12.920309,-2.1134815,0.68299365,9.732581,0.990332071409350206627,4.2419267,10.833763,-1.9758149,0.729984,9.7328825,0.95317581409350206633,6.8462195,9.4774475,0.24600422,0.8315891,9.727415,0.925329741409350206660,6.009446,9.710283,5.197213,0.9805641,9.713391,0.92677471409350206661,5.4701524,14.473548,8.829816,1.1406056,9.691018,0.976522151409350206666,5.0403934,19.462465,6.8186865,1.3080665,9.658889,1.07945421409350206694,2.9735985,19.40261,2.3828292,1.4624892,9.628296,1.15214471409350206695,-0.3286042,17.085024,1.6232687,1.5670246,9.6103945,1.16411451409350206702,-2.5689783,13.622409,0.39444473,1.6070185,9.60161,1.18192961409350206735,-2.2750902,11.646594,-1.602918,1.6120594,9.597324,1.20955351409350206736,-2.2667105,10.533889,0.2148796,1.6027848,9.592324,1.2604631409350206737,-2.0602105,10.247782,1.5071499,1.5642533,9.586104,1.3528141409350206740,-1.804031,9.727641,1.4682442,1.4987773,9.582387,1.44980491409350206756,-1.6328455,8.3868885,0.8415619,1.4256812,9.582411,1.52157771409350206757,-1.7782934,8.776545,0.33877954,1.359636,9.585437,1.56243571409350206765,-1.9183542,9.219472,-0.092775315,1.3011885,9.591708,1.57367091409350206787,-1.5933412,9.395446,-0.3764882,1.2511419,9.601111,1.55682031409350206788,-0.8122329,9.482236,-0.3250129,1.2059709,9.611871,1.52576051409350206807,-0.09756372,9.679159,-0.16519992,1.1587137,9.624945,1.47926531409350206808,0.34117374,9.989806,0.25438392,1.1031767,9.639258,1.42763281409350206814,0.38367084,10.204686,0.6841431,1.0368005,9.65312,1.3830081409350206839,0.22864626,9.925761,0.9355343,0.9609499,9.665337,1.35213711409350206840,-0.21188685,9.537302,0.9103952,0.88093764,9.675847,1.33129191409350206846,-0.5363012,9.668983,1.0313023,0.7991081,9.686549,1.30483351409350206853,-0.57879823,9.861717,1.2282255,0.71346045,9.698763,1.26307991409350206867,-0.78649527,9.703699,1.0773908,0.6248552,9.710964,1.21537771409350206883,-0.9379285,9.268554,0.47046062,0.53244394,9.721484,1.17458151409350206906,-1.0833763,8.765172,-0.3238158,0.43913582,9.730637,1.13678631409350206907,-1.1534066,8.453926,-0.7044938,0.34605786,9.738373,1.1021471409350206909,-1.1300632,9.0716305,-0.50637364,0.26120472,9.745048,1.06593241409350206914,-1.1528081,9.934141,-0.026934769,0.1894396,9.750056,1.03484341409350206940,-1.2210429,10.289082,0.4357447,0.1306994,9.752182,1.02384271409350206941,-1.2779051,8.573038,0.5674258,0.075501375,9.75076,1.04276721409350206947,-1.4036007,8.028955,0.34955344,0.014360242,9.746436,1.08497851409350206953,-1.460463,7.827842,0.2813187,-0.06350538,9.741641,1.12551451409350206967,-1.0989386,7.833828,0.31304187,-0.16074294,9.738084,1.14642811409350206983,-0.76195467,8.113351,0.16819267,-0.2738469,9.735577,1.14627371409350206985,-0.3441665,8.027759,-0.2825158,-0.39634678,9.732954,1.13265551409350207005,0.47465047,8.01878,-0.29388827,-0.5174594,9.729318,1.11490771409350207008,0.8571242,7.958925,0.11552023,-0.6261901,9.724332,1.10256431409350207014,1.0576386,8.19236,0.6123171,-0.71577746,9.71736,1.10950391409350207040,1.050456,8.336611,1.0253168,-0.7854133,9.70769,1.14642051409350207042,1.2024878,8.207922,1.3144168,-0.8443618,9.694351,1.21532151409350207045,1.3545196,8.043321,1.2737153,-0.89949185,9.677613,1.30579851409350207055,1.3479356,7.797915,1.0378864,-0.95536643,9.659111,1.39973121409350207072,1.2372037,7.747637,0.85173726,-1.0135634,9.641081,1.48075531409350207073,1.4036007,7.8266454,0.6338649,-1.0744171,9.624961,1.54147951409350207085,1.7363948,8.145074,0.5069722,-1.1317303,9.611797,1.58206991409350207105,1.87047,8.536526,0.62847793,-1.1782546,9.601704,1.60915721409350207106,1.797447,8.92319,0.8655039,-1.2169441,9.592755,1.63355641409350207114,1.590947,9.272144,1.1354501,-1.2457165,9.5844145,1.66059861409350207139,1.0426749,9.664794,2.0931308,-1.2684678,9.575096,1.69674671409350207140,0.57999533,9.551667,2.3056161,-1.2922641,9.562945,1.74657191409350207146,0.350152,9.51755,2.0368671,-1.3213301,9.54882,1.80125511409350207171,0.5907693,9.634268,1.5717934,-1.3541048,9.534226,1.85346521409350207174,1.2144588,9.745598,0.8924387,-1.3835984,9.522026,1.89396081409350207175,1.8632874,9.85633,0.65780693,-1.4032412,9.514435,1.91750481409350207206,2.1577742,10.094553,1.0259154,-1.4122084,9.510764,1.92909821409350207207,2.0398598,10.128671,1.5939398,-1.4156137,9.508709,1.93671631409350207209,1.7112557,10.101735,1.8728642,-1.4184932,9.506196,1.94692791409350207214,1.2485762,10.181941,1.8471266,-1.4230434,9.503088,1.95874291409350207248,0.7254431,10.237606,2.0153193,-1.4220853,9.501953,1.96493111409350207250,0.712275,10.23222,2.4390929,-1.4132342,9.504939,1.95685721409350207251,0.9175778,10.007763,2.690484,-1.3911809,9.512919,1.93375221409350207255,0.98581254,9.610924,2.2212207,-1.3511889,9.525462,1.90007381409350207290,0.92535895,9.306262,2.1266496,-1.2932537,9.542641,1.85362411409350207295,0.44232875,8.952518,2.070386,-1.2240193,9.563806,1.79047421409350207298,-0.6572084,8.06427,1.3934253,-1.1543533,9.587546,1.70787191409350207299,-1.7244238,7.0305734,0.9020155,-1.0876533,9.613021,1.60537061409350207318,-2.818574,6.657676,0.40880993,-1.0171312,9.639885,1.48608431409350207318,-4.817134,9.52174,-0.6757634,-0.947472,9.666031,1.35665771409350207347,-5.241506,12.593501,-0.32441434,-0.88676935,9.691692,1.20628251409350207349,-5.2846017,16.650476,-0.05686229,-0.82088125,9.714191,1.06350081409350207351,-3.5051112,19.5313,-0.7062895,-0.7428375,9.732774,0.944285751409350207376,-1.9680338,19.608511,-0.98102415,-0.61707926,9.750964,0.841616871409350207377,-2.4540567,19.608511,-0.1352724,-0.44861358,9.767448,0.752378461409350207378,-2.2589293,18.75079,1.0055647,-0.29193428,9.778168,0.68746091409350207386,-1.4957775,15.683218,2.5779567,-0.16317609,9.782073,0.67441551409350207411,-1.2473791,12.756906,3.6110547,-0.052855976,9.779349,0.72932021409350207413,-1.3305776,10.284892,4.197634,0.039121028,9.772061,0.82199681409350207415,-1.91596,8.917204,4.5118732,0.10842436,9.763361,0.914008141409350207441,-2.420538,7.793725,4.064756,0.16244492,9.754619,0.995690941409350207443,-2.4911668,6.279991,3.590704,0.20460488,9.749237,1.03967391409350207446,-0.99658644,7.85777,3.7475243,0.2599961,9.747859,1.04020931409350207466,0.38845924,8.474875,3.4201171,0.35338253,9.747375,1.01694721409350207466,1.0103531,8.279748,2.6312277,0.48941243,9.7454815,0.977994561409350207481,2.1745336,8.837597,1.7932571,0.640478,9.742044,0.92345631409350207497,2.9777884,9.43495,0.9935937,0.7893733,9.736473,0.865087751409350207498,2.2463598,8.262989,-0.08200141,0.9302736,9.728135,0.8175551409350207515,1.6753427,6.907272,-0.28191724,1.0432272,9.718951,0.78997961409350207516,1.5071499,6.375759,-0.050876785,1.1326933,9.708906,0.79029291409350207530,1.4520833,6.1620765,0.2220622,1.2123725,9.698102,0.80459851409350207534,1.2006922,6.3284736,0.50876784,1.2904536,9.6851,0.839020971409350207547,1.1599907,6.401497,0.51116204,1.3649697,9.6708355,0.884424871409350207563,0.90141696,6.117185,0.7170634,1.4376717,9.656062,0.92950031409350207565,0.6476316,5.9639564,0.97025025,1.5036587,9.641912,0.971039351409350207580,0.6584055,5.931036,1.2659341,1.5568933,9.629686,1.00779521409350207585,0.943914,6.2728086,1.4999673,1.5961546,9.620198,1.03657771409350207605,1.192911,6.670246,1.4329298,1.6249793,9.613405,1.05464231409350207609,1.4999673,6.8324533,1.1707647,1.6440976,9.609882,1.05712191409350207615,1.7477672,6.8587894,0.9235633,1.6515802,9.610415,1.04047941409350207645,2.0248961,6.9360023,0.8559271,1.6431785,9.615437,1.00685071409350207647,2.235586,7.150882,0.83737206,1.6270801,9.62219,0.96771751409350207648,2.5420437,7.477092,0.8924387,1.5948699,9.63189,0.92383981409350207678,2.9873652,8.066664,1.0684125,1.547569,9.643363,0.88373341409350207679,3.3452983,8.911818,1.5263035,1.4878318,9.655494,0.85333421409350207680,4.018069,10.140641,1.9494787,1.417759,9.667207,0.83992291409350207704,3.90614,10.718243,3.1435869,1.3469466,9.67688,0.84507081409350207706,3.9773676,9.951499,2.996942,1.2734101,9.684466,0.87174891409350207706,3.1304188,9.51336,2.6982653,1.2031226,9.690854,0.9001381409350207714,0.3513491,11.993753,3.8420951,1.1337163,9.696917,0.92460611409350207740,-0.61650693,14.124593,3.4320881,1.0456725,9.703017,0.963553971409350207743,-0.58657944,13.974956,2.0949266,0.9572654,9.707783,1.00647371409350207746,0.47225627,13.122021,0.008978256,0.8873589,9.711495,1.03432731409350207774,2.9179332,11.742961,-1.5089456,0.8803615,9.71242,1.03161451409350207775,5.058948,10.700286,-0.41299978,0.93866,9.70879,1.01426181409350207776,5.6784477,10.679935,3.7445314,1.0384961,9.698049,1.0197061409350207806,5.2810106,13.830705,7.2550297,1.162852,9.677966,1.07477451409350207808,5.301361,19.179352,5.181651,1.3025464,9.648759,1.17269651409350207809,2.5145104,19.148825,1.7328035,1.4457113,9.621734,1.22579681409350207814,-0.32142156,15.98369,1.9865888,1.5323249,9.610268,1.21043731409350207840,-2.966416,12.524069,1.9524715,1.5618482,9.606456,1.20293621409350207842,-2.9460652,10.816404,-0.11731588,1.5524513,9.605125,1.22550391409350207847,-2.6126726,9.733627,1.0319009,1.5328959,9.602989,1.26619141409350207867,-2.6366146,9.196728,1.513734,1.5108228,9.59814,1.32797471409350207868,-2.5492263,9.156625,0.19752164,1.4743147,9.595052,1.38988321409350207881,-1.8291701,9.021352,-1.1575965,1.4284955,9.597915,1.417691409350207897,-1.6795325,9.992201,-1.2814964,1.3892951,9.604886,1.4094111409350207897,-1.5448587,10.651205,-1.2731167,1.3507304,9.614188,1.38321551409350207912,-0.89543146,10.737396,-0.7870938,1.3060936,9.62573,1.34530171409350207914,0.048482586,10.88464,-0.39324763,1.2520158,9.639034,1.30071441409350207931,0.5710171,10.764331,0.08619126,1.1912222,9.653042,1.253071409350207934,0.48003745,10.007763,0.6452374,1.1253213,9.665923,1.21407831409350207948,0.49799395,9.474455,1.0151415,1.0499324,9.676951,1.19358791409350207964,0.39205053,9.31105,1.0965444,0.9687154,9.686723,1.18295961409350207981,0.016759412,9.464279,1.0193313,0.8785915,9.69652,1.17303311409350207982,-0.31423897,9.539098,1.0474633,0.78032094,9.7077465,1.14940741409350207997,-0.7194576,9.437943,0.8750807,0.67587084,9.719643,1.11450671409350207997,-1.2779051,8.827422,0.3681085,0.56493765,9.730429,1.08167061409350208014,-1.7316064,8.20433,-0.36152446,0.45051983,9.738665,1.06106911409350208015,-1.9919758,7.702147,-1.0229226,0.3357517,9.744689,1.04818511409350208030,-2.1122844,7.45315,-1.2892777,0.22773777,9.749481,1.03252981409350208034,-2.2571337,7.864354,-0.78529817,0.13484176,9.753237,1.01320031409350208050,-1.9500773,8.896255,0.2908955,0.061626583,9.755094,1.00238371409350208063,-1.3664906,9.704298,1.0642227,0.005527093,9.753896,1.01581671409350208066,-0.41299978,9.094376,0.30406362,-0.041859366,9.7506695,1.04551331409350208080,0.15382746,8.80767,-0.10055647,-0.084636144,9.746034,1.085391409350208098,-0.18255788,8.585608,-0.11851298,-0.13769808,9.741833,1.11720491409350208099,-0.7787141,8.59279,-0.15143326,-0.21406478,9.739064,1.12924491409350208113,0.08020575,9.072827,-0.22984336,-0.3151305,9.737031,1.12307581409350208114,1.0528502,9.063849,-0.3824737,-0.4245664,9.7343855,1.10989251409350208132,1.6250644,9.185953,-0.23702596,-0.5230265,9.730591,1.10110311409350208136,1.8471266,9.287108,0.21787235,-0.6022517,9.725578,1.104911409350208159,1.9387048,9.581595,0.83258367,-0.66476697,9.718488,1.13113341409350208160,1.8327614,9.431359,1.3587095,-0.71418166,9.707949,1.18998781409350208166,1.6543933,9.085996,1.6130934,-0.75732017,9.693072,1.28110251409350208187,1.5891514,8.352771,1.5939398,-0.8020003,9.6753,1.38411221409350208188,1.496376,7.6590514,1.2539631,-0.8506759,9.654498,1.4957951409350208195,1.7543513,7.316082,0.8319851,-0.9079764,9.632962,1.59750591409350208216,2.2876596,7.3753386,0.6548142,-0.97109324,9.61304,1.67834711409350208217,2.6102784,7.7949224,0.7368156,-1.0314865,9.596262,1.73729261409350208230,2.6569653,8.191761,0.9475053,-1.0814954,9.583091,1.7790791409350208251,2.705448,8.513183,1.2916719,-1.1208531,9.571932,1.814451409350208251,2.6599581,8.78672,1.869273,-1.1513958,9.560618,1.8545221409350208255,1.6753427,9.004593,3.0484173,-1.1778047,9.547469,1.90498781409350208285,0.9768343,8.746617,2.6797101,-1.2120692,9.530057,1.96959571409350208286,0.8170213,8.74961,1.9512744,-1.2559558,9.511069,2.0328621409350208287,1.5292963,9.105747,1.3269863,-1.3018202,9.492743,2.0888991409350208295,2.3403323,9.398438,0.9696517,-1.3421454,9.478196,2.12904861409350208317,2.3660698,9.635465,1.3275849,-1.3736471,9.468698,2.15110781409350208318,1.4377182,9.952697,2.0147207,-1.4014692,9.462297,2.16129541409350208330,0.2873042,10.17416,2.267309,-1.4341371,9.456209,2.16651181409350208361,-0.89303726,10.186729,2.7730842,-1.4716868,9.449896,2.16886781409350208362,-1.8980033,10.122087,2.9993362,-1.511212,9.443982,2.16744881409350208363,-2.082357,9.871294,2.292448,-1.5454427,9.441472,2.1542071409350208367,-1.1450269,10.1304655,2.0045455,-1.556442,9.447143,2.12117551409350208387,0.24600422,10.636241,2.9801826,-1.5307553,9.462574,2.07047251409350208390,0.676362,10.815806,2.885013,-1.4803292,9.48142,2.02031681409350208395,-0.38067806,10.213066,1.3988123,-1.4105115,9.505801,1.95463841409350208411,-1.3329718,9.421184,-0.04129998,-1.3442355,9.534666,1.85837691409350208415,-2.167351,8.41921,-0.62608373,-1.2787609,9.568701,1.72485861409350208429,-2.7527335,8.01878,-1.5125369,-1.2108567,9.605219,1.5633261409350208452,-3.5877113,8.908825,-2.2720973,-1.1364396,9.641995,1.38231721409350208453,-5.876568,14.931438,-1.2348095,-1.0566127,9.6761875,1.19388481409350208455,-6.717531,18.926764,-0.97264445,-0.9943598,9.70308,1.01582311409350208467,-5.6551046,19.608511,-1.910573,-0.9344309,9.72262,0.87629831409350208484,-4.7638626,19.56003,-1.5652094,-0.8397038,9.739819,0.77538881409350208486,-3.4320881,17.226282,0.6931214,-0.72277683,9.753397,0.72059861409350208495,-1.733402,13.740324,3.2345665,-0.5878793,9.762114,0.72519761409350208523,-0.7134721,11.234193,5.0763063,-0.45548007,9.762922,0.80515381409350208524,-0.830788,9.408614,6.079477,-0.32719243,9.755333,0.947006171409350208527,-1.0977415,8.661623,6.3823433,-0.21120916,9.741748,1.10641811409350208553,-2.586935,7.6728177,5.6509147,-0.116113596,9.727082,1.2412831409350208554,-2.7210102,6.375759,4.613028,-0.052858315,9.717587,1.3176031409350208555,-1.5263035,6.9904704,3.8971617,0.003401479,9.716991,1.32305131409350208567,-0.32022446,8.067263,3.1914709,0.08462679,9.722805,1.27682961409350208581,1.0839748,8.717887,1.982399,0.20271242,9.730898,1.19954761409350208598,1.3754689,8.913613,0.8170213,0.343162,9.738823,1.09907421409350208599,3.1603463,11.060614,-0.10654198,0.48357275,9.744793,0.98770231409350208614,2.6701334,10.632649,-0.9020155,0.63099855,9.747478,0.871143941409350208615,1.5155296,8.932168,-1.8261774,0.757659,9.74687,0.771306461409350208629,1.0570401,7.347805,-1.5436616,0.84805256,9.744583,0.70307291409350208645,0.80684596,5.436035,0.28311434,0.9185177,9.73973,0.681466041409350208646,1.1791444,4.9901147,0.66858083,0.9863705,9.730918,0.71184361409350208665,1.1210849,4.821324,0.92655605,1.0583398,9.71883,0.77114861409350208671,1.0971429,5.173271,1.2521675,1.1325753,9.70453,0.8424791409350208685,1.2389994,5.683835,1.5622166,1.2051466,9.689061,0.916585271409350208689,1.417966,6.1596823,1.8507179,1.2715831,9.673592,0.987462041409350208698,1.395221,6.463746,1.8950106,1.329041,9.659319,1.04958571409350208709,1.2982559,6.609792,1.8926164,1.3797839,9.646045,1.10473641409350208715,1.2898762,6.695385,1.7543513,1.4142259,9.636261,1.1457881409350208733,1.3940239,6.7522473,1.4449008,1.431144,9.63073,1.17099961409350208735,1.6956934,7.015011,1.2425907,1.4315841,9.62952,1.18037881409350208748,1.9602526,7.1820064,1.1671734,1.4175591,9.63223,1.17521409350208768,2.223615,7.2867527,1.4089876,1.3896521,9.638255,1.1590111409350208769,2.6210523,7.5920134,1.6849195,1.3478056,9.646487,1.13977971409350208775,3.0113072,8.1959505,1.9722236,1.2932208,9.655963,1.12265441409350208803,3.1675289,9.064447,2.167351,1.2280707,9.666026,1.10912681409350208805,3.7373488,10.34355,2.4061728,1.1538401,9.676407,1.09825411409350208808,3.41473,10.717644,3.25372,1.0821506,9.685454,1.09147661409350208816,3.1621418,10.395624,3.6086605,1.0096475,9.6931,1.09307931409350208837,0.20231004,12.37084,3.7187939,0.93693364,9.699557,1.10052141409350208839,-0.7541735,14.912884,2.212841,0.84161246,9.707424,1.108151409350208847,-0.7990648,14.708179,0.14903906,0.74166596,9.716163,1.1029631409350208868,0.6422446,13.727156,-1.8417397,0.6683974,9.72428,1.07798351409350208869,3.1316159,12.5982895,-2.0937295,0.6619493,9.729846,1.03068521409350208875,5.159505,11.060614,-0.030526072,0.72741085,9.728916,0.994705441409350208905,5.5000796,11.356895,4.959589,0.8410276,9.718725,1.00471541409350208906,4.995502,15.911266,7.856573,0.9832426,9.697671,1.07647421409350208909,4.4759603,19.608511,5.0942626,1.1410567,9.667424,1.18714461409350208917,1.2509704,19.41039,1.6118963,1.293389,9.641106,1.24362241409350208937,-2.4331074,16.152481,1.0720038,1.3909552,9.627735,1.24192021409350208938,-3.3093853,12.455834,-0.10354923,1.4297909,9.622382,1.23929051409350208947,-2.3870192,10.217256,-1.13964,1.4473218,9.617062,1.2600651409350208964,-2.2331917,8.339603,0.9391256,1.4562707,9.607131,1.32389411409350208979,-2.2469583,7.6650367,2.2038627,1.4438041,9.594845,1.42294731409350208980,-2.3600843,7.619547,1.4383167,1.4057384,9.586827,1.51230431409350208996,-1.9662381,7.417237,0.8900445,1.3533916,9.58672,1.55996971409350208997,-1.6005238,7.767389,0.47105917,1.3041924,9.591625,1.571691409350209010,-1.8770541,8.847773,0.42676646,1.2668366,9.5984535,1.56052331409350209016,-1.453879,10.44231,-0.31543607,1.2315791,9.60761,1.5321361409350209028,-0.38965634,10.655993,-0.49440265,1.193821,9.619449,1.48706761409350209045,0.14065935,10.872668,-0.48961425,1.151102,9.63366,1.42757081409350209063,-0.089184016,10.511144,-0.12030864,1.097225,9.649347,1.36256331409350209063,-0.35434186,9.691729,0.42437226,1.0288955,9.664057,1.31064251409350209077,-0.29388827,8.95611,0.4854244,0.9471416,9.675576,1.28707681409350209078,-0.4938041,8.875904,0.74758947,0.85736305,9.68473,1.28114221409350209093,-0.80205756,9.090784,1.0923545,0.7624141,9.694127,1.27004981409350209095,-1.2012907,9.135675,1.1546037,0.6608835,9.705061,1.24315361409350209110,-1.4107834,8.770559,0.86251116,0.55167025,9.716162,1.20923321409350209134,-1.3102269,8.556278,0.2789245,0.43907312,9.72581,1.17737211409350209136,-1.0857705,8.524555,-0.44711718,0.3307583,9.733765,1.14666431409350209137,-0.9403227,8.542512,-0.8230068,0.228424,9.740847,1.1109121409350209149,-0.8487445,8.945336,-0.5410896,0.14158553,9.747389,1.06712071409350209166,-0.7577648,9.644443,0.14903906,0.07397797,9.752961,1.02208791409350209169,-0.87089086,10.174759,0.6332663,0.023912499,9.756265,0.99252871409350209175,-0.6847417,10.087969,0.75956047,-0.020221535,9.75647,0.990600941409350209200,-0.7194576,9.247005,0.320823,-0.06721651,9.753823,1.01430031409350209201,-0.85891986,8.370728,-0.004189853,-0.12703414,9.750203,1.04297071409350209207,-0.6721721,8.820838,0.5081693,-0.20348434,9.747076,1.05996441409350209234,-0.25378537,9.116522,0.42197806,-0.2909755,9.744334,1.06473711409350209235,0.46088383,9.064447,0.25797522,-0.38314155,9.741792,1.05882231409350209237,1.2174516,9.1668,0.2789245,-0.4746778,9.738657,1.05053381409350209247,1.4826094,9.003395,0.32800564,-0.5584479,9.734637,1.04659881409350209267,1.6041151,8.775348,0.8002619,-0.6336151,9.728938,1.05673091409350209270,1.6639702,8.568848,1.7357962,-0.69937456,9.720384,1.09334061409350209289,1.5933412,8.375516,2.2619221,-0.7576293,9.707378,1.1675551409350209307,1.389834,8.087613,2.2774844,-0.811984,9.689562,1.27414671409350209308,0.79607207,7.519589,1.7351977,-0.86983275,9.667843,1.39520231409350209309,0.4321534,7.207744,0.9816227,-0.9412,9.644573,1.50558051409350209328,0.47644615,7.422025,0.33159694,-1.0272641,9.622322,1.58934721409350209329,0.87807345,7.924209,0.01316811,-1.1191843,9.603241,1.6418251409350209349,1.4341269,8.456321,0.19153613,-1.2045068,9.587805,1.67139651409350209350,1.9189527,8.742428,0.6039374,-1.2784126,9.573795,1.69661691409350209356,2.2703018,8.781932,1.323395,-1.3372034,9.560844,1.72410811409350209382,2.3020248,8.759187,2.106299,-1.3837283,9.547404,1.76147481409350209383,1.8728642,8.843582,2.5234885,-1.4209371,9.533109,1.80863341409350209387,1.4407109,9.239224,1.5406688,-1.4514743,9.518482,1.8606771409350209396,2.304419,9.726444,0.56084174,-1.4771323,9.506232,1.90263811409350209418,3.1148565,9.838972,0.39264908,-1.489773,9.498766,1.92987971409350209421,2.9694088,10.229825,1.1402385,-1.4945326,9.494661,1.94631991409350209427,2.1362264,10.592546,1.816002,-1.4987643,9.491608,1.95793091409350209449,1.299453,10.682329,2.2050598,-1.5062469,9.487549,1.97180751409350209450,0.5243302,10.769718,2.2900538,-1.513649,9.481772,1.99380121409350209455,0.12270284,10.734404,2.6090813,-1.5240616,9.475164,2.01714871409350209481,0.08319851,10.315418,2.6868927,-1.5262839,9.470267,2.03835991409350209482,0.3890578,9.739613,2.4546554,-1.5172204,9.470818,2.04256081409350209487,0.5033809,9.43495,2.0189106,-1.4898074,9.479588,2.02195431409350209496,0.49919105,9.226655,2.1260512,-1.4394051,9.496813,1.97713421409350209510,0.24420857,8.879496,2.1027076,-1.3715893,9.5191965,1.916781409350209531,-0.5518635,8.101978,1.2868834,-1.2997544,9.544356,1.84019061409350209533,-1.8351556,6.9000893,0.6548142,-1.2325225,9.571684,1.74188281409350209536,-3.1184478,6.084265,-0.004788403,-1.1673731,9.600828,1.6222611409350209573,-3.9875429,6.8025255,-0.6937199,-1.0987527,9.632237,1.47755041409350209575,-5.0763063,9.150639,-0.48243165,-1.029505,9.663042,1.31762461409350209577,-6.139332,12.946047,0.42078096,-0.9576231,9.69151,1.15238671409350209578,-5.94181,17.82962,0.16699557,-0.8853216,9.713314,1.01889771409350209601,-3.74513,19.608511,-0.9367314,-0.7986743,9.731051,0.91606211409350209602,-3.645172,19.601929,-0.23882163,-0.65995884,9.749996,0.820015251409350209608,-3.283049,17.80508,1.0426749,-0.517676,9.76464,0.74443891409350209629,-2.271499,14.228142,2.6821043,-0.39022374,9.772579,0.717511409350209630,-1.4790181,11.320983,3.9211037,-0.27950373,9.77265,0.76655021409350209645,-1.0642227,9.510966,4.6297874,-0.18269926,9.766388,0.868735131409350209686,-2.8491,7.992444,4.5022964,-0.09974387,9.757119,0.979327261409350209686,-3.2369606,6.9707184,4.0683475,-0.04359949,9.749501,1.05627731409350209688,-1.6657659,9.003994,3.9683893,0.006286351,9.744276,1.10427521409350209688,-0.045489833,9.450513,3.4757824,0.08269208,9.743577,1.10736861409350209689,1.3634979,9.266159,2.906561,0.21738355,9.74498,1.07633451409350209696,2.5809495,10.053253,2.5354595,0.39296874,9.745362,1.02172671409350209720,3.0819361,10.414179,1.7956513,0.57707727,9.742654,0.958168151409350209721,2.52289,9.7240505,0.5057751,0.7463655,9.736988,0.89689161409350209728,1.401805,7.93618,-0.46447513,0.87839615,9.7308035,0.84278591409350209756,1.3251907,7.3166804,-0.51116204,0.9708,9.725223,0.80499071409350209758,0.75237787,6.5002575,-0.18495208,1.045396,9.718242,0.79580381409350209759,0.18435353,5.437232,0.10115502,1.1131252,9.708703,0.82003221409350209791,0.4141969,4.855441,0.6404489,1.1763461,9.697099,0.86769471409350209792,0.48123455,5.055357,0.7218518,1.2405497,9.683855,0.92432141409350209793,0.59735334,5.191228,0.7906851,1.305666,9.668964,0.98831841409350209797,0.6889315,5.285799,0.96426475,1.3688167,9.653253,1.05425011409350209817,0.82719666,5.3648076,1.2384008,1.4238746,9.6382475,1.11676941409350209819,0.9648633,5.490503,1.2725182,1.4681137,9.625103,1.17149411409350209829,1.2060791,5.871181,1.2042835,1.4993,9.61518,1.21277191409350209852,1.4395138,6.190807,1.1432313,1.5170567,9.609352,1.23664141409350209853,1.5795746,6.344036,1.1976994,1.5211442,9.608121,1.24117091409350209856,1.7441759,6.5385647,1.1659763,1.509682,9.611346,1.23015441409350209880,2.12246,6.896498,1.1881226,1.4828936,9.618272,1.2084231409350209881,2.2972364,7.328053,1.4383167,1.4504632,9.626351,1.18318991409350209905,2.8000188,8.00621,1.7106571,1.4038755,9.636527,1.1562271409350209906,2.8622682,8.768166,2.4947581,1.34678,9.647428,1.13302391409350209908,2.9299042,9.6845455,3.180697,1.2800869,9.658021,1.12001471409350209939,2.926313,10.269928,3.6780925,1.2098298,9.667665,1.1148851409350209940,2.9652188,10.172364,3.341707,1.144102,9.676036,1.11165191409350209941,1.6334441,10.462662,3.1812954,1.0871487,9.6840105,1.09928691409350209970,-0.427365,14.320917,4.032434,1.0230637,9.692658,1.08448621409350209971,0.5907693,15.763424,0.6787562,0.9364897,9.699478,1.10158241409350209972,2.4666264,15.094843,-1.3132197,0.8938087,9.703903,1.09806591409350209976,4.9458222,13.663709,-1.6849195,0.9272155,9.70335,1.07501941409350210005,6.593033,11.435306,0.54527944,1.009576,9.697105,1.05701081409350210006,6.5020533,9.615114,4.1401734,1.1394867,9.679674,1.08437171409350210010,5.9771247,10.729016,7.505822,1.2859572,9.651705,1.16675071409350210035,4.1641154,15.945383,8.419808,1.4450948,9.613667,1.28822371409350210036,2.9939492,18.335396,4.4167037,1.5805118,9.57584,1.40558821409350210038,0.17776948,16.852785,2.4791958,1.6760086,9.554598,1.4391141409350210067,-2.7886465,14.360422,2.7204118,1.7090364,9.547543,1.44707231409350210068,-3.502717,11.756129,-0.75118077,1.6946089,9.5477085,1.4628561409350210069,-3.383007,9.944317,-1.2838906,1.667233,9.5531645,1.45869961409350210076,-3.8600516,9.276933,-5.99E-04,1.6182436,9.559581,1.47176651409350210101,-3.7966053,9.929952,-0.108337626,1.5302243,9.569585,1.50061621409350210102,-3.316568,9.742605,-0.46148238,1.4283111,9.582416,1.51908591409350210108,-2.2996306,9.516354,-0.93972415,1.320731,9.597708,1.51988671409350210127,-1.5376761,9.7240505,-0.24061728,1.2309852,9.611762,1.50635091409350210144,-1.2695254,9.614515,-0.095169514,1.1615242,9.622395,1.49357911409350210145,-1.2030864,9.020155,-0.09636662,1.1071944,9.631313,1.47726981409350210164,0.06404489,8.197746,0.82001406,1.0586362,9.640692,1.45146491409350210164,0.6254852,8.348581,1.2012907,1.017127,9.649187,1.42444241409350210168,0.94570965,8.852561,1.5113398,0.97464645,9.657107,1.40026431409350210176,1.34195,9.664794,1.6178818,0.9281927,9.663938,1.38462421409350210202,1.5131354,10.204087,1.2485762,0.8782657,9.670045,1.37450031409350210203,1.4879963,10.579379,0.7697359,0.8245818,9.676768,1.36036721409350210208,1.0576386,10.643424,0.3669114,0.7689033,9.685754,1.32865631409350210233,0.2753332,10.241198,0.16998832,0.70437884,9.698095,1.27326061409350210234,-0.46507367,9.805453,-0.10115502,0.6251732,9.71261,1.20199221409350210237,-0.93254155,9.387066,-0.55964464,0.53045756,9.727229,1.12695181409350210259,-1.1192893,8.901642,-0.91697925,0.4284709,9.740143,1.05660161409350210260,-1.4119805,8.65863,-1.1067197,0.33088455,9.750511,0.99420631409350210275,-1.5765818,8.710705,-0.8571242,0.24667263,9.758152,0.9423511409350210276,-1.3485341,8.982447,-0.14963761,0.18094723,9.762833,0.90816351409350210291,-0.96785605,9.09617,0.59136784,0.13492943,9.764048,0.90308751409350210308,-0.6757634,8.820239,1.062427,0.10120091,9.761725,0.93213181409350210329,-0.4997896,8.678383,0.985214,0.07014146,9.757645,0.97665081409350210330,-0.56203884,8.732851,0.6218939,0.029353667,9.752114,1.03237091409350210331,-0.4878186,8.839992,0.4309563,-0.030138096,9.747283,1.07702261409350210336,-0.45789108,8.119336,-0.23762453,-0.109763056,9.74381,1.1029661409350210382,0.30107087,8.091205,-0.40222588,-0.20759667,9.741082,1.11293261409350210384,1.0259154,8.277354,-0.45609543,-0.3106836,9.737695,1.11854981409350210386,1.6077064,8.474875,-0.044891283,-0.40352154,9.733289,1.12723291409350210388,1.9075803,8.555081,0.4902128,-0.47991017,9.727018,1.15117381409350210390,2.135628,8.342596,0.997185,-0.5427246,9.717424,1.20313191409350210415,2.1428106,8.23366,1.4263457,-0.59911865,9.70352,1.28575711409350210415,2.1015105,8.1756,1.6903064,-0.6548272,9.685961,1.38700681409350210417,1.8369513,8.021174,1.5765818,-0.7112032,9.666333,1.49218211409350210449,1.8902222,8.026561,1.3210008,-0.77106345,9.645717,1.59248961409350210451,2.207454,8.253412,1.0073603,-0.8350688,9.62589,1.677881409350210452,2.3481133,8.472482,0.9828198,-0.8987908,9.608697,1.74227331409350210457,2.1523874,8.707711,1.3221979,-0.95631105,9.594451,1.78952251409350210496,1.9111716,8.941146,2.0961237,-1.0036012,9.581836,1.83073141409350210497,1.6502035,9.154829,2.7874494,-1.0419697,9.568258,1.87966631409350210499,0.96665895,9.162011,2.794632,-1.0759798,9.552326,1.94055311409350210500,0.31064767,9.155427,2.4899697,-1.1155076,9.534693,2.00391771409350210509,0.41958386,9.297284,1.5921441,-1.1626631,9.517579,2.0577381409350210532,1.1258733,9.498995,0.61411273,-1.2108665,9.502908,2.09736281409350210533,2.0201077,10.390836,0.78888947,-1.2535232,9.494116,2.11207061409350210537,1.34195,10.873267,1.654992,-1.2842352,9.490793,2.10855051409350210568,0.6937199,11.118074,2.3481133,-1.3160186,9.487647,2.10310391409350210569,-0.21188685,11.088745,2.9293058,-1.3471332,9.482414,2.10699921409350210570,-1.2545617,10.952874,3.0280666,-1.3785475,9.475418,2.1181291409350210577,-1.4903905,10.848726,2.7204118,-1.4085686,9.471141,2.11750411409350210601,-0.8714894,10.75655,2.497751,-1.4219615,9.47418,2.09483481409350210611,0.05267244,11.137228,3.0891187,-1.4064693,9.485464,2.05383281409350210612,0.24301147,11.243171,2.8395233,-1.3645099,9.50262,2.00218631409350210632,-0.40222588,10.716447,1.2725182,-1.3136805,9.524035,1.93323371409350210633,-1.5161282,9.809643,-0.038307227,-1.2726455,9.547746,1.84155141409350210638,-2.3594859,8.611345,-0.61650693,-1.234178,9.574928,1.72277831409350210670,-3.1573534,7.6614456,-1.3634979,-1.1940582,9.604811,1.5786721409350210671,-3.9025488,7.77517,-2.2948422,-1.1476835,9.636564,1.41062661409350210672,-4.485537,9.516354,-2.4881742,-1.0933846,9.668276,1.22447451409350210676,-5.2145715,12.809578,-1.5951369,-1.0272244,9.696833,1.04241421409350210700,-5.8999114,17.00422,-0.2657564,-0.9519469,9.718553,0.90219441409350210700,-5.385158,19.530102,-0.22744916,-0.87253827,9.732448,0.82978381409350210708,-4.0623617,19.52651,0.26036942,-0.77214855,9.742731,0.808316651409350210727,-1.7711107,14.091074,2.2816741,-0.6489307,9.74987,0.830246151409350210743,-0.801459,11.140819,4.2784386,-0.5140944,9.750247,0.91586051409350210744,-0.32680854,9.668983,5.8885393,-0.3793159,9.744299,1.03688981409350210767,-1.560421,8.702325,6.39611,-0.2579825,9.730087,1.19551621409350210768,-2.5222914,8.200141,5.5862713,-0.16297983,9.7116995,1.35155551409350210769,-2.902371,7.179612,4.245518,-0.092249535,9.69697,1.45967571409350210778,-1.7250223,7.7147164,3.259107,-0.02774974,9.691767,1.49641641409350210801,-0.5129577,7.5764513,2.2601264,0.060480263,9.69574,1.46947231409350210802,0.5315128,7.450157,1.5382746,0.18466969,9.704642,1.3986511409350210809,1.3706805,7.855376,0.8810662,0.33236814,9.713666,1.30560971409350210836,2.297835,9.383475,0.5129577,0.4863916,9.720041,1.20608681409350210838,3.3506854,10.568604,-0.2112883,0.64168835,9.722029,1.1139141409350210839,2.0769699,9.284116,-0.88944596,0.79507494,9.720595,1.02385381409350210867,1.2587515,7.5411367,-1.2503718,0.92429996,9.716046,0.95629831409350210869,0.99658644,6.465542,-0.52971715,1.0181046,9.70999,0.92192551409350210870,1.0989386,5.7508726,0.2160767,1.0920081,9.701247,0.929357651409350210877,0.99538934,5.5018754,0.9995792,1.1628078,9.688789,0.97242641409350210899,1.1833342,5.336077,1.2503718,1.230925,9.673678,1.0368941409350210900,0.95708215,5.088876,1.5574282,1.2965996,9.657342,1.10677991409350210909,1.0319009,5.2887917,1.6358383,1.3555052,9.641229,1.17461311409350210926,1.2096704,5.6682725,1.6681601,1.4063448,9.626079,1.23742521409350210946,1.3251907,6.0046577,1.6274586,1.4495139,9.612676,1.29065241409350210948,1.7022774,6.4840965,1.5921441,1.4840012,9.602312,1.32805191409350210949,2.0512323,6.8563952,1.5334862,1.5149252,9.593731,1.3548781409350210957,2.2427685,7.0569096,1.572392,1.5333018,9.58994,1.36104991409350210982,2.48578,7.405266,1.7154455,1.5375255,9.591015,1.34864461409350210983,2.8790276,7.8691425,1.8405426,1.5265815,9.595961,1.32570091409350210989,3.3716345,8.546701,1.9979613,1.5014948,9.603413,1.30014681409350211017,3.657143,9.323022,2.4702177,1.4643004,9.612532,1.27493751409350211018,4.173692,10.228029,2.7419596,1.4150136,9.622524,1.25505211409350211019,3.8624458,10.62008,3.2902317,1.3590719,9.632523,1.24008771409350211054,4.449025,10.833763,2.7724855,1.2942299,9.642635,1.23082891409350211056,3.6607344,9.941922,2.4947581,1.2372885,9.652243,1.21397421409350211057,1.7118542,10.904391,3.233968,1.1787883,9.662176,1.19297471409350211058,-0.14844051,14.327501,3.9270895,1.1037251,9.672346,1.18233991409350211084,-0.415394,14.515447,2.0308816,1.0110451,9.68028,1.20016431409350211085,0.41060558,13.65533,-0.41958386,0.94756037,9.685083,1.21313311409350211090,4.8943467,11.125855,-1.2533646,0.9433642,9.686867,1.20210551409350211117,6.05733,9.147646,2.0679917,1.0272762,9.679108,1.1958121409350211118,5.1607018,10.051457,7.1568675,1.1483681,9.6605,1.23547531409350211119,4.547786,16.09562,8.22528,1.289251,9.630526,1.3270951409350211150,3.5482068,19.608511,3.8911762,1.43696,9.595688,1.42419111409350211151,0.092775315,18.438345,1.8596961,1.5651311,9.574575,1.43118491409350211152,-2.3181858,15.446791,2.1254525,1.626159,9.568073,1.40641281409350211158,-2.508525,12.981361,0.3854665,1.6354764,9.567773,1.39761881409350211182,-2.1272483,11.488577,0.3609259,1.6370617,9.567051,1.40069331409350211183,-2.6659436,10.341754,1.0480618,1.6192911,9.563561,1.44449571409350211189,-3.016694,9.750985,0.43754035,1.5654814,9.562709,1.50807061409350211212,-2.8820202,8.956709,-0.09876082,1.4836808,9.5704365,1.5413791409350211213,-2.4372973,8.825626,-0.45908818,1.3985494,9.583058,1.54254931409350211217,-2.2176294,9.463681,-0.24720132,1.3265412,9.595239,1.53038061409350211239,-2.336741,9.965864,-0.60932434,1.2698891,9.6054,1.5146231409350211240,-2.2517467,10.019734,-0.86610246,1.2191776,9.616226,1.48733641409350211277,-1.4203602,9.779117,-0.7230489,1.1631917,9.629192,1.44777661409350211278,-0.45250413,9.60853,-0.1921347,1.1010052,9.642657,1.40618671409350211280,0.08678981,9.584588,0.38606504,1.0393752,9.654455,1.37170161409350211303,0.45429978,9.037513,1.1354501,0.9697096,9.66461,1.35107091409350211304,0.55246204,8.594585,0.85413146,0.89099985,9.672349,1.3498821409350211305,0.4261679,8.455722,0.6751649,0.8035394,9.679995,1.34998021409350211328,0.07062895,8.51857,0.7404069,0.71054673,9.6895485,1.3334851409350211329,-0.40880993,8.48984,0.8062474,0.6111709,9.701283,1.29690741409350211331,-0.78170687,8.151658,0.581791,0.5040858,9.713244,1.25266841409350211338,-0.90500826,7.701548,-0.11192893,0.39111727,9.723834,1.21015321409350211362,-0.878672,7.2765775,-0.8110358,0.27887452,9.732846,1.16806131409350211363,-1.0301052,7.1849995,-1.0115502,0.17530367,9.740541,1.12317871409350211369,-1.2228385,7.8027034,-0.58418524,0.08821312,9.746742,1.0787271409350211396,-1.0815806,8.928576,0.39145198,0.010470468,9.751476,1.03875331409350211397,-0.75716627,9.625289,1.1216835,-0.04829254,9.7534895,1.01857791409350211398,-0.5823896,9.3822775,1.0324994,-0.091698624,9.751888,1.03084991409350211434,-0.45729253,8.855554,0.48961425,-0.1306112,9.74708,1.07134851409350211435,-0.51116204,8.756793,-0.088585466,-0.17880927,9.741155,1.11730131409350211436,-0.6434417,8.774749,-0.14844051,-0.24535058,9.736629,1.1437931409350211438,-0.4758476,8.754398,-0.073023155,-0.32954907,9.733563,1.14870421409350211462,-0.16280572,8.400655,-0.08678981,-0.42326927,9.730429,1.14455821409350211463,0.47165772,8.26658,-0.31304187,-0.51846665,9.72592,1.14371121409350211470,1.6059108,9.214684,0.59735334,-0.60237324,9.720591,1.14789761409350211496,1.8429368,9.6923275,1.3742718,-0.66113687,9.715069,1.16220841409350211498,1.9488802,9.546879,1.7561469,-0.70894367,9.707224,1.19898941409350211498,1.8567034,9.13388,1.851915,-0.74666727,9.69577,1.26685191409350211525,1.5747862,8.7538,1.7848774,-0.78362525,9.680024,1.36142111409350211526,1.2922704,8.6017685,1.4490906,-0.8281924,9.660878,1.46694771409350211529,1.2886791,8.597578,0.7697359,-0.8831963,9.640816,1.56366681409350211538,1.5358804,8.724471,0.3585317,-0.9462195,9.622355,1.63870421409350211561,1.8387469,8.823232,0.5590461,-1.0092893,9.606881,1.69102131409350211562,2.1051018,8.717288,0.96785605,-1.0645695,9.593802,1.73089971409350211600,2.2278047,8.503007,1.7806876,-1.1094862,9.581495,1.77041751409350211601,2.1511903,8.41921,2.4450784,-1.1474793,9.567841,1.81937121409350211601,1.6621746,8.4234,2.4223335,-1.1818987,9.552938,1.87480381409350211602,1.3652935,8.675988,2.2092497,-1.2136092,9.53805,1.92954771409350211625,1.6813282,9.178172,1.496376,-1.2385164,9.525839,1.97354171409350211626,2.475006,9.635465,0.64463884,-1.2530681,9.5185,1.99959681409350211632,2.8078,9.872491,0.53330845,-1.2559936,9.516755,2.00605751409350211638,2.2720973,10.286688,1.1761516,-1.2548329,9.518776,1.99716871409350211664,1.0570401,10.769718,1.6304513,-1.2565,9.5211935,1.98456591409350211666,-1.3335704,11.350311,1.6292542,-1.2636688,9.522157,1.97535791409350211670,-2.0925324,11.544841,1.7998412,-1.2864187,9.522351,1.95968331409350211699,-2.143409,11.317391,1.6531962,-1.3099885,9.525527,1.92838041409350211700,-1.2096704,11.042058,1.5263035,-1.3211937,9.533754,1.8794631409350211701,-0.003591303,11.098921,2.1499932,-1.3129258,9.545296,1.8259161409350211727,0.37588966,10.873267,2.208651,-1.2717012,9.561129,1.77143981409350211727,-0.38965634,10.144831,1.2844892,-1.2122263,9.580001,1.71011111409350211729,-1.6190789,8.857947,0.46866497,-1.1524838,9.600827,1.63287471409350211739,-2.484583,7.6770077,-0.26036942,-1.0942345,9.6236,1.53603351409350211766,-3.3662477,7.207744,-1.0486604,-1.0302913,9.649363,1.41374681409350211767,-4.4927197,8.2276745,-1.4790181,-0.9595205,9.676879,1.26796771409350211769,-5.2768207,11.092337,-0.97264445,-0.88763887,9.702617,1.11431971409350211800,-6.0148335,15.152304,0.2148796,-0.815104,9.723505,0.97949971409350211802,-6.075287,18.981829,0.40342298,-0.7441299,9.73743,0.893939731409350211803,-4.851251,19.608511,-1.0821792,-0.6650756,9.748639,0.831926641409350211828,-3.9067385,19.405603,-1.7950528,-0.56108683,9.758949,0.78643451409350211830,-3.0777464,16.870743,-0.18674773,-0.4435789,9.767494,0.754772071409350211831,-1.5382746,13.612832,2.3906105,-0.3350454,9.76967,0.782100261409350211838,-0.80445176,9.277532,6.519411,-0.2257683,9.763806,0.88740711409350211861,-1.8776526,7.6949644,6.47033,-0.11880086,9.74874,1.05752811409350211861,-2.867655,6.5481415,5.2780175,-0.031580843,9.731473,1.21154621409350211870,-1.6825253,7.917625,4.1820717,0.038684245,9.719651,1.30279171409350211892,-0.7290344,7.7350674,2.9993362,0.11973683,9.716814,1.31892051409350211893,0.1340753,7.007828,2.110489,0.23486514,9.720601,1.27481071409350211897,1.4024036,7.445369,1.4993688,0.37786344,9.726235,1.19496971409350211933,1.9231426,8.354567,0.90740246,0.5288593,9.7298975,1.10444591409350211934,3.1908724,10.331579,0.47105917,0.684696,9.730881,1.00576231409350211935,2.5288756,9.962872,-0.04189853,0.84447277,9.727745,0.910081861409350211938,1.472434,8.053496,-0.7356185,0.9819693,9.722049,0.829383971409350211967,1.4293385,6.859388,-0.34476504,1.0828635,9.715555,0.778319541409350211968,1.2671312,6.0746884,0.3824737,1.1598899,9.707525,0.76747491409350211972,1.1605892,5.3223104,0.90261406,1.2299293,9.696754,0.79413851409350211999,1.0588357,5.199009,1.1875241,1.2986919,9.683414,0.84573771409350212000,1.2024878,5.2361193,1.2880806,1.3635983,9.669072,0.90555711409350212000,1.2964603,5.3444567,1.3916297,1.424085,9.6547785,0.963138941409350212023,1.4730326,5.589264,1.5197195,1.4760864,9.641712,1.01437641409350212024,1.5616181,5.881955,1.4520833,1.5228124,9.629283,1.06222411409350212038,2.1051018,6.5110316,1.2707225,1.5555756,9.619861,1.0994911409350212039,2.405574,7.0569096,1.2551602,1.5754838,9.614006,1.12211611409350212054,2.694674,7.5411367,1.3994108,1.5816277,9.612205,1.12888251409350212070,2.8736405,7.8027034,1.5448587,1.574447,9.614227,1.12167181409350212070,3.156755,8.002021,1.5155296,1.5530303,9.619624,1.10512581409350212085,3.4973302,8.304289,1.5885528,1.5172508,9.627761,1.08377731409350212091,4.008492,8.973468,1.7513585,1.4673477,9.637963,1.06158761409350212108,3.7696705,9.403826,2.7012582,1.4065465,9.649028,1.0432291409350212112,3.7128084,9.752781,3.4805708,1.3313214,9.660093,1.03951261409350212118,3.8857894,10.004171,3.9001546,1.2478682,9.6704855,1.04638081409350212141,4.100669,9.590573,3.37762,1.1681262,9.678501,1.06417061409350212141,2.6928782,9.136273,3.1789012,1.096588,9.685258,1.07873231409350212155,0.10594343,12.349293,3.793014,1.0212992,9.692382,1.08862011409350212181,-0.9828198,14.495694,2.6270378,0.92633194,9.698944,1.11481831409350212182,-0.7272388,13.388974,0.3878607,0.8361017,9.703656,1.1447161409350212183,0.92895025,13.023859,-1.3611037,0.8004006,9.705969,1.15061091409350212190,3.0597897,12.091916,-1.2156559,0.8359153,9.705234,1.13139651409350212213,5.2367177,10.854114,0.96905315,0.93073595,9.697713,1.12183551409350212214,4.104859,11.394006,5.895123,1.0687616,9.680836,1.14435771409350212219,3.0466216,19.382858,3.21661,1.2086972,9.655651,1.21567931409350212248,-0.09935937,17.774553,0.9564836,1.3362278,9.635768,1.23970721409350212250,-2.529474,15.442002,1.311424,1.4214069,9.6265135,1.21666071409350212251,-2.5025394,12.400169,-0.3890578,1.4664608,9.623267,1.18853761409350212283,-1.6358383,9.715072,0.2681506,1.4963697,9.621138,1.16833591409350212284,-1.7884687,8.364143,2.397793,1.5141028,9.613108,1.21080551409350212285,-2.0153193,8.616134,3.271078,1.5020875,9.603418,1.2994121409350212314,-1.70946,8.845378,1.9015948,1.4565631,9.5991335,1.38038061409350212315,-1.003769,9.12131,0.61171854,1.3959441,9.602869,1.41656661409350212316,-0.6727707,9.412206,0.34237084,1.3391726,9.611446,1.41319921409350212319,-0.8218097,9.502586,0.031124622,1.2966037,9.620202,1.39317581409350212345,-1.0660183,9.3738985,-0.40641573,1.2647418,9.628182,1.36708691409350212346,-0.8619126,9.228451,-0.40402153,1.2333069,9.636778,1.33486571409350212351,-0.109534726,9.345168,-0.17238252,1.1949368,9.646759,1.29712951409350212371,0.59136784,9.800066,-0.02932897,1.1474518,9.658072,1.25513161409350212372,0.7715315,10.294469,0.19752164,1.0906428,9.670044,1.2129081409350212385,0.6919243,10.427347,0.44891283,1.0226307,9.681574,1.17971311409350212408,0.6147113,10.115502,0.45429978,0.9442659,9.691866,1.16038641409350212410,0.55844754,9.835979,0.44711718,0.86005396,9.70166,1.14388481409350212413,-0.023942016,9.842564,0.8475474,0.7735633,9.712205,1.11582891409350212419,-0.26396075,9.566631,0.90979666,0.6795155,9.72353,1.07777311409350212442,-0.4141969,9.200318,0.6865373,0.5814688,9.7341,1.03903271409350212444,-0.3752911,8.791509,0.019752163,0.48191595,9.74342,1.00196291409350212450,-0.49200845,8.495825,-0.52852005,0.38464773,9.751212,0.967625741409350212470,-0.8643068,8.4587145,-0.53809685,0.29330504,9.757662,0.934042631409350212488,-1.3108255,8.66701,-0.22505496,0.211889,9.762805,0.901730241409350212489,-1.4454993,8.794501,0.31304187,0.14187455,9.76614,0.879089361409350212517,-1.1492168,8.449138,0.62608373,0.082491405,9.766688,0.8805671409350212520,-0.931943,8.336611,0.56682724,0.029277908,9.764154,0.91150931409350212526,-0.7290344,8.374319,0.4321534,-0.027126657,9.759622,0.95886551409350212527,-0.7697359,8.408437,0.52971715,-0.09469112,9.754851,1.00214291409350212551,-0.99658644,8.246828,0.5105635,-0.17776352,9.75073,1.03057411409350212552,-0.5009867,8.276755,0.16101007,-0.27853775,9.747116,1.04238261409350212553,0.037708677,8.217499,-0.31423897,-0.3820444,9.743382,1.04446941409350212569,1.0360907,8.414422,-0.5506664,-0.48871106,9.739849,1.03290931409350212571,1.4024036,8.754398,-0.26036942,-0.5826026,9.736236,1.01817351409350212584,1.6986861,9.039309,0.37110126,-0.66035587,9.731267,1.01821371409350212604,1.9297266,8.951322,0.9636662,-0.7236905,9.723287,1.05088511409350212604,1.8782512,8.644864,1.6466122,-0.7783753,9.711068,1.12234931409350212617,1.3371617,8.268375,1.4999673,-0.8308296,9.6945715,1.22286491409350212619,1.0450691,7.917625,1.0642227,-0.89102376,9.675514,1.32698511409350212635,1.1701661,7.814076,0.6703765,-0.96205056,9.656136,1.41559981409350212639,1.5759833,8.120534,0.65780693,-1.040104,9.638179,1.48124221409350212655,1.6867151,8.594585,0.95229375,-1.1142231,9.623009,1.52532161409350212670,1.5011644,9.002198,1.4221559,-1.1833365,9.608804,1.56237731409350212671,1.174356,9.102157,1.9560628,-1.2429241,9.596061,1.59410581409350212684,0.97144735,8.987833,2.6198552,-1.2950834,9.582424,1.63410991409350212710,0.78290397,9.014768,2.6629508,-1.3398874,9.566794,1.6886581409350212711,0.62488663,9.04709,2.2278047,-1.3790945,9.55069,1.74722831409350212713,0.7589619,9.201516,1.654992,-1.4143486,9.536781,1.79438111409350212719,1.2509704,9.388862,0.91338795,-1.4449013,9.526741,1.82314011409350212743,1.9021933,9.606135,0.57161564,-1.4681997,9.521333,1.8327591409350212745,1.9165585,9.998785,1.073201,-1.483163,9.520096,1.82713371409350212751,1.3251907,10.590153,1.7405846,-1.4927503,9.520858,1.81531051409350212778,0.5943606,11.0935335,2.1733365,-1.4988742,9.5216675,1.80599381409350212780,-0.3184288,11.315596,3.0095115,-1.5059636,9.521775,1.79952141409350212781,-1.1971009,11.286865,3.3877954,-1.512911,9.521337,1.79601311409350212812,-0.7080852,10.630854,3.1292217,-1.516315,9.522162,1.78874641409350212813,0.24480712,11.130644,3.6296098,-1.4955218,9.528636,1.77169691409350212814,0.75716627,11.568783,2.5671828,-1.4433666,9.541751,1.74415611409350212819,-0.30047232,10.926538,0.62608373,-1.3741996,9.562635,1.68462841409350212843,-1.5275006,9.7479925,-0.7380127,-1.3119328,9.588079,1.58680271409350212844,-2.6408045,8.763377,-1.4820108,-1.2566565,9.61593,1.45777251409350212851,-3.5930982,8.808268,-2.292448,-1.2055384,9.6442375,1.30604231409350212875,-4.459201,9.919776,-2.3157916,-1.1555021,9.671536,1.13868081409350212876,-5.2636523,12.157756,-1.7112557,-1.108873,9.695344,0.970114051409350212879,-6.1758432,15.074492,-1.1677719,-1.0600135,9.714518,0.821530341409350212914,-5.9118824,17.678785,-1.5753847,-1.0102744,9.728557,0.71057171409350212915,-5.6060233,18.852543,-1.9303252,-0.93972045,9.741325,0.62759941409350212917,-6.0944405,17.174807,-0.6811504,-0.84729695,9.753609,0.56535311409350212920,-4.2898107,14.644733,1.9057846,-0.75957847,9.7612915,0.557326441409350212957,-2.2667105,12.145785,4.305373,-0.65883845,9.764258,0.62895491409350212959,-0.9696517,10.184934,5.5748987,-0.5413612,9.762,0.76202021409350212967,-0.80924016,8.902241,5.865794,-0.23581834,9.7412405,1.10590841409350212969,-1.4550761,8.610147,5.6527104,-0.23581834,9.7412405,1.10590841409350212972,-2.066196,7.9810715,3.5350387,-0.23581834,9.7412405,1.10590841409350213003,-0.006584055,8.256405,2.6036944,-0.16323702,9.739678,1.13243221409350213008,0.98581254,7.863157,1.5693992,-0.065238856,9.744167,1.10332781409350213009,2.1027076,7.996035,0.8218097,0.06507504,9.752092,1.03093471409350213031,2.855684,8.626907,0.33279404,0.22149032,9.759831,0.931133451409350213032,3.3147724,9.631873,0.10235212,0.38515076,9.76481,0.818883061409350213033,2.822764,9.683948,-0.37588966,0.5444412,9.765552,0.712718671409350213077,1.4371196,8.186973,-0.9295488,0.6826348,9.762869,0.62513741409350213078,1.2491747,7.176021,-0.65541273,0.7849653,9.758479,0.57125211409350213079,1.1623849,6.531981,0.073621705,0.8648322,9.752226,0.5626141409350213080,1.103727,5.892729,0.63087213,0.93618256,9.74358,0.59717271409350213081,0.9367314,5.4282537,1.0821792,1.0063864,9.733149,0.65070731409350213107,0.95109665,5.5617304,1.513734,1.0745131,9.720443,0.72718441409350213109,1.0875661,5.846042,1.9800048,1.140734,9.706075,0.813179251409350213112,1.1474211,5.8693852,2.211644,1.204234,9.690879,0.89837631409350213120,1.1097125,5.7083755,2.1745336,1.2619679,9.676072,0.9754251409350213144,1.30484,5.897517,2.0524294,1.3099649,9.6631565,1.03816181409350213145,1.614889,6.3865333,1.8483237,1.3464442,9.653114,1.08391051409350213152,1.7411832,6.5259953,1.7477672,1.3709087,9.646828,1.10893271409350213186,2.2547395,7.0461354,2.0602105,1.3795288,9.645291,1.11160341409350213191,2.5552118,7.258621,2.042254,1.3722972,9.647957,1.09733181409350213195,3.0909145,7.7224975,1.899799,1.3488228,9.654383,1.06956281409350213219,3.5685577,8.418612,1.9470845,1.3204565,9.661942,1.03619071409350213220,4.0677485,9.288305,2.112883,1.2784996,9.671648,0.99750821409350213222,4.247314,10.043077,2.5234885,1.2264591,9.681814,0.96368021409350213223,4.3718123,10.414778,2.8790276,1.1641376,9.691664,0.94170161409350213255,4.5136685,10.122087,2.5378537,1.0973259,9.700486,0.931038741409350213258,3.9516299,9.206305,2.100912,1.0344906,9.708275,0.92175071409350213260,1.2539631,10.89661,3.2944214,0.9751026,9.715671,0.90845461409350213262,0.13587095,14.237121,3.527856,0.901263,9.722906,0.90732061409350213315,0.13108255,14.074913,1.7531542,0.824859,9.728241,0.922677761409350213316,1.3126211,13.374609,-0.3489549,0.78449255,9.73111,0.927605871409350213319,3.5422213,13.174095,-1.3874398,0.80359447,9.730675,0.91574011409350213321,5.629367,10.969035,-0.8002619,0.86512285,9.726725,0.901551961409350213322,6.5391636,9.450513,2.4600422,0.9787687,9.714435,0.917690041409350213324,4.5675383,11.073183,7.6614456,1.1230191,9.693026,0.976964651409350213351,3.3692403,17.840992,7.5405383,1.2709652,9.663671,1.08098551409350213352,1.7471687,19.608511,3.383007,1.407854,9.633416,1.17713181409350213355,-3.7014358,14.081497,0.84694886,1.510046,9.61438,1.2057641409350213378,-3.4326868,11.71842,0.40342298,1.5384212,9.606892,1.22935651409350213379,-2.830545,10.8708725,1.2695254,1.5489361,9.5973215,1.28942731409350213380,-2.5486276,11.227609,1.6035166,1.5325788,9.585354,1.39376151409350213409,-2.4827871,11.080365,0.31304187,1.4793166,9.579371,1.48917941409350213410,-2.3002293,10.283096,-1.2156559,1.402024,9.58107,1.5517211409350213412,-2.1667526,9.566033,-0.9367314,1.3257962,9.590113,1.56281921409350213420,-2.2918496,8.839393,-0.6877344,1.2592757,9.600359,1.55490831409350213438,-2.2421699,8.625112,-0.40701428,1.2052715,9.608257,1.54890531409350213440,-1.532289,8.316259,0.25438392,1.1577765,9.614535,1.54617621409350213451,-0.5201403,7.965509,0.63087213,1.1142592,9.620504,1.54101841409350213467,0.2088941,8.019978,0.427365,1.0700548,9.627434,1.52901981409350213490,0.6943185,8.560468,0.58538234,1.0208668,9.636426,1.50582721409350213494,1.003769,8.91481,1.204882,0.96493226,9.64635,1.47893391409350213495,1.2479776,8.996213,1.4526819,0.90202427,9.655311,1.46004861409350213500,1.4059949,9.019556,1.0755951,0.8350288,9.6641,1.44162511409350213527,1.4682442,9.436148,0.78888947,0.76877064,9.673762,1.41339611409350213528,1.1953052,9.96766,0.60094464,0.7018864,9.686742,1.35822431409350213532,0.5506664,10.146626,0.50158525,0.6290477,9.702076,1.28234521409350213561,-0.81163436,9.033921,-0.50158525,0.54487216,9.716952,1.20596041409350213562,-1.0073603,8.623316,-1.0654198,0.4464891,9.730063,1.13883221409350213563,-1.1971009,8.769362,-1.0007763,0.3476628,9.740507,1.08261471409350213587,-1.520318,9.283517,-0.44651863,0.2589742,9.748354,1.03581021409350213588,-1.2443863,9.634866,0.4165911,0.1858277,9.753368,1.00383341409350213594,-1.0384849,9.54209,0.6841431,0.13146015,9.754658,0.9998721409350213602,-0.9211691,9.073426,0.44352585,0.08550825,9.752239,1.02807061409350213620,-0.7529764,9.00579,0.3633201,0.03529957,9.747193,1.07765381409350213621,-0.88765025,8.752005,0.39324763,-0.020742344,9.741289,1.1301661409350213631,-0.4890157,8.938752,0.5033809,-0.094538964,9.735572,1.17478851409350213666,-0.005386954,8.787319,0.22744916,-0.1820872,9.730722,1.20428231409350213667,0.504578,8.003218,-0.31783026,-0.27843174,9.726277,1.22163841409350213668,1.4550761,7.864354,-0.27593175,-0.37879634,9.721485,1.23274031409350213701,2.0272903,8.563461,0.41180268,-0.46999812,9.715873,1.24551451409350213702,2.1775265,8.694544,1.027711,-0.54339683,9.70821,1.27506381409350213705,2.0530279,8.387487,1.4197617,-0.6048779,9.696822,1.3327281409350213706,2.1619642,8.137892,1.6765398,-0.66548157,9.6810875,1.41565541409350213722,1.6430209,8.018182,1.6699557,-0.7261688,9.662242,1.51133451409350213722,1.0995371,7.763199,1.4431051,-0.7937116,9.641569,1.60641931409350213735,1.376666,8.008605,0.95947635,-0.8679612,9.620713,1.69083251409350213761,1.6843209,8.410232,1.0947487,-0.9461657,9.60167,1.75586581409350213762,1.6286557,8.637083,1.3305776,-1.0166804,9.585135,1.80608381409350213763,1.3413515,8.72507,1.7651252,-1.081444,9.570734,1.8444321409350213792,1.1498153,8.746018,2.5312698,-1.1389942,9.556805,1.88163511409350213795,0.94451255,8.916606,2.52289,-1.1934817,9.541082,1.92711021409350213795,0.6147113,8.996213,2.0332758,-1.2481608,9.524002,1.97632591409350213801,0.66379243,9.339182,1.3239936,-1.3042119,9.507647,2.0184331409350213815,1.4239515,9.710283,0.47285482,-1.3556974,9.495504,2.04154091409350213834,2.4313118,9.907207,0.14305355,-1.393663,9.489617,2.04334241409350213835,2.373851,10.223241,0.84934306,-1.4173698,9.487558,2.03659421409350213849,1.6825253,10.601525,1.9333179,-1.4327555,9.4871235,2.0278281409350213867,0.94690675,10.451887,2.433706,-1.4454685,9.484843,2.02946521409350213868,0.02873042,10.481815,2.3870192,-1.4563749,9.480317,2.04277781409350213882,-0.57640404,10.78947,2.44448,-1.4637464,9.4771,2.0524171409350213883,-0.84575176,10.848726,2.5360582,-1.4645877,9.479054,2.04276851409350213896,-0.5243302,10.635642,2.433706,-1.4531007,9.487612,2.0109991409350213900,0.29209262,10.514136,2.1122844,-1.4174339,9.502615,1.9650921409350213926,1.0552444,10.429741,2.2631192,-1.3548203,9.523843,1.9055981409350213927,-0.44113165,8.823232,1.1593921,-1.2758853,9.549304,1.83120421409350213932,-1.6430209,7.690176,0.36152446,-1.2115712,9.574438,1.74144691409350213974,-2.932897,7.1167645,-0.16819267,-1.1563001,9.599856,1.63588741409350213976,-4.261679,7.642292,-0.63206923,-1.100205,9.6257305,1.51831381409350213978,-5.7029886,9.7240505,-0.5823896,-1.0463759,9.651656,1.38600251409350213980,-6.5283895,13.210008,-0.17597382,-1.0027378,9.674875,1.24968561409350213983,-6.7642183,17.291523,-0.25498247,-0.9640591,9.693865,1.12692371409350214007,-5.279215,19.60133,-1.353921,-0.91804767,9.709818,1.02322421409350214008,-4.0019083,19.608511,-1.7142484,-0.82555014,9.728061,0.92394851409350214012,-4.267066,19.293076,-0.22445641,-0.69636095,9.745855,0.83892221409350214035,-3.1004913,16.81029,1.7645266,-0.5824635,9.756007,0.807122471409350214036,-1.899799,13.522451,3.7032316,-0.47511965,9.757562,0.85712481409350214040,-1.1498153,10.8385515,4.960786,-0.37003633,9.753152,0.953682541409350214052,-1.7100586,8.895657,5.245696,-0.26617008,9.74275,1.08552441409350214082,-2.5719712,8.046912,4.614824,-0.18667434,9.730469,1.20562311409350214083,-3.4105403,6.0208187,3.5763388,-0.13103147,9.722374,1.27618611409350214084,-1.9015948,7.0826473,3.196858,-0.07944201,9.721682,1.28567991409350214108,-0.33638534,7.6560583,2.9113493,0.007544972,9.726238,1.25324821409350214109,0.7589619,7.4735007,1.9327193,0.14342366,9.732644,1.1939141409350214112,3.107674,9.276933,1.6298528,0.29966122,9.7387905,1.11200791409350214133,3.25372,9.31943,0.961272,0.46766523,9.741991,1.02241181409350214134,2.416348,8.095993,0.04249708,0.6212038,9.742052,0.93645731409350214156,2.095525,7.056311,-0.31064767,0.74026054,9.740191,0.86664371409350214157,1.8806454,6.7067575,0.19273324,0.8410603,9.736774,0.81132051409350214161,1.6106992,5.9280434,0.350152,0.9200872,9.731281,0.791190741409350214190,1.460463,5.2079873,0.5506664,0.99005485,9.723567,0.80152331409350214193,1.4341269,5.1463366,0.7613561,1.0560341,9.7141285,0.831205371409350214195,1.3497312,5.3205147,0.9923966,1.1197795,9.703707,0.86867261409350214200,1.2886791,5.5581393,1.2000936,1.1807525,9.69275,0.90928461409350214214,1.228824,5.829881,1.2066777,1.2347382,9.682158,0.949535371409350214232,1.3826514,6.1303535,1.1791444,1.2782577,9.672903,0.98560621409350214233,1.6364368,6.4260373,1.1605892,1.3096536,9.665927,1.01244971409350214251,1.7753005,6.5457473,1.1097125,1.326994,9.662211,1.0252521409350214252,2.0620062,6.6103907,1.2515689,1.3279788,9.662437,1.02184251409350214266,2.5169046,7.08564,1.6142905,1.3220679,9.664361,1.01126971409350214284,2.8329391,7.599795,1.9746178,1.3018569,9.669184,0.9911891409350214285,3.1998506,8.127716,2.083554,1.2664313,9.676173,0.96861591409350214292,3.4302924,8.606557,2.2385786,1.2162095,9.6848755,0.94573661409350214300,3.6655228,10.012551,2.6743233,1.150695,9.694766,0.9261821409350214314,3.5248635,10.225636,3.027468,1.0757539,9.704277,0.91659111409350214329,3.4219127,9.925761,2.9418752,0.99447906,9.7129345,0.916677651409350214333,3.3614593,9.308656,2.32058,0.91564596,9.720326,0.92047061409350214350,1.1007342,10.699089,3.0364463,0.84614414,9.726661,0.92005851409350214367,-0.7116765,14.02284,2.8856115,0.7691113,9.731942,0.931771161409350214368,-0.9516952,13.836092,1.168969,0.68032885,9.736804,0.94984171409350214385,0.048482586,12.850279,-0.60214174,0.6031075,9.740934,0.959611951409350214386,1.8339585,11.827356,-1.5035586,0.58385247,9.743402,0.9463861409350214393,3.8468835,10.680533,-1.0031705,0.6300012,9.742514,0.9257051409350214402,4.2251673,10.4171715,3.551798,0.726904,9.735698,0.92638831409350214418,3.0681696,13.255498,9.085397,0.8492704,9.720611,0.97923261409350214420,3.6577415,18.860323,6.7731967,0.979574,9.694698,1.10618781409350214432,2.349909,19.608511,1.8082209,1.1324232,9.667541,1.19442431409350214456,-1.5837644,18.288109,0.8972271,1.2701511,9.652479,1.17760351409350214459,-2.8137856,14.244902,-0.24301147,1.3257121,9.649975,1.13615981409350214461,-1.4682442,11.856087,-0.5279215,1.3438725,9.649256,1.12083241409350214490,-0.99658644,10.070611,1.7669208,1.366471,9.644322,1.13587751409350214492,-1.2162545,8.400655,2.5312698,1.36682,9.635649,1.20683961409350214493,-0.9403227,8.129512,2.1577742,1.3377644,9.630244,1.28030571409350214500,-0.6997054,8.616134,1.4263457,1.2936082,9.630791,1.32092011409350214515,-0.81163436,9.03871,0.6865373,1.2516446,9.635935,1.32382931409350214530,-1.0875661,9.422979,-0.30107087,1.2202097,9.642712,1.30368441409350214532,-0.84575176,9.664794,-0.7110779,1.193245,9.650744,1.26872931409350214555,-0.08499416,9.93893,-0.8146271,1.1604621,9.660789,1.22184011409350214556,0.75477207,10.229825,-0.81522566,1.116008,9.673004,1.16527771409350214561,0.80564886,10.426748,-0.8726865,1.0588957,9.6864605,1.10527481409350214588,0.35553896,10.1382475,-0.6374562,0.9843004,9.7004,1.05060391409350214590,0.22385786,9.514558,-0.35673606,0.8972735,9.713459,1.0069741409350214592,0.3298013,8.84478,-0.24241292,0.7988957,9.724512,0.98287241409350214601,0.18854338,8.557475,0.005386954,0.6974772,9.733719,0.968837441409350214622,-0.055066638,8.765172,0.6703765,0.5954181,9.742391,0.94957981409350214623,-0.58657944,8.855554,0.99299514,0.48919895,9.750746,0.9241421409350214661,-1.043872,8.567052,0.97982705,0.37830126,9.758024,0.899014531409350214662,-1.0971429,8.280347,0.6410475,0.26749593,9.763658,0.87740241409350214663,-0.98581254,8.058883,-0.260968,0.16575491,9.767848,0.85561091409350214664,-0.98820674,8.019379,-0.9600749,0.07613967,9.771538,0.8256151409350214690,-1.6328455,9.589975,-0.038905777,-2.96E-04,9.77469,0.79109021409350214692,-1.5298948,10.058042,0.7140707,-0.07118454,9.776486,0.765271841409350214696,-1.3652935,9.662399,0.5805939,-0.13635492,9.775631,0.76737441409350214712,-0.8295909,9.159617,-0.10414778,-0.19740781,9.771885,0.80104581409350214713,-0.82899237,8.770559,-0.62967503,-0.2596027,9.766282,0.850142661409350214729,-0.931943,8.680777,-0.45130703,-0.3350275,9.760528,0.88896141409350214732,-1.5167267,8.656835,-0.18315643,-0.4259861,9.755419,0.90594641409350214744,-1.0887632,8.794501,-0.19632454,-0.5344975,9.749963,0.90714641409350214762,0.076614454,8.896853,-0.49320555,-0.6479904,9.74353,0.902277951409350214762,0.8996213,9.137471,-0.61052144,-0.7499024,9.7368765,0.895140351409350214777,1.3844471,9.351153,-0.24660277,-0.8310596,9.730628,0.891411661409350214781,1.6843209,9.488221,0.374094,-0.89443994,9.723688,0.905689241409350214796,1.7675194,9.457097,0.8158242,-0.9480679,9.715483,0.93859551409350214810,1.8201919,9.322423,1.0618285,-0.9929012,9.704119,1.00727561409350214818,1.5023615,8.966884,1.0546459,-1.0315655,9.689271,1.10648241409350214830,1.0432734,8.501212,0.80325466,-1.0718085,9.671433,1.21861241409350214832,0.9283517,8.043321,0.49081135,-1.1196707,9.652028,1.32479951409350214843,1.204882,7.5884223,0.37349546,-1.1768295,9.632005,1.41772691409350214862,1.6765398,7.3507977,0.66139823,-1.2391111,9.612417,1.49546771409350214863,1.7004818,7.519589,2.1841104,-1.2989789,9.594308,1.55957931409350214880,1.0259154,7.555502,2.2906525,-1.3518848,9.576756,1.62128021409350214881,0.1328782,7.797915,2.6767175,-1.402202,9.560131,1.67574661409350214897,-0.14903906,8.288726,2.493561,-1.4510045,9.543972,1.72556591409350214914,0.55605334,8.672397,1.4197617,-1.4967837,9.528258,1.77266381409350214915,1.7232267,9.147048,0.46028528,-1.5330747,9.515602,1.80925551409350214928,2.508525,9.924564,0.6404489,-1.5539342,9.507784,1.83240891409350214948,2.0859482,10.446501,1.4748282,-1.5597075,9.505269,1.84052681409350214948,1.5676036,10.631453,1.8848352,-1.5617824,9.504037,1.84512761409350214963,0.6775591,10.825981,2.0141222,-1.5606834,9.501962,1.85671751409350214964,0.08439561,10.851719,2.2583308,-1.5583743,9.49925,1.8724611409350214978,-0.2908955,10.718243,2.6114755,-1.5521047,9.498545,1.88122421409350214981,0.11911154,10.560823,2.9520507,-1.5392414,9.502416,1.87222141409350214997,0.79248077,10.1544075,2.802413,-1.5058427,9.512641,1.84729851409350215009,1.501763,9.786898,2.5360582,-1.4426392,9.528314,1.81670751409350215012,1.8698715,9.431957,2.765303,-1.3636813,9.5473795,1.77716281409350215025,1.2366052,8.689157,2.4115596,-1.267993,9.570745,1.72145961409350215045,0.004788403,7.53575,1.6519991,-1.1753575,9.59713,1.63830151409350215046,-1.5993267,6.695385,0.92416185,-1.0892035,9.625066,1.53039991409350215073,-4.422689,9.311649,-0.5141548,-1.004972,9.653174,1.40593241409350215074,-5.549161,13.476363,-0.11372458,-0.9356442,9.680315,1.25954941409350215075,-6.431424,18.392857,0.42197806,-0.8764999,9.703634,1.11428991409350215081,-5.153519,19.608511,-0.5141548,-0.8276611,9.721252,0.991270841409350215102,-3.333926,19.608511,-1.9081788,-0.7444902,9.737858,0.888955531409350215103,-3.8696284,19.560627,-1.5879543,-0.61742276,9.7557745,0.78360011409350215113,-4.1557355,17.74283,-0.2208651,-0.49862775,9.769633,0.68995271409350215130,-3.2944214,14.577696,1.7447745,-0.405332,9.777,0.645257831409350215147,-2.5169046,11.5633955,3.5063083,-0.33259422,9.777317,0.681056861409350215148,-1.9027919,9.570223,4.8201265,-0.27008966,9.772206,0.77554251409350215172,-2.8491,8.025364,5.1379566,-0.21387598,9.764148,0.88660341409350215173,-3.043629,6.2261214,4.6860514,-0.17374614,9.75655,0.974642931409350215175,-1.9416976,6.8085113,4.19943,-0.13274515,9.753255,1.01330091409350215181,-0.34117374,8.351574,3.7493198,-0.061280802,9.754437,1.00874281409350215197,0.5638345,7.7649946,3.020884,0.05867051,9.7576685,0.97716631409350215218,2.0123265,8.217499,2.4779987,0.20428985,9.760945,0.9233851409350215220,3.7229836,9.835381,1.9512744,0.35625905,9.762305,0.860735951409350215221,3.6332011,9.655815,1.2006922,0.51920116,9.760295,0.798437061409350215254,2.9819782,8.471284,0.035314474,0.6646898,9.755913,0.742115441409350215255,2.1152773,6.6989765,-0.18315643,0.7745688,9.7511635,0.696605151409350215255,1.5795746,6.0663085,-0.059855044,0.85593456,9.745803,0.67610361409350215262,0.95229375,5.3085437,0.12569559,0.9257588,9.738698,0.68638011409350215280,0.82719666,4.953005,0.42676646,0.9893864,9.729813,0.72268651409350215281,0.830788,4.8698063,0.54887074,1.0499121,9.719519,0.77398241409350215294,0.6805518,4.6896424,0.53330845,1.1072316,9.708468,0.83070791409350215308,0.55485624,4.621408,0.6242881,1.1588289,9.697336,0.888361041409350215313,0.4441244,4.747103,0.76434886,1.2007945,9.686989,0.9437791409350215329,0.7272388,5.4192758,0.9696517,1.231679,9.677761,0.997130631409350215347,1.0253168,5.988497,1.2198458,1.2579533,9.669577,1.04271751409350215349,1.1839328,6.3165026,1.513734,1.273598,9.663709,1.07753571409350215377,1.3862427,6.7719994,2.019509,1.2754493,9.661124,1.09831491409350215378,1.7142484,7.301118,2.669535,1.2597141,9.662259,1.10647491409350215379,1.893215,7.7649946,3.105878,1.2268854,9.666359,1.10754921409350215382,2.2242134,8.139089,2.9281087,1.1776248,9.672991,1.10310691409350215412,2.641403,8.768764,2.5240872,1.1159632,9.682057,1.08755211409350215415,3.1190462,9.785102,1.8022354,1.0464734,9.692878,1.05990951409350215417,3.2968156,10.721235,1.7908629,0.974377,9.704539,1.02124511409350215450,3.6122518,11.300632,1.8219875,0.90230745,9.715228,0.98518011409350215451,2.2134395,11.490373,2.3391352,0.83752203,9.724283,0.95252171409350215453,0.52732295,13.581708,2.8048072,0.7671102,9.731893,0.933907031409350215454,0.06464344,14.064139,1.7274165,0.6923519,9.738128,0.92731771409350215462,1.0384849,13.171103,