time,acc_x,acc_y,acc_z,gravity_x,gravity_y,gravity_z1409351576719,-0.24480712,9.559449,0.46327803,0.16024843,9.763702,0.90267331409351576737,-0.18614918,9.534908,0.42317516,0.14869542,9.764542,0.89555641409351576739,-0.11372458,9.539098,0.41060558,0.13905177,9.765264,0.88921741409351576756,-0.062249243,9.623494,0.4782418,0.13124344,9.765865,0.883777141409351576757,0.023343466,9.680955,0.545878,0.12478118,9.766275,0.880162361409351576764,0.06823475,9.726444,0.5793968,0.11970789,9.766536,0.87797221409351576785,0.094570965,9.773131,0.58777654,0.11553258,9.766767,0.87597231409351576786,0.12988544,9.846753,0.60693014,0.11260858,9.767035,0.87336081409351576809,0.1436521,9.928755,0.5386954,0.111205146,9.767299,0.87059021409351576811,0.13587095,10.0341,0.3788824,0.11063341,9.767589,0.86739561409351576816,0.15442601,10.046669,0.3549404,0.10990634,9.76801,0.862733961409351576845,0.12928689,10.010756,0.40043023,0.108673215,9.768385,0.858641271409351576847,0.12988544,9.920973,0.46567222,0.10739757,9.768679,0.855447051409351576848,0.1412579,9.842564,0.55964464,0.106930755,9.768834,0.85372371409351576865,0.107140526,9.78989,0.6745663,0.10666582,9.768871,0.853334071409351576866,0.08439561,9.785701,0.7068881,0.106285736,9.768731,0.85497951409351576884,0.065242,9.808446,0.7218518,0.10614691,9.768436,0.85836091409351576886,0.03172317,9.828198,0.6404489,0.10613756,9.768102,0.86216231409351576899,0.021547815,9.801263,0.57640404,0.10643391,9.76783,0.865199741409351576908,0.029927522,9.79827,0.5781997,0.10657946,9.76771,0.866542761409351576919,0.060453594,9.848549,0.6183026,0.106782,9.767706,0.86655851409351576940,0.09636662,9.888053,0.59735334,0.10738354,9.76771,0.8664331409351576944,0.107739076,9.884461,0.59615624,0.10808175,9.767744,0.86596861409351576948,0.061650693,9.812037,0.57161564,0.108331636,9.767706,0.86636471409351576965,0.05925649,9.710882,0.5883751,0.10792927,9.76765,0.867049631409351576967,0.04309563,9.703101,0.6422446,0.10762451,9.767627,0.86733531409351576983,0.032920275,9.745598,0.65242,0.10717947,9.76755,0.868260861409351576985,0.11671733,9.849147,0.59376204,0.106410824,9.767444,0.869542361409351577001,0.12569559,9.81503,0.60333884,0.10647198,9.767362,0.87047311409351577006,0.15682021,9.728839,0.6380547,0.10685104,9.767264,0.871505141409351577024,0.14724341,9.667188,0.741604,0.10738573,9.767114,0.87313681409351577025,0.17956513,9.633669,0.82719666,0.108118795,9.766877,0.875682061409351577037,0.2136825,9.618706,0.87567925,0.10969752,9.766571,0.8788961409351577059,0.21308395,9.602545,0.88405895,0.11193996,9.766148,0.883311031409351577061,0.25558102,9.5492735,0.9008184,0.11471235,9.765705,0.887827041409351577065,0.30107087,9.56723,0.97862995,0.11883031,9.765244,0.89234241409351577098,0.37828386,9.676167,0.99419224,0.12417079,9.7647705,0.89680431409351577100,0.40880993,9.8276,1.0253168,0.13127309,9.764286,0.90104921409351577102,0.45968673,9.907207,1.0582372,0.13932467,9.763765,0.905468641409351577133,0.4961983,9.956886,1.0516531,0.14911322,9.763175,0.91027351409351577136,0.53809685,9.924564,1.0522517,0.16006613,9.762559,0.91501021409351577139,0.52971715,9.874287,1.0672154,0.17228243,9.761884,0.91997281409351577165,0.5422867,9.8677025,1.1294646,0.18486711,9.761074,0.92607561409351577167,0.54168814,9.881469,1.1623849,0.19800906,9.760117,0.93345611409351577168,0.5470751,9.91798,1.1647792,0.21169192,9.759024,0.941826461409351577170,0.5021838,9.928156,1.1749545,0.22550496,9.757755,0.95171181409351577197,0.45669398,9.985018,1.1145009,0.23847544,9.756386,0.96254041409351577198,0.4249708,10.02153,1.033098,0.2505521,9.755017,0.973273631409351577200,0.40342298,10.001179,0.9780314,0.26143247,9.753729,0.983285671409351577217,0.39205053,9.973047,0.90859956,0.2714697,9.752486,0.99283471409351577218,0.41240123,9.935937,0.9008184,0.28054026,9.751336,1.00156281409351577232,0.42676646,9.928755,0.90979666,0.28877047,9.750274,1.0095381409351577237,0.39923313,9.910199,0.89782566,0.29584187,9.7493,1.01687091409351577249,0.34476504,9.908403,0.8774749,0.30135304,9.748433,1.02354511409351577267,0.2837129,9.884461,0.9103952,0.30505335,9.7476845,1.0295711409351577268,0.26036942,9.902418,0.9331401,0.30729777,9.746976,1.03558051409351577283,0.2172738,9.889849,1.0121487,0.30846843,9.7463,1.04157891409351577285,0.19991584,9.870096,1.0253168,0.3082949,9.745505,1.04903151409351577300,0.17477672,9.840169,1.0474633,0.30749768,9.744595,1.05770541409351577317,0.142455,9.780912,1.0839748,0.30640396,9.743617,1.06698111409351577319,0.14903906,9.715671,1.1252748,0.30462518,9.742548,1.07719081409351577331,0.1376666,9.697714,1.2024878,0.30245867,9.741407,1.08808761409351577337,0.14604631,9.7007065,1.1683705,0.2997017,9.740209,1.0995081409351577348,0.1400608,9.713875,1.1318588,0.29655257,9.739117,1.10998741409351577368,0.15083471,9.720459,1.0540473,0.2926933,9.73831,1.11805091409351577369,0.1945289,9.780912,1.0749966,0.28809485,9.737833,1.12338761409351577385,0.21547815,9.809643,1.073201,0.28376418,9.737533,1.12708761409351577386,0.23882163,9.85633,1.067814,0.27956814,9.737338,1.12980931409351577400,0.2789245,9.880871,1.073201,0.27505007,9.737213,1.13201431409351577414,0.2705448,9.8754835,1.0893618,0.27022183,9.737085,1.13426131409351577422,0.2681506,9.883863,1.1067197,0.2652797,9.736914,1.13690581409351577441,0.2777274,9.892841,1.1234791,0.26021805,9.736656,1.14027541409351577442,0.24839842,9.923966,1.1198878,0.25529146,9.736333,1.14413561409351577445,0.20709845,9.9233675,1.1384429,0.25008827,9.735965,1.14840961409351577467,0.18255788,9.928755,1.1575965,0.24458106,9.735502,1.15350961409351577469,0.1604115,9.903017,1.1653777,0.23903416,9.734958,1.15925461409351577485,0.1448492,9.841965,1.163582,0.23319216,9.734337,1.16564071409351577486,0.15801731,9.813833,1.1857284,0.22674291,9.733684,1.1723431409351577506,0.18555063,9.776124,1.2252327,0.2193845,9.7331,1.17858221409351577508,0.24181437,9.767146,1.2144588,0.21144693,9.732484,1.18509971409351577517,0.24001873,9.747394,1.2090719,0.20379773,9.7318735,1.19143971409351577540,0.20590134,9.723452,1.1761516,0.19611323,9.731364,1.19686371409351577542,0.18674773,9.691729,1.1911154,0.18787053,9.730953,1.20152691409351577546,0.15861586,9.667188,1.1899183,0.17912287,9.730536,1.20622811409351577570,0.14544775,9.64983,1.2108675,0.17005152,9.730148,1.21066141409351577572,0.15322891,9.602545,1.2641385,0.16048501,9.729709,1.21548371409351577597,0.14185645,9.626487,1.3634979,0.15066965,9.729194,1.22086731409351577598,0.10235212,9.7162695,1.377863,0.14003865,9.728584,1.22697391409351577600,0.040102877,9.745598,1.2868834,0.12869535,9.728018,1.23267291409351577620,5.99E-04,9.7324295,1.246182,0.11700061,9.727593,1.23718151409351577622,-0.046686932,9.689334,1.2018893,0.10530885,9.727349,1.24015881409351577625,-0.079008654,9.599552,1.115698,0.09358466,9.727245,1.24191281409351577656,-0.11552023,9.487024,1.0893618,0.08241357,9.727344,1.2419391409351577658,-0.09816227,9.430161,1.1198878,0.07094094,9.727573,1.24084211409351577659,-0.076614454,9.414599,1.1162965,0.05985424,9.727869,1.23911371409351577666,-0.053869538,9.431359,1.1474211,0.049557813,9.728293,1.23622251409351577687,-0.049679685,9.430161,1.1779473,0.039622765,9.728896,1.23183631409351577689,-0.049679685,9.372103,1.2138603,0.030560339,9.7297125,1.22563591409351577697,0.014963761,9.336788,1.3479356,0.023037616,9.730678,1.21810441409351577722,-0.004189853,9.41879,1.3557167,0.017673604,9.731642,1.21046471409351577725,-0.037708677,9.581595,1.2186487,0.013869535,9.732818,1.20102671409351577727,-0.024540568,9.7084875,1.0684125,0.011609774,9.734426,1.1879551409351577760,-0.05686229,9.759963,0.9552865,0.010365181,9.736272,1.17273341409351577762,-0.01436521,9.7719345,0.98581254,0.010220219,9.738247,1.15621331409351577765,0.045489833,9.802461,1.039682,0.011645868,9.740028,1.1411071409351577767,0.095169514,9.820416,1.062427,0.014141338,9.7415495,1.12801671409351577795,0.10474633,9.8198185,1.0648212,0.017696619,9.7428465,1.11671051409351577796,0.10115502,9.828796,1.0809821,0.022271745,9.744039,1.106181409351577799,0.12030864,9.882068,1.0971429,0.027039764,9.745201,1.09578311409351577820,0.1436521,9.890448,1.1204864,0.031853594,9.746301,1.08581581409351577821,0.16220717,9.870096,1.1438298,0.03616846,9.74731,1.07659391409351577825,0.17477672,9.833585,1.1587936,0.039923575,9.748194,1.06841161409351577850,0.22146365,9.779117,1.1330559,0.043094095,9.748989,1.06101931409351577855,0.28191724,9.730036,1.1426327,0.046154432,9.749722,1.05413091409351577877,0.26156655,9.818023,1.134253,0.048816346,9.75039,1.04781911409351577879,0.20590134,9.946113,1.1264719,0.050750237,9.751085,1.04124371409351577881,0.16998832,10.007763,1.0654198,0.05131167,9.751886,1.03368091409351577888,0.14963761,9.966463,1.0648212,0.050941158,9.752806,1.02496681409351577906,0.14305355,9.8683,1.050456,0.05000592,9.753661,1.01684941409351577908,0.18495208,9.806051,1.0749966,0.04856069,9.754492,1.00893091409351577925,0.20350714,9.8515415,1.1558008,0.047267582,9.755262,1.00150921409351577945,0.14604631,9.917382,1.1013328,0.045659345,9.755885,0.995497051409351577947,0.08678981,9.879673,1.0313023,0.04312705,9.75648,0.98976111409351577958,0.0712275,9.797073,1.0001777,0.040061306,9.757124,0.983532131409351577976,0.074818805,9.752182,0.97862995,0.036828753,9.757843,0.976493361409351577979,0.10055647,9.714474,0.99419224,0.03325988,9.7586565,0.968474751409351577981,0.16938977,9.657611,0.9720459,0.029900415,9.7593975,0.96107021409351578007,0.22445641,9.610924,0.9427169,0.027399536,9.760061,0.95437491409351578009,0.1945289,9.634866,1.0354922,0.02552271,9.760695,0.947919551409351578010,0.14903906,9.728839,1.0714053,0.023386355,9.761297,0.941749631409351578018,0.11192893,9.8276,1.0055647,0.021460576,9.7619505,0.93502621409351578046,0.051475335,9.849147,0.9660604,0.019638693,9.76265,0.927721861409351578049,-0.002992752,9.800665,0.93014735,0.017769393,9.76341,0.91972381409351578055,-0.01616086,9.772532,0.8870517,0.016281711,9.76418,0.911556841409351578075,0.010773907,9.751583,0.88405895,0.015072482,9.764914,0.90368721409351578077,0.050876785,9.790489,0.86610246,0.014996786,9.765529,0.89700371409351578079,0.044891283,9.812635,0.8619126,0.016103797,9.766055,0.89124631409351578108,0.007182605,9.801862,0.85054016,0.017775092,9.766474,0.886611641409351578112,-0.002992752,9.775525,0.8643068,0.019899463,9.766831,0.88262071409351578115,0.015562311,9.736021,0.9355343,0.022894554,9.767154,0.87896631409351578122,0.02873042,9.790489,0.96426475,0.026509019,9.767348,0.876704161409351578149,0.02813187,9.89763,0.97982705,0.030773178,9.767411,0.87585871409351578154,-0.004189853,9.982025,0.9911995,0.034950465,9.767365,0.87621471409351578156,-0.06404489,10.011354,0.9391256,0.038530078,9.767275,0.87708431409351578179,-0.08379706,9.960478,0.98461545,0.04096366,9.767243,0.87732311409351578182,-0.142455,9.930551,1.0121487,0.04289134,9.767168,0.87805211409351578184,-0.17357962,9.919178,1.1013328,0.043466073,9.767026,0.879597841409351578209,-0.17717093,9.966463,1.146224,0.04218224,9.766803,0.882145051409351578211,-0.18076223,9.999982,1.0690111,0.039667703,9.766509,0.885505261409351578212,-0.15083471,9.983223,1.0456676,0.03649397,9.766225,0.888774341409351578240,-0.15322891,9.962872,1.0684125,0.032674115,9.765909,0.89238651409351578242,-0.18255788,9.970653,1.0935516,0.027927507,9.765537,0.896602451409351578246,-0.2136825,9.935937,1.09834,0.022129707,9.765188,0.90056511409351578247,-0.19632454,9.835979,1.1408371,0.01573628,9.764819,0.904686331409351578266,-0.17537527,9.715671,1.1575965,0.009274463,9.764402,0.90926571409351578267,-0.13826515,9.680356,1.2186487,0.002744038,9.763981,0.91382391409351578281,-0.08499416,9.681553,1.2324153,-0.00470584,9.763595,0.91793731409351578303,-0.038307227,9.688137,1.1821371,-0.012486264,9.7633095,0.920901951409351578305,0.006584055,9.785701,1.1330559,-0.019824352,9.763135,0.92259881409351578307,0.049679685,9.8683,1.1360487,-0.026629722,9.763071,0.92310831409351578320,0.047884032,9.995792,1.1097125,-0.03271927,9.763088,0.92274291409351578338,-0.005386954,10.0987425,1.0851719,-0.038556162,9.763099,0.922388551409351578340,-0.09995792,10.125079,1.0875661,-0.04491291,9.7630415,0.922721861409351578346,-0.21547815,10.1143055,1.0384849,-0.052410133,9.762861,0.924235341409351578368,-0.3238158,10.043077,1.0055647,-0.061044764,9.762575,0.92670411409351578369,-0.40880993,9.870096,0.99179804,-0.07054719,9.762171,0.930283961409351578378,-0.46088383,9.648633,0.97264445,-0.080880515,9.7616825,0.93456551409351578406,-0.4985925,9.425972,1.0187328,-0.092471436,9.7610445,0.94012761409351578407,-0.4782418,9.256582,1.0480618,-0.10519984,9.7602825,0.94669791409351578409,-0.46088383,9.19553,1.0869676,-0.1183784,9.759519,0.95298721409351578440,-0.40821138,9.184756,1.1246762,-0.13174097,9.758871,0.957844441409351578442,-0.33039984,9.202713,1.0839748,-0.1448614,9.758438,0.960366551409351578445,-0.29029694,9.284116,1.1025299,-0.1572768,9.758318,0.959618751409351578452,-0.20590134,9.334992,1.1085154,-0.16943175,9.758409,0.956627371409351578468,-0.11552023,9.391256,1.127669,-0.18039694,9.75867,0.95194261409351578475,-0.044891283,9.510966,1.1641805,-0.18946221,9.759078,0.945983771409351578490,-0.009576807,9.635465,1.1162965,-0.19661896,9.759576,0.93936941409351578494,0.15562311,9.730036,1.0660183,-0.20274942,9.760295,0.930557971409351578498,0.2100912,9.7324295,1.0360907,-0.20606957,9.761188,0.92042121409351578522,0.24839842,9.690532,1.0163386,-0.20805469,9.762243,0.908695041409351578524,0.3429694,9.644443,0.9684546,-0.20924188,9.763448,0.895387771409351578527,0.41359833,9.650429,0.9295488,-0.20947237,9.764799,0.88046071409351578552,0.45549688,9.698911,1.0199299,-0.20860757,9.766239,0.864539741409351578555,0.47225627,9.7863,1.0773908,-0.20709486,9.76764,0.84895151409351578558,0.5153519,9.821015,1.0384849,-0.20525359,9.768991,0.833692131409351578566,0.504578,9.7958765,0.9247604,-0.20296697,9.770421,0.817346931409351578584,0.48961425,9.749189,0.7667431,-0.20123175,9.7719755,0.79897981409351578604,0.45549688,9.6767645,0.60333884,-0.20005584,9.773608,0.77905331409351578607,0.40581718,9.651027,0.5105635,-0.19973366,9.775282,0.757860541409351578608,0.3776853,9.767744,0.58538234,-0.20054062,9.7770405,0.73462551409351578636,0.43873745,9.985018,0.6218939,-0.20193416,9.778805,0.71034791409351578638,0.59615624,10.172364,0.44651863,-0.20261213,9.780614,0.68477921409351578640,0.6889315,10.207679,0.30765492,-0.20261729,9.782546,0.656613351409351578647,0.7224504,10.1621895,0.16280572,-0.20340763,9.7843895,0.62827921409351578671,0.7469909,10.110115,0.12150574,-0.2053353,9.786017,0.601762241409351578672,0.587178,9.9473095,0.28670564,-0.20832412,9.787343,0.57870181409351578678,0.3645172,9.932944,0.26994625,-0.21384196,9.788276,0.560646361409351578704,0.13706805,9.932944,0.2837129,-0.22262491,9.789042,0.54358891409351578706,-0.055066638,9.852738,0.2777274,-0.23411132,9.789672,0.52716091409351578708,-0.16879122,9.7641535,0.24959552,-0.24810058,9.79012,0.512213951409351578731,-0.13587095,9.796474,0.25498247,-0.2628808,9.7904625,0.49814651409351578733,-0.034715924,9.82341,0.25558102,-0.27695218,9.790752,0.484632341409351578750,0.14185645,9.883265,0.25438392,-0.28857604,9.791037,0.471911971409351578752,0.3357868,10.035895,0.31184477,-0.29696837,9.791358,0.45992741409351578760,0.38965634,10.189722,0.24839842,-0.30284488,9.791715,0.44832441409351578767,0.4938041,10.255563,0.2208651,-0.30809835,9.792148,0.435098861409351578785,0.57999533,10.203489,0.20590134,-0.31262887,9.792652,0.420267161409351578787,0.5770026,10.064027,0.17118542,-0.31751794,9.793164,0.404348131409351578798,0.61650693,9.940725,0.16220717,-0.3233376,9.793627,0.38819791409351578821,0.62009823,9.89763,0.09696517,-0.33103177,9.794008,0.371773541409351578824,0.5746084,9.801862,0.029927522,-0.34072202,9.794313,0.354524141409351578827,0.4902128,9.7240505,0.079008654,-0.35289216,9.794515,0.336684671409351578851,0.51116204,9.7240505,0.15502456,-0.36795,9.794545,0.3192191409351578853,0.47046062,9.711481,0.15861586,-0.38481233,9.794405,0.30320751409351578858,0.2908955,9.722853,0.13227965,-0.4037889,9.794098,0.288136451409351578868,0.14305355,9.726444,0.12210429,-0.42621765,9.793547,0.274224371409351578880,0.08678981,9.752781,0.15382746,-0.45199263,9.792704,0.262720081409351578896,0.004788403,9.698911,0.2220622,-0.48072082,9.791558,0.254351441409351578902,-0.13467385,9.68275,0.18255788,-0.5123865,9.79008,0.24935841409351578932,-0.27353755,9.676167,0.088585466,-0.54637283,9.78836,0.244765741409351578935,-0.4237737,9.671976,0.019153614,-0.5836196,9.786336,0.239637511409351578938,-0.6087258,9.673772,-0.047285482,-0.6236299,9.784001,0.234096261409351578958,-0.27473465,9.862315,-0.01436521,-0.6654814,9.781345,0.229832291409351578960,-0.2184709,9.720459,0.024540568,-0.7036211,9.778709,0.228437571409351578961,-0.17896658,9.660006,-0.013766659,-0.73966664,9.776002,0.23039111409351578981,-0.11133038,9.559449,-0.036511578,-0.7759379,9.773107,0.233982821409351578983,-0.074818805,9.569026,-0.04129998,-0.81293124,9.770017,0.237322541409351579001,0.017956512,9.569624,-0.005985504,-0.8485358,9.766951,0.238821491409351579002,0.050278235,9.533711,0.075417355,-0.8818254,9.7639675,0.24024071409351579007,0.10235212,9.489418,0.089782566,-0.9140688,9.760917,0.243689781409351579033,0.11731588,9.51755,0.12449849,-0.9454022,9.757823,0.248041571409351579036,0.109534726,9.56723,0.19812019,-0.9763081,9.754647,0.253105941409351579038,-0.03232172,9.634268,0.36870706,-1.0066301,9.751404,0.25926071409351579049,-0.19991584,9.964667,0.4345476,-1.0385118,9.747813,0.26837151409351579063,-0.3645172,10.073604,0.39384618,-1.0720831,9.743858,0.279753631409351579085,-0.59615624,10.076596,0.2657564,-1.1081418,9.739441,0.2927771409351579087,-0.83856916,9.983821,0.11372458,-1.1469598,9.734529,0.306315751409351579090,-0.9044097,9.937733,0.011971008,-1.1885628,9.729114,0.31947561409351579101,-0.80445176,9.926959,-0.005985504,-1.2310407,9.723403,0.332236561409351579127,-0.61052144,9.91798,-0.049679685,-1.2728747,9.717545,0.34571611409351579128,-0.32321724,9.871294,-0.07182605,-1.3126185,9.71176,0.35938221409351579130,-0.024540568,9.807847,-0.10055647,-1.3496803,9.706196,0.372146071409351579152,0.15083471,9.788095,-0.09935937,-1.3828049,9.701077,0.383860351409351579153,0.29029694,9.826403,-0.10115502,-1.4123697,9.696359,0.395293121409351579158,0.39803603,9.949704,-0.073023155,-1.4378206,9.692146,0.406637821409351579178,0.40402153,10.053851,-0.09995792,-1.458907,9.688433,0.419835151409351579180,0.46387658,10.113707,-0.073023155,-1.4770838,9.685027,0.434604231409351579196,0.64583594,10.234613,-0.037708677,-1.4926997,9.681897,0.450707971409351579200,0.8403648,10.344149,0.10055647,-1.5037649,9.679395,0.467330341409351579225,1.1899183,10.435727,0.40641573,-1.5088389,9.677741,0.484920051409351579227,1.5532384,10.465055,0.83976626,-1.5052447,9.677249,0.50543751409351579228,1.5735891,10.367492,1.1480197,-1.4949011,9.677509,0.5305491409351579247,1.9973627,10.428544,1.5562311,-1.479097,9.678398,0.557897451409351579249,1.7262194,10.281899,1.882441,-1.4530852,9.680574,0.587711451409351579265,1.3521254,10.152014,2.0392613,-1.4227494,9.683218,0.61763671409351579267,1.1468226,10.120889,2.2002714,-1.389161,9.686448,0.642923361409351579278,0.6218939,10.139444,2.1068976,-1.3528358,9.690465,0.65964291409351579302,0.8523358,10.674548,1.8513165,-1.3150463,9.695151,0.66715051409351579306,0.38726214,11.081563,1.5191209,-1.266789,9.701766,0.664351641409351579308,-0.01616086,11.558009,1.158195,-1.2149305,9.709422,0.649215641409351579340,-0.62009823,11.7543335,0.7026982,-1.1610365,9.717727,0.62304021409351579342,-0.60693014,11.996147,0.05566519,-1.1081295,9.726098,0.587754551409351579344,-0.6865373,11.9374895,-0.770933,-1.0520887,9.734844,0.54435391409351579353,-1.1755531,11.795034,-1.4065934,-0.98776853,9.744367,0.491972571409351579390,-1.6394296,11.467029,-1.7441759,-0.9221413,9.75362,0.432374541409351579393,-2.408567,11.066,-1.7711107,-0.8604283,9.761774,0.371272181409351579394,-2.6042929,10.829573,-1.5508442,-0.8040774,9.768661,0.31160391409351579397,-3.080739,10.734404,-1.2372037,-0.7425566,9.775098,0.257793661409351579401,-3.6828809,10.988788,-0.6739678,-0.6757884,9.7809105,0.217918531409351579430,-4.0402155,11.359888,-0.19692309,-0.61170614,9.785442,0.203273621409351579432,-3.982156,11.512519,0.36990416,-0.55394965,9.788591,0.216837581409351579434,-4.3688197,10.856507,0.6961141,-0.4967203,9.790814,0.252233541409351579452,-4.57113,9.99639,1.1701661,-0.44201812,9.7922125,0.295956051409351579453,-4.494515,9.211093,1.9452889,-0.38555846,9.792902,0.347617951409351579458,-4.19524,8.438962,2.6635494,-0.32222027,9.792898,0.40707211409351579479,-3.7714663,8.3390045,3.0364463,-0.24460857,9.792163,0.473416921409351579481,-2.6647465,9.077616,2.7114334,-0.15366434,9.790464,0.54184451409351579502,-1.1569979,9.625888,2.0655975,-0.04601868,9.788049,0.6021409351579504,0.1376666,9.702502,1.4957775,0.08205917,9.785182,0.643318361409351579508,1.3892355,9.621698,0.7368156,0.22554903,9.781497,0.66470561409351579539,2.7593174,10.794258,0.4890157,0.37502038,9.776485,0.67089321409351579541,3.6224272,11.187506,-0.27952304,0.53224015,9.769252,0.66993341409351579545,3.709217,10.490793,-0.6278794,0.6923005,9.75995,0.65914561409351579547,3.2261868,9.345766,-0.5494693,0.84656066,9.748672,0.64584861409351579561,2.7665,8.84059,-0.16280572,0.9829833,9.736317,0.638946351409351579578,2.1625626,8.4347725,0.3513491,1.1073148,9.722353,0.64817191409351579580,1.7788919,8.094796,0.91219085,1.2240361,9.7062435,0.67894421409351579593,1.5436616,7.511808,1.4502877,1.3348517,9.687699,0.73282011409351579612,1.4688427,6.6522894,2.1452048,1.4381319,9.666927,0.807891409351579613,1.5711949,6.4242415,2.1817162,1.5338436,9.643938,0.90121591409351579629,1.6873137,6.2644286,2.136825,1.6225275,9.619642,1.0001461409351579631,1.857302,6.2249246,2.0524294,1.7059709,9.594876,1.09471331409351579645,1.9782091,6.327875,2.0979192,1.7837687,9.57096,1.17698551409351579647,2.0290859,6.497265,2.171541,1.8541783,9.547929,1.25279091409351579660,2.0009542,6.68102,2.1278467,1.9189775,9.527048,1.31274631409351579675,2.030283,6.8204823,1.9925743,1.9717022,9.5100155,1.35735231409351579679,2.0667946,6.8186865,1.7723078,2.009488,9.497716,1.38770041409351579690,2.2451627,6.694188,1.5239093,2.0311577,9.490436,1.40585531409351579715,2.4929626,6.509236,1.3024458,2.0373278,9.487867,1.41422671409351579717,2.7820623,6.4344172,1.3311762,2.0294588,9.48915,1.4169351409351579719,3.1160536,6.651691,1.632247,2.009405,9.493091,1.41911761409351579727,3.4973302,7.221511,2.1517887,1.9791701,9.498842,1.42311691409351579745,3.7750576,8.1959505,2.8939912,1.9416962,9.505327,1.43142141409351579747,3.775656,9.15423,3.6541502,1.8988758,9.5113,1.44907691409351579765,4.0294414,9.800665,4.1862617,1.8549005,9.515964,1.47518861409351579767,4.1491513,9.93893,4.050989,1.8114477,9.518547,1.51205581409351579796,3.128623,9.285313,3.1435869,1.7747653,9.52059,1.54239481409351579798,-1.234211,13.850457,3.0603883,1.7386249,9.526969,1.54416131409351579816,-0.25198972,14.747684,1.3449428,1.6562865,9.545396,1.52069571409351579818,1.3922282,14.435839,-0.38367084,1.6067282,9.562899,1.46279571409351579819,3.3279405,13.243526,-0.8619126,1.6212051,9.572308,1.38312131409351579827,5.168483,10.997167,0.22385786,1.6992975,9.567883,1.31850081409351579843,6.633136,9.337985,3.269881,1.8174251,9.5473795,1.30953411409351579847,7.0808516,9.831191,6.928221,1.9658526,9.509896,1.36663931409351579865,5.504868,13.55178,8.711303,2.141335,9.456051,1.47247341409351579867,3.549404,17.568054,6.2458735,2.3006449,9.39864,1.59467241409351579879,1.988983,16.447567,2.771887,2.4109368,9.359117,1.6627381409351579895,0.45968673,13.460202,2.3481133,2.4740486,9.33893,1.68340671409351579914,-1.2868834,11.4359045,1.1665748,2.4915936,9.327168,1.72228721409351579915,-1.1216835,10.798449,-0.061650693,2.4698882,9.323905,1.77054761409351579919,-1.2354081,10.048465,1.0570401,2.4297879,9.326282,1.81300381409351579927,-1.9147629,9.925163,2.079364,2.375906,9.333168,1.84863771409351579944,-2.546832,10.447698,1.6861166,2.302215,9.349579,1.85891641409351579948,-2.6198552,10.216059,0.92296475,2.2153823,9.376352,1.82935071409351579965,-2.112883,9.716867,0.82240826,2.135298,9.405119,1.77613091409351579967,-1.4784195,9.539697,0.48841715,2.0690732,9.430487,1.71908241409351579999,-0.5243302,9.330803,0.32561144,2.012172,9.452022,1.6675911409351580004,0.17178397,9.363723,0.15682021,1.9585605,9.472154,1.61639991409351580006,0.8559271,9.923966,0.0712275,1.900971,9.49445,1.55310261409351580008,1.0384849,10.730812,0.12330139,1.8382803,9.518967,1.47661951409351580062,0.97264445,10.847529,0.25139117,1.7691416,9.5435705,1.40028081409351580064,0.825401,10.415376,0.26276365,1.6936817,9.56545,1.34312521409351580065,0.43873745,9.973047,0.1945289,1.6141014,9.583926,1.30898011409351580066,0.08379706,9.941324,0.23942018,1.5291597,9.601624,1.28096251409351580068,-0.29328972,9.987412,0.45609543,1.4366125,9.620715,1.2443451409351580087,-0.7793127,9.758167,0.50996494,1.335787,9.64061,1.2019571409351580088,-1.1587936,9.194333,0.40282443,1.2304004,9.659693,1.16054131409351580089,-1.2599486,8.726865,0.15322891,1.122764,9.6772,1.12320961409351580108,-1.283292,8.286931,-0.14963761,1.0173911,9.692414,1.09196231409351580109,-1.2300211,7.889493,-0.12988544,0.9146459,9.705346,1.06773831409351580124,-1.5394717,7.739257,0.022744916,0.8207486,9.715208,1.05426911409351580127,-1.7663223,7.6770077,0.28191724,0.73318136,9.722257,1.05384761409351580143,-1.620276,7.4226236,0.46208093,0.6532819,9.72679,1.06451321409351580163,-1.5388732,7.3950906,0.3477578,0.58080435,9.730067,1.07651161409351580165,-1.3724761,8.022371,-0.089184016,0.5107355,9.734205,1.07461731409351580168,-1.1354501,8.231265,-0.060453594,0.43675914,9.7405405,1.04952311409351580179,-0.8038532,8.531139,-0.029927522,0.35626143,9.74786,1.01129261409351580197,-0.001197101,8.938153,-0.050278235,0.27379057,9.754582,0.971365151409351580202,0.7541735,9.242816,-0.010773907,0.19141787,9.760036,0.935653031409351580208,1.3186066,9.524135,0.2765303,0.11752602,9.763732,0.90890931409351580238,1.9369092,9.874885,0.5686229,0.057151664,9.765596,0.894570951409351580242,2.5073278,10.05864,0.760159,0.010254121,9.765604,0.89624691409351580244,2.52289,9.7803135,0.91099375,-0.026329242,9.76344,0.91919171409351580268,2.3535004,9.522937,1.0283096,-0.06272837,9.758998,0.96353791409351580269,2.0189106,9.399037,1.0360907,-0.10407332,9.752719,1.02178761409351580271,1.6514006,9.121908,0.9768343,-0.15326665,9.745223,1.08514461409351580280,1.3599066,8.7532015,0.82360536,-0.21002741,9.737116,1.1466621409351580299,1.3180081,8.644265,0.7026982,-0.2741989,9.728439,1.2052751409351580300,1.3192052,8.862138,0.6769605,-0.34053785,9.719493,1.25931681409351580308,1.2497733,9.091981,0.8170213,-0.4047394,9.710059,1.3119921409351580331,1.1779473,9.361927,1.0342951,-0.46431598,9.699684,1.36781641409351580333,0.94211835,9.631275,1.2904748,-0.52087295,9.687846,1.42993451409351580343,0.7505822,9.707291,1.9764135,-0.57803637,9.674472,1.4969551409351580365,-0.0712275,9.345766,2.067393,-0.6378278,9.659182,1.56964841409351580367,0.15203181,9.357738,1.7938557,-0.7060225,9.643365,1.6362891409351580369,0.81043726,9.192537,1.1917139,-0.77104473,9.629425,1.68821011409351580397,1.661576,9.030331,0.88046765,-0.82421887,9.618577,1.72454171409351580399,2.3511062,9.221867,1.1857284,-0.86176544,9.610374,1.75170411409351580400,2.630629,9.426571,1.6208745,-0.8878229,9.603253,1.77754771409351580408,2.3630772,9.476251,1.8231846,-0.9045016,9.597744,1.79876531409351580433,1.5412674,9.66659,1.9590555,-0.91928387,9.593142,1.8157531409351580434,0.8714894,9.997588,2.0685902,-0.9353533,9.588537,1.83179491409351580444,0.55605334,10.071808,2.4462755,-0.9473611,9.585002,1.84408451409351580472,0.22026655,9.570822,2.2900538,-0.94867605,9.584354,1.84676541409351580474,0.06284779,9.172187,1.6310499,-0.9346898,9.58891,1.83017681409351580477,0.12749124,9.23683,1.7166426,-0.8988605,9.599444,1.79251361409351580499,0.48482585,9.513959,2.319383,-0.8418509,9.613527,1.74406961409351580501,0.12330139,9.448717,1.6579847,-0.7692047,9.629617,1.68795811409351580507,-0.79008657,9.021951,0.3321955,-0.6909623,9.648904,1.60985481409351580508,-1.827973,8.605359,-0.26156655,-0.6172629,9.669671,1.51223061409351580531,-2.7766755,8.403049,-0.46686932,-0.5397266,9.691736,1.39618811409351580532,-4.033033,8.804677,-0.830788,-0.4574343,9.713212,1.27069761409351580540,-3.8349125,15.413871,-1.0067618,-0.37224773,9.733144,1.13918221409351580571,-2.307412,19.301456,-0.059855044,-0.27805755,9.751815,0.997593761409351580573,-0.866701,19.608511,0.08619126,-0.14161986,9.764913,0.89265321409351580574,-1.6112977,19.608511,-0.6027403,0.031271245,9.770964,0.835278871409351580597,-2.498948,18.612524,-0.37110126,0.17822011,9.772177,0.80199681409351580599,-2.6234465,14.709975,0.42197806,0.27336073,9.770417,0.79662321409351580600,-2.0847511,10.897807,1.6418238,0.3325607,9.765254,0.83641641409351580608,-2.8778305,8.685565,2.9771898,0.39060223,9.756923,0.905667071409351580631,-4.408922,8.410232,3.669114,0.42290568,9.745939,1.00409921409351580632,-4.0078936,11.23958,4.0677485,0.433602,9.735045,1.10057031409351580640,-1.9075803,11.691485,3.560178,0.45237023,9.72616,1.16943441409351580668,-0.7236475,9.966463,2.9400797,0.5378392,9.719076,1.19193261409351580669,0.1376666,8.746018,2.5635915,0.6791549,9.711996,1.17740481409351580670,0.7009025,8.268375,2.3798366,0.834572,9.703355,1.14838911409351580696,1.4137762,7.9541364,1.8267759,0.98081136,9.692572,1.12358641409351580697,1.887828,7.53575,1.0187328,1.1169469,9.6800785,1.10404291409351580702,2.473809,7.475296,0.5770026,1.2395804,9.667147,1.08631251409351580708,2.6731262,7.369353,0.48722005,1.3522216,9.653142,1.07645771409351580731,2.243367,6.823475,0.66259533,1.4602411,9.637588,1.07470951409351580732,2.0500352,5.1744685,0.94451255,1.5558853,9.620521,1.09325351409351580741,1.9123687,4.9482164,1.3144168,1.6405579,9.601815,1.13318361409351580763,1.733402,4.7159786,1.3174095,1.717328,9.581148,1.19280491409351580765,1.8130093,4.5441947,1.2192472,1.7876787,9.559041,1.26464951409351580769,1.738789,4.510676,1.292869,1.8509144,9.53667,1.34030761409351580800,1.5478514,4.5860934,1.4239515,1.9041688,9.515415,1.41470781409351580801,1.4550761,4.8853683,1.4688427,1.9467955,9.496131,1.4845481409351580802,1.2898762,5.2444987,1.3808558,1.9786907,9.479722,1.54598311409351580808,1.2006922,5.60722,1.2078748,1.9999701,9.467021,1.59562971409351580822,1.234211,6.030994,1.3910311,2.010582,9.459003,1.62948511409351580839,1.2437878,6.432023,1.6130934,2.0163221,9.453168,1.65602891409351580840,1.6837224,6.818088,1.6136919,2.011699,9.451234,1.67260531409351580864,2.2379801,7.3244615,1.7477672,1.9982216,9.452534,1.68140281409351580866,2.7952304,8.090606,1.8387469,1.9738995,9.457207,1.68384851409351580869,2.6821043,8.999206,2.191293,1.937615,9.46539,1.68001531409351580897,2.3678656,9.871294,2.682703,1.8860452,9.476883,1.67388221409351580898,2.0219033,10.336368,3.3423057,1.8217334,9.490705,1.66679191409351580900,2.3229742,10.710462,3.6595373,1.7541137,9.504945,1.65816351409351580908,5.99E-04,14.299968,4.6375685,1.6978008,9.517824,1.64282661409351580925,-0.17357962,16.731878,3.2650926,1.616412,9.533663,1.63306011409351580941,0.79846627,15.276802,0.6985083,1.5299048,9.552674,1.60505861409351580942,2.5480292,13.727156,-0.7685388,1.4875574,9.567505,1.55577341409351580957,4.97156,12.364256,-0.6985083,1.5084951,9.572639,1.50313651409351580960,6.1716533,9.9928,0.83378077,1.5891811,9.562845,1.4821921409351580972,6.893505,8.535329,4.207211,1.7010344,9.536004,1.53019691409351580990,7.1963716,9.846154,9.23264,1.8432117,9.490493,1.64424311409351580991,4.6058455,14.231733,10.676943,2.0232062,9.421474,1.8201181409351581007,3.256713,19.028517,6.2889695,2.1704762,9.353683,1.99199521409351581008,1.7226281,19.285295,3.3327289,2.255751,9.3171425,2.06708551409351581029,-2.2469583,16.159065,0.81163436,2.2805529,9.306302,2.08859321409351581031,-4.095282,13.7086,-1.9680338,2.2457209,9.315521,2.08523561409351581046,-3.9773676,13.244724,-0.9056068,2.1880183,9.333646,2.06543181409351581067,-4.188656,13.261483,0.7445967,2.1033504,9.35418,2.0604921409351581069,-4.0479965,12.273875,0.59615624,1.9849937,9.375684,2.08008531409351581071,-3.7942111,10.280104,-0.15741876,1.8580291,9.398357,2.0949931409351581096,-3.3441012,8.781932,0.4429273,1.7452437,9.420097,2.09434771409351581097,-2.706645,8.078635,1.2958617,1.6500468,9.437386,2.09367851409351581100,-0.48362875,7.9972324,1.5143325,1.5720091,9.450854,2.09297181409351581109,0.9504981,7.9732904,1.7196354,1.5148207,9.463694,2.0770721409351581124,1.5328877,8.158841,1.4478935,1.4642181,9.4793005,2.04189161409351581140,1.453879,8.504803,1.1043255,1.4115782,9.498199,1.99048721409351581142,1.3060371,8.826823,1.1360487,1.353057,9.518238,1.93462721409351581155,1.0217255,9.242217,0.92176765,1.2872779,9.5387745,1.87752681409351581175,0.6206968,9.697714,0.4141969,1.2137536,9.559765,1.81882021409351581177,-0.038307227,9.816227,-0.007781155,1.1274221,9.582347,1.75440281409351581192,-0.7170634,9.675568,-0.34356794,1.0285028,9.606994,1.67876841409351581195,-1.2431892,9.281721,-0.6051345,0.92021704,9.632457,1.59353411409351581214,-1.8010383,8.89446,-0.7727286,0.8077793,9.656111,1.50911571409351581215,-2.046444,8.701726,-0.9475053,0.6929219,9.67653,1.43354121409351581222,-1.9255368,8.533533,-0.93014735,0.5809457,9.693226,1.36904121409351581256,-1.661576,8.561666,-0.6631939,0.48107544,9.705952,1.31661831409351581261,-1.4395138,8.886678,-0.35254622,0.39890388,9.714599,1.2797821409351581264,-1.0737995,9.205706,0.04369418,0.326105,9.720848,1.25265981409351581268,-0.6973112,9.091382,0.45130703,0.2661609,9.723474,1.24643811409351581300,-0.5734113,8.722076,0.46866497,0.21268997,9.723033,1.2600671409351581302,-0.5883751,8.291121,-0.20590134,0.15441386,9.721163,1.28278951409351581303,-0.79367787,8.167819,-0.09876082,0.083090425,9.720538,1.29406711409351581304,-0.6865373,7.5944076,0.11192893,-0.003876841,9.721746,1.28764241409351581309,0.1412579,8.30369,0.3764882,-0.10179085,9.723513,1.27017691409351581325,1.1587936,9.139865,0.36631286,-0.19917065,9.724216,1.25313541409351581345,2.0093338,8.905233,0.5243302,-0.28321683,9.72323,1.24456691409351581347,2.44029,8.49343,0.7350199,-0.34993887,9.720378,1.24987861409351581349,2.6060886,8.191761,1.0103531,-0.40455475,9.715865,1.26834491409351581361,2.409764,8.085219,1.4526819,-0.45316747,9.710076,1.29593561409351581385,2.2254105,8.0127945,1.8543092,-0.4968923,9.701281,1.34486021409351581387,1.934515,7.872135,1.7675194,-0.54065776,9.688876,1.41554341409351581389,1.7160441,7.502231,1.5029601,-0.5920936,9.673919,1.49503281409351581418,1.5526398,7.3406224,1.2557588,-0.65572774,9.658134,1.56870321409351581420,1.4544775,7.591415,1.1282675,-0.733186,9.642405,1.62999571409351581424,1.6891093,8.249821,1.1390414,-0.81776136,9.627461,1.67738461409351581446,1.7998412,9.102755,1.5113398,-0.89741397,9.614287,1.71188591409351581448,1.5556326,9.61272,2.1039047,-0.9666018,9.602129,1.74217621409351581449,0.961272,10.027515,2.12246,-1.031765,9.588867,1.77749441409351581476,0.08619126,10.294469,1.9446903,-1.0976462,9.574802,1.81349041409351581478,0.15562311,10.09575,0.74998367,-1.1674616,9.559754,1.84892671409351581488,1.2814964,9.516354,0.516549,-1.2316487,9.546027,1.87797781409351581489,2.0326772,9.484032,1.2437878,-1.2813485,9.533491,1.90816431409351581517,2.533664,9.766547,2.267309,-1.3164886,9.522978,1.93652821409351581523,2.2104468,9.857527,2.8125885,-1.3374789,9.514871,1.9618311409351581526,1.4478935,9.900024,2.6473885,-1.3506334,9.508089,1.98555491409351581555,0.9780314,9.998186,2.6318262,-1.3565967,9.503333,2.00416781409351581556,0.46746787,9.999982,3.020884,-1.3499604,9.502577,2.01222251409351581557,0.08319851,9.818622,2.7048495,-1.3299177,9.506599,2.00655751409351581570,0.08319851,9.52593,1.8860323,-1.292642,9.51711,1.980931409351581571,0.4165911,9.522339,2.1499932,-1.2464094,9.531653,1.94021271409351581585,0.8834604,10.028712,2.4732103,-1.174939,9.551374,1.88709961409351581589,0.11552023,10.011354,1.3808558,-1.0862117,9.575404,1.81718331409351581606,0.02932897,9.712678,0.18974048,-0.99611866,9.603637,1.7170581409351581609,-1.3024458,8.835203,-0.17657238,-0.8963228,9.6355715,1.58831481409351581622,-2.4863784,8.634089,-0.39983168,-0.7958096,9.6666975,1.44639521409351581636,-3.5853171,9.845556,-0.7685388,-0.69347847,9.695448,1.29913641409351581653,-4.598663,13.229161,-1.0193313,-0.58860666,9.720999,1.15157231409351581654,-4.0013094,18.264767,-0.4201824,-0.4826651,9.742192,1.01345621409351581670,-1.6514006,19.608511,-0.9139865,-0.35945576,9.757477,0.91260121409351581671,-3.221997,19.583372,-1.5981296,-0.1939417,9.768008,0.84781791409351581687,-3.6733038,17.154455,-0.8714894,-0.06391904,9.774443,0.79157781409351581689,-3.2381577,12.664728,0.5847838,0.020918066,9.775477,0.78102811409351581711,-2.4863784,8.752603,2.1033063,0.07097389,9.771294,0.82896531409351581712,-3.7882257,6.4978633,3.53863,0.103413574,9.762257,0.926305231409351581721,-4.869208,9.940127,4.514866,0.116896674,9.750161,1.04455581409351581737,-2.9430726,12.360066,4.2161894,0.115244776,9.737772,1.15451981409351581745,-1.3437457,10.043077,3.0262709,0.16335188,9.729207,1.21910251409351581771,0.1364695,8.425795,2.3331497,0.2831502,9.725952,1.22314311409351581773,0.6428431,7.0186024,2.2888567,0.43784446,9.724284,1.1903651409351581776,1.122282,6.7827735,2.3301568,0.5906965,9.7205515,1.15427171409351581801,1.0019734,6.2650275,1.903989,0.733286,9.714178,1.12581611409351581802,1.79206,6.4110737,1.0552444,0.86886215,9.705223,1.10638341409351581804,2.5300727,6.5984197,0.56084174,0.99866253,9.694614,1.08973121409351581827,2.7922378,6.411672,0.39743748,1.1249115,9.681604,1.08236171409351581829,2.5917234,5.883152,0.46088383,1.2428218,9.665901,1.09367181409351581830,1.7477672,5.106832,0.57640404,1.3437477,9.648587,1.12671341409351581843,1.3814543,4.5423994,1.0773908,1.4236832,9.630847,1.17911721409351581864,1.258153,4.0839095,1.3150153,1.4925442,9.611961,1.24614691409351581866,1.2467805,4.1683054,1.4395138,1.5558943,9.592075,1.31972581409351581870,1.0785879,4.4101195,1.4586674,1.6131858,9.572199,1.39321511409351581896,0.943914,4.835689,1.4526819,1.6625147,9.553796,1.45994211409351581898,0.8762778,5.3438582,1.5167267,1.7070897,9.536278,1.52172021409351581901,0.89184016,5.979519,1.678934,1.7423629,9.521719,1.57208281409351581922,1.1270704,6.649895,1.7429788,1.7696838,9.510214,1.61073331409351581923,1.520318,7.24665,1.7082629,1.7895509,9.502091,1.63650511409351581937,1.8064252,7.5471225,1.8914193,1.8006256,9.497967,1.64825671409351581954,2.2481554,7.579444,2.256535,1.7998238,9.498046,1.64868151409351581955,2.4785974,7.4591355,2.6803088,1.7855728,9.501694,1.64314341409351581972,3.0747535,8.037933,2.7569232,1.753869,9.50908,1.63453851409351581973,3.4410665,9.306262,2.7275944,1.7054482,9.520747,1.61777681409351581987,3.721188,10.912173,2.873042,1.6409279,9.536668,1.59050361409351581990,3.3201592,12.057798,3.9785647,1.5668848,9.554792,1.55602671409351582012,2.8496985,11.645996,4.6621094,1.4910122,9.571666,1.52658931409351582015,2.7401638,9.898229,2.9741971,1.4178256,9.586598,1.50242831409351582029,-0.8774749,15.276802,3.4033577,1.3651001,9.601641,1.45444071409351582043,0.25019407,16.675016,-1.1109096,1.2768513,9.620598,1.4086061409351582044,2.356493,14.898519,-1.845331,1.2279134,9.640119,1.3155821409351582051,5.294777,12.955026,-1.0055647,1.2619057,9.645702,1.24032761409351582070,5.834071,10.597934,3.2124202,1.365445,9.632677,1.23186181409351582071,6.096236,11.833342,8.94773,1.4879831,9.600121,1.33940571409351582088,5.486912,15.394717,8.817246,1.6393574,9.543097,1.55313111409351582089,4.1132383,18.555063,5.379771,1.8028566,9.479428,1.74943861409351582114,0.5907693,17.937958,4.128801,1.948579,9.429719,1.85844741409351582116,-2.734777,14.458584,1.5574282,2.0415158,9.402994,1.89376041409351582129,-3.3435028,11.834539,-1.9734207,2.0911946,9.394616,1.88108241409351582165,-2.6479871,10.655395,-0.79487497,2.112109,9.393377,1.86382441409351582170,-2.119467,9.957485,1.4706384,2.1035728,9.390897,1.88584761409351582177,-1.8177977,9.80665,1.644218,2.0652285,9.388756,1.93816711409351582181,-1.7669208,9.100959,1.4275428,2.0037825,9.392423,1.98434941409351582185,-1.6238673,8.401254,1.6663644,1.9354503,9.402083,2.0063051409351582206,-1.1851299,8.51857,1.9782091,1.8717345,9.41386,2.0115241409351582209,-0.38307226,9.187749,1.4209588,1.8165439,9.426012,2.0052031409351582211,0.51595044,9.623494,0.65541273,1.7672229,9.442212,1.97280071409351582226,1.3670892,9.672575,0.31184477,1.7194146,9.461587,1.92155671409351582227,0.7811083,10.604518,-0.61890113,1.666378,9.486713,1.84277811409351582230,0.27952304,10.453085,-0.18375498,1.5923682,9.51816,1.74338161409351582255,-0.22445641,10.019135,0.24839842,1.4999387,9.548915,1.65492631409351582258,-0.8050503,9.711481,0.2220622,1.3899647,9.575606,1.59566341409351582276,-1.2868834,9.679757,0.49081135,1.2661248,9.598385,1.56151331409351582277,-1.714847,9.422979,0.7386112,1.132921,9.619829,1.5315931409351582281,-1.8746599,8.721478,0.6961141,0.99556893,9.6408615,1.49433981409351582289,-1.7585411,8.185776,0.4189853,0.8604998,9.659841,1.45512871409351582310,-1.567005,7.835025,0.10594343,0.73410565,9.675778,1.4180231409351582312,-1.4383167,7.6440873,-0.13587095,0.61996955,9.689231,1.38015811409351582324,-1.1803415,7.888296,-0.1412579,0.51529235,9.700969,1.34018171409351582344,-1.0073603,8.540117,0.12090719,0.42929637,9.710618,1.29999431409351582346,-1.003769,9.234436,0.374094,0.36442378,9.717573,1.26741661409351582350,-0.93134445,9.139266,0.33159694,0.31095612,9.721722,1.24972081409351582381,-0.92296475,8.5538845,-0.08259996,0.25561935,9.723329,1.2497721409351582383,-1.0324994,8.109759,-0.57041854,0.18779649,9.723733,1.25863361409351582384,-1.3126211,7.8386164,-0.7044938,0.10340592,9.725331,1.25604511409351582393,-0.98102415,8.475474,-0.33399114,0.001043637,9.728832,1.23296191409351582419,-0.04309563,8.725668,-0.06823475,-0.11071876,9.7324505,1.19897351409351582422,1.2533646,8.955511,0.07062895,-0.21932511,9.734281,1.16879251409351582449,2.0416555,8.501212,0.31603462,-0.31640798,9.73446,1.14479921409351582450,2.552219,8.27496,0.87807345,-0.4026571,9.732316,1.13591281409351582452,2.7377696,8.3150625,1.4885949,-0.47262943,9.728007,1.14581111409351582453,2.6156654,8.261193,1.8124107,-0.52683544,9.721011,1.1810041409351582470,2.4355016,7.9852614,1.9213469,-0.5700122,9.710452,1.24603021409351582471,2.1529858,7.506421,1.8393455,-0.6101287,9.69636,1.33370041409351582486,1.7142484,6.979098,1.6154876,-0.655547,9.680115,1.42689161409351582500,1.5053543,7.001843,1.3485341,-0.7135161,9.663009,1.51247121409351582525,1.7010803,7.4986396,1.1599907,-0.78405106,9.646088,1.58387921409351582527,1.8956091,8.258799,1.1833342,-0.8584507,9.630408,1.63972181409351582530,1.8363527,8.981848,1.6370354,-0.9248816,9.61717,1.68078021409351582531,1.7423803,9.240421,2.1140802,-0.98468703,9.604326,1.71979311409351582563,1.340753,9.186552,1.9662381,-1.0380659,9.591053,1.76195631409351582565,0.76195467,9.431359,1.9973627,-1.0906674,9.575882,1.81199821409351582568,0.53689975,9.697714,2.0901382,-1.1420543,9.559177,1.86768361409351582572,0.8846575,9.241618,1.4065934,-1.1884805,9.542421,1.92356161409351582596,1.9123687,8.833407,0.97025025,-1.2269813,9.528615,1.96733451409351582597,2.3900118,9.579201,2.9532478,-1.2546833,9.519603,1.99331591409351582604,1.8028339,9.824607,3.1944637,-1.2729313,9.511363,2.02089831409351582623,0.9504981,10.155006,2.8449101,-1.2939894,9.503178,2.04587461409351582624,0.5057751,10.637438,2.8646624,-1.315656,9.496677,2.0621711409351582630,-0.08259996,10.677541,2.9993362,-1.3295428,9.493997,2.06561161409351582658,-0.43514615,10.050261,2.463035,-1.3423194,9.493285,2.06060621409351582659,-0.24720132,9.510367,1.2348095,-1.3413763,9.4997635,2.03115081409351582665,0.32920274,9.683349,1.3910311,-1.316311,9.514944,1.97574061409351582671,0.9475053,10.350733,2.5139117,-1.2620275,9.535881,1.90910071409351582690,0.7200562,10.549451,1.8567034,-1.1851438,9.559884,1.83696851409351582711,-1.0019734,10.065823,0.15442601,-1.0991809,9.587736,1.74285081409351582713,-1.8477252,9.509769,-0.3561375,-1.0173372,9.6183815,1.6193061409351582714,-2.9364884,8.972271,-0.89662856,-0.930742,9.649729,1.47878921409351582740,-3.6140475,9.40203,-1.3221979,-0.8382676,9.680304,1.32644411409351582741,-4.395156,11.891401,-1.1659763,-0.7368562,9.709409,1.16396581409351582742,-4.489128,16.42542,-0.7954735,-0.63912725,9.734564,1.00009251409351582750,-3.2734723,19.57619,-0.30107087,-0.53533024,9.754874,0.852188351409351582769,-2.071583,19.608511,-0.6332663,-0.4024014,9.769553,0.75120361409351582770,-3.2309752,19.608511,-1.484405,-0.2488378,9.779065,0.691648661409351582785,-3.9067385,14.920665,0.26036942,-0.14318119,9.783775,0.6539331409351582811,-2.9227216,11.549629,1.9991584,-0.08324016,9.782233,0.68658291409351582813,-1.7932571,7.8062944,3.1238346,-0.037703637,9.775442,0.780825561409351582815,-1.2910733,4.8404775,3.6475663,0.011793167,9.764451,0.908703451409351582846,-3.289633,5.711368,4.526837,0.06734065,9.752195,1.02983891409351582847,-2.7766755,10.286089,4.985925,0.112897374,9.740979,1.12738291409351582848,-0.7649474,10.486604,4.6579194,0.17166871,9.7320595,1.19496381409351582850,0.8002619,9.251794,4.0623617,0.26900265,9.724375,1.238771409351582870,1.5472529,7.809886,2.8832173,0.42736652,9.718649,1.23920131409351582872,2.022502,7.2424603,1.7489643,0.60500646,9.713293,1.20677691409351582888,2.2780828,7.0227923,0.62009823,0.7686341,9.707021,1.16333461409351582904,2.5079262,7.128137,-0.088585466,0.9113837,9.699864,1.11911141409351582906,2.8993783,7.368156,-0.27712885,1.038082,9.691305,1.08230441409351582922,2.0638018,6.727108,-0.035314474,1.1543509,9.680148,1.06423211409351582938,1.5155296,6.005855,0.2885013,1.2511364,9.667,1.07430981409351582939,1.5101427,5.7682304,0.7739257,1.3314196,9.652268,1.10971761409351582951,1.5352819,5.3049526,1.0947487,1.4073497,9.635054,1.1642551409351582952,1.5125369,4.8745947,1.1031284,1.4809477,9.616174,1.22735991409351582966,1.3964181,4.6920366,1.0636241,1.5495976,9.595901,1.29917721409351582970,1.4059949,4.8823757,1.1540052,1.6075801,9.57612,1.37259821409351582983,1.3904326,5.171476,1.271321,1.6545521,9.557611,1.44392231409351583014,1.4856021,5.4539914,1.2300211,1.6902615,9.541029,1.5106971409351583017,1.4167689,5.7598505,1.2413936,1.7146703,9.52756,1.56712991409351583021,1.3084313,6.090849,1.3024458,1.7262478,9.518467,1.60911131409351583064,1.2449849,6.39611,1.4993688,1.7242488,9.51417,1.63643361409351583067,1.1623849,6.6085954,2.0374656,1.7085322,9.514209,1.65261941409351583070,1.3311762,6.939594,2.7521348,1.678447,9.51771,1.66325941409351583075,1.9069817,7.821857,3.4039562,1.6332521,9.52406,1.67187521409351583078,2.1493945,9.028535,4.0414124,1.584737,9.53064,1.68104571409351583080,2.8802247,10.827777,4.1138372,1.5239577,9.539199,1.68868061409351583106,2.7497406,11.783662,4.545392,1.4612899,9.548954,1.68893021409351583107,3.2632968,11.877635,3.6487634,1.3991345,9.559328,1.68287071409351583109,3.8295257,11.628039,2.2828712,1.3565222,9.571492,1.64826011409351583110,0.90021986,15.136143,4.1054573,1.3394554,9.586216,1.5750231409351583144,0.33159694,17.345392,2.8443117,1.2929683,9.602532,1.51327571409351583146,1.3970166,16.27279,-0.13227965,1.2446609,9.618668,1.44998371409351583148,2.979584,14.903307,-1.3988123,1.2485799,9.629773,1.37073341409351583151,6.8372416,9.696517,0.99898064,1.3014214,9.629315,1.32400271409351583182,7.8888946,8.150461,4.4035354,1.4079173,9.606716,1.37811031409351583184,6.2045736,9.267955,9.507974,1.5357641,9.570534,1.48885821409351583185,4.836886,13.963583,8.969278,1.6722926,9.516589,1.67582291409351583210,3.7989995,18.512566,4.6022544,1.8013747,9.464782,1.8284841409351583211,0.84096336,17.541718,3.645172,1.9062785,9.437426,1.86319431409351583212,-2.677316,14.586674,2.8461072,1.9546804,9.428422,1.85862451409351583238,-3.570952,12.6461735,-0.43754035,1.9425458,9.428592,1.87044021409351583240,-3.5835214,11.65677,-1.1875241,1.9009478,9.43335,1.88910951409351583242,-3.3321302,11.102511,-0.074220255,1.8351808,9.439771,1.92178321409351583251,-3.3464954,10.961254,0.14065935,1.7470124,9.448317,1.96154651409351583267,-3.5529952,10.000581,-0.40282443,1.6401998,9.463313,1.98137831409351583271,-3.164536,9.006987,-0.20111294,1.5306414,9.481474,1.98222091409351583284,-2.5558102,8.826823,0.4794389,1.43821,9.498865,1.96812031409351583311,-1.6555905,9.069835,0.66020113,1.3582277,9.513049,1.95639881409351583313,-0.57161564,8.948329,0.6793547,1.2978396,9.524873,1.93979641409351583315,0.5674258,8.404246,1.0193313,1.250025,9.537239,1.91021291409351583351,1.0241197,7.807492,1.1174936,1.2051485,9.550625,1.87178531409351583352,0.81522566,7.632715,1.0720038,1.1529384,9.564774,1.83200811409351583354,0.3238158,8.94773,1.7824832,1.0899962,9.5789385,1.79616791409351583355,0.06344634,9.718064,1.5023615,1.0149014,9.592699,1.76649051409351583368,-0.3321955,10.178948,0.85054016,0.9304392,9.608228,1.72818491409351583371,-1.021127,10.012551,0.09696517,0.8382541,9.627563,1.66666761409351583385,-1.3311762,9.576208,-0.5231331,0.740912,9.648475,1.59008531409351583401,-1.4311341,9.035119,-0.94211835,0.6406519,9.6704,1.49777351409351583406,-1.4676456,8.600571,-1.0253168,0.53987366,9.69012,1.40731591409351583423,-1.316811,8.765771,-0.7254431,0.44344538,9.70624,1.32766191409351583424,-0.9516952,9.326612,-0.3196259,0.36026853,9.718627,1.26050511409351583430,-0.6835446,9.969456,0.14065935,0.29714692,9.727348,1.20863561409351583460,-0.40521863,10.127473,0.4985925,0.25386772,9.732306,1.17820941409351583463,-0.30645782,9.400234,0.38486794,0.22227636,9.733668,1.17333511409351583465,-0.23044191,8.8884735,0.142455,0.19032271,9.732111,1.19171011409351583473,-0.10115502,8.591593,-0.1388637,0.14832556,9.729323,1.22009341409351583499,-0.2789245,8.2593975,-0.19033903,0.08958076,9.727906,1.23701541409351583502,-0.15682021,8.535928,0.08738836,0.018119559,9.72743,1.2438421409351583522,0.027533319,8.723872,0.044292733,-0.07641172,9.728741,1.2313281409351583524,0.75596917,8.744822,-0.013766659,-0.18510146,9.7299385,1.21013241409351583526,1.614889,8.735844,0.97384155,-0.28984022,9.729383,1.19394371409351583531,2.397793,9.414001,1.536479,-0.378315,9.725813,1.19826521409351583565,2.4905684,8.911219,1.661576,-0.44364312,9.7193575,1.22787541409351583568,2.416348,8.112154,1.5436616,-0.49673206,9.709358,1.28531481409351583571,2.0201077,7.4627266,1.4263457,-0.54580337,9.695921,1.36439311409351583592,1.7381904,7.1766195,1.2743138,-0.59907246,9.67981,1.45355091409351583594,1.6944963,6.979098,1.1139023,-0.65917236,9.66268,1.53899571409351583595,1.9189527,6.8569937,1.0989386,-0.72714114,9.644771,1.61865761409351583605,2.2104468,7.037756,1.3066356,-0.79741585,9.627533,1.68675161409351583633,2.3331497,7.4244194,1.4514848,-0.86711895,9.611049,1.74534261409351583635,2.328361,7.8607626,1.8854338,-0.9312414,9.595818,1.79540571409351583638,2.0709844,8.191162,2.1392193,-0.9857918,9.581206,1.84366851409351583656,1.3521254,8.637083,2.36188,-1.0335302,9.566145,1.89501671409351583657,0.5351041,9.0429,2.5731683,-1.0816333,9.54992,1.94922771409351583662,0.24480712,9.188348,2.212841,-1.1340337,9.532616,2.00339821409351583686,0.43394905,8.915408,1.0869676,-1.1885167,9.516589,2.0475231409351583688,1.2018893,8.973468,0.6452374,-1.2404348,9.505605,2.06765371409351583703,1.7046716,9.813234,1.3126211,-1.2838352,9.500598,2.0641671409351583707,1.6891093,10.549451,2.047641,-1.318817,9.497699,2.05544331409351583731,1.364695,11.231799,1.851915,-1.3478881,9.495864,2.0450331409351583733,1.0324994,11.463438,1.4496891,-1.3725375,9.495268,2.03135751409351583735,0.6997054,11.502942,1.5436616,-1.3913243,9.49727,2.00910191409351583755,0.5105635,10.982801,1.9913772,-1.4014465,9.502952,1.97490721409351583756,0.1436521,10.217256,1.2964603,-1.4008919,9.512342,1.92957221409351583764,0.42676646,9.920375,0.4890157,-1.3880346,9.526311,1.86899281409351583787,1.2503718,9.864111,1.8579005,-1.3499368,9.545812,1.7959831409351583789,0.96067345,9.689933,2.7311857,-1.2806381,9.568224,1.72611281409351583793,-0.33039984,8.845977,1.7076644,-1.2002922,9.591643,1.65228511409351583825,-1.2036849,7.9152308,0.6913257,-1.1224645,9.616919,1.5573451409351583826,-2.6581624,7.1227503,0.439336,-1.0443559,9.642695,1.44849741409351583828,-3.54282,7.0545154,0.3453636,-0.95503837,9.669333,1.3275111409351583832,-4.277241,8.6017685,0.21188685,-0.8537944,9.695364,1.20055621409351583861,-4.4340615,12.443863,0.12090719,-0.744708,9.719378,1.07215111409351583865,-3.2213984,17.89546,1.0947487,-0.6249027,9.740392,0.951138561409351583868,-0.8038532,19.608511,1.9327193,-0.47661543,9.756394,0.86947571409351583889,-0.5267244,19.608511,0.18734628,-0.2799374,9.766328,0.84314271409351583891,-2.1398177,19.608511,-1.376666,-0.098434076,9.771865,0.819361451409351583893,-2.7431567,17.781736,-0.8218097,0.007349998,9.7750225,0.786962871409351583905,-0.93732995,8.962095,2.3546975,0.05374781,9.773946,0.798433071409351583932,-1.9087774,7.243657,4.0497923,0.100764595,9.767369,0.87105271409351583934,-4.098873,9.236232,4.4597993,0.13494106,9.756278,0.98347721409351583937,-2.1458032,12.137405,3.804985,0.14174084,9.743838,1.09906721409351583957,-0.08619126,11.052833,2.6168625,0.17560413,9.735065,1.1696361409351583958,0.7703344,8.686762,2.1547816,0.28062484,9.731844,1.17595061409351583963,1.3257892,7.8583684,2.2296004,0.43647262,9.730042,1.14285741409351583985,1.2569559,7.3723454,1.9261353,0.5953419,9.725993,1.10500431409351583987,1.3102269,7.3507977,1.3808558,0.73656845,9.718794,1.08301961409351584013,1.9129672,7.727885,0.7565677,0.8630163,9.7094,1.07383861409351584015,2.1523874,7.7829514,0.2825158,0.9840957,9.698044,1.07232571409351584017,2.0159178,7.1610575,0.19153613,1.0994124,9.684413,1.08343181409351584047,1.9249382,6.26383,0.38965634,1.2069273,9.6691065,1.10549391409351584048,1.4443022,5.337274,0.599149,1.2985817,9.651912,1.15096061409351584049,1.0061632,4.643554,0.6745663,1.3748081,9.633413,1.21558191409351584052,0.98102415,4.2197804,0.8146271,1.4412624,9.613729,1.29204421409351584066,1.2162545,4.264672,1.1168951,1.5024844,9.592876,1.37464441409351584084,1.3072342,4.83928,1.3365631,1.5603209,9.570924,1.46054421409351584086,1.2593501,5.357625,1.2659341,1.6124519,9.54934,1.54288031409351584101,1.1803415,6.0507464,1.4383167,1.6559292,9.530466,1.61199441409351584115,1.3784616,6.297349,1.5233108,1.6888099,9.515854,1.66338341409351584117,1.4616601,6.575675,1.4700398,1.7121009,9.50584,1.6964941409351584134,1.4263457,6.71813,1.4293385,1.7241741,9.501233,1.71002361409351584135,1.5436616,6.8462195,1.5310919,1.7304751,9.499577,1.71286381409351584155,1.8124107,6.9485717,1.7908629,1.7207954,9.503554,1.70050131409351584157,2.3050177,7.3226657,2.0859482,1.6943308,9.512279,1.67815711409351584164,2.7156234,8.017583,2.5953147,1.6531376,9.524366,1.65044581409351584186,3.0705638,9.147048,2.942474,1.5984336,9.539001,1.61952711409351584188,3.0998926,10.518327,3.4075475,1.5322524,9.555657,1.58492911409351584194,3.0801406,11.606491,3.8744168,1.456521,9.573289,1.54954461409351584224,2.308609,11.3551,3.9665937,1.3793317,9.590076,1.51601561409351584226,2.3774424,11.977592,3.4799721,1.299081,9.606052,1.4854451409351584228,2.0320787,14.441825,3.8504748,1.2292569,9.618698,1.46286011409351584232,1.6136919,15.755044,3.1615434,1.1612064,9.628237,1.45569781409351584258,1.5580268,15.047558,1.1935096,1.1217693,9.63234,1.45946351409351584260,3.3135753,14.0868845,-0.61411273,1.1317986,9.632461,1.45091011409351584291,4.658518,11.669938,-0.6314707,1.4536964,9.562644,1.61647321409351584293,7.32925,7.0784574,4.124611,1.4536964,9.562644,1.61647321409351584294,6.5379663,8.27077,8.980651,1.4536964,9.562644,1.61647321409351584296,4.526837,13.007099,9.498995,1.6211207,9.506668,1.77921561409351584323,3.4674027,18.219276,5.879561,1.767235,9.456523,1.9030071409351584325,2.156577,18.143261,4.26946,1.8704121,9.432433,1.92384431409351584326,-2.3301568,14.54717,4.1102457,1.9216216,9.424133,1.91402461409351584332,-4.1718965,13.181277,0.16101007,1.9012038,9.423612,1.93684781409351584356,-3.5577838,13.076531,-1.8046296,1.8506801,9.432361,1.94317581409351584358,-3.1256304,12.583924,-1.9919758,1.7838204,9.444873,1.94493291409351584364,-3.4237084,11.36767,-1.7262194,1.7028818,9.459713,1.94535521409351584392,-3.5075054,9.754577,-1.7340006,1.6012846,9.47885,1.93847261409351584395,-3.1794999,8.775947,-1.246182,1.4884508,9.500018,1.9247211409351584396,-2.4744074,8.845977,-0.62967503,1.383861,9.518429,1.91175841409351584417,-1.3946224,9.346964,0.08259996,1.2997957,9.533561,1.89529421409351584419,-0.41060558,9.274539,0.75716627,1.2360704,9.5473585,1.86827641409351584436,0.3196259,8.413823,0.83737206,1.1840043,9.560797,1.83295021409351584437,0.6500258,8.000225,0.7338228,1.133789,9.574419,1.79316031409351584443,0.7930793,8.513183,1.1569979,1.08008,9.587952,1.75357381409351584462,0.85772276,9.149442,1.6579847,1.0216684,9.600345,1.72045731409351584464,0.635062,9.636064,1.299453,0.96116084,9.611061,1.69530261409351584480,0.29807812,9.81084,0.8487445,0.8928943,9.622675,1.66651021409351584486,-0.2885013,9.964667,0.5105635,0.8158017,9.637181,1.62159961409351584500,-0.7086837,10.039486,0.2136825,0.7296029,9.654921,1.55583211409351584518,-0.961272,9.55885,-0.22385786,0.63904274,9.673663,1.47724971409351584520,-0.9175778,8.89446,-0.6679823,0.5497586,9.6908245,1.39860641409351584525,-0.87328506,8.449737,-0.80804306,0.46724892,9.704996,1.32858421409351584532,-0.8888474,8.334815,-0.55605334,0.393637,9.715983,1.27087331409351584549,-0.7625532,8.672397,-0.20590134,0.33193383,9.723944,1.22682991409351584565,-0.32142156,9.106346,0.23523031,0.28236988,9.730108,1.18982061409351584567,0.08619126,9.217078,0.5506664,0.24020036,9.733972,1.16726321409351584586,0.32022446,8.82802,0.5781997,0.20547983,9.735262,1.16312361409351584588,0.415394,8.437765,0.3585317,0.1693714,9.73413,1.17831291409351584593,0.29388827,8.130111,0.24361002,0.12103605,9.731995,1.20167211409351584618,0.15682021,8.110358,0.29328972,0.05204835,9.730905,1.2153911409351584620,0.48482585,8.461109,0.41718966,-0.037540007,9.731566,1.21062841409351584624,0.9744401,9.137471,0.39085343,-0.1356144,9.732468,1.19628331409351584632,1.6765398,9.444528,0.25558102,-0.23252614,9.731391,1.1901051409351584648,2.319383,9.378088,0.39025488,-0.32228485,9.727377,1.20194541409351584663,2.5234885,8.917204,1.1498153,-0.40083528,9.720481,1.23369661409351584666,2.212841,8.857349,1.5466543,-0.47267064,9.711113,1.28111571409351584682,1.6543933,8.638878,1.6609775,-0.53774214,9.697598,1.355661409351584684,1.0941502,8.316858,1.3904326,-0.601728,9.678889,1.45856871409351584699,0.7715315,8.028357,0.96546185,-0.67416066,9.656164,1.5730251409351584710,0.82599956,7.920019,0.53929394,-0.75810736,9.632385,1.67714971409351584714,1.1803415,7.9032598,0.6901286,-0.8517678,9.609674,1.7604131409351584735,1.6567876,7.888296,1.2551602,-0.9476139,9.588633,1.82497691409351584736,1.6944963,7.7931266,2.0111294,-1.0363737,9.568906,1.87945651409351584744,1.3036429,7.849989,2.0691888,-1.1139901,9.549887,1.93107891409351584769,0.80804306,8.141483,2.712032,-1.1831442,9.531614,1.9796231409351584771,0.74519527,8.447342,3.0376434,-1.2438627,9.512729,2.0325351409351584773,1.3006501,8.188768,1.9668367,-1.297341,9.493468,2.08838371409351584784,2.3852234,7.7530236,1.216853,-1.3388482,9.477525,2.1341011409351584805,3.180697,8.000824,1.4371196,-1.3671068,9.467023,2.16261361409351584807,2.7808652,8.734048,2.5887306,-1.3837376,9.46217,2.17325041409351584812,2.2876596,9.372701,2.9712043,-1.3988267,9.458236,2.1807011409351584838,1.5801731,9.71986,2.7168205,-1.4139056,9.453646,2.19085241409351584840,1.1905168,10.111312,2.2798786,-1.4274607,9.45083,2.19420721409351584845,1.8590976,10.378265,2.6659436,-1.431102,9.454317,2.1767431409351584865,2.0751743,9.624691,2.417545,-1.4107118,9.4662285,2.1379471409351584866,2.0937295,9.039309,1.8166006,-1.3720474,9.484772,2.08014151409351584882,1.9991584,9.320028,2.4510639,-1.326983,9.505578,2.01333121409351584910,1.834557,10.1143055,2.870648,-1.2629962,9.528616,1.94440591409351584914,0.6242881,10.0825815,1.4574703,-1.1880522,9.553942,1.86577551409351584917,-1.0893618,9.499594,-0.15562311,-1.1218657,9.582171,1.75891261409351584918,-2.574964,8.848969,-0.91219085,-1.064608,9.612883,1.62157761409351584931,-3.99293,8.483853,-1.3599066,-1.0073887,9.644468,1.46280151409351584933,-4.887164,9.479243,-1.6705543,-0.9451326,9.67573,1.28738641409351584947,-5.216367,12.646772,-1.4191631,-0.87495476,9.70565,1.09782091409351584972,-5.0930657,17.63928,-1.5735891,-0.791847,9.732077,0.91105411409351584974,-3.6014779,19.608511,-1.460463,-0.69263554,9.753612,0.746797141409351584976,-2.0242975,19.608511,-2.2254105,-0.55562747,9.770377,0.63357011409351585001,-3.615843,19.608511,-3.120842,-0.39343405,9.783976,0.5379741409351585003,-4.5154643,19.133862,-2.010531,-0.2783791,9.791377,0.470976681409351585005,-4.2580876,15.283386,0.24181437,-0.22214718,9.792908,0.469063341409351585036,-3.0969,10.339958,2.441487,-0.19154768,9.788878,0.55817661409351585038,-3.5613751,4.57113,5.3324857,-0.15614973,9.779947,0.706148271409351585040,-5.266645,8.6496525,6.025607,-0.12136403,9.767315,0.86902851409351585045,-2.9400797,11.073183,5.1613,-0.11027618,9.753832,1.01044251409351585066,-0.6015432,9.996989,3.755904,-0.054946262,9.746104,1.08666231409351585067,0.18375498,7.9128366,3.056797,0.083392695,9.745324,1.09183381409351585073,1.38325,7.666234,2.6192567,0.2661097,9.746295,1.05325261409351585098,2.510919,8.622718,2.179322,0.45158756,9.744545,1.00513941409351585100,3.2465374,9.162011,1.3006501,0.63767135,9.739009,0.956781409351585118,2.6342204,8.72507,0.56922144,0.8196588,9.729743,0.911401871409351585120,2.7766755,8.743026,0.09935937,0.9758922,9.718985,0.87142181409351585125,2.533664,8.169615,0.001197101,1.1046131,9.707585,0.84440471409351585133,1.3754689,6.8282633,0.23882163,1.2112713,9.695054,0.84211551409351585150,1.1546037,6.339846,0.6488287,1.2933773,9.682124,0.86835711409351585155,1.1701661,6.131551,0.9564836,1.3580843,9.668845,0.91621321409351585164,1.0893618,5.8203044,0.95708215,1.4152442,9.654591,0.977929231409351585176,1.1031284,5.471948,1.0085574,1.4641787,9.640143,1.04605441409351585194,1.1336545,5.2822075,1.1240777,1.500703,9.626706,1.11571981409351585196,1.216853,5.1930237,1.2797008,1.5303502,9.613621,1.18605461409351585216,1.3652935,4.9841294,1.2264298,1.5487764,9.602252,1.25238041409351585218,1.7866731,4.9224787,1.2503718,1.5575045,9.593387,1.30823991409351585225,1.9776106,5.04578,1.435324,1.5582763,9.587624,1.34893581409351585250,2.1691468,5.2810106,1.501763,1.5499531,9.585317,1.37467941409351585252,2.2906525,5.467758,1.5526398,1.5310626,9.586742,1.38585971409351585254,2.597709,5.8143187,1.70946,1.4997865,9.591822,1.38492051409351585265,3.0430303,6.5367694,2.167351,1.4578022,9.5995865,1.37591611409351585282,3.318962,7.615357,2.7144263,1.4082237,9.6084795,1.36544181409351585301,3.3967736,8.952518,3.2010477,1.3539667,9.61726,1.35847691409351585302,3.678691,10.296863,3.5242648,1.2975299,9.624977,1.35891511409351585305,3.0711622,10.555437,4.140772,1.247712,9.630921,1.36344211409351585312,3.4051533,10.001179,3.426701,1.1999505,9.634873,1.37830761409351585328,1.7238252,11.531074,4.2221746,1.1720586,9.637868,1.38136031409351585348,-0.45908818,16.081852,4.410718,1.1439625,9.641017,1.38295011409351585350,-0.47465047,15.795746,1.7166426,1.0916463,9.646537,1.386741409351585362,1.0271125,13.950415,-1.1438298,1.0697565,9.653698,1.3535581409351585366,3.6481647,13.164518,-1.4341269,1.110509,9.656946,1.29636841409351585396,4.964976,11.240777,0.688333,1.2043188,9.64803,1.2788741409351585397,5.7095723,9.9550905,5.3007627,1.3230977,9.62414,1.34005631409351585399,5.170877,12.069171,9.327211,1.4687574,9.584432,1.46690131409351585412,3.6619315,19.608511,3.2782607,1.6326711,9.530485,1.63542541409351585413,-0.34476504,17.859547,2.9658175,1.771325,9.498459,1.67692291409351585426,-2.7712884,13.28782,1.1851299,1.8501155,9.483778,1.67494271409351585444,-2.2918496,11.265318,-0.57041854,1.890371,9.477485,1.66558891409351585445,-1.6597804,10.382456,1.2180501,1.8985467,9.470343,1.69662811409351585460,-1.6017209,9.873688,2.666542,1.8757136,9.459829,1.77868061409351585464,-1.8106151,10.181941,2.1134815,1.8218215,9.453406,1.86668411409351585474,-2.059612,10.324995,1.6657659,1.7469296,9.458305,1.91287541409351585493,-1.6765398,10.214263,1.3688848,1.6705924,9.472684,1.90991561409351585495,-1.151611,10.637438,0.9684546,1.6044798,9.489347,1.88370291409351585513,-0.45429978,10.676344,0.40521863,1.5461253,9.505676,1.84986961409351585515,0.28550854,10.399814,-0.12030864,1.4927825,9.522245,1.80798731409351585533,0.95588505,10.205883,-0.38307226,1.4344012,9.542695,1.74638631409351585535,1.1552023,10.207679,-0.64823014,1.3636454,9.567207,1.66715151409351585545,0.7589619,9.859323,-0.39444473,1.2795206,9.5924835,1.58665321409351585559,0.3854665,9.037513,0.40462008,1.181358,9.61453,1.5282661409351585575,0.2885013,8.35337,1.0582372,1.0750438,9.63075,1.5044381409351585576,0.24061728,8.325238,1.252766,0.9675768,9.643531,1.49549261409351585593,-0.21667525,8.762778,1.5454572,0.8608599,9.657238,1.47209581409351585595,-0.62608373,8.469488,1.3760674,0.75238067,9.672521,1.43061541409351585616,-0.91338795,7.9792757,0.7793127,0.64600134,9.687115,1.38307031409351585618,-1.1228806,7.341221,-0.08140286,0.5437436,9.699607,1.33880191409351585625,-0.8936358,6.825869,-0.61770403,0.44411886,9.710726,1.29419981409351585646,-0.57640404,6.9647326,-0.38845924,0.35120744,9.72039,1.24942481409351585648,-0.3854665,7.8224554,0.30825347,0.27045363,9.728456,1.20598521409351585663,-0.80804306,8.732851,0.52492875,0.20760559,9.73439,1.17002521409351585678,-0.8822633,8.899846,0.320823,0.1518403,9.738291,1.14589481409351585680,-1.0833763,8.152855,-0.23403321,0.09109172,9.739818,1.13932511409351585693,-1.489792,7.7560163,-0.4914099,0.017877484,9.73948,1.14569851409351585695,-1.4149733,8.054693,-0.41240123,-0.07444351,9.738928,1.1481071409351585709,-1.0773908,8.306085,-0.19512744,-0.18372816,9.739116,1.13413171409351585713,-0.08439561,9.178771,-0.22445641,-0.30286965,9.739258,1.10703591409351585727,0.78649527,9.091981,-0.30705637,-0.42130545,9.738269,1.07656571409351585742,1.887828,8.941745,0.008978256,-0.5340264,9.735265,1.05348151409351585746,2.486977,8.756194,0.9020155,-0.63231677,9.729353,1.05368791409351585759,2.284667,9.013571,1.7579426,-0.71200955,9.720122,1.08750071409351585774,1.8417397,9.083601,2.147599,-0.7740974,9.707525,1.15547721409351585776,0.9540894,8.112154,1.4305356,-0.82853043,9.691527,1.24829411409351585791,1.0845734,7.8930845,0.97623575,-0.8931943,9.673336,1.34133921409351585793,1.6621746,7.9032598,0.7422025,-0.96579486,9.655728,1.41581321409351585810,2.2523453,8.095394,0.86370826,-1.0378792,9.641286,1.46246471409351585813,2.480393,8.435969,1.0618285,-1.0989711,9.629999,1.49191451409351585825,2.541445,8.787319,1.3467385,-1.1473777,9.620187,1.51852081409351585840,2.6803088,8.91062,1.6053122,-1.1900868,9.610155,1.54886821409351585853,2.8461072,8.722675,1.9979613,-1.2267461,9.599072,1.5884851409351585883,2.6922798,8.3868885,2.2619221,-1.2600099,9.5864105,1.63814281409351585885,2.067393,8.5143795,2.7593174,-1.2912775,9.57307,1.69095491409351585887,1.3060371,9.088389,3.17531,-1.3205537,9.559859,1.74230831409351585889,0.92176765,9.297284,2.8395233,-1.3444754,9.547758,1.78972281409351585895,1.1228806,8.990228,1.8632874,-1.360817,9.537742,1.83031021409351585908,1.8183962,9.015367,1.8375498,-1.3684055,9.531658,1.85616761409351585913,2.2918496,9.621698,2.3959973,-1.3664058,9.530052,1.86585631409351585928,1.8231846,9.97185,2.621651,-1.3573914,9.532038,1.86229611409351585941,1.2024878,10.225636,2.0895395,-1.35039,9.535859,1.84776451409351585945,0.46088383,10.493188,1.858499,-1.3475454,9.541158,1.82232011409351585957,-0.5153519,10.730812,1.8064252,-1.3428413,9.549583,1.78118921409351585974,0.08080431,10.053253,0.15023616,-1.3333509,9.560731,1.72771161409351585976,1.0079589,10.000581,0.96546185,-1.2998753,9.577884,1.65676311409351585993,1.6938977,10.255563,1.6891093,-1.2360799,9.598502,1.58469841409351585995,0.6697779,10.098145,0.7870938,-1.1502104,9.622179,1.50369181409351586012,-0.7517793,9.396643,-0.22804771,-1.0628914,9.647451,1.40262391409351586014,-2.256535,8.821436,-0.22984336,-0.973311,9.673015,1.28679781409351586034,-3.3512838,9.561843,0.3321955,-0.8797652,9.697591,1.16325531409351586035,-4.2598834,12.130223,0.90740246,-0.7843421,9.720427,1.03369621409351586045,-4.7243586,16.80969,1.3826514,-0.69769514,9.739571,0.907942061409351586058,-2.8532898,19.608511,0.7553706,-0.6170675,9.754498,0.79961041409351586074,-1.0450691,19.608511,-0.8062474,-0.4962365,9.767945,0.71510161409351586075,-1.9871874,19.608511,-1.7375919,-0.33761626,9.780121,0.636888861409351586090,-2.7934349,18.970457,-1.1318588,-0.21329024,9.788111,0.56375271409351586094,-2.657564,15.43482,0.24899697,-0.1477335,9.790829,0.536857961409351586108,-1.7818847,11.562199,1.8722657,-0.112605184,9.788439,0.586657761409351586115,-1.1707647,7.457938,3.2740707,-0.07709928,9.781561,0.696794031409351586133,-2.7222073,5.8963203,4.4795513,-0.03957155,9.77161,0.82730951409351586134,-4.348469,8.876503,4.968567,-0.01647212,9.760899,0.94602951409351586148,-2.641403,11.534067,2.9999347,0.003737762,9.75202,1.03368191409351586166,0.078410104,8.359355,2.19668,0.059929714,9.746893,1.07928691409351586168,0.521936,7.6943655,1.893215,0.19771636,9.746139,1.0696121409351586175,1.3221979,8.329428,1.4580688,0.35366416,9.745843,1.0314331409351586200,1.857302,9.218874,0.9056068,0.5031741,9.743632,0.98937191409351586202,1.3024458,8.905233,0.30166942,0.6499201,9.738579,0.95291871409351586206,1.2814964,8.6095495,-0.074818805,0.78629154,9.731216,0.924960731409351586214,1.1216835,7.713519,0.002992752,0.910104,9.721651,0.91192331409351586234,0.22385786,6.290765,0.2837129,1.0195699,9.709613,0.92427851409351586236,0.17836803,5.3594203,0.53929394,1.1132604,9.695476,0.96374561409351586245,0.66379243,4.730344,0.7224504,1.1957054,9.679527,1.02343551409351586259,0.9451111,4.1922474,0.88405895,1.2766747,9.661105,1.09705221409351586274,1.3365631,4.0701427,1.1294646,1.3579968,9.640738,1.17576251409351586275,1.7687165,4.335301,1.3443443,1.4381413,9.618693,1.25812041409351586291,2.0165164,4.6519337,1.4173675,1.5143692,9.596451,1.33611131409351586293,2.0949266,4.895544,1.4173675,1.5859218,9.575364,1.40272881409351586307,2.134431,5.2444987,1.5233108,1.6498005,9.557179,1.45219681409351586324,2.134431,5.6563015,1.6525977,1.7033151,9.542704,1.4852321409351586326,2.1098902,6.139332,1.7274165,1.7437856,9.532427,1.50414541409351586340,1.9303252,6.729502,1.7328035,1.7694808,9.526488,1.51174411409351586345,2.1332338,7.0066314,1.9494787,1.7773619,9.525276,1.51013091409351586356,2.586935,7.41185,1.9895816,1.7680842,9.528055,1.50347631409351586374,3.153762,8.10138,2.0500352,1.7515063,9.532213,1.49650791409351586375,3.9151182,9.142858,2.2481554,1.7205509,9.538962,1.48939661409351586390,4.1299977,10.296863,2.8323407,1.6778735,9.547231,1.48509671409351586394,3.98874,11.282077,3.2309752,1.6207894,9.556695,1.48761881409351586416,3.0813377,11.163564,4.0623617,1.5493513,9.566982,1.4975761409351586418,3.9354692,9.519944,3.9725792,1.4638281,9.577041,1.519181409351586426,1.7166426,9.206305,4.80636,1.3985972,9.58431,1.53471681409351586447,-1.7603368,14.083293,6.005855,1.3332613,9.592173,1.54370691409351586449,-1.2336124,15.665261,2.743755,1.2256454,9.60283,1.56647931409351586454,0.3357868,14.633361,-0.98341835,1.1482724,9.615302,1.54848781409351586474,3.1495724,13.375807,-1.6418238,1.1485198,9.623651,1.4955441409351586476,5.599439,11.175535,0.24779987,1.1997875,9.623078,1.45851841409351586492,6.657676,9.957485,4.5423994,1.3026704,9.603142,1.50103281409351586495,5.5497594,12.318767,8.425795,1.4363061,9.563105,1.62924161409351586521,4.3760023,17.637486,6.411672,1.581787,9.511746,1.78747051409351586523,2.4827871,19.59654,4.486734,1.7191256,9.473745,1.86095671409351586526,-2.9658175,12.798205,3.3267434,1.8138152,9.454176,1.87056571409351586547,-2.754529,10.439917,0.66020113,1.8352922,9.440151,1.91980591409351586549,-2.3546975,9.111135,1.0133458,1.8263949,9.42145,2.01766231409351586554,-1.9764135,8.224083,2.1332338,1.7875389,9.400147,2.14763641409351586579,-1.8968062,8.289924,1.3018472,1.7299693,9.383776,2.26326321409351586581,-2.03567,7.705738,0.50038815,1.6619071,9.37615,2.34441021409351586586,-2.066196,7.1873937,0.6703765,1.6017693,9.382712,2.35996871409351586594,-1.6729485,7.506421,0.9660604,1.5408808,9.399284,2.33442851409351586615,-0.65421563,8.379107,1.2922704,1.4910544,9.4178915,2.29139021409351586616,0.6877344,8.929773,1.7950528,1.4554107,9.435568,2.24102621409351586626,1.8656816,9.169194,1.70946,1.4314522,9.4538355,2.1786081409351586647,2.2511482,9.923966,1.0899603,1.4101102,9.475866,2.0952231409351586648,2.3068132,11.108498,0.6697779,1.3799149,9.503098,1.98931431409351586654,2.0775685,11.637616,0.48003745,1.3362374,9.532567,1.87484691409351586676,1.839944,11.546038,0.24301147,1.278545,9.55938,1.77594651409351586677,1.3617022,11.246762,0.09816227,1.2095724,9.582715,1.69672971409351586693,0.55964464,11.177929,0.25318682,1.1331892,9.604873,1.62255751409351586694,-0.078410104,11.075577,0.47884035,1.0462347,9.627025,1.54796761409351586707,-0.60932434,10.559028,-0.012569559,0.95238453,9.647861,1.47721181409351586723,-1.0905589,8.826224,-0.41120413,0.8540037,9.666302,1.41551271409351586726,-1.1180922,8.36175,-0.42437226,0.7538372,9.68112,1.370421409351586738,-1.2503718,8.403049,-0.031124622,0.65564394,9.692838,1.33768921409351586755,-1.2958617,8.5473,0.3465607,0.56544346,9.701315,1.31724731409351586756,-1.2144588,8.422802,0.4782418,0.48832288,9.706396,1.31065621409351586772,-1.1599907,8.027759,0.39683893,0.42247385,9.708678,1.3166291409351586774,-1.3503298,7.7093296,0.2172738,0.35902295,9.709052,1.33259921409351586788,-1.4975731,7.4830775,0.11492168,0.28807947,9.709075,1.3495411409351586795,-1.584363,7.4627266,0.19991584,0.210658,9.709362,1.36172071409351586815,-1.1953052,8.656835,0.4345476,0.11646016,9.711532,1.35756661409351586817,-0.5722142,9.557653,0.14784196,0.008772305,9.715383,1.3347851409351586828,0.013766659,8.952518,-0.47225627,-0.10182617,9.71963,1.29953911409351586849,1.42455,8.612542,-0.3465607,-0.21080056,9.722733,1.26271011409351586850,2.1242554,8.351574,0.18315643,-0.30442873,9.723365,1.23850541409351586854,2.472612,8.186973,1.0175357,-0.37712532,9.719989,1.24498781409351586876,2.3624785,8.034343,1.6424223,-0.43227038,9.711201,1.2946541409351586877,2.135628,7.74225,1.8088194,-0.48272374,9.697221,1.37886831409351586892,1.7525556,7.275979,1.70946,-0.53477114,9.680388,1.47461331409351586894,1.4065934,7.059902,1.2563573,-0.5941209,9.662175,1.56836331409351586907,1.5119383,7.839813,1.0666169,-0.6599109,9.6445265,1.64864831409351586922,1.5352819,8.909423,1.0893618,-0.72688574,9.628873,1.71080451409351586926,1.5310919,9.5971575,1.2922704,-0.78824884,9.616337,1.75360931409351586940,1.6124948,9.669582,1.3856442,-0.84558773,9.605668,1.78508651409351586957,1.7244238,9.486425,1.6711528,-0.9061795,9.594553,1.81488281409351586958,1.5622166,9.15842,2.0829554,-0.9730656,9.581251,1.8501821409351586972,1.2401965,8.88608,1.7411832,-1.0449877,9.566174,1.8885811409351586974,0.9427169,8.899248,1.5813702,-1.1175414,9.551935,1.91885891409351586988,1.0450691,8.909423,1.1593921,-1.1838113,9.53984,1.93919281409351586994,1.7483658,9.002198,0.89543146,-1.2384229,9.530175,1.95254991409351587008,2.52289,9.272144,1.417966,-1.2807577,9.522205,1.96408961409351587021,3.0113072,9.548675,1.8764555,-1.3072675,9.515807,1.97759071409351587026,2.9634233,9.72824,2.2517467,-1.3218837,9.511444,1.98883261409351587040,2.546832,9.808446,2.3008277,-1.3275913,9.509107,1.99618861409351587064,2.2391772,9.888652,2.1894975,-1.3236696,9.508866,1.99993941409351587065,1.7914615,9.838972,2.355296,-1.3060542,9.512366,1.99486641409351587067,1.6478093,9.60853,2.706645,-1.2749943,9.520559,1.97578511409351587075,1.2970588,9.111135,1.9189527,-1.225692,9.533289,1.9453661409351587098,2.03567,9.118318,1.8668787,-1.1582105,9.550532,1.90164431409351587099,2.0278888,9.415198,2.3511062,-1.0633304,9.572354,1.84655671409351587108,1.608305,8.342596,1.9883845,-0.9544591,9.5969515,1.77704981409351587122,-0.1364695,6.8085113,1.258153,-0.85083264,9.621507,1.69501341409351587126,-1.9800048,6.645107,0.54647654,-0.74912876,9.647126,1.59441911409351587141,-3.4368765,8.374918,0.1933318,-0.64507866,9.674297,1.47045461409351587157,-4.485537,12.016499,1.0408791,-0.53945875,9.701302,1.32819891409351587158,-4.5567646,17.814058,2.5611973,-0.43570524,9.723109,1.20069981409351587175,-2.2122424,19.608511,2.100912,-0.33277702,9.736337,1.12400981409351587176,-0.3609259,19.608511,-1.3293805,-0.18266287,9.745566,1.0774921409351587192,-2.3133974,19.608511,-3.7576995,-0.00112557,9.757411,0.98150561409351587205,-3.5990837,19.608511,-3.1142578,0.12428159,9.770615,0.83067981409351587206,-3.3435028,17.019182,-0.91817635,0.17380533,9.77879,0.71793261409351587221,-2.1865046,11.830349,1.2976574,0.19019593,9.7813015,0.67849581409351587227,-2.0817583,8.298303,3.3883939,0.22237091,9.776651,0.733491541409351587239,-4.5513773,8.961497,4.7123876,0.25451985,9.767896,0.83296041409351587257,-3.3063924,13.416508,4.9069166,0.26669767,9.758523,0.933008551409351587258,-0.61171854,12.693459,3.6595373,0.30560097,9.750536,1.00201711409351587271,0.50397944,9.683948,2.6749218,0.4294576,9.744662,1.01366091409351587274,0.5021838,6.55712,2.486977,0.58642,9.738837,0.99073031409351587287,0.777517,6.700772,2.1757307,0.7283003,9.731587,0.96755751409351587311,1.5574282,7.280169,1.608305,0.85813147,9.72238,0.95358091409351587313,2.4145525,7.506421,1.1085154,0.9913044,9.710919,0.941144941409351587315,2.047641,7.1131735,0.83617496,1.1304556,9.696557,0.932323041409351587327,1.7741034,6.761824,0.5979519,1.2629464,9.680441,0.929741561409351587347,1.6166847,6.4421983,0.41299978,1.3803128,9.662832,0.945932031409351587349,1.3533225,5.5826797,0.20829555,1.4815739,9.643735,0.98677061409351587354,1.2264298,4.961983,0.17717093,1.572743,9.622391,1.05189071409351587375,1.3880384,4.8763905,0.4297592,1.6536674,9.599297,1.1354541409351587376,1.3718776,4.8165355,0.5129577,1.7265519,9.574798,1.22991241409351587389,1.1127052,4.7004166,0.6428431,1.792634,9.550094,1.32384561409351587405,1.0498575,4.7860093,0.919972,1.8492572,9.5271,1.40890471409351587407,1.1528081,4.917092,1.282095,1.8952584,9.507197,1.48039851409351587420,1.2144588,5.149928,1.5981296,1.9312472,9.490853,1.53765391409351587426,1.4371196,5.5820813,1.7968484,1.9551746,9.479061,1.5795781409351587436,1.7178397,6.075287,1.9853917,1.9732577,9.4696865,1.61296831409351587460,2.0338743,6.619369,2.1398177,1.975914,9.46623,1.62992441409351587462,2.6018987,6.997653,2.2990322,1.961619,9.469263,1.62957371409351587467,2.9801826,7.269395,2.5779567,1.9308372,9.478055,1.61516131409351587475,3.429694,8.145673,2.9460652,1.883751,9.491235,1.59321681409351587497,3.8750155,9.5971575,2.961029,1.8233007,9.506858,1.57022641409351587498,4.211401,11.065402,2.9113493,1.7524737,9.5237665,1.54825781409351587506,3.6661212,11.554418,3.7816415,1.6773876,9.540315,1.52942731409351587522,3.9612067,11.113286,3.7295678,1.598169,9.555096,1.52196961409351587546,2.1392193,11.867459,4.4161053,1.533915,9.567156,1.51229191409351587549,-0.46866497,15.802928,4.827309,1.4670106,9.578423,1.50734971409351587551,-0.712275,15.401301,2.4612393,1.3650593,9.592125,1.51595591409351587555,0.2669535,13.584102,-0.4189853,1.2841417,9.603528,1.51447641409351587585,3.0107086,12.753314,-1.472434,1.267532,9.609676,1.48926211409351587587,5.5300074,11.083957,-0.5069722,1.3209509,9.605796,1.46770641409351587588,7.9792757,8.558074,1.6124948,1.4229546,9.5858555,1.50231751409351587606,6.630143,6.3021374,7.1305313,1.5699928,9.547703,1.5958951409351587608,5.389348,8.555679,10.46745,1.7229774,9.496991,1.73462441409351587625,4.260482,14.532206,8.161834,1.8711165,9.443504,1.8680291409351587627,3.630807,18.619108,4.2263646,1.9861563,9.412421,1.90576081409351587648,0.7667431,16.307507,4.1096473,2.056328,9.407189,1.85652661409351587649,-2.9119477,12.264298,-0.24600422,2.074598,9.408961,1.8269891409351587654,-2.4103625,13.005902,-0.3854665,2.050696,9.420095,1.79633881409351587671,-1.9955671,13.017873,-0.29388827,2.0025659,9.431676,1.78986411409351587674,-1.9578584,12.185289,-1.246182,1.9418086,9.443663,1.7935991409351587687,-2.136825,10.454881,-1.0666169,1.8699404,9.458814,1.79012811409351587711,-2.1613655,9.581595,-0.33638534,1.7943779,9.474257,1.78579521409351587713,-1.910573,9.42238,-0.011971008,1.7239537,9.487513,1.78478911409351587715,-1.5346833,9.654019,0.2124854,1.6624718,9.498219,1.78617471409351587748,-0.878672,9.32362,0.5662287,1.6066072,9.508517,1.78249781409351587749,0.09756372,8.8567505,0.7392098,1.5513512,9.520603,1.76686511409351587751,0.76075757,9.009381,0.6727707,1.4925504,9.535548,1.73666751409351587754,1.0133458,9.586384,1.039682,1.4305261,9.551431,1.70122171409351587772,0.84814596,9.94312,1.4790181,1.3620895,9.567995,1.66390241409351587775,0.7074866,10.133459,1.4065934,1.2869213,9.582527,1.63994041409351587789,0.40761283,10.151415,1.0193313,1.2068645,9.596212,1.62067121409351587804,-0.10474633,10.05445,0.9624691,1.1198931,9.612499,1.58622121409351587807,-0.6799533,9.855731,0.9816227,1.0253915,9.631513,1.53392911409351587818,-0.9900024,9.622895,0.7613561,0.92538905,9.651066,1.47341841409351587836,-1.0295067,9.318831,0.18555063,0.82621,9.669007,1.41353441409351587837,-0.6727707,8.072051,-0.7799112,0.73389035,9.684588,1.35666131409351587861,-0.48243165,7.920019,-0.62967503,0.6535169,9.69789,1.30163751409351587863,-0.24001873,8.593389,-0.034117375,0.58373445,9.70915,1.249821409351587867,-0.18794483,9.539697,0.46148238,0.52148813,9.717988,1.20796191409351587876,-0.28491,9.709086,0.78769237,0.47202814,9.723494,1.18374121409351587896,-0.51595044,9.005191,0.7398083,0.4275367,9.725412,1.18488791409351587898,-0.7062895,8.433576,0.3453636,0.3735632,9.724374,1.21135491409351587909,-0.9391256,8.049905,-0.03172317,0.3006736,9.722413,1.24686651409351587926,-0.9756372,8.180987,-0.12449849,0.20585024,9.72234,1.26654671409351587927,-0.52073884,8.940548,-0.10414778,0.09293254,9.725079,1.25881931409351587935,-0.16519992,9.029732,-0.1412579,-0.03028565,9.728783,1.232981409351587964,1.1857284,8.639477,-0.025737667,-0.15644875,9.730283,1.21142071409351587966,2.0009542,8.314464,0.39803603,-0.26965967,9.728099,1.20903281409351587968,2.4265234,8.482059,0.90620536,-0.36968613,9.723424,1.22015751409351587997,2.4947581,8.667608,1.3389573,-0.44785923,9.715597,1.25578311409351587999,2.3068132,8.583812,1.8177977,-0.50681067,9.7041,1.32060561409351588000,1.9865888,8.126519,2.0386627,-0.5575737,9.687866,1.41589251409351588027,1.6897079,7.7147164,2.0931308,-0.6132375,9.667299,1.52894451409351588028,1.4676456,7.390302,1.6418238,-0.68192226,9.64411,1.64210871409351588030,1.6938977,7.642292,1.6334441,-0.76132053,9.621609,1.73650221409351588035,1.893215,8.3150625,1.8130093,-0.8392945,9.601704,1.80922411409351588060,2.030283,8.866926,2.2469583,-0.9070619,9.584687,1.86584851409351588061,2.1284454,9.109339,2.243367,-0.9624003,9.569128,1.91728021409351588069,1.9207484,9.186552,2.1601684,-1.0098702,9.554184,1.96675621409351588075,1.8022354,9.2494,1.9381063,-1.0575196,9.539108,2.0143151409351588098,1.9333179,9.155427,1.6938977,-1.1035048,9.525391,2.05416921409351588100,2.5803509,8.760384,1.2366052,-1.1454239,9.513623,2.08551291409351588108,2.932897,8.620922,1.690905,-1.1773037,9.504596,2.10878851409351588133,2.771887,9.026739,2.5115175,-1.1996878,9.49725,2.12917781409351588135,2.2176294,9.455301,3.0226796,-1.2182412,9.490757,2.14751221409351588137,1.4891934,9.930551,3.1268275,-1.2388713,9.484627,2.16273931409351588169,0.7721301,10.332177,2.4714148,-1.2594366,9.480269,2.1699571409351588171,0.47345337,10.649409,2.0087352,-1.2750115,9.480999,2.15764051409351588174,0.36750996,10.56681,2.1404164,-1.2772086,9.48884,2.12156631409351588177,0.599149,10.105926,2.0679917,-1.2723432,9.4992695,2.0773561409351588200,0.8924387,9.519944,1.3940239,-1.2473342,9.514404,2.02253631409351588201,1.423353,9.208698,1.258153,-1.1993835,9.533455,1.96089511409351588208,1.9261353,9.363723,2.03567,-1.130048,9.555143,1.89542271409351588228,1.2473791,8.874108,1.1953052,-1.0476552,9.577728,1.82754251409351588229,0.1604115,8.146272,0.6434417,-0.9668057,9.60172,1.74431571409351588235,-1.46585,7.1927805,0.21906945,-0.8827034,9.62671,1.64854131409351588273,-2.7126305,7.0132155,-0.18435353,-0.7931897,9.6519165,1.54329251409351588277,-3.679888,8.55987,0.0712275,-0.69473594,9.677607,1.42536511409351588278,-3.9378633,12.569559,0.9780314,-0.5922095,9.702301,1.29808271409351588297,-3.4913447,18.195932,2.2343888,-0.4829571,9.723298,1.18094551409351588298,-1.8315643,19.608511,1.8590976,-0.36704797,9.739316,1.08693181409351588299,-1.364695,19.608511,-0.74639237,-0.21472317,9.750696,1.02381841409351588309,-2.8790276,19.608511,-2.0284874,-0.057611536,9.760577,0.94772811409351588323,-3.8235402,18.788498,-1.2294226,0.049871553,9.768919,0.85798121409351588338,-3.685275,14.900314,0.24420857,0.09781667,9.772701,0.80938961409351588339,-2.5474305,10.357915,1.8471266,0.118671976,9.769663,0.842598561409351588358,-1.4443022,7.3448124,3.453636,0.14478937,9.760968,0.93430621409351588359,-2.4390929,6.2530565,4.805163,0.18452631,9.749542,1.04057171409351588368,-3.442862,9.08001,5.575497,0.22497663,9.738897,1.12856451409351588391,-1.3922282,11.993753,5.2061915,0.27155706,9.730956,1.18539261409351588393,0.18016368,10.478823,3.9306808,0.37889463,9.723065,1.22019151409351588409,1.673547,7.9954367,2.5570073,0.5210631,9.717765,1.20992741409351588410,2.2260091,8.157643,1.7405846,0.68656355,9.711841,1.17438241409351588416,2.392406,7.997831,0.8936358,0.84138685,9.703815,1.13949141409351588443,2.498948,7.465121,0.43155485,0.9824059,9.693894,1.110711409351588444,2.722806,6.988076,0.36032736,1.1109447,9.682397,1.08968131409351588449,2.433706,6.2943563,0.4321534,1.2238132,9.669404,1.08412281409351588456,1.8525136,5.556942,0.53689975,1.3207012,9.654579,1.10237691409351588471,1.7154455,5.1301756,0.6817489,1.4030517,9.63813,1.14380261409351588486,1.6089035,4.6776714,0.9056068,1.4783199,9.619773,1.20205281409351588488,1.4502877,4.361637,0.85473,1.5498943,9.599426,1.27249321409351588500,1.2808979,4.26946,0.7870938,1.6167501,9.578066,1.34803181409351588509,1.1378443,4.4538136,0.95229375,1.6720603,9.556989,1.42778831409351588522,0.8834604,4.657321,1.192911,1.7140826,9.537425,1.50659451409351588533,0.7517793,4.9039235,1.3377602,1.7436161,9.520369,1.57885191409351588536,0.7565677,5.2355204,1.4610616,1.7616119,9.506966,1.63850771409351588559,0.7679402,5.575497,1.3221979,1.7682309,9.498461,1.6801741409351588561,0.8912416,6.0046577,1.3156139,1.7635301,9.495678,1.70072511409351588568,1.0540473,6.4140663,1.5945383,1.7471634,9.498511,1.70178821409351588589,1.3676877,6.642114,1.9776106,1.7187266,9.505947,1.68918341409351588595,2.2996306,7.5920134,2.9251158,1.6786356,9.516862,1.66790871409351588610,3.040636,8.993818,2.9825768,1.6300955,9.529671,1.64272941409351588611,3.5895069,10.78947,3.141791,1.5809486,9.543118,1.6124191409351588616,3.2076318,11.821969,3.517681,1.5234063,9.558776,1.57461811409351588642,3.2932243,11.675923,3.470994,1.4541458,9.575754,1.53648461409351588647,3.3728316,10.354323,2.9867666,1.3855357,9.591897,1.49873861409351588649,0.9792285,11.8578825,4.084508,1.328914,9.606653,1.45485511409351588657,-0.31902736,15.931617,3.9977183,1.2597587,9.621188,1.41991941409351588675,0.3369839,14.985309,1.7208325,1.1682712,9.635918,1.39808521409351588677,1.6077064,12.839505,-0.23582886,1.1115521,9.646973,1.36776421409351588688,3.767875,11.822568,-0.27234045,1.1190038,9.650763,1.33454371409351588716,6.257845,10.569802,0.8583213,1.1842644,9.642732,1.3362751409351588718,6.679224,8.759187,5.671265,1.2976013,9.623072,1.37227321409351588720,6.0806737,10.294469,11.139024,1.4294587,9.587773,1.48379171409351588748,6.5469446,16.069283,9.009381,1.5814297,9.5330305,1.67057011409351588750,5.8598084,19.608511,5.312135,1.7542242,9.481907,1.78508521409351588758,1.7058687,19.5313,3.918111,1.9171187,9.452936,1.77117251409351588780,-0.95947635,16.74026,1.7010803,1.9938831,9.446025,1.72262141409351588782,-0.9451111,13.955802,-1.9440918,2.0067582,9.4459305,1.70812821409351588783,-0.81163436,9.60015,-0.61650693,1.9951452,9.445742,1.72272041409351588791,-1.3054385,8.55149,0.41599256,1.9672358,9.439828,1.78606941409351588817,-2.1697452,7.73387,0.7906851,1.9071106,9.440525,1.84657141409351588818,-2.6288335,7.739257,1.328782,1.8259691,9.4497385,1.8811371409351588819,-2.3834279,8.357559,1.7274165,1.7462394,9.46134,1.89844321409351588841,-1.9075803,9.422979,1.4838065,1.6697888,9.473811,1.90502391409351588842,-1.1540052,9.861717,0.641646,1.6045296,9.485093,1.90495661409351588848,-0.3465607,9.820416,0.07062895,1.5457747,9.49767,1.89082841409351588856,0.533907,9.979631,-0.38606504,1.4830474,9.514635,1.85544851409351588869,0.4842273,10.246585,-0.62249243,1.4114043,9.536004,1.80082021409351588886,-0.1436521,10.167576,-0.45130703,1.3280442,9.559281,1.73977821409351588887,-0.6775591,9.324817,-0.22625206,1.2322114,9.580208,1.69460061409351588913,-1.1091139,8.249821,-0.320823,1.1278796,9.596324,1.67595951409351588915,-1.359308,8.188768,0.17597382,1.0196545,9.610517,1.66392621409351588917,-1.553837,8.715493,0.9672575,0.9072458,9.626293,1.63761481409351588946,-1.780089,8.697536,1.3569138,0.79217833,9.641753,1.60606931409351588947,-1.8130093,8.204929,1.2030864,0.67492104,9.65707,1.56712011409351588948,-1.661576,7.8583684,0.694917,0.56479716,9.670619,1.52660431409351588957,-0.97264445,7.195773,-0.22685061,0.46697798,9.682381,1.48452941409351588971,-0.58897364,7.465121,-0.006584055,0.38880014,9.6931095,1.43625661409351588983,5.99E-04,8.265982,0.6171055,0.32786882,9.702818,1.38500491409351588990,-0.24839842,9.361927,0.86370826,0.28913102,9.710485,1.33912561409351589014,-0.80086046,9.709086,0.5686229,0.26554838,9.715944,1.3039621409351589016,-0.9636662,9.555259,0.026934769,0.24065825,9.7195425,1.28177261409351589017,-0.8619126,9.250597,-0.427365,0.20159143,9.722309,1.2674641409351589042,-0.52612585,9.120711,-0.5518635,0.14586268,9.725407,1.25123611409351589044,-0.28670564,9.731233,-0.3238158,0.08346781,9.729743,1.22291561409351589049,0.2681506,9.640852,-0.2220622,0.00380953,9.735386,1.18010031409351589058,1.1923125,9.7324295,-0.0688333,-0.08634629,9.740253,1.13597011409351589082,2.143409,9.883265,0.25797522,-0.17292379,9.742329,1.10793361409351589084,2.5833437,9.589975,0.59017074,-0.24376518,9.740394,1.11161381409351589112,2.885013,9.296685,0.7625532,-0.30143818,9.734151,1.15143851409351589114,2.8520927,9.258378,1.1408371,-0.35064173,9.723797,1.22279811409351589116,2.6821043,9.130288,1.6298528,-0.39482236,9.708905,1.3235141409351589118,2.1631613,8.515577,1.83336,-0.44373,9.689473,1.44485831409351589146,1.8818425,7.7290816,1.5035586,-0.51157105,9.667179,1.56664351409351589148,1.8339585,7.2167225,1.0390835,-0.59327596,9.643682,1.67864021409351589151,2.2469583,7.6560583,1.3479356,-0.6873805,9.621843,1.76579261409351589182,2.2768857,8.054094,1.9512744,-0.77795464,9.602338,1.83310511409351589184,2.4007857,8.334216,2.4378958,-0.8550351,9.584002,1.89373111409351589186,2.3145945,8.143278,2.7497406,-0.9176166,9.565417,1.95733171409351589191,2.179322,8.145074,2.5929205,-0.97329456,9.546392,2.02224971409351589208,1.6693572,8.389283,2.9442697,-1.02536,9.52876,2.07888321409351589210,1.8734628,8.506598,2.7443538,-1.0746113,9.512923,2.12600331409351589216,2.468422,8.608951,2.0697873,-1.1146346,9.500369,2.16124151409351589235,3.233968,8.907029,2.2284033,-1.1414481,9.492565,2.1814461409351589236,3.4404678,9.718064,3.289633,-1.1553359,9.4883995,2.19222741409351589253,3.1962593,10.499173,3.6128504,-1.1629758,9.484221,2.20622591409351589269,2.5037365,10.852318,3.4853592,-1.1688286,9.480496,2.21909761409351589274,1.8680758,10.969634,2.8808231,-1.1791093,9.477318,2.22722431409351589299,1.353921,10.7769,2.504335,-1.1907605,9.476857,2.22298671409351589300,0.87687635,10.26933,2.4732103,-1.1984022,9.480729,2.20226671409351589302,0.85293436,9.61272,2.235586,-1.1985734,9.489624,2.16353251409351589315,0.61411273,9.068039,1.0313023,-1.1846156,9.50379,2.10833141409351589317,0.44532153,8.875306,0.24361002,-1.1570143,9.523272,2.03445531409351589333,0.4782418,9.188348,0.7278373,-1.1198274,9.547801,1.93800631409351589336,-1.6921021,8.971074,-0.3824737,-1.0734946,9.576279,1.82013391409351589355,-3.4117374,8.352771,-0.8355764,-1.0300742,9.605703,1.68516561409351589358,-4.5543704,8.219295,-1.073201,-0.9895453,9.634453,1.53900151409351589369,-5.189432,8.622119,-1.0576386,-0.9411891,9.662519,1.38573711409351589387,-5.5527525,10.816404,-1.09834,-0.881362,9.689749,1.22570811409351589406,-5.4713492,15.065515,-1.0911574,-0.80858403,9.715755,1.05862521409351589408,-4.6160207,19.328989,-0.85532856,-0.7213735,9.739065,0.894766451409351589410,-3.2291796,19.608511,-1.3533225,-0.6084251,9.758068,0.761797961409351589417,-4.3035774,19.608511,-2.4157495,-0.46280608,9.772807,0.66966281409351589440,-5.2169657,19.563622,-1.7411832,-0.34872913,9.782023,0.600683031409351589444,-4.7758336,16.53256,-0.02873042,-0.28577247,9.785135,0.5829751409351589450,-3.2638955,11.652579,2.1440077,-0.2423685,9.782167,0.648731951409351589481,-2.1122844,6.76781,4.0641575,-0.17945626,9.775095,0.765321409351589484,-1.7555484,4.50888,5.5282116,-0.1157395,9.76258,0.921434761409351589487,-4.07553,6.4152637,5.8681884,-0.05746018,9.747419,1.07466451409351589492,-2.3319526,10.539874,5.221155,-0.016083632,9.734228,1.1895181409351589512,0.5650316,10.709863,3.7972038,0.066792734,9.727527,1.24143991409351589513,1.5310919,8.45213,2.9586349,0.23138154,9.727023,1.22550621409351589517,3.1495724,7.459734,2.1092918,0.42066926,9.727133,1.17315781409351589556,3.50152,8.854357,1.1324574,0.6005468,9.724386,1.1162741409351589558,3.390788,8.962694,0.3705027,0.76897997,9.718177,1.06588171409351589560,2.9251158,8.540716,0.19512744,0.9204608,9.70927,1.02627341409351589562,2.48578,7.8332295,0.23163901,1.0481758,9.698377,1.00659051409351589570,1.5119383,6.589442,0.47046062,1.1616082,9.685966,1.00156061409351589592,0.9020155,5.5766945,0.6392518,1.2525659,9.671805,1.02842641409351589594,0.5255273,4.805163,0.7086837,1.3280636,9.655737,1.08322691409351589597,0.480636,4.2263646,0.9044097,1.3948362,9.637651,1.15780091409351589620,0.6901286,4.140772,1.1528081,1.4587388,9.6172,1.24577311409351589622,0.9636662,4.51726,1.2785037,1.5200016,9.594689,1.34235541409351589639,1.2850877,5.0362034,1.3640964,1.577623,9.571213,1.43993391409351589643,1.6250644,5.4845176,1.5358804,1.6298951,9.548773,1.52800331409351589649,1.666963,5.828684,1.7944542,1.6735591,9.529518,1.59933141409351589681,1.5496471,6.095039,1.9608512,1.7043397,9.514977,1.65251771409351589683,1.4939818,6.3745623,1.8872294,1.7278786,9.503039,1.69619751409351589684,1.6244658,6.733692,1.7842789,1.7348927,9.49683,1.72358851409351589706,1.7884687,7.08983,1.6723499,1.7265241,9.496238,1.73522271409351589708,2.1529858,7.2747817,1.5891514,1.702575,9.500873,1.73351091409351589711,2.6605566,7.7224975,2.7647045,1.6640922,9.510039,1.72057341409351589717,3.0400376,8.701726,3.6074634,1.6134002,9.521561,1.70505361409351589745,3.5847185,10.046669,3.9396589,1.5519372,9.535,1.68690931409351589746,3.6176388,10.863091,4.2185836,1.4857911,9.549537,1.66407871409351589752,4.1982327,10.882844,3.66253,1.418993,9.564111,1.63847941409351589775,5.425261,9.314642,2.4756045,1.365459,9.578316,1.60055731409351589776,1.0462662,11.703457,4.6686935,1.339605,9.59161,1.54170761409351589777,-0.46746787,16.066889,4.43885,1.2784451,9.606867,1.49802421409351589801,0.30885202,14.842854,1.2084733,1.193494,9.623808,1.45886081409351589803,1.882441,13.464991,-1.3389573,1.1438237,9.6388,1.3984341409351589817,4.0815153,12.741343,-0.6380547,1.1634737,9.6468315,1.32490661409351589818,5.5790887,12.206239,3.3482912,1.2408079,9.641166,1.29564131409351589832,5.7424927,13.494319,7.5124063,1.350153,9.617089,1.36348721409351589857,5.708974,16.861166,6.0106435,1.4830048,9.575051,1.51310421409351589858,5.7347116,19.508554,3.4207156,1.6349583,9.53307,1.61799121409351589860,1.6406267,19.36191,4.128801,1.7956245,9.503547,1.62133441409351589869,-1.3670892,16.356588,2.6168625,1.8781219,9.489192,1.61192081409351589885,-1.839944,13.057378,-0.7044938,1.8889596,9.4829645,1.63572491409351589908,-2.2170308,10.324995,-0.8511387,1.880281,9.477749,1.67548141409351589910,-1.6053122,8.210915,1.5999253,1.8432325,9.469042,1.76356351409351589911,-1.846528,7.8128786,1.7166426,1.7880348,9.459266,1.869661409351589917,-1.8902222,7.835025,1.6448165,1.7202649,9.458283,1.9369981409351589938,-1.3383588,8.515577,1.7824832,1.6540189,9.465954,1.95712711409351589939,-0.664391,9.113529,1.4514848,1.5970203,9.476966,1.95116291409351589949,-0.10414778,9.242816,0.8900445,1.5517987,9.487016,1.93877511409351589971,0.65242,9.006987,0.5506664,1.5098221,9.497697,1.9195281409351589972,1.2892777,9.197925,0.3393781,1.4618357,9.5124,1.88352381409351589977,0.96426475,10.020332,-0.015562311,1.4035871,9.532224,1.82676021409351590011,0.18375498,10.352529,-0.06404489,1.3339329,9.554638,1.76065521409351590013,-0.31004912,9.818023,-0.20949265,1.2476121,9.578803,1.69125931409351590015,-0.76315176,9.09258,-0.44831428,1.1462402,9.600704,1.63799081409351590018,-1.1839328,8.784326,-0.14544775,1.0354545,9.620256,1.59652661409351590051,-1.4856021,8.783728,0.55126494,0.92219627,9.639085,1.55177061409351590055,-1.5927427,8.494628,0.88525605,0.80862063,9.657031,1.50276721409351590058,-1.5502456,7.925406,0.694917,0.6978213,9.672611,1.4574011409351590084,-1.3551182,7.4687123,0.40880993,0.5940526,9.68582,1.41506361409351590090,-0.9516952,7.41185,0.019752163,0.50226325,9.697099,1.37273961409351590091,-0.6039374,7.578247,0.32022446,0.4260801,9.707422,1.32468621409351590107,-0.64703304,9.108741,1.043872,0.36787748,9.716325,1.27595711409351590109,-0.6410475,9.412206,0.9995792,0.31576824,9.723708,1.23296021409351590110,-0.9008184,8.788516,0.2825158,0.270701,9.728471,1.20581521409351590117,-1.1192893,7.9236107,-0.4345476,0.22180592,9.730935,1.19586111409351590133,-1.1025299,7.555502,-0.7386112,0.15917274,9.732031,1.19691591409351590149,-1.163582,7.513005,-0.43155485,0.07796616,9.733675,1.19159641409351590150,-1.0073603,8.289325,0.16579847,-0.02077325,9.736922,1.16719061409351590163,-0.4381389,9.376292,0.46567222,-0.13139361,9.740859,1.12641171409351590169,0.31244332,9.712678,0.3453636,-0.24208921,9.743699,1.08265631409351590183,1.0749966,9.576807,0.25737667,-0.34284356,9.7444725,1.04790781409351590197,1.881244,9.651027,0.62608373,-0.42997295,9.743088,1.02848911409351590198,2.1918917,9.970055,1.1252748,-0.50073117,9.73917,1.0335561409351590217,2.1021092,10.235811,1.3850456,-0.56132066,9.733355,1.05693981409351590218,1.8716671,9.731832,1.3215994,-0.6126829,9.723808,1.11471951409351590233,1.6795325,9.439739,1.0839748,-0.664631,9.710514,1.19772821409351590250,1.3323733,9.062652,0.6913257,-0.7243112,9.695,1.28559741409351590251,1.4041992,8.863934,0.320823,-0.79500824,9.679187,1.36077081409351590264,1.8698715,8.777742,0.24540567,-0.8689086,9.664184,1.42088911409351590269,2.9221232,8.705916,1.4670471,-0.9340532,9.650332,1.47275571409351590282,3.1663318,8.5060005,2.4486697,-0.97938806,9.636733,1.53120111409351590301,2.9765913,8.34918,2.8508956,-1.0145203,9.622057,1.59911851409351590302,2.4612393,8.276755,3.4566288,-1.0485069,9.605584,1.67445331409351590316,1.9057846,8.389283,3.6990416,-1.083582,9.587251,1.75523871409351590317,1.6310499,8.286332,3.29502,-1.1181114,9.568225,1.83556071409351590330,1.7741034,7.9822683,2.6060886,-1.1480772,9.550729,1.90680581409351590345,2.1823149,8.030152,2.44029,-1.1714962,9.536276,1.96402981409351590349,2.3582888,8.604162,2.336741,-1.1867476,9.525783,2.0053681409351590362,2.2170308,9.119514,2.2056582,-1.1960397,9.520456,2.02504371409351590369,1.4915876,9.701305,1.8561049,-1.2028489,9.519818,2.02400731409351590393,1.0414777,10.226234,1.7298107,-1.2097532,9.523216,2.00380591409351590394,0.90261406,10.26095,1.9165585,-1.2092396,9.531029,1.96662251409351590397,1.0229226,10.019734,1.8567034,-1.1930761,9.543048,1.91760181409351590412,1.3054385,9.936536,1.4580688,-1.1529052,9.558852,1.86267211409351590417,1.7717092,10.250176,1.4502877,-1.0983756,9.576483,1.80414761409351590431,2.1589713,10.42196,1.6998832,-1.0193714,9.596597,1.74259171409351590454,1.8656816,10.289082,1.2144588,-0.92588,9.618822,1.67075591409351590456,1.0229226,10.028113,-0.14065935,-0.83080083,9.643741,1.57430181409351590458,-2.2625206,9.291897,-1.3874398,-0.7372465,9.671282,1.44677461409351590488,-3.840898,9.3343935,-1.3138182,-0.65913606,9.698015,1.2978611409351590490,-5.145139,11.025299,-0.79487497,-0.5799923,9.722952,1.13938991409351590492,-5.4527946,15.3845415,-0.57879823,-0.5057362,9.744891,0.975573361409351590497,-5.216367,19.442116,-1.1504139,-0.4343497,9.763087,0.814774161409351590517,-4.8003745,19.608511,-2.1775265,-0.35406238,9.777117,0.673074541409351590518,-5.2061915,19.608511,-2.6312277,-0.2595896,9.786917,0.565026161409351590534,-6.8905125,18.805857,-1.553837,-0.17766792,9.793526,0.475039841409351590545,-6.420052,15.353417,-0.29388827,-0.15486747,9.7953615,0.444165381409351590549,-4.9733553,11.474811,1.0941502,-0.15661775,9.793444,0.484063631409351590564,-3.0454245,7.707534,2.678513,-0.15097164,9.78805,0.584531371409351590581,-2.2864625,5.063138,4.374805,-0.12494141,9.779547,0.71779421409351590583,-3.4332852,7.9355817,6.0525417,-0.08828443,9.768899,0.855107551409351590603,-1.6160861,11.54065,5.4887075,-0.04971322,9.757367,0.980673851409351590604,0.48243165,10.043676,3.8217444,0.044191755,9.74982,1.0533181409351590611,2.3050177,9.597756,3.300407,0.21148404,9.747393,1.05546131409351590618,3.8989575,8.948928,2.7377696,0.41445914,9.744299,1.02335661409351590633,4.4963107,8.846576,2.4013844,0.62380713,9.737292,0.983069961409351590649,3.9983168,8.337209,1.5855601,0.82200027,9.726804,0.940203131409351590651,2.7688942,7.2125325,0.46208093,0.9861329,9.715532,0.897986951409351590663,2.6443958,7.477092,0.60214174,1.1140952,9.70471,0.86474091409351590681,2.2768857,6.8288617,0.76315176,1.2265598,9.691545,0.860185861409351590682,2.3654714,6.1004257,0.87208796,1.333884,9.674531,0.89140761409351590697,2.2505496,5.227141,1.0187328,1.4389259,9.653591,0.952919361409351590698,2.2164323,4.619014,1.0079589,1.5394694,9.629589,1.03510131409351590712,2.3930047,4.518457,1.311424,1.6357093,9.603199,1.12847151409351590718,2.4474726,4.6399627,1.4939818,1.7275437,9.575072,1.22637651409351590731,2.4534583,4.832696,1.4556746,1.8145305,9.546476,1.32009761409351590747,2.4642322,5.2008047,1.5652094,1.8977423,9.517612,1.40854261409351590749,2.5145104,5.7484784,1.560421,1.9713353,9.491516,1.48166931409351590762,2.4953568,6.353014,1.6238673,2.0318666,9.469959,1.53681111409351590782,2.475006,6.9988503,1.8471266,2.075893,9.454204,1.57451771409351590783,2.345719,7.4788876,1.9057846,2.1012642,9.444363,1.59971871409351590796,2.178125,7.7368627,1.797447,2.104207,9.440797,1.616811409351590798,2.2996306,7.945757,1.596334,2.0818374,9.443701,1.62875641409351590818,2.3630772,7.915829,1.7633295,2.036159,9.45212,1.63764371409351590819,2.0045455,7.902063,2.7072437,1.9683733,9.464588,1.64847831409351590832,2.6318262,8.78672,3.7858315,1.8777792,9.480061,1.66517131409351590860,2.6198552,10.405201,4.1683054,1.7786744,9.495309,1.68695411409351590863,2.3319526,9.937134,4.3742065,1.6763059,9.5104885,1.70616831409351590868,2.1458032,8.520964,3.757101,1.5741516,9.525348,1.72052321409351590904,-0.260968,10.927735,4.935048,1.4843009,9.539797,1.72032431409351590906,-1.2539631,15.231313,4.831499,1.3853929,9.554026,1.72386011409351590910,-0.7020996,13.866019,1.6406267,1.2729858,9.567967,1.7331731409351590912,0.96665895,12.534245,-0.41599256,1.2023354,9.579781,1.71831461409351590914,3.5553896,11.880029,-0.3238158,1.2035623,9.585716,1.68400551409351590946,5.5778913,10.849923,1.8387469,1.2687438,9.579027,1.67419741409351590948,5.8891377,10.66138,6.654085,1.3767118,9.553656,1.73283331409351590950,5.5820813,13.788806,7.257424,1.5136749,9.508139,1.86399661409351590951,4.0462008,18.02834,5.507262,1.6644346,9.457622,1.98832171409351590966,1.3144168,18.89085,4.0078936,1.7991837,9.422178,2.03860121409351590983,-0.97743285,16.658855,2.7144263,1.8914832,9.4099045,2.01156041409351590986,-1.3084313,13.8642235,-0.31423897,1.9384357,9.407482,1.97791521409351591005,-1.1438298,11.565191,-0.9911995,1.9487753,9.405549,1.9769461409351591008,-0.6919243,9.471462,0.6171055,1.9223535,9.401823,2.02007271409351591011,-0.74399817,8.127118,2.3451207,1.8751198,9.397927,2.0816521409351591041,-2.030283,7.913435,2.1948843,1.8169483,9.39996,2.12364341409351591043,-1.738789,8.346786,2.3744495,1.7523676,9.413101,2.1196981409351591045,-0.8415619,9.502586,1.9470845,1.6982993,9.429831,2.0891341409351591051,0.06943185,10.348937,1.1384429,1.6572227,9.44508,2.05291961409351591076,0.7691373,10.608109,0.27952304,1.6236421,9.460141,2.00995331409351591079,1.4718355,10.972627,-0.05626374,1.5899684,9.477859,1.95258361409351591081,1.6915035,11.859079,-0.31244332,1.5456637,9.5011215,1.87350171409351591107,1.0301052,11.931504,-0.5883751,1.484821,9.52926,1.77732771409351591108,0.20051439,10.617686,-0.36990416,1.4050361,9.557649,1.68749071409351591110,-0.5919664,8.924387,-0.11432313,1.309268,9.579688,1.63883781409351591133,-0.9636662,8.404845,0.2789245,1.2012079,9.595427,1.6295111409351591135,-1.073201,8.804078,0.9498995,1.0866445,9.610471,1.62124991409351591138,-1.3461399,8.814852,1.2300211,0.96839505,9.627934,1.59231321409351591167,-1.5903485,8.233061,1.1210849,0.85015875,9.645587,1.55250291409351591168,-1.5729905,7.514202,0.6781576,0.73552215,9.661279,1.51298381409351591170,-1.3383588,6.8929067,0.14544775,0.62557864,9.674594,1.4769121409351591178,-0.97144735,7.0826473,-0.08080431,0.5247128,9.68606,1.44059311409351591202,-0.3716998,7.620744,0.42078096,0.4373152,9.696365,1.39988371409351591203,-0.18315643,8.605359,0.78888947,0.37147078,9.704537,1.3617591409351591211,-0.6943185,9.346365,0.17896658,0.32118538,9.710413,1.33232711409351591236,-0.89782566,9.009381,-0.40701428,0.2675209,9.71514,1.30953751409351591238,-1.1474211,8.723274,-0.8655039,0.20329067,9.718581,1.29547671409351591240,-0.9211691,8.817246,-0.7457938,0.12385871,9.722193,1.27828841409351591251,-0.7200562,9.832987,-0.41000703,0.029623615,9.727185,1.2455441409351591270,-0.31124622,9.858126,-0.30765492,-0.07819846,9.733092,1.19633161409351591272,0.31543607,9.455301,-0.10594343,-0.1864475,9.737703,1.14576131409351591279,1.1372458,8.919599,0.34237084,-0.2947134,9.739544,1.10671171409351591303,2.0799627,9.276335,0.8888474,-0.3907765,9.737628,1.09374791409351591305,2.3535004,9.455899,1.2012907,-0.4639481,9.732534,1.11036131409351591313,2.4947581,9.22426,1.2755109,-0.5158597,9.72482,1.15420381409351591341,2.5629928,8.944139,1.3000516,-0.5547026,9.714652,1.2199291409351591345,2.5390508,8.521563,1.340753,-0.5897467,9.7020235,1.30128191409351591346,2.417545,8.007407,1.4119805,-0.6308452,9.68723,1.38924071409351591363,2.3600843,7.6668324,1.4502877,-0.6857953,9.67129,1.47180031409351591365,2.5462334,7.65546,1.453879,-0.7554498,9.655252,1.54135321409351591385,2.6378117,7.8146744,1.5544355,-0.8318258,9.640063,1.59613621409351591386,2.569577,8.08881,1.7447745,-0.90857077,9.624832,1.64544671409351591390,1.8848352,8.847174,2.4480712,-0.9815236,9.610192,1.68855741409351591399,1.4311341,8.887876,2.4983494,-1.0504375,9.594087,1.73794961409351591424,0.7314286,8.757391,2.5671828,-1.1165463,9.575621,1.79755591409351591426,0.6183026,8.755595,2.1290438,-1.1842927,9.554248,1.86659511409351591433,1.2114661,8.294113,1.3138182,-1.2503226,9.532233,1.93483791409351591457,2.2182279,7.867945,0.97623575,-1.3106362,9.512287,1.99223981409351591459,2.8215668,8.277952,1.7172412,-1.3595235,9.496553,2.03409861409351591461,2.7593174,8.971672,2.2577322,-1.3966225,9.484498,2.06497811409351591485,2.0153193,9.360131,2.380435,-1.425446,9.47548,2.08656861409351591486,1.1300632,9.805453,2.0099323,-1.4553164,9.467335,2.1028651409351591493,0.8984242,10.105926,2.1284454,-1.4773743,9.4628935,2.1074651409351591499,0.623091,10.093356,2.8461072,-1.4818217,9.463164,2.10312181409351591516,0.65900403,9.773131,2.8060043,-1.4663148,9.467766,2.09325671409351591534,1.3150153,9.322423,2.2164323,-1.4282541,9.477703,2.07451941409351591535,1.9554642,9.320028,2.528277,-1.3619435,9.4943905,2.04255941409351591538,2.1051018,9.388862,2.7952304,-1.2701828,9.516416,1.99871641409351591569,1.762731,9.627085,1.8920178,-1.166343,9.542337,1.93747291409351591572,0.21787235,9.782708,0.56203884,-1.0578185,9.573482,1.84386911409351591574,-0.7613561,9.524135,-0.044891283,-0.95297164,9.607634,1.71919751409351591579,-3.459023,8.6496525,-0.6817489,-0.84429353,9.642083,1.57727481409351591602,-4.301782,10.660782,-0.12988544,-0.7513586,9.673216,1.42645441409351591603,-4.76925,15.139734,0.5057751,-0.65900826,9.70245,1.26434921409351591614,-4.074931,19.382858,0.32800564,-0.5706943,9.72754,1.10438491409351591640,-3.2752678,19.608511,-0.91578215,-0.46398216,9.748165,0.96352891409351591642,-4.357447,19.608511,-2.0009542,-0.33636254,9.764048,0.848900561409351591645,-5.405509,19.324799,-1.4640543,-0.23745713,9.774958,0.75114831409351591665,-5.3965306,16.353594,-0.12090719,-0.19039142,9.780149,0.694846331409351591666,-4.3275194,12.539033,1.4251486,-0.1714296,9.779184,0.713112061409351591671,-2.7617116,8.822633,3.0388405,-0.14978994,9.77293,0.7986261409351591678,-2.4115596,6.769605,4.7417164,-0.112128474,9.763041,0.91697411409351591697,-3.916914,8.040328,5.8628016,-0.0676644,9.751595,1.03548361409351591712,-2.2756886,11.359888,5.445013,-0.035926834,9.738556,1.15310221409351591713,-0.062249243,11.110293,4.204817,0.029080257,9.729548,1.22695891409351591728,1.0696096,8.828619,2.8329391,0.16927232,9.726717,1.23802221409351591731,1.4119805,7.507618,2.1051018,0.3521855,9.726331,1.20200881409351591742,2.3481133,8.4587145,2.1146786,0.52983373,9.72438,1.15156331409351591758,3.4644098,9.355343,1.5634137,0.70285237,9.718266,1.10981581409351591759,3.4524388,9.364322,-0.11911154,0.880519,9.707542,1.07642511409351591775,2.4355016,7.480085,-0.14963761,1.0435588,9.69492,1.04398081409351591779,2.0536265,6.8605847,0.23463176,1.1767588,9.6806,1.03520121409351591792,2.058415,6.2967505,0.36272156,1.2923727,9.6632395,1.05923381409351591810,1.8525136,5.485116,0.4914099,1.40367,9.643019,1.1010471409351591812,1.6005238,4.955399,0.712275,1.5113286,9.618577,1.17014671409351591828,1.4670471,4.6459484,0.86849666,1.613567,9.590903,1.25753461409351591830,1.5035586,4.4675803,0.8888474,1.7058215,9.561629,1.35492811409351591843,1.4981717,4.2916064,0.88525605,1.7860469,9.5325365,1.45298471409351591858,1.3892355,4.1940427,0.91817635,1.8530818,9.50553,1.54317641409351591859,1.1845313,4.214992,0.9576807,1.9072304,9.481943,1.62038051409351591876,1.2204443,4.3239284,1.1438298,1.9474072,9.463109,1.6815441409351591879,1.3461399,4.6178164,1.3515269,1.9747062,9.449428,1.72605231409351591891,1.4077905,5.0559554,1.4413095,1.9894928,9.441217,1.75377851409351591917,1.6166847,5.6419363,1.614889,1.9902099,9.439013,1.76479711409351591920,1.9566613,6.202778,2.2523453,1.9855827,9.4397,1.76633161409351591923,2.3642743,6.721721,3.1771057,1.9662808,9.44517,1.75866341409351591931,2.8353333,7.309498,3.9875429,1.93489,9.453506,1.74866081409351591956,3.4045548,8.304289,4.3155484,1.8922653,9.463659,1.7403671409351591958,4.9176903,10.800244,4.4161053,1.8406317,9.475515,1.73120131409351591960,4.398747,10.784681,3.9468415,1.7955284,9.487215,1.71441261409351591983,2.4301147,13.043013,4.386776,1.7429327,9.50389,1.67591081409351591984,1.2521675,17.341204,3.5984852,1.6639148,9.526567,1.62674271409351591991,1.5945383,16.236279,1.7166426,1.5573052,9.553118,1.57580161409351592013,2.6288335,14.211383,0.18495208,1.4838015,9.570976,1.53790841409351592015,4.771045,13.32912,-0.46926352,1.4755055,9.577349,1.50587571409351592033,7.8589673,12.6767,-0.36870706,1.511407,9.573994,1.49154211409351592034,7.423821,9.621099,3.2016463,1.6168716,9.554292,1.50719491409351592039,7.695563,7.587225,7.877522,1.7326204,9.519155,1.59815341409351592064,6.821679,9.56304,10.0341,1.877845,9.465289,1.74710391409351592065,5.6443305,15.919645,6.7767878,2.036301,9.405322,1.88780181409351592071,4.4645877,19.484013,2.8173769,2.1710017,9.368917,1.91847551409351592079,0.66498953,16.356588,4.0503907,2.2538557,9.360977,1.86081871409351592097,-3.6792896,12.582129,3.2872388,2.258752,9.3593,1.86331321409351592100,-3.9360676,12.21402,0.30526072,2.2029715,9.364,1.9059931409351592111,-2.4785974,13.002311,0.30585927,2.1271863,9.374978,1.93785211409351592139,-1.977012,12.69705,0.717662,2.0493038,9.384891,1.97347461409351592141,-2.6850972,11.639412,-0.26874915,1.9626228,9.396025,2.0082931409351592145,-2.7874494,9.867104,0.108936176,1.8648182,9.414767,2.01370331409351592164,-1.9434932,10.237008,-0.011372458,1.7781094,9.433995,2.00211261409351592166,-1.1312603,10.21127,-0.10115502,1.7071087,9.450638,1.98535191409351592183,-0.17058687,9.925163,-0.074818805,1.6517748,9.464699,1.96507611409351592185,0.7667431,9.400234,-0.108337626,1.5986682,9.481232,1.92896571409351592200,1.1599907,9.0554695,0.08738836,1.5342021,9.501982,1.87855721409351592201,0.91937345,8.907627,0.6476316,1.4542016,9.524719,1.82630751409351592211,0.65421563,8.866926,1.2120646,1.3619869,9.546177,1.78490251409351592227,0.55365914,8.8364,1.3904326,1.2610768,9.56496,1.7583011409351592243,0.35254622,8.792706,1.4640543,1.1559725,9.582261,1.73620631409351592245,0.11312603,9.010578,1.8369513,1.0469515,9.600136,1.70636861409351592261,-0.29209262,9.22426,1.9919758,0.9358658,9.619025,1.66400341409351592262,-0.6488287,8.948928,1.5586253,0.8238961,9.637764,1.61402571409351592277,-0.9139865,8.4587145,0.7194576,0.71623796,9.65444,1.5649911409351592281,-0.94211835,7.744644,-0.109534726,0.6163195,9.668144,1.52234851409351592300,-0.86729956,7.240066,-0.5919664,0.52712077,9.678776,1.48790751409351592302,-0.54288524,7.2526355,-0.24899697,0.45107496,9.686576,1.46190421409351592311,-0.16101007,8.025963,0.37708676,0.3938913,9.691254,1.44735571409351592335,-0.04369418,9.043498,0.6973112,0.35124746,9.693155,1.44560621409351592339,-0.50158525,8.127118,0.18854338,0.30759415,9.693958,1.45015571409351592341,-0.30226797,7.8062944,0.107739076,0.25506884,9.693212,1.46525291409351592368,-0.260968,7.93618,0.272939,0.18432723,9.691991,1.48381641409351592370,-0.48362875,8.456321,0.47105917,0.09322012,9.692449,1.48934461409351592372,-0.40402153,9.555858,0.3537433,-0.019203553,9.695466,1.47238981409351592382,0.107739076,9.130288,0.21547815,-0.14956258,9.699252,1.43963811409351592402,1.192911,8.06008,0.41718966,-0.28332075,9.700262,1.41245891409351592404,2.2451627,8.036138,0.96785605,-0.4035203,9.697309,1.40348451409351592415,2.3995886,8.68796,1.4341269,-0.49335545,9.691873,1.41231171409351592439,2.124854,9.14585,1.572392,-0.5519689,9.684064,1.4438211409351592441,1.7010803,9.13388,1.5173253,-0.5932272,9.672293,1.50506681409351592443,1.2366052,8.862138,1.0600328,-0.63452697,9.657624,1.58052751409351592459,1.0420763,8.470087,0.51834464,-0.6815423,9.639053,1.67168711409351592460,1.4083891,8.261791,0.25318682,-0.7431686,9.619331,1.75685451409351592477,2.1859062,8.345589,0.40880993,-0.8159248,9.601162,1.82272981409351592480,2.902371,8.415619,0.95947635,-0.88450396,9.586008,1.86989321409351592499,3.4374752,8.393473,1.6406267,-0.93383074,9.573639,1.90887171409351592501,3.477578,8.177995,2.6168625,-0.96199656,9.562281,1.95134091409351592514,2.259528,8.485051,3.6565444,-0.97649264,9.549572,2.00562071409351592534,1.4323312,9.025542,3.4793737,-0.98978597,9.5338955,2.0725691409351592536,1.3736732,9.039309,2.8538885,-1.0013205,9.518334,2.13753181409351592540,2.1996727,8.381501,1.6436194,-1.0083971,9.505096,2.19240981409351592567,2.8275523,7.817667,1.6938977,-1.0124779,9.495189,2.23309041409351592568,2.7102363,8.031948,2.5246856,-1.01434,9.488999,2.25840261409351592574,1.8357542,8.759187,2.7527335,-1.0254506,9.485952,2.26617651409351592595,0.75477207,9.584588,2.3762453,-1.0499905,9.485965,2.25485751409351592598,0.35673606,10.228029,2.0883424,-1.0812342,9.489411,2.22539541409351592621,0.16101007,10.654198,2.2511482,-1.1065611,9.4970255,2.18000911409351592624,0.2896984,10.630854,2.2601264,-1.1187806,9.508463,2.12316581409351592626,0.92775315,10.331579,1.6879122,-1.1115375,9.523542,2.0584041409351592660,1.6041151,10.319608,1.3904326,-1.0767763,9.542678,1.98701121409351592663,2.0123265,10.657789,1.5867572,-1.0172142,9.564889,1.91011821409351592674,2.48159,11.179127,1.8219875,-0.94610614,9.587732,1.83048511409351592677,1.7411832,11.116877,1.1210849,-0.8683333,9.61169,1.74120821409351592705,0.29867667,10.757148,0.19632454,-0.79699403,9.63628,1.63624641409351592707,-1.6627731,9.736021,0.035913024,-0.7301757,9.660334,1.52157491409351592709,-3.4853592,8.788516,-0.2825158,-0.6664111,9.681835,1.41008441409351592711,-5.5431757,10.552444,-0.18555063,-0.60282224,9.701828,1.29673481409351592714,-5.2606597,15.070901,0.3537433,-0.5502247,9.720565,1.17399281409351592732,-4.246715,19.404406,0.25318682,-0.48814794,9.737837,1.05197471409351592734,-2.8233624,19.608511,-1.2725182,-0.39828965,9.752836,0.94549421409351592740,-4.0982747,19.608511,-2.6090813,-0.27238604,9.765731,0.852476361409351592766,-5.020641,19.166782,-1.9309237,-0.18177894,9.774941,0.766729351409351592768,-4.9583917,15.197794,-0.2908955,-0.12233875,9.780214,0.709120751409351592774,-3.6595373,11.262923,1.7160441,-0.09318916,9.77918,0.727572261409351592798,-2.3373394,7.6123643,3.4380736,-0.06535817,9.771753,0.82399511409351592800,-1.9488802,5.158906,4.976947,-0.027376156,9.75924,0.962745131409351592802,-2.7551277,5.647323,5.787384,0.016827144,9.744245,1.10444281409351592814,-1.8800468,9.181165,5.7496753,0.062246542,9.730572,1.2175861409351592835,0.62967503,10.360908,4.687847,0.14134087,9.721736,1.27994411409351592837,2.35769,9.139266,3.4560301,0.29579434,9.718206,1.28038671409351592840,2.8496985,7.5668745,2.4570496,0.49529785,9.715723,1.23684751409351592865,3.9091327,7.9206176,1.9255368,0.68559617,9.711614,1.17682151409351592866,4.8344917,8.961497,1.1857284,0.86489207,9.703746,1.12235781409351592873,4.1575313,8.665215,0.29747957,1.0440396,9.691825,1.07187371409351592898,3.4733882,8.268974,-0.10295067,1.1989774,9.677853,1.03537441409351592901,1.9913772,6.1141925,0.22864626,1.3221965,9.663009,1.02393821409351592903,1.6837224,5.361216,0.42676646,1.4164491,9.646862,1.04981471409351592912,1.6340426,4.808754,0.5781997,1.4975375,9.62814,1.1075641409351592938,1.3808558,4.350863,0.7386112,1.5736705,9.606447,1.18747881409351592940,1.4371196,4.3718123,1.0881647,1.6493875,9.581526,1.28229731409351592942,1.4814123,4.781221,1.4808137,1.722855,9.554017,1.38668611409351592964,1.4407109,5.0810947,1.614889,1.7912062,9.525438,1.49264991409351592966,1.4161704,5.4091,1.7118542,1.8514415,9.497979,1.59089121409351592972,1.311424,5.7766104,1.8022354,1.8983572,9.473031,1.68175711409351593000,1.2599486,6.181829,1.851915,1.9363124,9.452286,1.75368071409351593002,1.3156139,6.5367694,