time,acc_x,acc_y,acc_z,gravity_x,gravity_y,gravity_z
1405456835830,1.62544337716,8.09901446431,0.294084302038,1.40998324127e-14,9.80664984823,1.69864122768e-14,
1405456835831,1.81967372344,7.93027285348,0.187782343821,4.66293670343e-15,9.80665011605,-1.80966353014e-14,
1405456835832,1.85240253727,7.75689585347,0.217121997189,1.67643676718e-14,9.80665064884,9.7699626167e-15,
1405456835834,1.71834789051,7.4771163743,0.503668421817,-1.12132525487e-14,9.80665103443,1.7763568394e-15,
1405456835876,1.56371614388,7.59833424813,0.855217352582,6.77236045021e-15,9.80664874261,1.25455201783e-14,
1405456835877,1.45769883481,7.98314683239,1.13195665701,-1.54876111935e-14,9.8066511939,-9.65894031424e-15,
1405456835878,1.18353213996,8.41962228212,1.22727692971,1.18793863635e-14,9.80665080313,1.4155343564e-14,
1405456835878,0.667686886144,8.73572147261,1.18866911288,-2.52575738102e-14,9.80665161494,2.209343819e-14,
1405456835883,0.198513159772,8.99104257868,1.00670476622,-1.85962356625e-14,9.80664969249,2.45914399954e-14,
1405456835915,-0.419501908226,9.10502906948,0.742405514133,-4.34097202628e-14,9.80665066203,2.44249065418e-15,
1405456835916,-0.763502600725,9.05667163682,0.522740589445,-2.40085729075e-15,9.80665077981,2.1371793224e-14,
1405456835916,-0.923539195369,8.85638067048,0.417834690291,1.25580101873e-13,9.80665133999,-2.39253061807e-14,
1405456835957,-0.954994789694,8.63858036394,0.260260130383,-4.19789203399e-13,9.80665025519,-7.38298311376e-15,
1405456835958,-0.736255933512,8.56933983634,0.197488227573,8.43075609325e-14,9.80665137905,-1.99840144433e-14,
1405456835959,-0.638658893649,8.59804431142,0.316190952975,-2.54241072639e-14,9.80665169247,-1.07136521876e-14,
1405456835960,-0.859461664014,8.60612025812,0.464206454424,1.24067423002e-14,9.80664926074,8.32667268469e-15,
1405456835963,-1.23143303088,8.7576266563,0.679247000138,2.74780198595e-14,9.806651189,-2.44249065418e-15,
1405456835997,-1.57580325738,9.17194906481,0.949693537181,7.49400541622e-15,9.8066512139,2.10942374679e-14,
1405456835997,-1.62889254857,9.44692180217,0.957246619774,2.16493489802e-14,9.80665115222,4.66293670343e-15,
1405456835998,-1.42182826657,9.6062311566,0.611487227713,5.99520433298e-15,9.80665115098,-3.77475828373e-15,
1405456836023,-1.33827226133,9.68925898959,0.215636620164,-1.07691633389e-14,9.80664858433,-1.16573417586e-14,
1405456836024,-1.39199373133,9.59185624091,-0.30811296593,1.35447209004e-14,9.80665080999,-7.1054273576e-15,
1405456836025,-1.29181615469,9.47998335242,-0.15006972153,9.54791801178e-15,9.80665002561,-1.01030295241e-14,
1405456836032,-0.949806047578,9.54985252739,0.0584293252255,1.26565424807e-14,9.80664973763,8.881784197e-16,
1405456836059,-0.86598368248,9.54772962934,0.0954879611936,3.88578058619e-15,9.80665149049,1.33226762955e-14,
1405456836059,-1.27622224986,9.25283676732,0.381642782077,6.32827124036e-15,9.80665104437,5.77315972805e-15,
1405456836063,-1.96688081882,8.73933109993,0.701332049291,1.75415237891e-14,9.80665160625,-3.33066907388e-16,
1405456836086,-2.83389963903,8.50763449012,0.753992065858,-3.66373598126e-15,9.80665211851,-3.33066907388e-15,
1405456836087,-2.98474759912,8.71618972521,0.60107644377,1.22124532709e-15,9.80665045975,-9.99200722163e-15,
1405456836092,-2.63293452737,9.10236620333,0.343619412271,-3.44169137634e-15,9.80665049519,-7.77156117238e-15,
1405456836136,-2.1471638667,9.56635034782,0.121651573833,9.65894031424e-15,9.80665095192,3.10862446895e-15,
1405456836137,-1.79736982826,9.97570238049,0.117368832003,9.7699626167e-15,9.80665063037,2.22044604925e-15,
1405456836137,-1.50874605271,10.2587945975,0.171983029443,-8.65973959208e-15,9.80665027792,-4.21884749358e-15,
1405456836138,-1.46028663322,10.5124865036,0.0123454112441,5.77315972805e-15,9.80665209202,5.77315972805e-15,
1405456836144,-1.39411865524,10.5504886309,-0.254559349884,0.0,9.80665153546,2.44249065418e-15,
1405456836176,-0.848249085684,10.3044720516,-0.0523966802048,5.10702591328e-15,9.80664997846,2.44249065418e-15,
1405456836177,-0.31910217323,10.0932214735,0.403024888385,5.88418203051e-15,9.80665080671,-3.5527136788e-15,
1405456836178,-0.215587776725,10.0458300792,0.187546135458,-9.43689570931e-15,9.80664935754,1.7763568394e-15,
1405456836184,0.458921812233,9.67550247236,0.128015088181,2.88657986403e-15,9.8066498122,9.43689570931e-15,
1405456836207,1.11604757505,8.90327691417,0.683421649701,4.4408920985e-16,9.80665013017,-3.44169137634e-15,
1405456836207,1.85928080013,8.03781351619,1.08689412086,-1.05471187339e-14,9.80665046863,4.4408920985e-15,
1405456836216,3.07649969128,7.55554953819,1.2136495676,1.44328993201e-15,9.80665043978,-1.39888101103e-14,
1405456836246,3.57725544725,7.62584367896,1.72323574085,5.99520433298e-15,9.80665066908,1.33226762955e-14,
1405456836247,3.78726357826,8.88279932543,2.01991640813,-6.10622663544e-15,9.80664948653,-1.27675647832e-14,
1405456836248,4.2551454854,11.6617264621,1.71958428581,-4.77395900589e-15,9.80665218112,6.43929354283e-15,
1405456836290,4.20988171402,15.6875920061,1.16462676535,-4.99600361081e-15,9.80665142169,-2.20379270388e-14,
1405456836291,2.60687114149,19.2751771313,1.09005080475,4.10782519111e-15,9.80664979623,-1.25455201783e-14,
1405456836292,2.49738003545,19.3886615618,2.43715563948,1.49880108324e-14,9.80664981149,2.14828155265e-14,
1405456836293,4.19040863383,16.7026456599,2.60807467455,3.53050921831e-14,9.80664996988,-1.88737914186e-14,
1405456836294,3.46362789679,13.7033690358,1.51574253803,-3.77475828373e-15,9.80665267606,7.66053886991e-15,
1405456836318,3.3238782618,11.3497600952,-0.489984465627,-4.38538094727e-15,9.80665157653,3.20299342604e-14,
1405456836318,3.10839774079,9.60491028268,-1.98198171802,-1.67088565206e-14,9.80664957907,5.10702591328e-15,
1405456836324,2.7627665446,8.28083576843,-2.77779401297,-2.38697950294e-14,9.80664998291,6.88338275268e-15,
1405456836362,2.1918957222,8.05256327893,-3.01977698045,3.08919556602e-14,9.80665149521,7.88258347484e-15,
1405456836364,1.43426280992,8.0536711892,-3.10569409329,-1.08080211447e-13,9.80664916749,7.21644966006e-15,
1405456836364,0.416317655147,8.36185988704,-2.94961081004,-9.69120617089e-14,9.80665047328,8.10462807976e-15,
1405456836365,-0.206046143196,8.32638484593,-2.36563944266,-3.35009797681e-14,9.80665047953,0.0,
1405456836390,-0.626809370215,7.88970792952,-1.63386223163,-2.47579734491e-14,9.80665043036,1.04360964315e-14,
1405456836391,-0.993546981805,7.64361832352,-0.782830400293,-1.78190795452e-14,9.80665190069,1.68753899743e-14,
1405456836393,-1.34034729748,8.02408949529,-0.0541425603074,2.18713935851e-14,9.80665117893,-5.44009282066e-15,
1405456836426,-1.34858096622,8.42095864218,0.537979186087,1.70974345792e-14,9.80665059274,7.66053886991e-15,
1405456836426,-1.16591283499,8.38179744586,0.773269408294,-3.66373598126e-15,9.80665224658,7.88258347484e-15,
1405456836427,-0.882079580705,8.03026546073,0.703352766144,-1.11022302463e-15,9.80665153252,1.18793863635e-14,
1405456836433,-0.523228848989,7.45757023196,0.468240229671,-6.32827124036e-15,9.80665165633,-1.29896093881e-14,
1405456836461,-0.508066804351,6.8365699431,0.132521800862,-5.55111512313e-15,9.80665037177,1.66533453694e-14,
1405456836462,-0.417788751321,6.15393370709,-0.111587862305,-7.77156117238e-15,9.8066503783,7.77156117238e-15,
1405456836463,-0.440899032183,5.53243382047,-0.263228522014,-2.22044604925e-15,9.80665137138,-5.88418203051e-15,
1405456836482,-0.782413843817,5.49176156407,-0.528415077773,-3.33066907388e-15,9.80665130195,-1.07691633389e-14,
1405456836500,-0.853462211139,5.57062042509,-0.710756676308,-6.88338275268e-15,9.80665087657,-6.2172489379e-15,
1405456836500,-0.474831116442,5.68212669689,-0.822701878373,2.22044604925e-16,9.80665123221,-4.10782519111e-15,
1405456836504,-0.0891306823741,5.69737969308,-0.888141626043,9.7699626167e-15,9.80665012554,6.2172489379e-15,
1405456836512,0.132223066383,5.87347555855,-0.770229436027,-3.33066907388e-15,9.80665190412,2.33146835171e-15,
1405456836532,-0.0538042249683,6.17915374955,-0.67302879024,2.22044604925e-16,9.80665113689,-7.21644966006e-15,
1405456836534,-0.282087882591,6.59101809302,-0.581368566765,2.88657986403e-15,9.80665259433,1.37667655054e-14,
1405456836553,-0.542347427954,7.18678139661,-0.609216941414,-2.88657986403e-15,9.80665077367,1.07691633389e-14,
1405456836554,-0.786582148198,7.95070802685,-0.825989185202,1.15463194561e-14,9.80665136429,1.22124532709e-15,
1405456836564,-1.09460426313,8.81556080792,-1.02135022169,-3.99680288865e-15,9.80665151061,-7.88258347484e-15,
1405456836591,-1.51171457641,9.91858824514,-1.07002155455,1.04360964315e-14,9.80665011028,9.21485110439e-15,
1405456836592,-1.97999779179,11.0601020876,-0.779174044551,-1.02140518266e-14,9.80665070619,8.32667268469e-15,
1405456836593,-2.17428190509,11.994036352,-0.589865231889,7.77156117238e-15,9.80665192537,6.88338275268e-15,
1405456836623,-1.49688329595,12.1106270185,-0.800647915827,-5.3290705182e-15,9.80665029795,1.15463194561e-14,
1405456836624,-0.613575314719,11.6890806905,-1.25546492113,-1.39888101103e-14,9.80665140419,-2.22044604925e-16,
1405456836625,0.857616366399,12.2361636077,-1.80745054242,2.22044604925e-16,9.80664942121,1.11022302463e-15,
1405456836634,1.73490068445,12.6739020247,-1.35136739843,-3.66373598126e-15,9.80665199612,-1.44328993201e-15,
1405456836680,1.16529330936,12.7712118846,0.10951441834,-7.77156117238e-16,9.80664986131,-6.99440505514e-15,
1405456836681,-0.23793057543,12.5405004631,1.52113262271,8.32667268469e-15,9.80665036011,-1.82076576039e-14,
1405456836683,-2.27065615501,11.5925234981,2.27253791948,3.66373598126e-15,9.80665114005,5.44009282066e-15,
1405456836685,-4.15621410403,9.99385280128,1.60958498195,-1.66533453694e-14,9.80664970013,-3.77475828373e-15,
1405456836723,-5.30551346636,8.4335686686,-0.586558177768,-2.55351295664e-15,9.80665126843,1.58761892521e-14,
1405456836725,-6.23454699624,8.92184037234,-3.3021055738,2.22044604925e-15,9.80665119773,2.99760216649e-15,
1405456836726,-5.44742544247,12.0337812608,-5.96197662221,3.33066907388e-15,9.80664902915,4.32986979604e-15,
1405456836727,-2.09310970023,16.5436565116,-6.08012667396,5.99520433298e-15,9.80665046428,2.44249065418e-15,
1405456836728,0.78857642612,17.657881354,-1.3989676807,-2.22044604925e-16,9.80665174996,-5.3290705182e-15,
1405456836789,3.22439182359,14.9526659376,1.32936559386,2.6645352591e-15,9.80665131219,2.55351295664e-15,
1405456836792,5.14274525689,13.0342705136,1.10086353253,-6.66133814775e-15,9.80664938908,4.99600361081e-15,
1405456836794,5.26666985012,11.7128444508,0.140718010874,1.99840144433e-15,9.80665115671,-5.44009282066e-15,
1405456836795,5.17845673216,11.7049108992,0.305259963369,-4.4408920985e-15,9.80665081806,-3.44169137634e-15,
1405456836797,5.78642431561,12.1629126938,1.99897989063,3.10862446895e-15,9.80665069635,-8.881784197e-15,
1405456836798,5.77070908575,11.1370026001,4.27553892842,-2.22044604925e-15,9.80665074015,-4.4408920985e-15,
1405456836800,5.59107355437,8.84552492345,4.45818958274,7.32747196253e-15,9.80665106797,-6.43929354283e-15,
1405456836823,5.06470105528,7.38432610383,2.6065976515,7.9936057773e-15,9.80665212556,-8.881784197e-16,
1405456836824,4.13433766159,7.76669602364,1.19941411734,-4.4408920985e-15,9.80665204066,5.3290705182e-15,
1405456836829,2.74127215319,8.24858377421,0.541581078339,6.66133814775e-16,9.80665167052,1.33226762955e-15,
1405456836857,1.25377176258,7.94172078718,-0.0939203805342,6.43929354283e-15,9.80665121792,-2.88657986403e-15,
1405456836858,0.4340837468,7.06827773895,-0.181675285678,3.33066907388e-15,9.80664998494,1.11022302463e-15,
1405456836858,0.172307023927,6.66720549159,-0.148688069747,1.27675647832e-14,9.80664992091,9.32587340685e-15,
1405456836871,0.298899654067,7.02735037925,-0.356108562311,1.33226762955e-15,9.80665047939,-9.54791801178e-15,
1405456836907,0.461819384641,7.81285686479,-0.70711394192,-1.55431223448e-15,9.80665115436,3.77475828373e-15,
1405456836907,0.373353744203,8.48494141228,-0.932788857417,3.10862446895e-15,9.80665020576,-5.99520433298e-15,
1405456836908,0.294740071325,8.72670192591,-0.48570837929,5.66213742559e-15,9.80664961018,-1.11022302463e-15,
1405456836908,0.240874248111,8.95016555846,0.366456456338,-1.80966353014e-14,9.80665132347,-8.881784197e-15,
1405456836913,0.393867132313,9.16015300374,1.15533354723,1.21014309684e-14,9.80665078238,6.2172489379e-15,
1405456836930,0.836235809933,9.12975600934,1.65752089011,1.28785870857e-14,9.80665197927,-3.5527136788e-15,
1405456836968,1.18846252662,9.11379208424,1.94982676314,7.32747196253e-15,9.80665085518,8.881784197e-15,
1405456836969,1.38044510375,9.03136731677,2.05848787478,-2.44249065418e-15,9.80664996909,-1.74305014866e-14,
1405456836970,1.51503827416,9.18810549451,1.89150004391,3.44169137634e-15,9.8066516392,4.10782519111e-15,
1405456836970,1.27933782698,9.24510417037,1.57647929769,-2.33146835171e-15,9.80664926034,9.32587340685e-15,
1405456836975,0.695073691537,9.42521174462,0.995803078134,-2.12607709216e-14,9.80665148626,5.05151476204e-15,
1405456837005,0.320702972539,9.18200454886,0.29854489435,3.15858450506e-14,9.80665039916,-3.03645997235e-14,
1405456837005,-0.0315621623509,8.81011609027,-0.134389578775,-7.43849426499e-15,9.80665061542,2.22044604925e-16,
1405456837006,-0.127820460991,8.29802919073,-0.0127153481526,-1.20459198172e-14,9.80665128354,-5.71764857682e-15,
1405456837013,-0.138165363984,7.98287726766,0.228352791386,-8.54871728961e-15,9.80665143564,6.05071548421e-15,
1405456837041,0.0692851935696,8.26897007119,0.379172143298,3.49720252757e-14,9.80665018089,-1.49324996812e-14,
1405456837042,0.617103109124,8.35291115728,0.520607810779,-3.95239396767e-14,9.80664863032,5.05151476204e-15,
1405456837044,0.657932691082,8.01153101379,0.705945622482,2.57294185957e-14,9.80665017004,-2.77555756156e-15,
1405456837067,0.100949054493,7.99445380607,0.812540439225,-7.17481629664e-15,9.80665143156,-4.05231403988e-15,
1405456837068,-0.664211141585,8.20092897893,0.717406557122,-4.08596854268e-12,9.80665117803,1.14352971536e-14,
1405456837073,-1.22046974047,8.41904572115,0.462515928907,-1.07552855511e-13,9.80665164065,7.9936057773e-15,
1405456837102,-1.2464912105,8.24139691006,0.203854872946,-2.07611705605e-14,9.8066519935,-2.38697950294e-14,
1405456837103,-1.07111418597,7.95055119458,-0.0856657065778,7.82707232361e-15,9.80664980691,8.65973959208e-15,
1405456837105,-0.934628992139,7.6900202499,-0.256633592717,2.49245069028e-14,9.80664958844,1.55431223448e-14,
1405456837113,-0.660316302908,7.56854030742,-0.355569236411,1.38777878078e-14,9.8066513829,9.10382880193e-15,
1405456837137,-0.489076964666,7.3947047075,-0.133870540455,-1.04360964315e-14,9.80664988038,6.43929354283e-15,
1405456837138,-0.567819267965,7.41423767547,0.154396025167,-5.77315972805e-15,9.80665197423,9.43689570931e-15,
1405456837144,-0.819089357063,7.76091567557,0.36483074134,-8.99280649946e-15,9.8066506455,-9.21485110439e-15,
1405456837173,-0.919986490814,8.33959829973,0.395681995554,1.08801856413e-14,9.80664938609,7.32747196253e-15,
1405456837174,-0.861393661118,8.91739535679,-0.21362090047,-1.05471187339e-14,9.8066509815,2.22044604925e-16,
1405456837175,-0.860349959095,9.27372997647,-0.669680422994,-1.44328993201e-15,9.80665004284,1.04360964315e-14,
1405456837208,-0.522599919251,9.32088504607,-0.738325316301,2.77555756156e-15,9.80665001177,-4.88498130835e-15,
1405456837209,-0.455304961607,9.29545483372,-0.391115985548,-6.77236045021e-15,9.8066509273,-4.4408920985e-16,
1405456837210,-1.00708325198,9.25011389122,0.207838429327,-6.77236045021e-15,9.80665101796,8.43769498715e-15,
1405456837234,-1.96856428507,9.1464064117,0.911115021116,1.57651669497e-14,9.80664938834,-4.66293670343e-15,
1405456837234,-3.01502545732,9.1092813821,1.15696053658,-5.3290705182e-15,9.80665020363,1.26565424807e-14,
1405456837235,-3.33058380684,9.34240988662,0.831718960481,8.881784197e-16,9.80665061727,-4.4408920985e-15,
1405456837244,-2.79299382915,9.49789617364,0.104672989665,1.02140518266e-14,9.80664868506,-6.88338275268e-15,
1405456837272,-2.01832796218,9.78342778888,-0.479637368724,3.77475828373e-15,9.80665178451,-1.7763568394e-15,
1405456837273,-1.48197290478,10.1500147878,-0.816449363488,-2.88657986403e-15,9.80665027991,6.43929354283e-15,
1405456837275,-0.844806759406,10.3075463005,-1.00563923261,5.99520433298e-15,9.80664964928,-2.88657986403e-15,
1405456837306,-0.382318244377,10.2183444256,-0.792988308974,7.54951656745e-15,9.8066504198,3.77475828373e-15,
1405456837307,-0.309644240804,9.97041591928,-0.233004182074,1.08801856413e-14,9.80665110896,7.9936057773e-15,
1405456837307,-0.641002751043,10.6137919142,-0.404311070193,-5.99520433298e-15,9.80665051968,-8.21565038223e-15,
1405456837313,-1.48604800848,10.774555535,-0.174112962591,-2.6645352591e-15,9.80665247972,-2.22044604925e-15,
1405456837329,-0.793696913213,10.2159236465,0.498301149656,3.10862446895e-15,9.80665068921,-5.55111512313e-15,
1405456837347,0.577997302454,9.30477970001,1.31372335128,1.7763568394e-15,9.80665113803,2.88657986403e-15,
1405456837347,2.03538578897,8.72387301894,2.00369430999,9.54791801178e-15,9.80665199113,-1.66533453694e-15,
1405456837375,3.00775585721,8.90212751134,2.4233176577,5.77315972805e-15,9.80665057536,2.44249065418e-15,
1405456837375,3.56561563513,10.2114152114,2.48230088348,5.77315972805e-15,9.80665058389,6.77236045021e-15,
1405456837376,4.05023913519,12.8201311388,2.40070126593,1.06581410364e-14,9.80665089572,-5.55111512313e-15,
1405456837407,4.92352660085,15.8985661247,2.72954255939,1.49880108324e-14,9.80665019428,2.13440376484e-14,
1405456837408,3.73840560986,19.3574988216,2.80069514758,8.881784197e-16,9.80664910439,-1.60330082544e-13,
1405456837408,3.54490476011,19.9026241397,3.12168347092,-6.2172489379e-15,9.80665144667,4.8766719829e-13,
1405456837413,5.03911227329,19.0247419838,2.30663169542,-1.31006316906e-14,9.80665147506,9.32656729624e-14,
1405456837428,3.53508875976,15.5039920938,-0.137715506066,1.0325074129e-14,9.8066505835,1.1046719095e-14,
1405456837446,2.70715622107,11.9262202482,-2.81846458077,5.3290705182e-15,9.80664994235,-3.01918212653e-13,
1405456837446,2.09777791342,9.85118133752,-4.11694932159,-9.32587340685e-15,9.80665203749,1.07150399664e-13,
1405456837463,1.94779251841,9.11051576307,-4.2582383273,-1.98729921408e-14,9.80665095076,1.25455201783e-14,
1405456837478,2.13988046986,8.05443917027,-4.03081269672,-9.65894031424e-15,9.80665160186,1.73194791842e-14,
1405456837479,2.46346075186,6.61617586542,-4.09319404239,2.57294185957e-14,9.8066512431,-1.96509475359e-14,
1405456837495,1.39595306249,6.64949269514,-3.70154343148,-3.20299342604e-14,9.80665006583,1.88737914186e-15,
1405456837496,-0.272925562771,7.17283814068,-2.99060400306,-1.29035671037e-13,9.80665149355,1.35447209004e-14,
1405456837515,-1.1739630391,7.4129607022,-1.79157111377,1.39561973089e-13,9.80665168102,0.0,
1405456837515,-1.81105493393,7.42923810365,-0.412582536281,7.41073868937e-15,9.80664959541,1.11022302463e-16,
1405456837524,-2.01303904609,7.42143692953,0.749789985852,2.19269047363e-14,9.80665230626,8.77076189454e-15,
1405456837548,-1.93132108564,7.79921278127,1.3992662878,3.38618022511e-15,9.80665017051,1.64313007645e-14,
1405456837548,-1.77903092906,8.18019166243,1.46931587433,1.68753899743e-14,9.80665029207,9.27036225562e-15,
1405456837553,-1.44474081117,8.39678664588,1.11567310263,-3.21964677141e-15,9.80665162675,1.79856129989e-14,
1405456837587,-0.977423759255,8.1096285521,0.713259021702,-5.21804821574e-15,9.80665015811,1.46549439251e-14,
1405456837588,-0.571932179984,7.37350354526,0.397033919474,-1.16573417586e-14,9.80665117324,1.02695629778e-14,
1405456837588,-0.197115935373,6.44815061366,0.124417835075,4.99600361081e-15,9.80665130791,-2.85327317329e-14,
1405456837593,-0.18323854435,5.83118203895,-0.242960609431,4.21884749358e-15,9.80664951489,1.88737914186e-15,
1405456837625,-0.218911857678,5.42790256142,-0.509586067784,-4.55191440096e-15,9.80665059508,6.99440505514e-15,
1405456837626,-0.310048760393,5.32162473625,-0.826814201748,1.7763568394e-15,9.80665141237,1.62092561595e-14,
1405456837626,-0.296552884739,5.30318321481,-1.14503824241,3.77475828373e-15,9.80665073723,-9.43689570931e-15,
1405456837656,-0.298908268782,5.25062192216,-1.2719693342,1.99840144433e-15,9.80664998687,1.68753899743e-14,
1405456837657,-0.358474875107,5.33857723257,-1.17638762885,-6.2172489379e-15,9.80665062926,-5.3290705182e-15,
1405456837658,-0.528704486518,5.62079249904,-0.866772602955,8.43769498715e-15,9.8066501625,6.10622663544e-15,
1405456837684,-0.710020603243,5.96937529918,-0.681645472482,-1.26565424807e-14,9.80665220682,-2.6645352591e-15,
1405456837684,-1.0404813795,6.49050893609,-0.747247183061,-1.7763568394e-15,9.80665081205,-5.77315972805e-15,
1405456837685,-1.54199064198,7.20529364333,-0.854348181516,1.33226762955e-15,9.80665049438,3.10862446895e-15,
1405456837694,-1.87001852367,7.99418279561,-0.876476652559,-9.7699626167e-15,9.80665118855,-2.99760216649e-15,
1405456837719,-1.97276425054,8.84146660236,-0.930927564565,2.44249065418e-15,9.80664906568,-1.66533453694e-15,
1405456837720,-2.0847717616,9.83879233075,-1.10549733844,6.66133814775e-15,9.80665271003,5.55111512313e-15,
1405456837725,-1.93405783565,10.6712470307,-1.69208053055,6.2172489379e-15,9.80665139495,-7.43849426499e-15,
1405456837758,-1.51705436458,10.9247582451,-2.41496820595,3.21964677141e-15,9.80664994288,5.66213742559e-15,
1405456837758,-1.38623968011,10.6939054647,-2.26395500954,2.44249065418e-15,9.80664980157,8.32667268469e-15,
1405456837759,0.098894468589,11.3839592588,-1.77042097768,9.10382880193e-15,9.80665039167,-1.23234755733e-14,
1405456837776,0.936260141965,13.0426367456,-1.38327953474,-1.1990408666e-14,9.80665084349,-2.12052597703e-14,
1405456837777,-0.156473045848,13.455774683,-0.494266962095,-2.10942374679e-15,9.80665169587,-6.43929354283e-15,
1405456837793,-1.39628608924,14.2189881056,0.423975460898,9.54791801178e-15,9.80665087295,1.12132525487e-14,
1405456837794,-3.2268804048,13.8219519987,1.11114055281,-1.84297022088e-14,9.8066522172,-1.16573417586e-14,
1405456837813,-4.47900088595,12.1888984141,0.664691921764,-5.44009282066e-15,9.80665028839,1.24344978758e-14,
1405456837815,-5.25683793546,10.3003718859,-0.839156342932,-7.77156117238e-16,9.8066503919,1.95399252334e-14,
1405456837825,-5.21548615774,10.2065945519,-3.00385251423,0.0,9.80664912982,4.66293670343e-15,
1405456837845,-3.87126800721,13.3004266615,-5.55833241614,6.66133814775e-15,9.80665181655,-1.25455201783e-14,
1405456837846,-0.69284120998,16.687640849,-5.77503509597,3.5527136788e-15,9.80665079274,7.88258347484e-15,
1405456837871,1.43704654331,16.335381302,-1.50819194013,-2.22044604925e-16,9.80664974391,-7.77156117238e-16,
1405456837872,3.27168894181,13.5996380497,1.00759025091,-7.54951656745e-15,9.80664966189,4.66293670343e-15,
1405456837874,4.40045792379,11.6834565575,0.763456076835,-3.99680288865e-15,9.80665115575,-1.55431223448e-15,
1405456837899,4.7800898074,10.7035907444,-0.184939415772,-4.4408920985e-16,9.80665158659,-2.6645352591e-15,
1405456837900,4.67855417207,10.9625280308,1.02334620367,-3.5527136788e-15,9.80665170091,-6.88338275268e-15,
1405456837905,4.63603530521,10.2366282179,2.729298716,-4.21884749358e-15,9.80665037924,-3.10862446895e-15,
1405456837928,4.81455885526,8.80438816787,3.24616715939,0.0,9.80664989259,2.88657986403e-15,
1405456837928,4.68587843205,8.01667602038,2.19886438967,8.881784197e-16,9.80665189595,-5.3290705182e-15,
1405456837945,3.92484137128,7.90042330606,1.22811476875,-2.22044604925e-15,9.8066504445,-1.33226762955e-15,
1405456837959,3.16230732519,7.94843652564,0.905822710075,1.11022302463e-15,9.80665019282,1.1768364061e-14,
1405456837960,2.3597103428,8.31099215415,0.760065487532,-6.55031584529e-15,9.80665140039,6.88338275268e-15,
1405456837977,1.5800470684,8.56571067877,0.450834571455,6.43929354283e-15,9.8066522219,1.04360964315e-14,
1405456837977,0.784483979146,8.26804186372,0.67075410128,-9.7699626167e-15,9.80665242351,5.77315972805e-15,
1405456837992,0.373449678157,7.95294259129,1.14549303407,-1.70974345792e-14,9.80665168849,2.88657986403e-15,
1405456837995,0.136067143149,8.35903010543,1.04059886044,-2.04281036531e-14,9.80665123833,2.6645352591e-15,
1405456838010,0.10872530082,9.16431995969,0.613312030707,-6.88338275268e-15,9.80665069292,-6.88338275268e-15,
1405456838027,0.295907679492,9.71258888027,0.582848489979,-2.44249065418e-14,9.80665007474,3.5527136788e-15,
1405456838027,0.407709054924,9.43419656678,0.77019701021,1.93178806285e-14,9.80665031521,-2.44249065418e-15,
1405456838043,0.508041073726,9.39112136339,1.0040488086,-6.88338275268e-15,9.80665076094,-5.99520433298e-15,
1405456838059,0.609630154892,9.27708035498,1.15390454429,-6.10622663544e-15,9.80665138228,1.7763568394e-15,
1405456838060,0.891187186484,9.01266131699,1.35631769433,2.68673971959e-14,9.80665117341,-2.99760216649e-15,
1405456838074,1.2562104572,8.68242328274,1.53362389713,-1.99840144433e-15,9.80664991211,-4.4408920985e-16,
1405456838074,1.30129372268,8.19416874068,1.60103510217,1.60704782814e-14,9.80665208082,1.45439216226e-14,
1405456838090,1.38258606238,8.11117742516,1.34419217732,-1.03111963412e-13,9.80665004594,1.56541446472e-14,
1405456838094,1.43365409888,8.0899130502,0.836876989545,-1.55153667691e-14,9.8066490419,-6.10622663544e-15,
1405456838108,1.26923964605,7.88149889448,0.327378533889,1.31856331409e-14,9.80665144178,6.77236045021e-15,
1405456838123,0.988700878919,7.72723624621,0.0738578777622,1.93151050709e-13,9.80665137135,1.84297022088e-14,
1405456838125,0.756623741626,7.35664926296,0.136765050553,-6.17561557448e-14,9.80665088055,-1.14352971536e-14,
1405456838140,0.303406814449,7.28819451462,0.261485311446,-6.05904215689e-14,9.80665210842,5.21804821574e-15,
1405456838164,-0.107250279264,7.67424699189,0.477761452156,-2.1371793224e-14,9.80665155008,-9.43689570931e-15,
1405456838165,-0.266948722172,8.23285766342,0.731708984967,1.72084568817e-15,9.80665170594,-9.21485110439e-15,
1405456838166,-0.362735511861,8.67285496115,1.03304537091,2.54796184151e-14,9.80665164738,5.77315972805e-15,
1405456838176,-0.702628507107,8.90224093782,1.2829327519,1.13797860024e-14,9.80665200155,1.11022302463e-15,
1405456838195,-1.00562105898,8.90210926906,1.3270485823,-1.30451205393e-14,9.80665026915,7.1054273576e-15,
1405456838213,-1.62526208349,9.07313896678,0.98431050173,-5.3290705182e-15,9.80665098724,9.54791801178e-15,
1405456838214,-2.2003580983,9.11241070506,0.587374818929,6.2172489379e-15,9.80665168924,0.0,
1405456838214,-2.36087439635,8.93506270515,0.213523776037,-5.21804821574e-15,9.80665141221,6.10622663544e-15,
1405456838226,-2.38986277699,8.73335111547,-0.0356017458806,6.10622663544e-15,9.80664964381,-1.3433698598e-14,
1405456838270,-2.16102519547,8.32474861575,-0.279529410356,6.99440505514e-15,9.80665174195,9.99200722163e-16,
1405456838270,-1.91115575114,7.87428874184,-0.17196324232,-3.88578058619e-15,9.8066496192,-4.55191440096e-15,
1405456838271,-1.80559116725,7.58243180744,0.0164801299613,1.44328993201e-15,9.80664971674,1.1768364061e-14,
1405456838273,-1.98644273749,7.53666653142,0.0136005559239,-5.44009282066e-15,9.80664863809,1.55431223448e-15,
1405456838274,-2.36213436697,7.73634223718,-0.103200014041,1.59872115546e-14,9.80665100342,1.11022302463e-15,
1405456838298,-2.63504450446,8.01347252546,-0.213937617674,-1.55431223448e-15,9.80664984675,9.54791801178e-15,
1405456838298,-2.6720826502,8.30967877727,-0.652128400989,-1.33226762955e-15,9.8066513571,7.77156117238e-15,
1405456838305,-2.40584631237,8.61280929811,-0.907315556146,4.4408920985e-15,9.80664975738,1.99840144433e-15,
1405456838335,-1.95979936217,8.88713108143,-0.887075072203,1.06581410364e-14,9.80665022982,2.22044604925e-16,
1405456838335,-1.58767528337,9.09134187439,-0.803244441423,6.66133814775e-15,9.80665127306,1.11022302463e-15,
1405456838336,-1.62805508188,9.13340186135,-0.476476102484,6.2172489379e-15,9.80665068594,-2.88657986403e-15,
1405456838366,-1.82833764961,9.12322403388,0.290018520464,5.55111512313e-15,9.80665183422,1.7763568394e-15,
1405456838366,-2.458799188,9.24644416151,0.931153942143,6.2172489379e-15,9.80665132672,-4.21884749358e-15,
1405456838367,-3.11891793128,9.65135626266,1.01512196483,1.57651669497e-14,9.80665102545,-2.22044604925e-15,
1405456838374,-2.84356613978,10.0009181041,0.790268315666,-3.99680288865e-15,9.80665016312,1.99840144433e-15,
1405456838400,-2.20056282839,10.2678886237,0.457704886303,9.54791801178e-15,9.80665061357,-5.10702591328e-15,
1405456838400,-1.69282494274,10.3202181535,0.274438128618,8.43769498715e-15,9.80665024486,4.4408920985e-16,
1405456838406,-1.52345334556,10.2590429588,-0.10143019164,1.99840144433e-15,9.80664915955,7.32747196253e-15,
1405456838438,-0.940764162073,10.93106824,-0.426075138583,-1.7763568394e-15,9.80664958178,4.88498130835e-15,
1405456838438,-1.07519095859,10.9319812492,-0.252485586078,-2.22044604925e-15,9.80665006655,7.54951656745e-15,
1405456838439,-1.15385794338,10.7631120837,0.162078090974,5.55111512313e-15,9.80665163074,9.54791801178e-15,
1405456838464,-1.52244187563,10.6441995643,0.0559237276535,-4.21884749358e-15,9.80665007407,3.10862446895e-15,
1405456838464,-1.17929463931,10.0510879358,0.346358628422,2.6645352591e-15,9.8066507029,3.33066907388e-15,
1405456838467,-0.359641225432,9.0647380788,1.16435155277,4.88498130835e-15,9.80664946763,1.55431223448e-15,
1405456838476,1.17201145339,8.09716092959,1.81557877652,-3.33066907388e-15,9.80665030396,9.32587340685e-15,
1405456838502,2.38531603878,7.59439904379,2.31897275482,5.55111512313e-15,9.80665069427,-8.65973959208e-15,
1405456838502,3.12155033383,7.84344672812,2.60502513113,-1.33226762955e-15,9.80665022766,-1.04360964315e-14,
1405456838506,3.78287118521,9.42811821086,2.59962178919,6.43929354283e-15,9.80665137292,3.99680288865e-15,
1405456838537,3.88827950292,12.7161812009,2.32456031675,2.44249065418e-15,9.80664970917,-1.57651669497e-14,
1405456838538,3.16543680362,16.9794658325,1.98752227096,1.55431223448e-15,9.80665021453,1.96509475359e-14,
1405456838539,2.16646066499,19.783242555,2.0845070804,2.22044604925e-15,9.80665019656,5.05151476204e-15,
1405456838567,2.64223349408,19.7879550706,2.39227315553,6.88338275268e-15,9.80665215407,1.59317004034e-14,
1405456838568,3.05201620974,17.3933755803,1.68324553356,3.88578058619e-15,9.80665005159,-7.82707232361e-15,
1405456838569,2.63374702617,13.9456863279,0.0975985822734,7.66053886991e-15,9.80664959418,-3.05311331772e-15,
1405456838574,2.70226021347,11.1863664758,-1.73234297939,1.04360964315e-14,9.80665045595,-8.32667268469e-15,
1405456838607,2.61618025492,9.94041219394,-2.65169187717,7.66053886991e-15,9.80665062742,-1.98729921408e-14,
1405456838608,2.27821265187,9.32078040902,-2.57116533726,1.0325074129e-14,9.80665124162,1.40998324127e-14,
1405456838609,2.00975137304,8.66332917171,-2.38662420831,-3.66373598126e-15,9.80664932763,4.66293670343e-15,
1405456838640,1.58276987943,8.18157776068,-2.44576107994,-4.66293670343e-15,9.80665034121,1.04360964315e-14,
1405456838640,0.85387048201,8.0255335327,-2.5591711005,2.6645352591e-15,9.80664912973,-9.99200722163e-16,
1405456838641,-0.154766698879,7.44330924343,-2.29741246604,3.05866443284e-14,9.80664880431,5.77315972805e-15,
1405456838672,-1.26568712602,7.48470037526,-1.66408936435,-1.3933298959e-14,9.80665015236,-1.45439216226e-14,
1405456838672,-1.69406354764,7.47577601789,-0.762072428924,-7.28445082032e-14,9.80665033873,8.881784197e-15,
1405456838673,-1.60606068569,7.60136227934,-0.0237211976707,-9.20097331658e-15,9.80664988102,1.28785870857e-14,
1405456838674,-1.55622984273,7.6956649072,0.58401026621,-3.30846461338e-14,9.80665197082,4.77395900589e-15,
1405456838694,-1.34325807646,7.67469407581,0.758229828688,1.11022302463e-15,9.80665161613,-3.77475828373e-15,
1405456838716,-1.12793651733,7.51376653039,0.675378031766,3.33066907388e-16,9.80665205976,1.55431223448e-15,
1405456838717,-0.649485242539,6.83725117092,0.467943846822,-6.99440505514e-15,9.80664992428,-7.66053886991e-15,
1405456838717,-0.422631422706,6.136394342,0.062297018152,-9.54791801178e-15,9.80664957728,-6.88338275268e-15,
1405456838726,-0.49334168272,5.60768932898,-0.427971005726,-1.55431223448e-15,9.80665196818,-3.88578058619e-15,
1405456838757,-0.534092926327,5.2231044715,-0.746338830898,-2.10942374679e-15,9.80665212237,-2.88657986403e-15,
1405456838757,-0.538166912871,5.15328559811,-0.987119835343,-9.10382880193e-15,9.80665083965,-4.4408920985e-15,
1405456838758,-0.531442873156,5.3647881351,-1.13617769739,-1.15463194561e-14,9.80665116583,3.5527136788e-15,
1405456838783,-0.377899503061,5.63919472152,-1.16556943335,7.9936057773e-15,9.8066495438,1.11022302463e-15,
1405456838783,-0.172557490336,5.74330989515,-1.01097039975,3.10862446895e-15,9.80664998349,8.881784197e-16,
1405456838786,-0.0882499695324,5.76784543142,-0.75380237973,-3.66373598126e-15,9.80665000782,5.55111512313e-15,
1405456838811,-0.21328912035,5.85238322826,-0.447343705488,-1.45439216226e-14,9.80665103869,-2.44249065418e-15,
1405456838812,-0.423461685105,6.1119703779,-0.286850625355,-5.66213742559e-15,9.80664933556,4.4408920985e-15,
1405456838814,-0.716492975839,6.62871934716,-0.415535758404,-4.99600361081e-15,9.806650006,-4.55191440096e-15,
1405456838848,-1.00209664303,7.27799296287,-0.709205400357,-8.54871728961e-15,9.80665076773,1.13242748512e-14,
1405456838854,-1.3516775057,8.09440381133,-1.09598910369,-4.4408920985e-16,9.80664995135,2.77555756156e-15,
1405456838856,-1.83611428325,9.31966381116,-1.38569248415,-1.88737914186e-15,9.8066497098,-2.44249065418e-15,
1405456838857,-2.40187990234,10.7923976085,-1.26026566521,-4.32986979604e-15,9.80665058146,5.88418203051e-15,
1405456838897,-2.80121744863,12.1073772631,-1.21523937289,1.0325074129e-14,9.80664977731,-7.9936057773e-15,
1405456838897,-2.45188243066,12.6397485724,-1.43937297834,-9.54791801178e-15,9.8066508414,4.10782519111e-15,
1405456838898,-1.87292410584,12.2891540107,-1.49774426173,1.3211653993e-14,9.8066504676,1.79856129989e-14,
1405456838899,-0.624204135367,11.7695192773,-1.1982082958,3.66373598126e-15,9.80665005633,-1.3211653993e-14,
1405456838906,0.583262879754,13.1551193614,-0.977137091922,-1.487698853e-14,9.80665088213,1.72084568817e-14,
1405456838933,0.522638074836,13.707397476,-0.00441268792384,-7.16093850883e-15,9.80665013257,9.32587340685e-15,
1405456838934,-0.134339810377,13.8082735967,1.14697087584,1.55431223448e-15,9.80664939708,2.33146835171e-15,
1405456838935,-1.89397032715,12.5648468248,2.43135636967,-4.16333634234e-15,9.80664953235,5.3290705182e-15,
1405456838974,-3.59894434422,10.8511831762,1.8182998682,-6.66133814775e-16,9.80664956878,1.75415237891e-14,
1405456838975,-4.26757090799,10.2797285092,-1.96936402551,-1.45439216226e-14,9.80665192697,-2.88657986403e-15,
1405456838976,-2.78088250488,13.3580450021,-6.03151881439,1.16573417586e-14,9.80664993569,4.4408920985e-16,
1405456838976,-1.21469996205,18.9899197415,-3.27307306361,1.66533453694e-15,9.80665035052,-5.3290705182e-15,
1405456838999,0.839323383528,18.6876183634,1.71627447412,-6.88338275268e-15,9.80665105565,3.33066907388e-16,
1405456839000,2.97600627679,14.7332504984,2.34388856609,-7.77156117238e-15,9.80665120139,-1.31006316906e-14,
1405456839008,4.00003241998,11.9219844581,1.29577703394,2.22044604925e-16,9.80665095501,4.10782519111e-15,
1405456839027,3.00920494215,10.2984859075,-0.140915808152,1.08801856413e-14,9.80665089892,4.77395900589e-15,
1405456839027,3.36675622247,9.07617603665,-2.44759842908,-7.1054273576e-15,9.80665059563,-7.77156117238e-15,
1405456839034,3.84922303111,9.57847497042,-1.75189090294,7.32747196253e-15,9.80664921102,2.44249065418e-15,
1405456839072,3.97901518313,9.49041246559,0.527283426197,2.44249065418e-15,9.80665025148,3.10862446895e-15,
1405456839073,3.95873296466,8.07831591357,1.16258311148,3.33066907388e-15,9.80664946111,5.10702591328e-15,
1405456839073,3.65077727992,7.40814468757,0.676551009665,2.22044604925e-16,9.80665107331,-9.32587340685e-15,
1405456839077,3.60676423949,7.74766703311,0.609025882291,7.32747196253e-15,9.80665011972,4.4408920985e-16,
1405456839101,3.05960228192,8.84979761157,1.16234990288,5.3290705182e-15,9.80665203589,6.2172489379e-15,
1405456839101,2.01871007519,9.57624632156,1.72473974166,-5.55111512313e-16,9.80665138829,2.22044604925e-15,
1405456839107,1.22852543985,9.40812763186,2.29098798115,-1.33226762955e-14,9.80665110581,9.7699626167e-15,
1405456839132,1.04934135648,9.30329556343,2.81153519116,-1.22124532709e-15,9.80665160634,3.99680288865e-15,
1405456839134,1.29657990648,9.5325839386,2.5702808188,-5.66213742559e-15,9.80664958062,8.65973959208e-15,
1405456839136,1.37395061769,9.5328376117,1.77808523218,-8.54871728961e-15,9.80664987147,5.77315972805e-15,
1405456839176,1.15406552884,9.22025879694,1.02370537634,1.31006316906e-14,9.80664910138,-9.21485110439e-15,
1405456839177,0.966156790681,8.97974865901,0.554822135624,1.08246744901e-14,9.80665039833,-2.99760216649e-15,
1405456839178,1.03283772156,8.70081316233,0.292482407023,5.05151476204e-15,9.80665078096,7.9936057773e-15,
1405456839178,1.05243151401,8.34004378208,0.152431300551,1.05471187339e-15,9.80664934653,-1.88737914186e-15,
1405456839207,0.9565347257,8.01571817937,0.241969747242,-6.88615831024e-14,9.80665112376,2.22044604925e-16,
1405456839208,0.953935942595,7.72988267921,0.513094356992,1.78843051479e-13,9.80665119614,4.66293670343e-15,
1405456839210,0.784754016521,7.40286601364,0.8599140776,2.09932765616e-13,9.80665097324,-3.33066907388e-16,
1405456839242,0.51220508221,7.24230558235,0.943395721442,-3.71994102188e-14,9.80665093756,5.44009282066e-15,
1405456839244,0.381297321812,7.4459040768,0.731721325037,-1.28203003769e-13,9.80665132924,4.4408920985e-15,
1405456839245,0.50826787645,7.68822142423,0.331932099556,4.45754544387e-14,9.80665047961,6.66133814775e-15,
1405456839265,0.695232107632,7.76576963577,-0.0931625900875,-3.15025783237e-14,9.80665001622,8.77076189454e-15,
1405456839265,0.766448889595,7.60308023461,-0.129270529729,1.56263890716e-14,9.80665135369,-5.10702591328e-15,
1405456839267,1.20242310764,7.50459557179,0.763638783555,-2.72559752545e-14,9.80665109559,3.44169137634e-15,
1405456839287,1.05184645271,7.65317795626,1.05698182928,3.1918911958e-14,9.80665153062,1.37667655054e-14,
1405456839288,0.820879957734,7.8340537137,1.31124296885,2.77555756156e-16,9.80665152099,-2.6645352591e-15,
1405456839308,0.25096721801,8.11611442474,1.48971833275,-1.22124532709e-15,9.80664923829,-3.33066907388e-15,
1405456839309,-0.635126022767,8.1867899133,1.46719684281,-1.88737914186e-15,9.80665125943,9.99200722163e-15,
1405456839327,-1.54538908605,8.10173844299,1.1796674458,4.88498130835e-15,9.80665054262,1.38777878078e-14,
1405456839328,-2.15963048397,8.22796074019,0.659884689794,6.55031584529e-15,9.80665072179,5.10702591328e-15,
1405456839335,-2.54263151205,8.50048316815,0.104767443465,4.21884749358e-15,9.80665143724,-3.21964677141e-15,
1405456839364,-2.83061208536,8.69461292648,-0.242884265997,-2.99760216649e-15,9.80665013588,4.4408920985e-16,
1405456839364,-2.90624824654,8.51987480817,-0.319185547878,5.88418203051e-15,9.80665024514,1.11022302463e-16,
1405456839369,-2.86076977646,8.2783235768,-0.207716887334,5.44009282066e-15,9.806650103,1.83186799063e-14,
1405456839397,-2.81541471056,8.22312631847,0.0213055142632,4.4408920985e-16,9.80665154925,6.43929354283e-15,
1405456839399,-2.71137897612,8.40812301105,0.262464867241,6.66133814775e-16,9.80665063898,2.99760216649e-15,
1405456839400,-3.00468709886,8.84675002389,0.589630310215,-1.7763568394e-15,9.8066514624,-2.99760216649e-15,
1405456839407,-2.97362344256,9.65832640398,0.434665651908,2.88657986403e-15,9.80665120468,-2.77555756156e-15,
1405456839422,-3.06441927395,9.75989610288,0.0548485289456,-1.1768364061e-14,9.80665144984,-2.22044604925e-15,
1405456839439,-2.63515764459,9.5473366252,-0.343268038042,1.1990408666e-14,9.80664973212,-5.3290705182e-15,
1405456839440,-1.82994565442,9.58238564168,-0.71103376197,7.54951656745e-15,9.80664957911,2.88657986403e-15,
1405456839455,-0.98544852555,9.4880501533,-0.737941125684,9.54791801178e-15,9.80665152794,9.10382880193e-15,
1405456839456,-0.998696471197,9.16926543681,-0.278064917717,2.22044604925e-16,9.8066496795,9.32587340685e-15,
1405456839473,-1.74632576399,8.77576313837,0.5147231905,-5.3290705182e-15,9.80664958724,-5.3290705182e-15,
1405456839486,-2.96803258582,8.55496385646,0.834796044129,2.22044604925e-16,9.80664965581,0.0,
1405456839486,-4.07845810725,8.62616121259,0.568132780049,-4.4408920985e-16,9.80664937033,4.88498130835e-15,
1405456839503,-4.06903764873,8.91972777042,0.0385778254159,5.10702591328e-15,9.80665155114,6.66133814775e-16,
1405456839506,-3.28469321101,9.31330012121,-0.263111389669,-1.7763568394e-15,9.80665078067,1.99840144433e-15,
1405456839520,-2.28444144845,9.6006019954,-0.317162662461,-8.881784197e-15,9.80665121447,-5.55111512313e-15,
1405456839536,-1.61318121264,10.0331525757,-0.200383778685,-1.55431223448e-15,9.80665093149,-8.881784197e-16,
1405456839536,-1.42953563686,10.590992298,-0.30764486966,-1.33226762955e-15,9.80664889963,-2.6645352591e-15,
1405456839554,-1.33528725398,10.867142136,-0.121171016231,5.55111512313e-15,9.80665046051,1.11022302463e-15,
1405456839557,-1.42175948115,10.8243897316,0.338765198568,0.0,9.80665226536,-1.33226762955e-15,
1405456839569,-1.78827575951,10.8454542697,0.538854284517,8.21565038223e-15,9.80664922232,-8.881784197e-15,
1405456839587,-1.58732400221,10.5129901009,0.334486072121,-6.66133814775e-16,9.80664955903,2.22044604925e-15,
1405456839587,-0.951013923771,9.60717091423,0.662240730315,9.10382880193e-15,9.80665043889,8.43769498715e-15,
1405456839604,0.62984838297,8.56848428564,0.914247017055,4.66293670343e-15,9.80664998053,2.88657986403e-15,
1405456839610,2.28643766708,7.72979377622,1.32451444845,9.10382880193e-15,9.80665051903,7.32747196253e-15,
1405456839634,3.18872264404,7.60525467033,1.66805850277,1.7763568394e-15,9.80665053993,-4.88498130835e-15,
1405456839635,3.91216327678,8.68917532658,1.80844176854,1.11022302463e-14,9.80665170227,4.4408920985e-16,
1405456839635,4.57225675891,11.466718706,1.68827384487,6.99440505514e-15,9.80665114271,1.25455201783e-14,
1405456839654,4.49351767757,15.8477145088,1.54066164041,9.99200722163e-15,9.80664866554,2.32591723659e-14,
1405456839655,3.5837257847,19.6437327962,1.95002608313,-6.32827124036e-15,9.80665047612,2.38697950294e-15,
1405456839670,3.87843255975,19.9021902144,2.91920873011,1.7763568394e-15,9.80665103416,-1.14352971536e-14,
1405456839686,4.88419897664,18.9017447704,2.7659609775,-3.33066907388e-15,9.80665104943,-3.60822483003e-15,
1405456839687,4.03414966251,15.3330989867,1.10303897634,6.99440505514e-15,9.80665085692,3.52495810318e-14,
1405456839701,3.55170368348,12.4345460151,-1.30054787323,-2.10942374679e-15,9.80665132221,-4.99600361081e-15,
1405456839707,2.66555814036,10.8917131388,-2.54530064222,-3.99680288865e-15,9.80665071682,-9.88098491916e-15,
1405456839721,1.86979294947,9.90442259996,-2.55084750425,1.3211653993e-14,9.80665074696,1.65978342181e-14,
1405456839738,1.45935230873,8.58856985116,-2.35954029845,-5.77315972805e-15,9.8066500885,2.32036612147e-14,
1405456839738,1.5677474157,6.85517971521,-2.61355856053,-1.33226762955e-14,9.8066511736,-1.05471187339e-14,
1405456839754,0.107102892623,7.02591765111,-2.90829632936,2.14828155265e-14,9.80665054014,-1.67643676718e-14,
1405456839756,-1.65708981191,7.99604668088,-2.72227206905,2.06779038336e-14,9.80665051878,5.55111512313e-15,
1405456839769,-2.2695282883,7.97850494919,-1.99989460697,-3.07809333577e-14,9.80664960121,4.4408920985e-15,
1405456839786,-2.17125727586,7.37135011996,-1.02826118157,-8.07687250415e-15,9.80665023147,6.32827124036e-15,
1405456839787,-2.23506983695,7.29312162875,-0.319639083683,2.74780198595e-15,9.80664947597,5.21804821574e-15,
1405456839801,-2.10841903715,7.67450332972,0.0428529733332,1.18238752123e-14,9.80665122579,-6.88338275268e-15,
1405456839819,-1.87475859478,8.23385010081,0.267216408904,-3.05866443284e-14,9.80665214356,8.881784197e-16,
1405456839819,-1.43604211685,8.12109308507,0.310909955722,3.99680288865e-15,9.80665022286,1.74305014866e-14,
1405456839835,-0.769613187063,7.20349432911,0.191839549531,-1.78745906965e-14,9.80664958597,-2.22044604925e-15,
1405456839836,-0.361681347272,6.26572006067,-0.0360336708438,1.1768364061e-14,9.80665115362,2.12052597703e-14,
1405456839856,-0.416141038008,5.71180462861,-0.166443754218,-2.25375273999e-14,9.80664915331,2.74225087082e-14,
1405456839857,-0.489604945312,5.50056178694,-0.289897513802,6.55031584529e-15,9.80665154646,1.11022302463e-14,
1405456839873,-0.483668673528,5.15822461324,-0.338096651772,-5.55111512313e-16,9.80665100726,1.84297022088e-14,
1405456839888,-0.380146169634,5.0623108074,-0.488918377681,-2.55351295664e-15,9.80665155403,-1.55431223448e-15,
1405456839889,-0.283218226692,5.05562297004,-0.729713138334,2.44249065418e-15,9.80664999959,-1.46549439251e-14,
1405456839907,-0.152912742238,4.96238035639,-0.917264742534,-8.77076189454e-15,9.80665115013,4.66293670343e-15,
1405456839918,-0.10783062359,5.02663878754,-0.944653972066,8.77076189454e-15,9.8066504647,9.65894031424e-15,
1405456839919,-0.198255942647,5.27607829231,-0.912031507997,1.3211653993e-14,9.80665110683,7.32747196253e-15,
1405456839933,-0.331173095308,5.62679592528,-0.818860851668,1.95399252334e-14,9.80665034483,4.32986979604e-15,
1405456839936,-0.490747234452,6.15786802143,-0.856261405497,-1.55431223448e-15,9.80665152634,2.55351295664e-15,
1405456839953,-0.691337735778,6.85384302257,-1.0235588725,3.10862446895e-15,9.80665097542,-8.54871728961e-15,
1405456839956,-0.964043328063,7.81276011394,-1.12337771335,-3.66373598126e-15,9.80665061886,1.28785870857e-14,
1405456839968,-1.31105749151,9.03918873597,-1.01912242051,2.88657986403e-15,9.80665127081,1.37667655054e-14,
1405456839984,-1.67107767446,10.2779273678,-0.982716235006,5.21804821574e-15,9.80665006039,-3.5527136788e-15,
1405456840025,-1.9476938113,11.1503756483,-1.40110864385,6.10622663544e-15,9.80665052572,-1.99840144433e-14,
1405456840026,-1.43493565265,11.333945743,-1.70203661852,6.10622663544e-15,9.80665052572,-1.99840144433e-14,
1405456840028,-0.787518696852,11.208789518,-1.62998407499,6.10622663544e-15,9.80665052572,-1.99840144433e-14,
1405456840028,0.604213509799,12.4681217018,-1.38439881407,6.10622663544e-15,9.80665052572,-1.99840144433e-14,
1405456840029,1.50052318954,14.5365262851,-0.950873642352,6.10622663544e-15,9.80665052572,-1.99840144433e-14,
1405456840036,0.847850707065,15.39257396,0.114997840686,-2.29261054585e-14,9.80664954785,1.49880108324e-15,
1405456840051,-0.431536221951,16.1072017695,1.23179265074,-6.2172489379e-15,9.80665165427,1.98729921408e-14,
1405456840056,-2.22543530477,14.5469265475,2.09599631712,3.21964677141e-15,9.80665017702,1.05471187339e-15,
1405456840071,-3.84059773357,11.6534630507,1.61515342943,4.27435864481e-15,9.8066505114,7.88258347484e-15,
1405456840095,-5.10534792537,9.36330673422,-0.165180422573,-7.77156117238e-16,9.80665096555,2.99760216649e-15,
1405456840096,-5.99544529471,8.79256067284,-2.90623826107,-5.88418203051e-15,9.80664888214,-1.26565424807e-14,
1405456840096,-6.27219309454,10.6858231258,-5.45135142311,6.77236045021e-15,9.80665079454,-1.9206858326e-14,
1405456840150,-3.81952651401,14.2162396017,-7.39152569978,-9.7699626167e-15,9.8066514202,1.08801856413e-14,
1405456840151,-1.13836889967,16.1362054772,-4.86355291265,2.44249065418e-15,9.8066492055,1.11022302463e-16,
1405456840151,0.873867699124,14.7226451197,0.0760231827351,-1.11022302463e-15,9.80665037532,4.4408920985e-16,
1405456840152,3.73579896587,12.8852056607,1.581758173,-4.4408920985e-16,9.80665049541,1.1990408666e-14,
1405456840153,4.60154984351,12.2978915183,0.87668174357,1.7763568394e-15,9.80664996189,-7.77156117238e-15,
1405456840158,4.45927251098,11.0946148557,1.33425882337,-1.55431223448e-15,9.80665047488,6.66133814775e-16,
1405456840179,5.08872552242,10.4333821865,1.21740119942,8.881784197e-16,9.80665028522,-1.7763568394e-15,
1405456840181,5.37626240166,10.4604216922,2.34174126881,6.2172489379e-15,9.80665068838,-6.66133814775e-16,
1405456840188,5.17767403127,9.90427787212,3.9503589061,-1.35447209004e-14,9.8066495999,1.99840144433e-15,
1405456840208,4.6841346013,8.74164728302,3.56139756034,1.33226762955e-14,9.80665198037,2.22044604925e-15,
1405456840208,4.12325584589,8.1994772283,1.7939475685,7.21644966006e-15,9.80665082975,-2.44249065418e-15,
1405456840216,3.166736112,8.47128745629,0.849343011692,1.47659662275e-14,9.80665061621,-8.21565038223e-15,
1405456840236,2.02896899895,8.3311510179,0.351837799613,-1.70974345792e-14,9.80665136346,-6.55031584529e-15,
1405456840237,1.01396812862,7.5047590678,0.00394409832051,-9.27036225562e-15,9.80665166353,2.44249065418e-15,
1405456840255,0.325188415346,6.56746460965,0.0599661418312,-1.69309011255e-14,9.80665034451,-5.55111512313e-16,
1405456840275,0.0874511176432,6.43679882722,0.0804857140083,-2.0872192863e-14,9.80665216024,-1.99840144433e-15,
1405456840276,0.014127828041,7.25281577489,-0.138805782121,2.72559752545e-14,9.80664918862,4.4408920985e-16,
1405456840276,-0.0246397239996,8.50438323825,-0.47659830639,5.38458166943e-15,9.80665211097,-5.55111512313e-15,
1405456840287,0.12516231541,9.44788202201,-0.62253106492,4.17443857259e-14,9.8066505287,2.22044604925e-16,
1405456840307,0.189888281669,9.84308466689,-0.205094403732,-2.22044604925e-15,9.80665075498,-5.44009282066e-15,
1405456840308,0.444629292731,9.97858220126,0.659365550892,1.91513471748e-15,9.80665259495,-8.54871728961e-15,
1405456840316,1.14978374212,9.64413795004,1.35606338021,-8.69998517672e-14,9.80665163205,7.66053886991e-15,
1405456840337,1.61793048713,9.3266048945,1.73041000971,7.26571580678e-14,9.80665039276,-1.06581410364e-14,
1405456840338,1.73273463825,9.15109313547,2.02750526572,-8.86270223877e-15,9.80665074382,-8.32667268469e-15,
1405456840353,1.7299942278,9.01264491005,2.09345626678,-9.66310365058e-14,9.80665112512,1.94289029309e-14,
1405456840386,1.62839367318,8.95549777985,1.84058415658,6.63358257214e-15,9.80664889986,-4.82947015712e-15,
1405456840386,1.41240650073,8.94940880376,1.44763360241,2.96429547575e-14,9.80665042266,-3.28626015289e-14,
1405456840388,1.00304615547,8.86847727076,0.809067994094,3.0253577421e-14,9.80664986408,-1.90403248723e-14,
1405456840388,0.667830771527,8.53787863634,0.078870774457,-3.56659146661e-14,9.80665076784,2.0650148258e-14,
1405456840410,0.469660370209,8.18056474376,-0.2458085256,2.05946371068e-14,9.80665217313,1.72084568817e-14,
1405456840411,0.592181481224,7.95618492744,0.00794094592863,2.69229083472e-14,9.80665144355,3.99680288865e-15,
1405456840416,0.52476595524,7.76321347592,0.209840069815,2.20379270388e-14,9.80665072055,-7.88258347484e-15,
1405456840435,0.097575582123,7.80128318548,0.337332466849,-1.49324996812e-14,9.80665153297,-8.65973959208e-15,
1405456840436,-0.236472552636,7.82096037094,0.548814332745,-2.36477504245e-14,9.80665229181,5.55111512313e-16,
1405456840453,-0.492721769362,7.5230621256,0.657751714107,1.24344978758e-14,9.8066501816,-9.7699626167e-15,
1405456840468,-0.868045832589,7.60356881964,0.506827452288,1.88737914186e-15,9.80665098527,1.6320278462e-14,
1405456840468,-1.4288501178,7.76101665542,0.412520985882,-2.55351295664e-15,9.80665055624,1.11022302463e-16,
1405456840486,-1.72403675299,7.85750238163,0.251251969566,1.11022302463e-14,9.80665013996,-7.54951656745e-15,
1405456840487,-1.79861682239,7.79996038484,-0.0668266032611,9.7699626167e-15,9.80665024195,2.89768209427e-14,
1405456840502,-1.78976258523,7.79795717048,-0.26966874176,7.9936057773e-15,9.80665070353,-1.3433698598e-14,
1405456840518,-1.67716683469,7.80512410042,-0.208736121448,8.54871728961e-15,9.80665049371,-6.2172489379e-15,
1405456840518,-1.63150091005,7.68670327773,0.0827818902154,1.24344978758e-14,9.80665049326,-1.60982338571e-14,
1405456840534,-1.85985484839,7.723534125,0.527162312485,-5.55111512313e-15,9.8066510075,1.14352971536e-14,
1405456840536,-2.28645687909,7.96655074579,0.876702318342,1.33226762955e-15,9.80665176,-4.10782519111e-15,
1405456840554,-2.88847385955,8.50797278324,1.00165388495,5.77315972805e-15,9.80664939974,2.88657986403e-15,
1405456840574,-3.56509415318,9.26759544789,0.611992410781,5.3290705182e-15,9.80665092421,-9.65894031424e-15,
1405456840575,-3.86428221974,9.73562481862,0.211744913059,1.15463194561e-14,9.80665160728,7.77156117238e-16,
1405456840578,-3.76761619064,10.0253345962,-0.562376938182,8.881784197e-15,9.8066499964,2.10942374679e-15,
1405456840588,-3.21104313753,9.87547926988,-1.28629733094,5.10702591328e-15,9.80665171383,-6.66133814775e-15,
1405456840606,-2.27412054769,9.62472604977,-1.52747749378,7.9936057773e-15,9.80664972985,-4.4408920985e-16,
1405456840609,-1.87911410742,9.58215867585,-1.26644737335,1.55431223448e-15,9.80665146548,-1.11022302463e-15,
1405456840617,-1.80265067759,9.03460583563,-0.527724063033,-6.43929354283e-15,9.80665185967,5.10702591328e-15,
1405456840640,-2.39678734501,8.69945537427,0.308877887138,2.88657986403e-15,9.80665037682,1.11022302463e-15,
1405456840640,-3.61608450764,8.88177046377,0.123708789265,7.32747196253e-15,9.8066513528,5.99520433298e-15,
1405456840648,-2.87593983288,9.05625900793,-0.387610320593,2.6645352591e-15,9.80665145609,-8.881784197e-15,
1405456840674,-2.20900747164,9.21784802499,-0.609055559886,5.55111512313e-15,9.80665099805,2.22044604925e-16,
1405456840675,-1.72347194359,9.50671622966,-1.03330707398,3.77475828373e-15,9.8066501326,-6.66133814775e-16,
1405456840677,-1.13593234612,9.68486852386,-1.25579992433,0.0,9.80664958025,-3.5527136788e-15,
1405456840729,-0.675757421201,9.6294233996,-0.528656979576,3.77475828373e-15,9.8066508073,8.21565038223e-15,
1405456840730,-0.788844353433,9.86072073561,-0.064249513413,5.77315972805e-15,9.80665090538,1.33226762955e-15,
1405456840731,-1.41038732207,10.1571917009,-0.21383922649,-4.4408920985e-15,9.806649465,-1.99840144433e-15,
1405456840732,-1.47082872513,9.80182289599,0.427191276687,-1.11022302463e-15,9.80665097677,-2.22044604925e-15,
1405456840733,-0.516560439924,9.00450469619,0.209938700292,6.2172489379e-15,9.80664905552,8.65973959208e-15,
1405456840737,1.24188686556,7.9257675441,1.70968433935,1.11022302463e-14,9.80664965028,9.32587340685e-15,
1405456840771,1.90704385428,7.56688331107,2.35109806473,-6.66133814775e-16,9.80665106764,-7.77156117238e-16,
1405456840774,2.45965822821,8.45305921768,2.83613461981,-1.33226762955e-15,9.80664936456,5.77315972805e-15,
1405456840775,2.88298531883,11.1965769384,2.83377514492,5.99520433298e-15,9.80664948095,-3.33066907388e-15,
1405456840808,2.34525406054,16.0189815429,2.6098427484,-5.3290705182e-15,9.80665122665,3.5527136788e-15,
1405456840810,1.87395194799,19.7205469264,3.01973850972,3.99680288865e-15,9.80664985616,-6.43929354283e-15,
1405456840811,2.72944811667,19.8625439219,3.7490549838,1.09912079438e-14,9.80665056784,2.55906407176e-14,
1405456840811,4.0338305337,19.8598941357,3.39778145061,-3.33066907388e-15,9.80665153781,-4.36595204434e-14,
1405456840817,4.45287737523,16.751390112,1.08880870377,-4.4408920985e-15,9.80665164989,-1.75456871254e-13,
1405456840834,3.84922684846,13.1091609332,-1.76556980866,-5.3290705182e-15,9.80665082259,-1.42802436542e-14,
1405456840837,3.21723329788,10.4322744675,-3.08525483647,-1.18793863635e-14,9.80665031887,3.47777362464e-14,
1405456840858,2.91320749633,8.86386704359,-2.94119362034,3.99680288865e-15,9.806650935,-2.37032615757e-14,
1405456840859,2.67304687895,8.09128746874,-2.63798558061,-1.08801856413e-14,9.80665068409,9.32587340685e-15,
1405456840868,2.10585146194,7.41058562286,-2.78640540491,-9.65894031424e-15,9.80665092092,-1.88737914186e-15,
1405456840894,0.762786475185,7.53229897227,-2.83173322382,8.10462807976e-15,9.80665086833,3.36397576461e-14,
1405456840895,-0.343059740735,7.37231889746,-2.52377111096,-1.79301018477e-14,9.80665096393,2.33146835171e-15,
1405456840897,-1.71264311561,7.46026468044,-1.98078541686,-3.01980662698e-14,9.80665039862,1.57651669497e-14,
1405456840939,-2.66685622493,7.96162676261,-1.08344565629,-8.27116153346e-14,9.8066510244,-3.99680288865e-15,
1405456840940,-2.91768879506,8.2911183441,-0.182825626579,-3.27238236508e-13,9.80664960446,6.32827124036e-15,
1405456840940,-2.5299833717,8.72524123664,0.290027670022,4.62963001269e-14,9.80665028865,8.43769498715e-15,
1405456840941,-2.2770279097,8.82586063756,0.435214895651,1.07691633389e-14,9.80665152903,-4.21884749358e-15,
1405456840949,-1.31762632732,8.08225376174,0.455870859969,5.60662627436e-15,9.80665234372,6.49480469406e-15,
1405456840987,-0.532669960177,7.14591620686,0.219512524057,-1.09912079438e-14,9.80664984326,8.04911692853e-15,
1405456840992,-0.15566687635,6.13109721865,-0.131947003552,-8.65973959208e-15,9.80665115222,-1.0325074129e-14,
1405456840999,-0.208775347749,5.28381694153,-0.358797712573,-3.66373598126e-15,9.80665161377,-1.72084568817e-14,
1405456841039,-0.366561305462,4.93944567389,-0.592463229599,8.881784197e-15,9.80665058906,-1.45439216226e-14,
1405456841040,-0.47170671492,4.70076175783,-0.79139531552,-1.33226762955e-15,9.80665096675,-7.88258347484e-15,
1405456841041,-0.438656685985,4.75390879208,-0.987413967863,-4.21884749358e-15,9.80665022021,1.37667655054e-14,
1405456841042,-0.325273729237,4.94456598295,-1.16208080127,-6.66133814775e-16,9.80665090646,1.22124532709e-14,
1405456841043,-0.277325066121,5.02731990568,-1.18795737045,9.65894031424e-15,9.80664931733,-9.7699626167e-15,
1405456841045,-0.349929139423,5.01449786307,-1.06190110409,3.33066907388e-15,9.80665120439,4.99600361081e-15,
1405456841049,-0.456609225406,5.14738857819,-0.849167778726,8.21565038223e-15,9.80665051678,1.06581410364e-14,
1405456841069,-0.605814754749,5.44826700264,-0.667107648279,-2.22044604925e-16,9.80665001767,8.43769498715e-15,
1405456841070,-0.818958477364,5.96500548741,-0.582438731839,3.33066907388e-15,9.80664961581,5.3290705182e-15,
1405456841085,-1.13479031564,6.59525910175,-0.737869699868,6.88338275268e-15,9.80665007391,-1.02140518266e-14,
1405456841105,-1.49501162412,7.48570269935,-0.94060403779,8.21565038223e-15,9.80665142416,5.21804821574e-15,
1405456841105,-1.85643267361,8.73258970413,-1.08651340932,1.66533453694e-15,9.80665067171,-5.77315972805e-15,
1405456841108,-2.12831024236,10.1418554468,-1.28922778776,-2.33146835171e-15,9.80664994007,-7.54951656745e-15,
1405456841117,-2.03654503575,11.3645040922,-1.66001164112,-9.10382880193e-15,9.80665069562,6.10622663544e-15,
1405456841143,-1.71595212327,11.7391213013,-2.06905621185,6.55031584529e-15,9.80665082824,2.55351295664e-14,
1405456841143,-0.913919035065,11.1079542138,-1.97399360845,1.27675647832e-15,9.8066510216,5.55111512313e-15,
1405456841148,0.718434871855,12.0694639062,-1.32524999317,4.60742555219e-15,9.80665183786,2.88657986403e-15,
1405456841178,1.67800738478,14.1355739477,-1.11900558293,-2.53685961127e-14,9.80665116728,-1.38777878078e-14,
1405456841178,1.34069781237,14.5763862213,-0.125892729994,-3.45279360658e-14,9.80665117583,7.88258347484e-15,
1405456841179,0.0597840717937,15.3218027358,1.34777213808,1.04916075827e-14,9.80664907896,-1.11022302463e-16,
1405456841215,-2.00649991658,14.5130055641,2.39946875318,8.04911692853e-15,9.80665145529,1.01030295241e-14,
1405456841215,-3.8293881357,12.3736755325,1.93683456861,1.92623694772e-14,9.80665010343,5.88418203051e-15,
1405456841216,-4.77897723078,9.78810105841,-0.378724229725,8.38218383592e-15,9.80665054562,-7.32747196253e-15,
1405456841218,-5.32056714742,8.97276014577,-3.87426207948,1.69864122768e-14,9.80665225851,7.54951656745e-15,
1405456841240,-5.08790614794,11.3509168376,-6.83678488213,6.2172489379e-15,9.80665027041,1.22124532709e-14,
1405456841241,-2.90386568193,15.9299483435,-6.15002850812,3.5527136788e-15,9.80665173838,1.26565424807e-14,
1405456841248,-0.25844646837,17.1008602718,-1.70189375736,-1.11022302463e-14,9.80665040806,7.77156117238e-15,
1405456841281,2.33300065268,14.0836642666,0.937292155952,5.10702591328e-15,9.80665137276,2.6645352591e-15,
1405456841282,3.88913330242,11.3938678714,1.28918206144,9.54791801178e-15,9.80665135209,-4.4408920985e-15,
1405456841282,3.9524316405,10.1922531069,0.856732293598,1.33226762955e-15,9.8066502797,-7.54951656745e-15,
1405456841309,3.71404706723,9.4977410272,-0.115476544937,-3.33066907388e-15,9.80665061336,7.32747196253e-15,
1405456841309,3.73728687927,9.37346582833,-0.0237984553385,-3.5527136788e-15,9.80664953128,8.881784197e-16,
1405456841310,3.80590134399,9.58747455583,1.66460496833,-3.10862446895e-15,9.80665050208,1.99840144433e-15,
1405456841317,3.84493924669,9.13264957206,2.78095551998,-1.33226762955e-15,9.80664956472,-1.08801856413e-14,
1405456841340,3.6073967298,8.3000467377,2.64308265903,-1.42108547152e-14,9.80665038688,-5.99520433298e-15,
1405456841340,3.27061129261,8.32094569366,1.9293398197,2.55351295664e-15,9.80664954852,2.6645352591e-15,
1405456841350,2.73847815832,8.79810812317,1.41453647928,-3.21964677141e-15,9.80665035108,-8.65973959208e-15,
1405456841373,1.80671295157,8.89248319322,0.97349460153,-4.21884749358e-15,9.80665042352,1.55431223448e-15,
1405456841373,0.688610121237,8.45939950041,0.896970468895,1.44328993201e-15,9.80665012396,7.9936057773e-15,
1405456841377,-0.0218544626055,7.85397352732,1.13286117253,-1.26565424807e-14,9.80664946757,-6.66133814775e-15,
1405456841415,-0.250657151936,7.84102211598,1.00487420675,5.55111512313e-15,9.80665070942,-3.77475828373e-15,
1405456841415,-0.454764826438,8.65854907761,0.300750309946,2.40918396344e-14,9.80665305224,4.21884749358e-15,
1405456841416,-0.419133452043,9.56288273157,-0.258475789818,1.42108547152e-14,9.80665123361,5.3290705182e-15,
1405456841444,-0.203111513811,9.86106781701,-0.422244319853,5.66213742559e-15,9.80664943023,9.99200722163e-16,
1405456841445,-0.0455185404964,9.8823895468,-0.212969164068,1.1046719095e-14,9.8066512685,-7.32747196253e-15,
1405456841446,0.305666700216,9.88080696068,0.370323631071,1.72084568817e-15,9.80665052332,-5.77315972805e-15,
1405456841449,0.791081287349,9.68702876053,0.823389167997,4.77395900589e-15,9.80665184077,7.21644966006e-15,
1405456841472,1.14218315365,9.41877146659,1.07821158721,1.31006316906e-14,9.80665069302,-3.10862446895e-15,
1405456841472,1.23341698865,9.044957892,1.37494011026,-3.39450689779e-14,9.80664998392,-7.77156117238e-16,
1405456841480,0.891118809318,8.72041633215,1.58594726741,-7.41073868937e-15,9.80665035265,3.88578058619e-15,
1405456841524,0.830853222748,8.47124280069,1.59110676132,1.34892097492e-14,9.80665125555,-8.99280649946e-15,
1405456841525,1.00571864533,8.45190297264,1.29048024328,2.10456652106e-13,9.8066499549,-5.88418203051e-15,
1405456841526,1.18955548403,8.52449276322,0.680827029782,8.75156739612e-12,9.80665096406,-3.21964677141e-15,
1405456841527,1.10588826533,8.36268443318,0.0725092682638,5.65242297412e-14,9.80665055628,-1.83186799063e-14,
1405456841531,0.867240080749,8.08812872248,0.104601850461,-2.43693953905e-14,9.80664971775,1.3211653993e-14,
1405456841578,0.696922300744,7.83169483253,0.527866681445,3.41393580072e-15,9.80664983146,2.89768209427e-14,
1405456841579,0.511445501315,8.00761421524,0.877505923594,2.81441536742e-14,9.8066504394,-1.11022302463e-15,
1405456841580,0.638251174808,8.06676045824,1.06909751499,1.20459198172e-14,9.80665029863,-1.0325074129e-14,
1405456841581,0.637909563687,7.89874188144,1.16374659791,-1.49880108324e-15,9.80665174239,-1.74305014866e-14,
1405456841582,0.104022857956,7.89460363401,1.07092986916,-2.33146835171e-15,9.80665084927,2.25375273999e-14,
1405456841612,-0.57870808237,8.01775816274,0.975820204804,-1.3211653993e-14,9.80665070438,1.27675647832e-14,
1405456841612,-1.38960717909,8.20392217404,0.741902504322,4.32986979604e-15,9.80665101577,-1.06581410364e-14,
1405456841612,-2.07848618439,8.40951036121,0.364776150353,6.88338275268e-15,9.80665019692,3.66373598126e-15,
1405456841644,-2.41035509258,8.53363264862,-0.111716904717,-6.2172489379e-15,9.80664964535,-1.55431223448e-15,
1405456841644,-2.35847503044,8.37717967246,-0.246177252462,1.68753899743e-14,9.80665027144,-4.88498130835e-15,
1405456841645,-2.22468422994,8.13494621781,-0.0651561213683,1.44328993201e-14,9.8066501953,1.04360964315e-14,
1405456841651,-2.16491033585,7.88077845702,0.303414921399,-1.08801856413e-14,9.80665108649,7.32747196253e-15,
1405456841674,-1.97835890931,7.66713838561,0.581340266773,4.4408920985e-16,9.80665039108,-6.2172489379e-15,
1405456841674,-2.23864291672,7.71599571147,0.970576373058,-2.6645352591e-15,9.80665052388,4.4408920985e-16,
1405456841677,-2.65085322422,8.05077345373,1.02938274644,2.22044604925e-15,9.80665050144,3.5527136788e-15,
1405456841708,-3.08941659644,8.47818918325,0.512822469266,3.10862446895e-15,9.80664979907,1.07691633389e-14,
1405456841709,-3.29598894259,8.94290139759,-0.271112481865,2.22044604925e-15,9.8066494255,1.33226762955e-15,
1405456841711,-3.08582034184,9.35664303241,-0.964093161855,6.43929354283e-15,9.80665029768,6.66133814775e-15,
1405456841744,-2.48905403796,9.50725451457,-1.29731087485,6.43929354283e-15,9.80664965501,-4.4408920985e-16,
1405456841744,-2.09849475019,9.71053593494,-1.20174837685,-3.99680288865e-15,9.80665089158,3.77475828373e-15,
1405456841745,-2.26595024783,9.15071681863,-0.604446106901,2.6645352591e-15,9.80665114434,6.66133814775e-15,
1405456841749,-2.83798617378,8.51531228069,-0.00819882062969,-5.55111512313e-15,9.8066495298,3.99680288865e-15,
1405456841767,-3.56262556822,8.33275924641,0.0473697585216,-6.66133814775e-16,9.80664979833,1.33226762955e-15,
1405456841779,-3.34865880945,8.44602896393,-0.106426310033,3.10862446895e-15,9.80665107436,3.77475828373e-15,
1405456841780,-2.1657733237,8.69237652869,-0.372972299248,4.88498130835e-15,9.80664925746,2.44249065418e-15,
1405456841800,-1.38561765334,9.08796668355,-0.478996425454,4.21884749358e-15,9.80665037373,-1.11022302463e-15,
1405456841800,-0.755977072685,9.59275624435,-0.95209804499,2.22044604925e-15,9.80665118548,-4.4408920985e-15,
1405456841816,-0.0268263614481,10.0495357393,-1.05107838153,7.32747196253e-15,9.8066502287,5.55111512313e-15,
1405456841818,-0.0135597168476,10.2738456579,-0.486640996981,-1.11022302463e-15,9.8066506358,-3.77475828373e-15,
1405456841833,-0.656291789017,10.3776139392,0.287358984219,7.32747196253e-15,9.8066515346,1.11022302463e-15,
1405456841851,-1.3411190739,10.6656512752,0.747186162901,4.4408920985e-15,9.80665213012,-5.55111512313e-15,
1405456841851,-1.29986685315,10.4553964706,1.53250984317,1.33226762955e-15,9.80665196555,5.3290705182e-15,
1405456841861,-0.672617766751,9.64427845093,1.88359107903,6.2172489379e-15,9.80665108277,-5.99520433298e-15,
1405456841878,0.392768883524,8.67408887715,1.67123183615,6.2172489379e-15,9.80665058979,-2.44249065418e-15,
1405456841878,1.25679545199,8.19659684317,1.86301236479,1.33226762955e-15,9.80665019377,7.9936057773e-15,
1405456841896,1.94733415399,9.09453628541,2.03622253552,-2.22044604925e-16,9.80665093989,4.77395900589e-15,
1405456841901,2.57187907981,11.9272858337,1.8044135039,-1.55431223448e-15,9.80665007071,-1.3433698598e-14,
1405456841922,2.68103273473,16.1572219084,1.2782074172,8.881784197e-16,9.80665183745,-6.10622663544e-15,
1405456841923,2.52892945351,19.6414233477,1.27195739922,-2.44249065418e-15,9.80664981661,-2.83661982792e-14,
1405456841930,2.3844808664,19.9469658911,2.10841017066,-5.77315972805e-15,9.80665055772,-2.85882428841e-14,
1405456841967,3.19582224768,19.4521916041,2.31187874855,-4.4408920985e-15,9.80665067647,1.42663658664e-14,
1405456841970,3.21400281643,15.6963891295,0.803319008001,6.66133814775e-16,9.80665064361,-5.05706587717e-14,
1405456841971,3.21195698428,12.1623387932,-1.21424514259,9.10382880193e-15,9.80665107323,2.35367281221e-14,
1405456842003,2.80113970981,10.0748858862,-2.52331211221,5.10702591328e-15,9.80665067722,1.70974345792e-14,
1405456842004,2.77731658688,8.63444178475,-2.84602065959,-5.88418203051e-15,9.8066503529,-5.55111512313e-16,
1405456842004,2.6206769918,7.9555047803,-2.82999899153,-1.88737914186e-15,9.80664971524,-8.54871728961e-15,
1405456842004,1.63167807215,7.4119452095,-2.85920476628,-4.88498130835e-15,9.80665099651,-1.11022302463e-14,
1405456842010,0.467058730796,7.15471406184,-2.52522350803,6.43929354283e-15,9.80665085485,8.881784197e-16,
1405456842030,-0.465172090572,7.2824245115,-1.89322194474,-8.21565038223e-15,9.80665125481,-3.99680288865e-15,
1405456842031,-1.14430986138,7.46357458972,-1.0616254812,-9.15933995316e-15,9.8066504242,1.33226762955e-15,
1405456842055,-1.47348535237,7.62088124941,-0.182247833616,0.0,9.8066517941,2.10942374679e-15,
1405456842056,-1.61709194252,8.07346031564,0.440813742125,-3.74422715055e-14,9.80664973506,-1.44328993201e-14,
1405456842058,-1.66125281452,8.317328798,0.70168358245,3.29389293618e-14,9.80665119508,2.29816166097e-14,
1405456842089,-1.39533974209,7.9732058084,0.719173644205,-9.07052211119e-14,9.80665150347,2.26485497024e-14,
1405456842090,-0.867524715563,7.00624611393,0.514909771192,4.62130334e-14,9.80665214106,1.11022302463e-15,
1405456842091,-0.569718792942,5.91638511626,0.0921495645385,3.46667139439e-14,9.80665015242,-1.87627691162e-14,
1405456842098,-0.547906238322,5.1285831074,-0.432597682632,1.08246744901e-14,9.80664992728,2.44249065418e-15,
1405456842124,-0.574844340378,4.64952482223,-0.851061272584,-3.12527781432e-14,9.80664976565,1.66533453694e-15,
1405456842124,-0.612163788062,4.61789668866,-1.11390595054,9.32587340685e-15,9.80664935746,9.43689570931e-15,
1405456842130,-0.721524317274,4.82865311575,-1.24081469376,-2.89213097915e-14,9.80665209834,-1.46549439251e-14,
1405456842154,-0.731622504035,4.97039573276,-1.18759234561,6.93889390391e-15,9.80665167808,-1.23234755733e-14,
1405456842155,-0.597982078497,5.07425278859,-1.02865416602,1.24344978758e-14,9.80665003114,1.01030295241e-14,
1405456842182,-0.524124761924,5.2223173165,-0.835126402767,5.10702591328e-15,9.80665120899,-1.12132525487e-14,
1405456842182,-0.634965819011,5.35832225926,-0.671635178483,-1.84297022088e-14,9.80665141196,-1.80966353014e-14,
1405456842183,-0.693062509378,5.55992518295,-0.610305647217,-8.54871728961e-15,9.80664867738,7.43849426499e-15,
1405456842197,-0.783483313629,6.13055729257,-0.597082632771,6.66133814775e-15,9.80665009305,-8.881784197e-15,
1405456842199,-1.00665605207,7.04068933748,-0.771015777831,-4.10782519111e-15,9.8066523312,-6.88338275268e-15,
1405456842218,-1.3047740004,8.13581437949,-1.1026835907,4.21884749358e-15,9.80665068675,2.88657986403e-15,
1405456842219,-1.69884251865,9.25462277388,-1.44939131697,-2.10942374679e-14,9.80665225627,-1.25455201783e-14,
1405456842230,-2.05079962209,10.1403299037,-1.71699097528,-1.14352971536e-14,9.80665109164,3.99680288865e-15,
1405456842256,-2.23577738669,10.8620512684,-2.18221664901,-1.07691633389e-14,9.80665142381,-3.33066907388e-15,
1405456842257,-2.02590742382,11.0774239782,-2.52190745981,1.70974345792e-14,9.80665076482,1.1768364061e-14,
1405456842259,-1.96413818836,10.7507950313,-2.23936642146,-6.66133814775e-16,9.80665145298,6.99440505514e-15,
1405456842284,-1.13465086504,11.0064090057,-1.61504659146,-2.51465515078e-14,9.80665141478,2.99760216649e-15,
1405456842285,0.567430009568,13.7604376115,-1.52444875417,1.11022302463e-14,9.80665166108,5.44009282066e-15,
1405456842305,0.318548249459,15.0441523788,-0.360006579199,-5.27355936697e-15,9.80665191695,1.53210777398e-14,
1405456842306,-1.13364047709,15.8503550187,1.40736138312,-7.38298311376e-15,9.80664894984,5.77315972805e-15,
1405456842310,-2.97795111959,14.6074478492,2.25254776716,-2.60347299275e-14,9.80665027197,-1.99840144433e-15,
1405456842331,-4.58793522194,11.8724628541,1.51572356627,-7.21644966006e-16,9.80665017684,2.6645352591e-15,
1405456842332,-5.14132732476,9.80659039683,-0.557946090405,1.58761892521e-14,9.80665113237,-1.04360964315e-14,
1405456842346,-4.60122864833,10.3864317542,-4.74643819134,-2.99760216649e-15,9.80665068827,3.33066907388e-16,
1405456842386,-2.09441102591,14.8585050058,-8.10596260151,-1.55431223448e-15,9.80665023174,-7.1054273576e-15,
1405456842391,0.732420340425,19.4712603168,-3.67790055818,-5.99520433298e-15,9.80665076208,7.21644966006e-15,
1405456842392,3.06564071685,16.50822502,1.49199243371,1.08801856413e-14,9.80665009537,5.77315972805e-15,
1405456842393,5.10461956306,12.5652187987,2.43920031677,2.6645352591e-15,9.80664996467,-3.77475828373e-15,
1405456842394,5.23322642996,10.5751724727,1.22821546557,-4.4408920985e-15,9.80665106276,3.77475828373e-15,
1405456842399,4.70278927588,9.71561053649,0.131877557517,-1.11022302463e-15,9.80665146885,1.37667655054e-14,
1405456842430,4.84023618714,9.67996539346,0.494902667527,4.21884749358e-15,9.80665130312,1.99840144433e-15,
1405456842431,4.90346936199,9.55420084612,2.14572260212,8.881784197e-15,9.80665102823,7.32747196253e-15,
1405456842432,4.63733039098,8.63732988005,3.64594476384,9.32587340685e-15,9.80665011959,1.11022302463e-15,
1405456842459,4.44116007134,8.06650464142,3.29898056204,1.49880108324e-14,9.8066516997,4.21884749358e-15,
1405456842460,3.92106081546,8.4537066529,2.35130542585,-1.46549439251e-14,9.80664911619,-1.11022302463e-15,
1405456842461,3.40289291247,8.8919946359,1.66839761549,3.10862446895e-15,9.8066495178,3.77475828373e-15,
1405456842483,2.5532199079,9.44642648623,1.20477348583,-1.88737914186e-15,9.80664996404,6.43929354283e-15,
1405456842485,1.41255669048,9.2739643373,1.09145000869,7.77156117238e-16,9.80664981603,1.22124532709e-14,
1405456842505,0.686993268776,8.91557034904,1.38250822795,-2.33146835171e-15,9.80665215504,-2.22044604925e-15,
1405456842505,0.439390675147,9.01382349926,1.41088045693,-9.99200722163e-15,9.80664996803,-6.2172489379e-15,
1405456842509,0.261740755415,9.47750865554,0.916487639471,-3.77475828373e-15,9.80665060938,-1.15463194561e-14,
1405456842529,0.0302217996931,9.6670102675,0.28818510337,8.21565038223e-15,9.8066507942,1.33226762955e-15,
1405456842529,-0.0285176568063,9.4151492539,-0.213227179251,5.77315972805e-15,9.8066492057,7.54951656745e-15,
1405456842548,0.334986061357,9.00245879404,-0.198248715572,2.49800180541e-15,9.80665067858,7.88258347484e-15,
1405456842565,0.561724473149,8.88608393877,-0.0523812094015,-1.40998324127e-14,9.80665000935,1.45439216226e-14,
1405456842565,0.896608128358,8.72131813691,0.159411221687,-3.30291349826e-14,9.80665167695,4.10782519111e-15,
1405456842584,1.02203250027,8.31498625163,0.571354008716,-3.78308495641e-14,9.8066520378,1.22124532709e-14,
1405456842585,1.02369277291,7.98350798183,1.05023651038,1.04971586978e-13,9.80665057342,-5.88418203051e-15,
1405456842590,1.00541710859,7.95415949856,1.28080256016,-4.56162885243e-14,9.80665277013,-1.13242748512e-14,
1405456842598,0.880821218195,7.72196528239,1.25868088178,-2.52901866116e-13,9.80665132052,-1.72084568817e-14,
1405456842619,0.720997679524,7.75077455809,1.01050932916,1.01814390252e-13,9.80665136002,-1.99840144433e-15,
1405456842621,0.493303687787,7.94729507624,0.641848143842,1.95718441454e-13,9.80665027932,-1.23234755733e-14,
1405456842630,0.290919769877,7.89924755742,0.267426572532,5.34156052723e-14,9.80665039804,2.04281036531e-14,
1405456842662,0.199452862326,8.08857164386,0.212160086789,4.10504963355e-14,9.80665115446,-4.66293670343e-15,
1405456842664,0.242898159274,8.03661992719,0.471435582447,5.49560397189e-15,9.80665168494,-1.42108547152e-14,
1405456842665,0.215202075464,7.83950845776,0.76137380469,-4.21884749358e-14,9.80665167044,3.77475828373e-15,
1405456842692,0.0948450656598,7.87886478845,0.896870787484,1.27675647832e-15,9.80665136077,-2.47579734491e-14,
1405456842694,-0.108035432157,8.01893944958,0.991422166961,-1.26010313295e-14,9.80665169117,8.77076189454e-15,
1405456842695,-0.468008616643,8.13433010819,0.950967036486,2.3758772727e-14,9.80665040112,-8.881784197e-15,
1405456842715,-1.23647444111,8.2901893993,0.754235234083,0.0,9.80665111723,-5.99520433298e-15,
1405456842715,-2.12415870166,8.56039226028,0.416570432123,-7.66053886991e-15,9.80665048159,-1.23234755733e-14,
1405456842729,-2.56382974833,8.76701764383,0.0199216988231,-3.66373598126e-15,9.80664904565,1.21014309684e-14,
1405456842730,-2.76967941007,8.76579948187,-0.280090689973,-2.22044604925e-16,9.80665129075,-8.881784197e-16,
1405456842747,-2.71382128064,8.5167156131,-0.401292030243,1.88737914186e-15,9.80665073108,-8.65973959208e-15,
1405456842750,-2.4498809636,8.10198485198,-0.354553421311,-8.881784197e-15,9.80665049505,4.4408920985e-15,
1405456842765,-2.29703331421,7.74143645043,-0.203304740191,3.77475828373e-15,9.80665212217,-2.22044604925e-16,
1405456842782,-2.41588354812,7.69398286124,0.0951522220998,-2.88657986403e-15,9.80665141834,-2.44249065418e-15,
1405456842783,-2.78542150233,7.92744566651,0.0219277620134,1.15463194561e-14,9.80665085297,-1.33226762955e-15,
1405456842794,-2.99850241743,8.25648427228,-0.183957404201,-4.21884749358e-15,9.80665063908,-3.5527136788e-15,
1405456842819,-2.95594821569,8.55391574275,-0.613657246911,6.66133814775e-16,9.80664997931,1.11022302463e-15,
1405456842819,-2.6407123227,9.04192006272,-0.97138323935,-1.55431223448e-15,9.80665132688,3.99680288865e-15,
1405456842820,-1.97374588744,8.98032439442,-0.997828366228,2.88657986403e-15,9.8066505243,-6.66133814775e-15,
1405456842830,-1.42441442142,9.17241231122,-0.944589644701,2.88657986403e-15,9.80664956475,-1.15463194561e-14,
1405456842854,-1.47089548611,9.22323969894,-0.420274795252,3.10862446895e-15,9.80664969839,4.88498130835e-15,
1405456842854,-2.17201355904,8.88325046536,0.483885592179,-3.99680288865e-15,9.80665110881,1.06581410364e-14,
1405456842860,-3.33113118815,8.51439877172,1.1443090254,-1.7763568394e-15,9.8066507825,3.5527136788e-15,
1405456842876,-4.26572390932,8.56536987343,1.04456348978,7.9936057773e-15,9.80664937202,3.33066907388e-15,
1405456842878,-4.22029437779,9.02610748773,0.669345697183,-4.4408920985e-16,9.80665158125,-4.88498130835e-15,
1405456842896,-3.38442842243,9.5062297727,0.24390297976,6.2172489379e-15,9.80665130136,-5.55111512313e-15,
1405456842898,-2.5039386116,9.80409525915,0.0684213962014,-3.33066907388e-15,9.80665174927,-5.3290705182e-15,
1405456842916,-1.7362172411,10.0882023688,-0.0154680275371,-2.88657986403e-15,9.80665197051,1.28785870857e-14,
1405456842921,-1.33724435223,10.4066238935,-0.265428356311,2.6645352591e-15,9.80664971168,6.66133814775e-15,
1405456842930,-0.892731887447,10.3535964465,-0.209505581555,3.5527136788e-15,9.80664931407,-3.99680288865e-15,
1405456842948,-0.334054732278,9.47990892932,0.693871567765,-1.11022302463e-15,9.80665156475,5.10702591328e-15,
1405456842964,-0.0485768729166,8.61313327131,0.60180651252,4.88498130835e-15,9.80665022255,-4.66293670343e-15,
1405456842964,-0.172662372163,7.90617465748,0.192054621871,4.4408920985e-15,9.80665077793,6.88338275268e-15,
1405456842980,0.669976811361,6.94457664492,0.12041218798,6.66133814775e-16,9.80665143407,-1.33226762955e-15,
1405456842980,2.10151287909,6.20209535832,0.674730843523,4.4408920985e-15,9.80664925954,4.4408920985e-15,
1405456842997,2.90659980231,6.46256211582,1.49107139599,0.0,9.80664931885,-7.9936057773e-15,
1405456843011,3.73937685589,8.45055957805,1.86685735046,4.66293670343e-15,9.80665071403,-3.10862446895e-15,
1405456843012,4.56484771406,12.410940033,1.59735921638,1.22124532709e-14,9.80665083789,-5.99520433298e-15,
1405456843028,3.76772733252,17.8322621919,0.941504988695,3.5527136788e-15,9.80665010219,-4.4408920985e-16,
1405456843030,2.4665950804,19.9952413878,1.50240099937,4.21884749358e-15,9.80665115939,1.38777878078e-14,
1405456843045,2.67690369972,19.9025626559,3.11103567329,3.5527136788e-15,9.80665126987,6.10622663544e-15,
1405456843062,3.72385801567,19.9386900296,3.78281221795,9.99200722163e-16,9.80665058795,6.55031584529e-15,
1405456843062,3.77982457771,17.4308866433,1.99891890145,6.66133814775e-16,9.80664909082,1.16573417586e-15,
1405456843077,3.68854286688,13.6769705711,-0.785241513575,2.22044604925e-16,9.8066495659,2.45359288442e-14,
1405456843078,2.15615094871,11.5123159537,-2.25925648373,7.77156117238e-16,9.80665227092,2.57016630201e-14,
1405456843094,1.91035130448,10.0531771782,-2.58578734149,-7.66053886991e-15,9.80665145339,-1.29896093881e-14,
1405456843110,2.13528760818,8.68302201843,-2.77989102017,-1.88737914186e-14,9.80665137785,-1.82076576039e-14,
1405456843110,1.68119105736,8.01087307614,-3.17730390313,1.08801856413e-14,9.80664979401,-1.76525460915e-14,
1405456843127,0.566645064233,8.02025880482,-3.0993426262,1.36557432029e-14,9.80664972586,6.43929354283e-15,
1405456843130,-0.528025686897,7.8664330203,-2.38210456592,-5.10702591328e-15,9.8066509013,-1.29896093881e-14,
1405456843144,-1.3587047785,7.67599915117,-1.53570034053,-4.79061235126e-14,9.80665170006,1.40998324127e-14,
1405456843159,-1.92224046645,7.76747409326,-0.606888617758,1.73472347598e-15,9.8066514053,2.19824158876e-14,
1405456843159,-2.01018006065,8.07723682252,0.0914388862627,-2.10401140954e-13,9.80664997336,-1.22124532709e-15,
1405456843174,-1.9332164751,8.56264989392,0.341139310415,2.55351295664e-15,9.80665114819,-5.55111512313e-15,
1405456843178,-1.68532593001,8.77123359266,0.339212266442,-2.00117700189e-14,9.80665117697,-7.77156117238e-15,
1405456843193,-1.27327871151,8.40507968855,0.290850538068,-5.55111512313e-17,9.80665126934,-1.12132525487e-14,
1405456843215,-0.612080694003,7.37295911492,0.17548641449,-2.40918396344e-14,9.80665033776,2.77555756156e-15,
1405456843216,0.0587554246475,6.10669146818,-0.0917118330808,4.38538094727e-15,9.80664946433,-9.43689570931e-15,
1405456843220,0.199132646249,5.28752343921,-0.49135973397,7.49400541622e-15,9.8066517004,7.32747196253e-15,
1405456843230,0.0599185288765,4.80586989896,-0.73879336241,-2.27595720048e-15,9.80665171549,-3.10862446895e-15,
1405456843251,-0.0774800264172,4.44272503319,-0.795849247343,1.27675647832e-14,9.8066505487,6.32827124036e-15,
1405456843262,-0.213683689791,4.31245584665,-0.786021607835,5.71764857682e-15,9.80664939649,1.3211653993e-14,
1405456843263,-0.347814449899,4.48806595046,-0.833533803949,-8.04911692853e-15,9.80665196057,-4.77395900589e-15,
1405456843282,-0.662052802103,4.64595311318,-0.899023096015,4.10782519111e-15,9.80665110564,-7.21644966006e-15,
1405456843283,-0.8627224722,4.70456194496,-0.914896921797,-6.10622663544e-15,9.80665101007,4.66293670343e-15,
1405456843290,-0.923643387751,4.84092948963,-0.909055195512,-2.27595720048e-14,9.80664968307,7.88258347484e-15,
1405456843320,-1.04126478013,5.2333195068,-1.05882461829,-1.66533453694e-14,9.80664982461,7.54951656745e-15,
1405456843320,-1.26448216552,5.83751080969,-1.12392746962,-1.33226762955e-15,9.80665082974,8.65973959208e-15,
1405456843321,-1.51984602217,6.63913920339,-1.10951493759,7.77156117238e-16,9.80664962116,8.54871728961e-15,
1405456843354,-1.90420831981,8.6911230079,-1.0894554233,4.10782519111e-15,9.8066496258,-7.54951656745e-15,
1405456843355,-2.00225449173,9.73866600311,-1.78013855367,4.71844785466e-15,9.80665040874,-8.54871728961e-15,
1405456843355,-1.75610939563,10.4383632873,-2.92708260865,2.91433543964e-14,9.80665097728,-3.33066907388e-15,
1405456843358,-1.08966659137,10.6536578873,-3.32610445131,-1.57651669497e-14,9.80665092701,1.04360964315e-14,
1405456843381,-0.241534660874,10.8249764699,-2.42916056755,-8.49320613838e-15,9.80665121241,-7.88258347484e-15,
1405456843381,0.844346352058,12.8266673043,-1.64417270428,-2.71449529521e-14,9.80665187194,-4.4408920985e-15,
1405456843395,0.307444343135,14.7965091725,-0.462082750447,-1.02140518266e-14,9.80665193979,2.99760216649e-15,
1405456843414,-0.949611576929,15.6724346788,1.33662384762,5.71764857682e-15,9.80665115524,1.12132525487e-14,
1405456843415,-2.73389784785,14.8860580538,2.55535901608,-5.82311976416e-14,9.80665095804,2.99760216649e-15,
1405456843418,-4.32653295778,11.6236651344,2.67108699187,3.61932706028e-14,9.80664914108,-2.55351295664e-15,
1405456843443,-5.19917787602,8.93093005348,1.04002075509,-9.60342916301e-15,9.80665169035,-7.54951656745e-15,
1405456843444,-5.55612611703,8.92873412173,-2.30957440463,-1.49324996812e-14,9.8066519965,6.10622663544e-15,
1405456843472,-4.43129441294,12.2055053981,-7.01032439996,-2.55351295664e-15,9.80665099844,1.24344978758e-14,
1405456843473,-0.741188802914,17.3861921505,-7.88844071144,-1.72084568817e-14,9.80665036291,-1.37667655054e-14,
1405456843473,1.90470293552,17.5992317977,-1.16215513909,1.44328993201e-15,9.80665055719,9.10382880193e-15,
1405456843479,3.94213442848,13.3018967974,1.92975407292,-7.77156117238e-16,9.80665014291,-1.99840144433e-15,
1405456843504,4.80054992301,10.6166867975,1.32608888667,-7.54951656745e-15,9.80665212066,-5.55111512313e-15,
1405456843504,4.54640738598,9.94320549968,-1.01630965211,5.10702591328e-15,9.80664988063,1.55431223448e-15,
1405456843512,5.23671853048,10.5420740714,-2.15915329792,7.77156117238e-15,9.80665117461,-3.99680288865e-15,
1405456843535,5.58039852012,12.1046758299,-0.14766473044,1.55431223448e-15,9.80664973838,-2.88657986403e-15,
1405456843535,4.91692416176,11.6171883458,2.94446124794,5.99520433298e-15,9.80664977366,-1.33226762955e-15,
1405456843539,4.01352031404,9.76539592543,3.96741075259,-5.21804821574e-15,9.80665051788,-1.55431223448e-15,
1405456843571,3.1832843672,8.99049569659,2.78897834588,-2.77555756156e-15,9.80665193562,6.88338275268e-15,
1405456843571,2.23897414258,8.9994240285,1.82060114173,1.45439216226e-14,9.80665003579,1.7763568394e-15,
1405456843572,1.55969209043,9.18082913046,1.32300448185,-1.43218770177e-14,9.80665120625,-3.5527136788e-15,
1405456843580,0.723654587702,9.21630138503,0.574162280914,1.29896093881e-14,9.80664852453,7.77156117238e-15,
1405456843599,-0.156736827474,8.89020827474,0.270031351964,4.71844785466e-15,9.80665089325,8.881784197e-16,
1405456843603,-0.579242904567,8.69801685205,0.627991643651,-2.99760216649e-15,9.80665174726,-3.33066907388e-15,
1405456843610,-0.670581212267,9.02456097389,0.750789640627,-7.32747196253e-15,9.80664997612,1.24344978758e-14,
1405456843632,-0.585020885978,9.61190909274,0.386261270755,-4.82947015712e-15,9.80665025755,-3.99680288865e-15,
1405456843632,-0.309489789807,10.0477387215,0.166547099975,-5.55111512313e-16,9.80665010607,1.13242748512e-14,
1405456843640,0.0352873168937,10.2551785704,0.320235198919,1.47659662275e-14,9.80665111853,9.10382880193e-15,
1405456843665,0.461129188477,10.3185950855,0.669587008081,-1.05471187339e-14,9.80665002111,1.55431223448e-15,
1405456843666,0.959713595526,9.87005794407,0.984079343384,2.82551759767e-14,9.80665097883,4.21884749358e-15,
1405456843671,1.60243505369,9.00712651748,1.18951022419,8.90953977262e-15,9.80664995884,9.32587340685e-15,
1405456843679,1.77136063342,8.88066321691,1.52045016108,4.20913304211e-14,9.80665185582,9.99200722163e-16,
1405456843698,1.95131043222,8.6989983156,1.76991457352,-1.68146746526e-13,9.80665189315,7.66053886991e-15,
1405456843701,1.79886717397,8.38988447281,1.84893716262,-1.87960758069e-13,9.80665056931,8.43769498715e-15,
1405456843711,1.80493965287,8.16185168027,1.83462052758,1.14033782417e-13,9.806649706,1.69864122768e-14,
1405456843727,1.82530115286,7.86749176471,1.46813152827,3.21687121385e-14,9.80664944128,3.88578058619e-15,
1405456843745,1.69370995481,7.71724055123,0.971641956534,-3.61377594515e-14,9.80664971562,6.2172489379e-15,
1405456843745,1.45421036816,7.79897074187,0.598336787917,8.60422844084e-15,9.80665013875,6.55031584529e-15,
1405456843763,0.999817610477,8.12370080754,0.451021610947,-2.13162820728e-14,9.8066516321,-1.06581410364e-14,
1405456843764,0.761106237097,8.10744918828,0.628733935287,6.82787160144e-15,9.80665042118,-3.88578058619e-15,
1405456843777,0.545558066406,8.07248840647,0.799401453767,5.3290705182e-15,9.80665086612,-1.22124532709e-15,
1405456843779,0.329289385635,7.99791818096,1.04770259397,6.77236045021e-15,9.80665060985,8.99280649946e-15,
1405456843794,0.0304497463048,7.96189720604,1.2962280192,2.68673971959e-14,9.80665191739,-4.10782519111e-15,
1405456843811,-0.490908034697,7.82443217058,1.33620568598,5.66213742559e-15,9.80665054078,0.0,
1405456843812,-1.34702643354,7.84635813372,0.889219768561,-1.11022302463e-16,9.80665181248,2.07611705605e-14,
1405456843823,-2.02817184341,7.65168537075,0.464429310611,1.27675647832e-14,9.80665199168,-4.88498130835e-15,
1405456843841,-2.46033191718,7.35452002779,0.143533015059,2.88657986403e-15,9.80665189137,6.77236045021e-15,
1405456843842,-2.60843890249,7.01276303192,-0.110732482438,3.5527136788e-15,9.80665102639,-6.32827124036e-15,
1405456843861,-2.44782640872,6.63634132059,-0.300101051057,1.7763568394e-15,9.80665114921,3.33066907388e-16,
1405456843862,-2.2291018616,6.37897872036,-0.389458062842,3.33066907388e-15,9.80664947319,4.99600361081e-15,
1405456843873,-2.02557979782,6.40858003164,-0.37144736535,-1.55431223448e-15,9.80665191928,5.99520433298e-15,
1405456843891,-1.97559267101,6.61956413874,-0.151857241793,9.10382880193e-15,9.80665061575,1.04360964315e-14,
1405456843891,-2.10397962125,7.16981954068,-0.0922071144632,-9.10382880193e-15,9.80665020886,2.88657986403e-15,
1405456843907,-2.20238999348,7.83406013196,-0.113078449623,1.11022302463e-14,9.80665055926,5.3290705182e-15,
1405456843911,-2.30939563922,8.50079473923,-0.269644920422,-6.66133814775e-15,9.80665037745,3.33066907388e-15,
1405456843924,-2.09797999967,9.18137260732,-0.413425565867,2.6645352591e-15,9.80665167029,2.44249065418e-15,
1405456843941,-1.93778378548,9.4787568841,-0.508405963714,1.7763568394e-15,9.80665046467,1.7763568394e-15,
1405456843941,-1.77269737152,9.59730152373,-0.50079418639,2.22044604925e-15,9.80664975793,3.99680288865e-15,
1405456843965,-2.05764242044,9.49241775882,-0.219943079269,9.7699626167e-15,9.80665111887,2.88657986403e-15,
1405456843965,-2.74640300782,9.08716017353,0.159543377873,5.55111512313e-15,9.80664983015,3.33066907388e-15,
1405456843971,-3.59693145246,8.84565301716,0.198104024279,6.66133814775e-16,9.80665007672,7.1054273576e-15,
1405456843996,-4.04052266695,9.10470030924,0.000442351265321,-6.88338275268e-15,9.8066496697,-3.10862446895e-15,
1405456843997,-3.65152998427,9.7570972181,-0.358625575599,6.43929354283e-15,9.80665160394,-3.5527136788e-15,
1405456844000,-2.91521555736,10.3145374067,-0.459140451751,9.7699626167e-15,9.80665089231,0.0,
1405456844011,-2.33165197641,10.8393574034,-0.596619283628,1.7763568394e-15,9.8066506141,-1.99840144433e-15,
1405456844034,-1.84867333506,11.0155271549,-0.933176925913,5.77315972805e-15,9.80664962359,2.22044604925e-15,
1405456844035,-1.50880107657,10.8108614828,-0.885347592842,-1.33226762955e-15,9.80664998765,2.88657986403e-15,
1405456844039,-1.62630551173,10.6421749793,-0.387069580823,8.881784197e-16,9.80664970478,1.99840144433e-15,
1405456844068,-2.12346986501,10.7640434677,-0.312550784829,5.77315972805e-15,9.80664944762,1.11022302463e-15,
1405456844068,-2.42587742214,10.4807175183,0.262470862647,5.3290705182e-15,9.80665084792,-1.7763568394e-15,
1405456844071,-1.8125009087,9.53498212464,1.5204235589,6.66133814775e-16,9.80665166968,-4.21884749358e-15,
1405456844102,-0.407012052176,8.24285171861,2.35730110895,8.881784197e-16,9.80665063923,1.55431223448e-15,
1405456844102,0.853685957718,7.34692697985,2.88600469745,2.6645352591e-15,9.80664977278,1.24344978758e-14,
1405456844103,1.51022999477,7.45382904687,3.22538695094,-3.99680288865e-15,9.80665025073,5.66213742559e-15,
1405456844112,1.90361991741,8.87284123652,3.1317862966,7.77156117238e-15,9.80664907271,4.99600361081e-15,
1405456844134,1.99862267125,12.102837371,2.57101580983,6.88338275268e-15,9.80665154518,5.99520433298e-15,
1405456844135,1.80626270306,16.5600893902,2.1531061026,-3.5527136788e-15,9.80664968044,3.99680288865e-15,
1405456844140,1.24615211506,19.7365796403,2.34587433214,-1.7763568394e-15,9.80664825244,-1.58761892521e-14,
1405456844166,2.60643994111,19.9408093207,2.9127101853,1.99840144433e-15,9.80664903095,-9.99200722163e-15,
1405456844166,4.03761370184,19.3405060058,2.0644448091,6.43929354283e-15,9.80664935218,1.60427227058e-14,
1405456844171,3.55597309104,15.5925055442,-0.0949769077712,-3.21964677141e-15,9.80664969013,1.77080572428e-14,
1405456844197,3.46255974474,11.8594516551,-2.1815654778,3.10862446895e-15,9.80664993152,4.27435864481e-15,
1405456844198,2.64028830312,9.81709913445,-2.88061299717,1.1990408666e-14,9.80664986082,-1.70974345792e-14,
1405456844200,1.99478464323,9.17978794279,-2.49364859394,4.99600361081e-15,9.80665087336,2.77555756156e-15,
1405456844211,2.00670243369,8.79398880042,-2.29275977629,-9.88098491916e-15,9.80665148192,6.66133814775e-16,
1405456844235,1.95705384853,8.0080217614,-2.67060356505,-5.21804821574e-15,9.80665021264,7.77156117238e-16,
1405456844236,1.09094200096,7.60201552935,-2.87457841921,1.27675647832e-14,9.80665027457,-3.66373598126e-15,
1405456844240,-0.121829942941,7.54031474176,-2.45145246825,-1.36557432029e-14,9.80665003238,4.99600361081e-15,
1405456844271,-1.06626259164,7.52611168946,-1.62169498148,9.27036225562e-15,9.80664997715,9.54791801178e-15,
1405456844271,-1.78079602103,7.87856901112,-0.699454567817,3.71647157493e-14,9.80665057823,-5.3290705182e-15,
1405456844272,-1.94139473367,8.32279855887,0.0297277193711,1.19557141964e-13,9.80665034023,4.10782519111e-15,
1405456844298,-1.94132156757,8.81543126864,0.442544969768,6.65439925385e-14,9.80665058576,6.55031584529e-15,
1405456844299,-1.69664927751,8.93646196524,0.591188038912,3.10862446895e-14,9.80665030154,0.0,
1405456844300,-1.55229410971,8.72517984646,0.464936941899,2.76445533132e-14,9.80665048434,-2.10942374679e-15,
1405456844311,-0.971282460704,7.66463411135,0.256682995844,1.22124532709e-15,9.80665062193,-2.88657986403e-15,
1405456844325,-0.538525157386,6.43513749522,0.0917986678963,5.10702591328e-15,9.80664924605,8.10462807976e-15,
1405456844343,-0.419762443884,5.44700961081,-0.171868958412,2.45359288442e-14,9.8066500461,-3.88578058619e-15,
1405456844343,-0.495170116896,4.95185890617,-0.423551271667,-1.28785870857e-14,9.80665082692,1.66533453694e-15,
1405456844358,-0.649511757492,5.00682554301,-0.599247416517,-1.73194791842e-14,9.80665026936,9.99200722163e-15,
1405456844360,-0.708204226252,5.21131497115,-0.913912780576,7.9936057773e-15,9.80665004171,2.55351295664e-15,
1405456844376,-0.566036851988,5.05413076106,-1.00756805962,-2.99760216649e-15,9.80664863405,-7.32747196253e-15,
1405456844392,-0.638611621882,5.12155787107,-1.11031046531,5.3290705182e-15,9.8066503997,5.55111512313e-15,
1405456844392,-0.839336796463,5.19923284105,-1.0141366291,-1.11022302463e-15,9.80665056796,-7.54951656745e-15,
1405456844406,-1.14139096712,5.44805704185,-0.741176434302,7.1054273576e-15,9.80664969902,-5.99520433298e-15,
1405456844423,-1.25818554989,5.77294791336,-0.594051941624,7.43849426499e-15,9.80665069334,1.33226762955e-14,
1405456844423,-1.41085398434,6.31441659202,-0.707240965338,3.5527136788e-15,9.8066492269,1.06581410364e-14,
1405456844437,-1.50131583979,6.98157964048,-0.810485176407,-2.77555756156e-15,9.80664985737,-7.32747196253e-15,
1405456844440,-1.64868505285,7.77873965492,-0.99492557229,-4.66293670343e-15,9.80665039292,2.22044604925e-15,
1405456844464,-1.93409773819,8.79195544768,-0.980313717394,-1.49880108324e-15,9.80664906806,-3.99680288865e-15,
1405456844464,-2.17012078373,9.85817646675,-1.23265811763,3.83026943496e-15,9.80665180944,-1.11022302463e-15,
1405456844471,-1.7459942917,10.476746386,-2.05789518074,-2.57571741713e-14,9.80665037795,9.7699626167e-15,
1405456844496,-0.884819764393,10.2719619458,-2.22063053981,-9.71445146547e-15,9.806651439,1.08801856413e-14,
1405456844497,0.196037413549,10.4578255706,-1.55988236998,-3.63598040565e-14,9.80664955628,-3.33066907388e-15,
1405456844500,1.70511962312,12.8412387772,-1.43623237718,-2.27595720048e-15,9.80664996713,-1.33226762955e-15,
1405456844511,1.24436456909,14.2008253352,-0.512160057487,1.89570581455e-14,9.80665015259,-3.33066907388e-15,
1405456844523,-0.181388528817,14.5419419756,1.12992229738,6.10067552032e-14,9.80665017099,3.99680288865e-15,
1405456844540,-2.06983069717,13.8091384605,2.07211704707,3.8413716652e-14,9.80665060983,-8.881784197e-16,
1405456844541,-3.43037459292,12.0518326272,1.11992721299,3.04201108747e-14,9.80665065211,6.2172489379e-15,
1405456844561,-3.2144422947,12.2657469302,-3.02866139799,-1.38777878078e-15,9.80665139202,1.11022302463e-15,
1405456844562,-1.01723792127,17.1927114781,-5.80835008307,-1.64868119157e-14,9.80665173835,4.4408920985e-16,
1405456844577,0.741057863623,19.7922380011,-0.133273829044,1.50990331349e-14,9.80665061038,8.65973959208e-15,
1405456844597,2.46123271978,17.4263978697,4.88907043987,-1.37667655054e-14,9.80665158585,4.66293670343e-15,
1405456844598,2.69404987773,12.7282958102,4.97181355335,2.22044604925e-16,9.80665077345,-2.22044604925e-16,
1405456844600,1.45108316227,10.1273843649,3.15176366504,1.15463194561e-14,9.80665060907,9.32587340685e-15,
1405456844621,1.55681393452,8.30753718635,-0.513893504989,4.4408920985e-16,9.80665102676,-5.10702591328e-15,
1405456844622,2.11154734544,7.17122307376,-3.54184670372,6.66133814775e-16,9.80665054705,-1.7763568394e-15,
1405456844639,2.43073479038,7.67097119739,-3.3800509386,-2.6645352591e-15,9.80665035375,8.881784197e-15,
1405456844640,2.5804588615,8.0554918246,-1.92690133032,3.10862446895e-15,9.80665045729,0.0,
1405456844660,2.55385284304,7.9321411843,-0.871749636634,-2.6645352591e-15,9.80665072492,3.77475828373e-15,
1405456844661,2.45282907206,8.13723588701,-0.648116715558,-8.54871728961e-15,9.80665094909,4.4408920985e-15,
1405456844673,2.18741799581,8.42809116635,-0.00965482608954,-1.88737914186e-15,9.80664966169,5.10702591328e-15,
1405456844687,0.876257688333,10.6302120902,2.65342350139,-4.77395900589e-15,9.80665186198,-1.33226762955e-15,
1405456844692,0.358697733481,11.3556045538,3.76228752637,-5.55111512313e-16,9.8066507026,9.10382880193e-15,
1405456844709,0.378623021401,11.1342142118,4.40922660498,-7.43849426499e-15,9.80665122899,6.66133814775e-15,
1405456844724,0.611677745314,11.0631518755,4.1302968858,2.10942374679e-14,9.80665120272,-1.1990408666e-14,
1405456844724,0.631706573277,10.7286112392,2.85497141336,6.2172489379e-15,9.80665073063,-4.4408920985e-15,
1405456844742,0.67696763869,10.2112005811,1.51527598301,-5.88418203051e-15,9.80665117374,5.55111512313e-15,
1405456844743,0.637980326863,9.98148333181,0.647935409967,-1.94289029309e-15,9.80665142883,6.2172489379e-15,
1405456844756,0.59985147092,9.90292031925,0.149061090021,7.43849426499e-15,9.80665165596,4.32986979604e-15,
1405456844760,0.601169937483,9.60170456535,0.154475741369,2.36477504245e-14,9.806650597,1.33226762955e-15,
1405456844774,0.668998647726,9.13312396971,0.494486908623,4.62685445513e-14,9.80665037368,5.21804821574e-15,
1405456844797,0.923076639526,8.8584035059,0.814485484732,-8.32528490591e-14,9.80665084789,-8.32667268469e-15,
1405456844797,1.24640305606,8.41152297223,1.11121984569,3.6451397456e-13,9.80665150605,-1.88737914186e-15,
1405456844800,1.5415027649,7.81415461199,1.33320316058,-7.58559881575e-14,9.80665116584,2.10942374679e-15,
1405456844835,1.5300100501,7.3539079361,1.21752637072,1.15185638805e-14,9.80665212266,1.13242748512e-14,
1405456844836,1.45879013562,7.26608284649,0.830219582399,3.49165141245e-14,9.80665181675,-5.99520433298e-15,
1405456844836,1.4504670428,7.13521082938,0.483460364771,1.79856129989e-14,9.806650077,-9.54791801178e-15,
1405456844841,1.37232757272,7.25670375356,0.486009689461,1.33781874467e-14,9.8066513942,6.55031584529e-15,
1405456844875,1.34668883981,7.27298867711,0.707396084953,3.33066907388e-15,9.80664984471,-4.77395900589e-15,
1405456844876,1.39428008589,7.29229507417,0.937505050418,-1.67643676718e-14,9.80664972431,3.88578058619e-15,
1405456844879,1.41793764011,7.19878689659,1.16351257047,7.43849426499e-15,9.806650395,-8.881784197e-15,
1405456844906,1.12836446937,7.21958601158,1.20357546719,1.87627691162e-14,9.80665087994,7.77156117238e-15,
1405456844907,0.547513757443,7.49861854607,1.02926539587,1.85407245112e-14,9.80665017821,3.99680288865e-15,
1405456844908,-0.037523374761,7.64921453311,0.749324428804,-4.55191440096e-15,9.80665192119,1.99840144433e-15,
1405456844947,-1.08549807561,7.87321245609,0.522731300816,3.99680288865e-15,9.80665156437,1.68753899743e-14,
1405456844948,-2.15617818274,8.00570434823,0.278415051357,1.06581410364e-14,9.80665046245,6.32827124036e-15,
1405456844949,-2.82303788528,7.87584150598,0.00815598234786,-7.9936057773e-15,9.80665085127,7.32747196253e-15,
1405456844950,-3.01641529124,7.69275588485,-0.256480010125,3.33066907388e-15,9.80665132472,-7.77156117238e-15,
1405456844954,-3.04097327938,7.68881589138,-0.391143653676,1.04360964315e-14,9.80664946579,9.99200722163e-16,
1405456844993,-2.85803019977,7.96265051403,-0.420933378954,-3.5527136788e-15,9.80664924321,5.55111512313e-16,
1405456844996,-2.53052976009,8.24704330872,-0.30114905391,8.881784197e-16,9.80664997681,3.99680288865e-15,
1405456844997,-2.06697563239,8.35590737026,-0.0890371424423,3.33066907388e-15,9.80665005571,-3.88578058619e-15,
1405456844998,-1.90774367985,8.54109025273,0.40104901007,3.99680288865e-15,9.8066501121,-2.99760216649e-15,
1405456845019,-1.8477758158,8.79790423316,0.831494191258,3.99680288865e-15,9.80665028021,1.66533453694e-15,
1405456845020,-1.7337157525,8.97275959032,0.714876822746,1.99840144433e-15,9.80665030441,-3.77475828373e-15,
1405456845023,-1.81888587147,9.17254028367,0.12084881099,-6.2172489379e-15,9.80664948451,2.22044604925e-16,
1405456845048,-1.62441782449,9.28820549368,-0.0992451010837,2.88657986403e-15,9.80665082407,-7.9936057773e-15,
1405456845049,-1.29362784973,9.35594092492,-0.314092680324,6.66133814775e-15,9.80665023164,-1.33226762955e-15,
1405456845052,-1.25217403763,8.95864584151,-0.202919604134,-3.33066907388e-15,9.80665027625,6.66133814775e-15,
1405456845079,-1.87166748693,8.18355071602,0.581776023369,1.08801856413e-14,9.80665101299,-1.99840144433e-15,
1405456845080,-2.99745712365,7.54724323946,0.820849481155,4.88498130835e-15,9.80665165488,5.3290705182e-15,
1405456845083,-3.87688523063,7.46429104197,0.36176371247,-4.4408920985e-16,9.8066505552,-4.21884749358e-15,
1405456845092,-3.71232419811,8.02203242707,0.0214807594962,0.0,9.80665161157,5.10702591328e-15,
1405456845114,-3.08735016925,8.90187994542,-0.0781518281835,-5.77315972805e-15,9.80665070254,-5.55111512313e-15,
1405456845115,-2.24348807756,9.67941111217,0.0251379067534,2.22044604925e-15,9.80665114885,1.33226762955e-15,
1405456845121,-1.68706403378,10.4640818066,0.0338727254468,1.33226762955e-15,9.80664972494,-3.10862446895e-15,
1405456845154,-1.9569445887,10.9332208819,-0.363881268105,-1.33226762955e-15,9.80665112703,-4.88498130835e-15,
1405456845155,-2.24022235421,10.750444787,-0.381284110021,8.881784197e-16,9.80664996365,8.43769498715e-15,
1405456845162,-2.53282823307,10.390672321,0.0736077785922,3.10862446895e-15,9.80665117482,9.7699626167e-15,
1405456845192,-2.85472970422,10.1135476118,0.185242312982,7.54951656745e-15,9.80665049529,3.99680288865e-15,
1405456845196,-3.0820966809,9.56466258341,0.554270008129,2.22044604925e-15,9.80664918594,-3.5527136788e-15,
1405456845196,-2.48186719548,8.71980787132,1.33250311393,5.99520433298e-15,9.80665049937,-4.4408920985e-15,
1405456845197,-0.859780508747,7.89950684418,1.44679429356,-2.6645352591e-15,9.80664991281,-2.22044604925e-15,
1405456845217,0.42913690979,7.54388173224,1.41882619267,-2.44249065418e-15,9.80665122519,5.55111512313e-15,
1405456845218,1.26873865243,8.39506887263,1.5838427028,-4.66293670343e-15,9.80665073455,6.66133814775e-16,
1405456845222,1.87174408838,10.8212908569,1.37062386107,-4.21884749358e-15,9.80664898652,-5.10702591328e-15,
1405456845243,2.19825402371,14.7890408291,0.988869471289,8.881784197e-16,9.80665231374,-6.99440505514e-15,
1405456845243,1.76457795459,18.710614352,1.24927982327,8.21565038223e-15,9.80664939552,-6.43929354283e-15,
1405456845253,1.59398890115,19.8325700111,2.61841624438,-2.22044604925e-16,9.80665102167,4.66293670343e-15,
1405456845287,2.99410682386,19.6943364213,3.54446285596,-6.88338275268e-15,9.80664875363,-8.21565038223e-15,
1405456845287,3.78678491499,17.776262469,2.61543275187,-4.88498130835e-15,9.80664927707,-2.53130849615e-14,
1405456845288,3.98604890102,14.9509594544,0.583268388767,-2.6645352591e-15,9.80665149402,-5.99520433298e-15,
1405456845294,4.23827101818,12.4061259523,-1.33589746503,4.55191440096e-15,9.80664936077,3.68594044176e-14,
1405456845318,4.04147889076,10.9335897378,-2.0764857271,4.4408920985e-15,9.80665064292,1.40998324127e-14,
1405456845319,3.5538690251,10.0861255232,-1.82995453029,-1.44328993201e-15,9.806649978,7.77156117238e-15,
1405456845321,3.1989223802,9.24763355066,-1.57137689104,-1.88737914186e-15,9.80665029167,5.55111512313e-16,
1405456845353,2.74018641917,8.67081993979,-1.73910948975,4.55191440096e-15,9.80665021678,-3.33066907388e-15,
1405456845354,1.74722115359,8.56323990353,-1.94919225571,3.88578058619e-15,9.80665005026,1.66533453694e-15,
1405456845355,1.04101268501,7.95751494361,-1.61087817826,8.881784197e-16,9.8066514422,8.99280649946e-15,
1405456845383,0.31730065514,7.74686156262,-1.06922263213,9.43689570931e-15,9.80665060206,-2.6645352591e-15,
1405456845383,-0.440479428631,7.86430150982,-0.655888099038,2.86437540353e-14,9.80665040691,3.77475828373e-15,
1405456845384,-0.986079282037,8.13151105492,-0.434860742122,1.6320278462e-14,9.80664947182,-3.33066907388e-15,
1405456845416,-1.25746524972,8.25984255993,-0.286342673554,2.19824158876e-14,9.8066510675,4.21884749358e-15,
1405456845416,-1.24070961192,8.02647337641,-0.146878008285,1.85920723261e-13,9.80664920684,8.65973959208e-15,
1405456845417,-0.997868029065,7.38056608476,-0.0646435413086,-7.91033905045e-14,9.80665072644,-1.74305014866e-14,
1405456845421,-0.35318353692,6.4374806877,-0.12791363635,1.89293025699e-14,9.80665154743,4.77395900589e-15,
1405456845446,-0.0131671984231,5.77711355498,-0.290112290934,2.32591723659e-14,9.80665138651,-1.88737914186e-15,
1405456845447,0.0856473805655,5.28247704094,-0.439071761993,-1.22402088465e-14,9.80665216688,1.39888101103e-14,
1405456845452,0.0666865843887,4.81765711938,-0.531198852742,-3.36120020705e-14,9.80664997874,-9.10382880193e-15,
1405456845477,0.00791716474337,4.49559001327,-0.559679189185,-3.83582055008e-14,9.80665087096,-2.55351295664e-15,
1405456845477,-0.0684150935794,4.48785318794,-0.469234065075,-1.74305014866e-14,9.80665069608,-4.66293670343e-15,
1405456845481,-0.0832110171873,4.70480724995,-0.438913145145,7.9936057773e-15,9.80664999247,7.66053886991e-15,
1405456845515,-0.0099402694904,4.84990033338,-0.348474505986,-1.3433698598e-14,9.80664979911,-1.66533453694e-15,
1405456845516,-0.0434522428986,4.99172050332,-0.28239797123,-3.13082892944e-14,9.80664890601,7.32747196253e-15,
1405456845517,-0.0650846774626,5.13050907969,-0.380035488599,-1.67088565206e-14,9.80665087194,-6.66133814775e-15,
1405456845521,-0.172053227475,5.30156075175,-0.534861115455,-1.44328993201e-15,9.80665200184,1.04360964315e-14,
1405456845554,-0.323084414809,5.64957403541,-0.834589335935,-1.43773881689e-14,9.80665114159,6.88338275268e-15,
1405456845555,-0.49790915494,6.18271795124,-1.22900843198,7.16093850883e-15,9.80665092311,-5.3290705182e-15,
1405456845555,-0.833478573072,7.107098533,-1.50602312821,-1.11022302463e-16,9.80665009443,-6.2172489379e-15,
1405456845586,-1.40259707081,8.46356370084,-1.62130993405,4.16333634234e-15,9.80665034422,-2.55351295664e-15,
1405456845587,-2.10012725203,10.0784041021,-1.44960174904,-2.94209101526e-14,9.80665032938,3.21964677141e-15,
1405456845588,-2.54769187482,11.5177364801,-1.42292215187,-2.3037127761e-14,9.80665159027,6.32827124036e-15,
1405456845614,-2.70997655076,12.3341695768,-1.68482549162,1.90958360236e-14,9.80665072018,2.10942374679e-15,
1405456845614,-2.25489552703,12.2630612072,-1.8520587481,-1.94289029309e-15,9.80665091925,4.88498130835e-15,
1405456845615,-1.95721068013,11.9794762658,-1.58775297707,-2.65898414398e-14,9.80665007714,-1.29896093881e-14,
1405456845621,-1.42000370056,13.3073304835,-1.14586811377,-2.32591723659e-14,9.80665031003,-8.77076189454e-15,
1405456845641,-1.10279015567,14.3489356196,-0.241803169255,-1.70141678524e-14,9.80665059728,-8.43769498715e-15,
1405456845642,-1.48921089938,14.3531413155,0.573063957138,3.60267371491e-14,9.80664920109,1.11022302463e-16,
1405456845656,-2.73894971433,14.0031372745,1.06120200879,-4.10782519111e-15,9.80664935025,2.10942374679e-15,
1405456845676,-4.07295962489,12.6848723753,1.11875305327,1.2490009027e-14,9.80665056753,-4.10782519111e-15,
1405456845676,-4.93475693572,11.3619128792,-0.063750080764,-1.3433698598e-14,9.80665166914,-1.6320278462e-14,
1405456845681,-5.17417547318,11.3154640406,-2.94849932344,-1.45439216226e-14,9.80665107471,1.44328993201e-15,
1405456845715,-3.79138340908,14.0185056646,-7.1612853547,-6.43929354283e-15,9.80664984242,1.82076576039e-14,
1405456845715,-1.40923933194,18.6539757052,-5.32273032224,4.66293670343e-15,9.8066490135,-6.66133814775e-16,
1405456845716,2.05696817805,18.1420967839,0.458076164089,4.32986979604e-15,9.80664985071,5.3290705182e-15,
1405456845721,4.72412644478,13.9676619682,3.93564351501,-1.7763568394e-15,9.80665110776,5.55111512313e-15,
1405456845751,5.11710972112,11.6419251968,4.01249783608,7.32747196253e-15,9.80665037396,-3.10862446895e-15,
1405456845754,3.93509615294,10.3879169988,1.86412804783,1.7763568394e-15,9.80665021526,-2.88657986403e-15,
1405456845754,3.92784568689,8.98023819633,0.24450069814,3.10862446895e-15,9.80665107073,1.28785870857e-14,
1405456845777,4.05444170384,8.66994025116,-0.676038660827,-7.54951656745e-15,9.8066490793,-7.32747196253e-15,
1405456845778,3.97961924368,8.09065463128,0.0597784896416,2.10942374679e-15,9.80665140713,5.99520433298e-15,
1405456845781,3.68198328358,7.52481862672,0.354798560706,-3.99680288865e-15,9.80665229483,4.4408920985e-15,
1405456845811,3.03236400691,7.323886992,-0.0619282876882,-3.66373598126e-15,9.80665005321,-1.11022302463e-15,
1405456845813,2.61034803421,7.64972028649,-0.244670417299,-6.88338275268e-15,9.80665044269,6.43929354283e-15,
1405456845813,2.10228350922,8.41300845732,0.121495738863,3.5527136788e-15,9.80665033876,-1.55431223448e-15,
1405456845821,1.3631614121,9.11931517566,0.564310625853,3.5527136788e-15,9.80664963796,7.54951656745e-15,
1405456845846,0.593052077606,9.51181323786,1.13877126945,8.10462807976e-15,9.80664979128,1.7763568394e-15,
1405456845847,0.259312632004,9.80953681732,1.79659946797,-4.4408920985e-15,9.8066506933,4.88498130835e-15,
1405456845855,0.300851785556,10.2624164152,2.38268854662,2.33146835171e-15,9.80665049612,5.10702591328e-15,
1405456845877,0.461827464888,10.9630861361,2.52098315943,1.70974345792e-14,9.8066505607,1.22124532709e-14,
1405456845878,0.723513481125,10.983751023,2.23207915758,1.43218770177e-14,9.8066526382,-1.22124532709e-15,
1405456845881,0.938180563772,10.3846965133,1.67580416693,-3.05311331772e-15,9.80665267777,6.32827124036e-15,
1405456845913,0.925403957272,9.78845145498,0.904907477288,4.10782519111e-14,9.80664964406,1.11022302463e-14,
1405456845914,0.715280517011,9.33699638311,0.0708307858855,1.65700786425e-14,9.80665113052,1.33226762955e-15,
1405456845915,0.491295190645,8.86218745297,-0.193663948843,5.88140647295e-14,9.80665193838,-8.77076189454e-15,
1405456845924,0.307499844933,8.30973570338,-0.127290625095,1.73472347598e-14,9.80664980581,1.23234755733e-14,
1405456845944,0.202488721332,7.86261177314,0.139433906642,-2.69038263889e-13,9.80665098936,-6.66133814775e-16,
1405456845945,0.211378610425,7.36638495986,0.393743507882,3.00037772405e-14,9.80664841586,-5.88418203051e-15,
1405456845954,0.269557283361,7.11911600938,0.497990362105,-3.96904731303e-15,9.80665156804,1.46549439251e-14,
1405456845973,0.361167676184,7.14073219926,0.262017034981,3.51108031538e-14,9.80665139226,8.99280649946e-15,
1405456845973,0.548166103251,7.1466014485,-0.110565801719,4.31876756579e-14,9.80665079408,1.01030295241e-14,
1405456845986,0.804858531352,6.94542931956,-0.258874226798,-3.336220189e-14,9.80665144156,1.06581410364e-14,
1405456846006,0.836778204877,7.08512579968,-0.0224483895698,6.43929354283e-15,9.80665145212,9.65894031424e-15,
1405456846006,1.12149637788,6.95983527509,0.518388367597,1.28230759344e-14,9.80664953673,1.26565424807e-14,
1405456846025,1.27425327911,6.98934144457,0.887982130303,-4.4408920985e-16,9.80664938209,8.32667268469e-15,
1405456846025,1.13843590952,7.44515258054,0.999603205655,-6.32827124036e-15,9.80665032801,-1.0325074129e-14,
1405456846035,0.840078382203,7.76843842835,1.12985568657,1.49880108324e-14,9.80665078006,-8.10462807976e-15,
1405456846064,-0.506627113388,8.03167548534,0.974680107502,-3.66373598126e-15,9.80665135165,2.65343302885e-14,
1405456846065,-1.62795334381,8.14062733655,0.732019138577,5.77315972805e-15,9.80665102436,-5.44009282066e-15,
1405456846065,-2.39163060433,8.3218686019,0.297530012049,4.4408920985e-15,9.80665115044,3.44169137634e-15,
1405456846074,-2.70189071676,8.53608314254,-0.213606244594,1.55431223448e-15,9.80664949518,-5.77315972805e-15,
1405456846103,-2.71495821486,8.76798756209,-0.611156445941,6.2172489379e-15,9.80665073458,4.99600361081e-15,
1405456846103,-2.4875728783,8.82338422443,-0.707390828833,4.88498130835e-15,9.80665193003,8.881784197e-16,
1405456846104,-2.0222070288,8.6300594669,-0.538378871429,7.1054273576e-15,9.80664928824,7.1054273576e-15,
1405456846122,-1.76533684125,8.60949534493,-0.0607932769875,1.1768364061e-14,9.80665120263,7.43849426499e-15,
1405456846122,-1.85886443919,8.87096555609,0.31156973203,1.7763568394e-15,9.80665126711,-5.10702591328e-15,
1405456846137,-1.89947542905,9.06190636608,0.382292948765,4.21884749358e-15,9.8066499913,9.21485110439e-15,
1405456846157,-1.93338329114,9.3049482822,-0.255212507946,4.21884749358e-15,9.80664962434,-3.10862446895e-15,
1405456846158,-1.80862902752,9.25901834323,-0.668965480257,-4.66293670343e-15,9.80665138482,-3.10862446895e-15,
1405456846163,-1.40656028992,8.91010811117,-0.61419598005,-1.11022302463e-15,9.80665172296,9.10382880193e-15,
1405456846173,-1.22558551982,8.62447002797,-0.69176814894,-2.6645352591e-15,9.80665103874,-9.10382880193e-15,
1405456846189,-1.73653617971,8.27067346855,-0.0842819144253,4.88498130835e-15,9.80665035142,3.77475828373e-15,
1405456846204,-2.72131416704,7.95837750505,0.760159032612,1.06581410364e-14,9.8066508706,-7.32747196253e-15,
1405456846204,-3.47277138791,8.08339782294,1.06049468932,-4.4408920985e-16,9.80665198597,-5.99520433298e-15,
1405456846222,-3.64873905936,8.71096989416,0.740711841014,5.10702591328e-15,9.80665009917,2.22044604925e-15,
1405456846224,-2.63986845038,9.31392061875,0.343879986784,1.55431223448e-15,9.80665034183,-6.88338275268e-15,
1405456846238,-1.45139540732,9.90391373811,0.0127164649473,5.10702591328e-15,9.80664993696,-3.77475828373e-15,
1405456846255,-0.919316810726,10.5262881079,-0.745229280136,4.21884749358e-15,9.80665038736,9.10382880193e-15,
1405456846255,-0.44053301482,10.7672919673,-1.31412196116,-3.33066907388e-15,9.80665104079,-1.7763568394e-15,
1405456846272,-0.140765655653,10.5051411513,-0.640338799284,-3.10862446895e-15,9.80665174146,8.881784197e-16,
1405456846286,-0.733202542391,10.2415183615,0.0783824982802,1.55431223448e-15,9.80665093636,2.22044604925e-15,
1405456846286,-1.49767850806,10.3535403775,0.104302429164,-4.66293670343e-15,9.80665072816,5.99520433298e-15,
1405456846305,-1.89956640639,10.2937656253,0.605317696147,8.881784197e-16,9.80665193404,9.54791801178e-15,
1405456846305,-1.25753340533,9.66326789321,1.4303475424,-4.4408920985e-15,9.80665079799,-2.88657986403e-15,
1405456846318,-0.0904257912777,8.79890698715,1.80791257499,5.55111512313e-15,9.80665082701,-5.3290705182e-15,
1405456846323,0.947027977356,8.15304437311,2.12950131068,2.22044604925e-15,9.80665101483,8.43769498715e-15,
1405456846338,1.55501635213,8.606990796,2.39829318302,-5.3290705182e-15,9.80664995924,1.85407245112e-14,
1405456846357,1.98969127501,10.80451848,2.04405622784,4.66293670343e-15,9.8066513562,-4.88498130835e-15,
1405456846357,2.70408098853,14.6789467959,1.16723895565,-6.66133814775e-16,9.80664898289,1.28785870857e-14,
1405456846361,3.03626520022,19.090010906,0.856827470434,-3.77475828373e-15,9.80665073143,7.1054273576e-15,
1405456846388,3.16126566634,19.9977468985,1.73721319205,2.44249065418e-15,9.80665022638,-1.24344978758e-14,
1405456846388,3.54333325363,19.900723232,2.33007354207,6.2172489379e-15,9.80665004535,-8.60422844084e-15,
1405456846414,3.34596331783,17.1030764212,1.04389298269,8.21565038223e-15,9.80665054347,1.14352971536e-14,
1405456846415,3.31731160064,13.1698525319,-1.22010651166,9.21485110439e-15,9.80664966389,1.47659662275e-14,
1405456846416,3.18096948453,10.517505324,-2.74325757758,3.33066907388e-16,9.80665174947,-5.99520433298e-15,
1405456846422,2.81845679477,9.29300308361,-3.00491221252,3.33066907388e-15,9.80664943059,-1.54321000423e-14,
1405456846445,2.24740804914,8.69133270803,-2.88976703519,-2.22044604925e-16,9.80665018308,1.11022302463e-16,
1405456846445,2.3304637793,7.74256070792,-2.99945741647,1.42108547152e-14,9.80665105334,-5.99520433298e-15,
1405456846453,2.0034030368,6.86087029057,-3.07125269954,1.43218770177e-14,9.80665045218,-1.11022302463e-15,
1405456846475,0.896713641316,6.93258663902,-2.8060419045,-1.69309011255e-14,9.80665011305,3.44169137634e-15,
1405456846475,-0.026622918201,7.14754009359,-2.08529379109,1.94289029309e-14,9.80664961002,-4.55191440096e-15,
1405456846482,-0.955404343853,7.42954978274,-1.2494504227,-3.28626015289e-14,9.80665134731,8.881784197e-15,
1405456846511,-1.57703436217,7.70564858396,-0.402853790913,8.28503932127e-15,9.80665132421,3.5527136788e-15,
1405456846512,-1.62191531034,8.05455890898,0.182712463756,-5.4012350148e-14,9.8066493186,-7.77156117238e-15,
1405456846514,-1.49437333,8.20547809417,0.402548109407,-1.9206858326e-14,9.8066505323,4.99600361081e-15,
1405456846523,-1.23702649832,7.86431578146,0.368645822157,-1.60982338571e-15,9.80664968434,-9.32587340685e-15,
1405456846558,-0.864569620761,7.14018186397,0.235461974448,-1.07691633389e-14,9.8066487162,-6.66133814775e-16,
1405456846559,-0.432338491637,6.30382297561,0.00279464782174,7.88258347484e-15,9.80665166126,-1.18793863635e-14,
1405456846561,-0.332813128876,5.64775802421,-0.322754588496,-9.65894031424e-15,9.80665061677,4.88498130835e-15,
1405456846562,-0.369092327611,4.99365334452,-0.504838935102,2.6645352591e-15,9.80664960223,-1.0325074129e-14,
1405456846587,-0.477755571453,4.73191175646,-0.611457775543,9.99200722163e-15,9.80664953714,3.77475828373e-15,
1405456846588,-0.677280698288,4.74730864013,-0.694475340286,-5.55111512313e-16,9.80665087937,9.7699626167e-15,
1405456846607,-0.678446624575,4.83277570521,-0.830639518602,-3.44169137634e-15,9.80665045455,-4.32986979604e-15,
1405456846608,-0.475948016135,4.88900486576,-0.958830112554,-2.22044604925e-16,9.8066491361,5.10702591328e-15,
1405456846614,-0.380585411376,5.00839920302,-0.974439897097,9.99200722163e-16,9.80664823298,5.10702591328e-15,
1405456846622,-0.486337991283,5.32033142807,-0.976638291982,7.88258347484e-15,9.80665089672,1.1768364061e-14,
1405456846638,-0.643873220483,5.91238251655,-0.986552844928,-1.1990408666e-14,9.80665066643,-8.881784197e-16,
1405456846660,-0.780971913509,6.62261672275,-1.12394942708,-1.0325074129e-14,9.80665183633,1.06581410364e-14,
1405456846661,-1.00126649345,7.44320933379,-1.26424262217,-8.10462807976e-15,9.8066509022,1.55431223448e-15,
1405456846664,-1.35216047638,8.34802928426,-1.24212571179,1.98729921408e-14,9.80665044687,5.10702591328e-15,
1405456846691,-1.75422493857,9.36351649344,-1.18440747387,-3.33066907388e-16,9.80665032148,8.881784197e-16,
1405456846692,-1.9724232249,10.5686422876,-1.52332007683,-8.65973959208e-15,9.80665061616,-1.99840144433e-15,
1405456846694,-1.625656981,11.5932778784,-2.29783109271,6.66133814775e-15,9.80665060279,-4.88498130835e-15,
1405456846702,-1.24271390452,11.9286972909,-2.57051767014,-9.99200722163e-16,9.80665110569,-5.55111512313e-15,
1405456846723,-0.839290332008,11.5491403471,-2.27399429822,2.99760216649e-15,9.80665049965,1.09912079438e-14,
1405456846724,0.370819219928,12.3832079359,-1.47837216256,6.05071548421e-15,9.80665126428,7.66053886991e-15,
1405456846735,0.804937429184,14.7594893437,-0.639519446696,7.27196081129e-15,9.80664972045,-5.55111512313e-16,
1405456846758,0.210106872954,14.9406780882,0.815124454814,-3.88578058619e-16,9.80665063056,-7.66053886991e-15,
1405456846758,-1.81303900013,14.5416953059,2.28460739264,3.01980662698e-14,9.8066488294,-9.54791801178e-15,
1405456846762,-3.86582090632,12.9222481382,2.66050453126,-2.12052597703e-14,9.80665119365,3.99680288865e-15,
1405456846795,-5.0118991791,10.573791488,0.901701561495,-2.72004641033e-15,9.80665016215,9.99200722163e-16,
1405456846796,-4.97778260921,9.93851672363,-3.38900853154,2.34257058196e-14,9.80665053395,8.32667268469e-15,
1405456846796,-3.34488359682,12.9629219798,-7.09501151888,1.22124532709e-15,9.80665093381,2.99760216649e-15,
1405456846803,-1.23726706228,18.6158411814,-3.53303123725,5.88418203051e-15,9.80664972404,-3.10862446895e-15,
1405456846831,1.40915183228,18.4058187152,0.649908202793,-5.21804821574e-15,9.80665119721,3.99680288865e-15,
