index,i,acc_x,acc_y,acc_z
0,0,[0.039621731314662616, 0.8872137276983382, -0.07029061448807322],[0.1746652499431011, 0.7386340275651968, 0.06528587705580724],[0.2600305906060356, 0.6374651521499872, 0.04264282421471528]
0,1,[0.039621731314662616, 0.8872137276983382, -0.07029061448807322],[0.1746652499431011, 0.7386340275651968, 0.06528587705580724],[0.2600305906060356, 0.6374651521499872, 0.04264282421471528]
0,2,[0.039621731314662616, 0.8872137276983382, -0.07029061448807322],[0.1746652499431011, 0.7386340275651968, 0.06528587705580724],[0.2600305906060356, 0.6374651521499872, 0.04264282421471528]
0,3,[0.039621731314662616, 0.8872137276983382, -0.07029061448807322],[0.1746652499431011, 0.7386340275651968, 0.06528587705580724],[0.2600305906060356, 0.6374651521499872, 0.04264282421471528]
0,4,[0.039621731314662616, 0.8872137276983382, -0.07029061448807322],[0.1746652499431011, 0.7386340275651968, 0.06528587705580724],[0.2600305906060356, 0.6374651521499872, 0.04264282421471528]
0,5,[0.039621731314662616, 0.8872137276983382, -0.07029061448807322],[0.1746652499431011, 0.7386340275651968, 0.06528587705580724],[0.2600305906060356, 0.6374651521499872, 0.04264282421471528]
0,6,[0.039621731314662616, 0.8872137276983382, -0.07029061448807322],[0.1746652499431011, 0.7386340275651968, 0.06528587705580724],[0.2600305906060356, 0.6374651521499872, 0.04264282421471528]
0,7,[0.039621731314662616, 0.8872137276983382, -0.07029061448807322],[0.1746652499431011, 0.7386340275651968, 0.06528587705580724],[0.2600305906060356, 0.6374651521499872, 0.04264282421471528]
0,8,[0.039621731314662616, 0.8872137276983382, -0.07029061448807322],[0.1746652499431011, 0.7386340275651968, 0.06528587705580724],[0.2600305906060356, 0.6374651521499872, 0.04264282421471528]
0,9,[0.039621731314662616, 0.8872137276983382, -0.07029061448807322],[0.1746652499431011, 0.7386340275651968, 0.06528587705580724],[0.2600305906060356, 0.6374651521499872, 0.04264282421471528]
0,10,[0.039621731314662616, 0.8872137276983382, -0.07029061448807322],[0.1746652499431011, 0.7386340275651968, 0.06528587705580724],[0.2600305906060356, 0.6374651521499872, 0.04264282421471528]
0,11,[0.039621731314662616, 0.8872137276983382, -0.07029061448807322],[0.1746652499431011, 0.7386340275651968, 0.06528587705580724],[0.2600305906060356, 0.6374651521499872, 0.04264282421471528]
0,12,[0.039621731314662616, 0.8872137276983382, -0.07029061448807322],[0.1746652499431011, 0.7386340275651968, 0.06528587705580724],[0.2600305906060356, 0.6374651521499872, 0.04264282421471528]
0,13,[0.039621731314662616, 0.8872137276983382, -0.07029061448807322],[0.1746652499431011, 0.7386340275651968, 0.06528587705580724],[0.2600305906060356, 0.6374651521499872, 0.04264282421471528]
0,14,[0.039621731314662616, 0.8872137276983382, -0.07029061448807322],[0.1746652499431011, 0.7386340275651968, 0.06528587705580724],[0.2600305906060356, 0.6374651521499872, 0.04264282421471528]
0,15,[0.039621731314662616, 0.8872137276983382, -0.07029061448807322],[0.1746652499431011, 0.7386340275651968, 0.06528587705580724],[0.2600305906060356, 0.6374651521499872, 0.04264282421471528]
0,16,[0.039621731314662616, 0.8872137276983382, -0.07029061448807322],[0.1746652499431011, 0.7386340275651968, 0.06528587705580724],[0.2600305906060356, 0.6374651521499872, 0.04264282421471528]
0,17,[0.039621731314662616, 0.8872137276983382, -0.07029061448807322],[0.1746652499431011, 0.7386340275651968, 0.06528587705580724],[0.2600305906060356, 0.6374651521499872, 0.04264282421471528]
0,18,[0.039621731314662616, 0.8872137276983382, -0.07029061448807322],[0.1746652499431011, 0.7386340275651968, 0.06528587705580724],[0.2600305906060356, 0.6374651521499872, 0.04264282421471528]
0,19,[0.039621731314662616, 0.8872137276983382, -0.07029061448807322],[0.1746652499431011, 0.7386340275651968, 0.06528587705580724],[0.2600305906060356, 0.6374651521499872, 0.04264282421471528]
0,20,[0.039621731314662616, 0.8872137276983382, -0.07029061448807322],[0.1746652499431011, 0.7386340275651968, 0.06528587705580724],[0.2600305906060356, 0.6374651521499872, 0.04264282421471528]
0,21,[0.039621731314662616, 0.8872137276983382, -0.07029061448807322],[0.1746652499431011, 0.7386340275651968, 0.06528587705580724],[0.2600305906060356, 0.6374651521499872, 0.04264282421471528]
0,22,[0.039621731314662616, 0.8872137276983382, -0.07029061448807322],[0.1746652499431011, 0.7386340275651968, 0.06528587705580724],[0.2600305906060356, 0.6374651521499872, 0.04264282421471528]
0,23,[0.039621731314662616, 0.8872137276983382, -0.07029061448807322],[0.1746652499431011, 0.7386340275651968, 0.06528587705580724],[0.2600305906060356, 0.6374651521499872, 0.04264282421471528]
0,24,[0.039621731314662616, 0.8872137276983382, -0.07029061448807322],[0.1746652499431011, 0.7386340275651968, 0.06528587705580724],[0.2600305906060356, 0.6374651521499872, 0.04264282421471528]
0,25,[0.039621731314662616, 0.8872137276983382, -0.07029061448807322],[0.1746652499431011, 0.7386340275651968, 0.06528587705580724],[0.2600305906060356, 0.6374651521499872, 0.04264282421471528]
0,26,[0.039621731314662616, 0.8872137276983382, -0.07029061448807322],[0.1746652499431011, 0.7386340275651968, 0.06528587705580724],[0.2600305906060356, 0.6374651521499872, 0.04264282421471528]
0,27,[0.039621731314662616, 0.8872137276983382, -0.07029061448807322],[0.1746652499431011, 0.7386340275651968, 0.06528587705580724],[0.2600305906060356, 0.6374651521499872, 0.04264282421471528]
0,28,[0.039621731314662616, 0.8872137276983382, -0.07029061448807322],[0.1746652499431011, 0.7386340275651968, 0.06528587705580724],[0.2600305906060356, 0.6374651521499872, 0.04264282421471528]
0,29,[0.039621731314662616, 0.8872137276983382, -0.07029061448807322],[0.1746652499431011, 0.7386340275651968, 0.06528587705580724],[0.2600305906060356, 0.6374651521499872, 0.04264282421471528]
0,30,[0.039621731314662616, 0.8872137276983382, -0.07029061448807322],[0.1746652499431011, 0.7386340275651968, 0.06528587705580724],[0.2600305906060356, 0.6374651521499872, 0.04264282421471528]
0,31,[0.039621731314662616, 0.8872137276983382, -0.07029061448807322],[0.1746652499431011, 0.7386340275651968, 0.06528587705580724],[0.2600305906060356, 0.6374651521499872, 0.04264282421471528]
0,32,[0.039621731314662616, 0.8872137276983382, -0.07029061448807322],[0.1746652499431011, 0.7386340275651968, 0.06528587705580724],[0.2600305906060356, 0.6374651521499872, 0.04264282421471528]
0,33,[0.039621731314662616, 0.8872137276983382, -0.07029061448807322],[0.1746652499431011, 0.7386340275651968, 0.06528587705580724],[0.2600305906060356, 0.6374651521499872, 0.04264282421471528]
0,34,[0.039621731314662616, 0.8872137276983382, -0.07029061448807322],[0.1746652499431011, 0.7386340275651968, 0.06528587705580724],[0.2600305906060356, 0.6374651521499872, 0.04264282421471528]
0,35,[0.039621731314662616, 0.8872137276983382, -0.07029061448807322],[0.1746652499431011, 0.7386340275651968, 0.06528587705580724],[0.2600305906060356, 0.6374651521499872, 0.04264282421471528]
0,36,[0.039621731314662616, 0.8872137276983382, -0.07029061448807322],[0.1746652499431011, 0.7386340275651968, 0.06528587705580724],[0.2600305906060356, 0.6374651521499872, 0.04264282421471528]
0,37,[0.039621731314662616, 0.8872137276983382, -0.07029061448807322],[0.1746652499431011, 0.7386340275651968, 0.06528587705580724],[0.2600305906060356, 0.6374651521499872, 0.04264282421471528]
0,38,[0.039621731314662616, 0.8872137276983382, -0.07029061448807322],[0.1746652499431011, 0.7386340275651968, 0.06528587705580724],[0.2600305906060356, 0.6374651521499872, 0.04264282421471528]
0,39,[0.039621731314662616, 0.8872137276983382, -0.07029061448807322],[0.1746652499431011, 0.7386340275651968, 0.06528587705580724],[0.2600305906060356, 0.6374651521499872, 0.04264282421471528]
0,40,[0.039621731314662616, 0.8872137276983382, -0.07029061448807322],[0.1746652499431011, 0.7386340275651968, 0.06528587705580724],[0.2600305906060356, 0.6374651521499872, 0.04264282421471528]
0,41,[0.039621731314662616, 0.8872137276983382, -0.07029061448807322],[0.1746652499431011, 0.7386340275651968, 0.06528587705580724],[0.2600305906060356, 0.6374651521499872, 0.04264282421471528]
0,42,[0.039621731314662616, 0.8872137276983382, -0.07029061448807322],[0.1746652499431011, 0.7386340275651968, 0.06528587705580724],[0.2600305906060356, 0.6374651521499872, 0.04264282421471528]
0,43,[0.039621731314662616, 0.8872137276983382, -0.07029061448807322],[0.1746652499431011, 0.7386340275651968, 0.06528587705580724],[0.2600305906060356, 0.6374651521499872, 0.04264282421471528]
0,44,[0.039621731314662616, 0.8872137276983382, -0.07029061448807322],[0.1746652499431011, 0.7386340275651968, 0.06528587705580724],[0.2600305906060356, 0.6374651521499872, 0.04264282421471528]
0,45,[0.039621731314662616, 0.8872137276983382, -0.07029061448807322],[0.1746652499431011, 0.7386340275651968, 0.06528587705580724],[0.2600305906060356, 0.6374651521499872, 0.04264282421471528]
0,46,[0.039621731314662616, 0.8872137276983382, -0.07029061448807322],[0.1746652499431011, 0.7386340275651968, 0.06528587705580724],[0.2600305906060356, 0.6374651521499872, 0.04264282421471528]
0,47,[0.039621731314662616, 0.8872137276983382, -0.07029061448807322],[0.1746652499431011, 0.7386340275651968, 0.06528587705580724],[0.2600305906060356, 0.6374651521499872, 0.04264282421471528]
0,48,[0.039621731314662616, 0.8872137276983382, -0.07029061448807322],[0.1746652499431011, 0.7386340275651968, 0.06528587705580724],[0.2600305906060356, 0.6374651521499872, 0.04264282421471528]
0,49,[0.039621731314662616, 0.8872137276983382, -0.07029061448807322],[0.1746652499431011, 0.7386340275651968, 0.06528587705580724],[0.2600305906060356, 0.6374651521499872, 0.04264282421471528]
0,50,[0.039621731314662616, 0.8872137276983382, -0.07029061448807322],[0.1746652499431011, 0.7386340275651968, 0.06528587705580724],[0.2600305906060356, 0.6374651521499872, 0.04264282421471528]
0,51,[0.039621731314662616, 0.8872137276983382, -0.07029061448807322],[0.1746652499431011, 0.7386340275651968, 0.06528587705580724],[0.2600305906060356, 0.6374651521499872, 0.04264282421471528]
0,52,[0.039621731314662616, 0.8872137276983382, -0.07029061448807322],[0.1746652499431011, 0.7386340275651968, 0.06528587705580724],[0.2600305906060356, 0.6374651521499872, 0.04264282421471528]
0,53,[0.039621731314662616, 0.8872137276983382, -0.07029061448807322],[0.1746652499431011, 0.7386340275651968, 0.06528587705580724],[0.2600305906060356, 0.6374651521499872, 0.04264282421471528]
0,54,[0.039621731314662616, 0.8872137276983382, -0.07029061448807322],[0.1746652499431011, 0.7386340275651968, 0.06528587705580724],[0.2600305906060356, 0.6374651521499872, 0.04264282421471528]
0,55,[0.039621731314662616, 0.8872137276983382, -0.07029061448807322],[0.1746652499431011, 0.7386340275651968, 0.06528587705580724],[0.2600305906060356, 0.6374651521499872, 0.04264282421471528]
0,56,[0.039621731314662616, 0.8872137276983382, -0.07029061448807322],[0.1746652499431011, 0.7386340275651968, 0.06528587705580724],[0.2600305906060356, 0.6374651521499872, 0.04264282421471528]
0,57,[0.039621731314662616, 0.8872137276983382, -0.07029061448807322],[0.1746652499431011, 0.7386340275651968, 0.06528587705580724],[0.2600305906060356, 0.6374651521499872, 0.04264282421471528]
0,58,[0.039621731314662616, 0.8872137276983382, -0.07029061448807322],[0.1746652499431011, 0.7386340275651968, 0.06528587705580724],[0.2600305906060356, 0.6374651521499872, 0.04264282421471528]
0,59,[0.039621731314662616, 0.8872137276983382, -0.07029061448807322],[0.1746652499431011, 0.7386340275651968, 0.06528587705580724],[0.2600305906060356, 0.6374651521499872, 0.04264282421471528]
0,60,[0.039621731314662616, 0.8872137276983382, -0.07029061448807322],[0.1746652499431011, 0.7386340275651968, 0.06528587705580724],[0.2600305906060356, 0.6374651521499872, 0.04264282421471528]
0,61,[0.039621731314662616, 0.8872137276983382, -0.07029061448807322],[0.1746652499431011, 0.7386340275651968, 0.06528587705580724],[0.2600305906060356, 0.6374651521499872, 0.04264282421471528]
0,62,[0.039621731314662616, 0.8872137276983382, -0.07029061448807322],[0.1746652499431011, 0.7386340275651968, 0.06528587705580724],[0.2600305906060356, 0.6374651521499872, 0.04264282421471528]
0,63,[0.039621731314662616, 0.8872137276983382, -0.07029061448807322],[0.1746652499431011, 0.7386340275651968, 0.06528587705580724],[0.2600305906060356, 0.6374651521499872, 0.04264282421471528]
0,64,[0.039621731314662616, 0.8872137276983382, -0.07029061448807322],[0.1746652499431011, 0.7386340275651968, 0.06528587705580724],[0.2600305906060356, 0.6374651521499872, 0.04264282421471528]
0,65,[0.039621731314662616, 0.8872137276983382, -0.07029061448807322],[0.1746652499431011, 0.7386340275651968, 0.06528587705580724],[0.2600305906060356, 0.6374651521499872, 0.04264282421471528]
0,66,[0.039621731314662616, 0.8872137276983382, -0.07029061448807322],[0.1746652499431011, 0.7386340275651968, 0.06528587705580724],[0.2600305906060356, 0.6374651521499872, 0.04264282421471528]
0,67,[0.039621731314662616, 0.8872137276983382, -0.07029061448807322],[0.1746652499431011, 0.7386340275651968, 0.06528587705580724],[0.2600305906060356, 0.6374651521499872, 0.04264282421471528]
0,68,[0.039621731314662616, 0.8872137276983382, -0.07029061448807322],[0.1746652499431011, 0.7386340275651968, 0.06528587705580724],[0.2600305906060356, 0.6374651521499872, 0.04264282421471528]
0,69,[0.039621731314662616, 0.8872137276983382, -0.07029061448807322],[0.1746652499431011, 0.7386340275651968, 0.06528587705580724],[0.2600305906060356, 0.6374651521499872, 0.04264282421471528]
0,70,[0.039621731314662616, 0.8872137276983382, -0.07029061448807322],[0.1746652499431011, 0.7386340275651968, 0.06528587705580724],[0.2600305906060356, 0.6374651521499872, 0.04264282421471528]
0,71,[0.039621731314662616, 0.8872137276983382, -0.07029061448807322],[0.1746652499431011, 0.7386340275651968, 0.06528587705580724],[0.2600305906060356, 0.6374651521499872, 0.04264282421471528]
0,72,[0.039621731314662616, 0.8872137276983382, -0.07029061448807322],[0.1746652499431011, 0.7386340275651968, 0.06528587705580724],[0.2600305906060356, 0.6374651521499872, 0.04264282421471528]
0,73,[0.039621731314662616, 0.8872137276983382, -0.07029061448807322],[0.1746652499431011, 0.7386340275651968, 0.06528587705580724],[0.2600305906060356, 0.6374651521499872, 0.04264282421471528]
0,74,[0.039621731314662616, 0.8872137276983382, -0.07029061448807322],[0.1746652499431011, 0.7386340275651968, 0.06528587705580724],[0.2600305906060356, 0.6374651521499872, 0.04264282421471528]
0,75,[0.039621731314662616, 0.8872137276983382, -0.07029061448807322],[0.1746652499431011, 0.7386340275651968, 0.06528587705580724],[0.2600305906060356, 0.6374651521499872, 0.04264282421471528]
0,76,[0.039621731314662616, 0.8872137276983382, -0.07029061448807322],[0.1746652499431011, 0.7386340275651968, 0.06528587705580724],[0.2600305906060356, 0.6374651521499872, 0.04264282421471528]
0,77,[0.039621731314662616, 0.8872137276983382, -0.07029061448807322],[0.1746652499431011, 0.7386340275651968, 0.06528587705580724],[0.2600305906060356, 0.6374651521499872, 0.04264282421471528]
0,78,[0.039621731314662616, 0.8872137276983382, -0.07029061448807322],[0.1746652499431011, 0.7386340275651968, 0.06528587705580724],[0.2600305906060356, 0.6374651521499872, 0.04264282421471528]
0,79,[0.039621731314662616, 0.8872137276983382, -0.07029061448807322],[0.1746652499431011, 0.7386340275651968, 0.06528587705580724],[0.2600305906060356, 0.6374651521499872, 0.04264282421471528]
0,80,[0.039621731314662616, 0.8872137276983382, -0.07029061448807322],[0.1746652499431011, 0.7386340275651968, 0.06528587705580724],[0.2600305906060356, 0.6374651521499872, 0.04264282421471528]
0,81,[0.039621731314662616, 0.8872137276983382, -0.07029061448807322],[0.1746652499431011, 0.7386340275651968, 0.06528587705580724],[0.2600305906060356, 0.6374651521499872, 0.04264282421471528]
0,82,[0.039621731314662616, 0.8872137276983382, -0.07029061448807322],[0.1746652499431011, 0.7386340275651968, 0.06528587705580724],[0.2600305906060356, 0.6374651521499872, 0.04264282421471528]
0,83,[0.039621731314662616, 0.8872137276983382, -0.07029061448807322],[0.1746652499431011, 0.7386340275651968, 0.06528587705580724],[0.2600305906060356, 0.6374651521499872, 0.04264282421471528]
0,84,[0.039621731314662616, 0.8872137276983382, -0.07029061448807322],[0.1746652499431011, 0.7386340275651968, 0.06528587705580724],[0.2600305906060356, 0.6374651521499872, 0.04264282421471528]
0,85,[0.039621731314662616, 0.8872137276983382, -0.07029061448807322],[0.1746652499431011, 0.7386340275651968, 0.06528587705580724],[0.2600305906060356, 0.6374651521499872, 0.04264282421471528]
0,86,[0.039621731314662616, 0.8872137276983382, -0.07029061448807322],[0.1746652499431011, 0.7386340275651968, 0.06528587705580724],[0.2600305906060356, 0.6374651521499872, 0.04264282421471528]
0,87,[0.039621731314662616, 0.8872137276983382, -0.07029061448807322],[0.1746652499431011, 0.7386340275651968, 0.06528587705580724],[0.2600305906060356, 0.6374651521499872, 0.04264282421471528]
0,88,[0.039621731314662616, 0.8872137276983382, -0.07029061448807322],[0.1746652499431011, 0.7386340275651968, 0.06528587705580724],[0.2600305906060356, 0.6374651521499872, 0.04264282421471528]
0,89,[0.039621731314662616, 0.8872137276983382, -0.07029061448807322],[0.1746652499431011, 0.7386340275651968, 0.06528587705580724],[0.2600305906060356, 0.6374651521499872, 0.04264282421471528]
0,90,[0.039621731314662616, 0.8872137276983382, -0.07029061448807322],[0.1746652499431011, 0.7386340275651968, 0.06528587705580724],[0.2600305906060356, 0.6374651521499872, 0.04264282421471528]
0,91,[0.039621731314662616, 0.8872137276983382, -0.07029061448807322],[0.1746652499431011, 0.7386340275651968, 0.06528587705580724],[0.2600305906060356, 0.6374651521499872, 0.04264282421471528]
0,92,[0.039621731314662616, 0.8872137276983382, -0.07029061448807322],[0.1746652499431011, 0.7386340275651968, 0.06528587705580724],[0.2600305906060356, 0.6374651521499872, 0.04264282421471528]
0,93,[0.039621731314662616, 0.8872137276983382, -0.07029061448807322],[0.1746652499431011, 0.7386340275651968, 0.06528587705580724],[0.2600305906060356, 0.6374651521499872, 0.04264282421471528]
0,94,[0.039621731314662616, 0.8872137276983382, -0.07029061448807322],[0.1746652499431011, 0.7386340275651968, 0.06528587705580724],[0.2600305906060356, 0.6374651521499872, 0.04264282421471528]
0,95,[0.039621731314662616, 0.8872137276983382, -0.07029061448807322],[0.1746652499431011, 0.7386340275651968, 0.06528587705580724],[0.2600305906060356, 0.6374651521499872, 0.04264282421471528]
0,96,[0.039621731314662616, 0.8872137276983382, -0.07029061448807322],[0.1746652499431011, 0.7386340275651968, 0.06528587705580724],[0.2600305906060356, 0.6374651521499872, 0.04264282421471528]
0,97,[0.039621731314662616, 0.8872137276983382, -0.07029061448807322],[0.1746652499431011, 0.7386340275651968, 0.06528587705580724],[0.2600305906060356, 0.6374651521499872, 0.04264282421471528]
0,98,[0.039621731314662616, 0.8872137276983382, -0.07029061448807322],[0.1746652499431011, 0.7386340275651968, 0.06528587705580724],[0.2600305906060356, 0.6374651521499872, 0.04264282421471528]
0,99,[0.039621731314662616, 0.8872137276983382, -0.07029061448807322],[0.1746652499431011, 0.7386340275651968, 0.06528587705580724],[0.2600305906060356, 0.6374651521499872, 0.04264282421471528]
1,0,[-0.03501327992241092, 0.8433231624736659, -0.29184597778587695],[0.08573351399077091, 0.8059705240855602, -0.058238699121953064],[0.18147083525696703, 0.6598806032282237, 0.04742997436205735]
1,1,[-0.03501327992241092, 0.8433231624736659, -0.29184597778587695],[0.08573351399077091, 0.8059705240855602, -0.058238699121953064],[0.18147083525696703, 0.6598806032282237, 0.04742997436205735]
1,2,[-0.03501327992241092, 0.8433231624736659, -0.29184597778587695],[0.08573351399077091, 0.8059705240855602, -0.058238699121953064],[0.18147083525696703, 0.6598806032282237, 0.04742997436205735]
1,3,[-0.03501327992241092, 0.8433231624736659, -0.29184597778587695],[0.08573351399077091, 0.8059705240855602, -0.058238699121953064],[0.18147083525696703, 0.6598806032282237, 0.04742997436205735]
1,4,[-0.03501327992241092, 0.8433231624736659, -0.29184597778587695],[0.08573351399077091, 0.8059705240855602, -0.058238699121953064],[0.18147083525696703, 0.6598806032282237, 0.04742997436205735]
1,5,[-0.03501327992241092, 0.8433231624736659, -0.29184597778587695],[0.08573351399077091, 0.8059705240855602, -0.058238699121953064],[0.18147083525696703, 0.6598806032282237, 0.04742997436205735]
1,6,[-0.03501327992241092, 0.8433231624736659, -0.29184597778587695],[0.08573351399077091, 0.8059705240855602, -0.058238699121953064],[0.18147083525696703, 0.6598806032282237, 0.04742997436205735]
1,7,[-0.03501327992241092, 0.8433231624736659, -0.29184597778587695],[0.08573351399077091, 0.8059705240855602, -0.058238699121953064],[0.18147083525696703, 0.6598806032282237, 0.04742997436205735]
1,8,[-0.03501327992241092, 0.8433231624736659, -0.29184597778587695],[0.08573351399077091, 0.8059705240855602, -0.058238699121953064],[0.18147083525696703, 0.6598806032282237, 0.04742997436205735]
1,9,[-0.03501327992241092, 0.8433231624736659, -0.29184597778587695],[0.08573351399077091, 0.8059705240855602, -0.058238699121953064],[0.18147083525696703, 0.6598806032282237, 0.04742997436205735]
1,10,[-0.03501327992241092, 0.8433231624736659, -0.29184597778587695],[0.08573351399077091, 0.8059705240855602, -0.058238699121953064],[0.18147083525696703, 0.6598806032282237, 0.04742997436205735]
1,11,[-0.03501327992241092, 0.8433231624736659, -0.29184597778587695],[0.08573351399077091, 0.8059705240855602, -0.058238699121953064],[0.18147083525696703, 0.6598806032282237, 0.04742997436205735]
1,12,[-0.03501327992241092, 0.8433231624736659, -0.29184597778587695],[0.08573351399077091, 0.8059705240855602, -0.058238699121953064],[0.18147083525696703, 0.6598806032282237, 0.04742997436205735]
1,13,[-0.03501327992241092, 0.8433231624736659, -0.29184597778587695],[0.08573351399077091, 0.8059705240855602, -0.058238699121953064],[0.18147083525696703, 0.6598806032282237, 0.04742997436205735]
1,14,[-0.03501327992241092, 0.8433231624736659, -0.29184597778587695],[0.08573351399077091, 0.8059705240855602, -0.058238699121953064],[0.18147083525696703, 0.6598806032282237, 0.04742997436205735]
1,15,[-0.03501327992241092, 0.8433231624736659, -0.29184597778587695],[0.08573351399077091, 0.8059705240855602, -0.058238699121953064],[0.18147083525696703, 0.6598806032282237, 0.04742997436205735]
1,16,[-0.03501327992241092, 0.8433231624736659, -0.29184597778587695],[0.08573351399077091, 0.8059705240855602, -0.058238699121953064],[0.18147083525696703, 0.6598806032282237, 0.04742997436205735]
1,17,[-0.03501327992241092, 0.8433231624736659, -0.29184597778587695],[0.08573351399077091, 0.8059705240855602, -0.058238699121953064],[0.18147083525696703, 0.6598806032282237, 0.04742997436205735]
1,18,[-0.03501327992241092, 0.8433231624736659, -0.29184597778587695],[0.08573351399077091, 0.8059705240855602, -0.058238699121953064],[0.18147083525696703, 0.6598806032282237, 0.04742997436205735]
1,19,[-0.03501327992241092, 0.8433231624736659, -0.29184597778587695],[0.08573351399077091, 0.8059705240855602, -0.058238699121953064],[0.18147083525696703, 0.6598806032282237, 0.04742997436205735]
1,20,[-0.03501327992241092, 0.8433231624736659, -0.29184597778587695],[0.08573351399077091, 0.8059705240855602, -0.058238699121953064],[0.18147083525696703, 0.6598806032282237, 0.04742997436205735]
1,21,[-0.03501327992241092, 0.8433231624736659, -0.29184597778587695],[0.08573351399077091, 0.8059705240855602, -0.058238699121953064],[0.18147083525696703, 0.6598806032282237, 0.04742997436205735]
1,22,[-0.03501327992241092, 0.8433231624736659, -0.29184597778587695],[0.08573351399077091, 0.8059705240855602, -0.058238699121953064],[0.18147083525696703, 0.6598806032282237, 0.04742997436205735]
1,23,[-0.03501327992241092, 0.8433231624736659, -0.29184597778587695],[0.08573351399077091, 0.8059705240855602, -0.058238699121953064],[0.18147083525696703, 0.6598806032282237, 0.04742997436205735]
1,24,[-0.03501327992241092, 0.8433231624736659, -0.29184597778587695],[0.08573351399077091, 0.8059705240855602, -0.058238699121953064],[0.18147083525696703, 0.6598806032282237, 0.04742997436205735]
1,25,[-0.03501327992241092, 0.8433231624736659, -0.29184597778587695],[0.08573351399077091, 0.8059705240855602, -0.058238699121953064],[0.18147083525696703, 0.6598806032282237, 0.04742997436205735]
1,26,[-0.03501327992241092, 0.8433231624736659, -0.29184597778587695],[0.08573351399077091, 0.8059705240855602, -0.058238699121953064],[0.18147083525696703, 0.6598806032282237, 0.04742997436205735]
1,27,[-0.03501327992241092, 0.8433231624736659, -0.29184597778587695],[0.08573351399077091, 0.8059705240855602, -0.058238699121953064],[0.18147083525696703, 0.6598806032282237, 0.04742997436205735]
1,28,[-0.03501327992241092, 0.8433231624736659, -0.29184597778587695],[0.08573351399077091, 0.8059705240855602, -0.058238699121953064],[0.18147083525696703, 0.6598806032282237, 0.04742997436205735]
1,29,[-0.03501327992241092, 0.8433231624736659, -0.29184597778587695],[0.08573351399077091, 0.8059705240855602, -0.058238699121953064],[0.18147083525696703, 0.6598806032282237, 0.04742997436205735]
1,30,[-0.03501327992241092, 0.8433231624736659, -0.29184597778587695],[0.08573351399077091, 0.8059705240855602, -0.058238699121953064],[0.18147083525696703, 0.6598806032282237, 0.04742997436205735]
1,31,[-0.03501327992241092, 0.8433231624736659, -0.29184597778587695],[0.08573351399077091, 0.8059705240855602, -0.058238699121953064],[0.18147083525696703, 0.6598806032282237, 0.04742997436205735]
1,32,[-0.03501327992241092, 0.8433231624736659, -0.29184597778587695],[0.08573351399077091, 0.8059705240855602, -0.058238699121953064],[0.18147083525696703, 0.6598806032282237, 0.04742997436205735]
1,33,[-0.03501327992241092, 0.8433231624736659, -0.29184597778587695],[0.08573351399077091, 0.8059705240855602, -0.058238699121953064],[0.18147083525696703, 0.6598806032282237, 0.04742997436205735]
1,34,[-0.03501327992241092, 0.8433231624736659, -0.29184597778587695],[0.08573351399077091, 0.8059705240855602, -0.058238699121953064],[0.18147083525696703, 0.6598806032282237, 0.04742997436205735]
1,35,[-0.03501327992241092, 0.8433231624736659, -0.29184597778587695],[0.08573351399077091, 0.8059705240855602, -0.058238699121953064],[0.18147083525696703, 0.6598806032282237, 0.04742997436205735]
1,36,[-0.03501327992241092, 0.8433231624736659, -0.29184597778587695],[0.08573351399077091, 0.8059705240855602, -0.058238699121953064],[0.18147083525696703, 0.6598806032282237, 0.04742997436205735]
1,37,[-0.03501327992241092, 0.8433231624736659, -0.29184597778587695],[0.08573351399077091, 0.8059705240855602, -0.058238699121953064],[0.18147083525696703, 0.6598806032282237, 0.04742997436205735]
1,38,[-0.03501327992241092, 0.8433231624736659, -0.29184597778587695],[0.08573351399077091, 0.8059705240855602, -0.058238699121953064],[0.18147083525696703, 0.6598806032282237, 0.04742997436205735]
1,39,[-0.03501327992241092, 0.8433231624736659, -0.29184597778587695],[0.08573351399077091, 0.8059705240855602, -0.058238699121953064],[0.18147083525696703, 0.6598806032282237, 0.04742997436205735]
1,40,[-0.03501327992241092, 0.8433231624736659, -0.29184597778587695],[0.08573351399077091, 0.8059705240855602, -0.058238699121953064],[0.18147083525696703, 0.6598806032282237, 0.04742997436205735]
1,41,[-0.03501327992241092, 0.8433231624736659, -0.29184597778587695],[0.08573351399077091, 0.8059705240855602, -0.058238699121953064],[0.18147083525696703, 0.6598806032282237, 0.04742997436205735]
1,42,[-0.03501327992241092, 0.8433231624736659, -0.29184597778587695],[0.08573351399077091, 0.8059705240855602, -0.058238699121953064],[0.18147083525696703, 0.6598806032282237, 0.04742997436205735]
1,43,[-0.03501327992241092, 0.8433231624736659, -0.29184597778587695],[0.08573351399077091, 0.8059705240855602, -0.058238699121953064],[0.18147083525696703, 0.6598806032282237, 0.04742997436205735]
1,44,[-0.03501327992241092, 0.8433231624736659, -0.29184597778587695],[0.08573351399077091, 0.8059705240855602, -0.058238699121953064],[0.18147083525696703, 0.6598806032282237, 0.04742997436205735]
1,45,[-0.03501327992241092, 0.8433231624736659, -0.29184597778587695],[0.08573351399077091, 0.8059705240855602, -0.058238699121953064],[0.18147083525696703, 0.6598806032282237, 0.04742997436205735]
1,46,[-0.03501327992241092, 0.8433231624736659, -0.29184597778587695],[0.08573351399077091, 0.8059705240855602, -0.058238699121953064],[0.18147083525696703, 0.6598806032282237, 0.04742997436205735]
1,47,[-0.03501327992241092, 0.8433231624736659, -0.29184597778587695],[0.08573351399077091, 0.8059705240855602, -0.058238699121953064],[0.18147083525696703, 0.6598806032282237, 0.04742997436205735]
1,48,[-0.03501327992241092, 0.8433231624736659, -0.29184597778587695],[0.08573351399077091, 0.8059705240855602, -0.058238699121953064],[0.18147083525696703, 0.6598806032282237, 0.04742997436205735]
1,49,[-0.03501327992241092, 0.8433231624736659, -0.29184597778587695],[0.08573351399077091, 0.8059705240855602, -0.058238699121953064],[0.18147083525696703, 0.6598806032282237, 0.04742997436205735]
1,50,[-0.03501327992241092, 0.8433231624736659, -0.29184597778587695],[0.08573351399077091, 0.8059705240855602, -0.058238699121953064],[0.18147083525696703, 0.6598806032282237, 0.04742997436205735]
1,51,[-0.03501327992241092, 0.8433231624736659, -0.29184597778587695],[0.08573351399077091, 0.8059705240855602, -0.058238699121953064],[0.18147083525696703, 0.6598806032282237, 0.04742997436205735]
1,52,[-0.03501327992241092, 0.8433231624736659, -0.29184597778587695],[0.08573351399077091, 0.8059705240855602, -0.058238699121953064],[0.18147083525696703, 0.6598806032282237, 0.04742997436205735]
1,53,[-0.03501327992241092, 0.8433231624736659, -0.29184597778587695],[0.08573351399077091, 0.8059705240855602, -0.058238699121953064],[0.18147083525696703, 0.6598806032282237, 0.04742997436205735]
1,54,[-0.03501327992241092, 0.8433231624736659, -0.29184597778587695],[0.08573351399077091, 0.8059705240855602, -0.058238699121953064],[0.18147083525696703, 0.6598806032282237, 0.04742997436205735]
1,55,[-0.03501327992241092, 0.8433231624736659, -0.29184597778587695],[0.08573351399077091, 0.8059705240855602, -0.058238699121953064],[0.18147083525696703, 0.6598806032282237, 0.04742997436205735]
1,56,[-0.03501327992241092, 0.8433231624736659, -0.29184597778587695],[0.08573351399077091, 0.8059705240855602, -0.058238699121953064],[0.18147083525696703, 0.6598806032282237, 0.04742997436205735]
1,57,[-0.03501327992241092, 0.8433231624736659, -0.29184597778587695],[0.08573351399077091, 0.8059705240855602, -0.058238699121953064],[0.18147083525696703, 0.6598806032282237, 0.04742997436205735]
1,58,[-0.03501327992241092, 0.8433231624736659, -0.29184597778587695],[0.08573351399077091, 0.8059705240855602, -0.058238699121953064],[0.18147083525696703, 0.6598806032282237, 0.04742997436205735]
1,59,[-0.03501327992241092, 0.8433231624736659, -0.29184597778587695],[0.08573351399077091, 0.8059705240855602, -0.058238699121953064],[0.18147083525696703, 0.6598806032282237, 0.04742997436205735]
1,60,[-0.03501327992241092, 0.8433231624736659, -0.29184597778587695],[0.08573351399077091, 0.8059705240855602, -0.058238699121953064],[0.18147083525696703, 0.6598806032282237, 0.04742997436205735]
1,61,[-0.03501327992241092, 0.8433231624736659, -0.29184597778587695],[0.08573351399077091, 0.8059705240855602, -0.058238699121953064],[0.18147083525696703, 0.6598806032282237, 0.04742997436205735]
1,62,[-0.03501327992241092, 0.8433231624736659, -0.29184597778587695],[0.08573351399077091, 0.8059705240855602, -0.058238699121953064],[0.18147083525696703, 0.6598806032282237, 0.04742997436205735]
1,63,[-0.03501327992241092, 0.8433231624736659, -0.29184597778587695],[0.08573351399077091, 0.8059705240855602, -0.058238699121953064],[0.18147083525696703, 0.6598806032282237, 0.04742997436205735]
1,64,[-0.03501327992241092, 0.8433231624736659, -0.29184597778587695],[0.08573351399077091, 0.8059705240855602, -0.058238699121953064],[0.18147083525696703, 0.6598806032282237, 0.04742997436205735]
1,65,[-0.03501327992241092, 0.8433231624736659, -0.29184597778587695],[0.08573351399077091, 0.8059705240855602, -0.058238699121953064],[0.18147083525696703, 0.6598806032282237, 0.04742997436205735]
1,66,[-0.03501327992241092, 0.8433231624736659, -0.29184597778587695],[0.08573351399077091, 0.8059705240855602, -0.058238699121953064],[0.18147083525696703, 0.6598806032282237, 0.04742997436205735]
1,67,[-0.03501327992241092, 0.8433231624736659, -0.29184597778587695],[0.08573351399077091, 0.8059705240855602, -0.058238699121953064],[0.18147083525696703, 0.6598806032282237, 0.04742997436205735]
1,68,[-0.03501327992241092, 0.8433231624736659, -0.29184597778587695],[0.08573351399077091, 0.8059705240855602, -0.058238699121953064],[0.18147083525696703, 0.6598806032282237, 0.04742997436205735]
1,69,[-0.03501327992241092, 0.8433231624736659, -0.29184597778587695],[0.08573351399077091, 0.8059705240855602, -0.058238699121953064],[0.18147083525696703, 0.6598806032282237, 0.04742997436205735]
1,70,[-0.03501327992241092, 0.8433231624736659, -0.29184597778587695],[0.08573351399077091, 0.8059705240855602, -0.058238699121953064],[0.18147083525696703, 0.6598806032282237, 0.04742997436205735]
1,71,[-0.03501327992241092, 0.8433231624736659, -0.29184597778587695],[0.08573351399077091, 0.8059705240855602, -0.058238699121953064],[0.18147083525696703, 0.6598806032282237, 0.04742997436205735]
1,72,[-0.03501327992241092, 0.8433231624736659, -0.29184597778587695],[0.08573351399077091, 0.8059705240855602, -0.058238699121953064],[0.18147083525696703, 0.6598806032282237, 0.04742997436205735]
1,73,[-0.03501327992241092, 0.8433231624736659, -0.29184597778587695],[0.08573351399077091, 0.8059705240855602, -0.058238699121953064],[0.18147083525696703, 0.6598806032282237, 0.04742997436205735]
1,74,[-0.03501327992241092, 0.8433231624736659, -0.29184597778587695],[0.08573351399077091, 0.8059705240855602, -0.058238699121953064],[0.18147083525696703, 0.6598806032282237, 0.04742997436205735]
1,75,[-0.03501327992241092, 0.8433231624736659, -0.29184597778587695],[0.08573351399077091, 0.8059705240855602, -0.058238699121953064],[0.18147083525696703, 0.6598806032282237, 0.04742997436205735]
1,76,[-0.03501327992241092, 0.8433231624736659, -0.29184597778587695],[0.08573351399077091, 0.8059705240855602, -0.058238699121953064],[0.18147083525696703, 0.6598806032282237, 0.04742997436205735]
1,77,[-0.03501327992241092, 0.8433231624736659, -0.29184597778587695],[0.08573351399077091, 0.8059705240855602, -0.058238699121953064],[0.18147083525696703, 0.6598806032282237, 0.04742997436205735]
1,78,[-0.03501327992241092, 0.8433231624736659, -0.29184597778587695],[0.08573351399077091, 0.8059705240855602, -0.058238699121953064],[0.18147083525696703, 0.6598806032282237, 0.04742997436205735]
1,79,[-0.03501327992241092, 0.8433231624736659, -0.29184597778587695],[0.08573351399077091, 0.8059705240855602, -0.058238699121953064],[0.18147083525696703, 0.6598806032282237, 0.04742997436205735]
1,80,[-0.03501327992241092, 0.8433231624736659, -0.29184597778587695],[0.08573351399077091, 0.8059705240855602, -0.058238699121953064],[0.18147083525696703, 0.6598806032282237, 0.04742997436205735]
1,81,[-0.03501327992241092, 0.8433231624736659, -0.29184597778587695],[0.08573351399077091, 0.8059705240855602, -0.058238699121953064],[0.18147083525696703, 0.6598806032282237, 0.04742997436205735]
1,82,[-0.03501327992241092, 0.8433231624736659, -0.29184597778587695],[0.08573351399077091, 0.8059705240855602, -0.058238699121953064],[0.18147083525696703, 0.6598806032282237, 0.04742997436205735]
1,83,[-0.03501327992241092, 0.8433231624736659, -0.29184597778587695],[0.08573351399077091, 0.8059705240855602, -0.058238699121953064],[0.18147083525696703, 0.6598806032282237, 0.04742997436205735]
1,84,[-0.03501327992241092, 0.8433231624736659, -0.29184597778587695],[0.08573351399077091, 0.8059705240855602, -0.058238699121953064],[0.18147083525696703, 0.6598806032282237, 0.04742997436205735]
1,85,[-0.03501327992241092, 0.8433231624736659, -0.29184597778587695],[0.08573351399077091, 0.8059705240855602, -0.058238699121953064],[0.18147083525696703, 0.6598806032282237, 0.04742997436205735]
1,86,[-0.03501327992241092, 0.8433231624736659, -0.29184597778587695],[0.08573351399077091, 0.8059705240855602, -0.058238699121953064],[0.18147083525696703, 0.6598806032282237, 0.04742997436205735]
1,87,[-0.03501327992241092, 0.8433231624736659, -0.29184597778587695],[0.08573351399077091, 0.8059705240855602, -0.058238699121953064],[0.18147083525696703, 0.6598806032282237, 0.04742997436205735]
1,88,[-0.03501327992241092, 0.8433231624736659, -0.29184597778587695],[0.08573351399077091, 0.8059705240855602, -0.058238699121953064],[0.18147083525696703, 0.6598806032282237, 0.04742997436205735]
1,89,[-0.03501327992241092, 0.8433231624736659, -0.29184597778587695],[0.08573351399077091, 0.8059705240855602, -0.058238699121953064],[0.18147083525696703, 0.6598806032282237, 0.04742997436205735]
1,90,[-0.03501327992241092, 0.8433231624736659, -0.29184597778587695],[0.08573351399077091, 0.8059705240855602, -0.058238699121953064],[0.18147083525696703, 0.6598806032282237, 0.04742997436205735]
1,91,[-0.03501327992241092, 0.8433231624736659, -0.29184597778587695],[0.08573351399077091, 0.8059705240855602, -0.058238699121953064],[0.18147083525696703, 0.6598806032282237, 0.04742997436205735]
1,92,[-0.03501327992241092, 0.8433231624736659, -0.29184597778587695],[0.08573351399077091, 0.8059705240855602, -0.058238699121953064],[0.18147083525696703, 0.6598806032282237, 0.04742997436205735]
1,93,[-0.03501327992241092, 0.8433231624736659, -0.29184597778587695],[0.08573351399077091, 0.8059705240855602, -0.058238699121953064],[0.18147083525696703, 0.6598806032282237, 0.04742997436205735]
1,94,[-0.03501327992241092, 0.8433231624736659, -0.29184597778587695],[0.08573351399077091, 0.8059705240855602, -0.058238699121953064],[0.18147083525696703, 0.6598806032282237, 0.04742997436205735]
1,95,[-0.03501327992241092, 0.8433231624736659, -0.29184597778587695],[0.08573351399077091, 0.8059705240855602, -0.058238699121953064],[0.18147083525696703, 0.6598806032282237, 0.04742997436205735]
1,96,[-0.03501327992241092, 0.8433231624736659, -0.29184597778587695],[0.08573351399077091, 0.8059705240855602, -0.058238699121953064],[0.18147083525696703, 0.6598806032282237, 0.04742997436205735]
1,97,[-0.03501327992241092, 0.8433231624736659, -0.29184597778587695],[0.08573351399077091, 0.8059705240855602, -0.058238699121953064],[0.18147083525696703, 0.6598806032282237, 0.04742997436205735]
1,98,[-0.03501327992241092, 0.8433231624736659, -0.29184597778587695],[0.08573351399077091, 0.8059705240855602, -0.058238699121953064],[0.18147083525696703, 0.6598806032282237, 0.04742997436205735]
1,99,[-0.03501327992241092, 0.8433231624736659, -0.29184597778587695],[0.08573351399077091, 0.8059705240855602, -0.058238699121953064],[0.18147083525696703, 0.6598806032282237, 0.04742997436205735]
2,0,[-0.06103348169048611, 0.9541623076083371, -0.16445793293820224],[0.058438955879146784, 0.9088683970081296, 0.0910134763480887],[0.16512339565962927, 0.6974785965124756, 0.1018118603559649]
2,1,[-0.06103348169048611, 0.9541623076083371, -0.16445793293820224],[0.058438955879146784, 0.9088683970081296, 0.0910134763480887],[0.16512339565962927, 0.6974785965124756, 0.1018118603559649]
2,2,[-0.06103348169048611, 0.9541623076083371, -0.16445793293820224],[0.058438955879146784, 0.9088683970081296, 0.0910134763480887],[0.16512339565962927, 0.6974785965124756, 0.1018118603559649]
2,3,[-0.06103348169048611, 0.9541623076083371, -0.16445793293820224],[0.058438955879146784, 0.9088683970081296, 0.0910134763480887],[0.16512339565962927, 0.6974785965124756, 0.1018118603559649]
2,4,[-0.06103348169048611, 0.9541623076083371, -0.16445793293820224],[0.058438955879146784, 0.9088683970081296, 0.0910134763480887],[0.16512339565962927, 0.6974785965124756, 0.1018118603559649]
2,5,[-0.06103348169048611, 0.9541623076083371, -0.16445793293820224],[0.058438955879146784, 0.9088683970081296, 0.0910134763480887],[0.16512339565962927, 0.6974785965124756, 0.1018118603559649]
2,6,[-0.06103348169048611, 0.9541623076083371, -0.16445793293820224],[0.058438955879146784, 0.9088683970081296, 0.0910134763480887],[0.16512339565962927, 0.6974785965124756, 0.1018118603559649]
2,7,[-0.06103348169048611, 0.9541623076083371, -0.16445793293820224],[0.058438955879146784, 0.9088683970081296, 0.0910134763480887],[0.16512339565962927, 0.6974785965124756, 0.1018118603559649]
2,8,[-0.06103348169048611, 0.9541623076083371, -0.16445793293820224],[0.058438955879146784, 0.9088683970081296, 0.0910134763480887],[0.16512339565962927, 0.6974785965124756, 0.1018118603559649]
2,9,[-0.06103348169048611, 0.9541623076083371, -0.16445793293820224],[0.058438955879146784, 0.9088683970081296, 0.0910134763480887],[0.16512339565962927, 0.6974785965124756, 0.1018118603559649]
2,10,[-0.06103348169048611, 0.9541623076083371, -0.16445793293820224],[0.058438955879146784, 0.9088683970081296, 0.0910134763480887],[0.16512339565962927, 0.6974785965124756, 0.1018118603559649]
2,11,[-0.06103348169048611, 0.9541623076083371, -0.16445793293820224],[0.058438955879146784, 0.9088683970081296, 0.0910134763480887],[0.16512339565962927, 0.6974785965124756, 0.1018118603559649]
2,12,[-0.06103348169048611, 0.9541623076083371, -0.16445793293820224],[0.058438955879146784, 0.9088683970081296, 0.0910134763480887],[0.16512339565962927, 0.6974785965124756, 0.1018118603559649]
2,13,[-0.06103348169048611, 0.9541623076083371, -0.16445793293820224],[0.058438955879146784, 0.9088683970081296, 0.0910134763480887],[0.16512339565962927, 0.6974785965124756, 0.1018118603559649]
2,14,[-0.06103348169048611, 0.9541623076083371, -0.16445793293820224],[0.058438955879146784, 0.9088683970081296, 0.0910134763480887],[0.16512339565962927, 0.6974785965124756, 0.1018118603559649]
2,15,[-0.06103348169048611, 0.9541623076083371, -0.16445793293820224],[0.058438955879146784, 0.9088683970081296, 0.0910134763480887],[0.16512339565962927, 0.6974785965124756, 0.1018118603559649]
2,16,[-0.06103348169048611, 0.9541623076083371, -0.16445793293820224],[0.058438955879146784, 0.9088683970081296, 0.0910134763480887],[0.16512339565962927, 0.6974785965124756, 0.1018118603559649]
2,17,[-0.06103348169048611, 0.9541623076083371, -0.16445793293820224],[0.058438955879146784, 0.9088683970081296, 0.0910134763480887],[0.16512339565962927, 0.6974785965124756, 0.1018118603559649]
2,18,[-0.06103348169048611, 0.9541623076083371, -0.16445793293820224],[0.058438955879146784, 0.9088683970081296, 0.0910134763480887],[0.16512339565962927, 0.6974785965124756, 0.1018118603559649]
2,19,[-0.06103348169048611, 0.9541623076083371, -0.16445793293820224],[0.058438955879146784, 0.9088683970081296, 0.0910134763480887],[0.16512339565962927, 0.6974785965124756, 0.1018118603559649]
2,20,[-0.06103348169048611, 0.9541623076083371, -0.16445793293820224],[0.058438955879146784, 0.9088683970081296, 0.0910134763480887],[0.16512339565962927, 0.6974785965124756, 0.1018118603559649]
2,21,[-0.06103348169048611, 0.9541623076083371, -0.16445793293820224],[0.058438955879146784, 0.9088683970081296, 0.0910134763480887],[0.16512339565962927, 0.6974785965124756, 0.1018118603559649]
2,22,[-0.06103348169048611, 0.9541623076083371, -0.16445793293820224],[0.058438955879146784, 0.9088683970081296, 0.0910134763480887],[0.16512339565962927, 0.6974785965124756, 0.1018118603559649]
2,23,[-0.06103348169048611, 0.9541623076083371, -0.16445793293820224],[0.058438955879146784, 0.9088683970081296, 0.0910134763480887],[0.16512339565962927, 0.6974785965124756, 0.1018118603559649]
2,24,[-0.06103348169048611, 0.9541623076083371, -0.16445793293820224],[0.058438955879146784, 0.9088683970081296, 0.0910134763480887],[0.16512339565962927, 0.6974785965124756, 0.1018118603559649]
2,25,[-0.06103348169048611, 0.9541623076083371, -0.16445793293820224],[0.058438955879146784, 0.9088683970081296, 0.0910134763480887],[0.16512339565962927, 0.6974785965124756, 0.1018118603559649]
2,26,[-0.06103348169048611, 0.9541623076083371, -0.16445793293820224],[0.058438955879146784, 0.9088683970081296, 0.0910134763480887],[0.16512339565962927, 0.6974785965124756, 0.1018118603559649]
2,27,[-0.06103348169048611, 0.9541623076083371, -0.16445793293820224],[0.058438955879146784, 0.9088683970081296, 0.0910134763480887],[0.16512339565962927, 0.6974785965124756, 0.1018118603559649]
2,28,[-0.06103348169048611, 0.9541623076083371, -0.16445793293820224],[0.058438955879146784, 0.9088683970081296, 0.0910134763480887],[0.16512339565962927, 0.6974785965124756, 0.1018118603559649]
2,29,[-0.06103348169048611, 0.9541623076083371, -0.16445793293820224],[0.058438955879146784, 0.9088683970081296, 0.0910134763480887],[0.16512339565962927, 0.6974785965124756, 0.1018118603559649]
2,30,[-0.06103348169048611, 0.9541623076083371, -0.16445793293820224],[0.058438955879146784, 0.9088683970081296, 0.0910134763480887],[0.16512339565962927, 0.6974785965124756, 0.1018118603559649]
2,31,[-0.06103348169048611, 0.9541623076083371, -0.16445793293820224],[0.058438955879146784, 0.9088683970081296, 0.0910134763480887],[0.16512339565962927, 0.6974785965124756, 0.1018118603559649]
2,32,[-0.06103348169048611, 0.9541623076083371, -0.16445793293820224],[0.058438955879146784, 0.9088683970081296, 0.0910134763480887],[0.16512339565962927, 0.6974785965124756, 0.1018118603559649]
2,33,[-0.06103348169048611, 0.9541623076083371, -0.16445793293820224],[0.058438955879146784, 0.9088683970081296, 0.0910134763480887],[0.16512339565962927, 0.6974785965124756, 0.1018118603559649]
2,34,[-0.06103348169048611, 0.9541623076083371, -0.16445793293820224],[0.058438955879146784, 0.9088683970081296, 0.0910134763480887],[0.16512339565962927, 0.6974785965124756, 0.1018118603559649]
2,35,[-0.06103348169048611, 0.9541623076083371, -0.16445793293820224],[0.058438955879146784, 0.9088683970081296, 0.0910134763480887],[0.16512339565962927, 0.6974785965124756, 0.1018118603559649]
2,36,[-0.06103348169048611, 0.9541623076083371, -0.16445793293820224],[0.058438955879146784, 0.9088683970081296, 0.0910134763480887],[0.16512339565962927, 0.6974785965124756, 0.1018118603559649]
2,37,[-0.06103348169048611, 0.9541623076083371, -0.16445793293820224],[0.058438955879146784, 0.9088683970081296, 0.0910134763480887],[0.16512339565962927, 0.6974785965124756, 0.1018118603559649]
2,38,[-0.06103348169048611, 0.9541623076083371, -0.16445793293820224],[0.058438955879146784, 0.9088683970081296, 0.0910134763480887],[0.16512339565962927, 0.6974785965124756, 0.1018118603559649]
2,39,[-0.06103348169048611, 0.9541623076083371, -0.16445793293820224],[0.058438955879146784, 0.9088683970081296, 0.0910134763480887],[0.16512339565962927, 0.6974785965124756, 0.1018118603559649]
2,40,[-0.06103348169048611, 0.9541623076083371, -0.16445793293820224],[0.058438955879146784, 0.9088683970081296, 0.0910134763480887],[0.16512339565962927, 0.6974785965124756, 0.1018118603559649]
2,41,[-0.06103348169048611, 0.9541623076083371, -0.16445793293820224],[0.058438955879146784, 0.9088683970081296, 0.0910134763480887],[0.16512339565962927, 0.6974785965124756, 0.1018118603559649]
2,42,[-0.06103348169048611, 0.9541623076083371, -0.16445793293820224],[0.058438955879146784, 0.9088683970081296, 0.0910134763480887],[0.16512339565962927, 0.6974785965124756, 0.1018118603559649]
2,43,[-0.06103348169048611, 0.9541623076083371, -0.16445793293820224],[0.058438955879146784, 0.9088683970081296, 0.0910134763480887],[0.16512339565962927, 0.6974785965124756, 0.1018118603559649]
2,44,[-0.06103348169048611, 0.9541623076083371, -0.16445793293820224],[0.058438955879146784, 0.9088683970081296, 0.0910134763480887],[0.16512339565962927, 0.6974785965124756, 0.1018118603559649]
2,45,[-0.06103348169048611, 0.9541623076083371, -0.16445793293820224],[0.058438955879146784, 0.9088683970081296, 0.0910134763480887],[0.16512339565962927, 0.6974785965124756, 0.1018118603559649]
2,46,[-0.06103348169048611, 0.9541623076083371, -0.16445793293820224],[0.058438955879146784, 0.9088683970081296, 0.0910134763480887],[0.16512339565962927, 0.6974785965124756, 0.1018118603559649]
2,47,[-0.06103348169048611, 0.9541623076083371, -0.16445793293820224],[0.058438955879146784, 0.9088683970081296, 0.0910134763480887],[0.16512339565962927, 0.6974785965124756, 0.1018118603559649]
2,48,[-0.06103348169048611, 0.9541623076083371, -0.16445793293820224],[0.058438955879146784, 0.9088683970081296, 0.0910134763480887],[0.16512339565962927, 0.6974785965124756, 0.1018118603559649]
2,49,[-0.06103348169048611, 0.9541623076083371, -0.16445793293820224],[0.058438955879146784, 0.9088683970081296, 0.0910134763480887],[0.16512339565962927, 0.6974785965124756, 0.1018118603559649]
2,50,[-0.06103348169048611, 0.9541623076083371, -0.16445793293820224],[0.058438955879146784, 0.9088683970081296, 0.0910134763480887],[0.16512339565962927, 0.6974785965124756, 0.1018118603559649]
2,51,[-0.06103348169048611, 0.9541623076083371, -0.16445793293820224],[0.058438955879146784, 0.9088683970081296, 0.0910134763480887],[0.16512339565962927, 0.6974785965124756, 0.1018118603559649]
2,52,[-0.06103348169048611, 0.9541623076083371, -0.16445793293820224],[0.058438955879146784, 0.9088683970081296, 0.0910134763480887],[0.16512339565962927, 0.6974785965124756, 0.1018118603559649]
2,53,[-0.06103348169048611, 0.9541623076083371, -0.16445793293820224],[0.058438955879146784, 0.9088683970081296, 0.0910134763480887],[0.16512339565962927, 0.6974785965124756, 0.1018118603559649]
2,54,[-0.06103348169048611, 0.9541623076083371, -0.16445793293820224],[0.058438955879146784, 0.9088683970081296, 0.0910134763480887],[0.16512339565962927, 0.6974785965124756, 0.1018118603559649]
2,55,[-0.06103348169048611, 0.9541623076083371, -0.16445793293820224],[0.058438955879146784, 0.9088683970081296, 0.0910134763480887],[0.16512339565962927, 0.6974785965124756, 0.1018118603559649]
2,56,[-0.06103348169048611, 0.9541623076083371, -0.16445793293820224],[0.058438955879146784, 0.9088683970081296, 0.0910134763480887],[0.16512339565962927, 0.6974785965124756, 0.1018118603559649]
2,57,[-0.06103348169048611, 0.9541623076083371, -0.16445793293820224],[0.058438955879146784, 0.9088683970081296, 0.0910134763480887],[0.16512339565962927, 0.6974785965124756, 0.1018118603559649]
2,58,[-0.06103348169048611, 0.9541623076083371, -0.16445793293820224],[0.058438955879146784, 0.9088683970081296, 0.0910134763480887],[0.16512339565962927, 0.6974785965124756, 0.1018118603559649]
2,59,[-0.06103348169048611, 0.9541623076083371, -0.16445793293820224],[0.058438955879146784, 0.9088683970081296, 0.0910134763480887],[0.16512339565962927, 0.6974785965124756, 0.1018118603559649]
2,60,[-0.06103348169048611, 0.9541623076083371, -0.16445793293820224],[0.058438955879146784, 0.9088683970081296, 0.0910134763480887],[0.16512339565962927, 0.6974785965124756, 0.1018118603559649]
2,61,[-0.06103348169048611, 0.9541623076083371, -0.16445793293820224],[0.058438955879146784, 0.9088683970081296, 0.0910134763480887],[0.16512339565962927, 0.6974785965124756, 0.1018118603559649]
2,62,[-0.06103348169048611, 0.9541623076083371, -0.16445793293820224],[0.058438955879146784, 0.9088683970081296, 0.0910134763480887],[0.16512339565962927, 0.6974785965124756, 0.1018118603559649]
2,63,[-0.06103348169048611, 0.9541623076083371, -0.16445793293820224],[0.058438955879146784, 0.9088683970081296, 0.0910134763480887],[0.16512339565962927, 0.6974785965124756, 0.1018118603559649]
2,64,[-0.06103348169048611, 0.9541623076083371, -0.16445793293820224],[0.058438955879146784, 0.9088683970081296, 0.0910134763480887],[0.16512339565962927, 0.6974785965124756, 0.1018118603559649]
2,65,[-0.06103348169048611, 0.9541623076083371, -0.16445793293820224],[0.058438955879146784, 0.9088683970081296, 0.0910134763480887],[0.16512339565962927, 0.6974785965124756, 0.1018118603559649]
2,66,[-0.06103348169048611, 0.9541623076083371, -0.16445793293820224],[0.058438955879146784, 0.9088683970081296, 0.0910134763480887],[0.16512339565962927, 0.6974785965124756, 0.1018118603559649]
2,67,[-0.06103348169048611, 0.9541623076083371, -0.16445793293820224],[0.058438955879146784, 0.9088683970081296, 0.0910134763480887],[0.16512339565962927, 0.6974785965124756, 0.1018118603559649]
2,68,[-0.06103348169048611, 0.9541623076083371, -0.16445793293820224],[0.058438955879146784, 0.9088683970081296, 0.0910134763480887],[0.16512339565962927, 0.6974785965124756, 0.1018118603559649]
2,69,[-0.06103348169048611, 0.9541623076083371, -0.16445793293820224],[0.058438955879146784, 0.9088683970081296, 0.0910134763480887],[0.16512339565962927, 0.6974785965124756, 0.1018118603559649]
2,70,[-0.06103348169048611, 0.9541623076083371, -0.16445793293820224],[0.058438955879146784, 0.9088683970081296, 0.0910134763480887],[0.16512339565962927, 0.6974785965124756, 0.1018118603559649]
2,71,[-0.06103348169048611, 0.9541623076083371, -0.16445793293820224],[0.058438955879146784, 0.9088683970081296, 0.0910134763480887],[0.16512339565962927, 0.6974785965124756, 0.1018118603559649]
2,72,[-0.06103348169048611, 0.9541623076083371, -0.16445793293820224],[0.058438955879146784, 0.9088683970081296, 0.0910134763480887],[0.16512339565962927, 0.6974785965124756, 0.1018118603559649]
2,73,[-0.06103348169048611, 0.9541623076083371, -0.16445793293820224],[0.058438955879146784, 0.9088683970081296, 0.0910134763480887],[0.16512339565962927, 0.6974785965124756, 0.1018118603559649]
2,74,[-0.06103348169048611, 0.9541623076083371, -0.16445793293820224],[0.058438955879146784, 0.9088683970081296, 0.0910134763480887],[0.16512339565962927, 0.6974785965124756, 0.1018118603559649]
2,75,[-0.06103348169048611, 0.9541623076083371, -0.16445793293820224],[0.058438955879146784, 0.9088683970081296, 0.0910134763480887],[0.16512339565962927, 0.6974785965124756, 0.1018118603559649]
2,76,[-0.06103348169048611, 0.9541623076083371, -0.16445793293820224],[0.058438955879146784, 0.9088683970081296, 0.0910134763480887],[0.16512339565962927, 0.6974785965124756, 0.1018118603559649]
2,77,[-0.06103348169048611, 0.9541623076083371, -0.16445793293820224],[0.058438955879146784, 0.9088683970081296, 0.0910134763480887],[0.16512339565962927, 0.6974785965124756, 0.1018118603559649]
2,78,[-0.06103348169048611, 0.9541623076083371, -0.16445793293820224],[0.058438955879146784, 0.9088683970081296, 0.0910134763480887],[0.16512339565962927, 0.6974785965124756, 0.1018118603559649]
2,79,[-0.06103348169048611, 0.9541623076083371, -0.16445793293820224],[0.058438955879146784, 0.9088683970081296, 0.0910134763480887],[0.16512339565962927, 0.6974785965124756, 0.1018118603559649]
2,80,[-0.06103348169048611, 0.9541623076083371, -0.16445793293820224],[0.058438955879146784, 0.9088683970081296, 0.0910134763480887],[0.16512339565962927, 0.6974785965124756, 0.1018118603559649]
2,81,[-0.06103348169048611, 0.9541623076083371, -0.16445793293820224],[0.058438955879146784, 0.9088683970081296, 0.0910134763480887],[0.16512339565962927, 0.6974785965124756, 0.1018118603559649]
2,82,[-0.06103348169048611, 0.9541623076083371, -0.16445793293820224],[0.058438955879146784, 0.9088683970081296, 0.0910134763480887],[0.16512339565962927, 0.6974785965124756, 0.1018118603559649]
2,83,[-0.06103348169048611, 0.9541623076083371, -0.16445793293820224],[0.058438955879146784, 0.9088683970081296, 0.0910134763480887],[0.16512339565962927, 0.6974785965124756, 0.1018118603559649]
2,84,[-0.06103348169048611, 0.9541623076083371, -0.16445793293820224],[0.058438955879146784, 0.9088683970081296, 0.0910134763480887],[0.16512339565962927, 0.6974785965124756, 0.1018118603559649]
2,85,[-0.06103348169048611, 0.9541623076083371, -0.16445793293820224],[0.058438955879146784, 0.9088683970081296, 0.0910134763480887],[0.16512339565962927, 0.6974785965124756, 0.1018118603559649]
2,86,[-0.06103348169048611, 0.9541623076083371, -0.16445793293820224],[0.058438955879146784, 0.9088683970081296, 0.0910134763480887],[0.16512339565962927, 0.6974785965124756, 0.1018118603559649]
2,87,[-0.06103348169048611, 0.9541623076083371, -0.16445793293820224],[0.058438955879146784, 0.9088683970081296, 0.0910134763480887],[0.16512339565962927, 0.6974785965124756, 0.1018118603559649]
2,88,[-0.06103348169048611, 0.9541623076083371, -0.16445793293820224],[0.058438955879146784, 0.9088683970081296, 0.0910134763480887],[0.16512339565962927, 0.6974785965124756, 0.1018118603559649]
2,89,[-0.06103348169048611, 0.9541623076083371, -0.16445793293820224],[0.058438955879146784, 0.9088683970081296, 0.0910134763480887],[0.16512339565962927, 0.6974785965124756, 0.1018118603559649]
2,90,[-0.06103348169048611, 0.9541623076083371, -0.16445793293820224],[0.058438955879146784, 0.9088683970081296, 0.0910134763480887],[0.16512339565962927, 0.6974785965124756, 0.1018118603559649]
2,91,[-0.06103348169048611, 0.9541623076083371, -0.16445793293820224],[0.058438955879146784, 0.9088683970081296, 0.0910134763480887],[0.16512339565962927, 0.6974785965124756, 0.1018118603559649]
2,92,[-0.06103348169048611, 0.9541623076083371, -0.16445793293820224],[0.058438955879146784, 0.9088683970081296, 0.0910134763480887],[0.16512339565962927, 0.6974785965124756, 0.1018118603559649]
2,93,[-0.06103348169048611, 0.9541623076083371, -0.16445793293820224],[0.058438955879146784, 0.9088683970081296, 0.0910134763480887],[0.16512339565962927, 0.6974785965124756, 0.1018118603559649]
2,94,[-0.06103348169048611, 0.9541623076083371, -0.16445793293820224],[0.058438955879146784, 0.9088683970081296, 0.0910134763480887],[0.16512339565962927, 0.6974785965124756, 0.1018118603559649]
2,95,[-0.06103348169048611, 0.9541623076083371, -0.16445793293820224],[0.058438955879146784, 0.9088683970081296, 0.0910134763480887],[0.16512339565962927, 0.6974785965124756, 0.1018118603559649]
2,96,[-0.06103348169048611, 0.9541623076083371, -0.16445793293820224],[0.058438955879146784, 0.9088683970081296, 0.0910134763480887],[0.16512339565962927, 0.6974785965124756, 0.1018118603559649]
2,97,[-0.06103348169048611, 0.9541623076083371, -0.16445793293820224],[0.058438955879146784, 0.9088683970081296, 0.0910134763480887],[0.16512339565962927, 0.6974785965124756, 0.1018118603559649]
2,98,[-0.06103348169048611, 0.9541623076083371, -0.16445793293820224],[0.058438955879146784, 0.9088683970081296, 0.0910134763480887],[0.16512339565962927, 0.6974785965124756, 0.1018118603559649]
2,99,[-0.06103348169048611, 0.9541623076083371, -0.16445793293820224],[0.058438955879146784, 0.9088683970081296, 0.0910134763480887],[0.16512339565962927, 0.6974785965124756, 0.1018118603559649]
3,0,[-0.05731234146789688, 0.81239369642857, -0.24486052399813862],[0.06437167650950867, 0.7281446552401788, 0.014547754039789846],[0.2004102704870678, 0.6403558708478811, 0.0695954467179785]
3,1,[-0.05731234146789688, 0.81239369642857, -0.24486052399813862],[0.06437167650950867, 0.7281446552401788, 0.014547754039789846],[0.2004102704870678, 0.6403558708478811, 0.0695954467179785]
3,2,[-0.05731234146789688, 0.81239369642857, -0.24486052399813862],[0.06437167650950867, 0.7281446552401788, 0.014547754039789846],[0.2004102704870678, 0.6403558708478811, 0.0695954467179785]
3,3,[-0.05731234146789688, 0.81239369642857, -0.24486052399813862],[0.06437167650950867, 0.7281446552401788, 0.014547754039789846],[0.2004102704870678, 0.6403558708478811, 0.0695954467179785]
3,4,[-0.05731234146789688, 0.81239369642857, -0.24486052399813862],[0.06437167650950867, 0.7281446552401788, 0.014547754039789846],[0.2004102704870678, 0.6403558708478811, 0.0695954467179785]
3,5,[-0.05731234146789688, 0.81239369642857, -0.24486052399813862],[0.06437167650950867, 0.7281446552401788, 0.014547754039789846],[0.2004102704870678, 0.6403558708478811, 0.0695954467179785]
3,6,[-0.05731234146789688, 0.81239369642857, -0.24486052399813862],[0.06437167650950867, 0.7281446552401788, 0.014547754039789846],[0.2004102704870678, 0.6403558708478811, 0.0695954467179785]
3,7,[-0.05731234146789688, 0.81239369642857, -0.24486052399813862],[0.06437167650950867, 0.7281446552401788, 0.014547754039789846],[0.2004102704870678, 0.6403558708478811, 0.0695954467179785]
3,8,[-0.05731234146789688, 0.81239369642857, -0.24486052399813862],[0.06437167650950867, 0.7281446552401788, 0.014547754039789846],[0.2004102704870678, 0.6403558708478811, 0.0695954467179785]
3,9,[-0.05731234146789688, 0.81239369642857, -0.24486052399813862],[0.06437167650950867, 0.7281446552401788, 0.014547754039789846],[0.2004102704870678, 0.6403558708478811, 0.0695954467179785]
3,10,[-0.05731234146789688, 0.81239369642857, -0.24486052399813862],[0.06437167650950867, 0.7281446552401788, 0.014547754039789846],[0.2004102704870678, 0.6403558708478811, 0.0695954467179785]
3,11,[-0.05731234146789688, 0.81239369642857, -0.24486052399813862],[0.06437167650950867, 0.7281446552401788, 0.014547754039789846],[0.2004102704870678, 0.6403558708478811, 0.0695954467179785]
3,12,[-0.05731234146789688, 0.81239369642857, -0.24486052399813862],[0.06437167650950867, 0.7281446552401788, 0.014547754039789846],[0.2004102704870678, 0.6403558708478811, 0.0695954467179785]
3,13,[-0.05731234146789688, 0.81239369642857, -0.24486052399813862],[0.06437167650950867, 0.7281446552401788, 0.014547754039789846],[0.2004102704870678, 0.6403558708478811, 0.0695954467179785]
3,14,[-0.05731234146789688, 0.81239369642857, -0.24486052399813862],[0.06437167650950867, 0.7281446552401788, 0.014547754039789846],[0.2004102704870678, 0.6403558708478811, 0.0695954467179785]
3,15,[-0.05731234146789688, 0.81239369642857, -0.24486052399813862],[0.06437167650950867, 0.7281446552401788, 0.014547754039789846],[0.2004102704870678, 0.6403558708478811, 0.0695954467179785]
3,16,[-0.05731234146789688, 0.81239369642857, -0.24486052399813862],[0.06437167650950867, 0.7281446552401788, 0.014547754039789846],[0.2004102704870678, 0.6403558708478811, 0.0695954467179785]
3,17,[-0.05731234146789688, 0.81239369642857, -0.24486052399813862],[0.06437167650950867, 0.7281446552401788, 0.014547754039789846],[0.2004102704870678, 0.6403558708478811, 0.0695954467179785]
3,18,[-0.05731234146789688, 0.81239369642857, -0.24486052399813862],[0.06437167650950867, 0.7281446552401788, 0.014547754039789846],[0.2004102704870678, 0.6403558708478811, 0.0695954467179785]
3,19,[-0.05731234146789688, 0.81239369642857, -0.24486052399813862],[0.06437167650950867, 0.7281446552401788, 0.014547754039789846],[0.2004102704870678, 0.6403558708478811, 0.0695954467179785]
3,20,[-0.05731234146789688, 0.81239369642857, -0.24486052399813862],[0.06437167650950867, 0.7281446552401788, 0.014547754039789846],[0.2004102704870678, 0.6403558708478811, 0.0695954467179785]
3,21,[-0.05731234146789688, 0.81239369642857, -0.24486052399813862],[0.06437167650950867, 0.7281446552401788, 0.014547754039789846],[0.2004102704870678, 0.6403558708478811, 0.0695954467179785]
3,22,[-0.05731234146789688, 0.81239369642857, -0.24486052399813862],[0.06437167650950867, 0.7281446552401788, 0.014547754039789846],[0.2004102704870678, 0.6403558708478811, 0.0695954467179785]
3,23,[-0.05731234146789688, 0.81239369642857, -0.24486052399813862],[0.06437167650950867, 0.7281446552401788, 0.014547754039789846],[0.2004102704870678, 0.6403558708478811, 0.0695954467179785]
3,24,[-0.05731234146789688, 0.81239369642857, -0.24486052399813862],[0.06437167650950867, 0.7281446552401788, 0.014547754039789846],[0.2004102704870678, 0.6403558708478811, 0.0695954467179785]
3,25,[-0.05731234146789688, 0.81239369642857, -0.24486052399813862],[0.06437167650950867, 0.7281446552401788, 0.014547754039789846],[0.2004102704870678, 0.6403558708478811, 0.0695954467179785]
3,26,[-0.05731234146789688, 0.81239369642857, -0.24486052399813862],[0.06437167650950867, 0.7281446552401788, 0.014547754039789846],[0.2004102704870678, 0.6403558708478811, 0.0695954467179785]
3,27,[-0.05731234146789688, 0.81239369642857, -0.24486052399813862],[0.06437167650950867, 0.7281446552401788, 0.014547754039789846],[0.2004102704870678, 0.6403558708478811, 0.0695954467179785]
3,28,[-0.05731234146789688, 0.81239369642857, -0.24486052399813862],[0.06437167650950867, 0.7281446552401788, 0.014547754039789846],[0.2004102704870678, 0.6403558708478811, 0.0695954467179785]
3,29,[-0.05731234146789688, 0.81239369642857, -0.24486052399813862],[0.06437167650950867, 0.7281446552401788, 0.014547754039789846],[0.2004102704870678, 0.6403558708478811, 0.0695954467179785]
3,30,[-0.05731234146789688, 0.81239369642857, -0.24486052399813862],[0.06437167650950867, 0.7281446552401788, 0.014547754039789846],[0.2004102704870678, 0.6403558708478811, 0.0695954467179785]
3,31,[-0.05731234146789688, 0.81239369642857, -0.24486052399813862],[0.06437167650950867, 0.7281446552401788, 0.014547754039789846],[0.2004102704870678, 0.6403558708478811, 0.0695954467179785]
3,32,[-0.05731234146789688, 0.81239369642857, -0.24486052399813862],[0.06437167650950867, 0.7281446552401788, 0.014547754039789846],[0.2004102704870678, 0.6403558708478811, 0.0695954467179785]
3,33,[-0.05731234146789688, 0.81239369642857, -0.24486052399813862],[0.06437167650950867, 0.7281446552401788, 0.014547754039789846],[0.2004102704870678, 0.6403558708478811, 0.0695954467179785]
3,34,[-0.05731234146789688, 0.81239369642857, -0.24486052399813862],[0.06437167650950867, 0.7281446552401788, 0.014547754039789846],[0.2004102704870678, 0.6403558708478811, 0.0695954467179785]
3,35,[-0.05731234146789688, 0.81239369642857, -0.24486052399813862],[0.06437167650950867, 0.7281446552401788, 0.014547754039789846],[0.2004102704870678, 0.6403558708478811, 0.0695954467179785]
3,36,[-0.05731234146789688, 0.81239369642857, -0.24486052399813862],[0.06437167650950867, 0.7281446552401788, 0.014547754039789846],[0.2004102704870678, 0.6403558708478811, 0.0695954467179785]
3,37,[-0.05731234146789688, 0.81239369642857, -0.24486052399813862],[0.06437167650950867, 0.7281446552401788, 0.014547754039789846],[0.2004102704870678, 0.6403558708478811, 0.0695954467179785]
3,38,[-0.05731234146789688, 0.81239369642857, -0.24486052399813862],[0.06437167650950867, 0.7281446552401788, 0.014547754039789846],[0.2004102704870678, 0.6403558708478811, 0.0695954467179785]
3,39,[-0.05731234146789688, 0.81239369642857, -0.24486052399813862],[0.06437167650950867, 0.7281446552401788, 0.014547754039789846],[0.2004102704870678, 0.6403558708478811, 0.0695954467179785]
3,40,[-0.05731234146789688, 0.81239369642857, -0.24486052399813862],[0.06437167650950867, 0.7281446552401788, 0.014547754039789846],[0.2004102704870678, 0.6403558708478811, 0.0695954467179785]
3,41,[-0.05731234146789688, 0.81239369642857, -0.24486052399813862],[0.06437167650950867, 0.7281446552401788, 0.014547754039789846],[0.2004102704870678, 0.6403558708478811, 0.0695954467179785]
3,42,[-0.05731234146789688, 0.81239369642857, -0.24486052399813862],[0.06437167650950867, 0.7281446552401788, 0.014547754039789846],[0.2004102704870678, 0.6403558708478811, 0.0695954467179785]
3,43,[-0.05731234146789688, 0.81239369642857, -0.24486052399813862],[0.06437167650950867, 0.7281446552401788, 0.014547754039789846],[0.2004102704870678, 0.6403558708478811, 0.0695954467179785]
3,44,[-0.05731234146789688, 0.81239369642857, -0.24486052399813862],[0.06437167650950867, 0.7281446552401788, 0.014547754039789846],[0.2004102704870678, 0.6403558708478811, 0.0695954467179785]
3,45,[-0.05731234146789688, 0.81239369642857, -0.24486052399813862],[0.06437167650950867, 0.7281446552401788, 0.014547754039789846],[0.2004102704870678, 0.6403558708478811, 0.0695954467179785]
3,46,[-0.05731234146789688, 0.81239369642857, -0.24486052399813862],[0.06437167650950867, 0.7281446552401788, 0.014547754039789846],[0.2004102704870678, 0.6403558708478811, 0.0695954467179785]
3,47,[-0.05731234146789688, 0.81239369642857, -0.24486052399813862],[0.06437167650950867, 0.7281446552401788, 0.014547754039789846],[0.2004102704870678, 0.6403558708478811, 0.0695954467179785]
3,48,[-0.05731234146789688, 0.81239369642857, -0.24486052399813862],[0.06437167650950867, 0.7281446552401788, 0.014547754039789846],[0.2004102704870678, 0.6403558708478811, 0.0695954467179785]
3,49,[-0.05731234146789688, 0.81239369642857, -0.24486052399813862],[0.06437167650950867, 0.7281446552401788, 0.014547754039789846],[0.2004102704870678, 0.6403558708478811, 0.0695954467179785]
3,50,[-0.05731234146789688, 0.81239369642857, -0.24486052399813862],[0.06437167650950867, 0.7281446552401788, 0.014547754039789846],[0.2004102704870678, 0.6403558708478811, 0.0695954467179785]
3,51,[-0.05731234146789688, 0.81239369642857, -0.24486052399813862],[0.06437167650950867, 0.7281446552401788, 0.014547754039789846],[0.2004102704870678, 0.6403558708478811, 0.0695954467179785]
3,52,[-0.05731234146789688, 0.81239369642857, -0.24486052399813862],[0.06437167650950867, 0.7281446552401788, 0.014547754039789846],[0.2004102704870678, 0.6403558708478811, 0.0695954467179785]
3,53,[-0.05731234146789688, 0.81239369642857, -0.24486052399813862],[0.06437167650950867, 0.7281446552401788, 0.014547754039789846],[0.2004102704870678, 0.6403558708478811, 0.0695954467179785]
3,54,[-0.05731234146789688, 0.81239369642857, -0.24486052399813862],[0.06437167650950867, 0.7281446552401788, 0.014547754039789846],[0.2004102704870678, 0.6403558708478811, 0.0695954467179785]
3,55,[-0.05731234146789688, 0.81239369642857, -0.24486052399813862],[0.06437167650950867, 0.7281446552401788, 0.014547754039789846],[0.2004102704870678, 0.6403558708478811, 0.0695954467179785]
3,56,[-0.05731234146789688, 0.81239369642857, -0.24486052399813862],[0.06437167650950867, 0.7281446552401788, 0.014547754039789846],[0.2004102704870678, 0.6403558708478811, 0.0695954467179785]
3,57,[-0.05731234146789688, 0.81239369642857, -0.24486052399813862],[0.06437167650950867, 0.7281446552401788, 0.014547754039789846],[0.2004102704870678, 0.6403558708478811, 0.0695954467179785]
3,58,[-0.05731234146789688, 0.81239369642857, -0.24486052399813862],[0.06437167650950867, 0.7281446552401788, 0.014547754039789846],[0.2004102704870678, 0.6403558708478811, 0.0695954467179785]
3,59,[-0.05731234146789688, 0.81239369642857, -0.24486052399813862],[0.06437167650950867, 0.7281446552401788, 0.014547754039789846],[0.2004102704870678, 0.6403558708478811, 0.0695954467179785]
3,60,[-0.05731234146789688, 0.81239369642857, -0.24486052399813862],[0.06437167650950867, 0.7281446552401788, 0.014547754039789846],[0.2004102704870678, 0.6403558708478811, 0.0695954467179785]
3,61,[-0.05731234146789688, 0.81239369642857, -0.24486052399813862],[0.06437167650950867, 0.7281446552401788, 0.014547754039789846],[0.2004102704870678, 0.6403558708478811, 0.0695954467179785]
3,62,[-0.05731234146789688, 0.81239369642857, -0.24486052399813862],[0.06437167650950867, 0.7281446552401788, 0.014547754039789846],[0.2004102704870678, 0.6403558708478811, 0.0695954467179785]
3,63,[-0.05731234146789688, 0.81239369642857, -0.24486052399813862],[0.06437167650950867, 0.7281446552401788, 0.014547754039789846],[0.2004102704870678, 0.6403558708478811, 0.0695954467179785]
3,64,[-0.05731234146789688, 0.81239369642857, -0.24486052399813862],[0.06437167650950867, 0.7281446552401788, 0.014547754039789846],[0.2004102704870678, 0.6403558708478811, 0.0695954467179785]
3,65,[-0.05731234146789688, 0.81239369642857, -0.24486052399813862],[0.06437167650950867, 0.7281446552401788, 0.014547754039789846],[0.2004102704870678, 0.6403558708478811, 0.0695954467179785]
3,66,[-0.05731234146789688, 0.81239369642857, -0.24486052399813862],[0.06437167650950867, 0.7281446552401788, 0.014547754039789846],[0.2004102704870678, 0.6403558708478811, 0.0695954467179785]
3,67,[-0.05731234146789688, 0.81239369642857, -0.24486052399813862],[0.06437167650950867, 0.7281446552401788, 0.014547754039789846],[0.2004102704870678, 0.6403558708478811, 0.0695954467179785]
3,68,[-0.05731234146789688, 0.81239369642857, -0.24486052399813862],[0.06437167650950867, 0.7281446552401788, 0.014547754039789846],[0.2004102704870678, 0.6403558708478811, 0.0695954467179785]
3,69,[-0.05731234146789688, 0.81239369642857, -0.24486052399813862],[0.06437167650950867, 0.7281446552401788, 0.014547754039789846],[0.2004102704870678, 0.6403558708478811, 0.0695954467179785]
3,70,[-0.05731234146789688, 0.81239369642857, -0.24486052399813862],[0.06437167650950867, 0.7281446552401788, 0.014547754039789846],[0.2004102704870678, 0.6403558708478811, 0.0695954467179785]
3,71,[-0.05731234146789688, 0.81239369642857, -0.24486052399813862],[0.06437167650950867, 0.7281446552401788, 0.014547754039789846],[0.2004102704870678, 0.6403558708478811, 0.0695954467179785]
3,72,[-0.05731234146789688, 0.81239369642857, -0.24486052399813862],[0.06437167650950867, 0.7281446552401788, 0.014547754039789846],[0.2004102704870678, 0.6403558708478811, 0.0695954467179785]
3,73,[-0.05731234146789688, 0.81239369642857, -0.24486052399813862],[0.06437167650950867, 0.7281446552401788, 0.014547754039789846],[0.2004102704870678, 0.6403558708478811, 0.0695954467179785]
3,74,[-0.05731234146789688, 0.81239369642857, -0.24486052399813862],[0.06437167650950867, 0.7281446552401788, 0.014547754039789846],[0.2004102704870678, 0.6403558708478811, 0.0695954467179785]
3,75,[-0.05731234146789688, 0.81239369642857, -0.24486052399813862],[0.06437167650950867, 0.7281446552401788, 0.014547754039789846],[0.2004102704870678, 0.6403558708478811, 0.0695954467179785]
3,76,[-0.05731234146789688, 0.81239369642857, -0.24486052399813862],[0.06437167650950867, 0.7281446552401788, 0.014547754039789846],[0.2004102704870678, 0.6403558708478811, 0.0695954467179785]
3,77,[-0.05731234146789688, 0.81239369642857, -0.24486052399813862],[0.06437167650950867, 0.7281446552401788, 0.014547754039789846],[0.2004102704870678, 0.6403558708478811, 0.0695954467179785]
3,78,[-0.05731234146789688, 0.81239369642857, -0.24486052399813862],[0.06437167650950867, 0.7281446552401788, 0.014547754039789846],[0.2004102704870678, 0.6403558708478811, 0.0695954467179785]
3,79,[-0.05731234146789688, 0.81239369642857, -0.24486052399813862],[0.06437167650950867, 0.7281446552401788, 0.014547754039789846],[0.2004102704870678, 0.6403558708478811, 0.0695954467179785]
3,80,[-0.05731234146789688, 0.81239369642857, -0.24486052399813862],[0.06437167650950867, 0.7281446552401788, 0.014547754039789846],[0.2004102704870678, 0.6403558708478811, 0.0695954467179785]
3,81,[-0.05731234146789688, 0.81239369642857, -0.24486052399813862],[0.06437167650950867, 0.7281446552401788, 0.014547754039789846],[0.2004102704870678, 0.6403558708478811, 0.0695954467179785]
3,82,[-0.05731234146789688, 0.81239369642857, -0.24486052399813862],[0.06437167650950867, 0.7281446552401788, 0.014547754039789846],[0.2004102704870678, 0.6403558708478811, 0.0695954467179785]
3,83,[-0.05731234146789688, 0.81239369642857, -0.24486052399813862],[0.06437167650950867, 0.7281446552401788, 0.014547754039789846],[0.2004102704870678, 0.6403558708478811, 0.0695954467179785]
3,84,[-0.05731234146789688, 0.81239369642857, -0.24486052399813862],[0.06437167650950867, 0.7281446552401788, 0.014547754039789846],[0.2004102704870678, 0.6403558708478811, 0.0695954467179785]
3,85,[-0.05731234146789688, 0.81239369642857, -0.24486052399813862],[0.06437167650950867, 0.7281446552401788, 0.014547754039789846],[0.2004102704870678, 0.6403558708478811, 0.0695954467179785]
3,86,[-0.05731234146789688, 0.81239369642857, -0.24486052399813862],[0.06437167650950867, 0.7281446552401788, 0.014547754039789846],[0.2004102704870678, 0.6403558708478811, 0.0695954467179785]
3,87,[-0.05731234146789688, 0.81239369642857, -0.24486052399813862],[0.06437167650950867, 0.7281446552401788, 0.014547754039789846],[0.2004102704870678, 0.6403558708478811, 0.0695954467179785]
3,88,[-0.05731234146789688, 0.81239369642857, -0.24486052399813862],[0.06437167650950867, 0.7281446552401788, 0.014547754039789846],[0.2004102704870678, 0.6403558708478811, 0.0695954467179785]
3,89,[-0.05731234146789688, 0.81239369642857, -0.24486052399813862],[0.06437167650950867, 0.7281446552401788, 0.014547754039789846],[0.2004102704870678, 0.6403558708478811, 0.0695954467179785]
3,90,[-0.05731234146789688, 0.81239369642857, -0.24486052399813862],[0.06437167650950867, 0.7281446552401788, 0.014547754039789846],[0.2004102704870678, 0.6403558708478811, 0.0695954467179785]
3,91,[-0.05731234146789688, 0.81239369642857, -0.24486052399813862],[0.06437167650950867, 0.7281446552401788, 0.014547754039789846],[0.2004102704870678, 0.6403558708478811, 0.0695954467179785]
3,92,[-0.05731234146789688, 0.81239369642857, -0.24486052399813862],[0.06437167650950867, 0.7281446552401788, 0.014547754039789846],[0.2004102704870678, 0.6403558708478811, 0.0695954467179785]
3,93,[-0.05731234146789688, 0.81239369642857, -0.24486052399813862],[0.06437167650950867, 0.7281446552401788, 0.014547754039789846],[0.2004102704870678, 0.6403558708478811, 0.0695954467179785]
3,94,[-0.05731234146789688, 0.81239369642857, -0.24486052399813862],[0.06437167650950867, 0.7281446552401788, 0.014547754039789846],[0.2004102704870678, 0.6403558708478811, 0.0695954467179785]
3,95,[-0.05731234146789688, 0.81239369642857, -0.24486052399813862],[0.06437167650950867, 0.7281446552401788, 0.014547754039789846],[0.2004102704870678, 0.6403558708478811, 0.0695954467179785]
3,96,[-0.05731234146789688, 0.81239369642857, -0.24486052399813862],[0.06437167650950867, 0.7281446552401788, 0.014547754039789846],[0.2004102704870678, 0.6403558708478811, 0.0695954467179785]
3,97,[-0.05731234146789688, 0.81239369642857, -0.24486052399813862],[0.06437167650950867, 0.7281446552401788, 0.014547754039789846],[0.2004102704870678, 0.6403558708478811, 0.0695954467179785]
3,98,[-0.05731234146789688, 0.81239369642857, -0.24486052399813862],[0.06437167650950867, 0.7281446552401788, 0.014547754039789846],[0.2004102704870678, 0.6403558708478811, 0.0695954467179785]
3,99,[-0.05731234146789688, 0.81239369642857, -0.24486052399813862],[0.06437167650950867, 0.7281446552401788, 0.014547754039789846],[0.2004102704870678, 0.6403558708478811, 0.0695954467179785]
4,0,[-0.012956680719307263, 0.857316364059161, -0.08532093385283343],[0.1264163585481779, 0.6897103256211492, 0.049127545671809485],[0.19574297040408536, 0.5566043168193466, 0.05937473200434848]
4,1,[-0.012956680719307263, 0.857316364059161, -0.08532093385283343],[0.1264163585481779, 0.6897103256211492, 0.049127545671809485],[0.19574297040408536, 0.5566043168193466, 0.05937473200434848]
4,2,[-0.012956680719307263, 0.857316364059161, -0.08532093385283343],[0.1264163585481779, 0.6897103256211492, 0.049127545671809485],[0.19574297040408536, 0.5566043168193466, 0.05937473200434848]
4,3,[-0.012956680719307263, 0.857316364059161, -0.08532093385283343],[0.1264163585481779, 0.6897103256211492, 0.049127545671809485],[0.19574297040408536, 0.5566043168193466, 0.05937473200434848]
4,4,[-0.012956680719307263, 0.857316364059161, -0.08532093385283343],[0.1264163585481779, 0.6897103256211492, 0.049127545671809485],[0.19574297040408536, 0.5566043168193466, 0.05937473200434848]
4,5,[-0.012956680719307263, 0.857316364059161, -0.08532093385283343],[0.1264163585481779, 0.6897103256211492, 0.049127545671809485],[0.19574297040408536, 0.5566043168193466, 0.05937473200434848]
4,6,[-0.012956680719307263, 0.857316364059161, -0.08532093385283343],[0.1264163585481779, 0.6897103256211492, 0.049127545671809485],[0.19574297040408536, 0.5566043168193466, 0.05937473200434848]
4,7,[-0.012956680719307263, 0.857316364059161, -0.08532093385283343],[0.1264163585481779, 0.6897103256211492, 0.049127545671809485],[0.19574297040408536, 0.5566043168193466, 0.05937473200434848]
4,8,[-0.012956680719307263, 0.857316364059161, -0.08532093385283343],[0.1264163585481779, 0.6897103256211492, 0.049127545671809485],[0.19574297040408536, 0.5566043168193466, 0.05937473200434848]
4,9,[-0.012956680719307263, 0.857316364059161, -0.08532093385283343],[0.1264163585481779, 0.6897103256211492, 0.049127545671809485],[0.19574297040408536, 0.5566043168193466, 0.05937473200434848]
4,10,[-0.012956680719307263, 0.857316364059161, -0.08532093385283343],[0.1264163585481779, 0.6897103256211492, 0.049127545671809485],[0.19574297040408536, 0.5566043168193466, 0.05937473200434848]
4,11,[-0.012956680719307263, 0.857316364059161, -0.08532093385283343],[0.1264163585481779, 0.6897103256211492, 0.049127545671809485],[0.19574297040408536, 0.5566043168193466, 0.05937473200434848]
4,12,[-0.012956680719307263, 0.857316364059161, -0.08532093385283343],[0.1264163585481779, 0.6897103256211492, 0.049127545671809485],[0.19574297040408536, 0.5566043168193466, 0.05937473200434848]
4,13,[-0.012956680719307263, 0.857316364059161, -0.08532093385283343],[0.1264163585481779, 0.6897103256211492, 0.049127545671809485],[0.19574297040408536, 0.5566043168193466, 0.05937473200434848]
4,14,[-0.012956680719307263, 0.857316364059161, -0.08532093385283343],[0.1264163585481779, 0.6897103256211492, 0.049127545671809485],[0.19574297040408536, 0.5566043168193466, 0.05937473200434848]
4,15,[-0.012956680719307263, 0.857316364059161, -0.08532093385283343],[0.1264163585481779, 0.6897103256211492, 0.049127545671809485],[0.19574297040408536, 0.5566043168193466, 0.05937473200434848]
4,16,[-0.012956680719307263, 0.857316364059161, -0.08532093385283343],[0.1264163585481779, 0.6897103256211492, 0.049127545671809485],[0.19574297040408536, 0.5566043168193466, 0.05937473200434848]
4,17,[-0.012956680719307263, 0.857316364059161, -0.08532093385283343],[0.1264163585481779, 0.6897103256211492, 0.049127545671809485],[0.19574297040408536, 0.5566043168193466, 0.05937473200434848]
4,18,[-0.012956680719307263, 0.857316364059161, -0.08532093385283343],[0.1264163585481779, 0.6897103256211492, 0.049127545671809485],[0.19574297040408536, 0.5566043168193466, 0.05937473200434848]
4,19,[-0.012956680719307263, 0.857316364059161, -0.08532093385283343],[0.1264163585481779, 0.6897103256211492, 0.049127545671809485],[0.19574297040408536, 0.5566043168193466, 0.05937473200434848]
4,20,[-0.012956680719307263, 0.857316364059161, -0.08532093385283343],[0.1264163585481779, 0.6897103256211492, 0.049127545671809485],[0.19574297040408536, 0.5566043168193466, 0.05937473200434848]
4,21,[-0.012956680719307263, 0.857316364059161, -0.08532093385283343],[0.1264163585481779, 0.6897103256211492, 0.049127545671809485],[0.19574297040408536, 0.5566043168193466, 0.05937473200434848]
4,22,[-0.012956680719307263, 0.857316364059161, -0.08532093385283343],[0.1264163585481779, 0.6897103256211492, 0.049127545671809485],[0.19574297040408536, 0.5566043168193466, 0.05937473200434848]
4,23,[-0.012956680719307263, 0.857316364059161, -0.08532093385283343],[0.1264163585481779, 0.6897103256211492, 0.049127545671809485],[0.19574297040408536, 0.5566043168193466, 0.05937473200434848]
4,24,[-0.012956680719307263, 0.857316364059161, -0.08532093385283343],[0.1264163585481779, 0.6897103256211492, 0.049127545671809485],[0.19574297040408536, 0.5566043168193466, 0.05937473200434848]
4,25,[-0.012956680719307263, 0.857316364059161, -0.08532093385283343],[0.1264163585481779, 0.6897103256211492, 0.049127545671809485],[0.19574297040408536, 0.5566043168193466, 0.05937473200434848]
4,26,[-0.012956680719307263, 0.857316364059161, -0.08532093385283343],[0.1264163585481779, 0.6897103256211492, 0.049127545671809485],[0.19574297040408536, 0.5566043168193466, 0.05937473200434848]
4,27,[-0.012956680719307263, 0.857316364059161, -0.08532093385283343],[0.1264163585481779, 0.6897103256211492, 0.049127545671809485],[0.19574297040408536, 0.5566043168193466, 0.05937473200434848]
4,28,[-0.012956680719307263, 0.857316364059161, -0.08532093385283343],[0.1264163585481779, 0.6897103256211492, 0.049127545671809485],[0.19574297040408536, 0.5566043168193466, 0.05937473200434848]
4,29,[-0.012956680719307263, 0.857316364059161, -0.08532093385283343],[0.1264163585481779, 0.6897103256211492, 0.049127545671809485],[0.19574297040408536, 0.5566043168193466, 0.05937473200434848]
4,30,[-0.012956680719307263, 0.857316364059161, -0.08532093385283343],[0.1264163585481779, 0.6897103256211492, 0.049127545671809485],[0.19574297040408536, 0.5566043168193466, 0.05937473200434848]
4,31,[-0.012956680719307263, 0.857316364059161, -0.08532093385283343],[0.1264163585481779, 0.6897103256211492, 0.049127545671809485],[0.19574297040408536, 0.5566043168193466, 0.05937473200434848]
4,32,[-0.012956680719307263, 0.857316364059161, -0.08532093385283343],[0.1264163585481779, 0.6897103256211492, 0.049127545671809485],[0.19574297040408536, 0.5566043168193466, 0.05937473200434848]
4,33,[-0.012956680719307263, 0.857316364059161, -0.08532093385283343],[0.1264163585481779, 0.6897103256211492, 0.049127545671809485],[0.19574297040408536, 0.5566043168193466, 0.05937473200434848]
4,34,[-0.012956680719307263, 0.857316364059161, -0.08532093385283343],[0.1264163585481779, 0.6897103256211492, 0.049127545671809485],[0.19574297040408536, 0.5566043168193466, 0.05937473200434848]
4,35,[-0.012956680719307263, 0.857316364059161, -0.08532093385283343],[0.1264163585481779, 0.6897103256211492, 0.049127545671809485],[0.19574297040408536, 0.5566043168193466, 0.05937473200434848]
4,36,[-0.012956680719307263, 0.857316364059161, -0.08532093385283343],[0.1264163585481779, 0.6897103256211492, 0.049127545671809485],[0.19574297040408536, 0.5566043168193466, 0.05937473200434848]
4,37,[-0.012956680719307263, 0.857316364059161, -0.08532093385283343],[0.1264163585481779, 0.6897103256211492, 0.049127545671809485],[0.19574297040408536, 0.5566043168193466, 0.05937473200434848]
4,38,[-0.012956680719307263, 0.857316364059161, -0.08532093385283343],[0.1264163585481779, 0.6897103256211492, 0.049127545671809485],[0.19574297040408536, 0.5566043168193466, 0.05937473200434848]
4,39,[-0.012956680719307263, 0.857316364059161, -0.08532093385283343],[0.1264163585481779, 0.6897103256211492, 0.049127545671809485],[0.19574297040408536, 0.5566043168193466, 0.05937473200434848]
4,40,[-0.012956680719307263, 0.857316364059161, -0.08532093385283343],[0.1264163585481779, 0.6897103256211492, 0.049127545671809485],[0.19574297040408536, 0.5566043168193466, 0.05937473200434848]
4,41,[-0.012956680719307263, 0.857316364059161, -0.08532093385283343],[0.1264163585481779, 0.6897103256211492, 0.049127545671809485],[0.19574297040408536, 0.5566043168193466, 0.05937473200434848]
4,42,[-0.012956680719307263, 0.857316364059161, -0.08532093385283343],[0.1264163585481779, 0.6897103256211492, 0.049127545671809485],[0.19574297040408536, 0.5566043168193466, 0.05937473200434848]
4,43,[-0.012956680719307263, 0.857316364059161, -0.08532093385283343],[0.1264163585481779, 0.6897103256211492, 0.049127545671809485],[0.19574297040408536, 0.5566043168193466, 0.05937473200434848]
4,44,[-0.012956680719307263, 0.857316364059161, -0.08532093385283343],[0.1264163585481779, 0.6897103256211492, 0.049127545671809485],[0.19574297040408536, 0.5566043168193466, 0.05937473200434848]
4,45,[-0.012956680719307263, 0.857316364059161, -0.08532093385283343],[0.1264163585481779, 0.6897103256211492, 0.049127545671809485],[0.19574297040408536, 0.5566043168193466, 0.05937473200434848]
4,46,[-0.012956680719307263, 0.857316364059161, -0.08532093385283343],[0.1264163585481779, 0.6897103256211492, 0.049127545671809485],[0.19574297040408536, 0.5566043168193466, 0.05937473200434848]
4,47,[-0.012956680719307263, 0.857316364059161, -0.08532093385283343],[0.1264163585481779, 0.6897103256211492, 0.049127545671809485],[0.19574297040408536, 0.5566043168193466, 0.05937473200434848]
4,48,[-0.012956680719307263, 0.857316364059161, -0.08532093385283343],[0.1264163585481779, 0.6897103256211492, 0.049127545671809485],[0.19574297040408536, 0.5566043168193466, 0.05937473200434848]
4,49,[-0.012956680719307263, 0.857316364059161, -0.08532093385283343],[0.1264163585481779, 0.6897103256211492, 0.049127545671809485],[0.19574297040408536, 0.5566043168193466, 0.05937473200434848]
4,50,[-0.012956680719307263, 0.857316364059161, -0.08532093385283343],[0.1264163585481779, 0.6897103256211492, 0.049127545671809485],[0.19574297040408536, 0.5566043168193466, 0.05937473200434848]
4,51,[-0.012956680719307263, 0.857316364059161, -0.08532093385283343],[0.1264163585481779, 0.6897103256211492, 0.049127545671809485],[0.19574297040408536, 0.5566043168193466, 0.05937473200434848]
4,52,[-0.012956680719307263, 0.857316364059161, -0.08532093385283343],[0.1264163585481779, 0.6897103256211492, 0.049127545671809485],[0.19574297040408536, 0.5566043168193466, 0.05937473200434848]
4,53,[-0.012956680719307263, 0.857316364059161, -0.08532093385283343],[0.1264163585481779, 0.6897103256211492, 0.049127545671809485],[0.19574297040408536, 0.5566043168193466, 0.05937473200434848]
4,54,[-0.012956680719307263, 0.857316364059161, -0.08532093385283343],[0.1264163585481779, 0.6897103256211492, 0.049127545671809485],[0.19574297040408536, 0.5566043168193466, 0.05937473200434848]
4,55,[-0.012956680719307263, 0.857316364059161, -0.08532093385283343],[0.1264163585481779, 0.6897103256211492, 0.049127545671809485],[0.19574297040408536, 0.5566043168193466, 0.05937473200434848]
4,56,[-0.012956680719307263, 0.857316364059161, -0.08532093385283343],[0.1264163585481779, 0.6897103256211492, 0.049127545671809485],[0.19574297040408536, 0.5566043168193466, 0.05937473200434848]
4,57,[-0.012956680719307263, 0.857316364059161, -0.08532093385283343],[0.1264163585481779, 0.6897103256211492, 0.049127545671809485],[0.19574297040408536, 0.5566043168193466, 0.05937473200434848]
4,58,[-0.012956680719307263, 0.857316364059161, -0.08532093385283343],[0.1264163585481779, 0.6897103256211492, 0.049127545671809485],[0.19574297040408536, 0.5566043168193466, 0.05937473200434848]
4,59,[-0.012956680719307263, 0.857316364059161, -0.08532093385283343],[0.1264163585481779, 0.6897103256211492, 0.049127545671809485],[0.19574297040408536, 0.5566043168193466, 0.05937473200434848]
4,60,[-0.012956680719307263, 0.857316364059161, -0.08532093385283343],[0.1264163585481779, 0.6897103256211492, 0.049127545671809485],[0.19574297040408536, 0.5566043168193466, 0.05937473200434848]
4,61,[-0.012956680719307263, 0.857316364059161, -0.08532093385283343],[0.1264163585481779, 0.6897103256211492, 0.049127545671809485],[0.19574297040408536, 0.5566043168193466, 0.05937473200434848]
4,62,[-0.012956680719307263, 0.857316364059161, -0.08532093385283343],[0.1264163585481779, 0.6897103256211492, 0.049127545671809485],[0.19574297040408536, 0.5566043168193466, 0.05937473200434848]
4,63,[-0.012956680719307263, 0.857316364059161, -0.08532093385283343],[0.1264163585481779, 0.6897103256211492, 0.049127545671809485],[0.19574297040408536, 0.5566043168193466, 0.05937473200434848]
4,64,[-0.012956680719307263, 0.857316364059161, -0.08532093385283343],[0.1264163585481779, 0.6897103256211492, 0.049127545671809485],[0.19574297040408536, 0.5566043168193466, 0.05937473200434848]
4,65,[-0.012956680719307263, 0.857316364059161, -0.08532093385283343],[0.1264163585481779, 0.6897103256211492, 0.049127545671809485],[0.19574297040408536, 0.5566043168193466, 0.05937473200434848]
4,66,[-0.012956680719307263, 0.857316364059161, -0.08532093385283343],[0.1264163585481779, 0.6897103256211492, 0.049127545671809485],[0.19574297040408536, 0.5566043168193466, 0.05937473200434848]
4,67,[-0.012956680719307263, 0.857316364059161, -0.08532093385283343],[0.1264163585481779, 0.6897103256211492, 0.049127545671809485],[0.19574297040408536, 0.5566043168193466, 0.05937473200434848]
4,68,[-0.012956680719307263, 0.857316364059161, -0.08532093385283343],[0.1264163585481779, 0.6897103256211492, 0.049127545671809485],[0.19574297040408536, 0.5566043168193466, 0.05937473200434848]
4,69,[-0.012956680719307263, 0.857316364059161, -0.08532093385283343],[0.1264163585481779, 0.6897103256211492, 0.049127545671809485],[0.19574297040408536, 0.5566043168193466, 0.05937473200434848]
4,70,[-0.012956680719307263, 0.857316364059161, -0.08532093385283343],[0.1264163585481779, 0.6897103256211492, 0.049127545671809485],[0.19574297040408536, 0.5566043168193466, 0.05937473200434848]
4,71,[-0.012956680719307263, 0.857316364059161, -0.08532093385283343],[0.1264163585481779, 0.6897103256211492, 0.049127545671809485],[0.19574297040408536, 0.5566043168193466, 0.05937473200434848]
4,72,[-0.012956680719307263, 0.857316364059161, -0.08532093385283343],[0.1264163585481779, 0.6897103256211492, 0.049127545671809485],[0.19574297040408536, 0.5566043168193466, 0.05937473200434848]
4,73,[-0.012956680719307263, 0.857316364059161, -0.08532093385283343],[0.1264163585481779, 0.6897103256211492, 0.049127545671809485],[0.19574297040408536, 0.5566043168193466, 0.05937473200434848]
4,74,[-0.012956680719307263, 0.857316364059161, -0.08532093385283343],[0.1264163585481779, 0.6897103256211492, 0.049127545671809485],[0.19574297040408536, 0.5566043168193466, 0.05937473200434848]
4,75,[-0.012956680719307263, 0.857316364059161, -0.08532093385283343],[0.1264163585481779, 0.6897103256211492, 0.049127545671809485],[0.19574297040408536, 0.5566043168193466, 0.05937473200434848]
4,76,[-0.012956680719307263, 0.857316364059161, -0.08532093385283343],[0.1264163585481779, 0.6897103256211492, 0.049127545671809485],[0.19574297040408536, 0.5566043168193466, 0.05937473200434848]
4,77,[-0.012956680719307263, 0.857316364059161, -0.08532093385283343],[0.1264163585481779, 0.6897103256211492, 0.049127545671809485],[0.19574297040408536, 0.5566043168193466, 0.05937473200434848]
4,78,[-0.012956680719307263, 0.857316364059161, -0.08532093385283343],[0.1264163585481779, 0.6897103256211492, 0.049127545671809485],[0.19574297040408536, 0.5566043168193466, 0.05937473200434848]
4,79,[-0.012956680719307263, 0.857316364059161, -0.08532093385283343],[0.1264163585481779, 0.6897103256211492, 0.049127545671809485],[0.19574297040408536, 0.5566043168193466, 0.05937473200434848]
4,80,[-0.012956680719307263, 0.857316364059161, -0.08532093385283343],[0.1264163585481779, 0.6897103256211492, 0.049127545671809485],[0.19574297040408536, 0.5566043168193466, 0.05937473200434848]
4,81,[-0.012956680719307263, 0.857316364059161, -0.08532093385283343],[0.1264163585481779, 0.6897103256211492, 0.049127545671809485],[0.19574297040408536, 0.5566043168193466, 0.05937473200434848]
4,82,[-0.012956680719307263, 0.857316364059161, -0.08532093385283343],[0.1264163585481779, 0.6897103256211492, 0.049127545671809485],[0.19574297040408536, 0.5566043168193466, 0.05937473200434848]
4,83,[-0.012956680719307263, 0.857316364059161, -0.08532093385283343],[0.1264163585481779, 0.6897103256211492, 0.049127545671809485],[0.19574297040408536, 0.5566043168193466, 0.05937473200434848]
4,84,[-0.012956680719307263, 0.857316364059161, -0.08532093385283343],[0.1264163585481779, 0.6897103256211492, 0.049127545671809485],[0.19574297040408536, 0.5566043168193466, 0.05937473200434848]
4,85,[-0.012956680719307263, 0.857316364059161, -0.08532093385283343],[0.1264163585481779, 0.6897103256211492, 0.049127545671809485],[0.19574297040408536, 0.5566043168193466, 0.05937473200434848]
4,86,[-0.012956680719307263, 0.857316364059161, -0.08532093385283343],[0.1264163585481779, 0.6897103256211492, 0.049127545671809485],[0.19574297040408536, 0.5566043168193466, 0.05937473200434848]
4,87,[-0.012956680719307263, 0.857316364059161, -0.08532093385283343],[0.1264163585481779, 0.6897103256211492, 0.049127545671809485],[0.19574297040408536, 0.5566043168193466, 0.05937473200434848]
4,88,[-0.012956680719307263, 0.857316364059161, -0.08532093385283343],[0.1264163585481779, 0.6897103256211492, 0.049127545671809485],[0.19574297040408536, 0.5566043168193466, 0.05937473200434848]
4,89,[-0.012956680719307263, 0.857316364059161, -0.08532093385283343],[0.1264163585481779, 0.6897103256211492, 0.049127545671809485],[0.19574297040408536, 0.5566043168193466, 0.05937473200434848]
4,90,[-0.012956680719307263, 0.857316364059161, -0.08532093385283343],[0.1264163585481779, 0.6897103256211492, 0.049127545671809485],[0.19574297040408536, 0.5566043168193466, 0.05937473200434848]
4,91,[-0.012956680719307263, 0.857316364059161, -0.08532093385283343],[0.1264163585481779, 0.6897103256211492, 0.049127545671809485],[0.19574297040408536, 0.5566043168193466, 0.05937473200434848]
4,92,[-0.012956680719307263, 0.857316364059161, -0.08532093385283343],[0.1264163585481779, 0.6897103256211492, 0.049127545671809485],[0.19574297040408536, 0.5566043168193466, 0.05937473200434848]
4,93,[-0.012956680719307263, 0.857316364059161, -0.08532093385283343],[0.1264163585481779, 0.6897103256211492, 0.049127545671809485],[0.19574297040408536, 0.5566043168193466, 0.05937473200434848]
4,94,[-0.012956680719307263, 0.857316364059161, -0.08532093385283343],[0.1264163585481779, 0.6897103256211492, 0.049127545671809485],[0.19574297040408536, 0.5566043168193466, 0.05937473200434848]
4,95,[-0.012956680719307263, 0.857316364059161, -0.08532093385283343],[0.1264163585481779, 0.6897103256211492, 0.049127545671809485],[0.19574297040408536, 0.5566043168193466, 0.05937473200434848]
4,96,[-0.012956680719307263, 0.857316364059161, -0.08532093385283343],[0.1264163585481779, 0.6897103256211492, 0.049127545671809485],[0.19574297040408536, 0.5566043168193466, 0.05937473200434848]
4,97,[-0.012956680719307263, 0.857316364059161, -0.08532093385283343],[0.1264163585481779, 0.6897103256211492, 0.049127545671809485],[0.19574297040408536, 0.5566043168193466, 0.05937473200434848]
4,98,[-0.012956680719307263, 0.857316364059161, -0.08532093385283343],[0.1264163585481779, 0.6897103256211492, 0.049127545671809485],[0.19574297040408536, 0.5566043168193466, 0.05937473200434848]
4,99,[-0.012956680719307263, 0.857316364059161, -0.08532093385283343],[0.1264163585481779, 0.6897103256211492, 0.049127545671809485],[0.19574297040408536, 0.5566043168193466, 0.05937473200434848]
5,0,[0.03662973235572511, 0.9737947114075823, -0.1839387925778796],[0.16567890347776612, 0.801704993754619, 0.08035939548206883],[0.2568509619726651, 0.6042829436966396, 0.10730694318774418]
5,1,[0.03662973235572511, 0.9737947114075823, -0.1839387925778796],[0.16567890347776612, 0.801704993754619, 0.08035939548206883],[0.2568509619726651, 0.6042829436966396, 0.10730694318774418]
5,2,[0.03662973235572511, 0.9737947114075823, -0.1839387925778796],[0.16567890347776612, 0.801704993754619, 0.08035939548206883],[0.2568509619726651, 0.6042829436966396, 0.10730694318774418]
5,3,[0.03662973235572511, 0.9737947114075823, -0.1839387925778796],[0.16567890347776612, 0.801704993754619, 0.08035939548206883],[0.2568509619726651, 0.6042829436966396, 0.10730694318774418]
5,4,[0.03662973235572511, 0.9737947114075823, -0.1839387925778796],[0.16567890347776612, 0.801704993754619, 0.08035939548206883],[0.2568509619726651, 0.6042829436966396, 0.10730694318774418]
5,5,[0.03662973235572511, 0.9737947114075823, -0.1839387925778796],[0.16567890347776612, 0.801704993754619, 0.08035939548206883],[0.2568509619726651, 0.6042829436966396, 0.10730694318774418]
5,6,[0.03662973235572511, 0.9737947114075823, -0.1839387925778796],[0.16567890347776612, 0.801704993754619, 0.08035939548206883],[0.2568509619726651, 0.6042829436966396, 0.10730694318774418]
5,7,[0.03662973235572511, 0.9737947114075823, -0.1839387925778796],[0.16567890347776612, 0.801704993754619, 0.08035939548206883],[0.2568509619726651, 0.6042829436966396, 0.10730694318774418]
5,8,[0.03662973235572511, 0.9737947114075823, -0.1839387925778796],[0.16567890347776612, 0.801704993754619, 0.08035939548206883],[0.2568509619726651, 0.6042829436966396, 0.10730694318774418]
5,9,[0.03662973235572511, 0.9737947114075823, -0.1839387925778796],[0.16567890347776612, 0.801704993754619, 0.08035939548206883],[0.2568509619726651, 0.6042829436966396, 0.10730694318774418]
5,10,[0.03662973235572511, 0.9737947114075823, -0.1839387925778796],[0.16567890347776612, 0.801704993754619, 0.08035939548206883],[0.2568509619726651, 0.6042829436966396, 0.10730694318774418]
5,11,[0.03662973235572511, 0.9737947114075823, -0.1839387925778796],[0.16567890347776612, 0.801704993754619, 0.08035939548206883],[0.2568509619726651, 0.6042829436966396, 0.10730694318774418]
5,12,[0.03662973235572511, 0.9737947114075823, -0.1839387925778796],[0.16567890347776612, 0.801704993754619, 0.08035939548206883],[0.2568509619726651, 0.6042829436966396, 0.10730694318774418]
5,13,[0.03662973235572511, 0.9737947114075823, -0.1839387925778796],[0.16567890347776612, 0.801704993754619, 0.08035939548206883],[0.2568509619726651, 0.6042829436966396, 0.10730694318774418]
5,14,[0.03662973235572511, 0.9737947114075823, -0.1839387925778796],[0.16567890347776612, 0.801704993754619, 0.08035939548206883],[0.2568509619726651, 0.6042829436966396, 0.10730694318774418]
5,15,[0.03662973235572511, 0.9737947114075823, -0.1839387925778796],[0.16567890347776612, 0.801704993754619, 0.08035939548206883],[0.2568509619726651, 0.6042829436966396, 0.10730694318774418]
5,16,[0.03662973235572511, 0.9737947114075823, -0.1839387925778796],[0.16567890347776612, 0.801704993754619, 0.08035939548206883],[0.2568509619726651, 0.6042829436966396, 0.10730694318774418]
5,17,[0.03662973235572511, 0.9737947114075823, -0.1839387925778796],[0.16567890347776612, 0.801704993754619, 0.08035939548206883],[0.2568509619726651, 0.6042829436966396, 0.10730694318774418]
5,18,[0.03662973235572511, 0.9737947114075823, -0.1839387925778796],[0.16567890347776612, 0.801704993754619, 0.08035939548206883],[0.2568509619726651, 0.6042829436966396, 0.10730694318774418]
5,19,[0.03662973235572511, 0.9737947114075823, -0.1839387925778796],[0.16567890347776612, 0.801704993754619, 0.08035939548206883],[0.2568509619726651, 0.6042829436966396, 0.10730694318774418]
5,20,[0.03662973235572511, 0.9737947114075823, -0.1839387925778796],[0.16567890347776612, 0.801704993754619, 0.08035939548206883],[0.2568509619726651, 0.6042829436966396, 0.10730694318774418]
5,21,[0.03662973235572511, 0.9737947114075823, -0.1839387925778796],[0.16567890347776612, 0.801704993754619, 0.08035939548206883],[0.2568509619726651, 0.6042829436966396, 0.10730694318774418]
5,22,[0.03662973235572511, 0.9737947114075823, -0.1839387925778796],[0.16567890347776612, 0.801704993754619, 0.08035939548206883],[0.2568509619726651, 0.6042829436966396, 0.10730694318774418]
5,23,[0.03662973235572511, 0.9737947114075823, -0.1839387925778796],[0.16567890347776612, 0.801704993754619, 0.08035939548206883],[0.2568509619726651, 0.6042829436966396, 0.10730694318774418]
5,24,[0.03662973235572511, 0.9737947114075823, -0.1839387925778796],[0.16567890347776612, 0.801704993754619, 0.08035939548206883],[0.2568509619726651, 0.6042829436966396, 0.10730694318774418]
5,25,[0.03662973235572511, 0.9737947114075823, -0.1839387925778796],[0.16567890347776612, 0.801704993754619, 0.08035939548206883],[0.2568509619726651, 0.6042829436966396, 0.10730694318774418]
5,26,[0.03662973235572511, 0.9737947114075823, -0.1839387925778796],[0.16567890347776612, 0.801704993754619, 0.08035939548206883],[0.2568509619726651, 0.6042829436966396, 0.10730694318774418]
5,27,[0.03662973235572511, 0.9737947114075823, -0.1839387925778796],[0.16567890347776612, 0.801704993754619, 0.08035939548206883],[0.2568509619726651, 0.6042829436966396, 0.10730694318774418]
5,28,[0.03662973235572511, 0.9737947114075823, -0.1839387925778796],[0.16567890347776612, 0.801704993754619, 0.08035939548206883],[0.2568509619726651, 0.6042829436966396, 0.10730694318774418]
5,29,[0.03662973235572511, 0.9737947114075823, -0.1839387925778796],[0.16567890347776612, 0.801704993754619, 0.08035939548206883],[0.2568509619726651, 0.6042829436966396, 0.10730694318774418]
5,30,[0.03662973235572511, 0.9737947114075823, -0.1839387925778796],[0.16567890347776612, 0.801704993754619, 0.08035939548206883],[0.2568509619726651, 0.6042829436966396, 0.10730694318774418]
5,31,[0.03662973235572511, 0.9737947114075823, -0.1839387925778796],[0.16567890347776612, 0.801704993754619, 0.08035939548206883],[0.2568509619726651, 0.6042829436966396, 0.10730694318774418]
5,32,[0.03662973235572511, 0.9737947114075823, -0.1839387925778796],[0.16567890347776612, 0.801704993754619, 0.08035939548206883],[0.2568509619726651, 0.6042829436966396, 0.10730694318774418]
5,33,[0.03662973235572511, 0.9737947114075823, -0.1839387925778796],[0.16567890347776612, 0.801704993754619, 0.08035939548206883],[0.2568509619726651, 0.6042829436966396, 0.10730694318774418]
5,34,[0.03662973235572511, 0.9737947114075823, -0.1839387925778796],[0.16567890347776612, 0.801704993754619, 0.08035939548206883],[0.2568509619726651, 0.6042829436966396, 0.10730694318774418]
5,35,[0.03662973235572511, 0.9737947114075823, -0.1839387925778796],[0.16567890347776612, 0.801704993754619, 0.08035939548206883],[0.2568509619726651, 0.6042829436966396, 0.10730694318774418]
5,36,[0.03662973235572511, 0.9737947114075823, -0.1839387925778796],[0.16567890347776612, 0.801704993754619, 0.08035939548206883],[0.2568509619726651, 0.6042829436966396, 0.10730694318774418]
5,37,[0.03662973235572511, 0.9737947114075823, -0.1839387925778796],[0.16567890347776612, 0.801704993754619, 0.08035939548206883],[0.2568509619726651, 0.6042829436966396, 0.10730694318774418]
5,38,[0.03662973235572511, 0.9737947114075823, -0.1839387925778796],[0.16567890347776612, 0.801704993754619, 0.08035939548206883],[0.2568509619726651, 0.6042829436966396, 0.10730694318774418]
5,39,[0.03662973235572511, 0.9737947114075823, -0.1839387925778796],[0.16567890347776612, 0.801704993754619, 0.08035939548206883],[0.2568509619726651, 0.6042829436966396, 0.10730694318774418]
5,40,[0.03662973235572511, 0.9737947114075823, -0.1839387925778796],[0.16567890347776612, 0.801704993754619, 0.08035939548206883],[0.2568509619726651, 0.6042829436966396, 0.10730694318774418]
5,41,[0.03662973235572511, 0.9737947114075823, -0.1839387925778796],[0.16567890347776612, 0.801704993754619, 0.08035939548206883],[0.2568509619726651, 0.6042829436966396, 0.10730694318774418]
5,42,[0.03662973235572511, 0.9737947114075823, -0.1839387925778796],[0.16567890347776612, 0.801704993754619, 0.08035939548206883],[0.2568509619726651, 0.6042829436966396, 0.10730694318774418]
5,43,[0.03662973235572511, 0.9737947114075823, -0.1839387925778796],[0.16567890347776612, 0.801704993754619, 0.08035939548206883],[0.2568509619726651, 0.6042829436966396, 0.10730694318774418]
5,44,[0.03662973235572511, 0.9737947114075823, -0.1839387925778796],[0.16567890347776612, 0.801704993754619, 0.08035939548206883],[0.2568509619726651, 0.6042829436966396, 0.10730694318774418]
5,45,[0.03662973235572511, 0.9737947114075823, -0.1839387925778796],[0.16567890347776612, 0.801704993754619, 0.08035939548206883],[0.2568509619726651, 0.6042829436966396, 0.10730694318774418]
5,46,[0.03662973235572511, 0.9737947114075823, -0.1839387925778796],[0.16567890347776612, 0.801704993754619, 0.08035939548206883],[0.2568509619726651, 0.6042829436966396, 0.10730694318774418]
5,47,[0.03662973235572511, 0.9737947114075823, -0.1839387925778796],[0.16567890347776612, 0.801704993754619, 0.08035939548206883],[0.2568509619726651, 0.6042829436966396, 0.10730694318774418]
5,48,[0.03662973235572511, 0.9737947114075823, -0.1839387925778796],[0.16567890347776612, 0.801704993754619, 0.08035939548206883],[0.2568509619726651, 0.6042829436966396, 0.10730694318774418]
5,49,[0.03662973235572511, 0.9737947114075823, -0.1839387925778796],[0.16567890347776612, 0.801704993754619, 0.08035939548206883],[0.2568509619726651, 0.6042829436966396, 0.10730694318774418]
5,50,[0.03662973235572511, 0.9737947114075823, -0.1839387925778796],[0.16567890347776612, 0.801704993754619, 0.08035939548206883],[0.2568509619726651, 0.6042829436966396, 0.10730694318774418]
5,51,[0.03662973235572511, 0.9737947114075823, -0.1839387925778796],[0.16567890347776612, 0.801704993754619, 0.08035939548206883],[0.2568509619726651, 0.6042829436966396, 0.10730694318774418]
5,52,[0.03662973235572511, 0.9737947114075823, -0.1839387925778796],[0.16567890347776612, 0.801704993754619, 0.08035939548206883],[0.2568509619726651, 0.6042829436966396, 0.10730694318774418]
5,53,[0.03662973235572511, 0.9737947114075823, -0.1839387925778796],[0.16567890347776612, 0.801704993754619, 0.08035939548206883],[0.2568509619726651, 0.6042829436966396, 0.10730694318774418]
5,54,[0.03662973235572511, 0.9737947114075823, -0.1839387925778796],[0.16567890347776612, 0.801704993754619, 0.08035939548206883],[0.2568509619726651, 0.6042829436966396, 0.10730694318774418]
5,55,[0.03662973235572511, 0.9737947114075823, -0.1839387925778796],[0.16567890347776612, 0.801704993754619, 0.08035939548206883],[0.2568509619726651, 0.6042829436966396, 0.10730694318774418]
5,56,[0.03662973235572511, 0.9737947114075823, -0.1839387925778796],[0.16567890347776612, 0.801704993754619, 0.08035939548206883],[0.2568509619726651, 0.6042829436966396, 0.10730694318774418]
5,57,[0.03662973235572511, 0.9737947114075823, -0.1839387925778796],[0.16567890347776612, 0.801704993754619, 0.08035939548206883],[0.2568509619726651, 0.6042829436966396, 0.10730694318774418]
5,58,[0.03662973235572511, 0.9737947114075823, -0.1839387925778796],[0.16567890347776612, 0.801704993754619, 0.08035939548206883],[0.2568509619726651, 0.6042829436966396, 0.10730694318774418]
5,59,[0.03662973235572511, 0.9737947114075823, -0.1839387925778796],[0.16567890347776612, 0.801704993754619, 0.08035939548206883],[0.2568509619726651, 0.6042829436966396, 0.10730694318774418]
5,60,[0.03662973235572511, 0.9737947114075823, -0.1839387925778796],[0.16567890347776612, 0.801704993754619, 0.08035939548206883],[0.2568509619726651, 0.6042829436966396, 0.10730694318774418]
5,61,[0.03662973235572511, 0.9737947114075823, -0.1839387925778796],[0.16567890347776612, 0.801704993754619, 0.08035939548206883],[0.2568509619726651, 0.6042829436966396, 0.10730694318774418]
5,62,[0.03662973235572511, 0.9737947114075823, -0.1839387925778796],[0.16567890347776612, 0.801704993754619, 0.08035939548206883],[0.2568509619726651, 0.6042829436966396, 0.10730694318774418]
5,63,[0.03662973235572511, 0.9737947114075823, -0.1839387925778796],[0.16567890347776612, 0.801704993754619, 0.08035939548206883],[0.2568509619726651, 0.6042829436966396, 0.10730694318774418]
5,64,[0.03662973235572511, 0.9737947114075823, -0.1839387925778796],[0.16567890347776612, 0.801704993754619, 0.08035939548206883],[0.2568509619726651, 0.6042829436966396, 0.10730694318774418]
5,65,[0.03662973235572511, 0.9737947114075823, -0.1839387925778796],[0.16567890347776612, 0.801704993754619, 0.08035939548206883],[0.2568509619726651, 0.6042829436966396, 0.10730694318774418]
5,66,[0.03662973235572511, 0.9737947114075823, -0.1839387925778796],[0.16567890347776612, 0.801704993754619, 0.08035939548206883],[0.2568509619726651, 0.6042829436966396, 0.10730694318774418]
5,67,[0.03662973235572511, 0.9737947114075823, -0.1839387925778796],[0.16567890347776612, 0.801704993754619, 0.08035939548206883],[0.2568509619726651, 0.6042829436966396, 0.10730694318774418]
5,68,[0.03662973235572511, 0.9737947114075823, -0.1839387925778796],[0.16567890347776612, 0.801704993754619, 0.08035939548206883],[0.2568509619726651, 0.6042829436966396, 0.10730694318774418]
5,69,[0.03662973235572511, 0.9737947114075823, -0.1839387925778796],[0.16567890347776612, 0.801704993754619, 0.08035939548206883],[0.2568509619726651, 0.6042829436966396, 0.10730694318774418]
5,70,[0.03662973235572511, 0.9737947114075823, -0.1839387925778796],[0.16567890347776612, 0.801704993754619, 0.08035939548206883],[0.2568509619726651, 0.6042829436966396, 0.10730694318774418]
5,71,[0.03662973235572511, 0.9737947114075823, -0.1839387925778796],[0.16567890347776612, 0.801704993754619, 0.08035939548206883],[0.2568509619726651, 0.6042829436966396, 0.10730694318774418]
5,72,[0.03662973235572511, 0.9737947114075823, -0.1839387925778796],[0.16567890347776612, 0.801704993754619, 0.08035939548206883],[0.2568509619726651, 0.6042829436966396, 0.10730694318774418]
5,73,[0.03662973235572511, 0.9737947114075823, -0.1839387925778796],[0.16567890347776612, 0.801704993754619, 0.08035939548206883],[0.2568509619726651, 0.6042829436966396, 0.10730694318774418]
5,74,[0.03662973235572511, 0.9737947114075823, -0.1839387925778796],[0.16567890347776612, 0.801704993754619, 0.08035939548206883],[0.2568509619726651, 0.6042829436966396, 0.10730694318774418]
5,75,[0.03662973235572511, 0.9737947114075823, -0.1839387925778796],[0.16567890347776612, 0.801704993754619, 0.08035939548206883],[0.2568509619726651, 0.6042829436966396, 0.10730694318774418]
5,76,[0.03662973235572511, 0.9737947114075823, -0.1839387925778796],[0.16567890347776612, 0.801704993754619, 0.08035939548206883],[0.2568509619726651, 0.6042829436966396, 0.10730694318774418]
5,77,[0.03662973235572511, 0.9737947114075823, -0.1839387925778796],[0.16567890347776612, 0.801704993754619, 0.08035939548206883],[0.2568509619726651, 0.6042829436966396, 0.10730694318774418]
5,78,[0.03662973235572511, 0.9737947114075823, -0.1839387925778796],[0.16567890347776612, 0.801704993754619, 0.08035939548206883],[0.2568509619726651, 0.6042829436966396, 0.10730694318774418]
5,79,[0.03662973235572511, 0.9737947114075823, -0.1839387925778796],[0.16567890347776612, 0.801704993754619, 0.08035939548206883],[0.2568509619726651, 0.6042829436966396, 0.10730694318774418]
5,80,[0.03662973235572511, 0.9737947114075823, -0.1839387925778796],[0.16567890347776612, 0.801704993754619, 0.08035939548206883],[0.2568509619726651, 0.6042829436966396, 0.10730694318774418]
5,81,[0.03662973235572511, 0.9737947114075823, -0.1839387925778796],[0.16567890347776612, 0.801704993754619, 0.08035939548206883],[0.2568509619726651, 0.6042829436966396, 0.10730694318774418]
5,82,[0.03662973235572511, 0.9737947114075823, -0.1839387925778796],[0.16567890347776612, 0.801704993754619, 0.08035939548206883],[0.2568509619726651, 0.6042829436966396, 0.10730694318774418]
5,83,[0.03662973235572511, 0.9737947114075823, -0.1839387925778796],[0.16567890347776612, 0.801704993754619, 0.08035939548206883],[0.2568509619726651, 0.6042829436966396, 0.10730694318774418]
5,84,[0.03662973235572511, 0.9737947114075823, -0.1839387925778796],[0.16567890347776612, 0.801704993754619, 0.08035939548206883],[0.2568509619726651, 0.6042829436966396, 0.10730694318774418]
5,85,[0.03662973235572511, 0.9737947114075823, -0.1839387925778796],[0.16567890347776612, 0.801704993754619, 0.08035939548206883],[0.2568509619726651, 0.6042829436966396, 0.10730694318774418]
5,86,[0.03662973235572511, 0.9737947114075823, -0.1839387925778796],[0.16567890347776612, 0.801704993754619, 0.08035939548206883],[0.2568509619726651, 0.6042829436966396, 0.10730694318774418]
5,87,[0.03662973235572511, 0.9737947114075823, -0.1839387925778796],[0.16567890347776612, 0.801704993754619, 0.08035939548206883],[0.2568509619726651, 0.6042829436966396, 0.10730694318774418]
5,88,[0.03662973235572511, 0.9737947114075823, -0.1839387925778796],[0.16567890347776612, 0.801704993754619, 0.08035939548206883],[0.2568509619726651, 0.6042829436966396, 0.10730694318774418]
5,89,[0.03662973235572511, 0.9737947114075823, -0.1839387925778796],[0.16567890347776612, 0.801704993754619, 0.08035939548206883],[0.2568509619726651, 0.6042829436966396, 0.10730694318774418]
5,90,[0.03662973235572511, 0.9737947114075823, -0.1839387925778796],[0.16567890347776612, 0.801704993754619, 0.08035939548206883],[0.2568509619726651, 0.6042829436966396, 0.10730694318774418]
5,91,[0.03662973235572511, 0.9737947114075823, -0.1839387925778796],[0.16567890347776612, 0.801704993754619, 0.08035939548206883],[0.2568509619726651, 0.6042829436966396, 0.10730694318774418]
5,92,[0.03662973235572511, 0.9737947114075823, -0.1839387925778796],[0.16567890347776612, 0.801704993754619, 0.08035939548206883],[0.2568509619726651, 0.6042829436966396, 0.10730694318774418]
5,93,[0.03662973235572511, 0.9737947114075823, -0.1839387925778796],[0.16567890347776612, 0.801704993754619, 0.08035939548206883],[0.2568509619726651, 0.6042829436966396, 0.10730694318774418]
5,94,[0.03662973235572511, 0.9737947114075823, -0.1839387925778796],[0.16567890347776612, 0.801704993754619, 0.08035939548206883],[0.2568509619726651, 0.6042829436966396, 0.10730694318774418]
5,95,[0.03662973235572511, 0.9737947114075823, -0.1839387925778796],[0.16567890347776612, 0.801704993754619, 0.08035939548206883],[0.2568509619726651, 0.6042829436966396, 0.10730694318774418]
5,96,[0.03662973235572511, 0.9737947114075823, -0.1839387925778796],[0.16567890347776612, 0.801704993754619, 0.08035939548206883],[0.2568509619726651, 0.6042829436966396, 0.10730694318774418]
5,97,[0.03662973235572511, 0.9737947114075823, -0.1839387925778796],[0.16567890347776612, 0.801704993754619, 0.08035939548206883],[0.2568509619726651, 0.6042829436966396, 0.10730694318774418]
5,98,[0.03662973235572511, 0.9737947114075823, -0.1839387925778796],[0.16567890347776612, 0.801704993754619, 0.08035939548206883],[0.2568509619726651, 0.6042829436966396, 0.10730694318774418]
5,99,[0.03662973235572511, 0.9737947114075823, -0.1839387925778796],[0.16567890347776612, 0.801704993754619, 0.08035939548206883],[0.2568509619726651, 0.6042829436966396, 0.10730694318774418]
6,0,[0.09551783505319829, 0.8825735964212976, -0.05828023930242006],[0.20247492781942458, 0.6521069391708693, 0.09341045959486519],[0.23790778635768423, 0.5249046875934913, 0.04039735123577145]
6,1,[0.09551783505319829, 0.8825735964212976, -0.05828023930242006],[0.20247492781942458, 0.6521069391708693, 0.09341045959486519],[0.23790778635768423, 0.5249046875934913, 0.04039735123577145]
6,2,[0.09551783505319829, 0.8825735964212976, -0.05828023930242006],[0.20247492781942458, 0.6521069391708693, 0.09341045959486519],[0.23790778635768423, 0.5249046875934913, 0.04039735123577145]
6,3,[0.09551783505319829, 0.8825735964212976, -0.05828023930242006],[0.20247492781942458, 0.6521069391708693, 0.09341045959486519],[0.23790778635768423, 0.5249046875934913, 0.04039735123577145]
6,4,[0.09551783505319829, 0.8825735964212976, -0.05828023930242006],[0.20247492781942458, 0.6521069391708693, 0.09341045959486519],[0.23790778635768423, 0.5249046875934913, 0.04039735123577145]
6,5,[0.09551783505319829, 0.8825735964212976, -0.05828023930242006],[0.20247492781942458, 0.6521069391708693, 0.09341045959486519],[0.23790778635768423, 0.5249046875934913, 0.04039735123577145]
6,6,[0.09551783505319829, 0.8825735964212976, -0.05828023930242006],[0.20247492781942458, 0.6521069391708693, 0.09341045959486519],[0.23790778635768423, 0.5249046875934913, 0.04039735123577145]
6,7,[0.09551783505319829, 0.8825735964212976, -0.05828023930242006],[0.20247492781942458, 0.6521069391708693, 0.09341045959486519],[0.23790778635768423, 0.5249046875934913, 0.04039735123577145]
6,8,[0.09551783505319829, 0.8825735964212976, -0.05828023930242006],[0.20247492781942458, 0.6521069391708693, 0.09341045959486519],[0.23790778635768423, 0.5249046875934913, 0.04039735123577145]
6,9,[0.09551783505319829, 0.8825735964212976, -0.05828023930242006],[0.20247492781942458, 0.6521069391708693, 0.09341045959486519],[0.23790778635768423, 0.5249046875934913, 0.04039735123577145]
6,10,[0.09551783505319829, 0.8825735964212976, -0.05828023930242006],[0.20247492781942458, 0.6521069391708693, 0.09341045959486519],[0.23790778635768423, 0.5249046875934913, 0.04039735123577145]
6,11,[0.09551783505319829, 0.8825735964212976, -0.05828023930242006],[0.20247492781942458, 0.6521069391708693, 0.09341045959486519],[0.23790778635768423, 0.5249046875934913, 0.04039735123577145]
6,12,[0.09551783505319829, 0.8825735964212976, -0.05828023930242006],[0.20247492781942458, 0.6521069391708693, 0.09341045959486519],[0.23790778635768423, 0.5249046875934913, 0.04039735123577145]
6,13,[0.09551783505319829, 0.8825735964212976, -0.05828023930242006],[0.20247492781942458, 0.6521069391708693, 0.09341045959486519],[0.23790778635768423, 0.5249046875934913, 0.04039735123577145]
6,14,[0.09551783505319829, 0.8825735964212976, -0.05828023930242006],[0.20247492781942458, 0.6521069391708693, 0.09341045959486519],[0.23790778635768423, 0.5249046875934913, 0.04039735123577145]
6,15,[0.09551783505319829, 0.8825735964212976, -0.05828023930242006],[0.20247492781942458, 0.6521069391708693, 0.09341045959486519],[0.23790778635768423, 0.5249046875934913, 0.04039735123577145]
