time,acc_x,acc_y,acc_z,gravity_x,gravity_y,gravity_z
1408129699486,0.3309984,1.1821371,8.492832,1.1982663,1.8388802,9.557879
1408129699487,0.2621651,0.99419224,8.430583,1.1747041,1.8427243,9.560064
1408129699487,0.3465607,0.79367787,8.537125,1.1530805,1.8350632,9.56417
1408129699495,0.49081135,0.6955156,8.830415,1.1375839,1.8131738,9.570198
1408129699515,0.6823475,0.75477207,9.279925,1.1315006,1.7823639,9.576705
1408129699515,0.80325466,0.88645315,10.17835,1.1355404,1.7396514,9.584078
1408129699526,0.58777654,0.98102415,11.285069,1.1455369,1.6883368,9.592062
1408129699543,-0.12689269,1.0163386,12.264298,1.1588814,1.6314205,9.600305
1408129699564,-0.4997896,1.0869676,12.671312,1.1602426,1.5766034,9.609295
1408129699565,-1.0726024,1.1204864,12.692861,1.1404307,1.5383343,9.617866
1408129699567,-2.2649148,1.3988123,11.918336,1.0897926,1.5283839,9.6253195
1408129699575,-2.2882583,1.4000094,11.726201,1.0058275,1.5402788,9.632562
1408129699603,-2.1757307,1.3754689,11.163564,0.918761,1.5834789,9.634254
1408129699603,-2.4600422,1.5035586,10.28549,0.83071977,1.6500264,9.631081
1408129699607,-2.7389667,1.673547,9.437345,0.7432488,1.736181,9.623078
1408129699639,-2.6725276,1.8441339,9.120112,0.648142,1.8352731,9.611559
1408129699639,-2.3391352,2.179322,9.304466,0.54429555,1.9351594,9.5984
1408129699640,-1.9710265,2.521693,10.114903,0.4408858,2.0342622,9.583203
1408129699660,-1.7178397,3.1950622,10.605117,0.3427846,2.125837,9.567325
1408129699661,-1.9788077,4.372411,10.428544,0.24976957,2.2157934,9.549778
1408129699677,-3.1172507,5.071518,10.146626,0.14676878,2.3192549,9.527324
1408129699677,-4.8069587,5.0840874,10.772711,-6.122867E-5,2.4335341,9.49991
1408129699692,-6.595427,5.085883,11.105505,-0.21848296,2.5423746,9.4688425
1408129699696,-7.788338,5.4144874,11.138425,-0.4997098,2.650823,9.428351
1408129699709,-7.78355,4.6136265,11.267712,-0.8113279,2.772544,9.371507
1408129699726,-5.783793,2.9867666,11.605893,-1.1107119,2.9019318,9.301371
1408129699741,-3.743933,2.1787236,12.487557,-1.3699661,3.031807,9.2250595
1408129699741,-1.8052281,1.2252327,12.902353,-1.574682,3.1757324,9.143603
1408129699758,0.3657143,0.53929394,12.779052,-1.6981605,3.3372521,9.06363
1408129699758,5.1062336,0.9600749,13.047801,-1.729486,3.5271235,8.98547
1408129699775,17.074848,1.8255788,12.774861,-1.6463425,3.7310083,8.918493
1408129699775,19.607914,1.1492168,10.081984,-1.2997177,3.9446526,8.88374
1408129699793,19.31223,1.0660183,8.962694,-1.2785461,4.206768,8.765775
1408129699795,10.5602255,-0.073023155,8.038532,2.7062764,1.9820995,9.215082
1408129699816,-0.02633622,-0.53211135,8.050503,3.254927,1.8977327,9.053974
1408129699817,-6.7767878,-0.18495208,7.443573,2.9937277,1.7924381,9.164886
1408129699827,-8.703522,0.6075287,6.7893577,2.2109206,1.6894556,9.403614
1408129699848,-7.5507135,1.2916719,8.363545,1.2781205,1.658575,9.580497
1408129699848,-4.7656584,2.2457612,7.915829,0.46261153,1.6609952,9.653884
1408129699855,-2.7898436,2.4756045,7.6009917,0.04008717,1.761208,9.64712
1408129699889,-3.5104983,1.6382325,7.727885,-0.185698,1.8789426,9.623174
1408129699890,-4.791396,2.1296425,7.37055,-0.5400531,1.9031886,9.60503
1408129699890,-7.49026,2.842516,8.140884,-1.0330005,1.9866701,9.547588
1408129699923,-8.986636,4.209007,7.9008656,-1.757222,2.1185553,9.412454
1408129699924,-11.046846,5.153519,5.6323595,-2.5207386,2.3744102,9.174881
1408129699924,-9.546281,5.5737014,3.833117,-3.3970685,2.7393405,8.78216
1408129699927,-4.016872,6.4751186,4.824915,-4.057838,3.1619391,8.349041
1408129699947,-0.6242881,7.380127,3.196858,-4.1032424,3.6671262,8.117017
1408129699947,1.9297266,8.429984,1.8710686,-3.854967,4.302234,7.92467
1408129699955,3.8127663,9.313444,0.86251116,-3.3709967,5.068369,7.6888494
1408129699990,5.2905874,10.007763,-0.2825158,-2.702194,5.9199905,7.3363657
1408129699991,6.6624646,10.538677,-0.79726917,-1.8290628,6.7944603,6.830829
1408129699992,7.921815,10.494385,-0.51475334,-0.79295325,7.5714087,6.18186
1408129700019,8.719683,8.974067,6.728904,0.33909327,8.10754,5.50665
1408129700019,7.079654,9.138668,8.866926,1.3495208,7.9637175,5.5613294
1408129700020,5.465364,9.4696665,7.4345946,1.922148,7.723581,5.7290535
1408129700029,3.8013937,8.915408,5.777807,2.253547,7.652855,5.7031336
1408129700043,2.9161377,8.545505,5.036802,2.363542,7.717768,5.56957
1408129700064,1.644218,7.6003933,2.9843724,2.430952,7.795346,5.430787
1408129700064,-0.20470424,7.3100963,1.5580268,2.3503194,7.92467,5.2769303
1408129700067,-2.1936872,7.3777328,2.368464,2.0847845,8.132085,5.068854
1408129700076,-3.2902317,7.693767,4.0785227,1.631239,8.310147,4.944785
1408129700105,-3.369839,7.7829514,4.3664255,1.0897952,8.386026,4.965612
1408129700106,-3.104681,7.8086886,3.9193082,0.59511673,8.428275,4.977991
1408129700107,-2.6509798,7.6470804,3.678691,0.19384365,8.469576,4.9395437
1408129700132,-1.9800048,7.6135616,3.271078,-0.10675721,8.509135,4.8737683
1408129700133,-1.4083891,7.6614456,2.7012582,-0.30871955,8.558068,4.7785516
1408129700137,-0.98341835,7.6452847,2.5761611,-0.43648812,8.629867,4.6373806
1408129700170,-0.5793968,7.6015906,2.883816,-0.50370765,8.699721,4.497945
1408129700171,-0.2861071,7.6410947,3.1334114,-0.5212783,8.747574,4.4021153
1408129700171,0.207697,7.86196,2.9293058,-0.49598816,8.778387,4.3433065
1408129700175,1.1941081,7.97748,2.767697,-0.41686216,8.822248,4.2619896
1408129700197,1.8740613,7.949348,2.7665,-0.22981353,8.873814,4.1680923
1408129700198,2.082357,7.8571715,2.6168625,0.014302776,8.915757,4.0840483
1408129700210,2.019509,7.7548194,1.9081788,0.24720797,8.952009,3.9963515
1408129700241,1.8668787,7.8475947,0.6721721,0.44385093,9.008187,3.8504498
1408129700242,1.0354922,8.058883,-0.23283611,0.6155883,9.108324,3.5818791
1408129700243,-0.670975,7.843405,0.12270284,0.66012776,9.233253,3.23754
1408129700270,-3.2399535,7.2568254,3.903746,0.49426588,9.329695,2.9804187
1408129700271,-4.3299136,7.228095,6.0866594,0.030392252,9.271399,3.1954093
1408129700271,-4.695628,7.5495167,5.6389437,-0.50097084,9.104785,3.608642
1408129700275,-5.00448,7.7093296,6.3153057,-0.9821045,8.955714,3.8731198
1408129700298,-4.7040076,8.112753,4.95899,-1.4183073,8.771561,4.1495175
1408129700299,-3.9845502,8.577228,3.570952,-1.7629353,8.6695795,4.230939
1408129700307,-3.433884,9.284714,3.5697548,-2.0067637,8.657725,4.145732
1408129700334,-2.9562407,9.892242,3.7984009,-2.1473303,8.672492,4.0431743
1408129700335,-2.2691047,10.144233,4.490924,-2.2041664,8.693699,3.9663134
1408129700336,-1.6340426,10.152613,4.8979383,-2.1757665,8.705086,3.957007
1408129700372,-0.8738836,9.921572,4.712986,-2.080425,8.714425,3.9876096
1408129700372,-0.0047884034,9.5385,4.359243,-1.9330597,8.736069,4.0143204
1408129700373,0.74519527,9.306861,4.0479965,-1.7254388,8.776474,4.020789
1408129700376,1.323395,9.136273,4.06715,-1.4767683,8.8272295,4.0086856
1408129700403,1.3443443,8.890868,3.508104,-1.1979101,8.869405,4.0086246
1408129700404,1.1246762,8.430583,2.9352913,-0.9489804,8.915957,3.9718442
1408129700408,0.7565677,8.102577,2.6048915,-0.75417566,8.963815,3.9053326
1408129700425,0.15622166,7.9822683,2.405574,-0.6117052,9.007852,3.8281605
1408129700439,-0.8559271,7.968502,3.354875,-0.5540745,9.046538,3.7448006
1408129700439,-0.6476316,8.467693,4.0144777,-0.60220873,9.037078,3.7601788
1408129700457,-0.8038532,8.362348,5.5683146,-0.61670595,9.010984,3.819975
1408129700458,-1.18094,8.051102,7.7410526,-0.6393505,8.926486,4.009919
1408129700471,-1.4281414,8.038532,6.184223,-0.6921516,8.755466,4.3626986
1408129700476,-1.1911154,8.470087,3.8953662,-0.7676664,8.659716,4.5376654
1408129700495,-1.0253168,9.108142,2.9741971,-0.820582,8.688387,4.4731393
1408129700496,-1.3245921,9.647436,3.5170822,-0.8440884,8.7695,4.307408
1408129700536,-1.7381904,10.09156,4.561553,-0.8851785,8.819487,4.1956525
1408129700537,-2.2882583,10.056246,4.867412,-0.9531483,8.8198395,4.179992
1408129700537,-1.2683283,10.432136,4.3436804,-1.0664659,8.802599,4.1889486
1408129700538,-1.1611878,10.702681,4.9781437,-1.0641962,8.828292,4.1351085
1408129700568,-1.3533225,10.183737,5.1882353,-1.0487701,8.833493,4.1279383
1408129700568,-1.271321,9.745,4.9548006,-1.0540695,8.820382,4.1545396
1408129700570,-0.98581254,8.364143,4.0898952,-1.060469,8.810395,4.174053
1408129700576,-0.75118077,5.34326,1.6621746,-1.0541979,8.813661,4.1687436
1408129700608,-0.3633201,6.1261635,2.1392193,-1.0629193,8.853218,4.0818057
1408129700609,-0.9792285,7.219715,4.421492,-1.0186868,8.886736,4.0197744
1408129700610,-1.2755109,8.203134,4.3155484,-1.0188302,8.839889,4.121741
1408129700633,-1.1785458,8.831013,3.567959,-1.0436206,8.809512,4.18016
1408129700633,-1.0313023,9.023148,3.3620577,-1.0616285,8.827517,4.1374245
1408129700636,-0.90261406,8.819042,3.5691562,-1.0679383,8.863408,4.058314
1408129700670,-0.6877344,8.487445,3.8379054,-1.058889,8.886729,4.009387
1408129700671,-0.7254431,7.9768815,3.9905357,-1.0231812,8.891178,4.0087976
1408129700671,-0.82899237,8.293514,4.1533413,-0.99850357,8.878411,4.0431676
1408129700676,-0.9636662,8.567651,4.0186677,-0.98387915,8.866414,4.072969
1408129700692,-1.0175357,8.781333,3.8349125,-0.9802885,8.866484,4.0736833
1408129700711,-0.95468795,9.032724,3.8624458,-0.9823821,8.875728,4.0529976
1408129700711,-0.8463503,8.846576,3.4973302,-0.98350954,8.885427,4.0314126
1408129700716,-0.94570965,8.6257105,3.393781,-0.9826949,8.9058485,3.9862993
1408129700740,-1.1605892,8.643666,3.4991257,-0.9887661,8.924424,3.943018
1408129700740,-1.3628993,8.7370405,3.4835634,-1.0041031,8.93611,3.9125578
1408129700756,-1.4377182,8.768764,3.3183637,-1.0372144,8.946525,3.879983
1408129700757,-1.3365631,8.702325,3.0771477,-1.0648259,8.96303,3.834141
1408129700778,-1.2599486,8.350976,3.068768,-1.0845462,8.984819,3.777192
1408129700779,-1.1174936,7.9182234,3.3022027,-1.1095946,8.997993,3.7383575
1408129700788,-1.1180922,7.824251,3.887585,-1.131361,8.994156,3.741065
1408129700815,-1.0199299,7.878121,4.1599255,-1.1526364,8.96606,3.8015254
1408129700815,-0.2669535,8.279149,3.7984009,-1.1539111,8.933469,3.8771133
1408129700816,0.9588778,8.853758,3.3213563,-1.0765548,8.932045,3.9025626
1408129700843,0.8182184,9.025542,2.9867666,-0.875622,8.971442,3.86224
1408129700843,0.22505496,8.436568,2.5049336,-0.7197604,9.017527,3.7863648
1408129700848,0.36391866,8.585009,0.7589619,-0.65640575,9.059325,3.697043
1408129700856,0.27952304,10.394426,3.514688,-0.5799675,9.16063,3.4520857
1408129700889,-2.267309,10.681731,4.805163,-0.49070057,9.176164,3.4245627
1408129700890,-4.997896,8.949526,5.141548,-0.6794935,9.129152,3.5167117
1408129700891,-3.9384618,7.939771,3.1639376,-1.1267066,9.024098,3.6696835
1408129700918,-0.2837129,9.573814,4.188656,-1.4287188,8.991834,3.6436377
1408129700918,-0.93613285,8.860941,5.201403,-1.285447,9.006337,3.6611333
1408129700919,-0.90620536,8.896255,4.931457,-1.2249146,8.958997,3.7955725
1408129700940,-1.2042835,10.1621895,4.731541,-1.1854497,8.921574,3.8949475
1408129700940,-2.046444,11.201871,4.7070007,-1.1748414,8.913509,3.9165635
1408129700955,-3.093907,11.128848,3.5206735,-1.2327828,8.917881,3.8887057
1408129700956,-2.231396,11.299435,3.2692823,-1.3963965,8.944368,3.7707758
1408129700981,-2.333748,9.639654,2.9179332,-1.4647377,8.984659,3.6470332
1408129700981,-1.4706384,7.662044,3.74094,-1.5525682,9.005874,3.5572693
1408129701016,-0.6572084,6.2901664,3.8630445,-1.5652994,8.983843,3.6070495
1408129701016,-0.9983821,6.1010246,3.821146,-1.5124831,8.948145,3.7166524
1408129701017,-1.1456255,6.1985884,3.5625722,-1.4892032,8.912797,3.8098192
1408129701017,-1.6639702,6.9743094,3.5098996,-1.4775692,8.886594,3.8750043
1408129701043,-1.7160441,7.5016327,5.213374,-1.5114268,8.868844,3.9025073
1408129701043,-7.371747,8.937555,9.375694,-1.5252872,8.796374,4.0580387
1408129701049,-2.171541,10.469844,2.6593595,-2.0343406,8.500269,4.4471655
1408129701056,1.0001777,13.162124,3.5913026,-2.0141547,8.614764,4.230769
1408129701084,2.8365304,8.2354555,-3.7978024,-1.6701887,8.792108,4.0099516
1408129701086,0.29987377,5.9118824,-0.80325466,-1.2520725,9.127619,3.3599522
1408129701088,-0.44592008,9.442732,4.1742907,-1.1511712,9.236151,3.0884833
1408129701123,0.16101007,11.766304,4.1252093,-1.1092813,9.209184,3.1828976
1408129701124,-0.6715736,10.423756,3.2237926,-0.9446885,9.2298765,3.1760583
1408129701127,-1.4676456,9.436148,2.9574378,-0.8720213,9.257388,3.116204
1408129701150,-0.7745243,9.900024,2.8892028,-0.9157895,9.266398,3.0766199
1408129701151,-0.26036942,10.086173,2.4223335,-0.8824325,9.287888,3.0210698
1408129701151,-0.16759412,9.450513,1.8207904,-0.7980981,9.323976,2.9320478
1408129701156,-0.022744916,10.301651,2.304419,-0.7212309,9.365572,2.817141
1408129701173,-0.29269117,9.194333,2.6617537,-0.6203989,9.398593,2.729827
1408129701194,-0.705691,8.456919,2.2403743,-0.5487707,9.410227,2.7049732
1408129701194,-0.46806642,9.164406,1.7076644,-0.5326431,9.421794,2.667675
1408129701196,-0.32561144,9.933543,1.3790601,-0.5083914,9.448779,2.575367
1408129701223,-0.89603,8.351574,1.4437037,-0.49410054,9.4798765,2.4613366
1408129701224,-0.5446809,8.227076,2.03567,-0.5708432,9.488972,2.40914
1408129701239,0.26276365,8.639477,2.2391772,-0.60323983,9.481956,2.428791
1408129701239,-0.12389994,9.603143,1.4496891,-0.5367938,9.477548,2.4613686
1408129701256,-0.17058687,10.491392,1.4107834,-0.51568913,9.499478,2.3799965
1408129701257,-0.29149407,10.694899,1.3874398,-0.48714748,9.527326,2.2722511
1408129701272,-0.3854665,9.735423,1.4293385,-0.48349714,9.550134,2.1752162
1408129701290,-0.37110126,9.629479,1.1941081,-0.48478442,9.5655575,2.1060617
1408129701291,-0.43155485,9.721058,1.5747862,-0.5087026,9.561971,2.1166797
1408129701303,-0.5189432,8.787319,1.8273745,-0.53876346,9.554827,2.1413581
1408129701321,-0.1364695,8.5143795,1.8710686,-0.58732414,9.542793,2.1818695
1408129701321,0.25917232,10.655395,1.9267339,-0.6474573,9.532531,2.2095366
1408129701340,0.6374562,12.841301,2.5318682,-0.69814044,9.527266,2.2168047
1408129701340,-0.017956512,16.299126,2.4905684,-0.734897,9.526862,2.206622
1408129701358,-0.3585317,13.778631,1.7555484,-0.7747372,9.535492,2.1551204
1408129701359,-0.8146271,1.9081788,1.1246762,-0.8376686,9.54459,2.0903342
1408129701375,-0.43275195,7.319673,0.6290765,-0.93667376,9.546501,2.0389612
1408129701377,-0.6087258,11.204864,1.5328877,-1.0332576,9.555368,1.9487696
1408129701388,-0.8972271,11.15279,1.8914193,-1.1067686,9.566366,1.8520486
1408129701412,-1.6645688,7.6231384,1.70946,-1.1452385,9.575142,1.7819939
1408129701413,-1.4000094,6.8809357,0.93254155,-1.1987504,9.579375,1.7230593
1408129701417,-1.4790181,6.743868,0.6362591,-1.2552332,9.588058,1.6321535
1408129701449,-1.6112977,7.007828,0.45310268,-1.2976834,9.599617,1.5276731
1408129701450,-1.3628993,7.6129627,0.29568392,-1.3152825,9.611472,1.435275
1408129701451,-1.0115502,8.391078,0.27234045,-1.3179808,9.621392,1.3646003
1408129701466,-0.9935937,9.082404,0.5470751,-1.3145378,9.630305,1.3036929
1408129701499,-1.2665327,8.926781,0.8026561,-1.309346,9.635304,1.2715774
1408129701527,-1.4209588,9.132084,0.88765025,-1.3087026,9.635985,1.2670834
1408129701527,-1.6849195,8.602965,0.99898064,-1.3112191,9.634096,1.2787848
1408129701528,-1.4425066,8.381501,0.8242039,-1.3188732,9.630062,1.3011012
1408129701548,-1.1252748,8.476671,0.7763199,-1.3229449,9.626436,1.3236017
1408129701549,-0.7990648,8.376115,0.7906851,-1.3222239,9.623688,1.3441509
1408129701549,-0.6937199,9.035119,0.97264445,-1.315715,9.622462,1.3592309
1408129701550,-0.90500826,9.667787,1.0899603,-1.3050444,9.62318,1.3644232
1408129701571,-1.0684125,9.57142,0.9391256,-1.2959808,9.625531,1.3564707
1408129701571,-1.049259,9.599552,0.7350199,-1.2886947,9.629784,1.3330133
1408129701592,-0.8762778,9.482236,0.7445967,-1.2794393,9.636098,1.2957772
1408129701616,-0.90740246,9.48044,0.760159,-1.2656089,9.643371,1.2546157
1408129701618,-1.1079168,9.840169,0.8158242,-1.2513956,9.650486,1.2134689
1408129701618,-1.1414356,9.809643,0.6655881,-1.2343731,9.657541,1.1741418
1408129701635,-0.99179804,9.64983,0.55605334,-1.2122823,9.665182,1.1335907
1408129701636,-1.0528502,9.979631,0.7284359,-1.1822572,9.673662,1.0922079
1408129701650,-0.8158242,9.797672,0.6655881,-1.1460557,9.682256,1.0539736
1408129701651,-0.5614403,9.648034,0.52732295,-1.1009057,9.691446,1.0169954
1408129701667,-0.46866497,9.081805,0.2801216,-1.051008,9.700932,0.9786121
1408129701689,-0.3752911,8.689157,0.18076223,-0.9998851,9.710394,0.9374774
1408129701690,-0.260968,8.920197,0.33399114,-0.9524634,9.718897,0.89791894
1408129701719,-0.4429273,8.96449,0.7104794,-0.91231436,9.725601,0.866471
1408129701720,-0.7781156,8.190564,0.6356605,-0.88722396,9.729411,0.8496074
1408129701720,-0.93493575,7.9583263,0.2681506,-0.8777379,9.73124,0.8384088
1408129701721,-0.9504981,7.976283,-0.05686229,-0.87596,9.732592,0.8244831
1408129701721,-0.9259575,9.056666,0.18555063,-0.87578535,9.733914,0.80887234
1408129701742,-0.6607997,9.247005,0.29568392,-0.8771976,9.734434,0.8010724
1408129701742,-0.4758476,9.210494,0.36870706,-0.8756984,9.734243,0.80503386
1408129701749,-0.58418524,9.67018,0.42676646,-0.8722174,9.733551,0.8170775
1408129701784,-0.6967127,9.97604,0.50397944,-0.87169415,9.732409,0.8311268
1408129701784,-0.83018947,10.236409,0.6039374,-0.87394017,9.731008,0.84505665
1408129701785,-0.8726865,10.177752,0.7116765,-0.8772319,9.729468,0.85924995
1408129701789,-0.8182184,9.837775,0.83617496,-0.87771314,9.727977,0.8755015
1408129701816,-0.6913257,9.446322,1.1540052,-0.8741514,9.726381,0.8965391
1408129701817,-0.587178,9.450513,1.2515689,-0.8666509,9.724612,0.9226097
1408129701818,-0.63087213,9.230247,0.6925228,-0.8555669,9.723399,0.945472
1408129701842,-0.39803603,10.951677,0.8343793,-0.843898,9.723924,0.9505448
1408129701843,-0.6386533,11.572374,1.0516531,-0.82568955,9.725615,0.94924587
1408129701849,-0.6895301,11.735778,1.5412674,-0.81036544,9.727364,0.94452184
1408129701882,-0.7493851,11.429919,1.0869676,-0.8011082,9.728019,0.9456703
1408129701883,-1.0773908,10.857106,0.9864111,-0.79331166,9.72968,0.93507785
1408129701884,-0.91219085,9.712678,1.1115081,-0.78065425,9.7325945,0.91518134
1408129701921,-0.81761986,9.187749,1.0055647,-0.7560753,9.736297,0.89625555
1408129701922,-0.7858967,8.364742,0.81761986,-0.7219728,9.740307,0.88066417
1408129701924,-0.82779527,7.5231805,0.36152446,-0.6861717,9.744612,0.86144924
1408129701924,-0.5734113,6.519411,0.16519992,-0.64736456,9.749878,0.8313827
1408129701944,-0.23463176,5.7389016,-0.3417723,-0.60706633,9.755349,0.79687834
1408129701944,-0.2184709,7.515399,-0.7110779,-0.56871027,9.760411,0.7624561
1408129701951,-0.2705448,8.695142,0.39923313,-0.5382616,9.764676,0.72924227
1408129701979,-0.23283611,8.604761,0.62488663,-0.51948607,9.766424,0.71937734
1408129701980,0.0053869537,8.103774,0.85054016,-0.50647235,9.767086,0.7196674
1408129701981,0.09696517,7.627927,0.99419224,-0.4983914,9.766723,0.7301642
1408129701989,0.02633622,7.6051817,0.8535329,-0.4941305,9.76617,0.74037665
1408129702014,0.12749124,8.115147,0.3477578,-0.49756625,9.765517,0.7466525
1408129702015,-0.31902736,8.81605,0.44592008,-0.5092394,9.765072,0.7446189
1408129702018,-0.5907693,9.188946,0.76434886,-0.53317165,9.763739,0.7453451
1408129702050,-0.6422446,9.455899,0.81881696,-0.5674668,9.760727,0.7593417
1408129702050,-1.1869255,9.70789,0.641646,-0.60642976,9.756853,0.77874464
1408129702051,-1.4137762,10.213066,0.6254852,-0.6574387,9.751371,0.80556774
1408129702076,-1.0450691,10.548853,0.8230068,-0.7129697,9.744474,0.8410055
1408129702076,-0.3597288,10.506355,1.3862427,-0.76036596,9.737098,0.88382447
1408129702078,0.15143326,9.251195,1.7735049,-0.7923459,9.730248,0.9299785
1408129702105,0.23762453,6.4152637,0.34835634,-0.8151411,9.724773,0.966824
1408129702106,-0.55006784,8.267777,0.008978256,-0.843931,9.721257,0.97742176
1408129702121,-1.3640964,9.5013895,0.7679402,-0.8899667,9.720367,0.9448916
1408129702122,-1.8016368,10.400413,0.55485624,-0.9614637,9.716288,0.91636693
1408129702136,-1.1444284,11.127651,0.7386112,-1.0496026,9.707025,0.91782993
1408129702137,-0.96426475,10.803835,1.5879543,-1.1298772,9.696869,0.92979443
1408129702156,-0.74878657,9.730036,0.90261406,-1.1955875,9.687012,0.95014846
1408129702157,-1.1390414,10.061034,1.0660183,-1.2450138,9.679618,0.9619417
1408129702169,-1.6220716,11.142614,1.7435774,-1.2901455,9.672944,0.9695786
1408129702196,-1.9081788,11.455058,1.525705,-1.327002,9.667543,0.9736893
1408129702196,-2.2284033,9.853337,2.5887306,-1.3571513,9.663321,0.9740347
1408129702198,-0.8631097,8.339603,0.6314707,-1.3829716,9.659845,0.97220355
1408129702226,-1.5664065,8.945336,-1.2030864,-1.3859661,9.664888,0.9162167
1408129702226,-1.6466122,10.380061,-0.30645782,-1.3957741,9.6743,0.79381216
1408129702229,-1.2916719,10.014347,0.83617496,-1.4092242,9.681821,0.6684694
1408129702238,-0.91937345,9.631275,0.676362,-1.4190571,9.68452,0.605606
1408129702259,-0.8655039,9.467272,0.712275,-1.4168732,9.685038,0.60242105
1408129702259,-1.13964,9.185953,0.8415619,-1.4078753,9.685586,0.61455536
1408129702269,-1.283292,9.190742,0.6943185,-1.400576,9.686026,0.62424165
1408129702285,-1.448492,9.314043,0.60094464,-1.3955424,9.686455,0.62885314
1408129702302,-1.2084733,9.295488,0.4297592,-1.392834,9.686912,0.6278101
1408129702303,-1.316811,9.385271,0.5674258,-1.387415,9.687983,0.623272
1408129702323,-1.2946646,9.44752,0.7116765,-1.3826252,9.689021,0.6177452
1408129702324,-1.1803415,9.470264,0.81163436,-1.3779483,9.689941,0.6137615
1408129702329,-1.1324574,9.43495,0.82779527,-1.3721963,9.690866,0.6120315
1408129702338,-1.1432313,9.7007065,0.89303726,-1.3652797,9.691901,0.6110852
1408129702359,-0.97503865,9.328408,0.6667852,-1.3577362,9.693005,0.6104049
1408129702360,-0.95947635,9.604341,0.7445967,-1.3490125,9.694494,0.60608137
1408129702393,-0.7679402,9.318831,0.4938041,-1.3387955,9.696415,0.59797794
1408129702393,-0.7930793,9.163807,0.54288524,-1.3247215,9.699165,0.5845339
1408129702394,-0.7170634,9.057265,0.7757214,-1.3083719,9.702188,0.5710743
1408129702398,-0.7092823,8.878299,0.8379706,-1.2917498,9.704921,0.5623961
1408129702441,-0.7457938,8.856153,0.58298814,-1.2763575,9.707223,0.5577796
1408129702442,-0.7505822,8.895657,0.46387658,-1.2621952,9.709598,0.5486153
1408129702444,-0.65242,9.024943,0.26755205,-1.2484219,9.712162,0.53456277
1408129702445,-0.48482585,9.1829605,-0.02813187,-1.2323558,9.715497,0.51072174
1408129702450,-0.45070848,9.200318,0.044292733,-1.2127655,9.719621,0.4780832
1408129702478,-0.41359833,9.248801,0.26515785,-1.1921148,9.723694,0.44610363
1408129702478,-0.31124622,9.285313,0.3393781,-1.1720947,9.727092,0.42456815
1408129702479,-0.32321724,9.31105,0.41180268,-1.1523694,9.730047,0.4106343
1408129702512,-0.3465607,9.382876,0.48123455,-1.1339304,9.73272,0.39842713
1408129702513,-0.31184477,9.505579,0.3561375,-1.1190487,9.734917,0.38673416
1408129702514,-0.26635495,9.588778,0.23223756,-1.1068988,9.736837,0.3730515
1408129702518,-0.34835634,9.60853,0.18195933,-1.0960162,9.73869,0.3564434
1408129702543,-0.50637364,9.625289,0.0700304,-1.0881121,9.740228,0.3382313
1408129702543,-0.58418524,9.6845455,-0.17298107,-1.0841066,9.741364,0.31775257
1408129702552,-0.65900403,9.694721,-0.20649989,-1.0823859,9.742323,0.2932378
1408129702580,-0.7230489,9.674969,-0.12629414,-1.0820663,9.743077,0.26830834
1408129702581,-0.82899237,9.618107,0.055066638,-1.0836926,9.743437,0.24788563
1408129702581,-0.87807345,9.542689,0.10354923,-1.0874484,9.743344,0.23473488
1408129702609,-0.95708215,9.444528,0.065242,-1.0919149,9.74308,0.22475281
1408129702609,-0.9792285,9.427169,0.060453594,-1.0974238,9.742726,0.21298264
1408129702615,-0.83737206,9.424176,-0.012569559,-1.102203,9.742518,0.19718134
1408129702618,-0.93852705,9.334992,-0.17238252,-1.1047043,9.742611,0.1776235
1408129702634,-0.9672575,9.317635,-0.27234045,-1.1079202,9.74271,0.15004921
1408129702653,-0.9295488,9.3182335,-0.28790274,-1.1141925,9.742433,0.11816767
1408129702653,-0.8678981,9.390657,-0.26874915,-1.1230168,9.7417345,0.088642746
1408129702666,-0.88645315,9.4774475,-0.23523031,-1.1313125,9.740954,0.06565288
1408129702683,-0.82779527,9.457097,-0.2908955,-1.1383008,9.74024,0.048915584
1408129702683,-0.7763199,9.361927,-0.26515785,-1.143132,9.739728,0.03621246
1408129702703,-0.76434886,9.291897,-0.28909984,-1.1469277,9.739317,0.0259146
1408129702703,-0.635062,9.394249,-0.04070143,-1.1503567,9.738931,0.017237829
1408129702717,-0.63206923,9.276335,0.04249708,-1.1522577,9.738718,0.010918735
1408129702718,-0.5955577,9.270349,0.0796072,-1.1550572,9.738389,0.0049515627
1408129702733,-0.5482722,9.327211,-0.035913024,-1.1586747,9.73796,-0.0031813404
1408129702750,-0.44891283,9.500791,-0.2908955,-1.1641836,9.73729,-0.015883608
1408129702750,-0.45130703,9.657611,-0.4321534,-1.1699885,9.736554,-0.032556053
1408129702765,-0.55006784,9.785701,-0.45549688,-1.1783243,9.735461,-0.05216805
1408129702770,-0.5506664,9.710283,-0.492607,-1.1888096,9.734071,-0.070567
1408129702783,-0.58298814,9.610326,-0.55365914,-1.19933,9.732671,-0.08438496
1408129702802,-0.6757634,9.661202,-0.51475334,-1.2100197,9.73125,-0.09508937
1408129702803,-0.7745243,9.574412,-0.24181437,-1.221107,9.729753,-0.10579255
1408129702815,-0.8230068,9.291897,0.130484,-1.2324177,9.728238,-0.11367561
1408129702818,-0.83856916,9.485229,0.30406362,-1.2440394,9.726735,-0.11569261
1408129702831,-1.027711,9.950901,-0.23523031,-1.2525873,9.725653,-0.11451195
1408129702850,-0.90021986,10.344149,-0.74758947,-1.2577962,9.724852,-0.124930255
1408129702879,-0.4441244,9.841366,-1.0223241,-1.2557675,9.724672,-0.15545937
1408129702880,-0.8583213,9.31943,-0.83018947,-1.2411522,9.725782,-0.19769013
1408129702881,-1.1079168,8.985439,-0.6194997,-1.226076,9.726805,-0.23748168
1408129702882,-1.54845,8.63828,0.14724341,-1.2156096,9.727175,-0.2734636
1408129702902,-1.8177977,8.552687,0.5746084,-1.2177957,9.726306,-0.29384217
1408129702902,-1.5275006,8.556877,0.011971008,-1.2258832,9.725219,-0.2962256
1408129702929,-1.0666169,8.634089,-0.7338228,-1.2270815,9.724983,-0.29890025
1408129702930,-1.2569559,8.480861,-0.9427169,-1.2150441,9.7258005,-0.32075924
1408129702931,-0.6314707,9.007586,-1.0564415,-1.2005413,9.726358,-0.35642928
1408129702962,-0.5267244,9.405023,-0.97144735,-1.1817265,9.727231,-0.3935844
1408129702962,-0.06823475,10.02153,-0.9463082,-1.1618093,9.72841,-0.42265362
1408129702964,0.3477578,10.739192,-1.0378864,-1.1342614,9.730738,-0.44338843
1408129702985,-0.25917232,10.87207,-1.1049241,-1.0999525,9.733819,-0.461837
1408129702986,-1.3371617,10.498574,-0.8924387,-1.0734969,9.735794,-0.48200008
1408129703003,-1.5167267,10.105327,-0.6003461,-1.0661055,9.735667,-0.5006114
1408129703003,-1.009156,9.74859,-0.55246204,-1.0691046,9.734841,-0.51016426
1408129703025,-0.41958386,9.455301,-0.6667852,-1.0308303,9.738841,-0.51260036
1408129703026,0.079008654,9.255983,-0.7128736,-1.0308303,9.738841,-0.51260036
1408129703032,0.27952304,9.068638,-0.6536171,-1.0308303,9.738841,-0.51260036
1408129703055,-0.1328782,9.027337,-0.40521863,-1.0001979,9.74205,-0.5122863
1408129703055,-1.2384008,8.995016,0.16519992,-0.97609735,9.744726,-0.5078967
1408129703058,-1.4682442,9.34038,-0.10414778,-0.9697677,9.745997,-0.495448
1408129703090,-0.7661445,9.782109,-0.79966336,-0.968494,9.746654,-0.48496392
1408129703092,-0.31304187,9.625289,-1.3467385,-0.9559261,9.747755,-0.48775095
1408129703093,0.40462008,9.449914,-1.555034,-0.92134696,9.750123,-0.5065637
1408129703099,0.7068881,9.123106,-1.3072342,-0.8606263,9.754282,-0.53263545
1408129703125,0.96665895,9.266159,-1.1552023,-0.7841679,9.7594595,-0.55534583
1408129703126,0.74639237,9.337387,-0.9103952,-0.70044225,9.764948,-0.5705849
1408129703130,0.45190558,9.287108,-0.62967503,-0.6287978,9.769609,-0.5742115
1408129703162,0.9103952,9.208698,-0.8924387,-0.5685781,9.7734785,-0.57118636
1408129703164,1.4275428,9.2069025,-1.2455834,-0.51799184,9.776497,-0.5676223
1408129703165,1.395221,9.1272955,-1.2084733,-0.4711758,9.778824,-0.5683504
1408129703188,0.97144735,9.214086,-0.9624691,-0.43495908,9.780393,-0.57021165
1408129703189,0.7457938,9.564836,-0.7308301,-0.42045206,9.781274,-0.56595105
1408129703190,0.47405192,9.739014,-0.42437226,-0.42823955,9.781769,-0.5513774
1408129703198,0.46208093,9.442133,-0.47165772,-0.44613382,9.782129,-0.53036505
1408129703224,0.49919105,9.272743,-0.7918822,-0.47187495,9.782196,-0.5063608
1408129703225,0.52612585,9.305065,-0.9864111,-0.49817753,9.781773,-0.48900795
1408129703230,0.52133745,9.210494,-0.84814596,-0.52272075,9.780829,-0.48222587
1408129703257,0.42676646,9.279327,-0.6847417,-0.54770875,9.779671,-0.4779697
1408129703257,0.49679685,9.4457245,-0.7721301,-0.5748826,9.77859,-0.46809387
1408129703259,0.5758055,9.585187,-0.8643068,-0.6028904,9.777639,-0.45241863
1408129703284,0.7691373,9.605537,-0.94211835,-0.62976664,9.776713,-0.4355112
1408129703284,1.1025299,9.482835,-1.0073603,-0.6532494,9.775952,-0.4176234
1408129703303,1.2611457,9.376891,-0.85473,-0.6723948,9.77544,-0.39882532
1408129703303,1.210269,9.452907,-0.5141548,-0.6915079,9.775068,-0.37452552
1408129703310,1.3796587,9.543886,-0.23822308,-0.7156824,9.774637,-0.3386048
1408129703345,1.7411832,9.509171,-0.092775315,-0.74337566,9.774086,-0.29157642
1408129703346,2.0691888,9.57142,-0.29209262,-0.7678689,9.773537,-0.2423727
1408129703347,2.3349452,9.753379,-0.2172738,-0.78445274,9.773145,-0.20157112
1408129703351,2.5480292,9.849147,0.27114335,-0.7896915,9.77327,-0.17317006
1408129703388,2.6809072,9.847352,0.8463503,-0.7865308,9.773928,-0.14868923
1408129703389,2.6192567,9.799467,1.0181342,-0.7767096,9.77515,-0.11643054
1408129703390,2.0847511,9.848549,1.5227122,-0.76226914,9.776705,-0.07340198
1408129703425,1.258153,10.146626,1.9452889,-0.74835676,9.778035,-0.019509071
1408129703425,0.39384618,10.220847,1.903989,-0.7401972,9.778597,0.039045032
1408129703426,-0.439336,10.093954,1.2389994,-0.73663956,9.778482,0.095186524
1408129703426,-1.0845734,9.900024,0.5189432,-0.73457664,9.77818,0.13403288
1408129703431,-1.6537948,9.815628,-0.22625206,-0.72932875,9.7782955,0.15303318
1408129703455,-2.1613655,9.970653,-0.8996213,-0.72168034,9.778832,0.15501098
1408129703455,-2.6318262,10.201694,-1.6208745,-0.7136456,9.779588,0.14403719
1408129703459,-2.1200657,10.070012,-2.8419175,-0.7079924,9.780289,0.12287724
1408129703495,-2.9574378,9.662399,-2.554613,-0.68857133,9.782037,0.08954616
1408129703496,-4.0216603,9.850345,-1.2725182,-0.6685429,9.783631,0.063064784
1408129703496,-3.8175547,10.101137,-0.22325931,-0.66139084,9.784086,0.067911856
1408129703499,-3.0095115,10.819398,0.14544775,-0.6519671,9.784383,0.10569113
1408129703524,-2.8113914,11.845313,0.39264908,-0.617657,9.785977,0.15345953
1408129703525,-2.9299042,12.766482,0.54049104,-0.5681484,9.788059,0.20374915
1408129703531,-3.2291796,12.934674,0.61112,-0.5210164,9.789444,0.2564317
1408129703550,-3.8504748,12.401366,0.6955156,-0.4842007,9.789777,0.31018728
1408129703552,-4.1533413,11.504738,0.8283938,-0.46060464,9.788991,0.36588246
1408129703565,-4.115034,10.425551,1.3108255,-0.44073287,9.78756,0.4240338
1408129703593,-4.1772833,9.733028,2.0775685,-0.41545573,9.785518,0.49135864
1408129703594,-3.7726634,9.405622,2.397793,-0.38304263,9.782254,0.5754695
1408129703594,-2.7623103,9.647436,2.3062148,-0.34173456,9.778142,0.66448516
1408129703599,-1.6944963,9.941922,2.0961237,-0.2820123,9.773914,0.7493179
1408129703625,-0.5931635,10.186729,1.7860745,-0.20232897,9.770112,0.821192
1408129703626,0.7882909,9.911396,1.489792,-0.10689751,9.766649,0.8783639
1408129703633,1.6394296,9.694721,0.86729956,0.001990224,9.763155,0.9225978
1408129703661,2.0811598,10.176555,0.3633201,0.11614699,9.759594,0.9524919
1408129703662,2.2182279,10.15381,0.073023155,0.22677696,9.75591,0.9701623
1408129703662,2.0751743,9.6049385,0.04129998,0.33208779,9.75148,0.98425657
1408129703709,1.6346412,8.929773,0.47764325,0.42262337,9.746069,1.0029721
1408129703711,1.2976574,8.376115,1.0313023,0.49602228,9.739145,1.036059
1408129703712,0.95827925,7.9702973,1.4251486,0.55390984,9.730458,1.0870878
1408129703712,0.7374141,7.5106106,1.7340006,0.5997777,9.720247,1.1521509
1408129703713,0.48602295,6.841431,1.8531121,0.63808787,9.708921,1.2247866
1408129703743,0.4902128,6.3787518,1.9129672,0.67244995,9.696818,1.2999818
1408129703743,0.52133745,6.0597243,1.9668367,0.704905,9.683969,1.3763127
1408129703744,0.3609259,5.7400985,1.881244,0.7378946,9.670711,1.450266
1408129703752,0.30466217,5.589264,1.8285716,0.7712631,9.658029,1.515933
1408129703775,0.2896984,5.705383,1.7304093,0.80508786,9.646693,1.5695652
1408129703775,0.43754035,5.934029,1.6172832,0.84068394,9.636994,1.6099688
1408129703779,0.5153519,6.123171,1.541866,0.87831676,9.628746,1.6389635
1408129703810,0.6889315,6.2021794,1.4215573,0.91573423,9.621209,1.662578
1408129703810,1.1049241,6.3913217,1.477821,0.9488195,9.615235,1.6785008
1408129703812,1.4173675,6.3769565,1.5813702,0.97476065,9.610376,1.691426
1408129703829,1.7016789,6.3643866,1.6879122,0.99169713,9.606394,1.7041409
1408129703831,1.9991584,6.4697313,1.8154035,0.9973005,9.603374,1.7178422
1408129703848,2.2451627,6.6989765,1.934515,0.9896799,9.601717,1.7314633
1408129703851,2.4534583,6.9946604,2.1589713,0.97686416,9.600787,1.7438421
1408129703865,2.574964,7.379528,2.4827871,0.9531489,9.601637,1.7522777
1408129703883,2.508525,7.926005,3.0986955,0.9221957,9.603765,1.75717
1408129703885,2.4241292,8.744822,3.572149,0.88630766,9.606484,1.7607629
1408129703902,2.5025394,9.7402115,3.5978866,0.8498174,9.609315,1.7633114
1408129703902,1.9548657,10.563218,3.876811,0.81958926,9.612274,1.7614893
1408129703912,1.5352819,11.306019,3.5715504,0.7932579,9.614631,1.7606853
1408129703940,1.1025299,11.8022175,2.7497406,0.76805097,9.617862,1.7541978
1408129703942,0.92416185,12.447454,1.9428947,0.7526627,9.622731,1.7340531
1408129703942,1.2210429,12.858659,1.3916297,0.7508568,9.628809,1.7007713
1408129703974,1.9764135,12.518084,1.1641805,0.7686189,9.633617,1.6652383
1408129703975,3.0214825,11.601105,1.5795746,0.81272084,9.633969,1.6421056
1408129703975,4.098873,10.469246,2.48159,0.88245827,9.627165,1.6460218
1408129703979,4.7219644,9.594764,3.8618474,0.96878684,9.614518,1.6711905
1408129704006,4.892551,10.3214035,6.209362,1.0696944,9.594504,1.7238377
1408129704007,4.538808,13.384186,7.2843585,1.1833767,9.566614,1.8027488
1408129704012,4.144962,16.472706,4.4340615,1.2979456,9.535152,1.8885413
1408129704041,2.0213048,16.034567,2.15538,1.397791,9.515302,1.917188
1408129704041,-0.51595044,14.298771,1.1593921,1.4528792,9.510046,1.9022487
1408129704042,-1.8860323,13.499706,0.34117374,1.4685267,9.512687,1.8768623
1408129704080,-2.6581624,12.295423,0.7368156,1.4632181,9.519642,1.8454825
1408129704081,-3.0280666,10.948086,1.3856442,1.4360908,9.524891,1.8396981
1408129704081,-3.1483753,10.221446,1.785476,1.3863719,9.52845,1.8592969
1408129704082,-3.1172507,9.134478,1.7675194,1.3201314,9.532504,1.8865315
1408129704109,-2.8167782,7.800309,1.6106992,1.2490658,9.534908,1.9224309
1408129704109,-2.2296004,7.029975,1.5131354,1.1838214,9.534141,1.9670082
1408129704112,-1.7124528,6.9611416,1.3599066,1.1307741,9.531455,2.010742
1408129704137,-1.3012487,7.2664022,1.204882,1.0851588,9.528395,2.0500064
1408129704137,-0.78290397,7.5944076,0.777517,1.0463641,9.528359,2.0702302
1408129704140,-0.23702596,7.9421654,0.36870706,1.01104,9.534432,2.0598073
1408129704173,-0.22744916,8.413225,0.14724341,0.97524756,9.547068,2.01811
1408129704173,-0.47105917,9.455301,0.39025488,0.93102753,9.5654745,1.9507107
1408129704174,-0.5979519,10.34774,0.736217,0.87273985,9.586019,1.8753616
1408129704180,-0.6326678,10.262147,0.7787141,0.8054842,9.607529,1.7935969
1408129704218,-0.729633,9.592369,0.48003745,0.72720426,9.627748,1.7169883
1408129704221,-0.91817635,9.0315275,0.2908955,0.64007276,9.646456,1.6451749
1408129704222,-1.1162965,9.033323,0.37229836,0.54720604,9.663771,1.5755944
1408129704252,-1.0384849,9.148245,0.47524905,0.45566836,9.679194,1.5086296
1408129704252,-0.79607207,8.43178,0.29508537,0.37759355,9.692357,1.444306
1408129704258,-0.85293436,8.347982,0.32321724,0.31131265,9.703967,1.3807629
1408129704259,-1.0133458,8.358158,0.26276365,0.26256052,9.713617,1.3217762
1408129704260,-1.021127,7.9331875,0.27952304,0.22644532,9.7213125,1.2709067
1408129704292,-1.1827357,7.6746135,0.50038815,0.19684568,9.727006,1.2316686
1408129704293,-1.3156139,7.5572977,0.6488287,0.16435027,9.730801,1.2061994
1408129704294,-1.2599486,7.3926964,0.37708676,0.1234509,9.733044,1.1929059
1408129704329,-1.1701661,7.397485,0.01436521,0.07332869,9.735214,1.1792485
1408129704330,-1.0480618,7.6009917,-0.25857377,0.019553097,9.738769,1.1517067
1408129704330,-0.84814596,8.117541,-0.26276365,-0.04142167,9.744511,1.1014563
1408129704331,-0.18195933,8.867524,0.03232172,-0.10788181,9.7512455,1.0353631
1408129704353,0.41718966,9.533113,0.4369418,-0.17349166,9.757391,0.9662419
1408129704353,0.6691794,9.928156,0.7314286,-0.23466045,9.761775,0.90724105
1408129704360,0.57520694,9.765948,0.9008184,-0.294,9.763839,0.8668329
1408129704385,0.45370123,9.190742,0.92296475,-0.35420355,9.764216,0.83965
1408129704386,0.4357447,8.681973,0.86969376,-0.4164261,9.761805,0.83912957
1408129704392,0.40282443,8.482059,0.86610246,-0.47711524,9.756988,0.8625272
1408129704400,0.40282443,8.398261,0.79008657,-0.5326248,9.750662,0.900721
1408129704422,0.4830302,8.367735,0.6895301,-0.58289105,9.743704,0.94385296
1408129704423,0.78888947,8.519168,0.59615624,-0.63114,9.736744,0.9838049
1408129704432,1.3221979,8.938153,0.65660983,-0.67766297,9.729998,1.0189787
1408129704449,1.7411832,9.421184,0.75357497,-0.7222383,9.723715,1.0479255
1408129704471,1.8830396,9.733627,1.0588357,-0.7637554,9.717831,1.0727608
1408129704472,1.6705543,9.818023,1.5233108,-0.8041313,9.711444,1.1007458
1408129704474,1.1486182,9.594165,1.8848352,-0.8481639,9.703194,1.1397557
1408129704480,0.5093664,9.256582,2.2613235,-0.8991594,9.692259,1.1924853
1408129704498,0.040102877,8.968081,2.2056582,-0.95407015,9.678918,1.256466
1408129704513,-0.15203181,8.850166,1.763928,-1.0114808,9.664443,1.3213042
1408129704513,0.23283611,8.820838,1.0516531,-1.0683393,9.650245,1.3790611
1408129704527,1.5352819,8.754997,0.41599256,-1.1223707,9.638064,1.4207159
1408129704547,2.4331074,8.58022,0.47165772,-1.16494,9.629341,1.4453723
1408129704548,2.5007436,8.749012,0.9935937,-1.1955255,9.623521,1.4590888
1408129704562,1.8166006,9.045294,1.3335704,-1.2195884,9.61921,1.467585
1408129704563,0.81043726,9.335591,1.3437457,-1.2471595,9.614519,1.475127
1408129704577,0.090979666,9.956886,1.4143747,-1.2781196,9.6101265,1.4772571
1408129704580,-0.6721721,10.360908,1.6142905,-1.3047341,9.6069975,1.4743338
1408129704598,-1.7304093,10.2735195,1.3347675,-1.3254315,9.60537,1.4664512
1408129704613,-2.1757307,9.902418,0.40282443,-1.3410479,9.605941,1.4483985
1408129704614,-2.011728,9.627085,0.4973954,-1.3416063,9.610759,1.415563
1408129704633,-2.492364,9.48044,0.90979666,-1.3184365,9.619957,1.3742491
1408129704634,-2.9891608,9.124303,0.32202014,-1.2906275,9.630131,1.3286189
1408129704640,-3.7457285,8.330027,-0.480636,-1.2490389,9.64439,1.2633532
1408129704673,-4.485537,8.071452,-1.0600328,-1.19592,9.661745,1.1793407
1408129704674,-4.739322,8.811859,-1.2413936,-1.1272182,9.681334,1.082395
1408129704675,-4.7758336,10.965444,-0.95708215,-1.0452998,9.701718,0.97694474
1408129704680,-5.035605,14.343662,-0.7116765,-0.95701295,9.720328,0.87734586
1408129704705,-5.12838,17.964294,-0.7727286,-0.87414455,9.73591,0.7863426
1408129704705,-4.7925935,19.509153,-0.85293436,-0.7949643,9.747811,0.7201297
1408129704712,-4.5980644,17.942148,-0.16938977,-0.71277684,9.756889,0.68223315
1408129704729,-3.965995,15.189414,1.0905589,-0.6316916,9.762145,0.6869332
1408129704732,-3.3201592,12.126632,2.2511482,-0.55148697,9.762788,0.7444569
1408129704751,-3.1130607,10.238804,3.0777464,-0.475029,9.758218,0.84966636
1408129704752,-3.1262288,9.940725,3.0945058,-0.40933156,9.749317,0.9765487
1408129704760,-3.0699651,9.941922,2.778471,-0.34898075,9.738641,1.0988479
1408129704786,-2.3582888,9.515156,2.4660277,-0.29054707,9.729433,1.1933655
1408129704787,-1.448492,8.114548,2.552219,-0.21205373,9.723769,1.2544787
1408129704792,-0.28790274,7.566276,3.0550013,-0.10347298,9.720152,1.2954985
1408129704822,0.6536171,7.6351094,3.0412347,0.03321509,9.716301,1.3276944
1408129704822,1.18094,7.69257,2.6060886,0.18471254,9.711774,1.3482345
1408129704823,1.5292963,7.957728,1.9524715,0.3390368,9.7060995,1.3590709
1408129704846,1.8549078,8.288726,1.323395,0.48978445,9.700334,1.3542567
1408129704847,2.1254525,8.133103,1.0193313,0.63017935,9.693759,1.3432401
1408129704867,2.0494366,7.890092,1.0408791,0.7549134,9.685218,1.3405399
1408129704867,1.5616181,6.9892735,1.0013748,0.85787344,9.674428,1.356433
1408129704872,1.0450691,5.952584,1.0552444,0.93336713,9.662319,1.3924146
1408129704880,0.89662856,5.3995233,1.3066356,0.98187435,9.649589,1.4462907
1408129704901,0.9463082,5.0798974,1.4993688,1.0180974,9.63616,1.5093979
1408129704902,0.9708488,4.8524485,1.7064673,1.0428356,9.621595,1.583599
1408129704912,0.7978677,4.6926355,1.8890251,1.0605235,9.606365,1.6623638
1408129704937,0.61890113,4.80636,1.9991584,1.071808,9.591752,1.7377961
1408129704937,0.504578,5.026028,1.9339164,1.0775083,9.578885,1.8039778
1408129704941,0.4285621,5.2421045,1.7238252,1.0800245,9.568708,1.8557322
1408129704971,0.46148238,5.494693,1.6430209,1.0821289,9.560226,1.8977493
1408129704972,0.6374562,5.8622026,1.6885108,1.0816073,9.5551405,1.9234812
1408129704973,0.85413146,6.2105594,2.0410569,1.0787338,9.553587,1.9327967
1408129704980,1.174356,6.5164185,2.4307132,1.0724137,9.554986,1.9293994
1408129704999,1.5903485,6.893505,2.724003,1.0609511,9.558856,1.9165198
1408129705000,2.0392613,7.529764,2.9340942,1.0413566,9.565156,1.8957148
1408129705013,2.3774424,8.353969,3.1106665,1.0121661,9.573609,1.8686647
1408129705035,2.4241292,9.08001,3.2321723,0.98031086,9.582518,1.8397716
1408129705036,2.154183,9.566033,3.3686419,0.9369919,9.59264,1.8093386
1408129705040,1.6992847,9.631873,3.5368345,0.8836981,9.603133,1.7802529
1408129705071,0.97144735,9.949704,3.6314054,0.82681,9.612781,1.7553383
1408129705071,-0.10295067,11.719019,3.1250317,0.77132565,9.621064,1.7350974
1408129705072,-0.37110126,14.01446,2.3403323,0.71557933,9.629504,1.7120157
1408129705080,0.5177461,15.9657345,1.4622587,0.65900373,9.639391,1.678759
1408129705098,1.8471266,14.601039,0.50996494,0.6356588,9.648242,1.6363819
1408129705100,3.74094,12.002133,0.4985925,0.66438454,9.651908,1.603021
1408129705112,5.443816,10.029909,1.9434932,0.7392641,9.645995,1.6058246
1408129705144,6.033388,9.167398,5.3127337,0.8513642,9.627372,1.6611018
1408129705145,4.833295,12.029667,9.060856,0.9957107,9.593846,1.7711687
1408129705146,3.767875,17.617134,6.995259,1.1505682,9.546072,1.9284991
1408129705173,1.7782934,17.316662,2.6683378,1.2875391,9.508343,2.0258496
1408129705174,-1.0570401,14.957775,0.86610246,1.3805236,9.496587,2.0197525
1408129705174,-3.0310593,13.694235,1.5628152,1.4231392,9.4980755,1.9828354
1408129705206,-3.6661212,12.369044,2.5306711,1.4173795,9.497695,1.988774
1408129705206,-4.0467997,11.902774,2.2481554,1.3632141,9.489977,2.0621288
1408129705207,-4.18686,11.606491,0.53570265,1.2613136,9.485544,2.1456776
1408129705213,-4.1018662,10.108319,-0.6003461,1.1476077,9.488573,2.1955414
1408129705233,-3.8750155,8.544308,-0.14784196,1.0250901,9.500855,2.203024
1408129705234,-3.2303767,8.029554,0.47644615,0.9112794,9.511314,2.2079139
1408129705241,-2.3546975,8.294712,0.17896658,0.812307,9.515751,2.2273376
1408129705268,-1.7106571,8.395268,0.338181,0.7301089,9.518638,2.243403
1408129705269,-0.89662856,7.903858,1.2575544,0.6619211,9.524145,2.2411885
1408129705273,-0.26156655,7.3364325,1.7082629,0.6062096,9.529397,2.2346103
1408129705336,0.020949265,7.241862,1.5508442,0.5564162,9.537194,2.2142107
1408129705337,0.095169514,7.6710224,1.5215151,0.5076149,9.547774,2.1800745
1408129705339,0.0017956513,8.133103,1.6118963,0.45525703,9.560763,2.1342275
1408129705340,-0.14724341,8.356362,1.6005238,0.39656603,9.575136,2.0808342
1408129705341,-0.4357447,8.438364,1.2276269,0.32898533,9.590628,2.020406
1408129705343,-0.7577648,8.421006,0.62967503,0.25266066,9.608295,1.9460782
1408129705344,-1.2180501,8.504205,0.14844051,0.17182174,9.627106,1.8600221
1408129705373,-1.4281414,8.804677,-0.029927522,0.087304376,9.647484,1.7575026
1408129705374,-1.6142905,8.832211,-0.20829555,0.005465791,9.666585,1.6515093
1408129705375,-1.7824832,8.730456,-0.40521863,-0.06864861,9.682664,1.5529686
1408129705415,-1.8926164,8.785523,-0.42916065,-0.13065113,9.695695,1.4652168
1408129705416,-1.7872716,8.826823,-0.17477672,-0.17616986,9.705826,1.3915106
1408129705417,-1.4999673,8.447941,0.18195933,-0.21213132,9.713926,1.3285407
1408129705417,-1.1671734,8.118738,0.34596214,-0.23484397,9.71848,1.290888
1408129705422,-0.7517793,7.978079,0.31064767,-0.25355458,9.720216,1.2741687
1408129705435,-0.55126494,8.139688,0.0712275,-0.27715915,9.7210245,1.2630482
1408129705442,-0.19752164,8.328829,-0.050278235,-0.31336504,9.722705,1.2414606
1408129705465,0.14305355,8.31207,-0.061052144,-0.36184675,9.725534,1.2055866
1408129705466,0.62488663,8.396465,-0.03232172,-0.41913015,9.728154,1.1652203
1408129705489,1.2216414,8.22947,0.24181437,-0.47612458,9.729896,1.1282058
1408129705490,1.8644845,7.8027034,0.7080852,-0.5352082,9.729251,1.1070752
1408129705533,2.2427685,7.4812818,1.2210429,-0.5928449,9.725536,1.1103408
1408129705534,2.2200236,7.2047515,1.4275428,-0.64973694,9.718582,1.1390198
1408129705535,2.100912,7.419631,1.6370354,-0.7101953,9.708842,1.1850723
1408129705536,1.7764976,7.724293,1.8357542,-0.7738225,9.697109,1.2400204
1408129705537,1.2958617,8.111555,1.8728642,-0.8395235,9.684153,1.297226
1408129705542,0.878672,8.416218,1.821389,-0.9065976,9.670169,1.3550979
1408129705589,0.66139823,8.170812,1.5634137,-0.9730446,9.655692,1.4110994
1408129705591,0.6985083,8.188768,1.3617022,-1.0379118,9.640886,1.4650809
1408129705592,0.57999533,8.336611,1.5221137,-1.0962174,9.626324,1.517432
1408129705594,0.47046062,8.416218,1.8531121,-1.1509858,9.611896,1.567511
1408129705595,0.4794389,8.713697,1.7830818,-1.2004298,9.59785,1.6157422
1408129705639,0.338181,9.289502,1.520318,-1.2468722,9.584596,1.65868
1408129705640,0.38187516,9.980828,0.93254155,-1.289637,9.573823,1.6879383
1408129705642,0.9947908,10.236409,0.38307226,-1.3312856,9.565831,1.7008662
1408129705643,1.9542671,10.248381,0.54647654,-1.3687631,9.561203,1.6971451
1408129705645,2.2254105,10.278907,1.3581109,-1.3965445,9.559541,1.6838232
1408129705676,1.644218,10.331579,2.1057005,-1.4185271,9.557689,1.6759369
1408129705677,0.81163436,10.402806,2.4025815,-1.4433227,9.553659,1.6777412
1408129705678,0.19752164,10.481216,2.0530279,-1.4700459,9.548112,1.6860971
1408129705703,-0.12509704,10.705673,2.2176294,-1.4920194,9.5452175,1.6831801
1408129705704,-0.40880993,10.681132,2.0763714,-1.500364,9.547484,1.6627839
1408129705704,-0.6476316,9.872491,1.3215994,-1.4916716,9.55557,1.6237038
1408129705714,-1.1426327,9.941922,1.388637,-1.4653538,9.5691,1.5669847
1408129705732,-1.6992847,9.914988,0.36750996,-1.4245323,9.586002,1.4998785
1408129705735,-2.3540988,8.875904,-0.6386533,-1.3837487,9.604663,1.4163629
1408129705742,-3.305794,7.607576,-1.1288661,-1.3348851,9.625741,1.3166541
1408129705760,-4.020463,7.6560583,-1.4466964,-1.2783451,9.6475525,1.2086986
1408129705764,-4.261679,8.647258,-1.371279,-1.2106382,9.670292,1.0909636
1408129705781,-4.449624,11.237784,-0.6392518,-1.1299399,9.693301,0.96619207
1408129705782,-4.796783,15.3767605,0.30945057,-1.035523,9.7141,0.8569402
1408129705794,-4.4418426,19.314026,0.40521863,-0.9413281,9.7308655,0.7710826
1408129705816,-4.132991,19.608511,0.017357962,-0.8311621,9.744192,0.72819513
1408129705817,-4.173094,18.224663,0.6769605,-0.7081511,9.75421,0.72408336
1408129705822,-3.3722332,15.038579,1.9387048,-0.593191,9.759117,0.76036656
1408129705847,-2.8449101,11.860276,2.9107506,-0.49529377,9.758327,0.83675027
1408129705848,-2.5372553,9.5385,3.2740707,-0.42187685,9.751567,0.9483381
1408129705856,-2.80361,9.64983,2.8562827,-0.36672866,9.740475,1.0765833
1408129705862,-3.2620997,10.004171,1.9997569,-0.32182598,9.727812,1.1985452
1408129705884,-2.6084828,9.5809965,1.745373,-0.2822459,9.717507,1.2887117
1408129705885,-1.5011644,8.05589,2.271499,-0.21828371,9.71231,1.3393198
1408129705893,-0.5770026,6.8881183,2.5659857,-0.11434359,9.710239,1.3669552
1408129705917,0.39384618,6.4631476,2.4468741,0.022726722,9.707963,1.3875684
1408129705918,1.1719618,7.091625,2.178125,0.17862141,9.703903,1.4045426
1408129705922,2.0500352,8.084022,1.7705121,0.33981884,9.697606,1.4182117
1408129705946,2.544438,8.200739,1.0534488,0.50482845,9.689178,1.4266676
1408129705947,2.224812,7.2861543,0.6123171,0.65748924,9.678771,1.4350893
1408129705953,1.5245079,6.05733,0.62608373,0.7791417,9.666894,1.4541354
1408129705962,1.0205284,5.133168,0.96546185,0.8642393,9.653627,1.493647
1408129705981,0.7733272,4.59567,1.2892777,0.92308503,9.638332,1.5559056
1408129705982,0.6655881,4.36044,1.5502456,0.9700134,9.620806,1.6338856
1408129705993,0.46447513,4.1276035,1.7429788,1.0123389,9.602055,1.7164204
1408129706016,0.3693056,4.0701427,1.9309237,1.0482999,9.582804,1.8003784
1408129706017,0.40821138,4.268862,2.1392193,1.0782938,9.5640955,1.8803661
1408129706022,0.40222588,4.4208937,2.2092497,1.1029983,9.546808,1.9524947
1408129706052,0.45489833,4.545392,2.2182279,1.1210152,9.5323105,2.0121546
1408129706053,0.56682724,4.8380833,2.2709002,1.1313043,9.521815,2.0556219
1408129706054,0.78529817,5.2804117,2.4384944,1.1389874,9.513528,2.0894752
1408129706080,1.2174516,5.947197,2.6713305,1.1388425,9.509898,2.1060097
1408129706082,1.7986441,6.757634,2.8203697,1.1329283,9.510624,2.1059227
1408129706082,2.372654,7.5285673,2.8975825,1.1207141,9.515089,2.0922356
1408129706094,2.8042088,8.379706,3.2393548,1.0998145,9.522655,2.0687842
1408129706117,3.0873232,9.26197,3.7822402,1.0679188,9.532073,2.0419407
1408129706118,3.2118216,10.195109,4.0456023,1.0269,9.542009,2.0164158
1408129706122,2.9771898,10.546458,3.8684313,0.9861245,9.5517025,1.9907134
1408129706143,2.3989902,10.184336,3.693056,0.9404434,9.562573,1.960396
1408129706143,1.459266,10.816404,3.5230677,0.89767945,9.573964,1.924527
1408129706157,0.37948096,12.807782,3.3859997,0.8609839,9.584854,1.8867085
1408129706197,0.33399114,15.184027,3.2231941,0.82539445,9.594638,1.8525816
1408129706198,0.89423436,16.429611,2.1218612,0.7955011,9.600455,1.8354295
1408129706199,2.3888147,14.040197,1.049259,0.7748389,9.605799,1.8162221
1408129706199,4.24492,11.510124,2.010531,0.8006168,9.604781,1.8104057
1408129706202,5.266645,9.989806,4.9320555,0.86575824,9.592566,1.8448668
1408129706242,4.396951,11.40059,9.354745,0.9595391,9.562693,1.9505277
1408129706243,2.9634233,16.646885,8.772954,1.066823,9.512073,2.1337137
1408129706243,0.581791,17.704523,3.6206315,1.1620861,9.466538,2.2813554
1408129706244,-2.2535424,15.889119,1.5646108,1.2239598,9.449039,2.3212028
1408129706266,-3.1956608,14.598046,0.6769605,1.2536021,9.451364,2.2957737
1408129706266,-3.027468,12.1763115,0.24480712,1.2705963,9.4581585,2.2581449
1408129706275,-3.0663738,9.348759,1.1947067,1.2721003,9.454558,2.272329
1408129706310,-3.1411927,8.787917,2.0386627,1.2332716,9.44045,2.35103
1408129706313,-2.980781,8.598177,1.4718355,1.1549858,9.429917,2.4316788
1408129706313,-2.7563248,7.9702973,0.842759,1.0677685,9.431256,2.4661043
1408129706332,-2.5486276,8.028357,0.81043726,0.9909769,9.437273,2.4751234
1408129706332,-2.2583308,8.4587145,0.28670564,0.9159964,9.44837,2.461637
1408129706334,-1.7375919,9.039309,-0.26276365,0.8517729,9.46058,2.4376812
1408129706342,-0.94690675,9.48044,-0.108936176,0.7972245,9.474582,2.401486
1408129706359,0.08319851,9.330803,0.46148238,0.75153303,9.491617,2.3483582
1408129706375,0.9307459,9.291298,0.74399817,0.71443224,9.510232,2.283743
1408129706376,1.3150153,9.473856,0.6087258,0.67868024,9.528629,2.2169824
1408129706391,1.0426749,9.294889,0.38845924,0.64084023,9.547577,2.1455717
1408129706406,0.7146692,8.775947,0.9624691,0.58823025,9.565326,2.0806024
1408129706407,0.2717419,8.359355,1.400608,0.5176807,9.580325,2.02972
1408129706421,-0.0664391,8.011598,1.7196354,0.43117636,9.594939,1.9803063
1408129706422,-0.47345337,7.8308353,1.7405846,0.33575296,9.61051,1.9224361
1408129706437,-1.0552444,7.727286,1.2814964,0.2383144,9.626292,1.8569027
1408129706442,-1.5526398,7.6961613,0.7769185,0.13909268,9.641464,1.7869523
1408129706455,-2.0602105,7.4974427,0.44592008,0.042812724,9.655386,1.7152481
1408129706477,-2.2637177,7.297527,0.076015905,-0.049684655,9.6667795,1.6496307
1408129706478,-2.0242975,7.217321,0.05925649,-0.1327154,9.675608,1.5922858
1408129706494,-1.9554642,7.380127,0.29209262,-0.19989118,9.6826,1.5419831
1408129706495,-1.9758149,7.4256167,0.40761283,-0.25261277,9.687821,1.5009077
1408129706502,-2.03567,7.369353,0.24959552,-0.3006874,9.691835,1.4657153
1408129706525,-1.2970588,7.565677,-0.05746084,-0.34984615,9.694497,1.4369223
1408129706526,-0.62967503,7.828441,-0.22924481,-0.4037539,9.697321,1.4033321
1408129706545,-0.3226187,8.005013,-0.30466217,-0.46626297,9.701134,1.3568304
1408129706545,0.19812019,8.602366,-0.22804771,-0.54100645,9.705262,1.2983034
1408129706553,0.88166475,8.455722,-0.07182605,-0.6216252,9.708881,1.2335298
1408129706577,1.6256629,8.522759,0.45370123,-0.70125604,9.710593,1.1760205
1408129706596,1.9488802,8.48146,1.1234791,-0.77477956,9.710111,1.1330723
1408129706597,1.8650831,8.254609,1.3736732,-0.845708,9.7047415,1.1283462
1408129706597,1.5634137,8.528147,1.4437037,-0.91703916,9.694721,1.1583706
1408129706602,0.9947908,8.957307,1.5765818,-0.9904815,9.682195,1.2018408
1408129706627,0.6015432,8.920795,1.5903485,-1.0643537,9.668759,1.2460426
1408129706628,0.5554548,8.697536,1.4640543,-1.1388264,9.654686,1.2886015
1408129706635,0.9056068,8.446744,1.3934253,-1.2140675,9.639977,1.3293837
1408129706642,1.2958617,8.402451,1.4460979,-1.2862663,9.6248045,1.3707798
1408129706654,1.5747862,8.461707,1.5436616,-1.3507056,9.609879,1.412875
1408129706677,1.6819267,8.531737,1.721431,-1.4048202,9.595637,1.4562336
1408129706678,1.541866,8.707711,2.2266076,-1.4482574,9.582356,1.5004636
1408129706682,0.8655039,9.074623,2.4408886,-1.4861898,9.569116,1.5471494
1408129706713,0.52253455,9.181165,1.9183542,-1.5298513,9.554852,1.5920945
1408129706714,0.61650693,8.995614,1.1001357,-1.5787585,9.540742,1.6285357
1408129706714,1.3389573,8.8364,0.92895025,-1.6258188,9.529581,1.6474771
1408129706723,2.058415,9.077017,1.5466543,-1.6626091,9.522521,1.6515822
1408129706746,2.1272483,9.698313,2.1332338,-1.6866934,9.518531,1.6501564
1408129706747,1.7196354,10.198102,2.296638,-1.7017545,9.516234,1.6479434
1408129706757,1.2856863,10.446501,1.9446903,-1.714583,9.514376,1.6453745
1408129706778,0.8750807,10.641029,1.6496049,-1.729167,9.512985,1.6381419
1408129706779,0.5177461,11.002554,1.5119383,-1.7422403,9.513318,1.6222694
1408129706782,0.048482586,11.200674,1.9147629,-1.7496752,9.51649,1.5954509
1408129706811,-0.75596917,10.565612,1.5442601,-1.7479726,9.522635,1.5602554
1408129706812,-1.4921862,9.729437,0.59376204,-1.7365161,9.532497,1.5120838
1408129706815,-1.7729063,9.55047,0.81343,-1.7107801,9.547015,1.4484941
1408129706822,-2.1493945,9.54209,0.66738373,-1.6686335,9.565252,1.3755083
1408129706843,-3.0765493,8.516175,-0.30107087,-1.6235412,9.5844555,1.2933345
1408129706843,-4.201824,7.727885,-1.1947067,-1.5695014,9.606658,1.1912906
1408129706861,-5.0254292,7.8493905,-1.6478093,-1.5027394,9.6320095,1.0661001
1408129706862,-5.492897,9.135675,-1.5574282,-1.417411,9.659527,0.9245912
1408129706874,-5.73112,11.836933,-0.9947908,-1.3168085,9.685432,0.79298854
1408129706893,-5.579687,15.823877,-0.6039374,-1.2092835,9.706546,0.70070434
1408129706894,-4.945224,19.260155,-1.1007342,-1.1004146,9.72427,0.630919
1408129706902,-4.5783124,19.608511,-1.2156559,-0.9784401,9.740324,0.5823569
1408129706931,-4.35625,19.070415,-0.24121583,-0.85509855,9.753455,0.5561617
1408129706931,-3.8654387,16.257229,1.3066356,-0.74943954,9.761013,0.5756407
1408129706937,-3.503914,12.991537,2.730587,-0.6620451,9.762045,0.65923125
1408129706942,-3.0041246,10.284293,3.58412,-0.5907822,9.756752,0.7919437
1408129706966,-3.1800983,9.463082,3.156755,-0.5309039,9.7476845,0.9333745
1408129706967,-3.8307228,9.378687,2.2661119,-0.47586966,9.737716,1.0586942
1408129706974,-2.947861,9.357139,1.8423382,-0.4226075,9.730958,1.1402808
1408129706995,-1.8686744,8.274361,2.2768857,-0.34022397,9.728899,1.1845584
1408129706996,-0.770933,6.977901,2.6036944,-0.21929903,9.728292,1.2176387
1408129707002,0.20171149,6.5283895,2.6713305,-0.07207718,9.726697,1.2476203
1408129707027,1.0989386,7.3220673,2.4911668,0.08812318,9.72373,1.2695181
1408129707028,1.7561469,7.863157,1.8860323,0.25284767,9.718626,1.2863759
1408129707034,2.2888567,7.8906903,1.3198037,0.41323105,9.711966,1.2951282
1408129707062,2.432509,7.65127,1.1671734,0.55380785,9.703318,1.3074074
1408129707063,2.0745757,6.7330937,1.0175357,0.66864616,9.691975,1.3375144
1408129707063,1.5227122,5.9920883,1.1121067,0.7550452,9.678579,1.387588
1408129707074,0.6596026,5.2618566,1.1605892,0.81412816,9.664075,1.4536972
1408129707095,0.45549688,4.829105,1.2024878,0.8489874,9.649029,1.5316131
1408129707101,0.5303157,4.5441947,1.299453,0.873881,9.633414,1.6137049
1408129707103,0.6985083,4.362834,1.477821,0.88900095,9.617392,1.6987728
1408129707130,0.60333884,4.293402,1.6897079,0.8955112,9.601486,1.7832263
1408129707130,0.44113165,4.173094,1.8764555,0.89199036,9.586724,1.8626474
1408129707134,0.3693056,4.1264067,2.042254,0.8795216,9.574363,1.9309088
1408129707157,0.31663316,4.2503066,2.2056582,0.86048996,9.565235,1.9839885
1408129707158,1.01574,5.629367,2.0392613,0.8396666,9.557871,2.0279217
1408129707181,1.2497733,6.2195373,2.1535845,0.8184292,9.554901,2.0504699
1408129707182,1.42455,6.4020953,2.3355439,0.7961895,9.556273,2.0528316
1408129707183,1.7058687,6.471527,2.7371712,0.7695968,9.561079,2.0405657
1408129707213,2.0033484,7.015011,3.4075475,0.7369453,9.568218,2.0190349
1408129707214,2.136825,8.342596,3.9749734,0.69939613,9.577103,1.9900618
1408129707214,1.7070658,9.705495,4.2119994,0.6597718,9.587691,1.9522403
1408129707222,1.1270704,10.043676,4.3688197,0.61884445,9.599118,1.9090211
1408129707243,0.60333884,10.144233,4.0138793,0.57343954,9.611586,1.8598322
1408129707244,0.029927522,11.683704,3.5332432,0.53210974,9.623223,1.8113105
1408129707254,-0.3298013,14.541782,3.2632968,0.49999836,9.633292,1.7663708
1408129707284,0.89603,17.483059,2.5264814,0.47705668,9.64155,1.7272238
1408129707285,2.3678656,16.964714,0.99658644,0.48169193,9.6469,1.6957917
1408129707285,4.184466,14.246697,1.0833763,0.51256704,9.651981,1.6573877
1408129707321,5.6898203,11.494562,2.8550856,0.5863632,9.650439,1.6418209
1408129707322,6.250662,10.318411,6.1112,0.69005907,9.637083,1.679538
1408129707323,5.3037553,13.743915,8.902241,0.8172593,9.605316,1.800104
1408129707323,3.6924577,18.790293,6.1979895,0.9582366,9.557706,1.9754621
1408129707343,0.46986207,17.577631,1.6807296,1.084426,9.523911,2.0711105
1408129707344,-2.3343468,14.985309,0.7739257,1.163213,9.512702,2.0798585
1408129707355,-2.9430726,12.357074,0.6392518,1.207445,9.513321,2.051633
1408129707393,-2.8927941,9.807847,1.2401965,1.234918,9.512165,2.0406094
1408129707395,-3.4985273,8.198944,2.782661,1.228466,9.50091,2.0961788
1408129707396,-3.716998,8.408437,3.7068229,1.1686645,9.484752,2.200928
1408129707397,-3.3794158,8.78672,2.0272903,1.0726036,9.474492,2.2921395
1408129707403,-3.2986114,8.357559,1.0145429,0.97509694,9.478559,2.318731
1408129707435,-2.8173769,8.05589,0.9056068,0.8887906,9.487973,2.3149114
1408129707436,-2.2577322,8.228871,0.61112,0.81213295,9.499797,2.2944894
1408129707436,-1.6424223,8.871116,0.12150574,0.7495595,9.508677,2.2789533
1408129707462,-0.89543146,9.329007,-0.0017956513,0.69644934,9.518135,2.2562025
1408129707463,0.1388637,9.570223,0.26156655,0.6485677,9.533063,2.2069087
1408129707463,0.5859809,9.895236,0.39863458,0.6056959,9.553087,2.1312163
1408129707491,0.6955156,9.964069,0.53689975,0.56158584,9.573931,2.0481372
1408129707492,0.7565677,9.57142,0.51954174,0.51302624,9.594289,1.9638726
1408129707511,0.5638345,9.133281,0.60094464,0.4571925,9.611465,1.8923781
1408129707511,0.1945289,8.736442,0.89662856,0.38897133,9.625154,1.8372618
1408129707515,-0.48482585,8.289325,1.0869676,0.30927354,9.636594,1.7918706
1408129707523,-0.8487445,8.154651,1.1653777,0.21840766,9.647527,1.7458289
1408129707544,-0.93014735,7.968502,0.9672575,0.12296361,9.65839,1.6943386
1408129707545,-1.027711,7.9631147,0.8655039,0.026994683,9.668793,1.6383231
1408129707554,-1.311424,7.717709,0.45429978,-0.06693609,9.678945,1.5760537
1408129707569,-1.4161704,7.631518,0.3196259,-0.16098934,9.688022,1.5121899
1408129707593,-1.4826094,7.5722613,0.2705448,-0.2540097,9.69489,1.4543009
1408129707593,-1.484405,7.703344,0.26396075,-0.3402675,9.699474,1.4052764
1408129707597,-1.4155718,7.740454,0.16639702,-0.41577482,9.701695,1.369165
1408129707603,-1.4329298,7.557896,0.02932897,-0.48471302,9.702631,1.3395494
1408129707629,-1.2785037,7.5566993,0.10175357,-0.5528826,9.701872,1.3184849
1408129707630,-0.91458505,7.943961,0.13467385,-0.6247256,9.700407,1.296997
1408129707635,-0.3441665,8.349778,0.28491,-0.7012825,9.699232,1.2662956
1408129707675,0.33279404,8.498219,0.37110126,-0.777576,9.698726,1.2249465
1408129707676,1.1575965,8.602965,0.5374983,-0.84804225,9.698506,1.1790617
1408129707677,1.8848352,8.711303,0.89782566,-0.90874994,9.697639,1.1403239
1408129707720,2.1470003,8.452729,1.1007342,-0.9594071,9.695952,1.1128482
1408129707722,2.2008698,7.827244,1.198298,-1.0031377,9.691856,1.1099741
1408129707723,2.1458032,7.5806413,1.4634558,-1.0447816,9.684619,1.1344546
1408129707724,1.9153614,7.755418,1.6741456,-1.0880821,9.674254,1.1812179
1408129707725,1.5568297,7.8529816,1.532289,-1.1367929,9.661435,1.2388525
1408129707726,1.1575965,7.5201874,1.4065934,-1.195521,9.64718,1.2934611
1408129707765,1.0522517,7.201759,1.436521,-1.2627459,9.631959,1.342103
1408129707765,0.98700964,7.091027,1.483208,-1.3375343,9.615911,1.3840734
1408129707766,0.85772276,7.3609734,1.6448165,-1.4151182,9.599406,1.4209976
1408129707766,0.57281274,7.773973,1.8423382,-1.4894928,9.582687,1.4573679
1408129707786,0.12868834,8.2037325,2.0452468,-1.557594,9.565998,1.4953194
1408129707787,-0.22744916,8.74542,1.9327193,-1.6190057,9.549914,1.5324285
1408129707808,-0.3657143,9.241618,1.4155718,-1.6718527,9.536477,1.5591497
1408129707808,-0.04189853,9.6845455,0.85891986,-1.7197647,9.525467,1.574268
1408129707814,0.7739257,10.13286,0.81283146,-1.754897,9.519859,1.5694011
1408129707823,1.365892,10.448297,1.347337,-1.7738988,9.518637,1.5553858
1408129707838,1.4251486,11.061212,1.8632874,-1.782756,9.518353,1.5469714
1408129707857,0.9331401,11.46224,1.9387048,-1.7874697,9.51769,1.5456123
1408129707857,0.6302736,11.5077305,1.4580688,-1.7932962,9.5169735,1.5432731
1408129707864,0.4429273,11.2928505,0.98102415,-1.8004742,9.516892,1.5354006
1408129707894,0.26156655,11.2210245,0.83856916,-1.804858,9.518409,1.5207727
1408129707894,0.2136825,11.358691,1.4275428,-1.8012735,9.52239,1.4999641
1408129707897,-0.28431144,10.974422,1.7651252,-1.7853006,9.529285,1.4750645
1408129707903,-0.9804256,10.081385,0.76315176,-1.7600873,9.538634,1.4446298
1408129707938,-1.3736732,9.486425,0.6847417,-1.7246327,9.551298,1.403119
1408129707939,-1.5873557,8.775947,0.95708215,-1.6743554,9.5665,1.3597752
1408129707940,-2.3714569,7.45315,0.15203181,-1.6195471,9.582004,1.3163105
1408129707968,-3.1352072,6.432023,-0.60453594,-1.5558293,9.600154,1.2596968
1408129707968,-3.8414967,6.4481835,-1.1671734,-1.4798352,9.622001,1.1822096
1408129707969,-4.052785,7.768586,-0.97862995,-1.3874165,9.647111,1.0856931
1408129707990,-4.5280337,10.940305,0.13706805,-1.2778996,9.672015,0.9947335
1408129707991,-4.2664676,16.24466,1.353921,-1.1606536,9.692259,0.9399081
1408129707995,-3.2704794,19.567211,1.1593921,-1.0380939,9.708586,0.91439354
1408129708003,-2.534861,19.608511,0.7344214,-0.8913291,9.722875,0.9174141
1408129708032,-2.819771,19.021933,1.4083891,-0.73669744,9.734394,0.93233174
1408129708032,-2.6821043,16.73547,1.6813282,-0.61247367,9.739281,0.9704043
1408129708035,-2.594716,13.805566,1.7232267,-0.5238412,9.737409,1.0386947
1408129708061,-2.6731262,10.866084,2.1170728,-0.46773815,9.729772,1.1327606
1408129708062,-3.5344403,10.559028,1.9081788,-0.43854517,9.719009,1.2324513
1408129708064,-3.8013937,10.4728365,1.0187328,-0.42725247,9.707889,1.320898
1408129708093,-3.2489316,10.070611,0.8355764,-0.41615483,9.701113,1.3731792
1408129708093,-2.6234465,8.843582,1.264737,-0.37055328,9.699229,1.3993089
1408129708095,-2.2535424,7.392098,1.8082209,-0.27990153,9.698331,1.4263331
1408129708103,-1.5921441,6.75524,2.236783,-0.16261363,9.6951065,1.4659046
1408129708133,-0.5530606,7.277775,2.4732103,-0.035278235,9.689277,1.5122983
1408129708133,0.374094,7.817667,2.3702598,0.096562654,9.681238,1.5603511
1408129708136,0.8146271,7.5016327,1.8177977,0.22565264,9.671621,1.6059883
1408129708158,0.8595184,6.5696893,1.340753,0.33474416,9.6614895,1.6474093
1408129708158,0.908001,5.839458,1.3611037,0.41390827,9.651184,1.6892991
1408129708164,0.5093664,4.7614684,1.5442601,0.4681403,9.640388,1.7361348
1408129708194,0.23822308,4.055179,1.6729485,0.50447565,9.629036,1.7881775
1408129708195,0.39384618,3.912724,1.8112136,0.5299189,9.617502,1.8420703
1408129708198,0.53450555,3.7259765,1.858499,0.5541309,9.60566,1.8959514
1408129708203,0.6811504,3.549404,1.8106151,0.5794575,9.593644,1.9484856
1408129708237,0.86131406,3.5458126,1.7729063,0.6051487,9.582274,1.9960471
1408129708238,1.067814,3.6272156,1.7172412,0.62902486,9.572276,2.0362349
1408129708238,1.2384008,3.7606924,1.7669208,0.65127486,9.564064,2.0675883
1408129708261,1.3305776,4.0240545,1.9027919,0.6711899,9.55798,2.0892417
1408129708262,1.5053543,4.5657425,2.2146366,0.69032097,9.553078,2.1053653
1408129708264,1.6472107,5.2361193,2.6360161,0.70391715,9.55112,2.1097376
1408129708290,1.858499,5.9639564,3.0621839,0.7101541,9.552404,2.1018174
1408129708290,2.0757728,6.88333,3.3632548,0.7050359,9.557125,2.0819917
1408129708305,2.2720973,8.003218,3.560178,0.68533957,9.565485,2.0499334
1408129708307,2.2810757,9.22426,3.8732197,0.65176487,9.576607,2.0085297
1408129708320,1.8752584,10.107721,4.27365,0.6085504,9.588729,1.9637545
1408129708337,1.340753,10.682329,4.7297454,0.5599082,9.600205,1.9217042
1408129708338,0.8355764,11.559804,4.5681367,0.5060898,9.609777,1.8885009
1408129708352,0.27593175,13.839085,3.5883098,0.45582712,9.617449,1.862067
1408129708382,0.39743748,16.470312,2.871845,0.4097749,9.624137,1.8380611
1408129708383,0.52732295,17.432781,1.9081788,0.3762853,9.627753,1.8262401
1408129708383,1.5987282,15.5599165,0.59735334,0.3692265,9.629489,1.8185263
1408129708384,3.1346085,12.801198,0.9032126,0.38925448,9.630586,1.8085089
1408129708404,4.7279496,10.077195,2.0296845,0.44612992,9.622328,1.8390641
1408129708405,5.649119,7.442376,4.250905,0.52965343,9.599596,1.9332954
1408129708421,5.6323595,6.522404,8.090606,0.6379539,9.564007,2.0719986
1408129708439,3.8786068,9.581595,11.523891,0.7739371,9.519074,2.2267983
1408129708440,2.3720553,15.519216,8.614936,0.9074547,9.470963,2.376506
1408129708444,-0.7164649,16.154278,2.694674,1.0033443,9.44768,2.4300263
1408129708478,-3.3506854,14.8350725,1.650802,1.0444779,9.45389,2.3881838
1408129708479,-4.233547,15.532384,0.3669114,1.0486854,9.469466,2.323761
1408129708479,-5.341464,14.477139,-0.39384618,1.0320064,9.487418,2.257043
1408129708485,-5.6150017,12.79222,-0.3788824,0.95647144,9.50372,2.2214613
1408129708524,-5.234922,12.103887,0.020949265,0.81186455,9.520501,2.2071142
1408129708525,-4.0563765,10.983999,-1.0965444,0.63619554,9.537849,2.1897676
1408129708525,-3.3195608,9.578004,-0.8846575,0.4825072,9.553202,2.161924
1408129708526,-2.3199813,9.264363,0.15322891,0.34667453,9.562209,2.148106
1408129708535,-1.3545196,9.095572,0.17238252,0.24214748,9.562371,2.1616704
1408129708553,-0.82719666,8.306085,0.46866497,0.16670498,9.559323,2.182189
1408129708572,-0.07062895,7.2783732,1.0336965,0.10889073,9.559162,2.1865404
1408129708573,0.6775591,6.593033,1.34195,0.06034122,9.563512,2.1693368
1408129708576,1.2503718,6.854001,1.6106992,0.0152132055,9.56951,2.1435125
1408129708584,1.6567876,7.8410106,2.0907366,-0.031796895,9.579125,2.0999377
1408129708608,1.4460979,8.723872,2.2469583,-0.0793365,9.590488,2.0461273
1408129708609,0.83138657,8.51857,2.106299,-0.13738741,9.601963,1.988426
1408129708617,-0.31364042,7.747637,0.96785605,-0.211208,9.61312,1.9270886
1408129708639,-0.7212533,7.656657,0.4141969,-0.30312297,9.626797,1.844801
1408129708639,-1.0354922,7.7667904,0.02873042,-0.4026914,9.642699,1.739716
1408129708645,-1.5239093,7.85358,-0.22744916,-0.50372726,9.657806,1.6258596
1408129708673,-2.0284874,7.867945,-0.17717093,-0.5942798,9.6712885,1.5110965
1408129708674,-2.2996306,7.889493,0.2184709,-0.66805434,9.681831,1.4093437
1408129708678,-2.2373815,8.053496,0.53929394,-0.72240734,9.689309,1.3288314
1408129708684,-1.8788497,8.354567,0.6314707,-0.7587519,9.694277,1.2710949
1408129708711,-1.2665327,8.461707,0.5979519,-0.78161126,9.69687,1.2370108
1408129708711,-0.57760113,8.42759,0.10654198,-0.7968068,9.698299,1.2159398
1408129708716,-0.30047232,8.114548,-0.093373865,-0.8090311,9.697129,1.2171881
1408129708739,-0.039504327,8.007407,0.09816227,-0.8318733,9.693884,1.2276016
1408129708740,0.28311434,7.9553337,0.2100912,-0.87476027,9.689862,1.2295455
1408129708744,0.34117374,7.8649526,0.4961983,-0.93754375,9.685282,1.2193238
1408129708778,0.46567222,7.7931266,0.82001406,-1.010885,9.67998,1.2027023
1408129708779,0.5542577,7.8613615,1.1552023,-1.0859796,9.673571,1.1887238
1408129708779,0.4794389,8.186374,1.6801311,-1.1594293,9.666026,1.1807097
1408129708784,0.17118542,8.194754,1.9111716,-1.2312329,9.656274,1.1877829
1408129708814,-0.26755205,8.214506,1.8632874,-1.301118,9.643484,1.2168374
1408129708815,-0.46208093,8.093599,1.7938557,-1.3733,9.627879,1.2603141
1408129708816,-0.5117606,7.7811556,1.5610195,-1.4495903,9.610413,1.3073089
1408129708839,-0.07062895,7.410054,1.1474211,-1.53108,9.591351,1.3535968
1408129708840,0.5201403,7.3460093,0.86849666,-1.6127996,9.571938,1.3954461
1408129708844,1.1426327,7.689577,0.90979666,-1.6915482,9.553261,1.4297785
1408129708872,1.5466543,8.514978,0.99419224,-1.7596868,9.537301,1.4538854
1408129708873,1.851915,9.323022,1.4945804,-1.8115934,9.525189,1.4694645
1408129708876,1.83336,9.776723,1.6250644,-1.8482232,9.516267,1.4816024
1408129708884,1.2880806,10.223241,1.5873557,-1.8794392,9.509087,1.4884077
1408129708908,0.5153519,10.866683,1.508347,-1.9111198,9.503009,1.4868858
1408129708909,0.6751649,10.820595,0.7026982,-1.944972,9.496956,1.4816641
1408129708920,1.6771383,9.998186,0.25857377,-1.9736192,9.492492,1.4723544
1408129708940,2.544438,9.561244,1.376666,-1.9918138,9.489274,1.4685851
1408129708940,1.9692309,9.888652,2.5264814,-1.9970863,9.487324,1.474018
1408129708945,0.712275,10.457274,2.6922798,-2.0019274,9.484793,1.483706
1408129708972,-0.3357868,10.868479,1.9758149,-2.0135026,9.4811,1.4916208
1408129708973,-0.5410896,11.09114,1.2246342,-2.0319104,9.477434,1.4899542
1408129708978,-0.62249243,11.369465,1.1599907,-2.0414479,9.477454,1.476734
1408129708985,-0.82480246,10.924144,0.8936358,-2.0347166,9.4828615,1.4510857
1408129709010,-0.9864111,9.243414,-0.30166942,-2.0096107,9.494068,1.4122733
1408129709011,-1.0265139,7.7105265,-0.017956512,-1.9669446,9.510397,1.3615699
1408129709016,-1.4526819,6.331466,0.94810385,-1.9041181,9.530237,1.3112203
1408129709037,-2.0248961,5.4743423,0.5554548,-1.8264811,9.552202,1.2608682
1408129709038,-2.7766755,5.9651537,-0.22565351,-1.7459377,9.574524,1.2044026
1408129709045,-3.8726213,7.9487495,0.110731825,-1.6531546,9.5992565,1.1365495
1408129709073,-4.4125137,11.473015,1.4969746,-1.5497992,9.624046,1.0706407
1408129709073,-4.07553,16.663046,2.3038206,-1.4348943,9.645335,1.038755
1408129709076,-2.8909986,19.605518,1.6891093,-1.2998242,9.663843,1.0445116
1408129709085,-2.4911668,19.608511,0.9804256,-1.1301296,9.6846,1.049624
1408129709113,-3.74094,18.940529,1.6101006,-0.9526142,9.70422,1.0445292
1408129709114,-4.309563,15.968128,2.1529858,-0.80825984,9.717135,1.0461229
1408129709116,-4.2940006,12.150574,2.5276785,-0.7024565,9.721215,1.0839386
1408129709144,-4.5322237,10.827777,2.657564,-0.6214714,9.716977,1.1681262
1408129709144,-4.972757,11.000758,1.7788919,-0.5621312,9.707834,1.2697828
1408129709145,-3.9612067,11.547235,0.65242,-0.5180903,9.700616,1.3416542
1408129709172,-2.5019407,10.599131,0.23463176,-0.45709604,9.700309,1.3658228
1408129709172,-1.8513165,8.787917,0.8858546,-0.37001696,9.702465,1.3768345
1408129709176,-1.2348095,7.6614456,1.769315,-0.25076166,9.703611,1.3955005
1408129709184,-0.24121583,7.1383123,2.220622,-0.115255445,9.700611,1.4336029
1408129709202,0.9223662,7.219715,2.3421278,0.02751593,9.694907,1.475953
1408129709224,1.6358383,7.542334,2.1877017,0.17357977,9.688141,1.5100243
1408129709225,1.9195513,7.6129627,1.6292542,0.30988428,9.680766,1.5352976
1408129709226,1.6723499,6.8863225,1.0420763,0.43623438,9.672487,1.5566291
1408129709237,1.2138603,6.2141504,1.0402806,0.537517,9.66359,1.5800304
1408129709261,0.6703765,5.475539,1.2725182,0.61049676,9.653197,1.616618
1408129709262,0.16998832,4.7578773,1.477821,0.65974635,9.640882,1.6698956
1408129709265,-0.25677812,4.3544545,1.6992847,0.6939728,9.626996,1.7348545
1408129709283,-0.5351041,4.011485,1.7375919,0.7185918,9.612703,1.802764
1408129709285,-0.4758476,3.970185,1.7908629,0.73662764,9.59902,1.8672429
1408129709302,-0.3752911,4.1401734,1.8537107,0.7522659,9.585694,1.9284624
1408129709319,-0.20829555,4.256292,1.83336,0.76254416,9.573674,1.9833512
1408129709320,0.01436521,4.3622355,1.8764555,0.7692393,9.56299,2.0317206
1408129709336,0.37110126,4.7147818,2.005144,0.7729471,9.553763,2.0732923
1408129709347,0.8182184,5.321712,2.2254105,0.7744584,9.546715,2.10495
1408129709347,1.287482,6.0998273,2.5540147,0.7728809,9.542569,2.124241
1408129709365,1.6436194,6.7025676,2.8874073,0.7709638,9.539735,2.1376326
1408129709366,2.0033484,7.2699933,3.1238346,0.7598521,9.5402775,2.13919
1408129709382,2.3882163,8.033145,3.620033,0.7357767,9.544667,2.127992
1408129709385,2.5384524,8.872911,4.234744,0.6984793,9.552262,2.106374
1408129709399,2.469619,9.620501,4.2263646,0.6496081,9.561768,2.0786974
1408129709415,2.247557,10.041881,3.9211037,0.5916197,9.573812,2.040222
1408129709416,2.0775685,10.073604,3.78643,0.53253067,9.588104,1.9887317
1408129709437,2.0368671,10.18254,3.6445735,0.4795113,9.602209,1.9334052
1408129709438,1.644218,11.526285,3.9516299,0.44442245,9.613934,1.8828607
1408129709445,0.8182184,13.42788,3.6349967,0.4315,9.62083,1.8503609
1408129709464,0.95468795,15.552135,2.167351,0.42567012,9.622954,1.8406442
1408129709465,2.030283,14.922461,0.36631286,0.4288638,9.623596,1.8365341
1408129709483,3.4853592,11.711238,0.4441244,0.45991302,9.623817,1.8278453
1408129709485,4.4238863,9.501988,3.845088,0.50921124,9.618396,1.8432446
1408129709500,3.6589386,11.101913,9.750386,0.57969344,9.597311,1.9302735
1408129709534,2.3247697,17.238852,9.110536,0.6701934,9.552172,2.115958
1408129709535,0.47046062,19.331383,2.6222494,0.7644304,9.509596,2.2701626
1408129709537,-2.6844985,17.776947,1.2856863,0.84209603,9.50703,2.2533636
1408129709559,-4.220978,15.738883,2.2427685,0.8772907,9.520959,2.179933
1408129709560,-4.196437,12.433688,1.4083891,0.8694712,9.525304,2.1640208
1408129709560,-4.0641575,9.051878,1.7357962,0.84414023,9.5210085,2.192762
1408129709565,-3.6290112,8.049905,2.019509,0.7769325,9.503169,2.292716
1408129709594,-2.9783869,7.9409685,0.97144735,0.68096507,9.48647,2.390307
1408129709595,-2.3469162,7.6722193,0.2705448,0.5872104,9.482371,2.431091
1408129709597,-1.875857,7.841609,0.27712885,0.50854474,9.488428,2.425182
1408129709649,-1.5807717,8.3629465,0.130484,0.44333413,9.496964,2.404477
1408129709649,-1.1749545,8.346786,0.29568392,0.3866638,9.505462,2.3805625
1408129709650,-0.26156655,8.001422,1.1587936,0.336734,9.513585,2.355571
1408129709651,0.82480246,7.9732904,2.0817583,0.2983231,9.52202,2.3264852
1408129709651,1.264737,8.210915,2.2643163,0.2719646,9.53157,2.2903264
1408129709676,1.2773066,8.991425,2.3169887,0.24743295,9.542964,2.2452238
1408129709676,1.0929531,9.512762,2.0949266,0.21098296,9.556133,2.1923075
1408129709677,0.5506664,9.330204,1.6238673,0.15648864,9.570256,2.1345007
1408129709687,-0.12150574,8.951322,1.1097125,0.08911467,9.586184,2.0658057
1408129709708,-0.7116765,8.589199,0.49679685,0.007221549,9.604351,1.9816166
1408129709709,-1.0726024,8.245032,0.14903906,-0.08283004,9.624095,1.8815746
1408129709717,-1.1731589,8.222886,-0.08259996,-0.17274654,9.642708,1.7772833
1408129709732,-1.666963,8.070255,-0.29209262,-0.25802726,9.658569,1.678052
1408129709745,-2.2577322,7.864354,-0.31184477,-0.3390693,9.6708555,1.5905898
1408129709746,-2.3493104,7.703344,-0.0664391,-0.41965398,9.68054,1.5104339
1408129709766,-2.106299,7.6704235,0.26994625,-0.49009305,9.687232,1.4448885
1408129709767,-1.9213469,7.60578,0.4321534,-0.54596436,9.692027,1.3917389
1408129709789,-1.9315223,7.3729444,0.32022446,-0.5943217,9.695047,1.3502754
1408129709790,-1.6968905,7.165846,0.15263036,-0.6499402,9.696046,1.3170719
1408129709797,-1.2862848,6.497265,-0.12629414,-0.721463,9.695414,1.2840756
1408129709823,-0.7793127,6.7468605,0.08020575,-0.8092352,9.693159,1.2482841
1408129709823,-0.6751649,7.2783732,0.15143326,-0.90057486,9.690764,1.2035091
1408129709825,-0.55725044,7.6710224,0.14305355,-0.9977761,9.688275,1.1455
1408129709850,-0.078410104,8.228871,0.41958386,-1.0948008,9.6851015,1.0819536
1408129709851,0.19692309,7.8062944,0.86370826,-1.1883155,9.679209,1.0350032
1408129709866,0.40462008,7.8667483,1.1953052,-1.2827847,9.668374,1.0234063
1408129709872,0.62129533,8.607754,1.2653356,-1.3789837,9.653575,1.0379099
1408129709887,1.0079589,9.327211,1.3144168,-1.4710481,9.637745,1.0584376
1408129709888,1.2366052,9.992201,1.1324574,-1.5533513,9.621877,1.0848846
1408129709898,1.4311341,10.225636,0.9475053,-1.6253055,9.606793,1.112797
1408129709934,1.7483658,9.986814,1.0965444,-1.6889004,9.592549,1.1406068
1408129709936,1.988983,9.533113,1.4389153,-1.7408494,9.579429,1.1723431
1408129709937,1.9482816,9.174581,1.8644845,-1.781469,9.56665,1.2148889
1408129709954,1.7417817,8.942344,2.3540988,-1.818762,9.553038,1.2656847
1408129709955,1.7208325,8.683171,2.030283,-1.8537629,9.537827,1.3280832
1408129709957,1.453879,9.012972,1.9081788,-1.8890626,9.522507,1.3869796
1408129709965,0.92296475,9.704897,2.0446482,-1.9237756,9.508473,1.4347103
1408129709987,1.2024878,9.806051,1.4562732,-1.9572976,9.495755,1.4730917
1408129709988,1.9812019,9.333197,1.3215994,-1.9822919,9.486595,1.4984785
1408129710022,2.4289176,9.044097,2.2050598,-1.9934223,9.482154,1.5117604
1408129710024,1.8525136,9.293094,2.7886465,-1.9987692,9.479,1.5244234
1408129710026,0.28670564,10.13286,2.842516,-1.9996401,9.477139,1.5348136
1408129710026,-0.7392098,11.08276,1.8626889,-2.004583,9.474974,1.5417252
1408129710066,-1.2066777,11.888409,1.316811,-2.006958,9.4764,1.5298203
1408129710070,-1.7118542,12.006323,1.0714053,-1.9985669,9.48386,1.4941728
1408129710071,-1.2910733,9.586384,-0.6913257,-1.9784075,9.495569,1.4458405
1408129710072,-0.98820674,9.033921,0.046088383,-1.9398239,9.512645,1.3845881
1408129710104,-1.4568717,8.525154,-0.022146367,-1.8897355,9.530936,1.3268503
1408129710106,-2.4067712,7.4244194,-0.6925228,-1.8232054,9.55298,1.2597128
1408129710107,-3.2998085,7.0724716,-1.0600328,-1.7463824,9.577251,1.1818602
1408129710108,-3.9294837,8.286931,-0.6242881,-1.6561893,9.603155,1.098564
1408129710129,-4.2012253,11.392809,0.48123455,-1.5500622,9.630076,1.0145689
1408129710129,-4.305373,16.43859,1.2940661,-1.4292252,9.65561,0.9470471
1408129710169,-3.9234982,19.573795,0.4902128,-1.3018746,9.678245,0.89838815
1408129710170,-4.0701427,19.608511,-0.37469256,-1.1566999,9.699515,0.8670707
1408129710171,-4.699818,18.777723,0.45370123,-1.0129771,9.71739,0.8465326
1408129710172,-4.730344,15.939997,1.7298107,-0.8962654,9.728404,0.8516232
1408129710180,-4.526837,12.282853,2.6252422,-0.8104815,9.731275,0.9032217
1408129710213,-4.1317935,9.0794115,3.1441853,-0.74645376,9.725764,1.0112969
1408129710214,-4.3664255,8.981848,2.8939912,-0.6843917,9.716142,1.1395581
1408129710214,-3.7074213,9.476251,2.0069396,-0.63968927,9.702758,1.2718799
1408129710216,-2.7682958,8.074445,1.726818,-0.59104645,9.692678,1.3685795
1408129710239,-1.3012487,6.8330517,2.2810757,-0.5132948,9.688934,1.4253064
1408129710240,-0.23882163,6.1183825,3.093907,-0.39411315,9.688962,1.4625611
1408129710245,0.93732995,6.8109055,3.402759,-0.24444896,9.688289,1.4992349
1408129710273,1.9901801,7.539341,2.7868507,-0.074377924,9.686274,1.5300267
1408129710274,2.542642,7.657854,1.7483658,0.10319325,9.682883,1.5496856
1408129710276,2.5917234,7.1712327,0.9888053,0.27257645,9.679822,1.5482701
1408129710309,1.620276,6.0890536,0.57041854,0.41175884,9.676204,1.5401106
1408129710310,1.021127,5.1116204,0.61770403,0.5069463,9.670567,1.5471064
1408129710311,0.85413146,4.3993454,0.8499416,0.5677479,9.661651,1.5813184
1408129710316,0.82480246,3.8361096,1.2108675,0.6098472,9.649158,1.6408
1408129710331,0.670975,3.465607,1.4012065,0.64678985,9.634551,1.7109934
1408129710348,0.65242,3.293823,1.5825673,0.68003935,9.6177635,1.7906898
1408129710348,0.8391677,3.4614172,1.7399861,0.7117143,9.600315,1.8702456
1408129710368,0.9247604,4.235343,1.9249382,0.7445176,9.583453,1.9425503
1408129710368,1.0402806,4.887164,2.0219033,0.7790371,9.567666,2.0058079
1408129710377,1.2497733,5.467758,1.9339164,0.81331336,9.553679,2.0581832
1408129710408,1.5292963,6.167464,1.9788077,0.84341866,9.542583,2.0971727
1408129710409,1.8237832,7.004237,2.2451627,0.8719881,9.53309,2.1284351
1408129710409,1.9548657,7.6985555,2.6114755,0.8929168,9.52707,2.1466336
1408129710440,2.1039047,8.061875,3.0777464,0.9034633,9.5245,2.153607
1408129710440,2.5288756,8.4108305,3.7457285,0.89885974,9.525426,2.1514406
1408129710441,3.0753522,9.07582,4.313753,0.87864786,9.529658,2.1410174
1408129710445,3.4560301,10.02153,4.667496,0.8457152,9.536937,2.1217883
1408129710472,3.2878375,10.67395,4.869208,0.8107079,9.544954,2.0992918
1408129710472,2.9604304,10.737994,4.647744,0.7626621,9.555742,2.0679746
1408129710478,2.3092074,10.307038,3.8720226,0.7071008,9.568179,2.0298593
1408129710502,1.2659341,11.473613,3.5775359,0.64973027,9.58143,1.9860561
1408129710503,0.19273324,14.048577,3.4302924,0.59683084,9.59309,1.94598
1408129710505,0.350152,15.762825,1.8836381,0.54874945,9.601047,1.9207302
1408129710537,1.1923125,13.5535755,0.31304187,0.5208912,9.606161,1.9028176
1408129710538,2.7006595,9.905411,0.15622166,0.51378816,9.60929,1.8889049
1408129710542,3.7954082,7.6470804,2.0219033,0.543005,9.603194,1.9115967
1408129710546,3.5116954,7.1730285,6.6067996,0.59294516,9.584186,1.990534
1408129710570,0.80564886,10.515932,10.58716,0.66419524,9.550037,2.1274478
1408129710571,0.8367735,17.028759,7.3166804,0.7339653,9.507093,2.290604
1408129710577,-1.2797008,16.753426,3.5164838,0.8138661,9.487189,2.3454778
1408129710604,-4.8638206,15.368381,1.7196354,0.8692305,9.488846,2.3187554
1408129710605,-4.8027687,15.148114,0.15023616,0.8666433,9.508638,2.2372105
1408129710606,-4.103063,14.447211,0.007182605,0.83803177,9.53445,2.1359751
1408129710634,-4.3448777,13.471575,0.31663316,0.77954614,9.5543995,2.067888
1408129710635,-3.804985,12.389994,-1.074398,0.67452645,9.571811,2.0238233
1408129710637,-3.040636,11.68969,-1.7471687,0.5576915,9.592551,1.9601815
1408129710646,-2.681506,10.870275,-1.3000516,0.45219132,9.612358,1.8890457
1408129710667,-2.0775685,9.834782,-0.59735334,0.3582727,9.627244,1.8325406
1408129710667,-1.2348095,8.347384,0.6440403,0.27273545,9.633766,1.8128865
1408129710677,-0.35793316,7.275979,1.7950528,0.19622926,9.633321,1.8251047
1408129710711,0.2717419,7.0874357,2.5061307,0.12586299,9.630737,1.8448474
1408129710711,0.48841715,7.5106106,2.6234465,0.06296484,9.628622,1.8590541
1408129710712,0.50876784,8.597578,2.3630772,0.006932649,9.628387,1.8613107
1408129710741,0.42437226,9.181165,1.9261353,-0.049123146,9.629627,1.8542539
1408129710741,-0.12689269,8.959702,1.553837,-0.10610307,9.6335745,1.8312277
1408129710742,-1.0755951,8.085219,0.98341835,-0.17622276,9.638694,1.7985861
1408129710746,-1.5041572,7.7201033,0.7422025,-0.26792058,9.645072,1.7524828
1408129710770,-1.8411411,7.700351,0.31783026,-0.37256217,9.653157,1.6876442
1408129710771,-2.1051018,7.69257,-0.073621705,-0.4767905,9.6628275,1.6039972
1408129710780,-2.3104045,7.73387,-0.3477578,-0.5709423,9.672297,1.5136374
1408129710807,-2.3062148,7.89907,-0.6697779,-0.6588715,9.680991,1.4194036
1408129710807,-2.0039468,7.9541364,-0.4758476,-0.73552877,9.6882515,1.3293586
1408129710808,-1.5586253,7.896077,-0.30286652,-0.80004704,9.693285,1.2532214
1408129710831,-1.2761095,7.764396,-0.23702596,-0.8533346,9.695965,1.196034
1408129710831,-0.99419224,7.801506,-0.18854338,-0.9004022,9.696154,1.1594312
1408129710848,-0.5859809,7.893683,-0.11192893,-0.94712305,9.693941,1.1405418
1408129710850,0.017956512,7.712322,-0.039504327,-0.9947882,9.690728,1.127204
1408129710867,0.16879122,7.4447703,-0.18854338,-1.0503484,9.686459,1.1133975
1408129710868,0.51355624,7.410054,-0.35793316,-1.1189345,9.6817465,1.0872815
1408129710877,1.0013748,7.5644803,-0.037708677,-1.1951324,9.676545,1.0519258
1408129710894,1.3455414,7.8769236,0.5883751,-1.2691312,9.670312,1.0221334
1408129710921,1.2689269,8.200141,1.3317747,-1.3309847,9.663458,1.0082046
1408129710922,1.2024878,8.245032,1.8429368,-1.3799031,9.656682,1.0073583
1408129710923,1.4933833,8.264784,2.0135236,-1.4241476,9.648112,1.027688
1408129710926,1.822586,8.321048,1.7956513,-1.4659353,9.637548,1.0672901
1408129710952,1.8195933,8.323442,1.6567876,-1.5115721,9.625415,1.112184
1408129710953,1.7166426,7.941567,1.5346833,-1.5640844,9.612114,1.1538048
1408129710958,1.6699557,7.1969705,1.5837644,-1.6211904,9.597638,1.1947643
1408129710985,1.9129672,6.7223196,1.8189948,-1.6802809,9.581337,1.2429906
1408129710985,2.3385365,6.703166,1.9033904,-1.7385069,9.564026,1.2951436
1408129710986,2.421735,7.197569,1.9452889,-1.7891446,9.546852,1.3516412
1408129710998,1.9033904,8.200141,1.8866309,-1.8305756,9.531949,1.4004792
1408129711022,0.8936358,9.481039,1.8297687,-1.8634084,9.52008,1.4374278
1408129711023,-0.10055647,10.520123,1.6418238,-1.8915167,9.509977,1.4672661
1408129711026,-0.5057751,10.669162,0.90859956,-1.9220766,9.499582,1.4946463
1408129711063,0.04070143,10.013748,0.57161564,-1.9574322,9.489311,1.5138747
1408129711063,0.87927055,9.504382,1.6065093,-1.9930239,9.48031,1.5237924
1408129711064,0.76554596,9.57142,2.533664,-2.0204709,9.473947,1.5272315
1408129711084,0.37828386,9.818622,2.296638,-2.0406048,9.469482,1.5281473
1408129711084,-0.28191724,9.846154,0.9672575,-2.054644,9.466816,1.5258534
1408129711086,-1.3820529,10.2974615,-0.3417723,-2.0658574,9.466896,1.5101386
1408129711119,-1.3599066,11.731588,0.23343466,-2.0752301,9.471382,1.4685915
1408129711120,-1.292869,11.588534,1.021127,-2.0746844,9.479275,1.4175469
1408129711120,-1.3533225,8.7951,0.5315128,-2.0569086,9.49189,1.3577718
1408129711126,-1.6346412,6.3709707,0.6955156,-2.0173924,9.509451,1.2926198
1408129711149,-2.327164,5.251083,1.050456,-1.9448625,9.532702,1.2310604
1408129711150,-3.445855,5.81791,0.52612585,-1.8457422,9.559974,1.1706939
1408129711166,-4.1695023,8.018182,0.23463176,-1.7330235,9.588549,1.107596
1408129711166,-4.9320555,11.492766,0.42676646,-1.6202615,9.615576,1.042046
1408129711178,-4.793192,16.221315,1.0893618,-1.5030174,9.639692,0.9938101
1408129711194,-3.8893807,19.515139,0.7140707,-1.3713578,9.661315,0.9740496
1408129711219,-1.79206,19.608511,-0.0077811554,-1.2095598,9.684327,0.9597715
1408129711220,-1.7286136,19.608511,-0.11252748,-1.0109093,9.709638,0.93348986
1408129711221,-2.4612393,19.449297,0.48123455,-0.8303214,9.729157,0.9079825
1408129711226,-2.5079262,16.795324,1.0803835,-0.6943869,9.738838,0.91827655
1408129711255,-2.309806,12.980763,2.1212628,-0.5793858,9.742215,0.96120703
1408129711256,-2.9083564,10.956466,3.221997,-0.4935193,9.737533,1.0522882
1408129711260,-4.276643,10.672154,2.7335799,-0.435767,9.727972,1.1606406
1408129711286,-4.180875,9.337387,1.3904326,-0.3968919,9.719286,1.2443247
1408129711292,-3.3249476,8.424597,1.1965023,-0.33997256,9.715786,1.2877493
1408129711293,-2.8209682,7.025785,1.9991584,-0.24279512,9.714409,1.3197303
1408129711325,-1.5921441,6.4032927,2.7688942,-0.12744287,9.710901,1.3610785
1408129711326,-0.25617957,6.269217,2.9963434,0.008447219,9.703482,1.4187143
1408129711327,0.5859809,6.569091,2.7090392,0.14870083,9.693154,1.4802128
1408129711328,1.1198878,6.4864907,2.088941,0.2791082,9.681779,1.5348214
1408129711356,1.2491747,6.0321913,1.4885949,0.39028636,9.670563,1.5806022
1408129711357,0.9044097,5.4019175,1.1468226,0.48269892,9.659034,1.6249508
1408129711358,0.7727286,5.1020436,1.2503718,0.55869573,9.646116,1.6765083
1408129711379,0.6787562,4.8919525,1.1815386,0.6289276,9.631629,1.7339433
1408129711380,0.6147113,4.7399206,0.93373865,0.693233,9.615525,1.7976433
1408129711400,0.58119243,4.807557,0.85652566,0.755067,9.5987425,1.8612891
1408129711401,0.8062474,5.01705,1.122282,0.8164514,9.581427,1.9235495
1408129711406,0.99179804,5.4683566,1.6023195,0.8785183,9.562987,1.9869199
1408129711427,0.9504981,5.808932,1.8285716,0.93632305,9.543839,2.0515442
1408129711428,0.81163436,5.885546,1.894412,0.9889774,9.5246725,2.1149356
1408129711444,0.7146692,5.613206,1.7579426,1.025775,9.508364,2.1700659
1408129711446,0.7116765,5.5204306,1.7429788,1.0443416,9.496765,2.2116091
1408129711458,0.9163807,5.6161985,2.1021092,1.0448818,9.490639,2.2375007
1408129711474,1.3084313,5.7335143,2.6605566,1.0294385,9.489187,2.2507696
1408129711477,1.6825253,5.769428,3.283049,0.9977579,9.491922,2.253502
1408129711494,2.0817583,5.876568,3.875614,0.94763434,9.499098,2.2448893
1408129711510,2.4851813,6.217143,4.39755,0.8892653,9.507692,2.232351
1408129711510,2.8078,7.03596,4.6980224,0.81535214,9.520353,2.2064576
1408129711526,3.0023289,8.276156,4.8219223,0.7319188,9.535869,2.1683884
1408129711526,2.712032,8.6334915,3.1106665,0.64800704,9.551589,2.1254761
1408129711541,2.0147207,9.147646,2.765303,0.56765765,9.567647,2.0756433
1408129711546,1.5705963,11.203069,3.2956185,0.49936333,9.579439,2.0384753
1408129711559,1.939902,14.607623,3.9935284,0.44205353,9.587696,2.0127292
1408129711581,2.0608091,18.219875,3.6152446,0.4222093,9.588168,2.014735
1408129711582,2.3582888,15.901091,3.0921116,0.4420023,9.582745,2.0361812
1408129711586,3.788824,11.926716,4.595072,0.5039745,9.571447,2.0745554
1408129711614,4.233547,11.780669,8.895657,0.60245615,9.5497,2.1472418
1408129711615,2.2272062,17.853561,10.176555,0.7182026,9.506012,2.300068
1408129711620,1.3221979,19.370289,1.9949685,0.8185791,9.454675,2.4717286
1408129711626,-0.94930094,16.50862,-0.7314286,0.91219544,9.440797,2.4919164
1408129711648,-3.3901896,14.077906,1.2725182,0.97616357,9.446442,2.4458606
1408129711648,-3.7684734,11.522695,2.1416135,0.9958237,9.452116,2.4158323
1408129711658,-4.449025,8.483853,2.5258827,0.9824174,9.446175,2.4443877
1408129711681,-4.394557,7.8835077,2.3229742,0.92170703,9.426799,2.5409253
1408129711682,-3.9815574,8.240842,1.1671734,0.82200044,9.407637,2.644065
1408129711686,-3.4955344,8.426393,0.16519992,0.7220042,9.394449,2.7190826
1408129711720,-2.8580782,9.032724,-0.14065935,0.62670714,9.395604,2.7386568
1408129711721,-2.4331074,9.376292,-0.41718966,0.5491984,9.406561,2.717609
1408129711722,-1.3808558,10.228029,0.22266077,0.48796466,9.422019,2.675414
1408129711727,-0.14425065,10.629059,1.3383588,0.4441125,9.439707,2.620137
1408129711748,0.62847793,10.4728365,1.6130934,0.41983026,9.458084,2.557106
1408129711749,0.88944596,10.432136,1.1629834,0.40824613,9.477657,2.4855049
1408129711758,1.1150994,10.376471,0.8738836,0.39455688,9.498441,2.4071372
1408129711783,0.9876082,10.142437,0.97144735,0.36861342,9.521075,2.3202705
1408129711784,0.7009025,9.762956,1.6089035,0.32027078,9.543142,2.2352276
1408129711786,0.14903906,9.100959,1.8100165,0.2541589,9.561626,2.1635811
1408129711819,-0.4961983,8.305486,1.448492,0.17630357,9.577022,2.102368
1408129711820,-0.8487445,7.623737,0.99538934,0.09097926,9.591572,2.040559
1408129711820,-1.2419921,7.375937,0.55365914,0.0040675784,9.605441,1.976327
1408129711826,-1.7723078,7.2430587,-0.01316811,-0.083076395,9.619128,1.9067994
1408129711849,-2.1176715,7.065289,-0.31663316,-0.17241256,9.632222,1.8332926
1408129711850,-2.2397757,7.0766616,-0.2896984,-0.26542422,9.643786,1.7599179
1408129711859,-2.1643584,7.3579803,0.0077811554,-0.3565223,9.65283,1.6929718
1408129711878,-1.8668787,7.567473,0.1945289,-0.43799165,9.658841,1.6387058
1408129711879,-1.5454572,7.643489,0.109534726,-0.5055608,9.663213,1.592827
1408129711894,-1.1953052,7.6560583,-0.038307227,-0.5656089,9.665086,1.5609633
1408129711916,-0.85652566,7.641693,-0.260968,-0.62078106,9.665244,1.5388553
1408129711916,-0.45429978,7.560889,-0.28191724,-0.6798788,9.664575,1.5179483
1408129711918,-0.17477672,7.771579,-0.077811554,-0.74763966,9.6639385,1.4898716
1408129711926,0.11611878,8.069058,0.19512744,-0.8252392,9.663297,1.4526157
1408129711941,0.65780693,8.090008,0.5506664,-0.90837383,9.661786,1.4124913
1408129711956,1.2539631,8.316259,0.9828198,-0.98834467,9.659081,1.376847
1408129711958,1.4496891,7.9702973,1.3515269,-1.0616215,9.654335,1.3554183
1408129711977,1.2892777,7.680599,1.608305,-1.1289115,9.646101,1.3596611
1408129711991,1.0444705,7.9278,1.8231846,-1.1941797,9.634358,1.3868897
1408129711992,0.90979666,7.9343843,1.661576,-1.2615274,9.620584,1.4224298
1408129712009,1.0127473,7.301717,1.365892,-1.3330617,9.60637,1.4529281
1408129712009,1.3706805,7.098808,1.146224,-1.4105108,9.591404,1.4784542
1408129712023,1.7591397,7.143699,1.1504139,-1.4876577,9.576607,1.4986235
1408129712026,1.9434932,7.5321584,1.4161704,-1.5630101,9.561824,1.5162305
1408129712041,1.95307,8.293514,1.4041992,-1.6332594,9.54676,1.5369552
1408129712057,1.6783354,8.793304,1.7064673,-1.6982716,9.53113,1.5632703
1408129712058,1.3257892,8.922591,2.4893713,-1.7609482,9.514127,1.5971305
1408129712079,0.7158663,9.169194,2.7455509,-1.8251196,9.494521,1.6411608
1408129712079,-0.46926352,9.348759,2.5007436,-1.89359,9.473116,1.6866564
1408129712100,-0.9672575,9.303867,1.5765818,-1.9699353,9.449973,1.7285042
1408129712100,-0.073023155,9.317635,0.33638534,-2.046093,9.427385,1.763039
1408129712107,2.2266076,9.363723,0.49559975,-2.1089494,9.408619,1.789021
1408129712126,3.2202013,9.562442,1.9596541,-2.1482856,9.3961315,1.8077526
1408129712127,1.827973,9.716867,3.1872811,-2.175947,9.386692,1.8236433
1408129712143,0.27712885,10.261548,2.8401217,-2.2140772,9.373975,1.8430505
1408129712158,-0.78649527,11.137826,3.3273418,-2.2593327,9.361581,1.8511091
1408129712161,-2.1398177,11.256938,3.7978024,-2.295192,9.351918,1.8558273
1408129712181,-2.2008698,10.390836,2.4480712,-2.3178563,9.345891,1.8580245
1408129712182,-1.1121067,9.592369,1.5628152,-2.311684,9.3508415,1.840725
1408129712187,-1.0127473,9.606734,1.1168951,-2.265263,9.370971,1.7955115
1408129712212,-1.602918,9.766547,-0.6123171,-2.19313,9.404189,1.7093278
1408129712213,-2.1571758,9.359533,-1.8070238,-2.1211174,9.442706,1.5832056
1408129712219,-2.7353754,8.898649,-1.7190368,-2.0377038,9.486986,1.4195919
1408129712227,-3.0974984,9.449914,-1.75076,-1.946912,9.530581,1.244155
1408129712247,-3.3650506,11.258734,-1.6998832,-1.8472681,9.571175,1.0726758
1408129712248,-4.1706996,14.463971,-1.240795,-1.735283,9.608294,0.91645145
1408129712258,-4.620809,18.57661,-0.92296475,-1.6148502,9.640041,0.7951183
1408129712285,-5.613206,19.608511,-0.7266402,-1.4887798,9.668016,0.6952602
1408129712286,-6.7187285,19.593548,-0.17836803,-1.3693068,9.689031,0.6466165
1408129712287,-6.9090676,17.028759,0.94690675,-1.2699625,9.702085,0.65356827
1408129712322,-6.244078,12.80479,2.2852654,-1.1956973,9.706655,0.7221896
1408129712323,-5.3923407,9.123106,3.091513,-1.1388083,9.7038555,0.84185153
1408129712323,-4.882974,8.297106,3.0711622,-1.0887182,9.696425,0.9820568
1408129712327,-5.443816,9.461287,2.1643584,-1.0393529,9.688089,1.1095314
1408129712345,-4.8458643,10.337564,1.4730326,-0.9951894,9.680254,1.2135406
1408129712347,-3.5194764,9.391256,1.4293385,-0.92822397,9.67911,1.2742087
1408129712359,-2.005144,7.929596,1.79206,-0.81493336,9.684728,1.3085548
1408129712383,-0.6907272,7.1083846,2.3080103,-0.65662926,9.692634,1.338685
1408129712384,0.75118077,7.255628,2.552219,-0.47736025,9.699048,1.3678402
1408129712387,1.8620903,8.01459,2.4408886,-0.29138467,9.703302,1.3897455
1408129712412,2.5995045,8.717288,1.9728222,-0.104002595,9.70485,1.4055163
1408129712414,2.5007436,8.063671,1.1695676,0.06948636,9.704428,1.4105513
1408129712419,2.4157495,7.1275387,0.86011696,0.20602892,9.702371,1.4113616
1408129712427,1.9249382,6.3242836,0.6997054,0.29925534,9.698292,1.4226607
1408129712441,1.5400703,5.321712,0.8026561,0.35588154,9.691713,1.4541061
1408129712458,1.3688848,4.689044,1.0803835,0.39033085,9.68209,1.508371
1408129712460,1.1587936,3.9791632,1.3192052,0.412033,9.669596,1.5809915
1408129712479,0.8265981,3.3967736,1.6226702,0.4271578,9.655506,1.6610594
1408129712479,0.5758055,3.0591912,1.8632874,0.43704432,9.639974,1.7465079
1408129712487,0.59974754,2.882619,2.0177135,0.44446847,9.624429,1.8284471
1408129712509,0.6218939,2.9005754,2.099715,0.4530516,9.610241,1.8995856
1408129712510,0.6991069,3.1914709,2.2307975,0.46401846,9.598432,1.9558117
1408129712525,0.9068039,3.5523968,2.2948422,0.47648743,9.589585,1.9957992
1408129712542,1.1486182,3.7858315,2.6162639,0.49008012,9.582255,2.027463
1408129712543,1.4580688,4.160524,3.0310593,0.49881834,9.578574,2.04267
1408129712564,1.8483237,4.835689,3.484162,0.4986633,9.578695,2.0421457
1408129712565,2.3062148,5.843648,3.7942111,0.4856667,9.582628,2.0267584
1408129712567,2.801216,7.280169,3.8283286,0.45800477,9.590352,1.9964403
1408129712590,3.3734303,9.012972,4.1144357,0.41695008,9.601202,1.9528099
1408129712591,3.6194344,10.435727,4.519056,0.36866543,9.6122465,1.907664
1408129712608,3.4171243,11.304223,4.19943,0.32307678,9.621422,1.8692864
1408129712609,3.0244753,11.437101,3.681085,0.27647468,9.629197,1.8364447
1408129712629,2.565387,12.070967,3.6499605,0.23914859,9.636062,1.8054152
1408129712630,2.0081367,14.034212,3.2992098,0.22041634,9.641095,1.780756
1408129712640,1.4437037,18.422783,3.108871,0.22061208,9.644666,1.761291
1408129712662,1.158195,19.372084,1.4622587,0.23444012,9.647352,1.7447137
1408129712662,2.304419,16.885706,0.4782418,0.24787608,9.653766,1.7069714
1408129712668,4.0863037,13.113641,2.0284874,0.28714523,9.657328,1.6804672
1408129712697,4.4298716,10.393828,5.559336,0.34630775,9.646392,1.7313526
1408129712698,2.5953147,10.638037,10.392631,0.4202532,9.615024,1.8828455
1408129712702,0.4866215,15.664663,8.84478,0.5007835,9.564177,2.1085813
1408129712708,-0.7164649,17.940351,2.633622,0.56722677,9.523047,2.2716095
1408129712728,-4.410718,15.766417,1.1234791,0.6196996,9.515445,2.2896922
1408129712729,-6.1620765,14.827889,0.2813187,0.63027036,9.516411,2.2827826
1408129712739,-6.2219315,13.743915,-0.47884035,0.622084,9.51954,2.2719529
1408129712760,-5.7059813,11.253945,-0.6751649,0.58376205,9.51585,2.2974358
1408129712761,-5.380968,9.577405,-0.5093664,0.501676,9.505724,2.3579493
1408129712780,-4.9559975,8.401254,-0.43754035,0.3917191,9.499186,2.4046662
1408129712781,-4.3221326,7.7572136,-0.08559271,0.28741512,9.497983,2.4240701
1408129712788,-3.3476925,7.997831,0.736217,0.2046721,9.496783,2.4371302
1408129712817,-2.4953568,8.370728,0.58777654,0.134451,9.496296,2.4439063
1408129712818,-1.4634558,8.51857,0.65182143,0.08015563,9.497694,2.4408593
1408129712820,-0.17776948,7.9649105,0.9959879,0.0341032,9.501952,2.4253118
1408129712845,0.42437226,7.557896,1.0007763,-0.006803908,9.510586,2.3914611
1408129712845,0.57760113,7.8463974,0.961272,-0.048607014,9.525549,2.3306553
1408129712848,0.2765303,8.474875,0.97264445,-0.094504036,9.545916,2.244318
1408129712859,-0.15801731,8.868722,0.81283146,-0.14709479,9.567046,2.1495016
1408129712879,-0.5374983,8.5060005,0.84934306,-0.20792036,9.587811,2.0496445
1408129712883,-0.8655039,8.252813,0.9271546,-0.2831932,9.604821,1.9589828
1408129712888,-0.973243,8.059482,0.96426475,-0.37379685,9.618794,1.8733554
1408129712913,-0.9756372,7.795521,0.61411273,-0.47135904,9.631774,1.7824581
1408129712914,-1.3623008,7.7590094,0.046088383,-0.56681937,9.644502,1.6830591
1408129712919,-1.738789,8.110358,-0.108337626,-0.66030186,9.655972,1.5800678
1408129712945,-2.0045455,8.364143,-0.02813187,-0.7435978,9.665632,1.4808862
1408129712946,-2.1571758,8.738237,-0.107140526,-0.8137372,9.672717,1.3952552
1408129712948,-2.1972785,8.782531,-0.078410104,-0.86883855,9.677617,1.326366
1408129712960,-2.0949266,8.456919,-0.1933318,-0.9074739,9.680647,1.2774692
1408129712985,-2.111686,7.873931,-0.12569559,-0.9384478,9.681374,1.2492845
1408129712986,-1.8686744,7.047333,-0.07062895,-0.9738403,9.679972,1.2329485
1408129712988,-0.4405331,6.689998,-0.21188685,-1.0113018,9.676289,1.2317111
1408129713020,0.09935937,7.796119,-0.05327099,-1.0493535,9.672812,1.227167
1408129713021,0.50876784,8.799889,0.26874915,-1.0900137,9.671075,1.2052355
1408129713047,1.2503718,9.560646,0.54767364,-1.2410475,9.666507,1.0903325
1408129713048,1.9387048,9.994595,0.6805518,-1.2410475,9.666507,1.0903325
1408129713049,2.3469162,9.554661,0.8798691,-1.2410475,9.666507,1.0903325
1408129713049,2.6318262,9.056666,1.2246342,-1.2960858,9.661724,1.0684752
1408129713079,2.5127146,8.560468,1.7172412,-1.3538693,9.652823,1.0772374
1408129713080,2.0620062,7.9864583,1.9674352,-1.4138813,9.638888,1.1239148
1408129713080,1.3569138,7.602189,1.9111716,-1.4770018,9.619936,1.2023699
1408129713088,0.36750996,7.3472066,1.7788919,-1.5488001,9.596825,1.2932729
1408129713112,-0.25917232,7.019201,1.555034,-1.6314539,9.571673,1.375434
1408129713112,-0.09876082,7.055712,1.4610616,-1.7216676,9.5454035,1.4462147
1408129713120,0.22804771,7.043741,1.5472529,-1.8130953,9.519636,1.5032012
1408129713145,0.64703304,7.033566,1.6657659,-1.8994778,9.494224,1.5563198
1408129713145,0.7739257,7.2394676,2.3133974,-1.9789935,9.469342,1.6079568
1408129713148,0.65062433,7.9744873,2.472612,-2.0508265,9.444404,1.6636503
1408129713180,0.41240123,9.060856,1.8351556,-2.1140926,9.420269,1.7203356
1408129713181,0.7009025,9.837775,0.90620536,-2.1681075,9.399532,1.765922
1408129713182,1.8902222,9.856929,0.2873042,-2.210741,9.38363,1.7973638
1408129713188,3.301604,9.715671,0.8230068,-2.2333064,9.376564,1.8063133
1408129713215,3.156755,9.710882,2.0799627,-2.2346983,9.375859,1.8082525
1408129713216,1.7316064,9.853337,2.6581624,-2.2339592,9.374803,1.8146368
1408129713220,0.011971008,10.168175,2.212841,-2.2452092,9.370236,1.8243011
1408129713245,-0.76195467,10.810419,2.1757307,-2.2665591,9.3642435,1.828677
1408129713245,-1.5436616,11.200674,2.8760347,-2.2816482,9.360646,1.82833
1408129713248,-2.1158757,10.422559,2.0009542,-2.2940674,9.359104,1.8206593
1408129713280,-1.7872716,9.117719,0.6691794,-2.292295,9.365211,1.791255
1408129713280,-1.6280571,8.422203,1.3557167,-2.2612653,9.382106,1.7416028
1408129713281,-2.0260932,7.6009917,1.4574703,-2.20026,9.407465,1.681921
1408129713288,-3.0867245,6.8599863,0.6422446,-2.1233284,9.438949,1.6025414
1408129713314,-4.1695023,7.120356,-0.11372458,-2.03991,9.474651,1.496709
1408129713315,-4.9961004,8.81605,-0.44232875,-1.9575362,9.5107765,1.3724332
1408129713320,-4.9733553,11.769297,0.026934769,-1.862909,9.54867,1.2340549
1408129713345,-4.869208,16.081852,0.80445176,-1.7490231,9.585453,1.1092427
1408129713346,-4.1706996,19.487005,0.30825347,-1.610938,9.61939,1.0210892
1408129713348,-4.1706996,19.608511,-0.4902128,-1.4395106,9.653612,0.9518214
1408129713379,-5.5162406,19.608511,-0.046088383,-1.2623277,9.684591,0.88634956
1408129713380,-5.943606,17.724276,1.1372458,-1.1103919,9.707556,0.83712184
1408129713381,-5.567716,13.739126,2.461838,-0.98993915,9.72111,0.83092344
1408129713388,-4.657321,10.114903,3.3824084,-0.89320326,9.725233,0.89017767
1408129713416,-3.6056678,8.603564,3.301604,-0.81129944,9.72259,0.99167895
1408129713417,-3.82773,9.59177,2.5761611,-0.7360362,9.717575,1.0942467
1408129713423,-3.502717,9.672575,1.9339164,-0.66702366,9.71385,1.1690111
1408129713450,-2.078167,9.205706,2.2577322,-0.58583164,9.714573,1.2059312
1408129713450,-0.7613561,7.5692687,2.6024973,-0.4842184,9.7170315,1.2309408
1408129713451,0.37948096,7.1885905,2.8042088,-0.34578335,9.721423,1.242894
1408129713484,1.2791022,7.736264,2.742558,-0.179052,9.724667,1.2526742
1408129713485,2.0572178,8.672397,2.3594859,-0.0017659868,9.725618,1.2580801
1408129713486,2.5013423,9.330204,1.733402,0.1694339,9.724522,1.2551394
1408129713489,2.5025394,9.280524,1.0588357,0.31964806,9.721692,1.2477691
1408129713517,2.078167,8.338406,0.3812766,0.4517199,9.71734,1.2408229
1408129713517,1.6358383,7.380127,0.22026655,0.54700387,9.711548,1.2478132
1408129713520,1.2910733,6.38773,0.43514615,0.6067031,9.703944,1.2789758
1408129713536,1.0606314,5.4366336,0.81283146,0.64001137,9.69399,1.3369133
1408129713540,0.9403227,4.8518496,1.2198458,0.65611285,9.6814165,1.4177725
1408129713553,0.8295909,4.4981065,1.5065514,0.6631421,9.666664,1.5120333
1408129713576,0.6913257,4.198831,1.738789,0.66588384,9.651045,1.607584
1408129713576,0.6488287,4.12102,1.9620483,0.66616553,9.635004,1.7009755
1408129713580,0.55485624,4.1180267,2.167351,0.6625187,9.619996,1.7852528
1408129713589,0.4213795,4.096479,2.2379801,0.65620774,9.606859,1.8568906
1408129713618,0.39803603,4.248511,2.1763294,0.64851326,9.596486,1.9124023
1408129713619,0.58777654,4.6255975,2.2152352,0.6398031,9.589679,1.9491245
1408129713620,0.92775315,5.1116204,2.3391352,0.6301619,9.586918,1.9657795
1408129713647,1.365892,5.6030307,2.4420857,0.62116987,9.586028,1.9729717
1408129713648,1.7232267,5.9968767,2.670732,0.6075497,9.5890465,1.9625199
1408129713649,2.0925324,6.4565635,3.198055,0.5839172,9.595624,1.937378
1408129713683,2.332551,7.0066314,3.828927,0.54664445,9.604357,1.9047035
1408129713684,2.3834279,7.5447283,4.183269,0.4958397,9.613965,1.8698221
1408129713685,2.055422,8.21271,3.976769,0.43589675,9.624325,1.8310534
1408129713689,1.073201,8.731055,3.4105403,0.37015235,9.636885,1.7787218
1408129713716,0.52492875,9.017162,3.0556,0.29978126,9.650861,1.7150567
1408129713717,0.22325931,10.320207,3.0083144,0.23321138,9.665034,1.6441202
1408129713721,0.30286652,13.438056,3.104681,0.18400705,9.676561,1.581362
1408129713744,0.6512229,17.955317,2.9125464,0.16131043,9.684043,1.5374267
1408129713745,1.1097125,19.174562,1.4221559,0.16870764,9.687638,1.5137979
1408129713749,1.8962077,16.027983,0.5410896,0.20763744,9.6908655,1.4880909
1408129713781,3.264494,12.631209,1.9440918,0.26410672,9.692235,1.4701017
1408129713782,3.4685998,11.871649,6.835446,0.34519008,9.684096,1.5065012
1408129713783,2.3026235,16.35539,9.669582,0.44176084,9.656723,1.6501359
1408129713789,0.5746084,19.608511,5.1080294,0.5491782,9.612195,1.8640023
1408129713815,-2.4396915,18.539501,1.1971009,0.6451362,9.587391,1.9586071
1408129713815,-4.0581717,16.057312,0.7086837,0.7063974,9.588059,1.9340402
1408129713820,-4.1216183,12.914324,0.37588966,0.7424315,9.589629,1.9126476
1408129713845,-4.1252093,9.287108,0.53450555,0.7664201,9.584096,1.9308287
1408129713846,-3.8217444,7.2789717,1.1384429,0.7480786,9.566612,2.0225544
1408129713849,-3.1471782,6.7690067,1.377863,0.6865476,9.546697,2.1353257
1408129713878,-2.7688942,6.341043,0.82719666,0.61411697,9.534345,2.2112222
1408129713879,-2.6659436,5.911284,0.9103952,0.5477584,9.532409,2.2368639
1408129713880,-2.392406,6.11539,1.453879,0.49234834,9.53544,2.2368174
1408129713889,-1.7513585,7.0287776,1.30484,0.44805086,9.53838,2.2335975
1408129713915,-0.717662,8.254609,1.1540052,0.41172114,9.542145,2.2244916
1408129713916,0.2657564,8.835203,1.365892,0.38700244,9.548968,2.1995094
1408129713921,1.1055226,9.450513,1.4119805,0.3719117,9.560003,2.1536918
1408129713950,1.270124,10.559028,0.98461545,0.35868976,9.575774,2.0847688
1408129713951,0.9864111,11.578958,0.51235914,0.33549798,9.596625,1.9906383
1408129713952,0.33399114,11.484985,0.020350715,0.29190585,9.619943,1.8819933
1408129713985,-0.55485624,10.67814,5.985504E-4,0.23070231,9.642136,1.773803
1408129713987,-1.4443022,9.8276,0.15801731,0.14269261,9.659848,1.6844436
1408129713988,-1.8764555,8.831013,0.34955344,0.03402144,9.672618,1.6154649
1408129713989,-1.9488802,7.9852614,0.7044938,-0.08155893,9.681478,1.5597172
1408129714018,-1.9991584,7.619547,0.6901286,-0.19232297,9.687049,1.514764
1408129714018,-2.0242975,7.6285253,0.49200845,-0.29473633,9.690917,1.4729813
1408129714022,-2.0649989,7.515399,0.39743748,-0.39183497,9.694047,1.4290957
1408129714046,-1.7956513,7.575853,0.43634325,-0.4794315,9.697037,1.3813184
1408129714047,-1.3563153,7.7039423,0.7793127,-0.5541657,9.699133,1.3379546
1408129714049,-0.8655039,7.946954,0.9151836,-0.6147527,9.699309,1.3099167
1408129714089,-0.85293436,7.6770077,0.5770026,-0.6632323,9.697727,1.2979345
1408129714091,-0.8888474,7.402273,0.28670564,-0.71085614,9.694841,1.2942618
1408129714092,-0.6943185,7.607576,0.25019407,-0.76657635,9.691083,1.290614
1408129714093,-0.63087213,7.9278,0.020949265,-0.82621014,9.687599,1.2799168
1408129714111,-0.36631286,8.364143,-0.02813187,-0.89330274,9.685254,1.2523005
1408129714111,0.24720132,9.077616,0.3645172,-0.9640141,9.683582,1.2121493
1408129714121,0.7565677,8.988432,0.5291186,-1.033799,9.680624,1.1777894
1408129714137,1.0384849,8.301894,0.3824737,-1.1051944,9.674135,1.1662073
1408129714152,1.0360907,7.740454,0.8331822,-1.1802332,9.663121,1.1838613
1408129714153,0.96067345,7.5070195,1.4586674,-1.2574548,9.648997,1.2190409
1408129714181,0.6907272,7.3322425,1.809418,-1.33388,9.631078,1.278081
1408129714182,0.516549,7.1191587,1.9003977,-1.4103967,9.611183,1.3439943
1408129714183,0.46387658,6.903082,1.8207904,-1.4893378,9.590975,1.4019535
1408129714191,0.61112,7.0090256,1.6376339,-1.5716888,9.571107,1.4470878
1408129714216,0.89064306,7.3340383,1.5598224,-1.6521567,9.552232,1.4817729
1408129714216,1.2180501,7.7967176,1.4407109,-1.7239774,9.534436,1.5142034
1408129714223,1.4670471,8.246828,1.2126632,-1.7869443,9.517421,1.5478824
1408129714246,1.560421,8.604162,1.4784195,-1.8362088,9.502338,1.5824925
1408129714247,1.7106571,8.718486,1.8674773,-1.875182,9.488506,1.6193558
1408129714249,1.3964181,8.620323,2.079364,-1.905753,9.475832,1.6574341
1408129714269,0.8834604,8.926781,2.40318,-1.9325945,9.464112,1.692946
1408129714270,0.9367314,9.217078,2.136825,-1.9585432,9.452288,1.7288021
1408129714286,1.7316064,9.083601,1.484405,-1.9810239,9.441553,1.7615433
1408129714290,2.4821887,9.083003,1.8662802,-1.9921966,9.435021,1.7837992
1408129714331,2.3211784,9.440337,2.6833014,-1.9918385,9.433211,1.7937341
1408129714333,1.1923125,10.19451,2.9370868,-1.989283,9.433759,1.7936902
1408129714334,0.18555063,11.31799,2.5270798,-1.9920065,9.434893,1.7846959
1408129714335,-0.22385786,12.363059,2.7808652,-1.9949943,9.438277,1.763331
1408129714365,-0.7374141,12.32116,2.8389246,-1.9879041,9.4442625,1.7391238
1408129714366,-0.79487497,11.164163,1.4173675,-1.9796803,9.451669,1.707988
1408129714367,-0.2633622,10.33517,0.44891283,-1.9612862,9.464639,1.6566099
1408129714370,-0.16519992,10.241198,1.1438298,-1.9279952,9.483727,1.5849694
1408129714402,-0.9415198,10.200497,0.8822633,-1.886382,9.505861,1.5001796
1408129714403,-1.9925743,9.616311,-0.40462008,-1.8437486,9.530259,1.3946881
1408129714403,-3.221997,8.756793,-1.4000094,-1.7961891,9.556848,1.2691553
1408129714456,-4.2796354,8.1480665,-1.5544355,-1.7501081,9.582408,1.1335702
1408129714457,-5.0146556,9.504981,-1.6759412,-1.6933302,9.607742,0.9971669
1408129714457,-5.3324857,11.926117,-0.7398083,-1.6258945,9.632964,0.8560873
1408129714458,-5.4498014,15.584457,0.533907,-1.5426729,9.6572,0.7273644
1408129714459,-5.583278,19.22963,0.7870938,-1.443212,9.678854,0.63819665
1408129714461,-5.587468,19.608511,0.36750996,-1.3314307,9.697487,0.5970186
1408129714469,-5.0583496,18.640057,1.0408791,-1.2135377,9.714097,0.57795566
1408129714488,-3.8881836,14.784196,2.4558525,-1.0894951,9.726927,0.608498
1408129714511,-2.7670987,10.75655,3.448249,-0.9694439,9.733761,0.69604903
1408129714512,-1.9919758,7.991845,3.7235823,-0.86455363,9.732802,0.833962
1408129714512,-2.795829,8.380304,3.1681273,-0.776434,9.724717,0.99872404
1408129714521,-3.3261447,8.772355,2.0811598,-0.71057636,9.713333,1.1474425
1408129714535,-2.540248,8.93576,1.6759412,-0.65363574,9.705608,1.242704
1408129714554,-1.4514848,7.567473,2.1499932,-0.58938664,9.70153,1.3051093
1408129714554,-0.31364042,6.896498,2.8880057,-0.4929322,9.704235,1.3248588
1408129714575,0.25139117,6.839636,2.6072857,-0.3551868,9.709584,1.329746
1408129714576,1.4879963,8.133103,1.6041151,-0.19384032,9.714366,1.3281261
1408129714581,2.4648306,9.144054,0.5895722,-0.024483576,9.718103,1.3146387
1408129714609,2.5845408,8.934562,0.091578215,0.14100188,9.7201395,1.2920524
1408129714609,2.0440497,7.7374616,0.08678981,0.29416686,9.719209,1.2731199
1408129714610,1.6298528,6.6720414,0.48482585,0.41246963,9.713569,1.2832944
1408129714648,1.4802152,5.5563436,0.76315176,0.4901583,9.7033825,1.3321
1408129714649,1.1498153,4.6800656,1.1198878,0.5404813,9.689518,1.4112166
1408129714650,0.90381116,4.159327,1.5741876,0.57639,9.672979,1.5071994
1408129714651,0.88166475,4.103063,2.1188686,0.6040361,9.654778,1.6096063
1408129714674,0.81881696,4.3520603,2.5719712,0.6288448,9.635324,1.7133226
1408129714675,0.599149,5.035605,2.498948,0.65375704,9.614646,1.8170197
1408129714684,0.46507367,5.6868277,2.1308396,0.6785057,9.594307,1.912924
1408129714708,0.4237737,6.178836,1.8327614,0.7027772,9.576197,1.9932258
1408129714709,0.56682724,6.4128695,1.7118542,0.7234719,9.562045,2.052871
1408129714710,0.85532856,6.619369,1.7232267,0.73822254,9.552087,2.0935755
1408129714721,1.264737,6.8342485,1.9698294,0.74659103,9.546034,2.1180663
1408129714737,1.7016789,7.0946183,2.372654,0.75425816,9.541429,2.1360369
1408129714756,2.1176715,7.2723875,2.610877,0.75311583,9.539731,2.1439986
1408129714756,2.4259248,7.4974427,3.0184898,0.7394386,9.541086,2.142735
1408129714780,2.4546554,7.917625,3.6391866,0.70799977,9.545679,2.1328719
1408129714781,2.3122003,8.516774,3.8696284,0.6559697,9.553399,2.1148646
1408129714782,1.922544,9.000402,4.015076,0.58767885,9.56432,2.0853798
1408129714808,1.4083891,9.210494,4.358644,0.5109772,9.577348,2.0454104
1408129714808,1.0660183,9.378687,4.410718,0.43490094,9.58967,2.0048654
1408129714810,0.53929394,10.070012,4.638766,0.36836097,9.600553,1.9657354
1408129714822,0.20231004,11.494562,5.075109,0.32000747,9.607843,1.9383794
1408129714837,-0.020350715,13.40753,3.9067385,0.29234892,9.609343,1.9353226
1408129714853,0.44651863,14.335282,1.5981296,0.2824618,9.606893,1.948899
1408129714853,1.6358383,12.861651,1.0301052,0.2930456,9.605397,1.954706
1408129714875,2.6779146,10.043077,3.117849,0.3194033,9.602485,1.9648556
1408129714875,2.6868927,10.551846,7.716512,0.36250266,9.5891485,2.0216918
1408129714881,1.757344,15.2253275,7.639898,0.4196374,9.555701,2.163996
1408129714913,0.06344634,17.533936,3.1585505,0.49012673,9.517508,2.312404
1408129714914,-1.9859903,16.808493,1.5562311,0.56026405,9.505988,2.3436525
1408129714915,-3.1280246,15.549143,2.64679,0.61546504,9.513762,2.297809
1408129714944,-3.4314895,13.871407,2.1380222,0.6398303,9.516451,2.2799494
1408129714945,-3.6990416,11.572374,1.70946,0.63822985,9.512908,2.2951367
1408129714945,-3.9360676,10.374076,2.2092497,0.5886511,9.497628,2.3704293
1408129714950,-3.6643257,9.892242,1.0911574,0.49933735,9.481013,2.4559
1408129714977,-3.1292217,8.48146,0.81522566,0.4012213,9.47537,2.495353
1408129714978,-2.4193408,7.860164,1.1917139,0.3161769,9.477046,2.5012019
1408129714982,-1.7393875,7.9427643,0.664391,0.24886663,9.47807,2.5049238
1408129715007,-1.2198458,8.35337,0.3609259,0.19642018,9.478264,2.5088484
1408129715008,-0.2837129,8.136695,0.95827925,0.15584779,9.478999,2.5089197
1408129715010,0.9187749,7.5525093,1.364695,0.13015886,9.482481,2.4972005
1408129715034,1.7340006,8.039729,1.572392,0.1149189,9.490125,2.468747
1408129715035,1.9452889,9.176975,1.857302,0.102824345,9.502447,2.4214294
1408129715051,1.9722236,9.822212,1.857302,0.08786679,9.5171795,2.3634634
1408129715051,1.6502035,9.589975,1.572392,0.061352696,9.531969,2.3039556
1408129715066,0.8343793,8.971074,1.2593501,0.022027269,9.546416,2.2440662
1408129715070,-0.089184016,8.512584,0.96665895,-0.038895804,9.561681,2.1778746
1408129715082,-0.9008184,8.381501,0.919972,-0.12016649,9.57937,2.0956264
1408129715106,-1.448492,8.178593,0.58538234,-0.21461776,9.597885,2.0012321
1408129715107,-1.7998412,7.832032,0.18674773,-0.31239864,9.614444,1.9066409
1408129715110,-2.0015526,7.2987237,-0.049679685,-0.40693647,9.627483,1.8210856
1408129715142,-2.1380222,6.925827,-0.13946225,-0.49805972,9.637693,1.7427543
1408129715143,-1.83336,6.907272,0.19153613,-0.5809972,9.644567,1.6778544
1408129715144,-1.4383167,7.0048356,0.6512229,-0.64829564,9.64913,1.6261617
1408129715150,-1.3730747,7.150882,0.8583213,-0.6982756,9.651713,1.5897292
1408129715185,-1.3054385,7.1460934,0.5530606,-0.7391338,9.652202,1.5681425
1408129715186,-1.1216835,7.165247,0.2873042,-0.78249633,9.651282,1.5526913
1408129715190,-0.62129533,7.229292,0.15263036,-0.8362041,9.649571,1.5352335
1408129715222,0.048482586,7.7159133,0.17956513,-0.894054,9.648886,1.5066841
1408129715223,0.7134721,8.654441,0.5033809,-0.9603671,9.649402,1.4618887
1408129715223,1.4030021,8.857947,0.6218939,-1.0286694,9.650055,1.4101974
1408129715225,1.9141643,8.615535,0.7236475,-1.09664,9.648301,1.3704259
1408129715230,2.0159178,8.285733,1.0833763,-1.1698319,9.641416,1.3583127
1408129715254,1.6005238,8.4587145,1.4251486,-1.2494664,9.628013,1.3822445
1408129715254,1.2533646,8.694544,1.3634979,-1.3316841,9.610929,1.4237458
1408129715262,1.0097545,8.845977,1.0845734,-1.4106516,9.590677,1.4830168
1408129715271,0.7625532,8.998009,0.8936358,-1.4821701,9.570422,1.542914
1408129715295,0.9355343,8.825027,0.96905315,-1.5486383,9.551407,1.5945979
1408129715296,1.3072342,8.325238,1.3730747,-1.6090664,9.533707,1.6400383
1408129715302,1.638831,7.793725,1.8148049,-1.6591903,9.516783,1.6877025
1408129715333,1.8231846,7.739257,2.5492263,-1.6994314,9.500354,1.7394305
1408129715334,1.7052702,8.135497,3.1346085,-1.7335192,9.483634,1.7961012
1408129715336,1.4437037,8.763975,2.6007016,-1.7568057,9.468581,1.852021
1408129715368,1.0498575,9.512762,2.0446482,-1.7719553,9.457531,1.8935841
1408129715368,1.186327,10.087969,1.0390835,-1.7808858,9.450627,1.9195044
1408129715369,2.1583729,9.919178,0.5805939,-1.7842325,9.448053,1.9290386
1408129715400,2.9945478,9.598953,1.6627731,-1.7810516,9.449053,1.9270871
1408129715401,2.5151088,9.576807,2.7269957,-1.7737341,9.4502,1.9282062
1408129715402,0.9840169,9.99639,2.9753942,-1.7743822,9.449636,1.9303726
1408129715435,-0.11552023,10.755951,2.4480712,-1.7909179,9.446589,1.9300159
1408129715435,-0.6051345,11.368268,2.2697031,-1.8136852,9.44509,1.916036
1408129715439,-1.2282255,11.343728,1.963844,-1.8311806,9.448149,1.8840597
1408129715445,-1.4012065,10.773309,0.6805518,-1.8414918,9.455846,1.8347402
1408129715472,-1.0576386,10.543466,0.45848963,-1.8365525,9.469366,1.7687887
1408129715473,-0.9780314,10.613496,1.5819688,-1.8182343,9.487056,1.6912048
1408129715473,-1.4969746,10.231023,1.0073603,-1.7793436,9.508719,1.6089088
1408129715474,-2.6390088,9.115923,-0.29568392,-1.7302758,9.534228,1.508312
1408129715482,-4.052785,7.9116397,-0.92176765,-1.6757228,9.561756,1.391097
1408129715507,-4.624999,7.5189905,-1.2808979,-1.6145324,9.589095,1.27001
1408129715508,-4.5262384,8.409035,-1.4341269,-1.5390292,9.616933,1.1473428
1408129715510,-5.073313,10.770316,-0.95109665,-1.4523362,9.64446,1.0225092
1408129715543,-5.069722,14.989498,0.22505496,-1.3545258,9.670079,0.9084064
1408129715544,-5.3983264,19.159,0.44532153,-1.2465096,9.691041,0.83685696
1408129715545,-5.613206,19.608511,-0.5081693,-1.1381726,9.706598,0.8104897
1408129715551,-5.5467668,18.61073,-0.22026655,-1.0422885,9.717587,0.8077977
1408129715577,-4.985925,15.0343895,1.2970588,-0.9714976,9.721916,0.84316176
1408129715577,-4.246715,11.009138,2.6689363,-0.9005869,9.721175,0.9263502
1408129715584,-3.0424318,8.054693,3.566762,-0.84007055,9.712513,1.0638506
1408129715604,-3.0502129,8.834005,3.4632127,-0.776263,9.699228,1.2217994
1408129715605,-3.1663318,10.317214,2.3570917,-0.71081036,9.687072,1.3512164
1408129715610,-1.9572599,10.169372,1.7711107,-0.6295479,9.683209,1.4175702
1408129715635,-0.7009025,8.713697,1.9955671,-0.5050723,9.688462,1.4314312
1408129715635,0.3405752,8.131308,2.4732103,-0.34251523,9.695512,1.4318291
1408129715653,1.0229226,7.98167,2.6581624,-0.1686003,9.699513,1.4357594
1408129715654,1.673547,7.6387005,2.1978772,0.010231618,9.699698,1.4443477
1408129715663,2.3301568,7.765593,1.6286557,0.17691834,9.697446,1.4486701
1408129715690,2.5755625,7.5088153,0.9498995,0.32145008,9.6930275,1.4533758
