time,acc_x,acc_y,acc_z,local max
1408129704385,-0.786998467372,9.21361054433,-0.132141576262,0
1408129704386,-0.805828184023,8.69818510319,-0.122933725646,0
1408129704392,-0.817125788291,8.49568214289,-0.115828516221,0
1408129704400,-0.860374744732,8.40100260918,-0.0142335116168,0
1408129704422,-0.981174906771,8.35167895421,0.120471620026,0
1408129704423,-1.33661326975,8.46747417647,0.263283703615,0
1408129704432,-1.93805146506,8.84514772838,0.277922631207,0
1408129704449,-2.43225632978,9.29379935789,0.260239840686,0
1408129704471,-2.6398595006,9.61464325965,0.0155742280633,0
1408129704472,-2.47893808245,9.7567058261,-0.407873138941,0
1408129704474,-1.98745211745,9.61266816501,-0.752711351085,0
1408129704480,-1.37491220024,9.37687990142,-1.11404137257,0
1408129704498,-0.932764416728,9.12996609956,-1.03280333187,0
1408129704513,-0.7778369755,8.97517316009,-0.548844489767,0
1408129704513,-1.19893823575,8.80267904951,0.206781472062,0
1408129704527,-2.52343353048,8.48904106639,0.865203896683,0
1408129704547,-3.43215584304,8.20557038877,0.807198078052,0
1408129704548,-3.55478610205,8.42860122207,0.329143096149,0
1408129704562,-2.93954690199,8.84605824574,0.0459219134853,0
1408129704563,-2.00329348975,9.25174948518,0.087561609192,0
1408129704577,-1.40084538958,9.95855193113,0.11483700661,0.0
1408129704580,-0.728906960697,10.4820934674,-0.0239774369427,0.0
1408129704598,0.314677602192,10.4961294962,0.231013305741,0.0
1408129704613,0.808069787041,10.0567736844,1.07809096445,0.0
1408129704614,0.679915129504,9.78179297996,0.910746309865,0.0
1408129704633,1.19066887036,9.76253095384,0.440054407073,0.0
1408129704634,1.76781086191,9.39709022693,0.928021830591,0.0
1408129704640,2.67119419997,8.60735948282,1.55850154333,0.0
1408129704673,3.49066014198,8.37171857972,2.03018937514,0.0
1408129704674,3.7171630564,9.10699389516,2.21279260919,0.0
1408129704675,3.59591133249,11.2618269362,2.05090972035,0.0
1408129704680,3.6237082138,14.6451490386,1.9981964728,0.0
1408129704705,3.51740814551,18.2298791661,2.21643753807,0.0
1408129704705,3.20472662661,19.7179733698,2.28795841165,19.7179733698
1408129704712,3.28584871618,18.1735235488,1.42049428416,0.0
1408129704729,2.97682067045,15.4523396859,-0.0216712850608,0.0
1408129704732,2.62530007507,12.4299985401,-1.322597748,0.0
1408129704751,2.60238139575,10.6056933289,-2.17799386136,0.0
1408129704752,2.6977688625,10.3212493882,-2.0883343631,0.0
1408129704760,2.70537084779,10.2935544454,-1.64623975235,0.0
1408129704786,2.06854486872,9.81019293187,-1.28928241723,0.0
1408129704787,1.2670695723,8.40377296096,-1.49297517124,0.0
1408129704792,0.204493847781,7.90615501613,-2.02863219092,0.0
1408129704822,-0.626596779602,7.97872491911,-1.97953138517,0.0
1408129704822,-1.03046421323,7.99867886727,-1.52355838847,0.0
1408129704823,-1.24656409939,8.19959246568,-0.83011348405,0.0
1408129704846,-1.43345714889,8.47426329259,-0.164615387249,0.0
1408129704847,-1.59437880877,8.31568003857,0.106633708568,0.0
1408129704867,-1.43072796992,8.09244197908,0.0507123069875,0.0
1408129704867,-0.937978055033,7.17015297917,-0.0212146566299,0.0
1408129704872,-0.465243310843,6.11427256853,-0.195412548148,0.0
1408129704880,-0.338085228141,5.59552213035,-0.491855365197,0.0
1408129704901,-0.39607927749,5.3206020668,-0.695182317814,0.0
1408129704902,-0.426716112381,5.13968484134,-0.89576089147,0.0
1408129704912,-0.258309805286,5.0032953889,-1.06120117176,0.0
1408129704937,-0.0593501694474,5.12293986132,-1.11028559447,0.0
1408129704937,0.0804994667522,5.3204886224,-0.970314233555,0.0
1408129704941,0.176952672845,5.4883153152,-0.694248611949,0.0
1408129704971,0.17135214103,5.72549589395,-0.541728752435,0.0
1408129704972,0.0370308969872,6.11334877517,-0.498431457558,0.0
1408129704973,-0.134830813641,6.54652146372,-0.769011870969,0.0
1408129704980,-0.41619091993,6.95584019194,-1.09282253129,0.0
1408129704999,-0.79184603435,7.42372837088,-1.31569328254,0.0
1408129705000,-1.18283840559,8.12807413916,-1.41426497321,0.0
1408129705013,-1.45697723001,8.99357020805,-1.45264887587,0.0
1408129705035,-1.45967393868,9.72117904139,-1.46217365359,0.0
1408129705036,-1.18650611559,10.1846162884,-1.5372164134,0.0
1408129705040,-0.780869578474,10.2271694204,-1.72191538923,0.0
1408129705071,-0.0877647084381,10.4849129975,-1.78502706178,0.0
1408129705071,1.05336201355,12.0420593239,-0.995521972072,0.0
1408129705072,1.40683390036,14.1427930385,0.14894279925,0.0
1408129705080,0.557266311058,15.9785390796,1.29872352537,0.0
1408129705098,-0.904613105519,14.5700111051,1.93874503785,0.0
1408129705100,-2.92467354826,12.1476899624,1.47456309712,0.0
1408129705112,-4.6584373387,10.5942160194,-0.270039821205,0.0
1408129705144,-5.14790860006,10.4234942076,-3.67666992892,0.0
1408129705145,-3.44016979065,13.895841932,-6.72633250397,0.0
1408129705146,-1.55332739582,18.9667170552,-3.36819818551,18.9667170552
1408129705173,0.533739607546,17.5746062146,0.998736844923,0.0
1408129705174,3.13148024362,14.5144199273,2.26449682133,0.0
1408129705174,4.99068557926,13.1394567596,1.26866763849,0.0
1408129705206,5.4523699457,11.9627036168,0.058090412992,0.0
1408129705206,5.69073179723,11.4286100698,0.330549383739,0.0
1408129705207,5.62330568234,10.8051556817,2.03824709482,0.0
1408129705213,5.21030578737,9.1660339302,2.86362887973,0.0
1408129705233,4.72035001237,7.83960859012,2.0740382069,0.0
1408129705234,3.95322788217,7.59482356621,1.35156069283,0.0
1408129705241,3.01897197021,7.89426485001,1.71617809017,0.0
1408129705268,2.32004808013,8.09871126375,1.59671276902,0.0
1408129705269,1.4333304521,7.90304548588,0.586338631592,0.0
1408129705273,0.726707785405,7.50210489972,0.0117851973455,0.0
1408129705336,0.399232355536,7.39422638489,0.127088656671,0.0
1408129705337,0.30959668903,7.81169035538,0.224262745561,0.0
1408129705339,0.383004963772,8.28005944646,0.198746259705,0.0
1408129705340,0.491078699832,8.49274154416,0.210536708971,0.0
1408129705341,0.72099222501,8.49078400093,0.538224401798,0.0
1408129705343,0.973376541468,8.35611005105,1.05451558114,0.0
1408129705344,1.36465266397,8.35532032973,1.46749058173,0.0
1408129705373,1.50515214315,8.64369580441,1.60743909874,0.0
1408129705374,1.61912307217,8.67008565908,1.69272772309,0.0
1408129705375,1.72254492963,8.56838324821,1.78268279328,0.0
1408129705415,1.77756990214,8.64721282466,1.73710842857,0.0
1408129705416,1.63046579821,8.74337951175,1.4256882344,0.0
1408129705417,1.31802787677,8.42516115463,0.964458538736,0.0
1408129705417,0.973017737309,8.11923435491,0.726058009721,0.0
1408129705422,0.545957579519,7.96756093416,0.72891817292,0.0
1408129705435,0.322656092618,8.09336943973,0.97813663978,0.0
1408129705442,-0.0663745349364,8.25747961919,1.10478955924,0.0
1408129705465,-0.447048989185,8.23053259812,1.08313421138,0.0
1408129705466,-0.980464189323,8.29870872716,1.0306677085,0.0
1408129705489,-1.61844432158,8.13356606406,0.70767184491,0.0
1408129705490,-2.28918514612,7.71930010851,0.178618731273,0.0
1408129705533,-2.69638918093,7.42206970618,-0.364554990004,0.0
1408129705534,-2.70025915062,7.15876932008,-0.579180238356,0.0
1408129705535,-2.64312901627,7.39130810437,-0.725998497548,0.0
1408129705536,-2.39391711688,7.72995811222,-0.841158710554,0.0
1408129705537,-2.00065425828,8.14703787397,-0.779332274532,0.0
1408129705542,-1.66880399706,8.46953970661,-0.635797274313,0.0
1408129705589,-1.48277710508,8.20437125819,-0.365435452342,0.0
1408129705591,-1.57307940293,8.17985587756,-0.11596162686,0.0
1408129705592,-1.52337918977,8.354005929,-0.205446942648,0.0
1408129705594,-1.47713055062,8.49006376074,-0.474326626599,0.0
1408129705595,-1.56390878215,8.7632603152,-0.311794389341,0.0
1408129705639,-1.5322187939,9.29330337015,0.0860154394025,0.0
1408129705640,-1.69245811253,9.85415732886,0.814591198858,0.0
1408129705642,-2.3628531047,9.91643014308,1.41483593762,0.0
1408129705643,-3.35687032768,9.81368318327,1.253057704,0.0
1408129705645,-3.67788426905,9.9361706593,0.445562742584,0.0
1408129705676,-3.15153140255,10.1913153589,-0.289643116016,0.0
1408129705677,-2.37194476237,10.4260185132,-0.567042219399,0.0
1408129705678,-1.7960341977,10.5282694593,-0.199074230112,0.0
1408129705703,-1.53900318932,10.8199322518,-0.32480618656,0.0
1408129705704,-1.26042998258,10.8134635763,-0.212946695554,0.0
1408129705704,-0.874045653958,9.93705314736,0.350926131458,0.0
1408129705714,-0.369767838706,10.0937204153,0.236252371432,0.0
1408129705732,0.250051124263,9.99495365743,1.16961315125,0.0
1408129705735,1.10467477483,8.93301768079,1.92671216624,0.0
1408129705742,2.26985677123,7.76565743309,2.14945111782,0.0
1408129705760,3.01933823177,7.87762816474,2.38722706113,0.0
1408129705764,3.18727669063,8.90057679587,2.33203450051,0.0
1408129705781,3.13884109266,11.5576058757,1.75071666819,0.0
1408129705782,3.14968263871,15.7651942012,1.04297715874,0.0
1408129705794,2.57012372352,19.6229957653,1.12172607601,0.0
1408129705816,2.46071311754,19.8352066685,1.44398300312,19.8352066685
1408129705817,2.84616488313,18.4785369124,0.674054560954,0.0
1408129705822,2.45003428209,15.31998657,-0.764679610411,0.0
1408129705847,2.23189584585,12.1938757239,-1.88683997514,0.0
1408129705848,2.11285876511,9.91068888045,-2.33543559311,0.0
1408129705856,2.43123462591,10.0031226872,-1.77888550013,0.0
1408129705862,2.92647351507,10.2752019558,-0.76140465018,0.0
1408129705884,2.32744015852,9.79834269638,-0.470644316638,0.0
1408129705885,1.3162525691,8.32203061378,-1.14971804916,0.0
1408129705893,0.493262765393,7.18480211497,-1.58072728223,0.0
1408129705917,-0.378215248872,6.74523364639,-1.5077668438,0.0
1408129705918,-1.03824735788,7.35062941021,-1.13980604248,0.0
1408129705922,-1.76274797414,8.32121781076,-0.582084907511,0.0
1408129705946,-2.11550880346,8.38674145005,0.152412626582,0.0
1408129705947,-1.73056566159,7.42991130024,0.462953249522,0.0
1408129705953,-1.03638666401,6.18496395112,0.281914010046,0.0
1408129705962,-0.556492271176,5.29005557379,-0.169224388182,0.0
1408129705981,-0.323498539054,4.79413840374,-0.540407583143,0.0
1408129705982,-0.211430706786,4.60192758389,-0.798289109072,0.0
1408129705993,-0.0108893498336,4.39450427083,-0.989462749454,0.0
1408129706016,0.0985271620613,4.37120794882,-1.14618847765,0.0
1408129706017,0.100207853092,4.61834402134,-1.27551378121,0.0
1408129706022,0.137269355651,4.78885513804,-1.27862996722,0.0
1408129706052,0.108843604976,4.92537749264,-1.23161096345,0.0
1408129706053,0.0377970036391,5.23896523433,-1.19881004173,0.0
1408129706054,-0.120215431785,5.73334973458,-1.24897756068,0.0
1408129706080,-0.467830927991,6.48229166112,-1.3222617889,0.0
1408129706082,-0.953936399708,7.36709512087,-1.29272500805,0.0
1408129706082,-1.44569739624,8.19408120925,-1.21317315883,0.0
1408129706094,-1.7910313462,9.13488998986,-1.38653191484,0.0
1408129706117,-1.99645929284,10.1263829003,-1.75827000223,0.0
1408129706118,-2.06206591151,11.0881548145,-1.8503109115,0.0
1408129706122,-1.84452363508,11.3569299168,-1.63525887802,0.0
1408129706143,-1.36004330127,10.8991776712,-1.57248995887,0.0
1408129706143,-0.418891660756,11.3847271178,-1.3223377021,0.0
1408129706157,0.782698823809,13.2028612325,-0.848597285679,0.0
1408129706197,0.973439355709,15.4927650405,-0.28610041312,0.0
1408129706198,0.450071807792,16.5538336604,1.00104653595,0.0
1408129706199,-1.2759193006,14.1357062693,1.57745051449,0.0
1408129706199,-3.27691852867,11.9909099978,0.156261269818,0.0
1408129706202,-4.29779161174,11.1645154019,-2.95660752065,0.0
1408129706242,-3.09992442606,13.4078494571,-6.88751957875,0.0
1408129706243,-0.969914205573,18.3780201432,-4.91660673569,18.3780201432
1408129706243,1.56241845428,18.0017225914,0.628028821165,0.0
1408129706244,4.20835703401,15.398778167,2.27110654462,0.0
1408129706266,5.00323477144,13.8191444429,2.78789511541,0.0
1408129706266,4.54380745755,11.4077282079,2.58951842753,0.0
1408129706275,4.25580737602,8.89217167794,1.02306092129,0.0
1408129706310,4.2506122972,8.55347125125,0.145420200764,0.0
1408129706313,3.98389928212,8.28176442135,0.721753012867,0.0
1408129706313,3.60274538878,7.57701426104,1.20095326188,0.0
1408129706332,3.34109489324,7.67296625935,1.25279727515,0.0
1408129706332,3.01977798067,8.01070696695,1.85516143661,0.0
1408129706334,2.48562157631,8.50408037303,2.50991631984,0.0
1408129706342,1.688677566,9.05576217827,2.43490893587,0.0
1408129706359,0.619676727562,9.14794165713,1.79302448252,0.0
1408129706375,-0.257439859931,9.2515225625,1.44606179888,0.0
1408129706376,-0.663723642193,9.43389090817,1.55400550421,0.0
1408129706391,-0.442262141963,9.20246213187,1.65895387513,0.0
1408129706406,-0.18673371008,8.80705442499,0.924806713576,0.0
1408129706407,0.175658802997,8.4706658774,0.362389326921,0.0
1408129706421,0.426638625002,8.18297313546,-0.0647512508747,0.0
1408129706422,0.747763111583,7.99921651643,-0.17076238272,0.0
1408129706437,1.24521530207,7.80217991326,0.205305005508,0.0
1408129706442,1.66182242513,7.68607239361,0.63861478788,0.0
1408129706455,2.09275826125,7.45079739517,0.872318805266,0.0
1408129706477,2.22717834852,7.217699996,1.15264041684,0.0
1408129706478,1.92760475366,7.15789591117,1.11349905959,0.0
1408129706494,1.80556282867,7.3725573471,0.872223542311,0.0
1408129706495,1.78452789643,7.44891882924,0.734060335325,0.0
1408129706502,1.81015294735,7.38279470725,0.855162282234,0.0
1408129706525,1.02954972783,7.51700400481,1.16610887003,0.0
1408129706526,0.311507510194,7.73428531494,1.3480823621,0.0
1408129706545,-0.052673908411,7.89206828085,1.4105384445,0.0
1408129706545,-0.666529584703,8.47230745014,1.3666392899,0.0
1408129706553,-1.41103588551,8.30649958873,1.13699980935,0.0
1408129706577,-2.23042829158,8.37743703345,0.574268255459,0.0
1408129706596,-2.6186422296,8.37380199105,-0.13287641536,0.0
1408129706597,-2.57891549425,8.1660409398,-0.411160572301,0.0
1408129706597,-2.36443132511,8.45514339521,-0.421721115859,0.0
1408129706602,-1.90712585023,8.9363723322,-0.461181235393,0.0
1408129706627,-1.58031877821,8.93214400018,-0.437083658144,0.0
1408129706628,-1.57533875997,8.69063302864,-0.30053760564,0.0
1408129706635,-1.95811318849,8.37996154286,-0.226449167802,0.0
1408129706642,-2.40248811609,8.27881168073,-0.246915970272,0.0
1408129706654,-2.74377016365,8.29742102133,-0.296408078147,0.0
1408129706677,-2.90993084502,8.36284069831,-0.421824941174,0.0
1408129706678,-2.84631299321,8.62152828207,-0.852710649626,0.0
1408129706682,-2.27216997547,9.10873981614,-0.961207217601,0.0
1408129706713,-1.97812072217,9.17535175479,-0.383242135187,0.0
1408129706714,-2.06580960345,8.83514102613,0.429143706561,0.0
1408129706714,-2.79021428639,8.52082138146,0.589938470976,0.0
1408129706723,-3.58969741169,8.7255245814,0.0272530003342,0.0
1408129706746,-3.80176533378,9.40645859533,-0.445268303923,0.0
1408129706747,-3.50527970808,9.98361840865,-0.522832719857,0.0
1408129706757,-3.12356204257,10.2366513203,-0.136098055264,0.0
1408129706778,-2.75980530387,10.4436337827,0.180135600165,0.0
1408129706779,-2.48155115344,10.8315817549,0.35910100333,0.0
1408129706782,-2.07507745066,11.1721300881,-0.036447874191,0.0
1408129706811,-1.15911463118,10.6400576278,0.184424851304,0.0
1408129706812,-0.249435730574,9.81322389686,0.937835763338,0.0
1408129706815,0.0771963829557,9.72704994391,0.628396723001,0.0
1408129706822,0.49480163244,9.76653880877,0.697617638168,0.0
1408129706843,1.64352744419,8.79285159536,1.43722449773,0.0
1408129706843,2.94378727313,8.09763511172,2.13665104478,0.0
1408129706861,3.79834028594,8.30054881998,2.50132878971,0.0
1408129706862,4.14224425009,9.64570034775,2.42081290694,0.0
1408129706874,4.10598994012,12.379734586,1.95738249446,0.0
1408129706893,3.59624546438,16.3072433897,1.74171246203,0.0
1408129706894,2.76532107993,19.5824523324,2.34541825388,0.0
1408129706902,2.60979147594,19.8604923187,2.38375767411,19.8604923187
1408129706931,2.68069238484,19.3331354889,1.32649459814,0.0
1408129706931,2.60800804473,16.5536731073,-0.34728718656,0.0
1408129706937,2.6084368282,13.3525502781,-1.84905670289,0.0
1408129706942,2.36367408887,10.7023792941,-2.74034405571,0.0
1408129706966,2.64917367298,9.8787956118,-2.24038487254,0.0
1408129706967,3.36188820938,9.74328927588,-1.23914967288,0.0
1408129706974,2.53538632363,9.62617195832,-0.740793090296,0.0
1408129706995,1.57304263448,8.54861594573,-1.26012092474,0.0
1408129706996,0.608675350713,7.26267135799,-1.71691107752,0.0
1408129707002,-0.251796578703,6.81353298931,-1.81904654026,0.0
1408129707027,-1.03075329887,7.5925250147,-1.52228747474,0.0
1408129707028,-1.54819714387,8.08525494278,-0.837941460713,0.0
1408129707034,-1.94989349308,8.08525345874,-0.265201967793,0.0
1408129707062,-1.99160735676,7.86362461481,-0.135034986426,0.0
1408129707063,-1.60549135971,6.93458946416,-0.0875240891763,0.0
1408129707063,-1.04936021697,6.18842949799,-0.25047841154,0.0
1408129707074,-0.211024828922,5.41215631265,-0.364979902295,0.0
1408129707095,-0.0245676613289,4.97872695669,-0.430562119308,0.0
1408129707101,-0.1097018336,4.72500569685,-0.530853072689,0.0
1408129707103,-0.282855060584,4.59795570549,-0.696409082225,0.0
1408129707130,-0.187175114613,4.56592932538,-0.877317587265,0.0
1408129707130,-0.0341428145209,4.47604041032,-1.04608432851,0.0
1408129707134,0.0311706645666,4.46390274995,-1.18617912189,0.0
1408129707157,0.0890673224741,4.61968603252,-1.29647939446,0.0
1408129707158,-0.504267487706,5.99522799347,-0.82646404952,0.0
1408129707181,-0.700195291227,6.61446810357,-0.800650977112,0.0
1408129707182,-0.871837494699,6.84319914377,-0.938859469328,0.0
1408129707183,-1.15909257263,7.01289197943,-1.32612458105,0.0
1408129707213,-1.42901174732,7.69655991976,-1.88575049626,0.0
1408129707214,-1.49117019304,9.10635358811,-2.19455654162,0.0
1408129707214,-1.00682062244,10.4421396655,-2.19081656624,0.0
1408129707222,-0.449420941615,10.7527111356,-2.32583853764,0.0
1408129707243,0.0246596411857,10.7389661874,-2.01362982613,0.0
1408129707244,0.628597564591,12.1193883704,-1.31108083466,0.0
1408129707254,1.08864401431,14.855687548,-0.587111850153,0.0
1408129707284,-0.0361386900751,17.6772960021,0.596011805188,0.0
1408129707285,-1.53582809536,16.976995871,1.9555910594,0.0
1408129707285,-3.43526823762,14.4238077087,1.34333117292,0.0
1408129707321,-4.97345649696,12.1296689806,-0.886783680448,0.0
1408129707322,-5.44604854476,11.6264671018,-4.24887801918,0.0
1408129707323,-4.02286835566,15.5378392099,-6.21827930485,0.0
1408129707323,-1.75415398841,19.9226249053,-2.26636038685,19.9226249053
1408129707343,1.47186800744,17.4777648749,2.09286250672,0.0
1408129707344,4.07393323864,14.4233860623,2.44471353361,0.0
1408129707355,4.42454539108,11.7588284694,1.98013841551,0.0
1408129707393,4.11011784088,9.40711132494,0.844627547059,0.0
1408129707395,4.54902016258,8.09986711396,-0.950866195364,0.0
1408129707396,4.76646629645,8.52140819089,-1.71021180444,0.0
1408129707397,4.34538219383,8.59332886792,0.0956975726869,0.0
1408129707403,4.11344391417,7.9898428614,1.0004584538,0.0
1408129707435,3.53454657359,7.75253566548,1.02969473122,0.0
1408129707436,2.92428091095,7.92739962641,1.33792996562,0.0
1408129707436,2.29916155735,8.50426801741,1.94943462652,0.0
1408129707462,1.53780511352,8.99053943543,2.15349214597,0.0
1408129707463,0.481965774715,9.37127955066,1.90360106963,0.0
1408129707463,0.01700229474,9.76220569693,1.76551111355,0.0
1408129707491,-0.129966955699,9.87957533753,1.55941465578,0.0
1408129707492,-0.259532162113,9.50777563857,1.41040582252,0.0
1408129707511,-0.140030189442,9.09374845935,1.17473236643,0.0
1408129707511,0.152669314826,8.75044909834,0.757321427501,0.0
1408129707515,0.747867424909,8.32890097661,0.446728620603,0.0
1408129707523,1.03186845136,8.21089646683,0.305339240593,0.0
1408129707544,1.03058245233,8.00348546516,0.424152691879,0.0
1408129707545,1.04971706754,7.99293722849,0.477002269742,0.0
1408129707554,1.25890202349,7.69916907357,0.791968862029,0.0
1408129707569,1.29138756414,7.61173582922,0.861140016163,0.0
1408129707593,1.28710755083,7.56448770835,0.855772271165,0.0
1408129707593,1.2176720405,7.7084854915,0.843308065277,0.0
1408129707597,1.08835930425,7.74086100825,0.916899389886,0.0
1408129707603,1.06092631058,7.55256097114,1.00458851665,0.0
1408129707629,0.85354411299,7.56172041716,0.916775103477,0.0
1408129707630,0.409989764977,7.9339726791,0.91929600725,0.0
1408129707635,-0.251427789121,8.3197181702,0.798430067318,0.0
1408129707675,-1.00395196831,8.42466035178,0.696686868388,0.0
1408129707676,-1.89738412522,8.47261420315,0.504661189794,0.0
1408129707677,-2.68816545857,8.54420697197,0.125651471294,0.0
1408129707720,-2.97053647636,8.27217856234,-0.129724670086,0.0
1408129707722,-2.99873335696,7.6461196907,-0.299910883828,0.0
1408129707723,-2.95387251617,7.42699544434,-0.571552796263,0.0
1408129707724,-2.78019556593,7.63985072426,-0.72185501562,0.0
1408129707725,-2.47185517156,7.74979836253,-0.521062045419,0.0
1408129707726,-2.08039867985,7.44230095709,-0.3947796574,0.0
1408129707765,-1.9874749706,7.13457435801,-0.42889496253,0.0
1408129707765,-1.96389022228,7.02782171454,-0.457837371711,0.0
1408129707766,-1.93425404543,7.31997894851,-0.549188973202,0.0
1408129707766,-1.77557484114,7.78321932481,-0.652542418921,0.0
1408129707786,-1.46459296337,8.29383493372,-0.753718539758,0.0
1408129707787,-1.25179366895,8.85603229918,-0.522697346037,0.0
1408129707808,-1.23345888976,9.27441718754,0.0941208101033,0.0
1408129707808,-1.65893290652,9.55209179486,0.731713269355,0.0
1408129707814,-2.57421624392,9.82811560766,0.846204516103,0.0
1408129707823,-3.24788992586,10.1080610522,0.355247718049,0.0
1408129707838,-3.44052149656,10.7708831283,-0.0647135516258,0.0
1408129707857,-3.03637225833,11.2599685974,-0.0763102842685,0.0
1408129707857,-2.73955588214,11.2820071386,0.402764434717,0.0
1408129707864,-2.51095457312,11.0314549846,0.830164709858,0.0
1408129707894,-2.32074891071,10.9731141716,0.942282333082,0.0
1408129707894,-2.3117856601,11.2085416233,0.357269687727,0.0
1408129707897,-1.74397508672,10.981288084,-0.0655828706396,0.0
1408129707903,-0.84500027525,10.094246194,0.755067410142,0.0
1408129707938,-0.315839803499,9.57896151962,0.701320155789,0.0
1408129707939,0.0575864659823,8.96476518538,0.287435343844,0.0
1408129707940,1.11605776206,7.69446360064,0.863719510298,0.0
1408129707968,2.09620704007,6.71633248494,1.43621090342,0.0
1408129707968,2.8532096211,6.76575069036,1.94480681442,0.0
1408129707969,2.93532185294,8.1072345793,1.84128877976,0.0
1408129707990,3.06945239424,11.3940546153,0.982920014797,0.0
1408129707991,2.30737523644,16.6898856052,0.220373264941,0.0
1408129707995,1.17841328737,19.8258471153,0.680514622567,19.8258471153
1408129708003,0.743756824171,19.7400982881,1.11083035767,0.0
1408129708032,1.37925547112,19.2275024234,0.411592407341,0.0
1408129708032,1.62639452056,16.9543845484,-0.0137681385681,0.0
1408129708035,1.84795718711,14.029208265,-0.249165915596,0.0
1408129708061,2.14361505471,11.152939796,-0.846304212472,0.0
1408129708062,3.05173003338,10.8625302121,-0.564684040814,0.0
1408129708064,3.33968963927,10.6701992035,0.402538204587,0.0
1408129708093,2.81789709772,10.2171059532,0.584082411586,0.0
1408129708093,2.28401051242,9.02630314627,0.0110135801202,0.0
1408129708095,2.03637481078,7.63776663947,-0.713391480419,0.0
1408129708103,1.47562382324,7.03915985264,-1.20172849812,0.0
1408129708133,0.525817250766,7.57405663323,-1.32130106384,0.0
1408129708133,-0.29436507535,8.09851007303,-1.09611995816,0.0
1408129708136,-0.637277474243,7.71477909634,-0.564411083686,0.0
1408129708158,-0.630263081024,6.72701379095,-0.217398000397,0.0
1408129708158,-0.654512583033,6.01967215041,-0.333915127158,0.0
1408129708164,-0.27202023931,4.97844803432,-0.675895605189,0.0
1408129708194,-0.017093743198,4.29903849046,-0.904411136067,0.0
1408129708195,-0.16720365,4.19875500182,-1.0428413075,0.0
1408129708198,-0.306762481096,4.03912351914,-1.10181376459,0.0
1408129708203,-0.453134288231,3.87230867771,-1.06792157219,0.0
1408129708237,-0.623155333962,3.8786920605,-1.01255665641,0.0
1408129708238,-0.81512936628,3.96558408256,-0.924956262127,0.0
1408129708238,-0.966757628403,4.12243767787,-0.93238418174,0.0
1408129708261,-1.03058462727,4.41845986179,-0.999587994644,0.0
1408129708262,-1.15420291188,5.02910632074,-1.18009180483,0.0
1408129708264,-1.23515092943,5.78501379962,-1.4445922654,0.0
1408129708290,-1.38417405426,6.60022488333,-1.70905189753,0.0
1408129708290,-1.53540651691,7.57145414335,-1.82103169627,0.0
1408129708305,-1.66751713024,8.70938919768,-1.80408378729,0.0
1408129708307,-1.62318852113,9.95276791172,-1.89730853093,0.0
1408129708320,-1.20395669405,10.8552648878,-2.158799365,0.0
1408129708337,-0.687520885854,11.4608373693,-2.54102043387,0.0
1408129708338,-0.203635574861,12.2505596074,-2.25332004073,0.0
1408129708352,0.387602921203,14.2662514962,-0.89230679237,0.0
1408129708382,0.301421672405,16.7186566924,0.268869876669,0.0
1408129708383,0.143895161159,17.4903496667,1.37405674485,17.4903496667
1408129708383,-1.01775598629,15.4497824045,2.30046968338,0.0
1408129708384,-2.62613370588,12.8623586685,1.47491861651,0.0
1408129708404,-4.25543349602,10.4835060874,-0.101840734016,0.0
1408129708405,-5.20149775857,8.42837496326,-2.69789100353,0.0
1408129708421,-5.09430633683,8.43684883564,-6.52615948279,0.0
1408129708439,-2.92305380969,12.2234497621,-9.03845393706,0.0
1408129708440,-0.774976344805,17.2951916191,-4.57881997993,0.0
1408129708444,2.38206901294,16.1573744615,1.41431444483,0.0
1408129708478,4.90660656773,14.3465749827,2.03288323049,0.0
1408129708479,5.83173569379,14.6325535658,3.34540458587,0.0
1408129708479,6.78435509794,13.3531143451,3.73373396124,0.0
1408129708485,6.79473413036,11.7635882991,3.28058941659,0.0
1408129708524,6.19350155199,11.3220355087,2.71311227039,0.0
1408129708525,4.72641957013,10.1749215694,3.52657951374,0.0
1408129708525,3.7655675013,8.97210840001,2.97691714242,0.0
1408129708526,2.63925899105,8.9849896823,1.88108652491,0.0
1408129708535,1.57410692639,8.87355727229,1.83739974065,0.0
1408129708553,0.966505657003,8.18682856742,1.3916371719,0.0
1408129708572,0.151966550844,7.324384279,0.615251527473,0.0
1408129708573,-0.636157197957,6.73059224953,0.149774048783,0.0
1408129708576,-1.23944852309,7.04226232865,-0.0736200533769,0.0
1408129708584,-1.68306432538,8.10141650671,-0.363203762141,0.0
1408129708608,-1.51886681694,8.9886985735,-0.377233293651,0.0
1408129708609,-0.954151193195,8.75619926894,-0.335117612399,0.0
1408129708617,0.145862898804,7.79168863614,0.573852718579,0.0
1408129708639,0.486061679013,7.61644576381,1.03424357941,0.0
1408129708639,0.720548237364,7.68455854928,1.35073046575,0.0
1408129708645,1.12602869155,7.77494751374,1.52807134514,0.0
1408129708673,1.55533739249,7.8549683578,1.38964271913,0.0
1408129708674,1.76029724604,7.97712890513,0.920270755932,0.0
1408129708678,1.63814529918,8.19502552057,0.559953969752,0.0
1408129708684,1.2259491376,8.48605005542,0.460026484584,0.0
1408129708711,0.587477913601,8.54335325544,0.477620940133,0.0
1408129708711,-0.104822000692,8.39461589787,0.942700239947,0.0
1408129708716,-0.363816140077,8.03712324343,1.10325850287,0.0
1408129708739,-0.635550328194,7.93096853618,0.908612758626,0.0
1408129708740,-0.988321451984,7.86167892161,0.793001614957,0.0
1408129708744,-1.091559412,7.79669186084,0.490087493409,0.0
1408129708778,-1.27081185177,7.74502989874,0.147122342822,0.0
1408129708779,-1.43051208747,7.8333314119,-0.187757142404,0.0
1408129708779,-1.46088616536,8.21458546741,-0.675143429466,0.0
1408129708784,-1.22028698036,8.27908360889,-0.896408799466,0.0
1408129708814,-0.847064806982,8.34453064461,-0.820257515942,0.0
1408129708815,-0.698898450921,8.24130393107,-0.728170517244,0.0
1408129708816,-0.66465444212,7.90919302565,-0.497959253382,0.0
1408129708839,-1.1008263349,7.41677231659,-0.100666262688,0.0
1408129708840,-1.72914893736,7.20823133868,0.200324577398,0.0
1408129708844,-2.46049870407,7.42644230291,0.23840037191,0.0
1408129708872,-3.05889728706,8.1509710152,0.300378046525,0.0
1408129708873,-3.56425366111,8.93728696479,-0.0556462045743,0.0
1408129708876,-3.66827025985,9.38721519088,-0.101686150818,0.0
1408129708884,-3.24695820179,9.90709886585,0.0126803989578,0.0
1408129708908,-2.64315403969,10.6584842566,0.189598920141,0.0
1408129708909,-2.80365454192,10.4511410685,0.97369406527,0.0
1408129708920,-3.63918880408,9.37918359021,1.27694815551,0.0
1408129708940,-4.45328964867,8.94117440591,0.101844916293,0.0
1408129708940,-3.99686633281,9.54537921227,-0.978372214862,0.0
1408129708945,-2.89131321566,10.3759900021,-1.04375527488,0.0
1408129708972,-1.93881795879,10.8771508493,-0.262692581833,0.0
1408129708973,-1.780229803,11.0169777589,0.512714625474,0.0
1408129708978,-1.76688222803,11.2920684865,0.6042566714,0.0
1408129708985,-1.46169083365,10.8668226461,0.769045941299,0.0
1408129709010,-0.899001997592,9.10747976991,1.65840927447,0.0
1408129709011,-0.524745663023,7.68099309117,1.11052206324,0.0
1408129709016,0.182061350242,6.56183541767,-0.0762688555819,0.0
1408129709037,0.965103289403,5.78085411678,0.165708145513,0.0
1408129709038,1.68362079125,6.29059147842,0.968392940055,0.0
1408129709045,2.484340117,8.44630700855,0.824638092959,0.0
1408129709073,2.5288793563,12.1201470461,-0.219289942947,0.0
1408129709073,1.57147855167,17.2292973172,-0.506364741687,0.0
1408129709076,0.257863577098,19.8831106449,0.427453669423,19.8831106449
1408129709085,0.215843920148,19.7564926702,1.13809436918,0.0
1408129709113,1.87720086229,19.2775834383,0.4261320562,0.0
1408129709114,2.96738164613,16.4072340781,-0.431403525926,0.0
1408129709116,3.39791339514,12.6316872748,-1.16563692108,0.0
1408129709144,3.82173467762,11.3325422747,-1.34621041736,0.0
1408129709144,4.32610256971,11.405289545,-0.337123270639,0.0
1408129709145,3.34665874818,11.7209103395,0.935725685557,0.0
1408129709172,2.00848792731,10.6334913579,1.24546179084,0.0
1408129709172,1.51701224541,8.88877830983,0.357617617455,0.0
1408129709176,1.03405299727,7.86429785426,-0.660705994039,0.0
1408129709184,0.154390000378,7.38858768843,-1.15316318624,0.0
1408129709202,-0.90134685712,7.49253859591,-1.22883927005,0.0
1408129709224,-1.49771030148,7.81700462069,-1.0000552247,0.0
1408129709225,-1.67293293745,7.83096511713,-0.416687213971,0.0
1408129709226,-1.36089269858,7.03191428761,0.0653245107315,0.0
1408129709237,-0.866691568363,6.3576394153,-0.0239277834816,0.0
1408129709261,-0.319802895197,5.64136566159,-0.350648174218,0.0
1408129709262,0.162756720874,4.94053320834,-0.644118937752,0.0
1408129709265,0.580721427646,4.55712541496,-0.900082253448,0.0
1408129709283,0.846043415078,4.21236192839,-0.968396322804,0.0
1408129709285,0.792923201588,4.19137372213,-0.999824443135,0.0
1408129709302,0.713584272625,4.38263059572,-1.00073427963,0.0
1408129709319,0.56066297648,4.50976766365,-0.931810153277,0.0
1408129709320,0.350973544103,4.64373617773,-0.928935973684,0.0
1408129709336,0.0267302195776,5.04637173553,-0.959637342813,0.0
1408129709347,-0.367408929543,5.72294581424,-1.02735278282,0.0
1408129709347,-0.770486971993,6.59026695081,-1.16757244788,0.0
1408129709365,-1.0747168749,7.27874443263,-1.35199156947,0.0
1408129709366,-1.39471240688,7.90917079922,-1.45751314669,0.0
1408129709382,-1.7341111437,8.7832530591,-1.78520554807,0.0
1408129709385,-1.84990803273,9.73312770396,-2.22472746991,0.0
1408129709399,-1.78198968118,10.439713665,-2.08617031853,0.0
1408129709415,-1.6016533909,10.7548138716,-1.74201771398,0.0
1408129709416,-1.49711735095,10.7297932407,-1.66163089031,0.0
1408129709437,-1.51115954012,10.7883940246,-1.56295094169,0.0
1408129709438,-1.09549474556,12.1329942299,-1.66265446744,0.0
1408129709445,-0.207014737621,13.8953116781,-1.03349016408,0.0
1408129709464,-0.273074074137,15.7090508375,0.793028896589,0.0
1408129709465,-1.38431771239,14.8013030838,2.43745111959,0.0
1408129709483,-2.93804930586,11.7391320611,1.74891836738,0.0
1408129709485,-3.89576664219,10.2720104753,-1.98797654405,0.0
1408129709500,-2.89551786338,13.0004119481,-7.36991157135,0.0
1408129709534,-1.03444587778,18.9161430883,-5.16661311036,0.0
1408129709535,1.0441329235,19.3895148407,1.93814201867,19.3895148407
1408129709537,4.18539694019,17.2987181328,2.84888917198,0.0
1408129709559,5.6212987045,15.4013146259,1.3265038931,0.0
1408129709560,5.28256930581,12.0156996833,1.3811818426,0.0
1408129709560,4.84190010692,8.82650834193,0.340020299649,0.0
1408129709565,4.27509467716,7.98542503429,-0.0752457496913,0.0
1408129709594,3.52238064991,7.71166866794,0.998238504078,0.0
1408129709595,2.79173881219,7.34505841164,1.6433108227,0.0
1408129709597,2.27086981284,7.55840886788,1.67334314231,0.0
1408129709649,1.94710691008,8.0593820831,1.92610345593,0.0
1408129709649,1.49611692457,8.11588407398,1.74093177152,0.0
1408129709650,0.537669423226,8.03166651576,0.798259519563,0.0
1408129709651,-0.573769537623,8.26082950273,-0.129849777895,0.0
1408129709651,-1.02817072034,8.54449758259,-0.283265165237,0.0
1408129709676,-1.04267717773,9.31235808765,-0.196172035284,0.0
1408129709676,-0.883143939646,9.76159308778,0.0852172359639,0.0
1408129709677,-0.39964010416,9.46753079672,0.446131789881,0.0
1408129709687,0.203141811497,8.98274401489,0.800895993641,0.0
1408129709708,0.717944780196,8.51187615403,1.24905950356,0.0
1408129709709,1.0039764235,8.12920225975,1.4357378563,0.0
1408129709717,1.0307918625,8.09111570564,1.57171673695,0.0
1408129709732,1.45849517763,7.94227254196,1.66919087979,0.0
1408129709745,1.98982342141,7.78293702813,1.58403271825,0.0
1408129709746,2.02188978655,7.69458266014,1.25321253949,0.0
1408129709766,1.72253707762,7.72205667789,0.864563360459,0.0
1408129709767,1.4958109288,7.68517790769,0.653307027408,0.0
1408129709789,1.48273703833,7.45018675875,0.699885248161,0.0
1408129709790,1.22120019662,7.21798636136,0.813280553368,0.0
1408129709797,0.810161299692,6.50165965153,0.978259536582,0.0
1408129709823,0.223625165781,6.74329672737,0.782194915035,0.0
1408129709823,0.00729820328125,7.27295129586,0.746741117951,0.0
1408129709825,-0.222438402605,7.65183293474,0.758650728746,0.0
1408129709850,-0.840260929936,8.18192313961,0.496600444822,0.0
1408129709851,-1.14716123806,7.77214216603,-0.0288126039837,0.0
1408129709866,-1.44091593431,7.82763937481,-0.360588177779,0.0
1408129709872,-1.83760521612,8.51994882334,-0.337920271055,0.0
1408129709887,-2.4088460346,9.15722956573,-0.28834904009,0.0
1408129709888,-2.81386780394,9.73333691828,-0.00578144380604,0.0
1408129709898,-3.1129005837,9.88756689148,0.235401004251,0.0
1408129709934,-3.45243769289,9.59521574391,0.0903065161003,0.0
1408129709936,-3.66818140256,9.13116630519,-0.270224333616,0.0
1408129709937,-3.61190405847,8.82710669768,-0.693813079606,0.0
1408129709954,-3.41300663327,8.691878555,-1.15919531201,0.0
1408129709955,-3.36844271683,8.39480877266,-0.813358163633,0.0
1408129709957,-3.19767614973,8.74164106268,-0.589197356511,0.0
1408129709965,-2.84738081431,9.52788783112,-0.573804799565,0.0
1408129709987,-3.1568946872,9.4739242483,0.0641874462575,0.0
1408129709988,-3.84546981728,8.83006113602,0.150779315465,0.0
1408129710022,-4.26426517244,8.59102535161,-0.753621869199,0.0
1408129710024,-3.77394295346,9.03851652211,-1.27770328973,0.0
1408129710026,-2.41292477575,10.1788021992,-1.18605604022,0.0
1408129710026,-1.57357433885,11.1518627273,-0.0585815396204,0.0
1408129710066,-1.26370974088,11.9404233556,0.59469203177,0.0
1408129710070,-0.77509354665,12.1232411251,0.81018560534,0.0
1408129710071,-0.626412526624,9.44082784525,2.12648457031,0.0
1408129710072,-0.800971362266,8.96506242665,1.25558986036,0.0
1408129710104,-0.1969452574,8.56321162826,1.19742870803,0.0
1408129710106,1.01317722296,7.59086840482,1.65720476718,0.0
1408129710107,2.02018888111,7.36691464956,1.91824545802,0.0
1408129710108,2.49455906402,8.70866482672,1.56209320822,0.0
1408129710129,2.3495800008,11.9015167318,0.715088054733,0.0
1408129710129,1.85666870788,16.937843241,0.316753183866,0.0
1408129710169,1.29537504522,19.8832696715,1.32105566857,19.8832696715
1408129710170,1.7420168165,19.8412426595,2.11910992857,0.0
1408129710171,2.7382856685,19.1314378458,1.17766406608,0.0
1408129710172,3.24549589396,16.3953551448,-0.333151398572,0.0
1408129710180,3.48051329618,12.8043625037,-1.47883593486,0.0
1408129710213,3.40766237604,9.64326282487,-2.18829868507,0.0
1408129710214,3.70969019053,9.53996720465,-1.82802478986,0.0
1408129710214,3.06961634597,9.87798577655,-0.758264304567,0.0
1408129710216,2.26684564674,8.38843928082,-0.58096587271,0.0
1408129710239,0.928244255609,7.15067151567,-1.26230326789,0.0
1408129710240,-0.0230634666909,6.51597872927,-2.14601723854,0.0
1408129710245,-1.11778744987,7.225547883,-2.32116328261,0.0
1408129710273,-2.04990204827,7.86650280792,-1.57640462262,0.0
1408129710274,-2.4600244621,7.86424515871,-0.516204344836,0.0
1408129710276,-2.38955819434,7.30663718378,0.15623457167,0.0
1408129710309,-1.36259518201,6.16567200315,0.393787366702,0.0
1408129710310,-0.753794542582,5.19092392345,0.197545794772,0.0
1408129710311,-0.593398851926,4.5207991096,-0.128196864302,0.0
1408129710316,-0.575402159425,4.0283911072,-0.550648259895,0.0
1408129710331,-0.428304812156,3.69351386145,-0.77364677203,0.0
1408129710348,-0.406211824843,3.56459815285,-0.952928660915,0.0
1408129710348,-0.566232439586,3.78132600462,-1.04600074596,0.0
1408129710368,-0.577922375352,4.59045661358,-1.04518563219,0.0
1408129710368,-0.62406207309,5.26425601519,-0.976116683422,0.0
1408129710377,-0.768392082865,5.83624559459,-0.739022636153,0.0
1408129710408,-0.969031834267,6.55608974469,-0.608854532573,0.0
1408129710409,-1.16522065357,7.45830782789,-0.664967544441,0.0
1408129710409,-1.21065267456,8.22871056097,-0.855396740699,0.0
1408129710440,-1.3079895074,8.69964686546,-1.22395844284,0.0
1408129710440,-1.6906116762,9.22318626042,-1.80067511271,0.0
1408129710441,-2.18487024423,10.0368061829,-2.21937568573,0.0
1408129710445,-2.51211913721,11.0538210505,-2.3797109337,0.0
1408129710472,-2.32830883999,11.7032528467,-2.46274670403,0.0
1408129710472,-2.05881265642,11.673581581,-2.27133685423,0.0
1408129710478,-1.51825596676,11.0243657308,-1.6487235117,0.0
1408129710502,-0.47069322794,12.0185110894,-1.17430260809,0.0
1408129710503,0.687054936991,14.43505642,-0.5689195395,0.0
1408129710505,0.535973668247,15.8208654191,1.24511064258,0.0
1408129710537,-0.481206202479,13.4005561184,2.326488653,0.0
1408129710538,-2.18615421227,9.87764593699,1.75726336233,0.0
1408129710542,-3.35244909262,8.09271086142,-0.49007244164,0.0
1408129710546,-2.99939301928,8.56367067185,-5.01012270695,0.0
1408129710570,0.0473105644033,12.5920952021,-8.04728233081,0.0
1408129710571,0.532879487672,18.280225264,-3.12442615434,18.280225264
1408129710577,2.6950777171,16.9425069169,0.607116677212,0.0
1408129710604,6.20412723237,14.8458272067,1.97768833032,0.0
1408129710605,6.09012057215,14.2976204423,3.3231005026,0.0
1408129710606,5.29291940984,13.6971369512,3.1512738238,0.0
1408129710634,5.38309595129,12.8464385461,2.54024534804,0.0
1408129710635,4.61446840912,11.6098473372,3.61418308057,0.0
1408129710637,3.66714111348,10.9123353049,4.05215156368,0.0
1408129710646,3.15892234425,10.2808357141,3.37181165087,0.0
1408129710667,2.42506365584,9.46733412588,2.42584205722,0.0
1408129710667,1.46579131444,8.28494313644,0.910788175841,0.0
1408129710677,0.507593986961,7.47429170427,-0.40928348863,0.0
1408129710711,-0.176329114593,7.43524595458,-1.12796506397,0.0
1408129710711,-0.437865491027,7.87472815431,-1.15205240469,0.0
1408129710712,-0.502483207588,8.89016803841,-0.688294202436,0.0
1408129710741,-0.471351650398,9.37750307697,-0.155381560447,0.0
1408129710741,0.0285115706076,9.09309882978,0.146669247843,0.0
1408129710742,0.929355967419,8.14643706278,0.516375266786,0.0
1408129710746,1.29245295726,7.766631945,0.64987843493,0.0
1408129710770,1.54956108736,7.70446794186,1.01304309723,0.0
1408129710771,1.73424132821,7.67005913852,1.33233133113,0.0
1408129710780,1.8647648684,7.70874955719,1.53931214123,0.0
1408129710807,1.78243727257,7.85585610869,1.80858457722,0.0
1408129710807,1.41210752592,7.943900341,1.55271352573,0.0
1408129710808,0.917736797337,7.89324874658,1.31280476085,0.0
1408129710831,0.603250545714,7.75889392886,1.18580596484,0.0
1408129710831,0.280816043122,7.78259286146,1.11348703939,0.0
1408129710848,-0.172642166431,7.84653673234,1.03353229046,0.0
1408129710850,-0.794500684097,7.6147935988,0.930312189779,0.0
1408129710867,-0.957675997856,7.31404229565,1.03744198988,0.0
1408129710868,-1.34584679408,7.21739276043,1.18266419163,0.0
1408129710877,-1.90989459347,7.33803911167,0.854997240313,0.0
1408129710894,-2.35597764162,7.65460558195,0.242847801415,0.0
1408129710921,-2.38287827711,8.0451003826,-0.473669398763,0.0
1408129710922,-2.37133432481,8.13905076797,-0.977533506008,0.0
1408129710923,-2.70200547013,8.12530570789,-1.12680926866,0.0
1408129710926,-3.06795664405,8.10054180097,-0.868842734861,0.0
1408129710952,-3.10163496717,8.07704731135,-0.690448344843,0.0
1408129710953,-2.98143066532,7.69080241121,-0.57726122551,0.0
1408129710958,-2.85997883376,6.96046353896,-0.682579289018,0.0
1408129710985,-3.06701160598,6.47065811185,-0.939036635936,0.0
1408129710985,-3.52435473689,6.37412898036,-0.986653855493,0.0
1408129710986,-3.73101363323,6.83318304973,-0.917112589586,0.0
1408129710998,-3.43556308374,7.8845687843,-0.674585036069,0.0
1408129711022,-2.71060920052,9.30238034116,-0.393772406944,0.0
1408129711023,-1.95502336855,10.4669110441,-0.0184865373086,0.0
1408129711026,-1.59742745286,10.5726973003,0.76070804077,0.0
1408129711063,-2.03166665633,9.76982506547,1.01311343962,0.0
1408129711063,-2.81984946772,9.25903097598,-0.0778485592095,0.0
1408129711064,-2.77907126028,9.48354853485,-0.978092437184,0.0
1408129711084,-2.46314020515,9.76020700098,-0.703052194624,0.0
1408129711084,-1.79322303172,9.71451568378,0.61184081379,0.0
1408129711086,-0.779786804666,10.1792137817,1.95962526844,0.0
1408129711119,-1.13171876519,11.653242508,1.56689067535,0.0
1408129711120,-1.19304082817,11.6227943742,0.704013769138,0.0
1408129711120,-0.518718333792,8.87025146604,0.719264815548,0.0
1408129711126,0.281734660238,6.60584191075,0.168936953501,0.0
1408129711149,1.22143596224,5.69778583904,-0.369260729487,0.0
1408129711150,2.28534591804,6.38292977972,0.184941399425,0.0
1408129711166,2.69151500649,8.60318679663,0.686999264794,0.0
1408129711166,2.96888602474,12.1290633929,0.813946178107,0.0
1408129711178,2.2463848321,16.7901732348,0.579911148645,0.0
1408129711194,1.12592385397,19.8407366054,1.24711499577,19.8407366054
1408129711219,-0.628267222047,19.5841971164,1.94158358873,0.0
1408129711220,-0.291532595581,19.5820127235,1.98853149161,0.0
1408129711221,0.808982993788,19.5485572172,1.32811769826,0.0
1408129711226,1.31046218714,16.9579329661,0.501027913374,0.0
1408129711255,1.53025617637,13.2398568214,-0.836465821672,0.0
1408129711256,2.33905819262,11.3713375657,-2.02618793929,0.0
1408129711260,3.78714165032,11.100092231,-1.45000551813,0.0
1408129711286,3.79546287692,9.59983666156,-0.193422309454,0.0
1408129711292,3.02797069898,8.61892395684,-0.0791971043798,0.0
1408129711293,2.64107798243,7.29857983372,-1.03517643974,0.0
1408129711325,1.50460621482,6.74576278048,-1.85329435753,0.0
1408129711326,0.261896209996,6.63651965033,-2.05786317376,0.0
1408129711327,-0.481245150142,6.91085170032,-1.68634381139,0.0
1408129711328,-0.927789566759,6.76270463272,-1.04757689823,0.0
1408129711356,-1.00170270305,6.23812293383,-0.496082699144,0.0
1408129711357,-0.631742265484,5.55514756684,-0.234752803542,0.0
1408129711358,-0.472899652408,5.27630595411,-0.358258874497,0.0
1408129711379,-0.355162379153,5.05708681646,-0.296100185345,0.0
1408129711380,-0.271684597698,4.8621583028,-0.0467895398274,0.0
1408129711400,-0.203521988562,4.91295025685,0.0743217941366,0.0
1408129711401,-0.375534642171,5.18908358416,-0.112817326294,0.0
1408129711406,-0.478976256044,5.7459807176,-0.456401551426,0.0
1408129711427,-0.367223268745,6.12654437755,-0.566932778945,0.0
1408129711428,-0.186652991556,6.20672051866,-0.573567731106,0.0
1408129711444,-0.0974121003752,5.90623161968,-0.464902985701,0.0
1408129711446,-0.0929626908574,5.81485478906,-0.445459613889,0.0
1408129711458,-0.277340128338,6.01247960315,-0.75728049121,0.0
1408129711474,-0.651126498899,6.29589523831,-1.26549498123,0.0
1408129711477,-1.02551270778,6.50987583984,-1.86156971527,0.0
1408129711494,-1.4332421424,6.78061920956,-2.42015971609,0.0
1408129711510,-1.83494876238,7.25401017864,-2.86002422131,0.0
1408129711510,-2.14000390117,8.12103618205,-2.98815044221,0.0
1408129711526,-2.31184269343,9.33790724178,-2.86680019047,0.0
1408129711526,-2.10459129,9.26234865275,-1.16109089258,0.0
1408129711541,-1.45993204307,9.62662016139,-0.763027011373,0.0
1408129711546,-0.975653377146,11.7085287714,-0.891674577239,0.0
1408129711559,-1.25652600307,15.1885571998,-0.90719962203,0.0
1408129711581,-1.25922872054,18.645416713,0.208689500561,0.0
1408129711582,-1.62588773677,16.2863520557,0.280358672247,0.0
1408129711586,-3.13477751568,12.8074462464,-1.96441317078,0.0
1408129711614,-3.39956789102,13.6798516365,-6.09462001336,0.0
1408129711615,-0.775095578047,19.8561701602,-5.69245930325,19.8561701602
1408129711620,0.288835747,19.2882505666,2.96920301377,0.0
1408129711626,2.41257024052,15.6185765771,4.92039276025,0.0
1408129711648,4.7616955738,13.5407235935,2.29677714716,0.0
1408129711648,4.93648460819,11.2510266409,0.778408280806,0.0
1408129711658,5.31283456645,8.35590049289,-0.319975644071,0.0
1408129711681,5.14734708745,7.76700016647,-0.19120771795,0.0
1408129711682,4.65900465129,7.88649384064,1.10610148945,0.0
1408129711686,4.08535441651,7.86065840987,2.1840511442,0.0
1408129711720,3.40390636782,8.43218682879,2.66273273794,0.0
1408129711721,2.92727024013,8.74188792837,3.00323074216,0.0
1408129711722,1.87174889333,9.81890663774,2.57964073148,0.0
1408129711727,0.624134273917,10.5823907375,1.55318074907,0.0
1408129711748,-0.177067396404,10.5481140768,1.17613593652,0.0
1408129711749,-0.456313961762,10.4139458352,1.52138612382,0.0
1408129711758,-0.700869575598,10.3097219734,1.70196483569,0.0
1408129711783,-0.607869748445,10.1140513207,1.45758994938,0.0
1408129711784,-0.37810379677,9.89023001568,0.659948786343,0.0
1408129711786,0.091417487747,9.27676313749,0.243178175935,0.0
1408129711819,0.647544677181,8.4126183459,0.366030026704,0.0
1408129711820,0.919809051773,7.65577890033,0.612808083453,0.0
1408129711820,1.24503487564,7.33566388129,0.944167901883,0.0
1408129711826,1.71207795593,7.1170101626,1.42130330576,0.0
1408129711849,1.9963593933,6.91765919728,1.63206562262,0.0
1408129711850,2.05193962227,6.96776785477,1.55544677143,0.0
1408129711859,1.89939987101,7.32259707726,1.26342158415,0.0
1408129711878,1.53034036064,7.56929881353,1.07401072215,0.0
1408129711879,1.15368653026,7.62915555082,1.13505633237,0.0
1408129711894,0.757745204607,7.60838125617,1.25849414917,0.0
1408129711916,0.37968754593,7.54477314082,1.45926283808,0.0
1408129711916,-0.0615962638113,7.43920719172,1.45165779355,0.0
1408129711918,-0.410399888752,7.65998583792,1.26104345174,0.0
1408129711926,-0.789622537692,7.97023534284,1.00652874969,0.0
1408129711941,-1.40383968048,7.98888542664,0.625393214578,0.0
1408129711956,-2.09130744219,8.20272635314,0.200587956297,0.0
1408129711958,-2.31595799247,7.87636794857,-0.230280295145,0.0
1408129711977,-2.18206021025,7.62942524823,-0.520544503481,0.0
1408129711991,-2.02386878126,7.91917062566,-0.675000228851,0.0
1408129711992,-1.94320291968,7.9078123863,-0.483202506642,0.0
1408129712009,-2.01250666347,7.21729420833,-0.258593188862,0.0
1408129712009,-2.39066250643,6.91865321427,-0.0513808637128,0.0
1408129712023,-2.83642293379,6.88506595888,-0.0321202514441,0.0
1408129712026,-3.13968012086,7.25331238628,-0.219049648987,0.0
1408129712041,-3.32665744409,7.96852187515,-0.0681297385213,0.0
1408129712057,-3.20351482997,8.52763440058,-0.260729479469,0.0
1408129712058,-2.95833482888,8.82379527463,-0.977859201023,0.0
1408129712079,-2.47193881765,9.20359621135,-1.14366436235,0.0
1408129712079,-1.40143540291,9.55151342375,-0.823281101152,0.0
1408129712100,-0.947878205158,9.43766381064,0.123154791053,0.0
1408129712100,-1.85241981862,9.03299311634,1.38216701131,0.0
1408129712107,-4.17267100513,8.59524319538,1.26226781333,0.0
1408129712126,-5.28015216381,8.81795706647,-0.117745099746,0.0
1408129712127,-4.03373435699,9.48785958554,-1.27564023815,0.0
1408129712143,-2.6669371404,10.2800038263,-0.80711005841,0.0
1408129712158,-1.90064210587,11.4416120942,-1.10363877249,0.0
1408129712161,-0.676859562294,11.95447239,-1.53402314316,0.0
1408129712181,-0.383103248511,10.886642517,-0.374966482362,0.0
1408129712182,-1.20898190631,9.70201571738,0.319326578219,0.0
1408129712187,-1.24263031903,9.61836784072,0.710858548293,0.0
1408129712212,-0.56214296932,9.61747459349,2.34902030101,0.0
1408129712213,0.174200386456,9.18703689643,3.32980595724,0.0
1408129712219,0.899860707462,8.92811652712,3.01700283546,0.0
1408129712227,1.22052934667,9.57671799968,2.9592755856,0.0
1408129712247,1.23287366087,11.43632305,2.94326304442,0.0
1408129712248,1.57790212284,14.7934602173,2.60854828675,0.0
1408129712258,1.52158521876,18.9470785984,2.44686939683,0.0
1408129712285,2.58689212104,20.131953374,2.13125167807,0.0
1408129712286,3.92478554572,20.2849194794,1.48268377444,20.2849194794
1408129712287,4.64240763425,17.8050169231,0.199760603464,0.0
1408129712322,4.61986885204,13.6038391554,-1.32889690548,0.0
1408129712323,4.26936356775,9.91905764355,-2.29143713238,0.0
1408129712323,3.90199017675,9.05349908947,-2.21947453605,0.0
1408129712327,4.39081735011,10.168738639,-1.0737826182,0.0
1408129712345,3.76133361695,10.8783707006,-0.175714630589,0.0
1408129712347,2.60471523974,9.78796438181,-0.191373236485,0.0
1408129712359,1.32525220603,8.23676240858,-0.714160936071,0.0
1408129712383,0.196549520399,7.38705034559,-1.313774223,0.0
1408129712384,-1.11736218456,7.49543679864,-1.5139884391,0.0
1408129712387,-2.10728242571,8.22070978939,-1.27994595512,0.0
1408129712412,-2.69385213549,8.88197713495,-0.702996443534,0.0
1408129712414,-2.44294672674,8.16556195873,0.00247155268894,0.0
1408129712419,-2.2644314839,7.22628747254,0.174854712885,0.0
1408129712427,-1.72999724737,6.41465130474,0.225601277777,0.0
1408129712441,-1.34374765526,5.43424483068,-0.00416100881323,0.0
1408129712458,-1.17676861212,4.8501452837,-0.345708109889,0.0
1408129712460,-0.983830289605,4.18491659113,-0.659845304484,0.0
1408129712479,-0.668015710907,3.65527559426,-1.02328355138,0.0
1408129712479,-0.426277494273,3.36469846929,-1.28807391699,0.0
1408129712487,-0.45370935865,3.23244021264,-1.44424210871,0.0
1408129712509,-0.470961399052,3.27793509308,-1.49740764034,0.0
1408129712510,-0.529279528892,3.60169172438,-1.54866857397,0.0
1408129712525,-0.71403006511,3.98486065331,-1.52288006765,0.0
1408129712542,-0.935022038721,4.29750154459,-1.77592087986,0.0
1408129712543,-1.2170533984,4.76927885186,-2.09666528536,0.0
1408129712564,-1.56850353546,5.54281400864,-2.39928801353,0.0
1408129712565,-1.98136395283,6.60852655439,-2.50289036702,0.0
1408129712567,-2.42884698919,8.02979398956,-2.26426200011,0.0
1408129712590,-2.95999690543,9.78689183918,-2.2354963295,0.0
1408129712591,-3.19899533663,11.2440011787,-2.40113241095,0.0
1408129712608,-3.02330568043,12.0037564838,-1.96643369617,0.0
1408129712609,-2.68709863705,12.0047506012,-1.47328911609,0.0
1408129712629,-2.25890001294,12.5955116844,-1.36459611828,0.0
1408129712630,-1.68397157073,14.4415148986,-0.69526394587,0.0
1408129712640,-1.0230746893,18.7093146732,0.25130732452,0.0
1408129712662,-0.695921818824,19.3452462451,2.00858039523,19.3452462451
1408129712662,-1.88128898884,16.7639513325,2.46917328821,0.0
1408129712668,-3.69607766237,13.3812144182,0.249659658854,0.0
1408129712697,-4.03115664344,11.3619029858,-3.63573600599,0.0
1408129712698,-2.05995914334,12.5367352439,-8.15457579887,0.0
1408129712702,0.392423009696,17.2039628436,-5.26481407964,0.0
1408129712708,1.75997955634,17.9901365135,1.60091879257,0.0
1408129712728,5.38717054682,15.2818295441,2.59627095381,0.0
1408129712729,7.08024901542,14.0584887668,3.18521375618,0.0
1408129712739,7.05037585616,12.8359094414,3.65630254454,0.0
1408129712760,6.33763541236,10.4223935576,3.29748968334,0.0
1408129712761,5.84318545047,8.88576651343,2.80023115844,0.0
1408129712780,5.27307306858,7.8326004789,2.48585834305,0.0
1408129712781,4.53994410398,7.3652211862,2.00123551114,0.0
1408129712788,3.51246434459,7.85821294193,1.27492934609,0.0
1408129712817,2.60827340985,8.21808413718,1.51702900564,0.0
1408129712818,1.53216904219,8.4004690856,1.48902184942,0.0
1408129712820,0.20546300217,7.96313855686,1.00478974761,0.0
1408129712845,-0.429626884777,7.57347843342,0.872514826745,0.0
1408129712845,-0.616503028037,7.84707872737,0.931073866525,0.0
1408129712848,-0.358165011119,8.46947993704,0.992793996443,0.0
1408129712859,0.0255361096689,8.83256839613,1.1510768005,0.0
1408129712879,0.357253707126,8.50509903259,0.947624818471,0.0
1408129712883,0.626277813713,8.29316538601,0.740823222204,0.0
1408129712888,0.663974418207,8.12639418558,0.594234016142,0.0
1408129712913,0.600700545474,7.81502278431,0.814694904858,0.0
1408129712914,0.917775204945,7.71736800832,1.28846194177,0.0
1408129712919,1.19710166913,8.0853629676,1.41664547148,0.0
1408129712945,1.37219444083,8.39161543186,1.29450957837,0.0
1408129712946,1.43335104555,8.78265161753,1.35359068328,0.0
1408129712948,1.41868300379,8.85103933201,1.2702255685,0.0
1408129712960,1.31242996159,8.5169321483,1.29806317025,0.0
1408129712985,1.35623418971,7.95940943851,1.13235893137,0.0
1408129712986,1.16610375205,7.13298572553,0.960495472967,0.0
1408129712988,-0.243434013348,6.6198827415,1.05495547742,0.0
1408129713020,-0.925656041793,7.67242249574,1.03405777598,0.0
1408129713021,-1.47991291054,8.65471036622,0.821561614833,0.0
1408129713047,-2.45037857371,9.32667408135,0.527374077234,0.0
1408129713048,-3.18963309762,9.68208581972,0.443972014978,0.0
1408129713049,-3.54206614508,9.21893961142,0.196601049991,0.0
1408129713049,-3.81624208047,8.70841970957,-0.221719758885,0.0
1408129713079,-3.68948257398,8.26792711209,-0.757208019358,0.0
1408129713080,-3.21701986565,7.77802467665,-1.02922413798,0.0
1408129713080,-2.5132776154,7.48740274155,-0.953575036772,0.0
1408129713088,-1.55039515232,7.36655721378,-0.781712526128,0.0
1408129713112,-0.937091435349,7.11223209831,-0.540830779963,0.0
1408129713112,-1.16592979907,7.10055450462,-0.387633791246,0.0
1408129713120,-1.55507292607,7.03259580465,-0.429684783023,0.0
1408129713145,-2.03138036527,6.94851678459,-0.506050166231,0.0
1408129713145,-2.27647362782,7.21359954186,-1.06878862384,0.0
1408129713148,-2.3683299071,7.96332305807,-1.05169821868,0.0
1408129713180,-2.39531378636,8.93688652158,-0.177520333205,0.0
1408129713181,-2.85814269044,9.43759006344,0.925852890694,0.0
1408129713182,-4.03615111741,9.05827819049,1.57213655925,0.0
1408129713188,-5.42294396546,8.68928009332,1.02970012781,0.0
1408129713215,-5.33629273111,8.94847501408,-0.203349432505,0.0
1408129713216,-4.00484289738,9.51684226442,-0.737214206496,0.0
1408129713220,-2.39354561709,10.1245809727,-0.228890658455,0.0
1408129713245,-1.80728994584,10.9045502488,-0.0634419226824,0.0
1408129713245,-1.18463051279,11.586624039,-0.675543271348,0.0
1408129713248,-0.425497355675,10.81336002,0.0260935794181,0.0
1408129713280,-0.384938626815,9.24729497132,1.05560341582,0.0
1408129713280,-0.382283406932,8.6737649584,0.204210450126,0.0
1408129713281,0.238117647551,7.99613921792,-0.0969832329784,0.0
1408129713288,1.52586271251,7.37605609238,0.515070680511,0.0
1408129713314,2.61900550391,7.72925369244,1.22335595999,0.0
1408129713315,3.16640518123,9.48544700371,1.69693397056,0.0
1408129713320,2.66484017349,12.4078311913,1.48178685158,0.0
1408129713345,1.9254513851,16.6785297489,1.04955957844,0.0
1408129713346,0.925451839265,19.8321107998,1.75043975672,0.0
1408129713348,1.26815358201,19.8671445637,2.41186665446,0.0
1408129713379,2.95735653441,20.0703457899,1.83303036961,20.0703457899
1408129713380,3.89484745099,18.3152396413,0.389743804996,0.0
1408129713381,4.13624434339,14.389913754,-1.2827922367,0.0
1408129713388,3.69243700991,10.7621528872,-2.44633651442,0.0
1408129713416,2.85749702403,9.1619798769,-2.41155100543,0.0
1408129713417,3.07991056886,10.0793895494,-1.48668486877,0.0
1408129713423,2.82569723493,10.0498238332,-0.764357385183,0.0
1408129713450,1.5120970097,9.52105176262,-1.10647715385,0.0
1408129713450,0.373496932947,7.8643578864,-1.63060082058,0.0
1408129713451,-0.643208152668,7.46813975493,-1.86991926107,0.0
1408129713484,-1.4253793039,7.99856122272,-1.73171005238,0.0
1408129713485,-2.0588211012,8.90306027274,-1.22742086011,0.0
1408129713486,-2.33725933783,9.51713729464,-0.524803753433,0.0
1408129713489,-2.19677830379,9.41641678532,0.131233425406,0.0
1408129713517,-1.6927413995,8.40643545276,0.67796318442,0.0
1408129713517,-1.2234272133,7.42782776212,0.722052230039,0.0
1408129713520,-0.893284286107,6.45745586931,0.403266501065,0.0
1408129713536,-0.699638742207,5.55420764194,-0.062465592611,0.0
1408129713540,-0.605203449204,5.02915851417,-0.50395289599,0.0
1408129713553,-0.511432900284,4.72228274744,-0.793323584233,0.0
1408129713576,-0.389100008858,4.46418460562,-1.02525956059,0.0
1408129713576,-0.348480785618,4.43328403374,-1.21571866486,0.0
1408129713580,-0.253336292945,4.47168738046,-1.37958414034,0.0
1408129713589,-0.122882755776,4.46497950613,-1.41989916778,0.0
1408129713618,-0.0935012434851,4.60819165195,-1.30403806385,0.0
1408129713619,-0.262002339743,5.00189436141,-1.24952313128,0.0
1408129713620,-0.573872245395,5.52559158956,-1.26469392986,0.0
1408129713647,-0.984346635687,6.05481184409,-1.26242298,0.0
1408129713648,-1.32276218733,6.5050379377,-1.41408325614,0.0
1408129713649,-1.67429466135,7.07402218477,-1.85698879208,0.0
1408129713683,-1.90430143627,7.73579501468,-2.39279569648,0.0
1408129713684,-1.96554200384,8.31461384728,-2.66593968487,0.0
1408129713685,-1.66173833956,8.89390503364,-2.37173686671,0.0
1408129713689,-0.724990655171,9.23901719846,-1.76912879517,0.0
1408129713716,-0.236944994934,9.42434547053,-1.43074162878,0.0
1408129713717,0.0307497574875,10.6808379508,-1.23500117157,0.0
1408129713721,-0.0445738437268,13.7661192821,-0.89671309953,0.0
1408129713744,-0.351927514982,18.1981544673,-0.0612158091478,0.0
1408129713745,-0.779858514553,19.1804843384,1.55520364322,0.0
1408129713749,-1.55861289281,15.9609986353,1.89785907229,0.0
1408129713781,-2.91912908736,12.8631940895,-0.0278925011957,0.0
1408129713782,-3.01655487963,12.8954434622,-4.92934997159,0.0
1408129713783,-1.50068109597,17.8361407331,-6.77655613761,0.0
1408129713789,0.558756229254,20.2227837518,-1.28165970722,20.2227837518
1408129713815,3.64512062745,18.2035801579,2.53791401682,0.0
1408129713815,5.19153522355,15.5468376772,2.48033446562,0.0
1408129713820,5.07417478896,12.3898053903,2.15737512408,0.0
1408129713845,4.83236243215,8.85918483158,1.31016808073,0.0
1408129713846,4.37182378959,7.04406552241,0.391802467701,0.0
1408129713849,3.62297192991,6.66926561316,0.132888487537,0.0
1408129713878,3.16198786979,6.17809183883,0.626793167816,0.0
1408129713879,2.9948465653,5.80472466741,0.464132322847,0.0
1408129713880,2.70497155626,6.1577707016,-0.0188237590172,0.0
1408129713889,2.075797853,7.05367638794,0.332101278278,0.0
1408129713915,1.06553951396,8.26360317504,0.750216369056,0.0
1408129713916,0.0863186557897,8.91988631623,0.652132399337,0.0
1408129713921,-0.743315981592,9.56484325301,0.69951412528,0.0
1408129713950,-0.884243977339,10.5662128365,1.28413930215,0.0
1408129713951,-0.594399453369,11.468724054,1.85009323452,0.0
1408129713952,0.00177641368524,11.2801700334,2.18508707981,0.0
1408129713985,0.801763646098,10.4860612302,1.9313815255,0.0
1408129713987,1.58541602333,9.68661131493,1.53255255753,0.0
1408129713988,1.90686215786,8.76138635024,1.10997720235,0.0
1408129713989,1.88231531049,8.01159331447,0.574549223235,0.0
1408129714018,1.84904640825,7.67242418031,0.495320962249,0.0
1408129714018,1.79449104703,7.67323667676,0.659917965066,0.0
1408129714022,1.76395901047,7.56953102283,0.702885367961,0.0
1408129714046,1.42382590996,7.64042083872,0.636393656517,0.0
1408129714047,0.916870615348,7.80244649469,0.280755073581,0.0
1408129714049,0.362431959172,8.03646934117,0.156650898903,0.0
1408129714089,0.33119084358,7.72578973966,0.446499465147,0.0
1408129714091,0.351907822211,7.42014644748,0.69532939941,0.0
1408129714092,0.100139800002,7.60512419627,0.756271001505,0.0
1408129714093,-0.0337648938934,7.88744305848,1.01762138704,0.0
1408129714111,-0.390493876612,8.29037899302,1.10045232626,0.0
1408129714111,-1.13589322266,8.98445240847,0.76580352032,0.0
1408129714121,-1.69969655472,8.85671157598,0.560323726093,0.0
1408129714137,-1.96591352594,8.11816064652,0.613867030948,0.0
1408129714152,-1.96540601222,7.60305370776,0.114272337483,0.0
1408129714153,-1.93118081734,7.44447653307,-0.506216983176,0.0
1408129714181,-1.70533320573,7.34283702506,-0.829132512423,0.0
1408129714182,-1.56304453739,7.16341706361,-0.896159935682,0.0
1408129714183,-1.53583982739,6.94111394713,-0.80320200356,0.0
1408129714191,-1.75315369422,6.98438844078,-0.571421507277,0.0
1408129714216,-2.13918008991,7.22940524191,-0.417153637021,0.0
1408129714216,-2.59247913222,7.58862049299,-0.199975598334,0.0
1408129714223,-2.96118653091,7.92768694651,0.126906655099,0.0
1408129714246,-3.16746489404,8.28356160164,-0.0448884659505,0.0
1408129714247,-3.38251421135,8.41691413187,-0.374127543421,0.0
1408129714249,-3.08957767108,8.40959120274,-0.563020777634,0.0
1408129714269,-2.68123936213,8.85573867615,-0.793752729402,0.0
1408129714270,-2.80539825282,9.0736376521,-0.443682381869,0.0
1408129714286,-3.55473947239,8.66226258119,0.206785671115,0.0
1408129714290,-4.31393203417,8.57401608372,-0.146439837693,0.0
1408129714331,-4.25828891959,9.10019354579,-0.87257730199,0.0
1408129714333,-3.3103754837,10.1022193438,-0.981173070826,0.0
1408129714334,-2.53603266613,11.3111456084,-0.379450040591,0.0
1408129714335,-2.35699221068,12.4442229773,-0.463091404629,0.0
1408129714365,-1.83843530323,12.5187911996,-0.560605673069,0.0
1408129714366,-1.49017317022,11.1673616461,0.590516829453,0.0
1408129714367,-1.79347269432,10.1032311222,1.33970067251,0.0
1408129714370,-1.86097793778,10.1213128375,0.559965767605,0.0
1408129714402,-1.04067288962,10.2037019593,0.718646905562,0.0
1408129714403,0.179147950865,9.66236316669,1.79280535632,0.0
1408129714403,1.61130977297,8.94268906119,2.54061169864,0.0
1408129714456,2.7994773512,8.5458186354,2.50088923786,0.0
1408129714457,3.33673576555,10.0076645918,2.6482177691,0.0
1408129714457,3.30001400259,12.5344083341,1.79262434896,0.0
1408129714458,2.93099190389,16.2438551659,0.638081324243,0.0
1408129714459,2.69103559281,19.851934093,0.479812480805,0.0
1408129714461,2.87548531694,20.1712111846,0.838086748636,20.1712111846
1408129714469,2.70925228539,19.15143285,0.0680204703591,0.0
1408129714488,2.2077948778,15.2483608778,-1.52799440267,0.0
1408129714511,1.66859253606,11.194890213,-2.672238079,0.0
1408129714512,1.25420603626,8.42393097603,-3.02770100345,0.0
1408129714512,2.10139415582,8.85429072361,-2.29540059735,0.0
1408129714521,2.66846722113,9.17339741942,-1.03766054159,0.0
1408129714535,1.92964619042,9.22538090464,-0.527501970577,0.0
1408129714554,0.980883067449,7.85972104713,-1.12186450147,0.0
1408129714554,-0.0498594535182,7.23040294298,-1.92857958545,0.0
1408129714575,-0.509473040798,7.1163700313,-1.65513493487,0.0
1408129714576,-1.65127949621,8.24440213193,-0.487639378973,0.0
1408129714581,-2.48764349474,9.13437082964,0.641566995969,0.0
1408129714609,-2.45675739641,8.90497102127,1.08649438729,0.0
1408129714609,-1.81265960979,7.74105212928,0.918891032413,0.0
1408129714610,-1.34752975349,6.74070846889,0.393224616175,0.0
1408129714648,-1.19803933837,5.67548178227,-0.000362260682008,0.0
1408129714649,-0.883929185155,4.84869257853,-0.433690446632,0.0
1408129714650,-0.646452445376,4.39769359693,-0.915058779146,0.0
1408129714651,-0.609243070421,4.44160376268,-1.41528857618,0.0
1408129714674,-0.513495208258,4.77788389903,-1.7703316189,0.0
1408129714675,-0.23702237272,5.43997157208,-1.52038417405,0.0
1408129714684,-0.0492647681079,6.01151901781,-0.97774858226,0.0
1408129714708,0.0375851869503,6.43651740444,-0.535204511531,0.0
1408129714709,-0.0762131529908,6.6530815652,-0.327613168572,0.0
1408129714710,-0.338391953961,6.87981238561,-0.266111983081,0.0
1408129714721,-0.72063641284,7.17436076482,-0.442685984331,0.0
1408129714737,-1.12428417743,7.55042366725,-0.765437416498,0.0
1408129714756,-1.52255014746,7.80788447857,-0.952686863027,0.0
1408129714756,-1.8175651901,8.13686460009,-1.3022788132,0.0
1408129714780,-1.8330937921,8.6756350801,-1.82508109117,0.0
1408129714781,-1.694852489,9.28600645551,-1.93734165733,0.0
1408129714782,-1.34084897203,9.7470102047,-2.00553309197,0.0
1408129714808,-0.889712393202,9.97761424397,-2.33883794987,0.0
1408129714808,-0.617821143851,10.1201752045,-2.3981136337,0.0
1408129714810,-0.1333963816,10.8084721815,-2.52453246026,0.0
1408129714822,0.198228177853,12.2712838271,-2.70165044193,0.0
1408129714837,0.435164073045,13.9081524263,-1.18271250769,0.0
1408129714853,-0.0325240323496,14.3737399923,1.28384109078,0.0
1408129714853,-1.25235253951,12.8519096521,1.55537182795,0.0
1408129714875,-2.33567307762,10.545899846,-1.04126477559,0.0
1408129714875,-2.2445536657,12.007934847,-5.37372155849,0.0
1408129714881,-1.04810944805,16.5967810994,-4.08842519688,0.0
1408129714913,0.825458227521,17.7649154346,1.07040957951,17.7649154346
1408129714914,2.93639709726,16.5516151131,2.51258012294,0.0
1408129714915,4.10944532179,15.508605762,1.07772431691,0.0
1408129714944,4.33680520832,13.7341060654,1.15266753495,0.0
1408129714945,4.44943081345,11.38508265,1.05235960348,0.0
1408129714945,4.56526070929,10.3449205523,0.368617234401,0.0
1408129714950,4.16110690159,9.65044239171,1.42425773355,0.0
1408129714977,3.47065797114,8.27435766935,1.3716134525,0.0
1408129714978,2.67291775105,7.8219284884,0.853531166055,0.0
1408129714982,1.93801068493,7.80220029711,1.38714603064,0.0
1408129715007,1.38319272939,8.14155189979,1.78857266399,0.0
1408129715008,0.412577945183,8.10549490438,1.15556455806,0.0
1408129715010,-0.81714550662,7.66255800405,0.603667575782,0.0
1408129715034,-1.63806394455,8.19639101807,0.502332428216,0.0
1408129715035,-1.84713080943,9.37130044241,0.466289143405,0.0
1408129715051,-1.88272171812,9.99757433185,0.564758029457,0.0
1408129715051,-1.58954226145,9.70110059521,0.724714657175,0.0
1408129715066,-0.81411413568,9.02306617413,0.826931191448,0.0
1408129715070,0.0554117954001,8.51497088394,0.947982093716,0.0
1408129715082,0.798011066983,8.39487999387,0.892496223594,0.0
1408129715106,1.27031060982,8.15564457653,1.09633822956,0.0
1408129715107,1.55304076593,7.77217024148,1.34032176201,0.0
1408129715110,1.70262116023,7.23920748403,1.40534861101,0.0
1408129715142,1.79038825212,6.89030498089,1.36962602847,0.0
1408129715143,1.42502739398,6.93449645631,0.995166963134,0.0
1408129715144,0.97138128102,7.09539059907,0.521937382723,0.0
1408129715150,0.857252735893,7.27481260435,0.315249555261,0.0
1408129715185,0.763405337067,7.22037650798,0.600059963978,0.0
1408129715186,0.549991600433,7.18671752261,0.854448733536,0.0
1408129715190,0.00820923232451,7.19036711933,0.985149751492,0.0
1408129715222,-0.745829230302,7.61495023256,1.01300738649,0.0
1408129715223,-1.55539570306,8.52083767264,0.7986572192,0.0
1408129715223,-2.32408498318,8.65876174837,0.665481739965,0.0
1408129715225,-2.8674062426,8.36349058584,0.495116822871,0.0
1408129715230,-2.99828895505,8.05570320269,0.0831226999743,0.0
1408129715254,-2.68007148226,8.30158202807,-0.20863518436,0.0
1408129715254,-2.43680853415,8.54877362454,-0.0746886605454,0.0
1408129715262,-2.28061111133,8.669927724,0.27996234426,0.0
1408129715271,-2.11790695705,8.80660681732,0.549895241265,0.0
1408129715295,-2.32359336756,8.60516732722,0.497392317479,0.0
1408129715296,-2.67393616948,8.10866566031,0.0582212411796,0.0
1408129715302,-2.9671841195,7.59840491293,-0.426021627826,0.0
1408129715333,-3.19439605951,7.63374805191,-1.11372358386,0.0
1408129715334,-3.19451688087,8.14019387435,-1.56599295214,0.0
1408129715336,-3.05060128586,8.69437154365,-0.870012782611,0.0
1408129715368,-2.79051067469,9.37921275814,-0.137281144502,0.0
1408129715368,-2.99947668462,9.70968024903,0.98966352665,0.0
1408129715369,-3.91170663122,9.27797667314,1.41543460879,0.0
1408129715400,-4.71326087394,9.03181690482,0.288937600229,0.0
1408129715401,-4.26942771309,9.30999002355,-0.757352561852,0.0
1408129715402,-2.84764143751,10.0401095848,-0.914445572575,0.0
1408129715435,-1.90044041828,10.8639288302,-0.245471031869,0.0
1408129715435,-1.54928685083,11.5045073785,0.0357417998722,0.0
1408129715439,-0.942387653889,11.5356734129,0.292455968702,0.0
1408129715445,-0.634033359138,10.7783692891,1.3840066419,0.0
1408129715472,-0.917809361175,10.4616044834,1.48524242171,0.0
1408129715473,-1.0276906194,10.721760849,0.305228328445,0.0
1408129715473,-0.388692921397,10.3570846025,0.713621540155,0.0
1408129715474,1.01711085243,9.28283642424,1.71647371188,0.0
1408129715482,2.67802848142,8.27583813411,2.05120238644,0.0
1408129715507,3.36239202211,7.94774690853,2.25702731194,0.0
1408129715508,3.18641610604,8.7889028369,2.42019895315,0.0
1408129715510,3.44605646202,11.2443612973,2.08130493925,0.0
1408129715543,2.95689948675,15.5018432931,1.17787143914,0.0
1408129715544,2.92342539892,19.6573124778,1.20464528896,0.0
1408129715545,3.31228255589,20.0179341767,2.13801703436,20.0179341767
1408129715551,3.54606752413,19.0130955516,1.76125326936,0.0
1408129715577,3.46648203642,15.5099365921,0.00681725899316,0.0
1408129715577,3.19906187708,11.5552853156,-1.61254865001,0.0
1408129715584,2.31209043608,8.62492904393,-2.66853865424,0.0
1408129715604,2.31259140014,9.41015931259,-2.33197513031,0.0
1408129715605,2.39375412331,10.7456866555,-0.909176864389,0.0
1408129715610,1.29080524343,10.4230316554,-0.279390830135,0.0
1408129715635,0.240987913926,8.9360631232,-0.700548682468,0.0
1408129715635,-0.633940939498,8.38836381762,-1.25873023092,0.0
1408129715653,-1.16520855926,8.26605709433,-1.46076798496,0.0
1408129715654,-1.66532554543,7.88084709027,-1.04886083142,0.0
1408129715663,-2.1868776718,7.96174463279,-0.463436289276,0.0
1408129715690,-2.326152613,7.64701682056,0.17402938884,0.0
1408129715690,-2.23342100911,7.4090348445,0.159004731862,0.0
1408129715691,-1.77741196286,6.33925101234,-0.00931028426471,0.0
1408129715728,-1.17346495884,5.16872823356,-0.158087495618,0.0
1408129715729,-1.01250159245,4.47587411261,-0.466665245624,0.0
1408129715729,-0.85568537663,3.99780397102,-0.774820665993,0.0
1408129715731,-0.660490962222,3.787773636,-1.00148629184,0.0
1408129715754,-0.414117615346,3.95056760266,-1.15511333646,0.0
1408129715755,-0.353164239565,4.36669706372,-1.12214398098,0.0
1408129715765,-0.344033166953,4.87212867028,-0.939428867404,0.0
1408129715783,-0.268459664101,5.36111829846,-0.845941812747,0.0
1408129715783,-0.233310366983,5.76141040406,-0.875858786053,0.0
1408129715800,-0.36619261784,6.29886882656,-0.975689166214,0.0
1408129715802,-0.495276296712,6.86434613833,-1.10176678712,0.0
1408129715820,-0.548838462005,7.17795031654,-1.47832307224,0.0
1408129715823,-0.693668265228,7.52361378657,-2.07561983362,0.0
1408129715831,-1.00207366294,8.42996764462,-2.67910612201,0.0
1408129715855,-1.44663646755,9.93603227686,-2.47568731117,0.0
1408129715856,-1.52352098147,11.1079879394,-1.69392002267,0.0
1408129715862,-1.16404564546,11.4849403165,-1.57942332585,0.0
1408129715890,0.0949734599887,12.7725157149,-0.800482653941,0.0
1408129715892,0.426908984971,16.5793599469,0.138353746295,0.0
1408129715893,0.999993357765,17.7798650546,0.884367768265,17.7798650546
1408129715927,0.219642133161,15.5788542154,1.69144246732,0.0
1408129715928,-1.96304385449,12.3533144086,1.10988282249,0.0
1408129715929,-3.94863727182,9.79485350991,-1.02000858023,0.0
1408129715931,-4.23749755156,8.94167001404,-4.71877352524,0.0
1408129715967,-2.51057269321,11.3114202737,-7.56237767513,0.0
1408129715968,-1.00905001639,15.9142573924,-3.54128794926,0.0
1408129715972,0.84535746843,15.8810331767,1.23412237661,0.0
1408129716007,3.23707345312,14.1272882352,0.831287089388,0.0
1408129716008,4.23797371661,13.622435275,0.938029629129,0.0
1408129716010,4.10906756143,12.0059918273,1.88386704713,0.0
1408129716011,4.26016495393,10.2246529876,1.42373125304,0.0
1408129716012,4.35552876384,10.0653479187,1.0887210756,0.0
1408129716037,3.80577314029,9.42847061815,1.9432061895,0.0
1408129716038,2.98921621155,9.18208136413,2.29760059142,0.0
1408129716042,2.36410412211,9.43293490575,1.83656073229,0.0
1408129716051,1.60427573738,9.46160090285,2.28595615505,0.0
1408129716070,1.06502729762,9.27563573733,2.32828674106,0.0
1408129716071,0.576375443258,8.83372569541,1.51461702267,0.0
1408129716083,0.0101057589637,8.29869586759,0.618793240736,0.0
1408129716103,-0.354971494607,8.50326470817,0.0927848010099,0.0
1408129716103,-0.405363338992,9.36432110836,-0.0358631266674,0.0
1408129716110,-0.136914033037,9.89059802077,0.0898117987929,0.0
1408129716142,0.539762139551,9.57945520319,0.356324510646,0.0
1408129716143,1.41505476371,8.87188098554,0.758920607753,0.0
1408129716144,1.84996488012,8.19288390361,0.990429924932,0.0
1408129716152,2.01295933924,7.94849879721,1.19981515769,0.0
1408129716178,1.9861620756,7.97106198493,1.45948673778,0.0
1408129716179,1.89971485382,7.93572523756,1.70849171524,0.0
1408129716185,1.84614582299,7.75156393254,1.69630298169,0.0
1408129716209,1.65193595496,7.75810987314,1.48511486307,0.0
1408129716211,1.22477488202,8.02474909813,1.12606209198,0.0
1408129716211,0.82299870565,8.40405446347,1.04892862588,0.0
1408129716236,0.512751378577,8.10765338212,1.08081553582,0.0
1408129716237,0.547274022504,7.76582763945,1.05520311595,0.0
1408129716243,0.351565535301,7.50162176726,1.25699265713,0.0
1408129716251,-0.0789660681153,7.08820401336,1.17810258531,0.0
1408129716272,-0.606719848961,6.99473736793,1.01255511673,0.0
1408129716272,-1.24907947287,7.48458928364,0.655056036985,0.0
1408129716282,-2.07546172711,7.70618092728,0.439818605008,0.0
1408129716306,-2.54614846143,7.10982464498,0.195543863125,0.0
1408129716306,-2.99095012792,6.8333130453,-0.00389318664155,0.0
1408129716311,-2.86690009426,6.7276231344,-0.186359157386,0.0
1408129716340,-2.50936508483,7.01937389147,-0.400711443,0.0
1408129716342,-2.00762198136,7.42090904499,-0.345882469548,0.0
1408129716343,-1.48916459969,7.60989064735,-0.217837967734,0.0
1408129716373,-1.23117587223,7.69351594677,-0.0239682563186,0.0
1408129716373,-1.33634327402,7.81844801597,0.070497108544,0.0
1408129716374,-1.60649151468,7.97739922405,-0.0700471126577,0.0
1408129716383,-1.99978767128,8.27277738167,-0.173656937268,0.0
1408129716406,-2.14187683085,8.49929281563,-0.411492961497,0.0
1408129716406,-2.21575712973,8.75404445103,-0.143542350426,0.0
1408129716412,-2.59558436095,8.86045055721,0.624919621501,0.0
1408129716435,-3.57420006765,8.62609295805,1.26317261602,0.0
1408129716435,-5.245472932,8.27042858765,0.869605436765,0.0
1408129716443,-5.85084106907,8.62051511466,-0.455603155309,0.0
1408129716478,-5.123624757,9.47506604302,-1.53179664946,0.0
1408129716479,-4.03698012525,10.0410163378,-1.47351727326,0.0
1408129716479,-3.39079310563,10.515146014,-0.670894508071,0.0
1408129716508,-3.04375612513,11.3162153222,-1.003272683,0.0
1408129716509,-1.95435873107,11.5280728163,-1.01800978137,0.0
1408129716510,-1.51914218669,10.3095725776,0.0125410592511,0.0
1408129716512,-1.82725170959,9.62915338124,0.263212554072,0.0
1408129716531,-1.72091798345,9.91695853411,0.152269279219,0.0
1408129716532,-0.643589489562,9.72473216836,1.18408166347,0.0
1408129716547,1.16876639644,8.86973647288,2.1561448315,0.0
1408129716587,2.53703069871,8.39881347394,2.46186267532,0.0
1408129716588,2.82443989151,9.049132731,2.79457834087,0.0
1408129716588,2.47467110492,10.9654434131,2.82503374427,0.0
1408129716589,2.08232167006,14.5993282946,2.29695345969,0.0
1408129716593,1.97466866056,19.1459907729,2.00196358229,0.0
1408129716642,2.4684954967,20.0052737559,2.25201263929,0.0
1408129716645,3.21539123208,20.0439654326,2.14292863345,20.0439654326
1408129716646,3.65123520811,18.1360632308,0.709671597305,0.0
1408129716647,3.50838954792,14.1474185763,-1.08385826467,0.0
1408129716648,3.38091209611,10.6332700687,-2.42944940757,0.0
1408129716686,2.91345529381,8.26048729458,-2.54461782099,0.0
1408129716687,2.73638706892,9.3029917708,-1.47297432057,0.0
1408129716688,2.98987654237,9.83429466969,-0.405603976553,0.0
1408129716689,2.69801281454,9.43529370645,-0.739170980606,0.0
1408129716692,1.8086378832,7.75777380841,-1.54789701203,0.0
1408129716730,0.50620453837,6.7753359517,-1.70283517045,0.0
1408129716732,-0.170201524942,6.58497870761,-1.46105124736,0.0
1408129716733,-0.669269626536,6.98319528147,-0.972694619136,0.0
1408129716733,-1.56247606604,7.87568933464,-0.647005155739,0.0
1408129716759,-2.18414908311,8.43350195742,-0.218188081599,0.0
1408129716759,-1.80667270622,7.44579129611,0.194216937063,0.0
1408129716765,-1.62489547997,6.41924943387,0.277745419422,0.0
1408129716784,-1.30926812161,5.42029068879,-0.0853280390768,0.0
1408129716784,-1.01341224431,4.61822687568,-0.482302884521,0.0
1408129716792,-0.973061557822,4.12017640437,-0.797950056069,0.0
1408129716818,-0.881523627476,3.85537713159,-1.04789641951,0.0
1408129716818,-0.800410918195,4.04548403367,-1.21200880889,0.0
1408129716823,-0.905036408379,4.50077436733,-1.26726027705,0.0
1408129716832,-1.01690062698,5.06747528003,-1.08289453628,0.0
1408129716856,-1.13243131297,5.74200873068,-0.935829413735,0.0
1408129716868,-1.23976619961,6.54237059807,-1.04568797415,0.0
1408129716869,-0.989824441728,7.206707979,-1.70220643708,0.0
1408129716903,-0.892872352558,7.66848820658,-1.4600437847,0.0
1408129716904,-1.13979587447,8.19733796803,-1.13150153842,0.0
1408129716906,-1.4136051109,8.89502771087,-1.68566626418,0.0
1408129716907,-1.63063543885,9.60244790363,-2.26846643949,0.0
1408129716913,-1.89173684189,10.1301364405,-1.99202303846,0.0
1408129716945,-1.6754627169,10.4802352883,-1.71406483034,0.0
1408129716946,-1.19273326855,10.7809311457,-1.84789737927,0.0
1408129716947,-0.767986541113,11.4445083967,-1.78764083703,0.0
1408129716977,-0.262845348802,13.2194168478,-1.54165583007,0.0
1408129716977,0.22923004568,15.2907990018,-1.00255356532,0.0
1408129716978,0.103782246014,16.4308804273,0.885579890032,0.0
1408129717007,-0.855245161461,14.5763228449,2.05289781694,0.0
1408129717008,-2.52344163666,11.177446511,1.13741440599,0.0
1408129717008,-4.06739968958,9.38671373973,-2.09328993188,0.0
1408129717012,-3.99745578973,9.90984465895,-7.21475842024,0.0
1408129717035,-1.95930140833,15.065096884,-8.9266641574,0.0
1408129717035,-0.22593348305,18.9235280362,-1.06543598719,18.9235280362
1408129717043,2.58982461165,16.5716925982,2.57842481609,0.0
1408129717065,4.48068676023,15.9217127267,1.66080519962,0.0
1408129717065,5.59149399146,17.0597529381,1.88531105796,0.0
1408129717078,5.49508034825,14.0547548295,4.34851198547,0.0
1408129717096,5.47215914748,10.7518347117,5.08586113109,0.0
1408129717096,5.05247881193,9.14721260488,4.63032764318,0.0
1408129717112,4.30455585002,7.7584789773,3.94042768788,0.0
1408129717113,4.08546949074,7.4215913663,2.85566177407,0.0
1408129717125,3.44756240484,7.60209639434,2.19186407216,0.0
1408129717140,2.45662851683,7.47688561329,1.48165989953,0.0
1408129717144,1.31163954674,6.45652166889,0.268419289302,0.0
1408129717159,0.140876611433,5.54620735067,-0.835565810782,0.0
1408129717164,-0.574186570315,5.89019550143,-1.07365455962,0.0
1408129717186,-0.47231423894,7.01635672657,-0.876809102952,0.0
1408129717187,-0.287356738887,8.49228604758,-0.69279578215,0.0
1408129717192,0.337483495536,9.05885585346,-0.31955174994,0.0
1408129717223,1.13312021248,8.96035984504,0.15629584343,0.0
1408129717224,1.63284775707,9.21309081307,0.664263806969,0.0
1408129717224,1.85583892636,9.54979320472,1.44747342256,0.0
1408129717259,1.6571660415,9.78010625554,2.48094655538,0.0
1408129717260,1.58442659529,9.85841607544,3.18331327912,0.0
1408129717260,1.42402021006,9.64463542851,2.94131865035,0.0
1408129717266,1.22474283646,9.54258290245,2.4248014635,0.0
1408129717284,0.513818177346,9.38608289461,1.68305635731,0.0
1408129717285,-0.305750450668,8.82399990493,1.23698155127,0.0
1408129717292,-0.435058713051,8.01139952512,0.958265309315,0.0
1408129717323,-0.186475229405,7.41632592788,0.573826499788,0.0
1408129717324,-0.14960953365,6.83407630314,0.665062806761,0.0
1408129717324,-0.63509624518,6.46533134214,0.673850055126,0.0
1408129717351,-1.53521331028,6.2803003348,0.487210849086,0.0
1408129717352,-2.29743106813,6.39836866085,0.150232726018,0.0
1408129717352,-2.98065058866,6.41239197537,-0.113848081801,0.0
1408129717364,-3.47533835793,6.22372009454,-0.334150499171,0.0
1408129717383,-3.49576436253,6.13519028846,-0.485404582926,0.0
1408129717386,-3.1399714276,6.54485528459,-0.778634407164,0.0
1408129717392,-3.00310377025,7.05810755698,-0.87643828356,0.0
1408129717422,-2.67073775887,7.46322962104,-0.778168653773,0.0
1408129717423,-1.9522361954,7.79325290084,-0.515651074964,0.0
1408129717424,-1.54356941205,8.19188218769,-0.138354972215,0.0
1408129717450,-1.51760185062,8.76843383722,-0.200996861675,0.0
1408129717451,-1.759664389,9.46900261508,-0.158729174633,0.0
1408129717452,-1.89368268653,10.2270034085,-0.254793836698,0.0
1408129717466,-1.93975870956,10.6306596284,0.423519022349,0.0
1408129717500,-2.17423348754,10.7138617929,0.78773511862,0.0
1408129717501,-3.00656197588,10.0381100342,1.35063384933,0.0
1408129717503,-4.36225291311,8.97885814156,1.32113776515,0.0
1408129717534,-5.72775710562,8.23813633326,-0.270288352104,0.0
1408129717535,-5.25470418502,7.97244564074,-1.88369509505,0.0
1408129717535,-3.41700329009,8.27742044412,-2.36584463676,0.0
1408129717536,-2.23811117932,9.35647252325,-1.72003080103,0.0
1408129717544,-1.47608267869,10.6782311088,-2.03576164617,0.0
1408129717569,-0.499545285466,10.8355501623,-1.40574653205,0.0
1408129717571,-0.525365617142,9.8914308262,0.194338408165,0.0
1408129717573,-1.36879604679,9.8525650298,0.594335901906,0.0
1408129717616,-1.41840523517,10.5241185923,1.07919900784,0.0
1408129717617,-0.466500422597,10.8401661935,2.25723352336,0.0
1408129717617,0.523976271411,10.0858589995,2.93320956118,0.0
1408129717618,1.67178849173,9.17102328654,2.76324159748,0.0
1408129717625,1.90492443673,9.55127780783,2.52428858032,0.0
1408129717667,2.12247269797,11.4626085393,2.10932235897,0.0
1408129717668,2.01568563564,15.4721510158,1.52135726864,0.0
1408129717668,2.25762559622,19.7114198523,1.60305439933,0.0
1408129717669,3.00930677512,20.1718681474,2.2410348393,0.0
1408129717673,3.71490217442,20.2276014046,1.94690766719,20.2276014046
1408129717706,4.28068547776,17.8052167038,0.898389314217,0.0
1408129717707,4.05688904285,13.339237068,-0.463398507966,0.0
1408129717708,3.41045784603,9.77703299795,-1.52786201839,0.0
1408129717713,2.38454754144,8.16354871816,-2.16097113824,0.0
1408129717736,2.04542658624,9.45644597762,-1.9030364336,0.0
1408129717736,1.98809506784,10.2873955882,-1.70000090862,0.0
1408129717747,1.39362194282,9.11304580405,-1.83839239233,0.0
1408129717767,0.334992526608,7.63424997397,-2.15743487457,0.0
1408129717767,-0.470204249562,6.75327773652,-2.15987404828,0.0
1408129717772,-1.22764692927,6.81176775304,-1.87148969841,0.0
1408129717794,-1.850923722,7.1387961368,-1.18760537136,0.0
1408129717795,-2.31124966898,7.4550638532,-0.382645760262,0.0
1408129717815,-2.60365820089,7.5650220622,0.127733344857,0.0
1408129717816,-2.21788947396,7.07228421639,0.437335163788,0.0
1408129717824,-1.93037018444,6.55384955023,0.47258930136,0.0
1408129717850,-1.33206552242,5.78543954745,0.355834631737,0.0
1408129717851,-0.805679067606,4.72371371616,-0.00524624358946,0.0
1408129717852,-0.421845451605,4.11024405974,-0.634317053974,0.0
1408129717886,-0.0297840570468,4.02489582368,-1.16847236526,0.0
1408129717887,0.232155779259,4.16903210545,-1.43361634473,0.0
1408129717888,0.43114782159,4.41659445773,-1.4957836743,0.0
1408129717892,0.539185025869,4.76413782152,-1.45269933081,0.0
1408129717922,0.621198581228,4.95451429798,-1.25133276544,0.0
1408129717923,0.48309193072,5.1268062455,-0.883986598844,0.0
1408129717927,0.0737979767036,5.6964407859,-0.830699933544,0.0
1408129717959,-0.61729413829,6.43818160904,-1.04558942515,0.0
1408129717959,-1.19148966026,7.03848101615,-1.28658193936,0.0
1408129717960,-1.66070151093,7.57168588764,-1.63945209972,0.0
1408129717983,-1.90145905922,8.53806132129,-2.16772123503,0.0
1408129717983,-2.00089616558,9.8367744729,-2.4077492434,0.0
1408129717985,-1.94427595413,10.9708711355,-2.0699294274,0.0
1408129717993,-1.70243770142,11.3215649396,-1.56149588166,0.0
1408129718015,-1.28682112205,10.9403090762,-1.22602521892,0.0
1408129718015,-0.937121725279,12.1179287786,-1.33009258194,0.0
1408129718024,-0.4171830297,14.6309676445,-1.08056154182,0.0
1408129718045,-1.43466459659,17.0191762391,-0.147648393394,0.0
1408129718046,-2.33338903277,16.5649352669,0.785999536776,0.0
1408129718060,-3.75073221975,13.1937311233,-0.24990847545,0.0
1408129718078,-4.33188429929,11.783938769,-3.89417756047,0.0
1408129718078,-2.74164590897,14.6651351012,-7.80194556086,0.0
1408129718096,-0.392665686218,19.4709698007,-2.60560413364,19.4709698007
1408129718096,2.81170011563,18.7853154847,3.9324213077,0.0
1408129718115,3.44932640167,16.0569700598,3.57015674497,0.0
1408129718115,3.0698887154,14.1713682757,1.18215575662,0.0
1408129718124,2.22516932301,10.9102014771,0.754999244296,0.0
1408129718141,2.77254161553,9.07361736918,-0.58029582994,0.0
1408129718144,3.57312175487,8.38532481141,-0.449131452875,0.0
1408129718159,3.99112898425,7.98956029985,0.621869148539,0.0
1408129718188,4.08726282775,7.77015122073,1.04465098987,0.0
1408129718188,3.71113783796,8.1061397549,1.91509381358,0.0
1408129718189,3.4797944437,8.21918015571,2.9559115594,0.0
1408129718193,2.90435224975,8.83026112876,2.95955124825,0.0
1408129718217,1.80052879809,9.34145456645,2.1891314682,0.0
1408129718217,0.826292942108,9.13468982811,1.31873435361,0.0
1408129718225,0.334605156461,8.91697962826,1.12935383824,0.0
1408129718240,0.068744080562,8.83659007923,0.938477860849,0.0
1408129718248,0.128397900355,8.77454255626,0.746225019242,0.0
1408129718275,0.126217304308,8.64688967097,0.406213474523,0.0
1408129718276,0.402475640977,8.12088630382,0.330538099178,0.0
1408129718276,0.617159946772,7.64871807206,0.245097471789,0.0
1408129718290,0.915583463986,7.44010018328,0.571885696699,0.0
1408129718293,1.33000261187,7.29776371525,0.994174686057,0.0
1408129718326,1.57769978715,7.48769293077,1.3717430592,0.0
1408129718327,1.69374669677,7.94794617623,1.62319669029,0.0
1408129718332,1.7110871585,8.19715522122,1.4245447111,0.0
1408129718358,1.66046171777,8.1435631585,1.24607550088,0.0
1408129718359,1.43829935889,7.80937461557,1.16169945256,0.0
1408129718360,1.10415839433,7.54063549994,1.1225407031,0.0
1408129718388,1.05441464185,7.2019846914,1.29770748419,0.0
1408129718389,0.540557324498,7.23568419253,1.12084683579,0.0
1408129718389,-0.234133991431,7.41385704884,0.882306449827,0.0
1408129718393,-1.13319481721,7.57268465637,0.836059610753,0.0
1408129718424,-2.05744092805,7.69479872664,0.762829706479,0.0
1408129718425,-2.8741065729,7.22646825533,0.642746030635,0.0
1408129718425,-3.37280371673,6.86669880483,0.184845291248,0.0
1408129718454,-3.49605957079,6.7065576088,-0.439167105299,0.0
1408129718455,-3.19541562017,6.85834589619,-0.734805583577,0.0
1408129718455,-2.80729268439,7.32135402866,-0.747734587013,0.0
1408129718483,-2.38451667953,7.86858477051,-0.659549023678,0.0
1408129718484,-1.99827717323,8.18025558844,-0.494774522824,0.0
1408129718485,-1.97890936556,8.13971794858,-0.413478940499,0.0
1408129718493,-2.03227068331,8.10680691213,-0.42179538277,0.0
1408129718517,-2.10577095006,8.39840869409,-0.786439663531,0.0
1408129718517,-2.21595291118,8.77052970718,-0.694997997494,0.0
1408129718527,-2.35678667886,9.35668988309,-0.0475198346314,0.0
1408129718541,-2.57183828664,10.3423914125,0.498574926165,0.0
1408129718564,-2.97041461568,10.6911831964,1.59373368885,0.0
1408129718565,-3.80225529176,10.4266593264,1.73055908204,0.0
1408129718565,-4.98625660061,9.73145102112,0.672285545682,0.0
1408129718573,-4.86551480043,9.37577672586,-0.705639739854,0.0
1408129718599,-3.61448884914,9.49318927066,-1.17575604827,0.0
1408129718600,-2.88878173476,10.6031433051,-1.20359993108,0.0
1408129718605,-2.54938216326,11.6569714241,-1.26915425779,0.0
1408129718637,-1.8374319071,11.4499540477,-0.409788760298,0.0
1408129718638,-1.61812302673,10.2676370814,0.633194530306,0.0
1408129718639,-1.80353381624,9.88239074498,0.671888001484,0.0
1408129718681,-1.63131200339,10.133964338,0.731766863306,0.0
1408129718683,-0.534594483539,9.68349151779,1.13764836707,0.0
1408129718685,1.06656924977,8.62789043482,1.6165415367,0.0
1408129718687,2.36973509584,7.73232486351,1.91463754612,0.0
1408129718688,3.01857077768,7.75942561458,2.30717529342,0.0
1408129718695,2.95485662708,9.2485070426,2.51528185141,0.0
1408129718723,2.92053171306,12.617422878,1.64439087913,0.0
1408129718724,2.62037208305,17.3767855195,0.941314293392,0.0
1408129718725,2.85572771775,20.061509419,1.66816302431,20.061509419
1408129718744,3.14258769202,19.9768599065,2.14446274795,0.0
1408129718760,3.50374077266,17.7916114978,1.19497365319,0.0
1408129718761,3.30454207602,11.7147087269,-1.11913604784,0.0
1408129718776,2.72004088869,9.43683383858,-1.38204292994,0.0
1408129718776,2.1841768937,9.5912287938,-1.00857220353,0.0
1408129718794,2.24741994149,10.2402110669,-0.347159801919,0.0
1408129718795,1.44056751287,9.68283492518,-0.228587147534,0.0
1408129718805,0.413193060082,8.57227073038,-0.82779224359,0.0
1408129718848,-0.293148871895,7.25512633582,-1.48551457078,0.0
1408129718849,-1.28674666087,7.16794140702,-1.94474337856,0.0
1408129718851,-1.88439306854,7.26716383366,-1.67882349762,0.0
1408129718852,-2.58387335201,7.3532006328,-1.13197721121,0.0
1408129718854,-3.02044380632,7.48597237611,-0.481094596699,0.0
1408129718901,-2.62218212522,6.91112413843,-0.12850612234,0.0
1408129718902,-2.137336415,5.90077937142,-0.0506760630058,0.0
1408129718904,-1.36176672146,4.89496134286,-0.221908241163,0.0
1408129718906,-0.918835716104,4.36239597572,-0.517880086181,0.0
1408129718907,-0.496797307729,3.92242680273,-0.831804383035,0.0
1408129718928,-0.117665518795,3.63473992609,-1.05237885438,0.0
1408129718928,0.0952794386543,3.53823814242,-1.25907476427,0.0
1408129718934,0.126318644867,3.58507411503,-1.42520895138,0.0
1408129718958,-0.00624704801949,4.03574334044,-1.60061567825,0.0
1408129718958,-0.0591421411226,4.58148152958,-1.65558949068,0.0
1408129718983,-0.395775627019,5.46578299031,-1.49152716729,0.0
1408129718984,-0.95624320655,6.74450251902,-1.05210897423,0.0
1408129718985,-1.42725878803,7.82914457012,-1.1113957864,0.0
1408129719021,-1.60066895604,8.47748574875,-1.84055090479,0.0
1408129719022,-1.90365636902,9.22298268606,-2.55035570762,0.0
1408129719022,-2.57803235962,10.6903476872,-2.4309085767,0.0
1408129719025,-2.72757607737,12.3401874215,-2.06984004015,0.0
1408129719047,-2.21731198104,12.9278237608,-2.00639798747,0.0
1408129719048,-1.50294073849,12.4952925458,-1.71309636299,0.0
1408129719054,-0.687004821786,13.8845291318,-0.632294639488,0.0
1408129719095,0.18898824155,16.9617481565,0.130871843311,0.0
1408129719096,-0.333346323498,19.3646194783,0.698058916722,19.3646194783
1408129719097,-1.07734181743,17.5595747521,1.12440618579,0.0
1408129719098,-2.44452854056,14.806789473,-1.20978747062,0.0
1408129719106,-2.09869863608,15.2902807346,-5.14368691678,0.0
1408129719142,-0.954767361983,17.0251071483,-2.8875876524,0.0
1408129719144,1.61911027958,17.131233055,1.60747004284,0.0
1408129719146,4.21619042865,14.8278335532,2.65433351962,0.0
1408129719174,4.57002235481,12.5470588499,1.04123212774,0.0
1408129719175,3.72564563136,9.83692451249,0.805221278678,0.0
1408129719175,3.19531694974,7.01543588352,-0.444323334117,0.0
1408129719176,3.79343559733,6.18517442754,-1.77656533577,0.0
1408129719200,3.70987685087,6.17237458337,-1.17370808792,0.0
1408129719200,3.3933556437,6.73920869067,0.305715862391,0.0
1408129719205,3.21460336808,7.49260478541,1.15566219681,0.0
1408129719254,2.61732969642,8.26582273383,2.32115831628,0.0
1408129719255,1.98456496642,8.84066733392,3.14611203036,0.0
1408129719256,1.16435877951,9.28339736038,3.23255634495,0.0
1408129719256,0.394994750653,9.30891843099,2.83223930562,0.0
1408129719257,-0.143668564385,9.38117253067,2.32927177594,0.0
1408129719280,-0.10839573447,9.62855391311,2.06249513087,0.0
1408129719281,-0.250815531573,9.69271664624,1.46227319938,0.0
1408129719286,-0.575587470744,9.46247486846,0.672839489594,0.0
1408129719314,-0.389234784662,8.82131841512,-0.00715059525668,0.0
1408129719315,-0.166617440807,8.11676208097,-0.522140516438,0.0
1408129719315,-0.0384287709528,7.24630886657,-0.58296890367,0.0
1408129719327,0.231076073943,6.78012180485,-0.180830808971,0.0
1408129719340,0.840261150615,6.48256718826,0.528958801629,0.0
1408129719357,1.29070280475,6.42939057752,0.834331633053,0.0
1408129719357,1.59828875519,6.64645411507,0.757417025225,0.0
1408129719373,1.40850048108,6.77802732555,0.796316757206,0.0
1408129719374,1.09893887891,7.15533264636,0.813700413594,0.0
1408129719387,1.08159485361,7.36986663179,1.0030459541,0.0
1408129719406,1.00642388824,7.19115512692,1.24476114845,0.0
1408129719407,0.49913295352,7.25416092308,1.31830532577,0.0
1408129719423,-0.338937838585,7.13835665477,1.34723590562,0.0
1408129719438,-1.33337226909,7.49852735521,1.21742017074,0.0
1408129719438,-2.21531164805,7.84806073924,1.08215423944,0.0
1408129719459,-2.92197050698,7.88488270916,0.858965269273,0.0
1408129719460,-3.52878191245,8.35161245423,0.339004036298,0.0
1408129719466,-3.62700725983,8.70249586935,-0.573934251321,0.0
1408129719474,-3.077930318,8.81600600973,-1.09928737022,0.0
1408129719488,-2.30039594284,9.20774799264,-1.0672140135,0.0
1408129719507,-1.41201680716,9.16540305639,-0.851115028214,0.0
1408129719508,-0.911796236055,8.74421328341,-0.566334962091,0.0
1408129719525,-1.0821429638,8.25920308084,-0.460174995296,0.0
1408129719544,-1.56165859112,7.7367909295,-0.664103378867,0.0
1408129719544,-2.11401733716,7.39431655217,-0.926202627637,0.0
1408129719550,-2.55556484951,7.59239488841,-0.452807666405,0.0
1408129719554,-2.61277238617,8.64904752931,0.136588251023,0.0
1408129719571,-3.13887837611,9.55761936386,1.00410439599,0.0
1408129719574,-4.09368562477,9.60495664426,1.26451309938,0.0
1408129719594,-4.61263372132,9.54641561275,0.405644207437,0.0
1408129719595,-3.82936093197,9.84230328466,-0.406172342702,0.0
1408129719608,-2.62089012595,10.99609102,-0.797484555153,0.0
1408129719627,-1.69348210517,12.2614862017,-1.7790212807,0.0
1408129719642,-0.107090014346,12.4942673708,-1.2650221829,0.0
1408129719642,1.2767929686,11.7177355381,0.609623166165,0.0
1408129719663,1.12643992684,11.0057778408,1.93929252576,0.0
1408129719664,0.64157716126,11.0256115376,2.30533841204,0.0
1408129719667,0.61349543847,10.8895957584,2.60261401987,0.0
1408129719674,1.01160571406,10.1501566776,2.7973419891,0.0
1408129719689,1.18371252986,9.87509142711,2.65319563559,0.0
1408129719708,0.935744176249,11.3152982175,2.02630590055,0.0
1408129719709,0.914862279366,14.3326210868,1.31276279932,0.0
1408129719714,1.40139744475,18.3569214307,0.957586382391,0.0
1408129719742,2.54836462144,19.9520627287,1.14959509694,19.9520627287
1408129719742,3.87930178539,19.1562857101,1.10148744093,0.0
1408129719746,4.22767788204,16.0434058777,-0.0375303947898,0.0
1408129719754,3.73617242347,13.2965644579,-1.0789028559,0.0
1408129719779,3.0071699636,10.8084150581,-1.308169219,0.0
1408129719780,2.34246832827,7.85196684629,-1.26984315651,0.0
1408129719787,2.33706174967,8.58302299794,-0.913776872467,0.0
1408129719813,2.116871005,8.60092262351,-0.733444515964,0.0
1408129719814,1.07762026278,7.90334431578,-0.970973396004,0.0
1408129719815,-0.200032945571,6.74405005912,-1.32677691315,0.0
1408129719848,-0.947588685579,5.93406745028,-1.59630445077,0.0
1408129719848,-1.4620327228,5.95734810286,-1.46021208128,0.0
1408129719849,-1.99414962807,6.33225862779,-1.17876078865,0.0
1408129719855,-2.55773296518,7.41014294712,-0.878883238385,0.0
1408129719876,-2.50325913851,7.69930181756,-0.390513346693,0.0
1408129719876,-1.81654434966,6.58297434813,0.124584825438,0.0
1408129719886,-1.05702018881,5.68264626863,0.289255277278,0.0
1408129719913,-0.685647190323,4.77206695354,-0.0196934146429,0.0
1408129719914,-0.238903323562,4.03845633106,-0.508522318039,0.0
1408129719915,0.168028861765,3.58213681853,-1.03400743456,0.0
1408129719942,0.292194904282,3.57689544821,-1.44847469288,0.0
1408129719943,0.291814579411,3.95152099531,-1.67402173949,0.0
1408129719946,0.0414865941225,4.55321326221,-1.75935219336,0.0
1408129719955,-0.305728573458,5.20170955831,-1.65775797963,0.0
1408129719977,-0.59537700358,5.74871384323,-1.46148087618,0.0
1408129719978,-1.08465590991,6.54886741148,-1.36344283662,0.0
1408129719986,-1.7717841049,7.68003881941,-1.42989911976,0.0
1408129720014,-2.35819811052,8.87554466797,-1.79664870246,0.0
1408129720015,-2.75230763295,9.72087549794,-2.0855176797,0.0
1408129720016,-3.03433048896,10.3304977693,-2.08008816153,0.0
1408129720047,-2.83155227728,10.5835353541,-1.98469685592,0.0
1408129720048,-2.43321015557,10.5252285287,-2.25257367683,0.0
1408129720049,-1.42189120873,10.7514723704,-2.3000346187,0.0
1408129720055,-0.626937128806,12.9378344409,-1.19222948396,0.0
1408129720079,-0.54808385889,16.2397283982,-0.49552554537,0.0
1408129720080,-0.875597743474,18.3813334892,0.150924571867,0.0
1408129720089,-1.08249437138,16.5333917815,0.572190728359,0.0
1408129720118,-1.39916587659,14.2656237381,-2.07200406758,0.0
1408129720118,0.597018633822,16.2239064347,-5.81149279468,0.0
1408129720119,2.72450129852,19.0817577939,0.402732816381,19.0817577939
1408129720151,4.96816697616,18.2244052216,5.60875006928,0.0
1408129720152,4.51669032512,15.3676185153,3.9549049744,0.0
1408129720153,3.78301699079,12.6094520935,1.14474518502,0.0
1408129720155,2.61989845888,9.00953938268,-0.533395979378,0.0
1408129720178,2.91120095252,7.2641822677,-1.62924559971,0.0
1408129720178,3.58530157828,6.99110489339,-1.05641192104,0.0
1408129720186,3.88593074717,6.97351166639,-0.63058528141,0.0
1408129720216,3.59074242667,7.24911060001,0.490576703371,0.0
1408129720217,2.87819251318,8.39854731069,1.85757620098,0.0
1408129720218,1.15254162438,9.63160565972,3.08526208472,0.0
1408129720251,-0.10491644053,10.3692795689,2.19199917038,0.0
1408129720252,-0.529312421633,11.0311607683,1.94735992214,0.0
1408129720253,-0.199844717524,11.4043878299,2.43226874222,0.0
1408129720255,0.140318451456,11.024608964,2.69701446806,0.0
1408129720279,0.351357530968,10.2504901697,2.45200176126,0.0
1408129720280,0.197044160578,9.87627336795,1.60308886309,0.0
1408129720287,0.124412974392,9.10092783533,0.854496310083,0.0
1408129720319,0.37779207434,7.62954414834,0.123018395545,0.0
1408129720319,0.656455139136,6.73447196595,-0.283489794803,0.0
1408129720320,1.39690156871,6.5960688557,-0.208980611251,0.0
1408129720339,2.34612351913,6.6804058636,0.0672745743339,0.0
1408129720339,2.84670628831,6.57349454297,0.354809608289,0.0
1408129720354,2.73836115672,6.36362005786,0.632662700292,0.0
1408129720355,2.1253171915,6.31279908417,1.01616118962,0.0
1408129720367,1.53734167199,6.37944792945,1.38513742367,0.0
1408129720384,1.2574534986,6.19729874701,1.64453885114,0.0
1408129720387,0.979259477289,5.99880578862,1.78860241213,0.0
1408129720401,0.315018095421,6.04389924862,1.77263754481,0.0
1408129720406,-0.852378802324,6.73714766017,1.65866113676,0.0
1408129720423,-1.62767519657,6.82542555262,1.38820632245,0.0
1408129720427,-2.93342855086,7.5656554411,0.869829304807,0.0
1408129720435,-4.34310851014,8.77507317786,0.460877234203,0.0
1408129720457,-4.60381133912,9.48633089037,-0.203451833275,0.0
1408129720457,-4.20595535901,9.59554104867,-0.93836348482,0.0
1408129720467,-3.47536206407,9.63729567053,-1.02949959658,0.0
1408129720494,-2.44612868714,8.9374696628,-0.390602487322,0.0
1408129720494,-1.58873019308,7.82950014358,-0.231892515612,0.0
1408129720496,-1.54916966404,7.05404851551,-0.500644341378,0.0
1408129720529,-1.91388832924,7.02268466543,-0.864062470731,0.0
1408129720530,-2.29357949085,7.38840466584,-1.08168078507,0.0
1408129720530,-2.50722138483,7.875561552,-0.834416453514,0.0
1408129720535,-2.53862626837,8.54398628685,-0.283694332116,0.0
1408129720558,-2.45200596289,9.30324232166,0.103568201986,0.0
1408129720559,-2.85756923358,9.62714495203,0.603317843587,0.0
1408129720569,-3.35143653261,9.29709363574,0.756625937242,0.0
1408129720587,-3.43093301761,8.71517772368,0.176801125813,0.0
1408129720587,-2.50607753322,8.64728541074,-0.422589381417,0.0
1408129720604,-2.01121478149,9.58428702965,-0.728537131236,0.0
1408129720618,-1.85793909163,10.9570196618,-1.43184916644,0.0
1408129720619,-0.885846271065,11.7811139021,-1.01907663712,0.0
1408129720636,-0.630454093784,11.3500641154,0.725580676607,0.0
1408129720636,-1.5819017042,10.8383641141,1.62094847248,0.0
1408129720652,-1.66470490813,10.7971657575,1.801640557,0.0
1408129720670,-0.800375356488,10.2425899268,2.24772769563,0.0
1408129720670,0.101443641758,9.50179532695,2.07717382308,0.0
1408129720685,0.909178231114,9.96048197935,1.54985342457,0.0
1408129720688,1.29322233139,12.0745227851,0.742509264812,0.0
1408129720704,1.25867474277,15.1113403854,0.667159752102,0.0
1408129720717,1.09277934281,18.3900760443,2.10886012813,0.0
1408129720717,2.03218833719,19.5854472502,3.43591217014,19.5854472502
1408129720736,3.78764402676,19.0605930392,2.77380123651,0.0
1408129720737,4.58844630215,16.7151259768,1.06686610099,0.0
1408129720753,4.31033778167,13.965715338,-0.16837809655,0.0
1408129720769,3.89051074483,11.9377947318,-0.489223942943,0.0
1408129720770,3.50465959148,9.95583271768,-0.357311519924,0.0
1408129720783,3.76266282791,7.92120786356,-0.636723759328,0.0
1408129720787,3.98808311619,8.77646497201,-0.813771863425,0.0
1408129720800,3.14989471325,8.5053942119,-1.20458372399,0.0
1408129720817,1.79275519939,7.96652276007,-1.51264036916,0.0
1408129720818,0.670920404985,7.53071870003,-1.68213308395,0.0
1408129720837,-0.828632191377,7.59666317304,-1.94457272302,0.0
1408129720838,-1.87083941297,8.16511777568,-1.84834864839,0.0
1408129720851,-2.45577828063,8.68535486715,-1.20538291163,0.0
1408129720867,-2.80664793356,9.12138805986,-0.452655499949,0.0
1408129720868,-2.34656164097,8.31705681262,0.275786257021,0.0
1408129720905,-1.35655141232,6.66306562187,0.537466513961,0.0
1408129720907,-0.767570788245,5.35779569154,0.161202399426,0.0
1408129720908,-0.538618914849,4.60843650051,-0.424421797283,0.0
1408129720943,-0.486485117117,4.2507568426,-0.924404867711,0.0
1408129720943,-0.46590667932,4.0075871213,-1.29137339516,0.0
1408129720944,-0.401023234608,4.07580174248,-1.2773000748,0.0
1408129720945,-0.424609508279,4.32441061248,-1.19027034285,0.0
1408129720947,-0.463690549247,4.44189729258,-1.20718750492,0.0
1408129720973,-0.841671027516,4.53657809032,-1.34562813233,0.0
1408129720974,-1.19163325565,4.98089247024,-1.38761019867,0.0
1408129720976,-1.41222549311,5.59236425209,-1.52336403822,0.0
1408129721007,-1.53472389011,6.42616997371,-2.10306416519,0.0
1408129721008,-1.44694336789,7.30386980918,-3.00714385785,0.0
1408129721014,-1.43578827508,8.32675001688,-3.78338045009,0.0
1408129721016,-1.61885495113,9.64192325338,-4.152138239,0.0
1408129721052,-1.68485437644,10.6843122608,-3.48752058155,0.0
1408129721052,-1.54608799035,11.0149947781,-2.29159638853,0.0
1408129721053,-1.08893604733,11.0637432233,-1.35850994248,0.0
1408129721073,-0.865976068861,12.7593868285,-0.622665320927,0.0
1408129721073,-0.93241416451,15.818794979,-0.0761819911729,0.0
1408129721076,-1.40567636544,17.5107684463,1.46039357809,0.0
1408129721087,-2.6287996418,15.4040715854,2.49569650955,0.0
1408129721105,-3.96818202213,12.3663341102,0.774193525648,0.0
1408129721108,-3.7490656081,11.9061882982,-4.10551793974,0.0
1408129721116,-0.930664912984,15.3840142283,-7.19813274878,0.0
1408129721142,2.78281224361,19.6438893304,-0.352057284786,19.6438893304
1408129721143,4.91076649667,17.1962320739,5.90547800589,0.0
1408129721147,4.89607687407,13.7254669429,3.06163685309,0.0
1408129721178,4.57960702142,10.5579835857,0.000229034268518,0.0
1408129721179,4.33418559969,8.74434531104,-0.877567630854,0.0
1408129721180,4.64453381808,8.56952487632,-0.347562195359,0.0
1408129721188,4.89612728321,8.43423422946,0.782204214814,0.0
1408129721218,5.00246946621,8.48960873338,1.50421676748,0.0
1408129721219,4.94928966988,8.75645713669,2.07608577646,0.0
1408129721219,4.25072468121,9.47675219452,3.29843360037,0.0
1408129721235,3.41359777481,9.96691826449,4.13825527422,0.0
1408129721239,2.30833401889,10.679070208,3.37132326487,0.0
1408129721256,0.898188097563,10.8476393359,2.2475055279,0.0
1408129721256,-0.0509750156154,11.0368230158,1.62714583976,0.0
1408129721267,-0.316428139665,10.7376886338,1.72856689206,0.0
1408129721283,-0.539522226507,9.77385778935,1.34354246098,0.0
1408129721301,-0.710707021307,8.85065056595,0.594331430661,0.0
1408129721302,-0.325984431648,8.04737571203,0.0139580144561,0.0
1408129721325,-0.00417710398351,7.14349877031,-0.459829832913,0.0
1408129721326,-0.0239371274809,6.27226508868,-0.657918293274,0.0
1408129721327,0.0751324400244,5.39173160368,-0.201685310468,0.0
1408129721336,0.0405645456658,4.90721311735,0.183921125085,0.0
1408129721358,-0.0677230549885,4.75068302984,0.43556092666,0.0
1408129721359,-0.172663232444,4.91335520716,0.741231678012,0.0
1408129721367,-0.442571477199,5.46171975269,0.559720892341,0.0
1408129721386,-0.693926948783,6.47062902389,0.428981869298,0.0
1408129721401,-0.793561851351,7.46898454176,0.82726365867,0.0
1408129721402,-0.639195988849,8.19727265784,1.50975449679,0.0
1408129721416,-0.999602924501,8.85152597998,1.73721756952,0.0
1408129721416,-1.46710714936,8.90628756501,1.94384905047,0.0
1408129721437,-1.8927459842,8.34399377254,2.12031768512,0.0
1408129721438,-2.45027840359,7.99492550685,1.79399747073,0.0
1408129721448,-2.61176412839,8.10532195098,0.776448579963,0.0
1408129721471,-2.52574248644,8.38387169341,-0.298339159271,0.0
1408129721472,-2.19446474152,8.33921998115,-0.855125626618,0.0
1408129721477,-1.52706890217,8.27967553876,-0.956730307447,0.0
1408129721509,-1.11538498355,8.53326399248,-0.946724966686,0.0
1408129721510,-1.0062139172,8.57828237407,-0.677385103113,0.0
1408129721511,-1.20398653142,7.94299483323,-0.507166917593,0.0
1408129721516,-1.73437197423,7.20992286192,-0.971946422733,0.0
1408129721539,-2.12560210249,7.01480857402,-1.61277785179,0.0
1408129721539,-2.53096514985,7.48651519923,-2.19765711947,0.0
1408129721548,-2.81069667688,8.40441294959,-2.02959363777,0.0
1408129721582,-2.89632360024,9.54903536411,-0.867810344026,0.0
1408129721582,-2.79782108448,10.527078241,-0.0365029500412,0.0
1408129721583,-3.21615582021,10.4032623225,0.10979135553,0.0
1408129721610,-3.6888275871,9.90475710183,-0.143452835553,0.0
1408129721611,-3.89606071746,10.0071735209,-0.557652941824,0.0
1408129721612,-3.58091467911,10.5062741405,-0.571547612826,0.0
1408129721616,-3.17134251422,11.0195110348,-0.0511898176182,0.0
1408129721638,-2.92194818625,11.8862595918,-0.880371655229,0.0
1408129721638,-2.03112832408,11.6786004185,-0.961827624228,0.0
1408129721649,-1.40677746442,10.5559593477,0.528960166199,0.0
1408129721672,-0.309457480164,9.38626820454,0.874020417305,0.0
1408129721673,0.745192669258,8.28014519151,1.55735377945,0.0
1408129721677,1.5668137169,8.18357723031,2.59198531087,0.0
1408129721711,1.82202575551,9.90416714147,2.59110036036,0.0
1408129721712,1.79101018466,13.3534863219,2.07928388592,0.0
1408129721712,1.29830565774,18.1770094312,2.38382200954,0.0
1408129721716,1.73284750823,19.7681906376,3.2241609454,0.0
1408129721739,3.13809627679,19.8893974566,3.27536120632,19.8893974566
1408129721739,4.93374012787,18.4507939355,2.31764324126,0.0
1408129721748,5.35137961116,15.2059333998,0.568931101275,0.0
1408129721775,4.82451483973,12.2369492382,-1.23764592804,0.0
1408129721777,4.11550182573,8.83982263361,-2.28082703866,0.0
1408129721777,3.68402268791,8.01858127564,-2.46591953113,0.0
1408129721815,3.87152912106,9.47867714197,-1.80658835741,0.0
1408129721815,2.7751878256,9.19519880068,-1.29155399948,0.0
1408129721817,1.05530856648,8.08337300294,-1.48756300672,0.0
1408129721817,-0.232762616041,6.78391159072,-1.91696514872,0.0
1408129721838,-1.5007038668,6.12076539865,-1.8768791782,0.0
1408129721838,-2.30733550831,6.05074411782,-1.64278916883,0.0
1408129721848,-3.20924540869,7.02850925466,-1.38216601145,0.0
1408129721872,-3.28782286099,7.81055460691,-0.955018701096,0.0
1408129721873,-2.55313170954,7.0134621117,-0.49144069162,0.0
1408129721877,-1.56279735051,5.92143273025,-0.105448525098,0.0
1408129721911,-1.09786753589,5.04400265255,0.196517613313,0.0
1408129721912,-0.748041875508,4.48950623898,0.0556012367915,0.0
1408129721914,-0.678468567493,4.08321455807,-0.218798497919,0.0
1408129721916,-0.763827056397,3.996697987,-0.465688815222,0.0
1408129721935,-0.714976413803,3.89893452465,-0.656281887873,0.0
1408129721952,-0.786735421079,3.81771293666,-0.88218510144,0.0
1408129721953,-0.84187272019,3.88051979656,-1.18987543082,0.0
1408129721957,-0.917301709741,4.21558878779,-1.59734466286,0.0
1408129721968,-0.978686087165,4.93321718345,-1.9681195738,0.0
1408129721983,-1.08747820464,5.82183822357,-2.21143391643,0.0
1408129722001,-1.17638001993,6.96868538993,-2.72423539552,0.0
1408129722002,-1.09665739041,8.12381040012,-3.31965338174,0.0
1408129722020,-1.25926249584,9.23488935273,-3.28413451645,0.0
1408129722020,-1.6142486147,10.0983054788,-2.82869545858,0.0
1408129722028,-1.54687452404,10.3800506942,-2.54663688133,0.0
1408129722051,-1.33481464879,10.8362631185,-1.97012316376,0.0
1408129722051,-0.755258772618,13.1801443097,-0.46888682416,0.0
1408129722072,-0.778646732231,16.4834248966,0.28389673631,0.0
1408129722072,-1.4209164108,19.7084298006,0.349390263691,19.7084298006
1408129722077,-1.43107747631,19.0575975127,1.51133493042,0.0
1408129722111,-2.42730137397,15.6586938056,0.869206503071,0.0
1408129722115,-3.36221491408,12.427766837,-1.61996024601,0.0
1408129722115,-2.44849753747,12.1686836391,-6.3774731516,0.0
1408129722117,0.629458856976,16.6211920746,-7.09144555611,0.0
1408129722138,3.12180048573,18.8949269707,0.640021367329,0.0
1408129722138,4.17193555473,15.7641708946,4.12841428097,0.0
1408129722149,4.46962010823,13.0131408749,2.77961182964,0.0
1408129722169,4.12845154432,10.7257563189,1.17069247262,0.0
1408129722170,3.87164636475,8.59972962989,0.202851081333,0.0
1408129722177,4.07854051827,8.4278562169,0.0109036605816,0.0
1408129722203,3.86148285351,9.1691040687,1.10607713761,0.0
1408129722203,3.21654116425,9.54138578032,2.85669912324,0.0
1408129722208,2.76707845849,9.2824289745,3.60565521942,0.0
1408129722217,2.75225716652,8.49084842004,3.86356738595,0.0
1408129722242,2.50065773213,8.13411092351,3.11486087172,0.0
1408129722243,1.52507152061,7.95233081078,1.69100233097,0.0
1408129722252,0.507091876304,7.84331545922,0.585020549925,0.0
1408129722289,-0.177429129475,7.96789390972,0.00134743120005,0.0
1408129722290,-0.471770348064,8.42983113651,-0.186423336282,0.0
1408129722291,-0.718224192319,8.58866862537,-0.322059406136,0.0
1408129722293,-0.712966025961,8.41994971691,-0.563593017827,0.0
1408129722297,-0.484811565676,8.11375544249,-0.828368816669,0.0
1408129722334,-0.266774057339,7.91787026945,-0.529332831411,0.0
1408129722335,0.0358209538024,7.68368186564,0.14032907316,0.0
1408129722335,0.17024651956,7.46773512952,0.778618009365,0.0
1408129722355,0.391385547385,7.27797303006,1.25159177698,0.0
1408129722356,0.537013544479,7.1647100588,1.42286761094,0.0
1408129722357,0.677321295227,7.26515113171,1.30416342415,0.0
1408129722380,0.565072714994,7.35900042074,1.07388171226,0.0
1408129722380,0.43740965774,7.49933356093,0.862614434897,0.0
1408129722398,0.406555851223,7.59110233526,0.745721087432,0.0
1408129722404,-0.082758533299,7.74557349647,0.743577946422,0.0
1408129722427,-0.666071097412,7.58548367779,0.844689933603,0.0
1408129722427,-0.957008374857,7.12916200373,1.13304112372,0.0
1408129722431,-1.27086248729,7.24924330133,0.644448726681,0.0
1408129722446,-1.67900525533,7.55556142029,0.361275408514,0.0
1408129722449,-2.18384722133,8.16085135554,0.389913775927,0.0
1408129722461,-2.43378088186,8.39796264949,0.223825921222,0.0
1408129722478,-2.51784690338,8.6220664753,-0.45104907481,0.0
1408129722478,-2.33029749762,8.75821870564,-0.766898963001,0.0
1408129722495,-1.75771332457,9.03388293185,-0.757572136516,0.0
1408129722497,-1.48141637325,8.8212953919,-0.6396706341,0.0
1408129722516,-1.53583625284,8.11063303079,-0.591034560012,0.0
1408129722536,-2.01106168174,7.53486696718,-0.476204493817,0.0
1408129722537,-2.54186567548,7.52474912521,-0.894617664255,0.0
1408129722538,-3.03468388591,8.0816585125,-1.5698969837,0.0
1408129722570,-3.02415559705,8.45065741623,-1.17413527629,0.0
1408129722571,-2.83276407458,8.63758632721,-0.27361380294,0.0
1408129722572,-2.67725843447,8.86952217306,0.994381390875,0.0
1408129722578,-3.18175160958,9.11644757384,1.39149519504,0.0
1408129722604,-3.93132044925,8.93618439199,0.858724895625,0.0
1408129722605,-3.54447504287,8.69331363729,0.096794770359,0.0
1408129722614,-2.29906554218,8.9286309213,0.263176100126,0.0
1408129722635,-1.39164084505,9.80593589977,1.14446795078,0.0
1408129722636,-1.23549256045,11.3036629652,0.329567161441,0.0
1408129722638,-0.840127203376,11.606924031,-0.297117355314,0.0
1408129722649,-0.455918937084,9.83664915888,0.632650578348,0.0
1408129722673,-0.273671696282,8.23964250201,0.312728126153,0.0
1408129722673,-0.0896797124428,7.42599288004,0.000864633586727,0.0
1408129722678,0.0573739058259,7.35046800066,0.493928280448,0.0
1408129722701,0.0973499591348,8.4124270242,0.643884845166,0.0
1408129722702,0.488780667444,10.9530379269,0.325331553054,0.0
1408129722710,0.50705877639,14.1126699104,0.919418874368,0.0
1408129722740,-0.0397573876008,16.8784685706,2.34555467488,0.0
1408129722743,-0.38307851709,18.2404301826,2.98265970531,18.2404301826
1408129722743,0.860391288258,17.9433845801,2.21245185058,0.0
1408129722778,2.52269942401,17.1008293145,1.04822754905,0.0
1408129722779,3.75452872483,15.9562330683,0.411695937452,0.0
1408129722779,4.50290110348,14.4079347145,-0.187074903205,0.0
1408129722780,5.04669522427,12.4311661091,-0.682101566651,0.0
1408129722804,5.11285864142,11.3602523756,-0.938432850789,0.0
1408129722805,5.25647266426,10.8793067202,-0.654271523893,0.0
1408129722809,4.34800760076,9.54138689552,-0.595741206447,0.0
1408129722845,2.67436848835,8.87526559341,-1.20505665546,0.0
1408129722846,1.62526150211,7.91099040301,-1.76653294899,0.0
1408129722848,0.315177234894,7.5553566766,-2.04242084837,0.0
1408129722881,-0.853745294034,7.8926328077,-1.95203089389,0.0
1408129722881,-1.69157083494,8.61313149056,-1.56834756073,0.0
1408129722883,-2.24432196569,9.32171081854,-1.18728843562,0.0
1408129722884,-1.91219490471,9.03321133464,-0.644763818059,0.0
1408129722906,-1.17797645111,7.99048320268,0.0592868473198,0.0
1408129722907,-0.795828386625,6.96495159424,0.567672690773,0.0
1408129722909,-0.48114293534,6.0334218551,0.643389263515,0.0
1408129722931,-0.256132631711,5.32509697973,0.23353345068,0.0
1408129722932,-0.0936076700371,5.12050329355,-0.379948213833,0.0
1408129722945,0.0475050084653,5.05968777857,-0.977735059889,0.0
1408129722948,-0.124797171864,5.08733870547,-1.4057095679,0.0
1408129722967,-0.335065824259,5.12118267969,-1.58290110734,0.0
1408129722972,-0.450726591463,5.15220824389,-1.5904312096,0.0
1408129722977,-0.572471422835,5.29366888622,-1.57048145999,0.0
1408129722995,-0.86336782593,5.69449657925,-1.65267947814,0.0
1408129722997,-1.25505809878,6.1254287206,-1.71134567552,0.0
1408129723015,-1.7903674685,6.88516870962,-1.92381075429,0.0
1408129723032,-2.34040624684,7.77101722179,-2.15857437554,0.0
1408129723058,-2.86896738039,8.4810527418,-2.44695452156,0.0
1408129723059,-3.06464304419,9.22470358203,-2.64779086874,0.0
1408129723059,-3.02288926483,9.99195570399,-2.60659872488,0.0
1408129723060,-3.03998027209,10.3848997852,-2.34484871358,0.0
1408129723086,-2.90592373468,10.3410751266,-1.82095623669,0.0
1408129723088,-2.43995528517,10.8366323819,-1.30269777451,0.0
1408129723090,-2.44392264606,12.8122976637,-1.07442282684,0.0
1408129723098,-2.50893913737,15.933900692,-0.164805800439,0.0
1408129723121,-2.39444276717,13.7265232563,0.714412499189,0.0
1408129723121,-1.87967891969,13.5722058186,-4.46735327375,0.0
1408129723129,0.60966836975,18.6954251697,-5.76210631418,0.0
1408129723152,3.36963338183,19.5574152245,1.81715788718,19.5574152245
1408129723152,5.62298524535,16.697500926,6.77144756206,0.0
1408129723158,5.995299764,13.0412942385,2.55671892496,0.0
1408129723194,6.22163647992,9.66444167084,-0.781433802902,0.0
1408129723195,5.9892318326,8.0733877522,-1.48572733256,0.0
1408129723196,6.16568048717,8.95442250954,-1.04561634515,0.0
1408129723198,5.95197146676,10.3882203823,0.312468832825,0.0
1408129723225,4.78492174983,11.2092540487,2.46863381796,0.0
1408129723226,4.45838507045,10.0486353237,4.80386442875,0.0
1408129723229,3.64253797513,8.94799898211,4.46874566727,0.0
1408129723244,1.63502525603,8.23770539127,2.38631832574,0.0
1408129723264,-0.262605139664,7.95605423591,0.950938064839,0.0
1408129723265,-1.3282770959,7.88894623106,0.433587830933,0.0
1408129723280,-1.38506316846,8.09705787846,0.434677998046,0.0
1408129723281,-1.1875114057,8.51810893393,0.264509103463,0.0
1408129723298,-0.745751186291,8.69015604003,0.0463377545269,0.0
1408129723299,-0.326986247285,8.48919317006,-0.316094697506,0.0
1408129723314,-0.250979184826,8.15707335955,-0.473854826255,0.0
1408129723329,-0.309727636783,7.62177017327,-0.0629647221191,0.0
1408129723358,0.0941989484956,6.75955272931,0.412312312361,0.0
1408129723358,0.552904696114,6.06265166462,0.397173920893,0.0
1408129723359,0.765021351575,6.05991568387,0.604223757954,0.0
1408129723359,0.889959794483,6.32220014338,1.20452372437,0.0
1408129723378,0.990243301556,6.6189698385,1.59305924199,0.0
1408129723379,0.873927997998,6.97438251914,1.74901715384,0.0
1408129723397,0.636723505706,7.82336402497,1.79504042569,0.0
1408129723398,-0.115574526745,8.73283404941,1.75325845481,0.0
1408129723414,-1.43826308391,9.20310272494,1.81736960431,0.0
1408129723431,-2.06288003812,9.19799141972,1.8613245426,0.0
1408129723431,-2.72622181153,8.97031636814,1.6563415574,0.0
1408129723444,-3.01877851702,8.34697401122,1.50194505325,0.0
1408129723463,-3.05691093034,7.97617839483,1.07725850864,0.0
1408129723463,-2.78680335929,7.6560866624,0.447233557531,0.0
1408129723481,-2.50125497983,7.68443607113,-0.0709020808124,0.0
1408129723482,-2.35132678998,7.71610547996,-0.675697048628,0.0
1408129723490,-1.9849301028,7.53467051614,-1.03754395618,0.0
1408129723531,-1.2932906004,7.84891664356,-1.33653001665,0.0
1408129723535,-1.15804869686,7.79002672736,-1.28032455642,0.0
1408129723536,-1.19595186922,7.02715103699,-0.941004857994,0.0
1408129723537,-1.44441113796,6.61245075831,-0.72305685351,0.0
1408129723568,-1.81223778649,7.24328143281,-1.02138736197,0.0
1408129723569,-2.26119465467,8.57226153301,-1.16077994124,0.0
1408129723569,-2.72687600931,9.93695091417,-0.417559810489,0.0
1408129723570,-3.37042516221,11.2952287705,0.790750899086,0.0
1408129723578,-4.08194141866,11.4445668559,1.61073414255,0.0
1408129723596,-4.49627124118,10.4143790602,1.2415854153,0.0
1408129723629,-4.3730145161,9.5016915519,-0.611115501148,0.0
1408129723630,-3.75262396872,9.47783027373,-1.49388797221,0.0
1408129723633,-3.27459965009,10.2243522324,-0.916825242471,0.0
1408129723653,-3.48342932813,11.0527278912,-1.18024809721,0.0
1408129723654,-2.73212234049,11.2458385553,-1.40787230087,0.0
1408129723655,-2.26710890337,10.2346859951,-0.530497051632,0.0
1408129723659,-2.27604096569,9.03689703645,-0.453648923989,0.0
1408129723683,-1.21732038634,8.38904523336,-0.30549511612,0.0
1408129723683,-0.0608645404457,7.97000288548,1.20570654681,0.0
1408129723693,0.506957325676,8.00408810059,2.70349734496,0.0
1408129723712,0.772297749361,8.79588860108,2.80348729678,0.0
1408129723715,1.22783438423,10.5176120458,2.08983265811,0.0
1408129723730,1.36009126081,13.0885644532,1.48601649644,0.0
1408129723731,0.951366704642,15.6758748385,1.91367349367,0.0
1408129723743,1.26523463437,17.47877979,2.93035066921,0.0
1408129723786,2.43952440403,18.0274771439,2.83662692969,18.0274771439
1408129723787,3.95968835059,17.0493472254,1.32274149929,0.0
1408129723787,4.48394433397,15.54982757,-0.514756932932,0.0
1408129723800,4.33457276171,13.6827935757,-1.30288575345,0.0
