time,acc_x,acc_y,acc_z,gravity_x,gravity_y,gravity_z
1408129704385,-0.786998467372,9.21361054433,-0.132141576262,-3.25295346215e-14,9.80665010959,-1.1990408666e-14,
1408129704386,-0.805828184023,8.69818510319,-0.122933725646,9.32587340685e-15,9.80665009012,-7.88258347484e-15,
1408129704392,-0.817125788291,8.49568214289,-0.115828516221,6.60582699652e-15,9.80665115904,1.66533453694e-15,
1408129704400,-0.860374744732,8.40100260918,-0.0142335116168,5.88418203051e-15,9.80665064819,-4.99600361081e-15,
1408129704422,-0.981174906771,8.35167895421,0.120471620026,1.65423230669e-14,9.80665019392,1.22124532709e-15,
1408129704423,-1.33661326975,8.46747417647,0.263283703615,-1.44328993201e-15,9.80665047314,7.77156117238e-16,
1408129704432,-1.93805146506,8.84514772838,0.277922631207,-1.18793863635e-14,9.80665109872,-9.10382880193e-15,
1408129704449,-2.43225632978,9.29379935789,0.260239840686,1.22124532709e-14,9.80665128455,-7.77156117238e-15,
1408129704471,-2.6398595006,9.61464325965,0.0155742280633,7.32747196253e-15,9.80664965162,8.881784197e-16,
1408129704472,-2.47893808245,9.7567058261,-0.407873138941,9.99200722163e-16,9.80665146872,-5.77315972805e-15,
1408129704474,-1.98745211745,9.61266816501,-0.752711351085,4.4408920985e-16,9.80665074623,-1.11022302463e-15,
1408129704480,-1.37491220024,9.37687990142,-1.11404137257,1.29896093881e-14,9.80665046488,5.99520433298e-15,
1408129704498,-0.932764416728,9.12996609956,-1.03280333187,-4.77395900589e-15,9.80665133014,9.99200722163e-15,
1408129704513,-0.7778369755,8.97517316009,-0.548844489767,1.11022302463e-15,9.80665063607,3.5527136788e-15,
1408129704513,-1.19893823575,8.80267904951,0.206781472062,5.3290705182e-15,9.80665013843,-5.3290705182e-15,
1408129704527,-2.52343353048,8.48904106639,0.865203896683,-5.55111512313e-15,9.80665219761,6.43929354283e-15,
1408129704547,-3.43215584304,8.20557038877,0.807198078052,3.77475828373e-15,9.80665051807,4.66293670343e-15,
1408129704548,-3.55478610205,8.42860122207,0.329143096149,7.77156117238e-15,9.80664967177,2.44249065418e-15,
1408129704562,-2.93954690199,8.84605824574,0.0459219134853,3.99680288865e-15,9.8066509381,1.55431223448e-15,
1408129704563,-2.00329348975,9.25174948518,0.087561609192,-2.88657986403e-15,9.80664989107,-4.4408920985e-16,
1408129704577,-1.40084538958,9.95855193113,0.11483700661,-4.4408920985e-15,9.80665129376,4.66293670343e-15,
1408129704580,-0.728906960697,10.4820934674,-0.0239774369427,-1.11022302463e-15,9.80665040626,-1.55431223448e-15,
1408129704598,0.314677602192,10.4961294962,0.231013305741,-3.33066907388e-15,9.80664981633,-4.4408920985e-16,
1408129704613,0.808069787041,10.0567736844,1.07809096445,-5.55111512313e-15,9.80664928405,2.44249065418e-15,
1408129704614,0.679915129504,9.78179297996,0.910746309865,-7.1054273576e-15,9.80665155021,8.65973959208e-15,
1408129704633,1.19066887036,9.76253095384,0.440054407073,1.7763568394e-15,9.80665121615,-8.881784197e-16,
1408129704634,1.76781086191,9.39709022693,0.928021830591,9.10382880193e-15,9.80664930557,-8.65973959208e-15,
1408129704640,2.67119419997,8.60735948282,1.55850154333,-8.881784197e-15,9.80665171982,8.43769498715e-15,
1408129704673,3.49066014198,8.37171857972,2.03018937514,2.6645352591e-15,9.80665006912,-4.88498130835e-15,
1408129704674,3.7171630564,9.10699389516,2.21279260919,-1.33226762955e-15,9.80665222316,5.55111512313e-15,
1408129704675,3.59591133249,11.2618269362,2.05090972035,1.68753899743e-14,9.80665105163,2.99760216649e-15,
1408129704680,3.6237082138,14.6451490386,1.9981964728,5.21804821574e-15,9.80665008921,1.22124532709e-15,
1408129704705,3.51740814551,18.2298791661,2.21643753807,-8.54871728961e-15,9.80665115659,9.99200722163e-16,
1408129704705,3.20472662661,19.7179733698,2.28795841165,-1.88737914186e-14,9.80664949485,-1.11022302463e-16,
1408129704712,3.28584871618,18.1735235488,1.42049428416,-9.88098491916e-15,9.80664957327,8.65973959208e-15,
1408129704729,2.97682067045,15.4523396859,-0.0216712850608,1.3433698598e-14,9.80665011611,-7.21644966006e-15,
1408129704732,2.62530007507,12.4299985401,-1.322597748,-9.32587340685e-15,9.8066499625,7.32747196253e-15,
1408129704751,2.60238139575,10.6056933289,-2.17799386136,-3.33066907388e-15,9.80665100887,-1.09912079438e-14,
1408129704752,2.6977688625,10.3212493882,-2.0883343631,1.44328993201e-15,9.80664986914,-1.11022302463e-15,
1408129704760,2.70537084779,10.2935544454,-1.64623975235,-1.02140518266e-14,9.80664992738,0.0,
1408129704786,2.06854486872,9.81019293187,-1.28928241723,9.82547376793e-15,9.80665107557,-2.44249065418e-15,
1408129704787,1.2670695723,8.40377296096,-1.49297517124,-2.411959521e-14,9.80664912998,4.66293670343e-15,
1408129704792,0.204493847781,7.90615501613,-2.02863219092,-4.70595784563e-14,9.80664967888,-8.881784197e-16,
1408129704822,-0.626596779602,7.97872491911,-1.97953138517,-2.28692065285e-13,9.80664982472,3.5527136788e-15,
1408129704822,-1.03046421323,7.99867886727,-1.52355838847,1.55431223448e-14,9.80665127434,-6.66133814775e-16,
1408129704823,-1.24656409939,8.19959246568,-0.83011348405,-1.22679644221e-14,9.80665015012,6.66133814775e-15,
1408129704846,-1.43345714889,8.47426329259,-0.164615387249,5.44009282066e-15,9.80664977087,4.88498130835e-15,
1408129704847,-1.59437880877,8.31568003857,0.106633708568,1.59872115546e-14,9.80664996467,-8.881784197e-16,
1408129704867,-1.43072796992,8.09244197908,0.0507123069875,4.99600361081e-15,9.80665025238,7.32747196253e-15,
1408129704867,-0.937978055033,7.17015297917,-0.0212146566299,-1.04360964315e-14,9.80665154116,3.33066907388e-15,
1408129704872,-0.465243310843,6.11427256853,-0.195412548148,-7.32747196253e-15,9.80665085926,6.2172489379e-15,
1408129704880,-0.338085228141,5.59552213035,-0.491855365197,1.01030295241e-14,9.80665090115,3.99680288865e-15,
1408129704901,-0.39607927749,5.3206020668,-0.695182317814,-2.88657986403e-15,9.80664998264,6.2172489379e-15,
1408129704902,-0.426716112381,5.13968484134,-0.89576089147,-4.4408920985e-15,9.80664989818,3.77475828373e-15,
1408129704912,-0.258309805286,5.0032953889,-1.06120117176,2.88657986403e-15,9.80665141681,6.66133814775e-15,
1408129704937,-0.0593501694474,5.12293986132,-1.11028559447,4.88498130835e-15,9.80665152351,8.881784197e-16,
1408129704937,0.0804994667522,5.3204886224,-0.970314233555,-1.02140518266e-14,9.80665069648,-3.5527136788e-15,
1408129704941,0.176952672845,5.4883153152,-0.694248611949,-8.65973959208e-15,9.80664915799,1.55431223448e-15,
1408129704971,0.17135214103,5.72549589395,-0.541728752435,-3.77475828373e-15,9.80664960794,3.33066907388e-15,
1408129704972,0.0370308969872,6.11334877517,-0.498431457558,-7.9936057773e-15,9.80664898183,8.881784197e-16,
1408129704973,-0.134830813641,6.54652146372,-0.769011870969,3.10862446895e-15,9.80665051184,-1.99840144433e-15,
1408129704980,-0.41619091993,6.95584019194,-1.09282253129,-1.42108547152e-14,9.80665134737,2.22044604925e-16,
1408129704999,-0.79184603435,7.42372837088,-1.31569328254,-5.77315972805e-15,9.80665046839,1.02140518266e-14,
1408129705000,-1.18283840559,8.12807413916,-1.41426497321,-7.54951656745e-15,9.80664914615,6.66133814775e-16,
1408129705013,-1.45697723001,8.99357020805,-1.45264887587,-1.50990331349e-14,9.80664964501,-2.44249065418e-15,
1408129705035,-1.45967393868,9.72117904139,-1.46217365359,1.33226762955e-15,9.80665183142,-3.5527136788e-15,
1408129705036,-1.18650611559,10.1846162884,-1.5372164134,-9.88098491916e-15,9.80665091454,-2.22044604925e-15,
1408129705040,-0.780869578474,10.2271694204,-1.72191538923,-7.77156117238e-15,9.80665009754,5.3290705182e-15,
1408129705071,-0.0877647084381,10.4849129975,-1.78502706178,-9.99200722163e-15,9.80665008438,3.5527136788e-15,
1408129705071,1.05336201355,12.0420593239,-0.995521972072,1.11022302463e-15,9.80664972036,8.43769498715e-15,
1408129705072,1.40683390036,14.1427930385,0.14894279925,8.32667268469e-15,9.8066507443,4.4408920985e-16,
1408129705080,0.557266311058,15.9785390796,1.29872352537,2.99760216649e-15,9.80664960866,-3.77475828373e-15,
1408129705098,-0.904613105519,14.5700111051,1.93874503785,3.66373598126e-15,9.80664986238,-1.33226762955e-15,
1408129705100,-2.92467354826,12.1476899624,1.47456309712,4.4408920985e-16,9.80665137465,3.77475828373e-15,
1408129705112,-4.6584373387,10.5942160194,-0.270039821205,1.18793863635e-14,9.80665098775,-3.10862446895e-15,
1408129705144,-5.14790860006,10.4234942076,-3.67666992892,3.77475828373e-15,9.80664936752,-8.881784197e-16,
1408129705145,-3.44016979065,13.895841932,-6.72633250397,6.66133814775e-16,9.80664873612,6.88338275268e-15,
1408129705146,-1.55332739582,18.9667170552,-3.36819818551,8.881784197e-16,9.80665114046,4.88498130835e-15,
1408129705173,0.533739607546,17.5746062146,0.998736844923,5.3290705182e-15,9.8066513215,-1.99840144433e-15,
1408129705174,3.13148024362,14.5144199273,2.26449682133,-2.44249065418e-15,9.8066513255,2.44249065418e-15,
1408129705174,4.99068557926,13.1394567596,1.26866763849,-2.44249065418e-15,9.80665078453,-2.22044604925e-15,
1408129705206,5.4523699457,11.9627036168,0.058090412992,2.6645352591e-15,9.80665065061,4.66293670343e-15,
1408129705206,5.69073179723,11.4286100698,0.330549383739,-3.77475828373e-15,9.80665036242,0.0,
1408129705207,5.62330568234,10.8051556817,2.03824709482,-5.77315972805e-15,9.80665026075,4.4408920985e-15,
1408129705213,5.21030578737,9.1660339302,2.86362887973,-9.32587340685e-15,9.80665197958,2.6645352591e-15,
1408129705233,4.72035001237,7.83960859012,2.0740382069,9.7699626167e-15,9.80664928448,-1.33226762955e-15,
1408129705234,3.95322788217,7.59482356621,1.35156069283,-6.66133814775e-15,9.80665120932,-3.5527136788e-15,
1408129705241,3.01897197021,7.89426485001,1.71617809017,1.02140518266e-14,9.80665042411,2.6645352591e-15,
1408129705268,2.32004808013,8.09871126375,1.59671276902,-5.55111512313e-16,9.8066500601,-8.881784197e-16,
1408129705269,1.4333304521,7.90304548588,0.586338631592,-8.21565038223e-15,9.80665097861,8.881784197e-16,
1408129705273,0.726707785405,7.50210489972,0.0117851973455,-1.37667655054e-14,9.80664980794,0.0,
1408129705336,0.399232355536,7.39422638489,0.127088656671,3.33066907388e-15,9.80665067213,2.22044604925e-15,
1408129705337,0.30959668903,7.81169035538,0.224262745561,3.88578058619e-15,9.80665009406,-3.10862446895e-15,
1408129705339,0.383004963772,8.28005944646,0.198746259705,1.3211653993e-14,9.80664953627,1.7763568394e-15,
1408129705340,0.491078699832,8.49274154416,0.210536708971,2.25375273999e-14,9.80664902005,-1.33226762955e-15,
1408129705341,0.72099222501,8.49078400093,0.538224401798,2.07056594093e-14,9.8066516807,-1.33226762955e-15,
1408129705343,0.973376541468,8.35611005105,1.05451558114,-3.82471831983e-14,9.80665032397,0.0,
1408129705344,1.36465266397,8.35532032973,1.46749058173,-5.87030424271e-14,9.80664952255,2.88657986403e-15,
1408129705373,1.50515214315,8.64369580441,1.60743909874,-5.15143483426e-14,9.80665003828,-3.5527136788e-15,
1408129705374,1.61912307217,8.67008565908,1.69272772309,1.12799006247e-12,9.80664970339,-2.44249065418e-15,
1408129705375,1.72254492963,8.56838324821,1.78268279328,3.63736818443e-14,9.80665112264,-2.6645352591e-15,
1408129705415,1.77756990214,8.64721282466,1.73710842857,-6.13398221105e-15,9.80665241159,1.55431223448e-15,
1408129705416,1.63046579821,8.74337951175,1.4256882344,4.13280520917e-14,9.80665059599,-6.43929354283e-15,
1408129705417,1.31802787677,8.42516115463,0.964458538736,2.78943534937e-14,9.80664970425,-1.33226762955e-15,
1408129705417,0.973017737309,8.11923435491,0.726058009721,2.53408405371e-14,9.80665065296,-2.6645352591e-15,
1408129705422,0.545957579519,7.96756093416,0.72891817292,3.95239396767e-14,9.80665054378,-1.7763568394e-15,
1408129705435,0.322656092618,8.09336943973,0.97813663978,-2.67008637422e-14,9.80665209333,-3.10862446895e-15,
1408129705442,-0.0663745349364,8.25747961919,1.10478955924,1.65423230669e-14,9.80665154814,-1.13242748512e-14,
1408129705465,-0.447048989185,8.23053259812,1.08313421138,8.99280649946e-15,9.80664997365,-5.99520433298e-15,
1408129705466,-0.980464189323,8.29870872716,1.0306677085,1.51545442861e-14,9.80665022716,9.10382880193e-15,
1408129705489,-1.61844432158,8.13356606406,0.70767184491,-3.10862446895e-15,9.80665177895,-5.3290705182e-15,
1408129705490,-2.28918514612,7.71930010851,0.178618731273,4.88498130835e-15,9.80665020977,4.4408920985e-16,
1408129705533,-2.69638918093,7.42206970618,-0.364554990004,-1.88737914186e-15,9.80664938982,-4.4408920985e-15,
1408129705534,-2.70025915062,7.15876932008,-0.579180238356,1.55431223448e-15,9.80664877961,-4.66293670343e-15,
1408129705535,-2.64312901627,7.39130810437,-0.725998497548,-8.21565038223e-15,9.80665012639,7.9936057773e-15,
1408129705536,-2.39391711688,7.72995811222,-0.841158710554,-4.99600361081e-15,9.80664952019,7.32747196253e-15,
1408129705537,-2.00065425828,8.14703787397,-0.779332274532,-9.99200722163e-15,9.80665153503,1.06581410364e-14,
1408129705542,-1.66880399706,8.46953970661,-0.635797274313,5.55111512313e-15,9.80664968353,-2.6645352591e-15,
1408129705589,-1.48277710508,8.20437125819,-0.365435452342,-4.66293670343e-15,9.80665107512,5.3290705182e-15,
1408129705591,-1.57307940293,8.17985587756,-0.11596162686,-2.88657986403e-15,9.80665110082,6.66133814775e-16,
1408129705592,-1.52337918977,8.354005929,-0.205446942648,6.88338275268e-15,9.80665112134,-1.7763568394e-15,
1408129705594,-1.47713055062,8.49006376074,-0.474326626599,-1.99840144433e-15,9.80665099622,1.11022302463e-15,
1408129705595,-1.56390878215,8.7632603152,-0.311794389341,5.3290705182e-15,9.80664974311,8.881784197e-16,
1408129705639,-1.5322187939,9.29330337015,0.0860154394025,3.77475828373e-15,9.80665030012,2.44249065418e-15,
1408129705640,-1.69245811253,9.85415732886,0.814591198858,7.32747196253e-15,9.80665009734,2.6645352591e-15,
1408129705642,-2.3628531047,9.91643014308,1.41483593762,4.4408920985e-15,9.80665028945,1.04360964315e-14,
1408129705643,-3.35687032768,9.81368318327,1.253057704,2.44249065418e-15,9.80665165699,5.99520433298e-15,
1408129705645,-3.67788426905,9.9361706593,0.445562742584,-8.21565038223e-15,9.80665188737,2.44249065418e-15,
1408129705676,-3.15153140255,10.1913153589,-0.289643116016,-1.04360964315e-14,9.80665093938,2.22044604925e-16,
1408129705677,-2.37194476237,10.4260185132,-0.567042219399,-2.6645352591e-15,9.80665061266,2.44249065418e-15,
1408129705678,-1.7960341977,10.5282694593,-0.199074230112,2.22044604925e-15,9.80665086272,-1.11022302463e-15,
1408129705703,-1.53900318932,10.8199322518,-0.32480618656,1.13242748512e-14,9.80665051184,2.88657986403e-15,
1408129705704,-1.26042998258,10.8134635763,-0.212946695554,-2.88657986403e-15,9.80665045573,-2.88657986403e-15,
1408129705704,-0.874045653958,9.93705314736,0.350926131458,8.881784197e-16,9.80665163128,4.4408920985e-15,
1408129705714,-0.369767838706,10.0937204153,0.236252371432,5.3290705182e-15,9.80664966333,7.54951656745e-15,
1408129705732,0.250051124263,9.99495365743,1.16961315125,3.5527136788e-15,9.80664887372,-1.11022302463e-15,
1408129705735,1.10467477483,8.93301768079,1.92671216624,-4.21884749358e-15,9.8066505838,1.11022302463e-15,
1408129705742,2.26985677123,7.76565743309,2.14945111782,-2.22044604925e-16,9.80665009309,6.66133814775e-15,
1408129705760,3.01933823177,7.87762816474,2.38722706113,6.43929354283e-15,9.80665017937,-2.88657986403e-15,
1408129705764,3.18727669063,8.90057679587,2.33203450051,-3.10862446895e-15,9.80665048796,-6.66133814775e-16,
1408129705781,3.13884109266,11.5576058757,1.75071666819,9.54791801178e-15,9.80664955886,-1.05471187339e-14,
1408129705782,3.14968263871,15.7651942012,1.04297715874,3.77475828373e-15,9.80665045772,2.55351295664e-15,
1408129705794,2.57012372352,19.6229957653,1.12172607601,-1.47659662275e-14,9.80665133198,1.3433698598e-14,
1408129705816,2.46071311754,19.8352066685,1.44398300312,-1.04360964315e-14,9.80664959692,1.11022302463e-14,
1408129705817,2.84616488313,18.4785369124,0.674054560954,2.22044604925e-16,9.80665016286,-4.88498130835e-15,
1408129705822,2.45003428209,15.31998657,-0.764679610411,7.32747196253e-15,9.80665067634,-1.75415237891e-14,
1408129705847,2.23189584585,12.1938757239,-1.88683997514,2.975397706e-14,9.80665145561,-1.02140518266e-14,
1408129705848,2.11285876511,9.91068888045,-2.33543559311,1.29340982369e-14,9.80664999804,-2.33146835171e-15,
1408129705856,2.43123462591,10.0031226872,-1.77888550013,-5.82867087928e-15,9.8066495164,3.10862446895e-15,
1408129705862,2.92647351507,10.2752019558,-0.76140465018,1.31006316906e-14,9.80665125643,6.66133814775e-15,
1408129705884,2.32744015852,9.79834269638,-0.470644316638,-8.77076189454e-15,9.806649932,-1.33226762955e-15,
1408129705885,1.3162525691,8.32203061378,-1.14971804916,-4.60464999463e-14,9.80665033744,3.77475828373e-15,
1408129705893,0.493262765393,7.18480211497,-1.58072728223,4.1952552543e-14,9.80664990772,-8.881784197e-16,
1408129705917,-0.378215248872,6.74523364639,-1.5077668438,-1.45924938799e-13,9.80665122139,0.0,
1408129705918,-1.03824735788,7.35062941021,-1.13980604248,-2.24820162487e-15,9.80664973152,1.55431223448e-15,
1408129705922,-1.76274797414,8.32121781076,-0.582084907511,-3.60822483003e-14,9.80664893841,1.99840144433e-15,
1408129705946,-2.11550880346,8.38674145005,0.152412626582,-6.88338275268e-15,9.80665093294,-1.11022302463e-15,
1408129705947,-1.73056566159,7.42991130024,0.462953249522,1.13242748512e-14,9.80664985967,-3.10862446895e-15,
1408129705953,-1.03638666401,6.18496395112,0.281914010046,1.09912079438e-14,9.8066513733,3.5527136788e-15,
1408129705962,-0.556492271176,5.29005557379,-0.169224388182,-1.13242748512e-14,9.80665106871,-8.43769498715e-15,
1408129705981,-0.323498539054,4.79413840374,-0.540407583143,5.77315972805e-15,9.80664937432,-7.1054273576e-15,
1408129705982,-0.211430706786,4.60192758389,-0.798289109072,3.10862446895e-15,9.80665163242,-1.33226762955e-15,
1408129705993,-0.0108893498336,4.39450427083,-0.989462749454,3.5527136788e-15,9.80665025689,4.4408920985e-16,
1408129706016,0.0985271620613,4.37120794882,-1.14618847765,3.99680288865e-15,9.8066522099,4.88498130835e-15,
1408129706017,0.100207853092,4.61834402134,-1.27551378121,1.1768364061e-14,9.80665166722,1.55431223448e-15,
1408129706022,0.137269355651,4.78885513804,-1.27862996722,8.881784197e-15,9.80664997806,2.22044604925e-16,
1408129706052,0.108843604976,4.92537749264,-1.23161096345,-5.99520433298e-15,9.80665002339,4.66293670343e-15,
1408129706053,0.0377970036391,5.23896523433,-1.19881004173,-3.77475828373e-15,9.80665038171,1.7763568394e-15,
1408129706054,-0.120215431785,5.73334973458,-1.24897756068,-3.77475828373e-15,9.80665151392,4.4408920985e-15,
1408129706080,-0.467830927991,6.48229166112,-1.3222617889,-9.7699626167e-15,9.80665075684,3.99680288865e-15,
1408129706082,-0.953936399708,7.36709512087,-1.29272500805,1.11022302463e-14,9.8066511012,7.1054273576e-15,
1408129706082,-1.44569739624,8.19408120925,-1.21317315883,-5.77315972805e-15,9.80664920234,3.10862446895e-15,
1408129706094,-1.7910313462,9.13488998986,-1.38653191484,1.22124532709e-14,9.8066517349,2.22044604925e-15,
1408129706117,-1.99645929284,10.1263829003,-1.75827000223,-4.4408920985e-16,9.80665019581,8.43769498715e-15,
1408129706118,-2.06206591151,11.0881548145,-1.8503109115,8.881784197e-16,9.80665039881,7.9936057773e-15,
1408129706122,-1.84452363508,11.3569299168,-1.63525887802,-5.66213742559e-15,9.80665090737,-2.22044604925e-15,
1408129706143,-1.36004330127,10.8991776712,-1.57248995887,-6.66133814775e-16,9.80665022552,5.77315972805e-15,
1408129706143,-0.418891660756,11.3847271178,-1.3223377021,6.66133814775e-15,9.8066517855,-1.55431223448e-15,
1408129706157,0.782698823809,13.2028612325,-0.848597285679,4.32986979604e-15,9.8066502151,2.44249065418e-15,
1408129706197,0.973439355709,15.4927650405,-0.28610041312,-5.99520433298e-15,9.80665146387,-1.7763568394e-15,
1408129706198,0.450071807792,16.5538336604,1.00104653595,2.44249065418e-15,9.80664874749,9.32587340685e-15,
1408129706199,-1.2759193006,14.1357062693,1.57745051449,-1.55431223448e-14,9.80665144001,2.44249065418e-15,
1408129706199,-3.27691852867,11.9909099978,0.156261269818,1.75415237891e-14,9.80664948476,-2.6645352591e-15,
1408129706202,-4.29779161174,11.1645154019,-2.95660752065,2.44249065418e-15,9.80665046304,2.44249065418e-15,
1408129706242,-3.09992442606,13.4078494571,-6.88751957875,-5.99520433298e-15,9.8066493261,-4.88498130835e-15,
1408129706243,-0.969914205573,18.3780201432,-4.91660673569,8.43769498715e-15,9.80664969417,-3.5527136788e-15,
1408129706243,1.56241845428,18.0017225914,0.628028821165,8.21565038223e-15,9.80664918667,-3.99680288865e-15,
1408129706244,4.20835703401,15.398778167,2.27110654462,7.1054273576e-15,9.80665070522,5.77315972805e-15,
1408129706266,5.00323477144,13.8191444429,2.78789511541,3.10862446895e-15,9.80664960969,3.99680288865e-15,
1408129706266,4.54380745755,11.4077282079,2.58951842753,-5.55111512313e-15,9.80665057795,2.6645352591e-15,
1408129706275,4.25580737602,8.89217167794,1.02306092129,-6.66133814775e-16,9.80665005151,2.22044604925e-15,
1408129706310,4.2506122972,8.55347125125,0.145420200764,-1.33226762955e-15,9.80665065671,-3.5527136788e-15,
1408129706313,3.98389928212,8.28176442135,0.721753012867,-3.77475828373e-15,9.80665022377,-3.5527136788e-15,
1408129706313,3.60274538878,7.57701426104,1.20095326188,7.1054273576e-15,9.80665028058,1.7763568394e-15,
1408129706332,3.34109489324,7.67296625935,1.25279727515,-5.44009282066e-15,9.80665043417,-4.88498130835e-15,
1408129706332,3.01977798067,8.01070696695,1.85516143661,-1.31006316906e-14,9.80665089526,-1.7763568394e-15,
1408129706334,2.48562157631,8.50408037303,2.50991631984,1.11022302463e-15,9.80664981747,3.99680288865e-15,
1408129706342,1.688677566,9.05576217827,2.43490893587,9.65894031424e-15,9.80665110965,-4.4408920985e-16,
1408129706359,0.619676727562,9.14794165713,1.79302448252,6.43929354283e-15,9.80664985637,2.6645352591e-15,
1408129706375,-0.257439859931,9.2515225625,1.44606179888,1.18793863635e-14,9.80665122299,-2.6645352591e-15,
1408129706376,-0.663723642193,9.43389090817,1.55400550421,-2.16493489802e-14,9.80665021553,6.2172489379e-15,
1408129706391,-0.442262141963,9.20246213187,1.65895387513,-1.31006316906e-14,9.80664981995,-1.33226762955e-15,
1408129706406,-0.18673371008,8.80705442499,0.924806713576,1.06581410364e-14,9.80664992034,4.4408920985e-15,
1408129706407,0.175658802997,8.4706658774,0.362389326921,7.54951656745e-15,9.80664997291,4.66293670343e-15,
1408129706421,0.426638625002,8.18297313546,-0.0647512508747,-1.15463194561e-14,9.80664981066,5.55111512313e-15,
1408129706422,0.747763111583,7.99921651643,-0.17076238272,-6.10622663544e-15,9.80665045104,5.3290705182e-15,
1408129706437,1.24521530207,7.80217991326,0.205305005508,-3.88578058619e-14,9.80664973677,-2.22044604925e-15,
1408129706442,1.66182242513,7.68607239361,0.63861478788,2.88657986403e-15,9.80664944614,-6.2172489379e-15,
1408129706455,2.09275826125,7.45079739517,0.872318805266,2.70450328799e-13,9.80665018153,-8.881784197e-16,
1408129706477,2.22717834852,7.217699996,1.15264041684,8.86166140468e-14,9.80664957633,3.10862446895e-15,
1408129706478,1.92760475366,7.15789591117,1.11349905959,-4.21329637845e-14,9.80664966316,-8.881784197e-16,
1408129706494,1.80556282867,7.3725573471,0.872223542311,1.13242748512e-14,9.80665137162,-2.44249065418e-15,
1408129706495,1.78452789643,7.44891882924,0.734060335325,-1.05471187339e-14,9.80665146029,1.55431223448e-15,
1408129706502,1.81015294735,7.38279470725,0.855162282234,1.28785870857e-14,9.80665080037,3.10862446895e-15,
1408129706525,1.02954972783,7.51700400481,1.16610887003,6.10622663544e-15,9.80665131979,-2.22044604925e-15,
1408129706526,0.311507510194,7.73428531494,1.3480823621,-5.16253706451e-15,9.80665043589,1.55431223448e-15,
1408129706545,-0.052673908411,7.89206828085,1.4105384445,8.93729534823e-15,9.80665033421,-4.4408920985e-15,
1408129706545,-0.666529584703,8.47230745014,1.3666392899,8.99280649946e-15,9.80665030406,9.32587340685e-15,
1408129706553,-1.41103588551,8.30649958873,1.13699980935,-8.10462807976e-15,9.80664998503,2.6645352591e-15,
1408129706577,-2.23042829158,8.37743703345,0.574268255459,-1.3211653993e-14,9.80665083817,-2.22044604925e-16,
1408129706596,-2.6186422296,8.37380199105,-0.13287641536,-5.10702591328e-15,9.80665038818,1.15463194561e-14,
1408129706597,-2.57891549425,8.1660409398,-0.411160572301,-1.11022302463e-16,9.80665053676,6.88338275268e-15,
1408129706597,-2.36443132511,8.45514339521,-0.421721115859,-4.10782519111e-15,9.80665072977,-4.21884749358e-15,
1408129706602,-1.90712585023,8.9363723322,-0.461181235393,1.36557432029e-14,9.80664952613,6.43929354283e-15,
1408129706627,-1.58031877821,8.93214400018,-0.437083658144,7.1054273576e-15,9.80664935438,-6.2172489379e-15,
1408129706628,-1.57533875997,8.69063302864,-0.30053760564,1.33226762955e-15,9.80664984354,6.43929354283e-15,
1408129706635,-1.95811318849,8.37996154286,-0.226449167802,1.1768364061e-14,9.80664965607,-7.32747196253e-15,
1408129706642,-2.40248811609,8.27881168073,-0.246915970272,4.4408920985e-15,9.80664978052,-5.3290705182e-15,
1408129706654,-2.74377016365,8.29742102133,-0.296408078147,6.66133814775e-15,9.80665058917,8.881784197e-16,
1408129706677,-2.90993084502,8.36284069831,-0.421824941174,5.10702591328e-15,9.80665006656,0.0,
1408129706678,-2.84631299321,8.62152828207,-0.852710649626,0.0,9.80665014275,-1.11022302463e-15,
1408129706682,-2.27216997547,9.10873981614,-0.961207217601,3.99680288865e-15,9.80665143711,1.04360964315e-14,
1408129706713,-1.97812072217,9.17535175479,-0.383242135187,9.99200722163e-15,9.80665114292,5.55111512313e-15,
1408129706714,-2.06580960345,8.83514102613,0.429143706561,-1.7763568394e-15,9.80664901167,-4.4408920985e-16,
1408129706714,-2.79021428639,8.52082138146,0.589938470976,1.26565424807e-14,9.80664986634,-4.4408920985e-15,
1408129706723,-3.58969741169,8.7255245814,0.0272530003342,2.44249065418e-15,9.80665075233,-4.4408920985e-15,
1408129706746,-3.80176533378,9.40645859533,-0.445268303923,1.55431223448e-15,9.80664994624,-1.11022302463e-15,
1408129706747,-3.50527970808,9.98361840865,-0.522832719857,3.33066907388e-15,9.8066505684,6.88338275268e-15,
1408129706757,-3.12356204257,10.2366513203,-0.136098055264,0.0,9.80665094609,-8.21565038223e-15,
1408129706778,-2.75980530387,10.4436337827,0.180135600165,-1.7763568394e-15,9.80665136571,5.10702591328e-15,
1408129706779,-2.48155115344,10.8315817549,0.35910100333,4.4408920985e-16,9.80664971528,-1.99840144433e-15,
1408129706782,-2.07507745066,11.1721300881,-0.036447874191,6.88338275268e-15,9.8066512531,-2.22044604925e-15,
1408129706811,-1.15911463118,10.6400576278,0.184424851304,6.88338275268e-15,9.80664991048,-4.88498130835e-15,
1408129706812,-0.249435730574,9.81322389686,0.937835763338,-3.77475828373e-15,9.80665002122,-8.65973959208e-15,
1408129706815,0.0771963829557,9.72704994391,0.628396723001,5.55111512313e-15,9.80665075949,0.0,
1408129706822,0.49480163244,9.76653880877,0.697617638168,4.66293670343e-15,9.80665114421,2.22044604925e-16,
1408129706843,1.64352744419,8.79285159536,1.43722449773,1.11022302463e-15,9.80665016142,-3.33066907388e-15,
1408129706843,2.94378727313,8.09763511172,2.13665104478,5.55111512313e-15,9.80665008386,-4.88498130835e-15,
1408129706861,3.79834028594,8.30054881998,2.50132878971,8.881784197e-16,9.80665091332,1.11022302463e-15,
1408129706862,4.14224425009,9.64570034775,2.42081290694,2.88657986403e-15,9.80665002403,-9.88098491916e-15,
1408129706874,4.10598994012,12.379734586,1.95738249446,4.4408920985e-15,9.80665123663,9.54791801178e-15,
1408129706893,3.59624546438,16.3072433897,1.74171246203,2.22044604925e-16,9.80665021328,-4.99600361081e-15,
1408129706894,2.76532107993,19.5824523324,2.34541825388,3.10862446895e-15,9.80665070803,-8.99280649946e-15,
1408129706902,2.60979147594,19.8604923187,2.38375767411,1.12132525487e-14,9.80665061136,-1.66533453694e-15,
1408129706931,2.68069238484,19.3331354889,1.32649459814,1.40998324127e-14,9.80665048851,-1.38777878078e-14,
1408129706931,2.60800804473,16.5536731073,-0.34728718656,6.66133814775e-15,9.80665063239,1.85407245112e-14,
1408129706937,2.6084368282,13.3525502781,-1.84905670289,-1.02140518266e-14,9.80665142327,4.99600361081e-15,
1408129706942,2.36367408887,10.7023792941,-2.74034405571,1.22124532709e-14,9.8066512134,1.08801856413e-14,
1408129706966,2.64917367298,9.8787956118,-2.24038487254,1.18793863635e-14,9.80665080544,5.99520433298e-15,
1408129706967,3.36188820938,9.74328927588,-1.23914967288,1.22124532709e-14,9.80665071465,5.99520433298e-15,
1408129706974,2.53538632363,9.62617195832,-0.740793090296,1.848521336e-14,9.80664983568,-1.08801856413e-14,
1408129706995,1.57304263448,8.54861594573,-1.26012092474,3.46944695195e-14,9.80665114629,-8.881784197e-16,
1408129706996,0.608675350713,7.26267135799,-1.71691107752,-5.13478148889e-15,9.80665087099,-5.3290705182e-15,
1408129707002,-0.251796578703,6.81353298931,-1.81904654026,-3.25434124093e-14,9.80665009382,6.66133814775e-16,
1408129707027,-1.03075329887,7.5925250147,-1.52228747474,5.89667203954e-14,9.80664912261,-2.22044604925e-15,
1408129707028,-1.54819714387,8.08525494278,-0.837941460713,1.21569421196e-14,9.80665010226,9.54791801178e-15,
1408129707034,-1.94989349308,8.08525345874,-0.265201967793,1.83186799063e-14,9.80665083197,-1.7763568394e-15,
1408129707062,-1.99160735676,7.86362461481,-0.135034986426,-1.16573417586e-14,9.80665067459,2.88657986403e-15,
1408129707063,-1.60549135971,6.93458946416,-0.0875240891763,7.9936057773e-15,9.80665140902,-3.10862446895e-15,
1408129707063,-1.04936021697,6.18842949799,-0.25047841154,-8.21565038223e-15,9.80665004836,8.43769498715e-15,
1408129707074,-0.211024828922,5.41215631265,-0.364979902295,4.66293670343e-15,9.80665008124,-5.55111512313e-15,
1408129707095,-0.0245676613289,4.97872695669,-0.430562119308,5.55111512313e-16,9.80664973048,-1.11022302463e-15,
1408129707101,-0.1097018336,4.72500569685,-0.530853072689,2.33146835171e-15,9.80664962165,-3.33066907388e-15,
1408129707103,-0.282855060584,4.59795570549,-0.696409082225,-9.10382880193e-15,9.80664981514,-4.88498130835e-15,
1408129707130,-0.187175114613,4.56592932538,-0.877317587265,2.22044604925e-16,9.80664926234,-6.66133814775e-16,
1408129707130,-0.0341428145209,4.47604041032,-1.04608432851,-5.66213742559e-15,9.80664974348,-4.4408920985e-16,
1408129707134,0.0311706645666,4.46390274995,-1.18617912189,-3.88578058619e-15,9.80665049314,-6.66133814775e-16,
1408129707157,0.0890673224741,4.61968603252,-1.29647939446,5.21804821574e-15,9.80664947597,3.33066907388e-15,
1408129707158,-0.504267487706,5.99522799347,-0.82646404952,-5.99520433298e-15,9.80665103249,4.21884749358e-15,
1408129707181,-0.700195291227,6.61446810357,-0.800650977112,1.11022302463e-16,9.80665010521,4.88498130835e-15,
1408129707182,-0.871837494699,6.84319914377,-0.938859469328,-1.44328993201e-15,9.80665024095,2.22044604925e-15,
1408129707183,-1.15909257263,7.01289197943,-1.32612458105,2.22044604925e-15,9.80665178615,-1.33226762955e-15,
1408129707213,-1.42901174732,7.69655991976,-1.88575049626,6.88338275268e-15,9.80665009053,-3.99680288865e-15,
1408129707214,-1.49117019304,9.10635358811,-2.19455654162,-2.88657986403e-15,9.80665094653,-1.55431223448e-15,
1408129707214,-1.00682062244,10.4421396655,-2.19081656624,-5.10702591328e-15,9.80664875115,3.10862446895e-15,
1408129707222,-0.449420941615,10.7527111356,-2.32583853764,1.57651669497e-14,9.80665062044,6.2172489379e-15,
1408129707243,0.0246596411857,10.7389661874,-2.01362982613,-7.21644966006e-15,9.80665050634,-4.4408920985e-16,
1408129707244,0.628597564591,12.1193883704,-1.31108083466,9.88098491916e-15,9.80665118226,4.21884749358e-15,
1408129707254,1.08864401431,14.855687548,-0.587111850153,2.50910403565e-14,9.80664972967,-4.4408920985e-16,
1408129707284,-0.0361386900751,17.6772960021,0.596011805188,-9.99200722163e-16,9.80664935305,5.99520433298e-15,
1408129707285,-1.53582809536,16.976995871,1.9555910594,2.77555756156e-15,9.80665163117,-6.88338275268e-15,
1408129707285,-3.43526823762,14.4238077087,1.34333117292,-9.7699626167e-15,9.80665060981,-3.77475828373e-15,
1408129707321,-4.97345649696,12.1296689806,-0.886783680448,-7.77156117238e-15,9.80664930354,3.99680288865e-15,
1408129707322,-5.44604854476,11.6264671018,-4.24887801918,1.11022302463e-16,9.80665071074,8.881784197e-16,
1408129707323,-4.02286835566,15.5378392099,-6.21827930485,-1.88737914186e-15,9.80664991901,-3.10862446895e-15,
1408129707323,-1.75415398841,19.9226249053,-2.26636038685,5.21804821574e-15,9.80665140976,0.0,
1408129707343,1.47186800744,17.4777648749,2.09286250672,3.5527136788e-15,9.80664872363,3.5527136788e-15,
1408129707344,4.07393323864,14.4233860623,2.44471353361,-8.21565038223e-15,9.80664954019,2.22044604925e-15,
1408129707355,4.42454539108,11.7588284694,1.98013841551,4.21884749358e-15,9.80665069449,1.02140518266e-14,
1408129707393,4.11011784088,9.40711132494,0.844627547059,-5.99520433298e-15,9.80665040558,-1.55431223448e-15,
1408129707395,4.54902016258,8.09986711396,-0.950866195364,-2.44249065418e-15,9.80665004488,7.9936057773e-15,
1408129707396,4.76646629645,8.52140819089,-1.71021180444,-8.881784197e-16,9.80664984978,-1.7763568394e-15,
1408129707397,4.34538219383,8.59332886792,0.0956975726869,1.13242748512e-14,9.80664981674,-1.33226762955e-15,
1408129707403,4.11344391417,7.9898428614,1.0004584538,-5.99520433298e-15,9.80665122298,-3.5527136788e-15,
1408129707435,3.53454657359,7.75253566548,1.02969473122,-1.68753899743e-14,9.80665055813,-2.22044604925e-15,
1408129707436,2.92428091095,7.92739962641,1.33792996562,-9.99200722163e-15,9.80665001804,-3.99680288865e-15,
1408129707436,2.29916155735,8.50426801741,1.94943462652,2.77555756156e-15,9.80665110412,2.6645352591e-15,
1408129707462,1.53780511352,8.99053943543,2.15349214597,1.23234755733e-14,9.80665005404,2.22044604925e-15,
1408129707463,0.481965774715,9.37127955066,1.90360106963,-1.85407245112e-14,9.80664959268,3.99680288865e-15,
1408129707463,0.01700229474,9.76220569693,1.76551111355,-1.76525460915e-14,9.8066519093,-4.4408920985e-16,
1408129707491,-0.129966955699,9.87957533753,1.55941465578,-8.881784197e-16,9.8066507758,-2.6645352591e-15,
1408129707492,-0.259532162113,9.50777563857,1.41040582252,-2.46469511467e-14,9.80664942411,1.55431223448e-15,
1408129707511,-0.140030189442,9.09374845935,1.17473236643,-3.05311331772e-15,9.80664974911,0.0,
1408129707511,0.152669314826,8.75044909834,0.757321427501,-2.83106871279e-14,9.80665178035,3.33066907388e-15,
1408129707515,0.747867424909,8.32890097661,0.446728620603,-7.49400541622e-15,9.80665051333,-1.11022302463e-15,
1408129707523,1.03186845136,8.21089646683,0.305339240593,2.71727085277e-14,9.80665068562,-4.4408920985e-16,
1408129707544,1.03058245233,8.00348546516,0.424152691879,4.84751128127e-14,9.8066508418,-3.33066907388e-15,
1408129707545,1.04971706754,7.99293722849,0.477002269742,2.41862085915e-13,9.80665026244,-2.22044604925e-16,
1408129707554,1.25890202349,7.69916907357,0.791968862029,4.73510120003e-14,9.80665090734,7.9936057773e-15,
1408129707569,1.29138756414,7.61173582922,0.861140016163,1.01307850997e-14,9.80665111716,0.0,
1408129707593,1.28710755083,7.56448770835,0.855772271165,-4.23550083894e-14,9.80665101589,-7.32747196253e-15,
1408129707593,1.2176720405,7.7084854915,0.843308065277,1.487698853e-14,9.80664976476,2.22044604925e-16,
1408129707597,1.08835930425,7.74086100825,0.916899389886,-2.22044604925e-15,9.80664914082,3.77475828373e-15,
1408129707603,1.06092631058,7.55256097114,1.00458851665,3.21409565629e-14,9.80665017368,5.10702591328e-15,
1408129707629,0.85354411299,7.56172041716,0.916775103477,-1.22124532709e-14,9.80665090157,2.22044604925e-15,
1408129707630,0.409989764977,7.9339726791,0.91929600725,4.99600361081e-15,9.80664974693,3.77475828373e-15,
1408129707635,-0.251427789121,8.3197181702,0.798430067318,2.55351295664e-15,9.80665096153,-3.10862446895e-15,
1408129707675,-1.00395196831,8.42466035178,0.696686868388,1.7763568394e-15,9.80665102809,-5.10702591328e-15,
1408129707676,-1.89738412522,8.47261420315,0.504661189794,-2.55351295664e-15,9.80664982459,-8.881784197e-16,
1408129707677,-2.68816545857,8.54420697197,0.125651471294,-8.77076189454e-15,9.80664913335,3.99680288865e-15,
1408129707720,-2.97053647636,8.27217856234,-0.129724670086,-4.21884749358e-15,9.80664969733,-8.881784197e-16,
1408129707722,-2.99873335696,7.6461196907,-0.299910883828,1.11022302463e-15,9.80665082852,-5.77315972805e-15,
1408129707723,-2.95387251617,7.42699544434,-0.571552796263,-1.7763568394e-15,9.80665085574,-7.77156117238e-15,
1408129707724,-2.78019556593,7.63985072426,-0.72185501562,-5.99520433298e-15,9.80665023543,1.99840144433e-15,
1408129707725,-2.47185517156,7.74979836253,-0.521062045419,-3.10862446895e-15,9.80664977826,4.88498130835e-15,
1408129707726,-2.08039867985,7.44230095709,-0.3947796574,1.7763568394e-15,9.8066505001,8.43769498715e-15,
1408129707765,-1.9874749706,7.13457435801,-0.42889496253,4.88498130835e-15,9.80665089866,6.2172489379e-15,
1408129707765,-1.96389022228,7.02782171454,-0.457837371711,-1.99840144433e-15,9.80665088296,-7.32747196253e-15,
1408129707766,-1.93425404543,7.31997894851,-0.549188973202,4.21884749358e-15,9.80665025643,8.881784197e-16,
1408129707766,-1.77557484114,7.78321932481,-0.652542418921,1.33226762955e-15,9.80665081142,1.33226762955e-15,
1408129707786,-1.46459296337,8.29383493372,-0.753718539758,8.881784197e-16,9.80665064703,-5.55111512313e-15,
1408129707787,-1.25179366895,8.85603229918,-0.522697346037,4.4408920985e-15,9.80664947735,3.99680288865e-15,
1408129707808,-1.23345888976,9.27441718754,0.0941208101033,7.9936057773e-15,9.80665247722,-4.4408920985e-15,
1408129707808,-1.65893290652,9.55209179486,0.731713269355,9.99200722163e-15,9.80665243227,2.88657986403e-15,
1408129707814,-2.57421624392,9.82811560766,0.846204516103,3.99680288865e-15,9.80665073678,-5.10702591328e-15,
1408129707823,-3.24788992586,10.1080610522,0.355247718049,-4.4408920985e-16,9.80665041068,-4.4408920985e-16,
1408129707838,-3.44052149656,10.7708831283,-0.0647135516258,4.4408920985e-15,9.80664995299,4.21884749358e-15,
1408129707857,-3.03637225833,11.2599685974,-0.0763102842685,6.66133814775e-16,9.80665020516,2.22044604925e-15,
1408129707857,-2.73955588214,11.2820071386,0.402764434717,7.1054273576e-15,9.80665017842,3.5527136788e-15,
1408129707864,-2.51095457312,11.0314549846,0.830164709858,-3.5527136788e-15,9.80665058453,4.66293670343e-15,
1408129707894,-2.32074891071,10.9731141716,0.942282333082,-4.4408920985e-16,9.80664937155,-1.11022302463e-15,
1408129707894,-2.3117856601,11.2085416233,0.357269687727,-1.99840144433e-15,9.80665028617,1.02140518266e-14,
1408129707897,-1.74397508672,10.981288084,-0.0655828706396,-4.88498130835e-15,9.80665009689,6.88338275268e-15,
1408129707903,-0.84500027525,10.094246194,0.755067410142,-8.881784197e-16,9.80665086299,2.44249065418e-15,
1408129707938,-0.315839803499,9.57896151962,0.701320155789,-6.2172489379e-15,9.80665051702,3.10862446895e-15,
1408129707939,0.0575864659823,8.96476518538,0.287435343844,-5.77315972805e-15,9.80664962411,-2.22044604925e-16,
1408129707940,1.11605776206,7.69446360064,0.863719510298,3.33066907388e-15,9.80665115101,-5.99520433298e-15,
1408129707968,2.09620704007,6.71633248494,1.43621090342,7.54951656745e-15,9.80665068524,4.88498130835e-15,
1408129707968,2.8532096211,6.76575069036,1.94480681442,0.0,9.80665258901,-6.66133814775e-16,
1408129707969,2.93532185294,8.1072345793,1.84128877976,-2.22044604925e-16,9.80665104397,0.0,
1408129707990,3.06945239424,11.3940546153,0.982920014797,2.44249065418e-15,9.80665061496,1.21014309684e-14,
1408129707991,2.30737523644,16.6898856052,0.220373264941,8.881784197e-16,9.8066522595,9.43689570931e-15,
1408129707995,1.17841328737,19.8258471153,0.680514622567,-1.37667655054e-14,9.80665063162,-2.55351295664e-15,
1408129708003,0.743756824171,19.7400982881,1.11083035767,3.44169137634e-15,9.80665154173,-7.43849426499e-15,
1408129708032,1.37925547112,19.2275024234,0.411592407341,1.43218770177e-14,9.80665040362,8.77076189454e-15,
1408129708032,1.62639452056,16.9543845484,-0.0137681385681,3.66373598126e-15,9.80665095223,2.22044604925e-16,
1408129708035,1.84795718711,14.029208265,-0.249165915596,6.32827124036e-15,9.80665235011,1.33226762955e-15,
1408129708061,2.14361505471,11.152939796,-0.846304212472,7.04991620637e-15,9.80665022961,4.4408920985e-16,
1408129708062,3.05173003338,10.8625302121,-0.564684040814,2.31481500634e-14,9.80665049928,-4.4408920985e-16,
1408129708064,3.33968963927,10.6701992035,0.402538204587,4.71844785466e-15,9.8066520809,9.99200722163e-15,
1408129708093,2.81789709772,10.2171059532,0.584082411586,2.9531932455e-14,9.80665077366,7.9936057773e-15,
1408129708093,2.28401051242,9.02630314627,0.0110135801202,-1.3211653993e-14,9.80665173876,-5.3290705182e-15,
1408129708095,2.03637481078,7.63776663947,-0.713391480419,-1.64313007645e-14,9.80665055787,4.4408920985e-15,
1408129708103,1.47562382324,7.03915985264,-1.20172849812,1.34614541736e-14,9.80665129059,3.5527136788e-15,
1408129708133,0.525817250766,7.57405663323,-1.32130106384,9.56457135715e-14,9.80664975844,7.54951656745e-15,
1408129708133,-0.29436507535,8.09851007303,-1.09611995816,-7.65359997601e-14,9.8066502494,-1.11022302463e-15,
1408129708136,-0.637277474243,7.71477909634,-0.564411083686,-1.65145674913e-14,9.80664929022,-1.11022302463e-15,
1408129708158,-0.630263081024,6.72701379095,-0.217398000397,5.42343947529e-14,9.80665031563,1.11022302463e-14,
1408129708158,-0.654512583033,6.01967215041,-0.333915127158,-9.71445146547e-15,9.80665101383,0.0,
1408129708164,-0.27202023931,4.97844803432,-0.675895605189,-5.27355936697e-15,9.80665081334,1.7763568394e-15,
1408129708194,-0.017093743198,4.29903849046,-0.904411136067,-1.99840144433e-15,9.80665125016,-4.21884749358e-15,
1408129708195,-0.16720365,4.19875500182,-1.0428413075,-3.5527136788e-15,9.80664987397,8.65973959208e-15,
1408129708198,-0.306762481096,4.03912351914,-1.10181376459,-1.94289029309e-14,9.80665064133,7.54951656745e-15,
1408129708203,-0.453134288231,3.87230867771,-1.06792157219,-5.88418203051e-15,9.80664939347,1.11022302463e-15,
1408129708237,-0.623155333962,3.8786920605,-1.01255665641,-1.26565424807e-14,9.80664998792,-4.88498130835e-15,
1408129708238,-0.81512936628,3.96558408256,-0.924956262127,1.26565424807e-14,9.80665043033,7.54951656745e-15,
1408129708238,-0.966757628403,4.12243767787,-0.93238418174,4.21884749358e-15,9.80665083082,0.0,
1408129708261,-1.03058462727,4.41845986179,-0.999587994644,6.99440505514e-15,9.80665123492,6.2172489379e-15,
1408129708262,-1.15420291188,5.02910632074,-1.18009180483,1.22124532709e-15,9.80665107782,4.88498130835e-15,
1408129708264,-1.23515092943,5.78501379962,-1.4445922654,3.77475828373e-15,9.80665005745,7.54951656745e-15,
1408129708290,-1.38417405426,6.60022488333,-1.70905189753,1.0325074129e-14,9.80664965255,4.4408920985e-16,
1408129708290,-1.53540651691,7.57145414335,-1.82103169627,1.40998324127e-14,9.80665097395,8.881784197e-16,
1408129708305,-1.66751713024,8.70938919768,-1.80408378729,8.54871728961e-15,9.80665185249,-1.7763568394e-15,
1408129708307,-1.62318852113,9.95276791172,-1.89730853093,2.44249065418e-15,9.8066503269,-2.22044604925e-15,
1408129708320,-1.20395669405,10.8552648878,-2.158799365,6.77236045021e-15,9.8066502518,-3.33066907388e-15,
1408129708337,-0.687520885854,11.4608373693,-2.54102043387,3.88578058619e-15,9.80664979831,-1.11022302463e-15,
1408129708338,-0.203635574861,12.2505596074,-2.25332004073,-1.13242748512e-14,9.80664960752,1.11022302463e-15,
1408129708352,0.387602921203,14.2662514962,-0.89230679237,1.2490009027e-14,9.80665065878,5.3290705182e-15,
1408129708382,0.301421672405,16.7186566924,0.268869876669,-7.9936057773e-15,9.80665065508,-5.77315972805e-15,
1408129708383,0.143895161159,17.4903496667,1.37405674485,-8.82627304577e-15,9.80664934414,3.5527136788e-15,
1408129708383,-1.01775598629,15.4497824045,2.30046968338,7.27196081129e-15,9.80665205425,1.99840144433e-15,
1408129708384,-2.62613370588,12.8623586685,1.47491861651,1.20459198172e-14,9.80665132423,3.10862446895e-15,
1408129708404,-4.25543349602,10.4835060874,-0.101840734016,9.7699626167e-15,9.8066500299,-6.66133814775e-16,
1408129708405,-5.20149775857,8.42837496326,-2.69789100353,1.46549439251e-14,9.80665117269,-3.5527136788e-15,
1408129708421,-5.09430633683,8.43684883564,-6.52615948279,-7.9936057773e-15,9.80665046145,-8.881784197e-16,
1408129708439,-2.92305380969,12.2234497621,-9.03845393706,-3.33066907388e-15,9.8066497399,0.0,
1408129708440,-0.774976344805,17.2951916191,-4.57881997993,-2.44249065418e-15,9.80665054685,8.881784197e-16,
1408129708444,2.38206901294,16.1573744615,1.41431444483,1.99840144433e-15,9.8066500389,-1.7763568394e-15,
1408129708478,4.90660656773,14.3465749827,2.03288323049,7.32747196253e-15,9.80665040053,1.7763568394e-15,
1408129708479,5.83173569379,14.6325535658,3.34540458587,1.55431223448e-15,9.80665042603,-1.33226762955e-15,
1408129708479,6.78435509794,13.3531143451,3.73373396124,-7.1054273576e-15,9.80664981633,-3.10862446895e-15,
1408129708485,6.79473413036,11.7635882991,3.28058941659,1.27675647832e-14,9.80665191395,-2.6645352591e-15,
1408129708524,6.19350155199,11.3220355087,2.71311227039,0.0,9.80665164215,-2.6645352591e-15,
1408129708525,4.72641957013,10.1749215694,3.52657951374,-7.21644966006e-15,9.80665031771,3.5527136788e-15,
1408129708525,3.7655675013,8.97210840001,2.97691714242,9.38138455808e-15,9.80665065313,4.4408920985e-15,
1408129708526,2.63925899105,8.9849896823,1.88108652491,-3.99680288865e-15,9.80664996707,2.22044604925e-15,
1408129708535,1.57410692639,8.87355727229,1.83739974065,2.77833311912e-14,9.80665047108,0.0,
1408129708553,0.966505657003,8.18682856742,1.3916371719,-2.22599716437e-14,9.80665058011,4.4408920985e-15,
1408129708572,0.151966550844,7.324384279,0.615251527473,-1.57512891619e-14,9.80665051147,-1.7763568394e-15,
1408129708573,-0.636157197957,6.73059224953,0.149774048783,1.94635974005e-14,9.8066520785,-8.881784197e-16,
1408129708576,-1.23944852309,7.04226232865,-0.0736200533769,-4.69900160449e-13,9.80665074933,6.66133814775e-15,
1408129708584,-1.68306432538,8.10141650671,-0.363203762141,3.17461334998e-13,9.80665004739,2.22044604925e-15,
1408129708608,-1.51886681694,8.9886985735,-0.377233293651,-3.09474668114e-15,9.80665036015,5.3290705182e-15,
1408129708609,-0.954151193195,8.75619926894,-0.335117612399,-6.22280005302e-14,9.80665114661,7.77156117238e-15,
1408129708617,0.145862898804,7.79168863614,0.573852718579,-1.36557432029e-14,9.80664853178,9.54791801178e-15,
1408129708639,0.486061679013,7.61644576381,1.03424357941,3.54716256368e-14,9.80665053643,-6.66133814775e-16,
1408129708639,0.720548237364,7.68455854928,1.35073046575,-1.44328993201e-15,9.80665162677,-6.2172489379e-15,
1408129708645,1.12602869155,7.77494751374,1.52807134514,-4.10782519111e-15,9.80664964833,6.66133814775e-15,
1408129708673,1.55533739249,7.8549683578,1.38964271913,-2.33146835171e-15,9.80665092492,4.21884749358e-15,
1408129708674,1.76029724604,7.97712890513,0.920270755932,-9.43689570931e-15,9.80665069116,-9.7699626167e-15,
1408129708678,1.63814529918,8.19502552057,0.559953969752,3.99680288865e-15,9.80664948655,-3.77475828373e-15,
1408129708684,1.2259491376,8.48605005542,0.460026484584,-2.07611705605e-14,9.80665045993,3.77475828373e-15,
1408129708711,0.587477913601,8.54335325544,0.477620940133,-1.13242748512e-14,9.80665078801,-8.881784197e-15,
1408129708711,-0.104822000692,8.39461589787,0.942700239947,1.37667655054e-14,9.80665152675,-6.2172489379e-15,
1408129708716,-0.363816140077,8.03712324343,1.10325850287,-3.77475828373e-15,9.80665024533,-6.2172489379e-15,
1408129708739,-0.635550328194,7.93096853618,0.908612758626,1.04360964315e-14,9.80665110428,-1.7763568394e-15,
1408129708740,-0.988321451984,7.86167892161,0.793001614957,3.33066907388e-16,9.80665147977,1.55431223448e-15,
1408129708744,-1.091559412,7.79669186084,0.490087493409,3.44169137634e-15,9.80665214188,1.33226762955e-15,
1408129708778,-1.27081185177,7.74502989874,0.147122342822,1.7763568394e-15,9.80665050392,6.88338275268e-15,
1408129708779,-1.43051208747,7.8333314119,-0.187757142404,3.10862446895e-15,9.80665038922,1.33226762955e-15,
1408129708779,-1.46088616536,8.21458546741,-0.675143429466,4.4408920985e-15,9.80665133111,-5.77315972805e-15,
1408129708784,-1.22028698036,8.27908360889,-0.896408799466,-7.9936057773e-15,9.80665030653,4.4408920985e-15,
1408129708814,-0.847064806982,8.34453064461,-0.820257515942,7.9936057773e-15,9.80665003792,-2.22044604925e-15,
1408129708815,-0.698898450921,8.24130393107,-0.728170517244,4.4408920985e-15,9.80665073097,4.4408920985e-16,
1408129708816,-0.66465444212,7.90919302565,-0.497959253382,1.1768364061e-14,9.80665114239,6.2172489379e-15,
1408129708839,-1.1008263349,7.41677231659,-0.100666262688,-4.21884749358e-15,9.8066530615,5.77315972805e-15,
1408129708840,-1.72914893736,7.20823133868,0.200324577398,6.66133814775e-16,9.8066502662,1.55431223448e-15,
1408129708844,-2.46049870407,7.42644230291,0.23840037191,-2.44249065418e-15,9.80665068237,1.99840144433e-15,
1408129708872,-3.05889728706,8.1509710152,0.300378046525,1.1768364061e-14,9.80665033307,8.881784197e-15,
1408129708873,-3.56425366111,8.93728696479,-0.0556462045743,1.55431223448e-15,9.80665192864,-2.44249065418e-15,
1408129708876,-3.66827025985,9.38721519088,-0.101686150818,6.2172489379e-15,9.80665143074,7.1054273576e-15,
1408129708884,-3.24695820179,9.90709886585,0.0126803989578,5.99520433298e-15,9.80665002748,4.66293670343e-15,
1408129708908,-2.64315403969,10.6584842566,0.189598920141,-1.55431223448e-15,9.80665020923,8.881784197e-16,
1408129708909,-2.80365454192,10.4511410685,0.97369406527,1.33226762955e-15,9.80665171462,1.28785870857e-14,
1408129708920,-3.63918880408,9.37918359021,1.27694815551,1.55431223448e-15,9.80665103875,-6.66133814775e-16,
1408129708940,-4.45328964867,8.94117440591,0.101844916293,-2.6645352591e-15,9.80665006294,6.66133814775e-16,
1408129708940,-3.99686633281,9.54537921227,-0.978372214862,3.33066907388e-15,9.80665077562,4.4408920985e-15,
1408129708945,-2.89131321566,10.3759900021,-1.04375527488,4.4408920985e-15,9.80665055267,-1.55431223448e-15,
1408129708972,-1.93881795879,10.8771508493,-0.262692581833,-1.11022302463e-15,9.80664991428,1.99840144433e-15,
1408129708973,-1.780229803,11.0169777589,0.512714625474,2.22044604925e-16,9.80664971415,3.77475828373e-15,
1408129708978,-1.76688222803,11.2920684865,0.6042566714,-3.5527136788e-15,9.80665014963,8.881784197e-16,
1408129708985,-1.46169083365,10.8668226461,0.769045941299,-2.22044604925e-15,9.8066499672,-4.4408920985e-16,
1408129709010,-0.899001997592,9.10747976991,1.65840927447,2.22044604925e-15,9.80664969437,1.11022302463e-15,
1408129709011,-0.524745663023,7.68099309117,1.11052206324,-6.66133814775e-16,9.80665053674,8.881784197e-16,
1408129709016,0.182061350242,6.56183541767,-0.0762688555819,-4.4408920985e-16,9.80664987088,-2.88657986403e-15,
1408129709037,0.965103289403,5.78085411678,0.165708145513,0.0,9.80665003328,4.21884749358e-15,
1408129709038,1.68362079125,6.29059147842,0.968392940055,9.54791801178e-15,9.8066504935,-2.88657986403e-15,
1408129709045,2.484340117,8.44630700855,0.824638092959,5.77315972805e-15,9.80665030733,1.26565424807e-14,
1408129709073,2.5288793563,12.1201470461,-0.219289942947,5.10702591328e-15,9.80665133871,1.11022302463e-15,
1408129709073,1.57147855167,17.2292973172,-0.506364741687,1.11022302463e-14,9.80665186822,-3.10862446895e-15,
1408129709076,0.257863577098,19.8831106449,0.427453669423,4.88498130835e-15,9.80665126137,-5.3290705182e-15,
1408129709085,0.215843920148,19.7564926702,1.13809436918,-4.4408920985e-16,9.80664981603,-8.881784197e-16,
1408129709113,1.87720086229,19.2775834383,0.4261320562,-6.43929354283e-15,9.80665084889,7.1054273576e-15,
1408129709114,2.96738164613,16.4072340781,-0.431403525926,2.22044604925e-16,9.80664925951,-7.1054273576e-15,
1408129709116,3.39791339514,12.6316872748,-1.16563692108,2.25375273999e-14,9.80665024864,1.04360964315e-14,
1408129709144,3.82173467762,11.3325422747,-1.34621041736,8.99280649946e-15,9.80665016908,8.881784197e-15,
1408129709144,4.32610256971,11.405289545,-0.337123270639,-1.36557432029e-14,9.80664982635,1.22124532709e-14,
1408129709145,3.34665874818,11.7209103395,0.935725685557,3.5527136788e-15,9.80665102524,-1.99840144433e-15,
1408129709172,2.00848792731,10.6334913579,1.24546179084,-4.94049245958e-15,9.8066509781,2.88657986403e-15,
1408129709172,1.51701224541,8.88877830983,0.357617617455,2.34812169708e-14,9.80665146048,5.10702591328e-15,
1408129709176,1.03405299727,7.86429785426,-0.660705994039,7.77156117238e-16,9.8066492491,5.55111512313e-15,
1408129709184,0.154390000378,7.38858768843,-1.15316318624,2.86159984597e-14,9.80664850323,-3.5527136788e-15,
1408129709202,-0.90134685712,7.49253859591,-1.22883927005,2.34368080498e-13,9.80665162649,7.77156117238e-15,
1408129709224,-1.49771030148,7.81700462069,-1.0000552247,3.71924713249e-15,9.80664975203,-6.66133814775e-16,
1408129709225,-1.67293293745,7.83096511713,-0.416687213971,4.23550083894e-14,9.80665066852,-4.4408920985e-16,
1408129709226,-1.36089269858,7.03191428761,0.0653245107315,-9.15933995316e-15,9.80665077151,-6.66133814775e-16,
1408129709237,-0.866691568363,6.3576394153,-0.0239277834816,-4.55191440096e-15,9.80665041073,-6.2172489379e-15,
1408129709261,-0.319802895197,5.64136566159,-0.350648174218,-1.21014309684e-14,9.80664939583,1.55431223448e-15,
1408129709262,0.162756720874,4.94053320834,-0.644118937752,-2.22044604925e-15,9.80665194137,-1.99840144433e-15,
1408129709265,0.580721427646,4.55712541496,-0.900082253448,1.88737914186e-14,9.80664929358,-6.66133814775e-15,
1408129709283,0.846043415078,4.21236192839,-0.968396322804,7.32747196253e-15,9.80665035478,6.66133814775e-16,
1408129709285,0.792923201588,4.19137372213,-0.999824443135,4.4408920985e-15,9.8066508701,-3.5527136788e-15,
1408129709302,0.713584272625,4.38263059572,-1.00073427963,-1.39888101103e-14,9.8066508388,-4.4408920985e-16,
1408129709319,0.56066297648,4.50976766365,-0.931810153277,-6.43929354283e-15,9.80665026585,2.6645352591e-15,
1408129709320,0.350973544103,4.64373617773,-0.928935973684,1.25455201783e-14,9.80665057179,-1.99840144433e-15,
1408129709336,0.0267302195776,5.04637173553,-0.959637342813,-6.88338275268e-15,9.80664956246,-8.881784197e-16,
1408129709347,-0.367408929543,5.72294581424,-1.02735278282,-7.66053886991e-15,9.80664915285,4.4408920985e-16,
1408129709347,-0.770486971993,6.59026695081,-1.16757244788,-1.16573417586e-14,9.80664916429,4.88498130835e-15,
1408129709365,-1.0747168749,7.27874443263,-1.35199156947,-1.88737914186e-15,9.80665091577,2.22044604925e-15,
1408129709366,-1.39471240688,7.90917079922,-1.45751314669,8.54871728961e-15,9.80665100057,0.0,
1408129709382,-1.7341111437,8.7832530591,-1.78520554807,-1.88737914186e-14,9.80665006234,3.5527136788e-15,
1408129709385,-1.84990803273,9.73312770396,-2.22472746991,9.10382880193e-15,9.80665050244,5.77315972805e-15,
1408129709399,-1.78198968118,10.439713665,-2.08617031853,3.88578058619e-15,9.80664982806,4.4408920985e-15,
1408129709415,-1.6016533909,10.7548138716,-1.74201771398,-1.47659662275e-14,9.80665059488,0.0,
1408129709416,-1.49711735095,10.7297932407,-1.66163089031,-4.10782519111e-15,9.8066498359,-2.88657986403e-15,
1408129709437,-1.51115954012,10.7883940246,-1.56295094169,7.71605002114e-15,9.80665103049,2.6645352591e-15,
1408129709438,-1.09549474556,12.1329942299,-1.66265446744,-3.88578058619e-15,9.80665094138,2.22044604925e-16,
1408129709445,-0.207014737621,13.8953116781,-1.03349016408,-1.33226762955e-15,9.80665068202,-1.55431223448e-15,
1408129709464,-0.273074074137,15.7090508375,0.793028896589,-1.27675647832e-14,9.80665130451,8.881784197e-16,
1408129709465,-1.38431771239,14.8013030838,2.43745111959,1.65423230669e-14,9.80664986785,-3.33066907388e-15,
1408129709483,-2.93804930586,11.7391320611,1.74891836738,1.15463194561e-14,9.80665040043,1.99840144433e-15,
1408129709485,-3.89576664219,10.2720104753,-1.98797654405,-1.38777878078e-14,9.80665021071,6.2172489379e-15,
1408129709500,-2.89551786338,13.0004119481,-7.36991157135,5.55111512313e-15,9.80664971843,-1.7763568394e-15,
1408129709534,-1.03444587778,18.9161430883,-5.16661311036,-1.74305014866e-14,9.80665219985,1.7763568394e-15,
1408129709535,1.0441329235,19.3895148407,1.93814201867,8.10462807976e-15,9.80665121997,3.10862446895e-15,
1408129709537,4.18539694019,17.2987181328,2.84888917198,-4.32986979604e-15,9.80665043011,2.22044604925e-15,
1408129709559,5.6212987045,15.4013146259,1.3265038931,6.88338275268e-15,9.80665116829,2.6645352591e-15,
1408129709560,5.28256930581,12.0156996833,1.3811818426,-2.77555756156e-15,9.8066499113,-1.7763568394e-15,
1408129709560,4.84190010692,8.82650834193,0.340020299649,-5.77315972805e-15,9.80664982416,3.10862446895e-15,
1408129709565,4.27509467716,7.98542503429,-0.0752457496913,-5.44009282066e-15,9.80665038679,8.881784197e-16,
1408129709594,3.52238064991,7.71166866794,0.998238504078,-1.28785870857e-14,9.80665050064,4.4408920985e-16,
1408129709595,2.79173881219,7.34505841164,1.6433108227,-4.88498130835e-15,9.8066497483,0.0,
1408129709597,2.27086981284,7.55840886788,1.67334314231,4.77395900589e-15,9.80665036579,-2.6645352591e-15,
1408129709649,1.94710691008,8.0593820831,1.92610345593,1.85962356625e-14,9.80664978531,-5.3290705182e-15,
1408129709649,1.49611692457,8.11588407398,1.74093177152,1.67088565206e-14,9.80665052625,2.6645352591e-15,
1408129709650,0.537669423226,8.03166651576,0.798259519563,8.04911692853e-15,9.8066510122,-4.4408920985e-16,
1408129709651,-0.573769537623,8.26082950273,-0.129849777895,-1.56541446472e-14,9.80665054635,2.6645352591e-15,
1408129709651,-1.02817072034,8.54449758259,-0.283265165237,3.38618022511e-15,9.8066501124,4.88498130835e-15,
1408129709676,-1.04267717773,9.31235808765,-0.196172035284,-6.24500451352e-15,9.80665156321,8.881784197e-16,
1408129709676,-0.883143939646,9.76159308778,0.0852172359639,3.79141162909e-14,9.80665100315,1.7763568394e-15,
1408129709677,-0.39964010416,9.46753079672,0.446131789881,-6.22557561059e-14,9.80664987844,8.881784197e-16,
1408129709687,0.203141811497,8.98274401489,0.800895993641,-9.35362898247e-15,9.80665173729,2.22044604925e-15,
1408129709708,0.717944780196,8.51187615403,1.24905950356,-4.21033867493e-13,9.80665155042,-7.1054273576e-15,
1408129709709,1.0039764235,8.12920225975,1.4357378563,4.89192020225e-14,9.80665021095,-3.77475828373e-15,
1408129709717,1.0307918625,8.09111570564,1.57171673695,6.83619827413e-14,9.80665054281,5.55111512313e-15,
1408129709732,1.45849517763,7.94227254196,1.66919087979,3.95794508279e-14,9.80665038172,-4.4408920985e-15,
1408129709745,1.98982342141,7.78293702813,1.58403271825,6.66133814775e-15,9.80665029477,-1.7763568394e-15,
1408129709746,2.02188978655,7.69458266014,1.25321253949,1.22124532709e-14,9.80664951555,6.66133814775e-15,
1408129709766,1.72253707762,7.72205667789,0.864563360459,1.45439216226e-14,9.80664865267,6.66133814775e-15,
1408129709767,1.4958109288,7.68517790769,0.653307027408,-3.5527136788e-15,9.80665088687,8.21565038223e-15,
1408129709789,1.48273703833,7.45018675875,0.699885248161,-3.88578058619e-15,9.80665071628,2.88657986403e-15,
1408129709790,1.22120019662,7.21798636136,0.813280553368,-5.55111512313e-16,9.80665124737,9.99200722163e-15,
1408129709797,0.810161299692,6.50165965153,0.978259536582,1.35447209004e-14,9.80665139782,-1.55431223448e-15,
1408129709823,0.223625165781,6.74329672737,0.782194915035,5.10702591328e-15,9.80665112067,3.99680288865e-15,
1408129709823,0.00729820328125,7.27295129586,0.746741117951,-1.14352971536e-14,9.8066495877,1.11022302463e-15,
1408129709825,-0.222438402605,7.65183293474,0.758650728746,4.99600361081e-15,9.80665079787,-4.21884749358e-15,
1408129709850,-0.840260929936,8.18192313961,0.496600444822,1.28785870857e-14,9.80665098031,-9.54791801178e-15,
1408129709851,-1.14716123806,7.77214216603,-0.0288126039837,6.88338275268e-15,9.80665142733,-4.21884749358e-15,
1408129709866,-1.44091593431,7.82763937481,-0.360588177779,-3.33066907388e-15,9.80664840021,5.3290705182e-15,
1408129709872,-1.83760521612,8.51994882334,-0.337920271055,-1.7763568394e-15,9.80664893254,-9.7699626167e-15,
1408129709887,-2.4088460346,9.15722956573,-0.28834904009,-2.22044604925e-16,9.80665087329,2.6645352591e-15,
1408129709888,-2.81386780394,9.73333691828,-0.00578144380604,4.4408920985e-15,9.80665038939,4.4408920985e-15,
1408129709898,-3.1129005837,9.88756689148,0.235401004251,-4.4408920985e-15,9.80665115503,2.44249065418e-15,
1408129709934,-3.45243769289,9.59521574391,0.0903065161003,-4.66293670343e-15,9.80664900722,-2.22044604925e-16,
1408129709936,-3.66818140256,9.13116630519,-0.270224333616,1.33226762955e-15,9.80665105648,6.43929354283e-15,
1408129709937,-3.61190405847,8.82710669768,-0.693813079606,3.99680288865e-15,9.80664973678,3.99680288865e-15,
1408129709954,-3.41300663327,8.691878555,-1.15919531201,6.2172489379e-15,9.8066501927,-2.6645352591e-15,
1408129709955,-3.36844271683,8.39480877266,-0.813358163633,3.77475828373e-15,9.80665007826,0.0,
1408129709957,-3.19767614973,8.74164106268,-0.589197356511,1.55431223448e-15,9.80665128791,4.88498130835e-15,
1408129709965,-2.84738081431,9.52788783112,-0.573804799565,2.22044604925e-16,9.80664901971,2.22044604925e-16,
1408129709987,-3.1568946872,9.4739242483,0.0641874462575,-8.881784197e-16,9.80664958442,7.32747196253e-15,
1408129709988,-3.84546981728,8.83006113602,0.150779315465,4.66293670343e-15,9.80665099235,3.99680288865e-15,
1408129710022,-4.26426517244,8.59102535161,-0.753621869199,0.0,9.80665062357,5.55111512313e-15,
1408129710024,-3.77394295346,9.03851652211,-1.27770328973,4.4408920985e-15,9.80665009151,1.7763568394e-15,
1408129710026,-2.41292477575,10.1788021992,-1.18605604022,3.99680288865e-15,9.80664962878,-6.2172489379e-15,
1408129710026,-1.57357433885,11.1518627273,-0.0585815396204,4.21884749358e-15,9.80665090114,2.88657986403e-15,
1408129710066,-1.26370974088,11.9404233556,0.59469203177,6.66133814775e-15,9.80665016833,1.33226762955e-15,
1408129710070,-0.77509354665,12.1232411251,0.81018560534,7.1054273576e-15,9.8066519521,1.7763568394e-15,
1408129710071,-0.626412526624,9.44082784525,2.12648457031,1.99840144433e-15,9.80664986737,-7.54951656745e-15,
1408129710072,-0.800971362266,8.96506242665,1.25558986036,7.32747196253e-15,9.80665161335,4.66293670343e-15,
1408129710104,-0.1969452574,8.56321162826,1.19742870803,-1.7763568394e-15,9.80664942856,7.9936057773e-15,
1408129710106,1.01317722296,7.59086840482,1.65720476718,1.33226762955e-15,9.80664984332,1.33226762955e-15,
1408129710107,2.02018888111,7.36691464956,1.91824545802,-2.44249065418e-15,9.80664987324,4.88498130835e-15,
1408129710108,2.49455906402,8.70866482672,1.56209320822,2.44249065418e-15,9.80665038704,1.7763568394e-15,
1408129710129,2.3495800008,11.9015167318,0.715088054733,-1.99840144433e-15,9.8066511431,-1.55431223448e-15,
1408129710129,1.85666870788,16.937843241,0.316753183866,3.33066907388e-15,9.80665015966,2.33146835171e-15,
1408129710169,1.29537504522,19.8832696715,1.32105566857,2.44249065418e-15,9.80665106049,2.22044604925e-16,
1408129710170,1.7420168165,19.8412426595,2.11910992857,6.66133814775e-15,9.80664863716,1.99840144433e-15,
1408129710171,2.7382856685,19.1314378458,1.17766406608,-2.22044604925e-15,9.80665123577,1.33226762955e-15,
1408129710172,3.24549589396,16.3953551448,-0.333151398572,-1.13242748512e-14,9.80665070905,1.22124532709e-15,
1408129710180,3.48051329618,12.8043625037,-1.47883593486,-3.33066907388e-16,9.80665094856,9.99200722163e-16,
1408129710213,3.40766237604,9.64326282487,-2.18829868507,1.88737914186e-15,9.80665080542,-4.88498130835e-15,
1408129710214,3.70969019053,9.53996720465,-1.82802478986,2.55351295664e-15,9.80665080578,1.33226762955e-15,
1408129710214,3.06961634597,9.87798577655,-0.758264304567,5.44009282066e-15,9.8066504806,-1.33226762955e-15,
1408129710216,2.26684564674,8.38843928082,-0.58096587271,-1.55431223448e-15,9.80664838595,-4.66293670343e-15,
1408129710239,0.928244255609,7.15067151567,-1.26230326789,2.24265050974e-14,9.8066514133,-5.10702591328e-15,
1408129710240,-0.0230634666909,6.51597872927,-2.14601723854,-1.54876111935e-14,9.80665053847,0.0,
1408129710245,-1.11778744987,7.225547883,-2.32116328261,8.63198401646e-15,9.80665102504,0.0,
1408129710273,-2.04990204827,7.86650280792,-1.57640462262,-7.42600425596e-14,9.80665171103,-2.22044604925e-16,
1408129710274,-2.4600244621,7.86424515871,-0.516204344836,1.93595139919e-14,9.80665067683,-4.88498130835e-15,
1408129710276,-2.38955819434,7.30663718378,0.15623457167,2.56461518688e-14,9.80665040548,-1.33226762955e-15,
1408129710309,-1.36259518201,6.16567200315,0.393787366702,1.22124532709e-15,9.80665130675,-5.99520433298e-15,
1408129710310,-0.753794542582,5.19092392345,0.197545794772,3.44169137634e-14,9.80665074658,3.10862446895e-15,
1408129710311,-0.593398851926,4.5207991096,-0.128196864302,1.08801856413e-14,9.80665109025,-1.99840144433e-15,
1408129710316,-0.575402159425,4.0283911072,-0.550648259895,-1.14352971536e-14,9.80665021077,1.02140518266e-14,
1408129710331,-0.428304812156,3.69351386145,-0.77364677203,6.88338275268e-15,9.80665123763,-6.2172489379e-15,
1408129710348,-0.406211824843,3.56459815285,-0.952928660915,-1.88737914186e-15,9.80665071364,4.88498130835e-15,
1408129710348,-0.566232439586,3.78132600462,-1.04600074596,-8.77076189454e-15,9.80665100574,1.7763568394e-15,
1408129710368,-0.577922375352,4.59045661358,-1.04518563219,-1.87627691162e-14,9.80664976064,-1.99840144433e-15,
1408129710368,-0.62406207309,5.26425601519,-0.976116683422,1.33226762955e-14,9.80665064242,-2.22044604925e-15,
1408129710377,-0.768392082865,5.83624559459,-0.739022636153,-5.21804821574e-15,9.80664974093,2.22044604925e-15,
1408129710408,-0.969031834267,6.55608974469,-0.608854532573,-3.66373598126e-15,9.80664971749,-8.881784197e-16,
1408129710409,-1.16522065357,7.45830782789,-0.664967544441,4.88498130835e-15,9.80665101702,-3.99680288865e-15,
1408129710409,-1.21065267456,8.22871056097,-0.855396740699,-2.99760216649e-15,9.80665075392,8.881784197e-16,
1408129710440,-1.3079895074,8.69964686546,-1.22395844284,1.88737914186e-15,9.8066492389,-5.3290705182e-15,
1408129710440,-1.6906116762,9.22318626042,-1.80067511271,-1.44328993201e-15,9.80665008905,1.33226762955e-15,
1408129710441,-2.18487024423,10.0368061829,-2.21937568573,-9.99200722163e-15,9.80664872247,3.10862446895e-15,
1408129710445,-2.51211913721,11.0538210505,-2.3797109337,-1.27675647832e-14,9.80665014832,3.5527136788e-15,
1408129710472,-2.32830883999,11.7032528467,-2.46274670403,9.99200722163e-16,9.8066518355,-3.5527136788e-15,
1408129710472,-2.05881265642,11.673581581,-2.27133685423,9.32587340685e-15,9.80664966212,3.99680288865e-15,
1408129710478,-1.51825596676,11.0243657308,-1.6487235117,8.32667268469e-15,9.80664925931,-1.55431223448e-15,
1408129710502,-0.47069322794,12.0185110894,-1.17430260809,1.11022302463e-14,9.80664922902,-2.44249065418e-15,
1408129710503,0.687054936991,14.43505642,-0.5689195395,-1.7763568394e-15,9.80665187309,-2.88657986403e-15,
1408129710505,0.535973668247,15.8208654191,1.24511064258,-3.10862446895e-15,9.80665253572,2.88657986403e-15,
1408129710537,-0.481206202479,13.4005561184,2.326488653,-1.67643676718e-14,9.8066493574,3.5527136788e-15,
1408129710538,-2.18615421227,9.87764593699,1.75726336233,1.39888101103e-14,9.80665051374,-8.881784197e-16,
1408129710542,-3.35244909262,8.09271086142,-0.49007244164,-1.57651669497e-14,9.80665036468,-4.4408920985e-16,
1408129710546,-2.99939301928,8.56367067185,-5.01012270695,-2.00950367457e-14,9.80665237737,5.3290705182e-15,
1408129710570,0.0473105644033,12.5920952021,-8.04728233081,-1.68753899743e-14,9.80665060864,5.77315972805e-15,
1408129710571,0.532879487672,18.280225264,-3.12442615434,9.32587340685e-15,9.80665024649,-4.4408920985e-16,
1408129710577,2.6950777171,16.9425069169,0.607116677212,-6.2172489379e-15,9.80665076674,2.6645352591e-15,
1408129710604,6.20412723237,14.8458272067,1.97768833032,-1.44328993201e-15,9.80665012524,-3.99680288865e-15,
1408129710605,6.09012057215,14.2976204423,3.3231005026,6.55031584529e-15,9.80664968508,3.99680288865e-15,
1408129710606,5.29291940984,13.6971369512,3.1512738238,4.88498130835e-15,9.80665201166,1.33226762955e-15,
1408129710634,5.38309595129,12.8464385461,2.54024534804,-1.88737914186e-14,9.80665094569,1.7763568394e-15,
1408129710635,4.61446840912,11.6098473372,3.61418308057,4.21884749358e-15,9.80665144181,-3.5527136788e-15,
1408129710637,3.66714111348,10.9123353049,4.05215156368,-8.881784197e-15,9.80664907141,8.881784197e-16,
1408129710646,3.15892234425,10.2808357141,3.37181165087,-1.72084568817e-15,9.80665064978,5.55111512313e-15,
1408129710667,2.42506365584,9.46733412588,2.42584205722,3.73034936274e-14,9.80665036665,-6.66133814775e-16,
1408129710667,1.46579131444,8.28494313644,0.910788175841,3.49720252757e-14,9.80665026553,-4.88498130835e-15,
1408129710677,0.507593986961,7.47429170427,-0.40928348863,-1.54598556179e-14,9.80665012007,6.43929354283e-15,
1408129710711,-0.176329114593,7.43524595458,-1.12796506397,-2.21767049169e-14,9.80665073227,1.55431223448e-15,
1408129710711,-0.437865491027,7.87472815431,-1.15205240469,-3.33344463144e-14,9.80665122948,-2.22044604925e-15,
1408129710712,-0.502483207588,8.89016803841,-0.688294202436,1.31898398453e-12,9.80664885704,-8.881784197e-16,
1408129710741,-0.471351650398,9.37750307697,-0.155381560447,2.01824668089e-13,9.8066501298,-2.22044604925e-16,
1408129710741,0.0285115706076,9.09309882978,0.146669247843,5.20417042793e-14,9.80665133457,0.0,
1408129710742,0.929355967419,8.14643706278,0.516375266786,3.27515792264e-15,9.80665021533,-6.66133814775e-16,
1408129710746,1.29245295726,7.766631945,0.64987843493,2.209343819e-14,9.80665036017,3.33066907388e-15,
1408129710770,1.54956108736,7.70446794186,1.01304309723,1.27675647832e-14,9.80665006936,1.55431223448e-15,
1408129710771,1.73424132821,7.67005913852,1.33233133113,-1.14352971536e-14,9.80664935099,-3.77475828373e-15,
1408129710780,1.8647648684,7.70874955719,1.53931214123,1.80966353014e-14,9.80665093418,6.43929354283e-15,
1408129710807,1.78243727257,7.85585610869,1.80858457722,0.0,9.8066510581,1.33226762955e-15,
1408129710807,1.41210752592,7.943900341,1.55271352573,-5.3290705182e-15,9.80665151752,-4.88498130835e-15,
1408129710808,0.917736797337,7.89324874658,1.31280476085,-1.07691633389e-14,9.80665147922,-2.22044604925e-15,
1408129710831,0.603250545714,7.75889392886,1.18580596484,-1.14352971536e-14,9.80665154627,-4.4408920985e-16,
1408129710831,0.280816043122,7.78259286146,1.11348703939,-1.33226762955e-15,9.8066511726,-6.66133814775e-16,
1408129710848,-0.172642166431,7.84653673234,1.03353229046,4.99600361081e-15,9.80664926368,-2.22044604925e-15,
1408129710850,-0.794500684097,7.6147935988,0.930312189779,-7.88258347484e-15,9.80665088552,2.6645352591e-15,
1408129710867,-0.957675997856,7.31404229565,1.03744198988,-4.4408920985e-15,9.80664946417,4.4408920985e-16,
1408129710868,-1.34584679408,7.21739276043,1.18266419163,5.99520433298e-15,9.80665135333,2.22044604925e-15,
1408129710877,-1.90989459347,7.33803911167,0.854997240313,1.31006316906e-14,9.80665144069,2.44249065418e-15,
1408129710894,-2.35597764162,7.65460558195,0.242847801415,0.0,9.80665003289,1.1990408666e-14,
1408129710921,-2.38287827711,8.0451003826,-0.473669398763,-4.4408920985e-15,9.80665168673,-5.3290705182e-15,
1408129710922,-2.37133432481,8.13905076797,-0.977533506008,3.10862446895e-15,9.80665134279,1.26565424807e-14,
1408129710923,-2.70200547013,8.12530570789,-1.12680926866,2.22044604925e-16,9.80665101737,-1.59872115546e-14,
1408129710926,-3.06795664405,8.10054180097,-0.868842734861,-3.99680288865e-15,9.80665110594,8.881784197e-15,
1408129710952,-3.10163496717,8.07704731135,-0.690448344843,0.0,9.80665169085,3.5527136788e-15,
1408129710953,-2.98143066532,7.69080241121,-0.57726122551,1.11022302463e-15,9.80664881985,1.55431223448e-15,
1408129710958,-2.85997883376,6.96046353896,-0.682579289018,1.13242748512e-14,9.80664954124,6.2172489379e-15,
1408129710985,-3.06701160598,6.47065811185,-0.939036635936,5.99520433298e-15,9.80665020495,4.4408920985e-15,
1408129710985,-3.52435473689,6.37412898036,-0.986653855493,1.7763568394e-15,9.80665062672,6.66133814775e-15,
1408129710986,-3.73101363323,6.83318304973,-0.917112589586,6.66133814775e-16,9.80664853266,8.881784197e-16,
1408129710998,-3.43556308374,7.8845687843,-0.674585036069,8.881784197e-16,9.80665084295,-9.10382880193e-15,
1408129711022,-2.71060920052,9.30238034116,-0.393772406944,3.33066907388e-15,9.80665145459,-1.33226762955e-15,
1408129711023,-1.95502336855,10.4669110441,-0.0184865373086,2.22044604925e-15,9.80664916142,-1.55431223448e-15,
1408129711026,-1.59742745286,10.5726973003,0.76070804077,6.88338275268e-15,9.80665101822,-6.2172489379e-15,
1408129711063,-2.03166665633,9.76982506547,1.01311343962,4.66293670343e-15,9.80664981936,-2.6645352591e-15,
1408129711063,-2.81984946772,9.25903097598,-0.0778485592095,4.21884749358e-15,9.80664903218,1.99840144433e-15,
1408129711064,-2.77907126028,9.48354853485,-0.978092437184,4.88498130835e-15,9.80665133831,4.66293670343e-15,
1408129711084,-2.46314020515,9.76020700098,-0.703052194624,4.66293670343e-15,9.80665036945,5.77315972805e-15,
1408129711084,-1.79322303172,9.71451568378,0.61184081379,3.10862446895e-15,9.80665058738,-8.881784197e-16,
1408129711086,-0.779786804666,10.1792137817,1.95962526844,2.6645352591e-15,9.80665107278,-2.22044604925e-15,
1408129711119,-1.13171876519,11.653242508,1.56689067535,4.4408920985e-15,9.80665171971,2.88657986403e-15,
1408129711120,-1.19304082817,11.6227943742,0.704013769138,1.33226762955e-15,9.80665126834,-4.4408920985e-16,
1408129711120,-0.518718333792,8.87025146604,0.719264815548,3.5527136788e-15,9.80665044864,8.881784197e-16,
1408129711126,0.281734660238,6.60584191075,0.168936953501,8.881784197e-16,9.80665061906,-3.77475828373e-15,
1408129711149,1.22143596224,5.69778583904,-0.369260729487,1.7763568394e-15,9.80665117526,4.21884749358e-15,
1408129711150,2.28534591804,6.38292977972,0.184941399425,3.5527136788e-15,9.80665036376,2.44249065418e-15,
1408129711166,2.69151500649,8.60318679663,0.686999264794,4.88498130835e-15,9.80665137935,1.11022302463e-15,
1408129711166,2.96888602474,12.1290633929,0.813946178107,-6.66133814775e-16,9.80665126362,5.10702591328e-15,
1408129711178,2.2463848321,16.7901732348,0.579911148645,0.0,9.80664987008,8.99280649946e-15,
1408129711194,1.12592385397,19.8407366054,1.24711499577,-3.33066907388e-15,9.80665092517,-4.4408920985e-15,
1408129711219,-0.628267222047,19.5841971164,1.94158358873,-5.3290705182e-15,9.80665007456,1.05471187339e-14,
1408129711220,-0.291532595581,19.5820127235,1.98853149161,8.881784197e-15,9.80665136642,-1.0325074129e-14,
1408129711221,0.808982993788,19.5485572172,1.32811769826,6.2172489379e-15,9.80664885566,-1.22124532709e-15,
1408129711226,1.31046218714,16.9579329661,0.501027913374,1.33226762955e-15,9.8066493044,-1.55431223448e-15,
1408129711255,1.53025617637,13.2398568214,-0.836465821672,-1.65423230669e-14,9.80664876326,1.3211653993e-14,
1408129711256,2.33905819262,11.3713375657,-2.02618793929,9.65894031424e-15,9.80665185889,-4.21884749358e-15,
1408129711260,3.78714165032,11.100092231,-1.45000551813,-1.32671651443e-14,9.80665175855,-8.881784197e-16,
1408129711286,3.79546287692,9.59983666156,-0.193422309454,2.77555756156e-16,9.80665016655,8.43769498715e-15,
1408129711292,3.02797069898,8.61892395684,-0.0791971043798,-1.72084568817e-15,9.8066496419,2.22044604925e-16,
1408129711293,2.64107798243,7.29857983372,-1.03517643974,1.26842980563e-14,9.80664977219,3.5527136788e-15,
1408129711325,1.50460621482,6.74576278048,-1.85329435753,2.09277040142e-14,9.80664950939,2.22044604925e-16,
1408129711326,0.261896209996,6.63651965033,-2.05786317376,1.86341740649e-12,9.80665001644,9.32587340685e-15,
1408129711327,-0.481245150142,6.91085170032,-1.68634381139,2.32869279415e-14,9.80664959799,-3.77475828373e-15,
1408129711328,-0.927789566759,6.76270463272,-1.04757689823,-3.13638004457e-14,9.80665196293,-6.66133814775e-16,
1408129711356,-1.00170270305,6.23812293383,-0.496082699144,2.99760216649e-15,9.80665159442,6.43929354283e-15,
1408129711357,-0.631742265484,5.55514756684,-0.234752803542,3.10862446895e-15,9.80665086372,2.44249065418e-15,
1408129711358,-0.472899652408,5.27630595411,-0.358258874497,-1.28785870857e-14,9.80664952388,-3.77475828373e-15,
1408129711379,-0.355162379153,5.05708681646,-0.296100185345,2.22044604925e-16,9.80665011547,-2.88657986403e-15,
1408129711380,-0.271684597698,4.8621583028,-0.0467895398274,2.77555756156e-15,9.80665154127,-3.33066907388e-15,
1408129711400,-0.203521988562,4.91295025685,0.0743217941366,2.55351295664e-15,9.80664982905,8.881784197e-16,
1408129711401,-0.375534642171,5.18908358416,-0.112817326294,4.99600361081e-15,9.80664972984,-1.11022302463e-15,
1408129711406,-0.478976256044,5.7459807176,-0.456401551426,1.1768364061e-14,9.8066490431,5.77315972805e-15,
1408129711427,-0.367223268745,6.12654437755,-0.566932778945,-8.99280649946e-15,9.8066506676,7.54951656745e-15,
1408129711428,-0.186652991556,6.20672051866,-0.573567731106,7.66053886991e-15,9.80665157544,8.881784197e-16,
1408129711444,-0.0974121003752,5.90623161968,-0.464902985701,-3.77475828373e-15,9.80665010681,1.33226762955e-15,
1408129711446,-0.0929626908574,5.81485478906,-0.445459613889,6.43929354283e-15,9.80665129664,-1.7763568394e-15,
1408129711458,-0.277340128338,6.01247960315,-0.75728049121,-6.2172489379e-15,9.80665161953,4.4408920985e-16,
1408129711474,-0.651126498899,6.29589523831,-1.26549498123,-1.7763568394e-15,9.80664964902,3.5527136788e-15,
1408129711477,-1.02551270778,6.50987583984,-1.86156971527,-2.22044604925e-15,9.80664954738,1.33226762955e-15,
1408129711494,-1.4332421424,6.78061920956,-2.42015971609,3.44169137634e-15,9.80665088729,-8.881784197e-16,
1408129711510,-1.83494876238,7.25401017864,-2.86002422131,9.99200722163e-16,9.80665034188,4.4408920985e-16,
1408129711510,-2.14000390117,8.12103618205,-2.98815044221,-4.4408920985e-16,9.80664955514,4.4408920985e-16,
1408129711526,-2.31184269343,9.33790724178,-2.86680019047,-1.60982338571e-14,9.80665136365,4.88498130835e-15,
1408129711526,-2.10459129,9.26234865275,-1.16109089258,-2.25375273999e-14,9.80665152845,-3.10862446895e-15,
1408129711541,-1.45993204307,9.62662016139,-0.763027011373,1.82076576039e-14,9.80665077552,-3.10862446895e-15,
1408129711546,-0.975653377146,11.7085287714,-0.891674577239,2.34257058196e-14,9.80665064325,1.11022302463e-15,
1408129711559,-1.25652600307,15.1885571998,-0.90719962203,-1.78745906965e-14,9.80665104632,-1.7763568394e-15,
1408129711581,-1.25922872054,18.645416713,0.208689500561,-1.7041923428e-14,9.80664995855,-4.66293670343e-15,
1408129711582,-1.62588773677,16.2863520557,0.280358672247,9.82547376793e-15,9.80665088843,2.44249065418e-15,
1408129711586,-3.13477751568,12.8074462464,-1.96441317078,-2.15383266777e-14,9.80664917687,-3.10862446895e-15,
1408129711614,-3.39956789102,13.6798516365,-6.09462001336,-1.59872115546e-14,9.80664931821,-1.33226762955e-15,
1408129711615,-0.775095578047,19.8561701602,-5.69245930325,2.88657986403e-15,9.80665039264,0.0,
1408129711620,0.288835747,19.2882505666,2.96920301377,-7.54951656745e-15,9.80665046643,4.4408920985e-15,
1408129711626,2.41257024052,15.6185765771,4.92039276025,4.88498130835e-15,9.80665059338,2.6645352591e-15,
1408129711648,4.7616955738,13.5407235935,2.29677714716,2.22044604925e-16,9.80665059281,0.0,
1408129711648,4.93648460819,11.2510266409,0.778408280806,-1.33226762955e-15,9.80665118278,-1.33226762955e-15,
1408129711658,5.31283456645,8.35590049289,-0.319975644071,-4.66293670343e-15,9.80665066709,3.5527136788e-15,
1408129711681,5.14734708745,7.76700016647,-0.19120771795,-1.66533453694e-15,9.80665002005,1.33226762955e-15,
1408129711682,4.65900465129,7.88649384064,1.10610148945,-8.881784197e-15,9.80665072139,0.0,
1408129711686,4.08535441651,7.86065840987,2.1840511442,6.66133814775e-16,9.80664939029,8.881784197e-16,
1408129711720,3.40390636782,8.43218682879,2.66273273794,-2.18713935851e-14,9.8066496538,-8.881784197e-16,
1408129711721,2.92727024013,8.74188792837,3.00323074216,9.65894031424e-15,9.80665118204,-1.33226762955e-15,
1408129711722,1.87174889333,9.81890663774,2.57964073148,-7.93809462607e-15,9.80665037702,1.7763568394e-15,
1408129711727,0.624134273917,10.5823907375,1.55318074907,1.92623694772e-14,9.80665192904,-1.7763568394e-15,
1408129711748,-0.177067396404,10.5481140768,1.17613593652,1.78190795452e-14,9.80665088058,0.0,
1408129711749,-0.456313961762,10.4139458352,1.52138612382,-1.40998324127e-14,9.80664987242,3.99680288865e-15,
1408129711758,-0.700869575598,10.3097219734,1.70196483569,8.04911692853e-15,9.80664907405,4.4408920985e-16,
1408129711783,-0.607869748445,10.1140513207,1.45758994938,-2.72004641033e-15,9.80665081474,2.6645352591e-15,
1408129711784,-0.37810379677,9.89023001568,0.659948786343,-1.4155343564e-14,9.80664953124,1.7763568394e-15,
1408129711786,0.091417487747,9.27676313749,0.243178175935,4.03010957939e-14,9.80664936085,4.4408920985e-15,
1408129711819,0.647544677181,8.4126183459,0.366030026704,-5.77315972805e-15,9.80665001643,0.0,
1408129711820,0.919809051773,7.65577890033,0.612808083453,-4.25770529944e-14,9.80665140042,-2.22044604925e-15,
1408129711820,1.24503487564,7.33566388129,0.944167901883,2.21382807919e-12,9.80664987448,7.1054273576e-15,
1408129711826,1.71207795593,7.1170101626,1.42130330576,1.16351372981e-13,9.8066512694,-3.10862446895e-15,
1408129711849,1.9963593933,6.91765919728,1.63206562262,2.60902410787e-14,9.80665021836,-4.4408920985e-15,
1408129711850,2.05193962227,6.96776785477,1.55544677143,-1.70974345792e-14,9.80664924656,0.0,
1408129711859,1.89939987101,7.32259707726,1.26342158415,1.75415237891e-14,9.80665022701,3.10862446895e-15,
1408129711878,1.53034036064,7.56929881353,1.07401072215,4.27435864481e-15,9.80665094962,8.881784197e-16,
1408129711879,1.15368653026,7.62915555082,1.13505633237,-1.08801856413e-14,9.80664953273,5.77315972805e-15,
1408129711894,0.757745204607,7.60838125617,1.25849414917,1.87627691162e-14,9.80665117352,5.99520433298e-15,
1408129711916,0.37968754593,7.54477314082,1.45926283808,1.11022302463e-15,9.80665010788,-1.33226762955e-15,
1408129711916,-0.0615962638113,7.43920719172,1.45165779355,-1.05471187339e-14,9.80665142415,-4.21884749358e-15,
1408129711918,-0.410399888752,7.65998583792,1.26104345174,1.11022302463e-14,9.80665028322,5.99520433298e-15,
1408129711926,-0.789622537692,7.97023534284,1.00652874969,5.99520433298e-15,9.80665187612,5.77315972805e-15,
1408129711941,-1.40383968048,7.98888542664,0.625393214578,7.21644966006e-15,9.80664995793,1.55431223448e-15,
1408129711956,-2.09130744219,8.20272635314,0.200587956297,1.66533453694e-15,9.80664971398,8.21565038223e-15,
1408129711958,-2.31595799247,7.87636794857,-0.230280295145,1.31006316906e-14,9.80664995141,4.4408920985e-15,
1408129711977,-2.18206021025,7.62942524823,-0.520544503481,2.88657986403e-15,9.80664998783,8.21565038223e-15,
1408129711991,-2.02386878126,7.91917062566,-0.675000228851,-2.6645352591e-15,9.80664990035,6.2172489379e-15,
1408129711992,-1.94320291968,7.9078123863,-0.483202506642,8.43769498715e-15,9.80665051982,7.54951656745e-15,
1408129712009,-2.01250666347,7.21729420833,-0.258593188862,5.99520433298e-15,9.80665070943,-4.4408920985e-15,
1408129712009,-2.39066250643,6.91865321427,-0.0513808637128,1.1768364061e-14,9.80665071416,-2.22044604925e-15,
1408129712023,-2.83642293379,6.88506595888,-0.0321202514441,-7.9936057773e-15,9.80665077687,6.43929354283e-15,
1408129712026,-3.13968012086,7.25331238628,-0.219049648987,2.44249065418e-15,9.8066525231,-3.99680288865e-15,
1408129712041,-3.32665744409,7.96852187515,-0.0681297385213,0.0,9.80665050117,-3.33066907388e-15,
1408129712057,-3.20351482997,8.52763440058,-0.260729479469,-7.1054273576e-15,9.80664976101,-5.3290705182e-15,
1408129712058,-2.95833482888,8.82379527463,-0.977859201023,-1.33226762955e-15,9.80664963019,2.22044604925e-16,
1408129712079,-2.47193881765,9.20359621135,-1.14366436235,4.4408920985e-16,9.80665077104,6.43929354283e-15,
1408129712079,-1.40143540291,9.55151342375,-0.823281101152,-3.99680288865e-15,9.80665180626,7.1054273576e-15,
1408129712100,-0.947878205158,9.43766381064,0.123154791053,7.9936057773e-15,9.80664884435,0.0,
1408129712100,-1.85241981862,9.03299311634,1.38216701131,-3.10862446895e-15,9.80665034649,-1.99840144433e-15,
1408129712107,-4.17267100513,8.59524319538,1.26226781333,-1.33226762955e-15,9.80664953985,1.99840144433e-15,
1408129712126,-5.28015216381,8.81795706647,-0.117745099746,1.33226762955e-15,9.80665017461,3.10862446895e-15,
1408129712127,-4.03373435699,9.48785958554,-1.27564023815,6.2172489379e-15,9.80665115803,9.99200722163e-15,
1408129712143,-2.6669371404,10.2800038263,-0.80711005841,6.2172489379e-15,9.80664979969,-1.7763568394e-15,
1408129712158,-1.90064210587,11.4416120942,-1.10363877249,6.2172489379e-15,9.80665019102,-3.10862446895e-15,
1408129712161,-0.676859562294,11.95447239,-1.53402314316,1.7763568394e-15,9.80664935455,1.11022302463e-15,
1408129712181,-0.383103248511,10.886642517,-0.374966482362,1.33226762955e-15,9.8066503687,8.65973959208e-15,
1408129712182,-1.20898190631,9.70201571738,0.319326578219,4.4408920985e-16,9.80665020278,8.881784197e-16,
1408129712187,-1.24263031903,9.61836784072,0.710858548293,-1.33226762955e-15,9.8066495547,-1.33226762955e-15,
1408129712212,-0.56214296932,9.61747459349,2.34902030101,6.2172489379e-15,9.80665036965,-1.33226762955e-15,
1408129712213,0.174200386456,9.18703689643,3.32980595724,8.881784197e-16,9.80664956032,1.33226762955e-15,
1408129712219,0.899860707462,8.92811652712,3.01700283546,3.5527136788e-15,9.80664985116,-8.881784197e-15,
1408129712227,1.22052934667,9.57671799968,2.9592755856,2.22044604925e-16,9.80664887703,-4.88498130835e-15,
1408129712247,1.23287366087,11.43632305,2.94326304442,-8.881784197e-16,9.80665201207,7.77156117238e-15,
1408129712248,1.57790212284,14.7934602173,2.60854828675,8.21565038223e-15,9.80665100535,-3.99680288865e-15,
1408129712258,1.52158521876,18.9470785984,2.44686939683,-2.44249065418e-15,9.80664798803,-4.21884749358e-15,
1408129712285,2.58689212104,20.131953374,2.13125167807,-6.2172489379e-15,9.80665006079,2.25375273999e-14,
1408129712286,3.92478554572,20.2849194794,1.48268377444,4.4408920985e-16,9.80665262613,9.99200722163e-16,
1408129712287,4.64240763425,17.8050169231,0.199760603464,1.1990408666e-14,9.80665129298,-5.66213742559e-15,
1408129712322,4.61986885204,13.6038391554,-1.32889690548,7.1054273576e-15,9.80665086258,-6.43929354283e-15,
1408129712323,4.26936356775,9.91905764355,-2.29143713238,2.88657986403e-15,9.80665130958,-8.881784197e-15,
1408129712323,3.90199017675,9.05349908947,-2.21947453605,1.99840144433e-15,9.80665083798,3.5527136788e-15,
1408129712327,4.39081735011,10.168738639,-1.0737826182,-4.21884749358e-15,9.80664993003,-2.22044604925e-16,
1408129712345,3.76133361695,10.8783707006,-0.175714630589,-1.7763568394e-15,9.80665081637,1.7763568394e-15,
1408129712347,2.60471523974,9.78796438181,-0.191373236485,3.77475828373e-15,9.80664967977,7.54951656745e-15,
1408129712359,1.32525220603,8.23676240858,-0.714160936071,-6.55031584529e-15,9.80665021706,5.77315972805e-15,
1408129712383,0.196549520399,7.38705034559,-1.313774223,6.2172489379e-15,9.80665046651,7.77156117238e-15,
1408129712384,-1.11736218456,7.49543679864,-1.5139884391,-3.34177130412e-14,9.80665038264,-4.4408920985e-16,
1408129712387,-2.10728242571,8.22070978939,-1.27994595512,-1.02140518266e-14,9.80664913637,4.88498130835e-15,
1408129712412,-2.69385213549,8.88197713495,-0.702996443534,7.37465644107e-14,9.80665111707,-8.881784197e-16,
1408129712414,-2.44294672674,8.16556195873,0.00247155268894,9.60204138423e-14,9.80665111704,-6.2172489379e-15,
1408129712419,-2.2644314839,7.22628747254,0.174854712885,1.9928503292e-14,9.80665042221,-5.10702591328e-15,
1408129712427,-1.72999724737,6.41465130474,0.225601277777,4.99600361081e-15,9.80665003674,9.10382880193e-15,
1408129712441,-1.34374765526,5.43424483068,-0.00416100881323,-2.10942374679e-15,9.8066496366,5.99520433298e-15,
1408129712458,-1.17676861212,4.8501452837,-0.345708109889,-3.65818486614e-14,9.80665121304,2.22044604925e-16,
1408129712460,-0.983830289605,4.18491659113,-0.659845304484,-6.16173778667e-15,9.80665040263,-2.22044604925e-15,
1408129712479,-0.668015710907,3.65527559426,-1.02328355138,2.99760216649e-15,9.80664969459,7.1054273576e-15,
1408129712479,-0.426277494273,3.36469846929,-1.28807391699,1.60427227058e-14,9.80665061594,7.1054273576e-15,
1408129712487,-0.45370935865,3.23244021264,-1.44424210871,-2.05391259556e-15,9.80665103868,-5.55111512313e-15,
1408129712509,-0.470961399052,3.27793509308,-1.49740764034,-6.77236045021e-15,9.80665148163,0.0,
1408129712510,-0.529279528892,3.60169172438,-1.54866857397,-1.20459198172e-14,9.80665128348,1.33226762955e-15,
1408129712525,-0.71403006511,3.98486065331,-1.52288006765,2.55906407176e-14,9.80665055918,1.7763568394e-15,
1408129712542,-0.935022038721,4.29750154459,-1.77592087986,1.27675647832e-15,9.80665058139,-5.99520433298e-15,
1408129712543,-1.2170533984,4.76927885186,-2.09666528536,-1.07136521876e-14,9.8066508217,2.88657986403e-15,
1408129712564,-1.56850353546,5.54281400864,-2.39928801353,-1.23234755733e-14,9.80665192866,-1.55431223448e-15,
1408129712565,-1.98136395283,6.60852655439,-2.50289036702,8.04911692853e-15,9.80664984293,1.11022302463e-15,
1408129712567,-2.42884698919,8.02979398956,-2.26426200011,3.66373598126e-15,9.80665048448,3.77475828373e-15,
1408129712590,-2.95999690543,9.78689183918,-2.2354963295,2.34257058196e-14,9.80665048421,5.3290705182e-15,
1408129712591,-3.19899533663,11.2440011787,-2.40113241095,-5.10702591328e-15,9.80664972929,5.3290705182e-15,
1408129712608,-3.02330568043,12.0037564838,-1.96643369617,-3.38618022511e-15,9.80664935404,-8.43769498715e-15,
1408129712609,-2.68709863705,12.0047506012,-1.47328911609,1.11577413975e-14,9.80665091913,1.7763568394e-15,
1408129712629,-2.25890001294,12.5955116844,-1.36459611828,-3.76643161104e-14,9.80665115931,0.0,
1408129712630,-1.68397157073,14.4415148986,-0.69526394587,4.13002965161e-14,9.80665019737,-2.22044604925e-16,
1408129712640,-1.0230746893,18.7093146732,0.25130732452,3.96072064035e-14,9.80665069879,-2.44249065418e-15,
1408129712662,-0.695921818824,19.3452462451,2.00858039523,-2.22044604925e-15,9.8066502271,2.6645352591e-15,
1408129712662,-1.88128898884,16.7639513325,2.46917328821,2.83384427036e-14,9.80665039115,1.99840144433e-15,
1408129712668,-3.69607766237,13.3812144182,0.249659658854,-1.69864122768e-14,9.80665113548,-2.6645352591e-15,
1408129712697,-4.03115664344,11.3619029858,-3.63573600599,7.60502771868e-15,9.80665026912,4.4408920985e-16,
1408129712698,-2.05995914334,12.5367352439,-8.15457579887,-2.77555756156e-16,9.80665113326,3.77475828373e-15,
1408129712702,0.392423009696,17.2039628436,-5.26481407964,1.83186799063e-14,9.8066498306,2.22044604925e-15,
1408129712708,1.75997955634,17.9901365135,1.60091879257,-1.55431223448e-15,9.80664978947,-3.5527136788e-15,
1408129712728,5.38717054682,15.2818295441,2.59627095381,1.14352971536e-14,9.80665139143,2.6645352591e-15,
1408129712729,7.08024901542,14.0584887668,3.18521375618,1.83186799063e-14,9.80665159198,8.881784197e-16,
1408129712739,7.05037585616,12.8359094414,3.65630254454,-1.45439216226e-14,9.80665081944,1.33226762955e-15,
1408129712760,6.33763541236,10.4223935576,3.29748968334,-1.84297022088e-14,9.8066503256,0.0,
1408129712761,5.84318545047,8.88576651343,2.80023115844,-1.7763568394e-15,9.80665042074,3.10862446895e-15,
1408129712780,5.27307306858,7.8326004789,2.48585834305,-3.0475622026e-14,9.80665070497,1.7763568394e-15,
1408129712781,4.53994410398,7.3652211862,2.00123551114,-5.21804821574e-15,9.8066510272,6.2172489379e-15,
1408129712788,3.51246434459,7.85821294193,1.27492934609,6.38378239159e-15,9.80664986779,2.22044604925e-15,
1408129712817,2.60827340985,8.21808413718,1.51702900564,1.40998324127e-14,9.80665043703,-2.22044604925e-15,
1408129712818,1.53216904219,8.4004690856,1.48902184942,-7.72992780895e-15,9.8066513329,1.33226762955e-15,
1408129712820,0.20546300217,7.96313855686,1.00478974761,-2.07681094544e-13,9.80665040499,-3.99680288865e-15,
1408129712845,-0.429626884777,7.57347843342,0.872514826745,-8.16405970605e-13,9.80664971075,1.7763568394e-15,
1408129712845,-0.616503028037,7.84707872737,0.931073866525,-5.73846525853e-15,9.80665083097,0.0,
1408129712848,-0.358165011119,8.46947993704,0.992793996443,-1.89293025699e-14,9.80665113976,5.3290705182e-15,
1408129712859,0.0255361096689,8.83256839613,1.1510768005,2.05946371068e-14,9.80664892671,6.2172489379e-15,
1408129712879,0.357253707126,8.50509903259,0.947624818471,-2.94764213038e-14,9.80665045896,5.3290705182e-15,
1408129712883,0.626277813713,8.29316538601,0.740823222204,-2.26485497024e-14,9.80665072496,1.55431223448e-15,
1408129712888,0.663974418207,8.12639418558,0.594234016142,1.18793863635e-14,9.80664991494,-2.22044604925e-15,
1408129712913,0.600700545474,7.81502278431,0.814694904858,1.65978342181e-14,9.80665114144,3.10862446895e-15,
1408129712914,0.917775204945,7.71736800832,1.28846194177,-1.58761892521e-14,9.80665034353,2.22044604925e-15,
1408129712919,1.19710166913,8.0853629676,1.41664547148,8.99280649946e-15,9.80665121556,-4.88498130835e-15,
1408129712945,1.37219444083,8.39161543186,1.29450957837,-5.3290705182e-15,9.80665098721,8.881784197e-15,
1408129712946,1.43335104555,8.78265161753,1.35359068328,9.99200722163e-16,9.80664873776,1.08801856413e-14,
1408129712948,1.41868300379,8.85103933201,1.2702255685,-6.43929354283e-15,9.80665070198,0.0,
1408129712960,1.31242996159,8.5169321483,1.29806317025,-5.44009282066e-15,9.80664890647,8.881784197e-16,
1408129712985,1.35623418971,7.95940943851,1.13235893137,6.77236045021e-15,9.80665073117,8.881784197e-15,
1408129712986,1.16610375205,7.13298572553,0.960495472967,3.77475828373e-15,9.80665003221,1.7763568394e-15,
1408129712988,-0.243434013348,6.6198827415,1.05495547742,1.7763568394e-15,9.80665143543,7.1054273576e-15,
1408129713020,-0.925656041793,7.67242249574,1.03405777598,6.2172489379e-15,9.80664945846,2.22044604925e-16,
1408129713021,-1.47991291054,8.65471036622,0.821561614833,-6.43929354283e-15,9.80665152497,-5.77315972805e-15,
1408129713047,-2.45037857371,9.32667408135,0.527374077234,4.66293670343e-15,9.80664985807,1.11022302463e-15,
1408129713048,-3.18963309762,9.68208581972,0.443972014978,4.66293670343e-15,9.80664985807,1.11022302463e-15,
1408129713049,-3.54206614508,9.21893961142,0.196601049991,4.66293670343e-15,9.80664985807,1.11022302463e-15,
1408129713049,-3.81624208047,8.70841970957,-0.221719758885,7.32747196253e-15,9.80665020821,-1.7763568394e-15,
1408129713079,-3.68948257398,8.26792711209,-0.757208019358,3.99680288865e-15,9.80665051721,-2.6645352591e-15,
1408129713080,-3.21701986565,7.77802467665,-1.02922413798,8.21565038223e-15,9.80665114525,-3.77475828373e-15,
1408129713080,-2.5132776154,7.48740274155,-0.953575036772,-5.99520433298e-15,9.8066506177,-6.66133814775e-16,
1408129713088,-1.55039515232,7.36655721378,-0.781712526128,2.6645352591e-15,9.80665012246,6.66133814775e-16,
1408129713112,-0.937091435349,7.11223209831,-0.540830779963,5.77315972805e-15,9.80665001594,1.7763568394e-15,
1408129713112,-1.16592979907,7.10055450462,-0.387633791246,3.33066907388e-15,9.80665102169,-1.55431223448e-15,
1408129713120,-1.55507292607,7.03259580465,-0.429684783023,4.66293670343e-15,9.8066507018,1.04360964315e-14,
1408129713145,-2.03138036527,6.94851678459,-0.506050166231,-6.66133814775e-16,9.80665267024,-8.881784197e-16,
1408129713145,-2.27647362782,7.21359954186,-1.06878862384,8.21565038223e-15,9.80664969583,1.11022302463e-15,
1408129713148,-2.3683299071,7.96332305807,-1.05169821868,4.88498130835e-15,9.80665022161,0.0,
1408129713180,-2.39531378636,8.93688652158,-0.177520333205,6.66133814775e-15,9.80665132093,-5.77315972805e-15,
1408129713181,-2.85814269044,9.43759006344,0.925852890694,0.0,9.80664940031,-3.10862446895e-15,
1408129713182,-4.03615111741,9.05827819049,1.57213655925,-2.6645352591e-15,9.80665102752,1.11022302463e-15,
1408129713188,-5.42294396546,8.68928009332,1.02970012781,2.22044604925e-15,9.80664966541,1.55431223448e-15,
1408129713215,-5.33629273111,8.94847501408,-0.203349432505,0.0,9.8066500694,-6.43929354283e-15,
1408129713216,-4.00484289738,9.51684226442,-0.737214206496,1.7763568394e-15,9.80665140157,2.22044604925e-15,
1408129713220,-2.39354561709,10.1245809727,-0.228890658455,-1.7763568394e-15,9.80664884407,-4.4408920985e-16,
1408129713245,-1.80728994584,10.9045502488,-0.0634419226824,1.7763568394e-15,9.80665111296,3.99680288865e-15,
1408129713245,-1.18463051279,11.586624039,-0.675543271348,-4.4408920985e-16,9.80665093876,4.4408920985e-16,
1408129713248,-0.425497355675,10.81336002,0.0260935794181,6.2172489379e-15,9.80664943828,8.881784197e-16,
1408129713280,-0.384938626815,9.24729497132,1.05560341582,4.88498130835e-15,9.80665018835,-1.11022302463e-15,
1408129713280,-0.382283406932,8.6737649584,0.204210450126,4.4408920985e-15,9.80665152155,5.10702591328e-15,
1408129713281,0.238117647551,7.99613921792,-0.0969832329784,1.33226762955e-15,9.80665080668,1.99840144433e-15,
1408129713288,1.52586271251,7.37605609238,0.515070680511,4.4408920985e-15,9.80665185767,3.77475828373e-15,
1408129713314,2.61900550391,7.72925369244,1.22335595999,1.33226762955e-15,9.80664989742,-3.5527136788e-15,
1408129713315,3.16640518123,9.48544700371,1.69693397056,6.66133814775e-16,9.80665031985,5.99520433298e-15,
1408129713320,2.66484017349,12.4078311913,1.48178685158,2.6645352591e-15,9.80665183472,-2.88657986403e-15,
1408129713345,1.9254513851,16.6785297489,1.04955957844,3.10862446895e-15,9.80665133402,1.1768364061e-14,
1408129713346,0.925451839265,19.8321107998,1.75043975672,-5.77315972805e-15,9.80665123099,-7.1054273576e-15,
1408129713348,1.26815358201,19.8671445637,2.41186665446,5.3290705182e-15,9.80664975369,4.99600361081e-15,
1408129713379,2.95735653441,20.0703457899,1.83303036961,2.6645352591e-15,9.80665027428,-6.99440505514e-15,
1408129713380,3.89484745099,18.3152396413,0.389743804996,7.32747196253e-15,9.80665012324,7.32747196253e-15,
1408129713381,4.13624434339,14.389913754,-1.2827922367,-1.22124532709e-15,9.80665044324,1.36557432029e-14,
1408129713388,3.69243700991,10.7621528872,-2.44633651442,-3.10862446895e-15,9.8066500525,-3.10862446895e-15,
1408129713416,2.85749702403,9.1619798769,-2.41155100543,-9.32587340685e-15,9.80665030626,-1.37667655054e-14,
1408129713417,3.07991056886,10.0793895494,-1.48668486877,9.99200722163e-16,9.80665024403,-1.13242748512e-14,
1408129713423,2.82569723493,10.0498238332,-0.764357385183,9.99200722163e-15,9.80665026079,-5.55111512313e-15,
1408129713450,1.5120970097,9.52105176262,-1.10647715385,1.06581410364e-14,9.8066506689,-4.66293670343e-15,
1408129713450,0.373496932947,7.8643578864,-1.63060082058,-2.24820162487e-14,9.80664998274,3.10862446895e-15,
1408129713451,-0.643208152668,7.46813975493,-1.86991926107,-1.3933298959e-14,9.80665165922,7.32747196253e-15,
1408129713484,-1.4253793039,7.99856122272,-1.73171005238,7.05546732149e-14,9.8066508315,1.08801856413e-14,
1408129713485,-2.0588211012,8.90306027274,-1.22742086011,-8.59405623922e-12,9.8066515253,2.6645352591e-15,
1408129713486,-2.33725933783,9.51713729464,-0.524803753433,-3.90243393156e-14,9.80665135958,-4.4408920985e-16,
1408129713489,-2.19677830379,9.41641678532,0.131233425406,-5.55111512313e-16,9.80665070001,-6.2172489379e-15,
1408129713517,-1.6927413995,8.40643545276,0.67796318442,5.99520433298e-15,9.80665024424,3.33066907388e-15,
1408129713517,-1.2234272133,7.42782776212,0.722052230039,1.1768364061e-14,9.80665159839,7.77156117238e-15,
1408129713520,-0.893284286107,6.45745586931,0.403266501065,7.32747196253e-15,9.80665064656,5.99520433298e-15,
1408129713536,-0.699638742207,5.55420764194,-0.062465592611,-2.6645352591e-15,9.80665049064,2.22044604925e-15,
1408129713540,-0.605203449204,5.02915851417,-0.50395289599,5.77315972805e-15,9.80665021198,5.55111512313e-15,
1408129713553,-0.511432900284,4.72228274744,-0.793323584233,-5.99520433298e-15,9.80665055123,2.6645352591e-15,
1408129713576,-0.389100008858,4.46418460562,-1.02525956059,2.33146835171e-15,9.80665066154,4.4408920985e-15,
1408129713576,-0.348480785618,4.43328403374,-1.21571866486,3.33066907388e-16,9.80665061298,3.10862446895e-15,
1408129713580,-0.253336292945,4.47168738046,-1.37958414034,1.35447209004e-14,9.80664986771,-3.99680288865e-15,
1408129713589,-0.122882755776,4.46497950613,-1.41989916778,-1.42108547152e-14,9.80665035291,0.0,
1408129713618,-0.0935012434851,4.60819165195,-1.30403806385,9.7699626167e-15,9.80665057773,2.22044604925e-15,
1408129713619,-0.262002339743,5.00189436141,-1.24952313128,-6.99440505514e-15,9.80664966471,3.10862446895e-15,
1408129713620,-0.573872245395,5.52559158956,-1.26469392986,-5.10702591328e-15,9.80665028445,7.32747196253e-15,
1408129713647,-0.984346635687,6.05481184409,-1.26242298,-7.66053886991e-15,9.80665091421,-8.881784197e-16,
1408129713648,-1.32276218733,6.5050379377,-1.41408325614,-1.14352971536e-14,9.80665150676,8.881784197e-16,
1408129713649,-1.67429466135,7.07402218477,-1.85698879208,1.86517468137e-14,9.80665043533,6.66133814775e-16,
1408129713683,-1.90430143627,7.73579501468,-2.39279569648,-6.43929354283e-15,9.8066502416,-1.7763568394e-15,
1408129713684,-1.96554200384,8.31461384728,-2.66593968487,2.84772205816e-14,9.80665155468,3.5527136788e-15,
1408129713685,-1.66173833956,8.89390503364,-2.37173686671,-6.2172489379e-15,9.80665051054,3.10862446895e-15,
1408129713689,-0.724990655171,9.23901719846,-1.76912879517,2.27040608536e-14,9.80665164606,9.54791801178e-15,
1408129713716,-0.236944994934,9.42434547053,-1.43074162878,1.9928503292e-14,9.80665112714,5.10702591328e-15,
1408129713717,0.0307497574875,10.6808379508,-1.23500117157,-2.57294185957e-14,9.80665085546,-2.88657986403e-15,
1408129713721,-0.0445738437268,13.7661192821,-0.89671309953,-7.08044733955e-14,9.80665065944,4.4408920985e-16,
1408129713744,-0.351927514982,18.1981544673,-0.0612158091478,3.20854454117e-14,9.80665033223,-5.55111512313e-15,
1408129713745,-0.779858514553,19.1804843384,1.55520364322,-2.77555756156e-17,9.80664959958,6.66133814775e-16,
1408129713749,-1.55861289281,15.9609986353,1.89785907229,5.41233724505e-15,9.80665090498,-4.4408920985e-16,
1408129713781,-2.91912908736,12.8631940895,-0.0278925011957,-1.90958360236e-14,9.80664930866,5.77315972805e-15,
1408129713782,-3.01655487963,12.8954434622,-4.92934997159,1.47659662275e-14,9.80665169128,1.11022302463e-15,
1408129713783,-1.50068109597,17.8361407331,-6.77655613761,7.16093850883e-15,9.806650816,3.5527136788e-15,
1408129713789,0.558756229254,20.2227837518,-1.28165970722,-3.21964677141e-15,9.80665049789,-2.44249065418e-15,
1408129713815,3.64512062745,18.2035801579,2.53791401682,1.09912079438e-14,9.80665124676,-3.5527136788e-15,
1408129713815,5.19153522355,15.5468376772,2.48033446562,1.60982338571e-14,9.80664999729,1.7763568394e-15,
1408129713820,5.07417478896,12.3898053903,2.15737512408,-2.10942374679e-14,9.8066513006,5.10702591328e-15,
1408129713845,4.83236243215,8.85918483158,1.31016808073,-6.10622663544e-15,9.80665056865,3.99680288865e-15,
1408129713846,4.37182378959,7.04406552241,0.391802467701,-4.4408920985e-16,9.80665146986,4.4408920985e-16,
1408129713849,3.62297192991,6.66926561316,0.132888487537,-9.7699626167e-15,9.80665014477,-4.4408920985e-16,
1408129713878,3.16198786979,6.17809183883,0.626793167816,-2.33146835171e-15,9.80664967507,6.66133814775e-15,
1408129713879,2.9948465653,5.80472466741,0.464132322847,-1.06581410364e-14,9.80665186061,-4.4408920985e-16,
1408129713880,2.70497155626,6.1577707016,-0.0188237590172,-2.04281036531e-14,9.80664952787,4.88498130835e-15,
1408129713889,2.075797853,7.05367638794,0.332101278278,1.65423230669e-14,9.80665082429,-3.10862446895e-15,
1408129713915,1.06553951396,8.26360317504,0.750216369056,1.23789867246e-14,9.80665123152,4.4408920985e-15,
1408129713916,0.0863186557897,8.91988631623,0.652132399337,-8.43769498715e-15,9.80665092446,3.99680288865e-15,
1408129713921,-0.743315981592,9.56484325301,0.69951412528,1.81521464526e-14,9.80664897108,4.4408920985e-15,
1408129713950,-0.884243977339,10.5662128365,1.28413930215,-1.94844140822e-14,9.80664912151,-4.4408920985e-16,
1408129713951,-0.594399453369,11.468724054,1.85009323452,1.04916075827e-14,9.80665137173,1.06581410364e-14,
1408129713952,0.00177641368524,11.2801700334,2.18508707981,-2.63122856836e-14,9.80665137189,-6.66133814775e-16,
1408129713985,0.801763646098,10.4860612302,1.9313815255,-4.59077220683e-14,9.80665015595,-3.5527136788e-15,
1408129713987,1.58541602333,9.68661131493,1.53255255753,8.79851747015e-15,9.80664951987,4.21884749358e-15,
1408129713988,1.90686215786,8.76138635024,1.10997720235,2.30843122395e-13,9.80665199115,2.88657986403e-15,
1408129713989,1.88231531049,8.01159331447,0.574549223235,1.02140518266e-13,9.80665008387,-5.77315972805e-15,
1408129714018,1.84904640825,7.67242418031,0.495320962249,1.91791027504e-14,9.80665164207,4.4408920985e-16,
1408129714018,1.79449104703,7.67323667676,0.659917965066,4.34652314141e-14,9.80665160568,-2.22044604925e-16,
1408129714022,1.76395901047,7.56953102283,0.702885367961,-2.88657986403e-14,9.80665062097,-5.3290705182e-15,
1408129714046,1.42382590996,7.64042083872,0.636393656517,5.55111512313e-16,9.80665190902,2.44249065418e-15,
1408129714047,0.916870615348,7.80244649469,0.280755073581,1.06581410364e-14,9.80665096179,-9.7699626167e-15,
1408129714049,0.362431959172,8.03646934117,0.156650898903,2.05391259556e-14,9.80665068821,-8.881784197e-15,
1408129714089,0.33119084358,7.72578973966,0.446499465147,9.43689570931e-15,9.80665182499,9.32587340685e-15,
1408129714091,0.351907822211,7.42014644748,0.69532939941,-3.66373598126e-15,9.8066493806,0.0,
1408129714092,0.100139800002,7.60512419627,0.756271001505,8.881784197e-16,9.80665149326,-1.1768364061e-14,
1408129714093,-0.0337648938934,7.88744305848,1.01762138704,-5.99520433298e-15,9.806650019,5.55111512313e-15,
1408129714111,-0.390493876612,8.29037899302,1.10045232626,-4.32986979604e-15,9.80665036453,3.10862446895e-15,
1408129714111,-1.13589322266,8.98445240847,0.76580352032,-1.11022302463e-16,9.8066502671,-6.43929354283e-15,
1408129714121,-1.69969655472,8.85671157598,0.560323726093,5.77315972805e-15,9.8066512772,2.22044604925e-15,
1408129714137,-1.96591352594,8.11816064652,0.613867030948,8.65973959208e-15,9.80664989314,-1.33226762955e-14,
1408129714152,-1.96540601222,7.60305370776,0.114272337483,6.43929354283e-15,9.80665006231,3.77475828373e-15,
1408129714153,-1.93118081734,7.44447653307,-0.506216983176,-3.77475828373e-15,9.80665062067,3.99680288865e-15,
1408129714181,-1.70533320573,7.34283702506,-0.829132512423,1.33226762955e-15,9.80665031186,-3.5527136788e-15,
1408129714182,-1.56304453739,7.16341706361,-0.896159935682,5.55111512313e-15,9.80664969239,1.33226762955e-15,
1408129714183,-1.53583982739,6.94111394713,-0.80320200356,4.4408920985e-15,9.80665091401,5.99520433298e-15,
1408129714191,-1.75315369422,6.98438844078,-0.571421507277,6.43929354283e-15,9.80664866254,3.10862446895e-15,
1408129714216,-2.13918008991,7.22940524191,-0.417153637021,-5.99520433298e-15,9.80665125669,1.33226762955e-15,
1408129714216,-2.59247913222,7.58862049299,-0.199975598334,-2.44249065418e-15,9.80664977708,-7.9936057773e-15,
1408129714223,-2.96118653091,7.92768694651,0.126906655099,-1.33226762955e-15,9.80665143394,2.6645352591e-15,
1408129714246,-3.16746489404,8.28356160164,-0.0448884659505,-1.11022302463e-15,9.80664941435,1.7763568394e-15,
1408129714247,-3.38251421135,8.41691413187,-0.374127543421,1.04360964315e-14,9.80664911436,2.6645352591e-15,
1408129714249,-3.08957767108,8.40959120274,-0.563020777634,1.55431223448e-15,9.80664949843,4.21884749358e-15,
1408129714269,-2.68123936213,8.85573867615,-0.793752729402,7.77156117238e-15,9.80665098843,8.881784197e-16,
1408129714270,-2.80539825282,9.0736376521,-0.443682381869,-2.6645352591e-15,9.80665063119,-4.4408920985e-15,
1408129714286,-3.55473947239,8.66226258119,0.206785671115,8.881784197e-16,9.80665149488,-3.10862446895e-15,
1408129714290,-4.31393203417,8.57401608372,-0.146439837693,3.33066907388e-15,9.80665121993,3.5527136788e-15,
1408129714331,-4.25828891959,9.10019354579,-0.87257730199,2.44249065418e-15,9.80664939733,8.881784197e-16,
1408129714333,-3.3103754837,10.1022193438,-0.981173070826,0.0,9.80664979785,8.21565038223e-15,
1408129714334,-2.53603266613,11.3111456084,-0.379450040591,2.88657986403e-15,9.80665260285,-1.11022302463e-15,
1408129714335,-2.35699221068,12.4442229773,-0.463091404629,3.5527136788e-15,9.80665137554,-1.33226762955e-15,
1408129714365,-1.83843530323,12.5187911996,-0.560605673069,-8.881784197e-16,9.80665123635,-2.22044604925e-15,
1408129714366,-1.49017317022,11.1673616461,0.590516829453,-5.10702591328e-15,9.80665100755,-1.99840144433e-15,
1408129714367,-1.79347269432,10.1032311222,1.33970067251,0.0,9.80665036184,2.22044604925e-16,
1408129714370,-1.86097793778,10.1213128375,0.559965767605,-1.33226762955e-15,9.80664934117,6.66133814775e-16,
1408129714402,-1.04067288962,10.2037019593,0.718646905562,2.44249065418e-15,9.80664923577,-9.10382880193e-15,
1408129714403,0.179147950865,9.66236316669,1.79280535632,8.881784197e-16,9.80665082499,-1.55431223448e-15,
1408129714403,1.61130977297,8.94268906119,2.54061169864,7.32747196253e-15,9.80665050634,1.55431223448e-15,
1408129714456,2.7994773512,8.5458186354,2.50088923786,2.6645352591e-15,9.80665094915,-6.66133814775e-16,
1408129714457,3.33673576555,10.0076645918,2.6482177691,-3.99680288865e-15,9.8066515861,-3.33066907388e-16,
1408129714457,3.30001400259,12.5344083341,1.79262434896,6.66133814775e-16,9.80665150883,-2.77555756156e-15,
1408129714458,2.93099190389,16.2438551659,0.638081324243,-6.66133814775e-16,9.80665133911,1.22124532709e-14,
1408129714459,2.69103559281,19.851934093,0.479812480805,2.22044604925e-16,9.80664930516,1.60982338571e-14,
1408129714461,2.87548531694,20.1712111846,0.838086748636,5.3290705182e-15,9.8066504492,1.16573417586e-14,
1408129714469,2.70925228539,19.15143285,0.0680204703591,-4.4408920985e-16,9.80665014262,-6.43929354283e-15,
1408129714488,2.2077948778,15.2483608778,-1.52799440267,-2.44249065418e-15,9.8066496956,1.04360964315e-14,
1408129714511,1.66859253606,11.194890213,-2.672238079,-1.11022302463e-15,9.80665125986,-7.32747196253e-15,
1408129714512,1.25420603626,8.42393097603,-3.02770100345,7.1054273576e-15,9.80664980346,1.11022302463e-15,
1408129714512,2.10139415582,8.85429072361,-2.29540059735,1.55431223448e-14,9.80665183406,9.88098491916e-15,
1408129714521,2.66846722113,9.17339741942,-1.03766054159,2.88657986403e-15,9.80664983688,3.5527136788e-15,
1408129714535,1.92964619042,9.22538090464,-0.527501970577,-1.14352971536e-14,9.80664976237,6.66133814775e-16,
1408129714554,0.980883067449,7.85972104713,-1.12186450147,-3.21964677141e-15,9.80664933794,4.4408920985e-15,
1408129714554,-0.0498594535182,7.23040294298,-1.92857958545,-1.78745906965e-14,9.80665131066,-3.77475828373e-15,
1408129714575,-0.509473040798,7.1163700313,-1.65513493487,-2.81441536742e-14,9.80665098494,6.66133814775e-16,
1408129714576,-1.65127949621,8.24440213193,-0.487639378973,3.52495810318e-15,9.80665079368,4.21884749358e-15,
1408129714581,-2.48764349474,9.13437082964,0.641566995969,-1.83124349018e-13,9.80665081848,8.65973959208e-15,
1408129714609,-2.45675739641,8.90497102127,1.08649438729,-6.22280005302e-14,9.80665043906,-4.21884749358e-15,
1408129714609,-1.81265960979,7.74105212928,0.918891032413,1.83186799063e-14,9.8066503969,-6.88338275268e-15,
1408129714610,-1.34752975349,6.74070846889,0.393224616175,-5.10702591328e-15,9.80665072441,7.32747196253e-15,
1408129714648,-1.19803933837,5.67548178227,-0.000362260682008,1.21014309684e-14,9.80664965778,-8.881784197e-16,
1408129714649,-0.883929185155,4.84869257853,-0.433690446632,-8.32667268469e-15,9.80665138567,-1.7763568394e-15,
1408129714650,-0.646452445376,4.39769359693,-0.915058779146,8.21565038223e-15,9.80665071255,8.65973959208e-15,
1408129714651,-0.609243070421,4.44160376268,-1.41528857618,7.32747196253e-15,9.8066523483,7.54951656745e-15,
1408129714674,-0.513495208258,4.77788389903,-1.7703316189,3.10862446895e-15,9.80665022824,-2.22044604925e-16,
1408129714675,-0.23702237272,5.43997157208,-1.52038417405,-6.77236045021e-15,9.80664960947,3.99680288865e-15,
1408129714684,-0.0492647681079,6.01151901781,-0.97774858226,-1.55431223448e-14,9.80664953106,1.11022302463e-15,
1408129714708,0.0375851869503,6.43651740444,-0.535204511531,-1.57651669497e-14,9.80665049165,6.43929354283e-15,
1408129714709,-0.0762131529908,6.6530815652,-0.327613168572,-2.77555756156e-15,9.80665057574,8.43769498715e-15,
1408129714710,-0.338391953961,6.87981238561,-0.266111983081,7.21644966006e-15,9.80665064884,-2.6645352591e-15,
1408129714721,-0.72063641284,7.17436076482,-0.442685984331,1.39888101103e-14,9.80664918035,4.4408920985e-16,
1408129714737,-1.12428417743,7.55042366725,-0.765437416498,-6.77236045021e-15,9.80665214903,0.0,
1408129714756,-1.52255014746,7.80788447857,-0.952686863027,-1.05471187339e-14,9.80664983583,1.7763568394e-15,
1408129714756,-1.8175651901,8.13686460009,-1.3022788132,-1.11022302463e-14,9.80665104828,4.88498130835e-15,
1408129714780,-1.8330937921,8.6756350801,-1.82508109117,1.08801856413e-14,9.80665048766,-2.6645352591e-15,
1408129714781,-1.694852489,9.28600645551,-1.93734165733,1.88737914186e-15,9.80664983452,0.0,
1408129714782,-1.34084897203,9.7470102047,-2.00553309197,-5.21804821574e-15,9.80665041711,-2.22044604925e-15,
1408129714808,-0.889712393202,9.97761424397,-2.33883794987,-3.21964677141e-15,9.80665060642,-4.4408920985e-16,
1408129714808,-0.617821143851,10.1201752045,-2.3981136337,-1.62647673108e-14,9.80665053974,-2.88657986403e-15,
1408129714810,-0.1333963816,10.8084721815,-2.52453246026,6.99440505514e-15,9.80665199611,6.66133814775e-16,
1408129714822,0.198228177853,12.2712838271,-2.70165044193,2.29816166097e-14,9.80664910109,5.3290705182e-15,
1408129714837,0.435164073045,13.9081524263,-1.18271250769,-2.05946371068e-14,9.80665153601,-4.21884749358e-15,
1408129714853,-0.0325240323496,14.3737399923,1.28384109078,2.57016630201e-14,9.80665004444,8.43769498715e-15,
1408129714853,-1.25235253951,12.8519096521,1.55537182795,-2.67008637422e-14,9.80665094707,6.66133814775e-16,
1408129714875,-2.33567307762,10.545899846,-1.04126477559,-4.22994972382e-14,9.80665050729,3.99680288865e-15,
1408129714875,-2.2445536657,12.007934847,-5.37372155849,-4.27435864481e-15,9.80665156247,2.44249065418e-15,
1408129714881,-1.04810944805,16.5967810994,-4.08842519688,6.16173778667e-15,9.80665059217,0.0,
1408129714913,0.825458227521,17.7649154346,1.07040957951,-1.53765888911e-14,9.80665054954,4.4408920985e-15,
1408129714914,2.93639709726,16.5516151131,2.51258012294,-2.6645352591e-14,9.80665135011,4.88498130835e-15,
1408129714915,4.10944532179,15.508605762,1.07772431691,3.10862446895e-15,9.8066503358,-2.6645352591e-15,
1408129714944,4.33680520832,13.7341060654,1.15266753495,-1.70974345792e-14,9.806650382,-4.4408920985e-16,
1408129714945,4.44943081345,11.38508265,1.05235960348,-4.88498130835e-15,9.80665123422,3.10862446895e-15,
1408129714945,4.56526070929,10.3449205523,0.368617234401,1.18793863635e-14,9.80664992799,1.33226762955e-15,
1408129714950,4.16110690159,9.65044239171,1.42425773355,1.49880108324e-15,9.80665029994,-2.22044604925e-15,
1408129714977,3.47065797114,8.27435766935,1.3716134525,1.24344978758e-14,9.80665089432,3.99680288865e-15,
1408129714978,2.67291775105,7.8219284884,0.853531166055,-3.35287353437e-14,9.80664976752,1.7763568394e-15,
1408129714982,1.93801068493,7.80220029711,1.38714603064,2.73114864058e-14,9.80665023177,-1.33226762955e-15,
1408129715007,1.38319272939,8.14155189979,1.78857266399,4.23550083894e-14,9.80665027596,-1.7763568394e-15,
1408129715008,0.412577945183,8.10549490438,1.15556455806,9.05941988094e-14,9.80665022506,4.88498130835e-15,
1408129715010,-0.81714550662,7.66255800405,0.603667575782,-4.66571226099e-14,9.80665068111,3.99680288865e-15,
1408129715034,-1.63806394455,8.19639101807,0.502332428216,-1.33254518531e-13,9.80665032614,-4.4408920985e-16,
1408129715035,-1.84713080943,9.37130044241,0.466289143405,3.73590047786e-14,9.80665040536,-1.7763568394e-15,
1408129715051,-1.88272171812,9.99757433185,0.564758029457,9.43550793053e-14,9.80665006264,-4.4408920985e-16,
1408129715051,-1.58954226145,9.70110059521,0.724714657175,8.60700399841e-14,9.80665124174,1.33226762955e-15,
1408129715066,-0.81411413568,9.02306617413,0.826931191448,2.03066730098e-14,9.80664961929,1.33226762955e-15,
1408129715070,0.0554117954001,8.51497088394,0.947982093716,-1.72528658027e-13,9.80665050885,8.881784197e-16,
1408129715082,0.798011066983,8.39487999387,0.892496223594,5.29160049112e-14,9.80665180327,8.881784197e-16,
1408129715106,1.27031060982,8.15564457653,1.09633822956,2.34257058196e-14,9.80665015049,-1.99840144433e-15,
1408129715107,1.55304076593,7.77217024148,1.34032176201,5.71764857682e-15,9.80665110325,8.881784197e-16,
1408129715110,1.70262116023,7.23920748403,1.40534861101,-1.9928503292e-14,9.80664973212,-2.22044604925e-15,
1408129715142,1.79038825212,6.89030498089,1.36962602847,1.05471187339e-15,9.80664990693,-2.6645352591e-15,
1408129715143,1.42502739398,6.93449645631,0.995166963134,4.32986979604e-15,9.80665211739,5.77315972805e-15,
1408129715144,0.97138128102,7.09539059907,0.521937382723,-7.88258347484e-15,9.80665074673,2.22044604925e-15,
1408129715150,0.857252735893,7.27481260435,0.315249555261,-4.77395900589e-15,9.80665037499,3.10862446895e-15,
1408129715185,0.763405337067,7.22037650798,0.600059963978,6.66133814775e-16,9.80665045382,5.10702591328e-15,
1408129715186,0.549991600433,7.18671752261,0.854448733536,8.65973959208e-15,9.80665055068,-4.4408920985e-16,
1408129715190,0.00820923232451,7.19036711933,0.985149751492,6.2172489379e-15,9.80665078813,6.43929354283e-15,
1408129715222,-0.745829230302,7.61495023256,1.01300738649,3.44169137634e-15,9.80665236322,3.5527136788e-15,
1408129715223,-1.55539570306,8.52083767264,0.7986572192,-7.66053886991e-15,9.80664991195,-5.99520433298e-15,
1408129715223,-2.32408498318,8.65876174837,0.665481739965,9.54791801178e-15,9.8066497309,4.66293670343e-15,
1408129715225,-2.8674062426,8.36349058584,0.495116822871,2.88657986403e-15,9.80665073425,2.22044604925e-15,
1408129715230,-2.99828895505,8.05570320269,0.0831226999743,6.66133814775e-15,9.80665195417,3.33066907388e-15,
1408129715254,-2.68007148226,8.30158202807,-0.20863518436,3.33066907388e-15,9.80665082843,-4.4408920985e-16,
1408129715254,-2.43680853415,8.54877362454,-0.0746886605454,-1.99840144433e-15,9.80665033986,2.88657986403e-15,
1408129715262,-2.28061111133,8.669927724,0.27996234426,0.0,9.80664887125,-1.11022302463e-15,
1408129715271,-2.11790695705,8.80660681732,0.549895241265,1.11022302463e-15,9.8066502474,7.77156117238e-15,
1408129715295,-2.32359336756,8.60516732722,0.497392317479,6.88338275268e-15,9.8066507395,6.66133814775e-16,
1408129715296,-2.67393616948,8.10866566031,0.0582212411796,-1.99840144433e-15,9.80665026739,7.1054273576e-15,
1408129715302,-2.9671841195,7.59840491293,-0.426021627826,5.77315972805e-15,9.80665135758,3.77475828373e-15,
1408129715333,-3.19439605951,7.63374805191,-1.11372358386,3.10862446895e-15,9.80665139958,8.881784197e-16,
1408129715334,-3.19451688087,8.14019387435,-1.56599295214,2.6645352591e-15,9.80664989603,2.44249065418e-15,
1408129715336,-3.05060128586,8.69437154365,-0.870012782611,1.7763568394e-15,9.80664948928,6.66133814775e-16,
1408129715368,-2.79051067469,9.37921275814,-0.137281144502,-8.881784197e-16,9.80664973092,-4.4408920985e-15,
1408129715368,-2.99947668462,9.70968024903,0.98966352665,3.5527136788e-15,9.80665090984,5.55111512313e-15,
1408129715369,-3.91170663122,9.27797667314,1.41543460879,1.13242748512e-14,9.80664983698,4.88498130835e-15,
1408129715400,-4.71326087394,9.03181690482,0.288937600229,6.88338275268e-15,9.80665142083,2.44249065418e-15,
1408129715401,-4.26942771309,9.30999002355,-0.757352561852,2.6645352591e-15,9.80665038875,3.5527136788e-15,
1408129715402,-2.84764143751,10.0401095848,-0.914445572575,2.22044604925e-16,9.8066503506,6.2172489379e-15,
1408129715435,-1.90044041828,10.8639288302,-0.245471031869,0.0,9.80665039826,-4.4408920985e-16,
1408129715435,-1.54928685083,11.5045073785,0.0357417998722,6.66133814775e-15,9.80664943118,-6.88338275268e-15,
1408129715439,-0.942387653889,11.5356734129,0.292455968702,1.11022302463e-15,9.80665197043,-1.99840144433e-15,
1408129715445,-0.634033359138,10.7783692891,1.3840066419,-4.4408920985e-16,9.80665015317,0.0,
1408129715472,-0.917809361175,10.4616044834,1.48524242171,4.4408920985e-15,9.8066523846,4.4408920985e-15,
1408129715473,-1.0276906194,10.721760849,0.305228328445,6.66133814775e-15,9.80664984551,1.11022302463e-15,
1408129715473,-0.388692921397,10.3570846025,0.713621540155,4.4408920985e-16,9.80665020252,9.10382880193e-15,
