index,i,acc_x,acc_y,acc_z
0,0,[-0.07831163152364011, 0.9562147434189847, -0.16980907947193533],[0.038814712649910994, 0.8720054068663503, 0.0561529785044348],[0.1749171377620637, 0.7191468615601175, 0.10503732099822717]
0,1,[-0.07831163152364011, 0.9562147434189847, -0.16980907947193533],[0.038814712649910994, 0.8720054068663503, 0.0561529785044348],[0.1749171377620637, 0.7191468615601175, 0.10503732099822717]
0,2,[-0.07831163152364011, 0.9562147434189847, -0.16980907947193533],[0.038814712649910994, 0.8720054068663503, 0.0561529785044348],[0.1749171377620637, 0.7191468615601175, 0.10503732099822717]
0,3,[-0.07831163152364011, 0.9562147434189847, -0.16980907947193533],[0.038814712649910994, 0.8720054068663503, 0.0561529785044348],[0.1749171377620637, 0.7191468615601175, 0.10503732099822717]
0,4,[-0.07831163152364011, 0.9562147434189847, -0.16980907947193533],[0.038814712649910994, 0.8720054068663503, 0.0561529785044348],[0.1749171377620637, 0.7191468615601175, 0.10503732099822717]
0,5,[-0.07831163152364011, 0.9562147434189847, -0.16980907947193533],[0.038814712649910994, 0.8720054068663503, 0.0561529785044348],[0.1749171377620637, 0.7191468615601175, 0.10503732099822717]
0,6,[-0.07831163152364011, 0.9562147434189847, -0.16980907947193533],[0.038814712649910994, 0.8720054068663503, 0.0561529785044348],[0.1749171377620637, 0.7191468615601175, 0.10503732099822717]
0,7,[-0.07831163152364011, 0.9562147434189847, -0.16980907947193533],[0.038814712649910994, 0.8720054068663503, 0.0561529785044348],[0.1749171377620637, 0.7191468615601175, 0.10503732099822717]
0,8,[-0.07831163152364011, 0.9562147434189847, -0.16980907947193533],[0.038814712649910994, 0.8720054068663503, 0.0561529785044348],[0.1749171377620637, 0.7191468615601175, 0.10503732099822717]
0,9,[-0.07831163152364011, 0.9562147434189847, -0.16980907947193533],[0.038814712649910994, 0.8720054068663503, 0.0561529785044348],[0.1749171377620637, 0.7191468615601175, 0.10503732099822717]
0,10,[-0.07831163152364011, 0.9562147434189847, -0.16980907947193533],[0.038814712649910994, 0.8720054068663503, 0.0561529785044348],[0.1749171377620637, 0.7191468615601175, 0.10503732099822717]
0,11,[-0.07831163152364011, 0.9562147434189847, -0.16980907947193533],[0.038814712649910994, 0.8720054068663503, 0.0561529785044348],[0.1749171377620637, 0.7191468615601175, 0.10503732099822717]
0,12,[-0.07831163152364011, 0.9562147434189847, -0.16980907947193533],[0.038814712649910994, 0.8720054068663503, 0.0561529785044348],[0.1749171377620637, 0.7191468615601175, 0.10503732099822717]
0,13,[-0.07831163152364011, 0.9562147434189847, -0.16980907947193533],[0.038814712649910994, 0.8720054068663503, 0.0561529785044348],[0.1749171377620637, 0.7191468615601175, 0.10503732099822717]
0,14,[-0.07831163152364011, 0.9562147434189847, -0.16980907947193533],[0.038814712649910994, 0.8720054068663503, 0.0561529785044348],[0.1749171377620637, 0.7191468615601175, 0.10503732099822717]
0,15,[-0.07831163152364011, 0.9562147434189847, -0.16980907947193533],[0.038814712649910994, 0.8720054068663503, 0.0561529785044348],[0.1749171377620637, 0.7191468615601175, 0.10503732099822717]
0,16,[-0.07831163152364011, 0.9562147434189847, -0.16980907947193533],[0.038814712649910994, 0.8720054068663503, 0.0561529785044348],[0.1749171377620637, 0.7191468615601175, 0.10503732099822717]
0,17,[-0.07831163152364011, 0.9562147434189847, -0.16980907947193533],[0.038814712649910994, 0.8720054068663503, 0.0561529785044348],[0.1749171377620637, 0.7191468615601175, 0.10503732099822717]
0,18,[-0.07831163152364011, 0.9562147434189847, -0.16980907947193533],[0.038814712649910994, 0.8720054068663503, 0.0561529785044348],[0.1749171377620637, 0.7191468615601175, 0.10503732099822717]
0,19,[-0.07831163152364011, 0.9562147434189847, -0.16980907947193533],[0.038814712649910994, 0.8720054068663503, 0.0561529785044348],[0.1749171377620637, 0.7191468615601175, 0.10503732099822717]
0,20,[-0.07831163152364011, 0.9562147434189847, -0.16980907947193533],[0.038814712649910994, 0.8720054068663503, 0.0561529785044348],[0.1749171377620637, 0.7191468615601175, 0.10503732099822717]
0,21,[-0.07831163152364011, 0.9562147434189847, -0.16980907947193533],[0.038814712649910994, 0.8720054068663503, 0.0561529785044348],[0.1749171377620637, 0.7191468615601175, 0.10503732099822717]
0,22,[-0.07831163152364011, 0.9562147434189847, -0.16980907947193533],[0.038814712649910994, 0.8720054068663503, 0.0561529785044348],[0.1749171377620637, 0.7191468615601175, 0.10503732099822717]
0,23,[-0.07831163152364011, 0.9562147434189847, -0.16980907947193533],[0.038814712649910994, 0.8720054068663503, 0.0561529785044348],[0.1749171377620637, 0.7191468615601175, 0.10503732099822717]
0,24,[-0.07831163152364011, 0.9562147434189847, -0.16980907947193533],[0.038814712649910994, 0.8720054068663503, 0.0561529785044348],[0.1749171377620637, 0.7191468615601175, 0.10503732099822717]
0,25,[-0.07831163152364011, 0.9562147434189847, -0.16980907947193533],[0.038814712649910994, 0.8720054068663503, 0.0561529785044348],[0.1749171377620637, 0.7191468615601175, 0.10503732099822717]
0,26,[-0.07831163152364011, 0.9562147434189847, -0.16980907947193533],[0.038814712649910994, 0.8720054068663503, 0.0561529785044348],[0.1749171377620637, 0.7191468615601175, 0.10503732099822717]
0,27,[-0.07831163152364011, 0.9562147434189847, -0.16980907947193533],[0.038814712649910994, 0.8720054068663503, 0.0561529785044348],[0.1749171377620637, 0.7191468615601175, 0.10503732099822717]
0,28,[-0.07831163152364011, 0.9562147434189847, -0.16980907947193533],[0.038814712649910994, 0.8720054068663503, 0.0561529785044348],[0.1749171377620637, 0.7191468615601175, 0.10503732099822717]
0,29,[-0.07831163152364011, 0.9562147434189847, -0.16980907947193533],[0.038814712649910994, 0.8720054068663503, 0.0561529785044348],[0.1749171377620637, 0.7191468615601175, 0.10503732099822717]
0,30,[-0.07831163152364011, 0.9562147434189847, -0.16980907947193533],[0.038814712649910994, 0.8720054068663503, 0.0561529785044348],[0.1749171377620637, 0.7191468615601175, 0.10503732099822717]
0,31,[-0.07831163152364011, 0.9562147434189847, -0.16980907947193533],[0.038814712649910994, 0.8720054068663503, 0.0561529785044348],[0.1749171377620637, 0.7191468615601175, 0.10503732099822717]
0,32,[-0.07831163152364011, 0.9562147434189847, -0.16980907947193533],[0.038814712649910994, 0.8720054068663503, 0.0561529785044348],[0.1749171377620637, 0.7191468615601175, 0.10503732099822717]
0,33,[-0.07831163152364011, 0.9562147434189847, -0.16980907947193533],[0.038814712649910994, 0.8720054068663503, 0.0561529785044348],[0.1749171377620637, 0.7191468615601175, 0.10503732099822717]
0,34,[-0.07831163152364011, 0.9562147434189847, -0.16980907947193533],[0.038814712649910994, 0.8720054068663503, 0.0561529785044348],[0.1749171377620637, 0.7191468615601175, 0.10503732099822717]
0,35,[-0.07831163152364011, 0.9562147434189847, -0.16980907947193533],[0.038814712649910994, 0.8720054068663503, 0.0561529785044348],[0.1749171377620637, 0.7191468615601175, 0.10503732099822717]
0,36,[-0.07831163152364011, 0.9562147434189847, -0.16980907947193533],[0.038814712649910994, 0.8720054068663503, 0.0561529785044348],[0.1749171377620637, 0.7191468615601175, 0.10503732099822717]
0,37,[-0.07831163152364011, 0.9562147434189847, -0.16980907947193533],[0.038814712649910994, 0.8720054068663503, 0.0561529785044348],[0.1749171377620637, 0.7191468615601175, 0.10503732099822717]
0,38,[-0.07831163152364011, 0.9562147434189847, -0.16980907947193533],[0.038814712649910994, 0.8720054068663503, 0.0561529785044348],[0.1749171377620637, 0.7191468615601175, 0.10503732099822717]
0,39,[-0.07831163152364011, 0.9562147434189847, -0.16980907947193533],[0.038814712649910994, 0.8720054068663503, 0.0561529785044348],[0.1749171377620637, 0.7191468615601175, 0.10503732099822717]
0,40,[-0.07831163152364011, 0.9562147434189847, -0.16980907947193533],[0.038814712649910994, 0.8720054068663503, 0.0561529785044348],[0.1749171377620637, 0.7191468615601175, 0.10503732099822717]
0,41,[-0.07831163152364011, 0.9562147434189847, -0.16980907947193533],[0.038814712649910994, 0.8720054068663503, 0.0561529785044348],[0.1749171377620637, 0.7191468615601175, 0.10503732099822717]
0,42,[-0.07831163152364011, 0.9562147434189847, -0.16980907947193533],[0.038814712649910994, 0.8720054068663503, 0.0561529785044348],[0.1749171377620637, 0.7191468615601175, 0.10503732099822717]
0,43,[-0.07831163152364011, 0.9562147434189847, -0.16980907947193533],[0.038814712649910994, 0.8720054068663503, 0.0561529785044348],[0.1749171377620637, 0.7191468615601175, 0.10503732099822717]
0,44,[-0.07831163152364011, 0.9562147434189847, -0.16980907947193533],[0.038814712649910994, 0.8720054068663503, 0.0561529785044348],[0.1749171377620637, 0.7191468615601175, 0.10503732099822717]
0,45,[-0.07831163152364011, 0.9562147434189847, -0.16980907947193533],[0.038814712649910994, 0.8720054068663503, 0.0561529785044348],[0.1749171377620637, 0.7191468615601175, 0.10503732099822717]
0,46,[-0.07831163152364011, 0.9562147434189847, -0.16980907947193533],[0.038814712649910994, 0.8720054068663503, 0.0561529785044348],[0.1749171377620637, 0.7191468615601175, 0.10503732099822717]
0,47,[-0.07831163152364011, 0.9562147434189847, -0.16980907947193533],[0.038814712649910994, 0.8720054068663503, 0.0561529785044348],[0.1749171377620637, 0.7191468615601175, 0.10503732099822717]
0,48,[-0.07831163152364011, 0.9562147434189847, -0.16980907947193533],[0.038814712649910994, 0.8720054068663503, 0.0561529785044348],[0.1749171377620637, 0.7191468615601175, 0.10503732099822717]
0,49,[-0.07831163152364011, 0.9562147434189847, -0.16980907947193533],[0.038814712649910994, 0.8720054068663503, 0.0561529785044348],[0.1749171377620637, 0.7191468615601175, 0.10503732099822717]
0,50,[-0.07831163152364011, 0.9562147434189847, -0.16980907947193533],[0.038814712649910994, 0.8720054068663503, 0.0561529785044348],[0.1749171377620637, 0.7191468615601175, 0.10503732099822717]
0,51,[-0.07831163152364011, 0.9562147434189847, -0.16980907947193533],[0.038814712649910994, 0.8720054068663503, 0.0561529785044348],[0.1749171377620637, 0.7191468615601175, 0.10503732099822717]
0,52,[-0.07831163152364011, 0.9562147434189847, -0.16980907947193533],[0.038814712649910994, 0.8720054068663503, 0.0561529785044348],[0.1749171377620637, 0.7191468615601175, 0.10503732099822717]
0,53,[-0.07831163152364011, 0.9562147434189847, -0.16980907947193533],[0.038814712649910994, 0.8720054068663503, 0.0561529785044348],[0.1749171377620637, 0.7191468615601175, 0.10503732099822717]
0,54,[-0.07831163152364011, 0.9562147434189847, -0.16980907947193533],[0.038814712649910994, 0.8720054068663503, 0.0561529785044348],[0.1749171377620637, 0.7191468615601175, 0.10503732099822717]
0,55,[-0.07831163152364011, 0.9562147434189847, -0.16980907947193533],[0.038814712649910994, 0.8720054068663503, 0.0561529785044348],[0.1749171377620637, 0.7191468615601175, 0.10503732099822717]
0,56,[-0.07831163152364011, 0.9562147434189847, -0.16980907947193533],[0.038814712649910994, 0.8720054068663503, 0.0561529785044348],[0.1749171377620637, 0.7191468615601175, 0.10503732099822717]
0,57,[-0.07831163152364011, 0.9562147434189847, -0.16980907947193533],[0.038814712649910994, 0.8720054068663503, 0.0561529785044348],[0.1749171377620637, 0.7191468615601175, 0.10503732099822717]
0,58,[-0.07831163152364011, 0.9562147434189847, -0.16980907947193533],[0.038814712649910994, 0.8720054068663503, 0.0561529785044348],[0.1749171377620637, 0.7191468615601175, 0.10503732099822717]
0,59,[-0.07831163152364011, 0.9562147434189847, -0.16980907947193533],[0.038814712649910994, 0.8720054068663503, 0.0561529785044348],[0.1749171377620637, 0.7191468615601175, 0.10503732099822717]
0,60,[-0.07831163152364011, 0.9562147434189847, -0.16980907947193533],[0.038814712649910994, 0.8720054068663503, 0.0561529785044348],[0.1749171377620637, 0.7191468615601175, 0.10503732099822717]
0,61,[-0.07831163152364011, 0.9562147434189847, -0.16980907947193533],[0.038814712649910994, 0.8720054068663503, 0.0561529785044348],[0.1749171377620637, 0.7191468615601175, 0.10503732099822717]
0,62,[-0.07831163152364011, 0.9562147434189847, -0.16980907947193533],[0.038814712649910994, 0.8720054068663503, 0.0561529785044348],[0.1749171377620637, 0.7191468615601175, 0.10503732099822717]
0,63,[-0.07831163152364011, 0.9562147434189847, -0.16980907947193533],[0.038814712649910994, 0.8720054068663503, 0.0561529785044348],[0.1749171377620637, 0.7191468615601175, 0.10503732099822717]
0,64,[-0.07831163152364011, 0.9562147434189847, -0.16980907947193533],[0.038814712649910994, 0.8720054068663503, 0.0561529785044348],[0.1749171377620637, 0.7191468615601175, 0.10503732099822717]
0,65,[-0.07831163152364011, 0.9562147434189847, -0.16980907947193533],[0.038814712649910994, 0.8720054068663503, 0.0561529785044348],[0.1749171377620637, 0.7191468615601175, 0.10503732099822717]
0,66,[-0.07831163152364011, 0.9562147434189847, -0.16980907947193533],[0.038814712649910994, 0.8720054068663503, 0.0561529785044348],[0.1749171377620637, 0.7191468615601175, 0.10503732099822717]
0,67,[-0.07831163152364011, 0.9562147434189847, -0.16980907947193533],[0.038814712649910994, 0.8720054068663503, 0.0561529785044348],[0.1749171377620637, 0.7191468615601175, 0.10503732099822717]
0,68,[-0.07831163152364011, 0.9562147434189847, -0.16980907947193533],[0.038814712649910994, 0.8720054068663503, 0.0561529785044348],[0.1749171377620637, 0.7191468615601175, 0.10503732099822717]
0,69,[-0.07831163152364011, 0.9562147434189847, -0.16980907947193533],[0.038814712649910994, 0.8720054068663503, 0.0561529785044348],[0.1749171377620637, 0.7191468615601175, 0.10503732099822717]
0,70,[-0.07831163152364011, 0.9562147434189847, -0.16980907947193533],[0.038814712649910994, 0.8720054068663503, 0.0561529785044348],[0.1749171377620637, 0.7191468615601175, 0.10503732099822717]
0,71,[-0.07831163152364011, 0.9562147434189847, -0.16980907947193533],[0.038814712649910994, 0.8720054068663503, 0.0561529785044348],[0.1749171377620637, 0.7191468615601175, 0.10503732099822717]
0,72,[-0.07831163152364011, 0.9562147434189847, -0.16980907947193533],[0.038814712649910994, 0.8720054068663503, 0.0561529785044348],[0.1749171377620637, 0.7191468615601175, 0.10503732099822717]
0,73,[-0.07831163152364011, 0.9562147434189847, -0.16980907947193533],[0.038814712649910994, 0.8720054068663503, 0.0561529785044348],[0.1749171377620637, 0.7191468615601175, 0.10503732099822717]
0,74,[-0.07831163152364011, 0.9562147434189847, -0.16980907947193533],[0.038814712649910994, 0.8720054068663503, 0.0561529785044348],[0.1749171377620637, 0.7191468615601175, 0.10503732099822717]
0,75,[-0.07831163152364011, 0.9562147434189847, -0.16980907947193533],[0.038814712649910994, 0.8720054068663503, 0.0561529785044348],[0.1749171377620637, 0.7191468615601175, 0.10503732099822717]
0,76,[-0.07831163152364011, 0.9562147434189847, -0.16980907947193533],[0.038814712649910994, 0.8720054068663503, 0.0561529785044348],[0.1749171377620637, 0.7191468615601175, 0.10503732099822717]
0,77,[-0.07831163152364011, 0.9562147434189847, -0.16980907947193533],[0.038814712649910994, 0.8720054068663503, 0.0561529785044348],[0.1749171377620637, 0.7191468615601175, 0.10503732099822717]
0,78,[-0.07831163152364011, 0.9562147434189847, -0.16980907947193533],[0.038814712649910994, 0.8720054068663503, 0.0561529785044348],[0.1749171377620637, 0.7191468615601175, 0.10503732099822717]
0,79,[-0.07831163152364011, 0.9562147434189847, -0.16980907947193533],[0.038814712649910994, 0.8720054068663503, 0.0561529785044348],[0.1749171377620637, 0.7191468615601175, 0.10503732099822717]
0,80,[-0.07831163152364011, 0.9562147434189847, -0.16980907947193533],[0.038814712649910994, 0.8720054068663503, 0.0561529785044348],[0.1749171377620637, 0.7191468615601175, 0.10503732099822717]
0,81,[-0.07831163152364011, 0.9562147434189847, -0.16980907947193533],[0.038814712649910994, 0.8720054068663503, 0.0561529785044348],[0.1749171377620637, 0.7191468615601175, 0.10503732099822717]
0,82,[-0.07831163152364011, 0.9562147434189847, -0.16980907947193533],[0.038814712649910994, 0.8720054068663503, 0.0561529785044348],[0.1749171377620637, 0.7191468615601175, 0.10503732099822717]
0,83,[-0.07831163152364011, 0.9562147434189847, -0.16980907947193533],[0.038814712649910994, 0.8720054068663503, 0.0561529785044348],[0.1749171377620637, 0.7191468615601175, 0.10503732099822717]
0,84,[-0.07831163152364011, 0.9562147434189847, -0.16980907947193533],[0.038814712649910994, 0.8720054068663503, 0.0561529785044348],[0.1749171377620637, 0.7191468615601175, 0.10503732099822717]
0,85,[-0.07831163152364011, 0.9562147434189847, -0.16980907947193533],[0.038814712649910994, 0.8720054068663503, 0.0561529785044348],[0.1749171377620637, 0.7191468615601175, 0.10503732099822717]
0,86,[-0.07831163152364011, 0.9562147434189847, -0.16980907947193533],[0.038814712649910994, 0.8720054068663503, 0.0561529785044348],[0.1749171377620637, 0.7191468615601175, 0.10503732099822717]
0,87,[-0.07831163152364011, 0.9562147434189847, -0.16980907947193533],[0.038814712649910994, 0.8720054068663503, 0.0561529785044348],[0.1749171377620637, 0.7191468615601175, 0.10503732099822717]
0,88,[-0.07831163152364011, 0.9562147434189847, -0.16980907947193533],[0.038814712649910994, 0.8720054068663503, 0.0561529785044348],[0.1749171377620637, 0.7191468615601175, 0.10503732099822717]
0,89,[-0.07831163152364011, 0.9562147434189847, -0.16980907947193533],[0.038814712649910994, 0.8720054068663503, 0.0561529785044348],[0.1749171377620637, 0.7191468615601175, 0.10503732099822717]
0,90,[-0.07831163152364011, 0.9562147434189847, -0.16980907947193533],[0.038814712649910994, 0.8720054068663503, 0.0561529785044348],[0.1749171377620637, 0.7191468615601175, 0.10503732099822717]
0,91,[-0.07831163152364011, 0.9562147434189847, -0.16980907947193533],[0.038814712649910994, 0.8720054068663503, 0.0561529785044348],[0.1749171377620637, 0.7191468615601175, 0.10503732099822717]
0,92,[-0.07831163152364011, 0.9562147434189847, -0.16980907947193533],[0.038814712649910994, 0.8720054068663503, 0.0561529785044348],[0.1749171377620637, 0.7191468615601175, 0.10503732099822717]
0,93,[-0.07831163152364011, 0.9562147434189847, -0.16980907947193533],[0.038814712649910994, 0.8720054068663503, 0.0561529785044348],[0.1749171377620637, 0.7191468615601175, 0.10503732099822717]
0,94,[-0.07831163152364011, 0.9562147434189847, -0.16980907947193533],[0.038814712649910994, 0.8720054068663503, 0.0561529785044348],[0.1749171377620637, 0.7191468615601175, 0.10503732099822717]
0,95,[-0.07831163152364011, 0.9562147434189847, -0.16980907947193533],[0.038814712649910994, 0.8720054068663503, 0.0561529785044348],[0.1749171377620637, 0.7191468615601175, 0.10503732099822717]
0,96,[-0.07831163152364011, 0.9562147434189847, -0.16980907947193533],[0.038814712649910994, 0.8720054068663503, 0.0561529785044348],[0.1749171377620637, 0.7191468615601175, 0.10503732099822717]
0,97,[-0.07831163152364011, 0.9562147434189847, -0.16980907947193533],[0.038814712649910994, 0.8720054068663503, 0.0561529785044348],[0.1749171377620637, 0.7191468615601175, 0.10503732099822717]
0,98,[-0.07831163152364011, 0.9562147434189847, -0.16980907947193533],[0.038814712649910994, 0.8720054068663503, 0.0561529785044348],[0.1749171377620637, 0.7191468615601175, 0.10503732099822717]
0,99,[-0.07831163152364011, 0.9562147434189847, -0.16980907947193533],[0.038814712649910994, 0.8720054068663503, 0.0561529785044348],[0.1749171377620637, 0.7191468615601175, 0.10503732099822717]
1,0,[-0.04868405695460822, 0.9224698166335206, -0.2467850877616018],[0.09318107622006312, 0.8890649012599358, 0.04068705888478519],[0.22010134468069334, 0.7553095298485845, 0.11976074742097713]
1,1,[-0.04868405695460822, 0.9224698166335206, -0.2467850877616018],[0.09318107622006312, 0.8890649012599358, 0.04068705888478519],[0.22010134468069334, 0.7553095298485845, 0.11976074742097713]
1,2,[-0.04868405695460822, 0.9224698166335206, -0.2467850877616018],[0.09318107622006312, 0.8890649012599358, 0.04068705888478519],[0.22010134468069334, 0.7553095298485845, 0.11976074742097713]
1,3,[-0.04868405695460822, 0.9224698166335206, -0.2467850877616018],[0.09318107622006312, 0.8890649012599358, 0.04068705888478519],[0.22010134468069334, 0.7553095298485845, 0.11976074742097713]
1,4,[-0.04868405695460822, 0.9224698166335206, -0.2467850877616018],[0.09318107622006312, 0.8890649012599358, 0.04068705888478519],[0.22010134468069334, 0.7553095298485845, 0.11976074742097713]
1,5,[-0.04868405695460822, 0.9224698166335206, -0.2467850877616018],[0.09318107622006312, 0.8890649012599358, 0.04068705888478519],[0.22010134468069334, 0.7553095298485845, 0.11976074742097713]
1,6,[-0.04868405695460822, 0.9224698166335206, -0.2467850877616018],[0.09318107622006312, 0.8890649012599358, 0.04068705888478519],[0.22010134468069334, 0.7553095298485845, 0.11976074742097713]
1,7,[-0.04868405695460822, 0.9224698166335206, -0.2467850877616018],[0.09318107622006312, 0.8890649012599358, 0.04068705888478519],[0.22010134468069334, 0.7553095298485845, 0.11976074742097713]
1,8,[-0.04868405695460822, 0.9224698166335206, -0.2467850877616018],[0.09318107622006312, 0.8890649012599358, 0.04068705888478519],[0.22010134468069334, 0.7553095298485845, 0.11976074742097713]
1,9,[-0.04868405695460822, 0.9224698166335206, -0.2467850877616018],[0.09318107622006312, 0.8890649012599358, 0.04068705888478519],[0.22010134468069334, 0.7553095298485845, 0.11976074742097713]
1,10,[-0.04868405695460822, 0.9224698166335206, -0.2467850877616018],[0.09318107622006312, 0.8890649012599358, 0.04068705888478519],[0.22010134468069334, 0.7553095298485845, 0.11976074742097713]
1,11,[-0.04868405695460822, 0.9224698166335206, -0.2467850877616018],[0.09318107622006312, 0.8890649012599358, 0.04068705888478519],[0.22010134468069334, 0.7553095298485845, 0.11976074742097713]
1,12,[-0.04868405695460822, 0.9224698166335206, -0.2467850877616018],[0.09318107622006312, 0.8890649012599358, 0.04068705888478519],[0.22010134468069334, 0.7553095298485845, 0.11976074742097713]
1,13,[-0.04868405695460822, 0.9224698166335206, -0.2467850877616018],[0.09318107622006312, 0.8890649012599358, 0.04068705888478519],[0.22010134468069334, 0.7553095298485845, 0.11976074742097713]
1,14,[-0.04868405695460822, 0.9224698166335206, -0.2467850877616018],[0.09318107622006312, 0.8890649012599358, 0.04068705888478519],[0.22010134468069334, 0.7553095298485845, 0.11976074742097713]
1,15,[-0.04868405695460822, 0.9224698166335206, -0.2467850877616018],[0.09318107622006312, 0.8890649012599358, 0.04068705888478519],[0.22010134468069334, 0.7553095298485845, 0.11976074742097713]
1,16,[-0.04868405695460822, 0.9224698166335206, -0.2467850877616018],[0.09318107622006312, 0.8890649012599358, 0.04068705888478519],[0.22010134468069334, 0.7553095298485845, 0.11976074742097713]
1,17,[-0.04868405695460822, 0.9224698166335206, -0.2467850877616018],[0.09318107622006312, 0.8890649012599358, 0.04068705888478519],[0.22010134468069334, 0.7553095298485845, 0.11976074742097713]
1,18,[-0.04868405695460822, 0.9224698166335206, -0.2467850877616018],[0.09318107622006312, 0.8890649012599358, 0.04068705888478519],[0.22010134468069334, 0.7553095298485845, 0.11976074742097713]
1,19,[-0.04868405695460822, 0.9224698166335206, -0.2467850877616018],[0.09318107622006312, 0.8890649012599358, 0.04068705888478519],[0.22010134468069334, 0.7553095298485845, 0.11976074742097713]
1,20,[-0.04868405695460822, 0.9224698166335206, -0.2467850877616018],[0.09318107622006312, 0.8890649012599358, 0.04068705888478519],[0.22010134468069334, 0.7553095298485845, 0.11976074742097713]
1,21,[-0.04868405695460822, 0.9224698166335206, -0.2467850877616018],[0.09318107622006312, 0.8890649012599358, 0.04068705888478519],[0.22010134468069334, 0.7553095298485845, 0.11976074742097713]
1,22,[-0.04868405695460822, 0.9224698166335206, -0.2467850877616018],[0.09318107622006312, 0.8890649012599358, 0.04068705888478519],[0.22010134468069334, 0.7553095298485845, 0.11976074742097713]
1,23,[-0.04868405695460822, 0.9224698166335206, -0.2467850877616018],[0.09318107622006312, 0.8890649012599358, 0.04068705888478519],[0.22010134468069334, 0.7553095298485845, 0.11976074742097713]
1,24,[-0.04868405695460822, 0.9224698166335206, -0.2467850877616018],[0.09318107622006312, 0.8890649012599358, 0.04068705888478519],[0.22010134468069334, 0.7553095298485845, 0.11976074742097713]
1,25,[-0.04868405695460822, 0.9224698166335206, -0.2467850877616018],[0.09318107622006312, 0.8890649012599358, 0.04068705888478519],[0.22010134468069334, 0.7553095298485845, 0.11976074742097713]
1,26,[-0.04868405695460822, 0.9224698166335206, -0.2467850877616018],[0.09318107622006312, 0.8890649012599358, 0.04068705888478519],[0.22010134468069334, 0.7553095298485845, 0.11976074742097713]
1,27,[-0.04868405695460822, 0.9224698166335206, -0.2467850877616018],[0.09318107622006312, 0.8890649012599358, 0.04068705888478519],[0.22010134468069334, 0.7553095298485845, 0.11976074742097713]
1,28,[-0.04868405695460822, 0.9224698166335206, -0.2467850877616018],[0.09318107622006312, 0.8890649012599358, 0.04068705888478519],[0.22010134468069334, 0.7553095298485845, 0.11976074742097713]
1,29,[-0.04868405695460822, 0.9224698166335206, -0.2467850877616018],[0.09318107622006312, 0.8890649012599358, 0.04068705888478519],[0.22010134468069334, 0.7553095298485845, 0.11976074742097713]
1,30,[-0.04868405695460822, 0.9224698166335206, -0.2467850877616018],[0.09318107622006312, 0.8890649012599358, 0.04068705888478519],[0.22010134468069334, 0.7553095298485845, 0.11976074742097713]
1,31,[-0.04868405695460822, 0.9224698166335206, -0.2467850877616018],[0.09318107622006312, 0.8890649012599358, 0.04068705888478519],[0.22010134468069334, 0.7553095298485845, 0.11976074742097713]
1,32,[-0.04868405695460822, 0.9224698166335206, -0.2467850877616018],[0.09318107622006312, 0.8890649012599358, 0.04068705888478519],[0.22010134468069334, 0.7553095298485845, 0.11976074742097713]
1,33,[-0.04868405695460822, 0.9224698166335206, -0.2467850877616018],[0.09318107622006312, 0.8890649012599358, 0.04068705888478519],[0.22010134468069334, 0.7553095298485845, 0.11976074742097713]
1,34,[-0.04868405695460822, 0.9224698166335206, -0.2467850877616018],[0.09318107622006312, 0.8890649012599358, 0.04068705888478519],[0.22010134468069334, 0.7553095298485845, 0.11976074742097713]
1,35,[-0.04868405695460822, 0.9224698166335206, -0.2467850877616018],[0.09318107622006312, 0.8890649012599358, 0.04068705888478519],[0.22010134468069334, 0.7553095298485845, 0.11976074742097713]
1,36,[-0.04868405695460822, 0.9224698166335206, -0.2467850877616018],[0.09318107622006312, 0.8890649012599358, 0.04068705888478519],[0.22010134468069334, 0.7553095298485845, 0.11976074742097713]
1,37,[-0.04868405695460822, 0.9224698166335206, -0.2467850877616018],[0.09318107622006312, 0.8890649012599358, 0.04068705888478519],[0.22010134468069334, 0.7553095298485845, 0.11976074742097713]
1,38,[-0.04868405695460822, 0.9224698166335206, -0.2467850877616018],[0.09318107622006312, 0.8890649012599358, 0.04068705888478519],[0.22010134468069334, 0.7553095298485845, 0.11976074742097713]
1,39,[-0.04868405695460822, 0.9224698166335206, -0.2467850877616018],[0.09318107622006312, 0.8890649012599358, 0.04068705888478519],[0.22010134468069334, 0.7553095298485845, 0.11976074742097713]
1,40,[-0.04868405695460822, 0.9224698166335206, -0.2467850877616018],[0.09318107622006312, 0.8890649012599358, 0.04068705888478519],[0.22010134468069334, 0.7553095298485845, 0.11976074742097713]
1,41,[-0.04868405695460822, 0.9224698166335206, -0.2467850877616018],[0.09318107622006312, 0.8890649012599358, 0.04068705888478519],[0.22010134468069334, 0.7553095298485845, 0.11976074742097713]
1,42,[-0.04868405695460822, 0.9224698166335206, -0.2467850877616018],[0.09318107622006312, 0.8890649012599358, 0.04068705888478519],[0.22010134468069334, 0.7553095298485845, 0.11976074742097713]
1,43,[-0.04868405695460822, 0.9224698166335206, -0.2467850877616018],[0.09318107622006312, 0.8890649012599358, 0.04068705888478519],[0.22010134468069334, 0.7553095298485845, 0.11976074742097713]
1,44,[-0.04868405695460822, 0.9224698166335206, -0.2467850877616018],[0.09318107622006312, 0.8890649012599358, 0.04068705888478519],[0.22010134468069334, 0.7553095298485845, 0.11976074742097713]
1,45,[-0.04868405695460822, 0.9224698166335206, -0.2467850877616018],[0.09318107622006312, 0.8890649012599358, 0.04068705888478519],[0.22010134468069334, 0.7553095298485845, 0.11976074742097713]
1,46,[-0.04868405695460822, 0.9224698166335206, -0.2467850877616018],[0.09318107622006312, 0.8890649012599358, 0.04068705888478519],[0.22010134468069334, 0.7553095298485845, 0.11976074742097713]
1,47,[-0.04868405695460822, 0.9224698166335206, -0.2467850877616018],[0.09318107622006312, 0.8890649012599358, 0.04068705888478519],[0.22010134468069334, 0.7553095298485845, 0.11976074742097713]
1,48,[-0.04868405695460822, 0.9224698166335206, -0.2467850877616018],[0.09318107622006312, 0.8890649012599358, 0.04068705888478519],[0.22010134468069334, 0.7553095298485845, 0.11976074742097713]
1,49,[-0.04868405695460822, 0.9224698166335206, -0.2467850877616018],[0.09318107622006312, 0.8890649012599358, 0.04068705888478519],[0.22010134468069334, 0.7553095298485845, 0.11976074742097713]
1,50,[-0.04868405695460822, 0.9224698166335206, -0.2467850877616018],[0.09318107622006312, 0.8890649012599358, 0.04068705888478519],[0.22010134468069334, 0.7553095298485845, 0.11976074742097713]
1,51,[-0.04868405695460822, 0.9224698166335206, -0.2467850877616018],[0.09318107622006312, 0.8890649012599358, 0.04068705888478519],[0.22010134468069334, 0.7553095298485845, 0.11976074742097713]
1,52,[-0.04868405695460822, 0.9224698166335206, -0.2467850877616018],[0.09318107622006312, 0.8890649012599358, 0.04068705888478519],[0.22010134468069334, 0.7553095298485845, 0.11976074742097713]
1,53,[-0.04868405695460822, 0.9224698166335206, -0.2467850877616018],[0.09318107622006312, 0.8890649012599358, 0.04068705888478519],[0.22010134468069334, 0.7553095298485845, 0.11976074742097713]
1,54,[-0.04868405695460822, 0.9224698166335206, -0.2467850877616018],[0.09318107622006312, 0.8890649012599358, 0.04068705888478519],[0.22010134468069334, 0.7553095298485845, 0.11976074742097713]
1,55,[-0.04868405695460822, 0.9224698166335206, -0.2467850877616018],[0.09318107622006312, 0.8890649012599358, 0.04068705888478519],[0.22010134468069334, 0.7553095298485845, 0.11976074742097713]
1,56,[-0.04868405695460822, 0.9224698166335206, -0.2467850877616018],[0.09318107622006312, 0.8890649012599358, 0.04068705888478519],[0.22010134468069334, 0.7553095298485845, 0.11976074742097713]
1,57,[-0.04868405695460822, 0.9224698166335206, -0.2467850877616018],[0.09318107622006312, 0.8890649012599358, 0.04068705888478519],[0.22010134468069334, 0.7553095298485845, 0.11976074742097713]
1,58,[-0.04868405695460822, 0.9224698166335206, -0.2467850877616018],[0.09318107622006312, 0.8890649012599358, 0.04068705888478519],[0.22010134468069334, 0.7553095298485845, 0.11976074742097713]
1,59,[-0.04868405695460822, 0.9224698166335206, -0.2467850877616018],[0.09318107622006312, 0.8890649012599358, 0.04068705888478519],[0.22010134468069334, 0.7553095298485845, 0.11976074742097713]
1,60,[-0.04868405695460822, 0.9224698166335206, -0.2467850877616018],[0.09318107622006312, 0.8890649012599358, 0.04068705888478519],[0.22010134468069334, 0.7553095298485845, 0.11976074742097713]
1,61,[-0.04868405695460822, 0.9224698166335206, -0.2467850877616018],[0.09318107622006312, 0.8890649012599358, 0.04068705888478519],[0.22010134468069334, 0.7553095298485845, 0.11976074742097713]
1,62,[-0.04868405695460822, 0.9224698166335206, -0.2467850877616018],[0.09318107622006312, 0.8890649012599358, 0.04068705888478519],[0.22010134468069334, 0.7553095298485845, 0.11976074742097713]
1,63,[-0.04868405695460822, 0.9224698166335206, -0.2467850877616018],[0.09318107622006312, 0.8890649012599358, 0.04068705888478519],[0.22010134468069334, 0.7553095298485845, 0.11976074742097713]
1,64,[-0.04868405695460822, 0.9224698166335206, -0.2467850877616018],[0.09318107622006312, 0.8890649012599358, 0.04068705888478519],[0.22010134468069334, 0.7553095298485845, 0.11976074742097713]
1,65,[-0.04868405695460822, 0.9224698166335206, -0.2467850877616018],[0.09318107622006312, 0.8890649012599358, 0.04068705888478519],[0.22010134468069334, 0.7553095298485845, 0.11976074742097713]
1,66,[-0.04868405695460822, 0.9224698166335206, -0.2467850877616018],[0.09318107622006312, 0.8890649012599358, 0.04068705888478519],[0.22010134468069334, 0.7553095298485845, 0.11976074742097713]
1,67,[-0.04868405695460822, 0.9224698166335206, -0.2467850877616018],[0.09318107622006312, 0.8890649012599358, 0.04068705888478519],[0.22010134468069334, 0.7553095298485845, 0.11976074742097713]
1,68,[-0.04868405695460822, 0.9224698166335206, -0.2467850877616018],[0.09318107622006312, 0.8890649012599358, 0.04068705888478519],[0.22010134468069334, 0.7553095298485845, 0.11976074742097713]
1,69,[-0.04868405695460822, 0.9224698166335206, -0.2467850877616018],[0.09318107622006312, 0.8890649012599358, 0.04068705888478519],[0.22010134468069334, 0.7553095298485845, 0.11976074742097713]
1,70,[-0.04868405695460822, 0.9224698166335206, -0.2467850877616018],[0.09318107622006312, 0.8890649012599358, 0.04068705888478519],[0.22010134468069334, 0.7553095298485845, 0.11976074742097713]
1,71,[-0.04868405695460822, 0.9224698166335206, -0.2467850877616018],[0.09318107622006312, 0.8890649012599358, 0.04068705888478519],[0.22010134468069334, 0.7553095298485845, 0.11976074742097713]
1,72,[-0.04868405695460822, 0.9224698166335206, -0.2467850877616018],[0.09318107622006312, 0.8890649012599358, 0.04068705888478519],[0.22010134468069334, 0.7553095298485845, 0.11976074742097713]
1,73,[-0.04868405695460822, 0.9224698166335206, -0.2467850877616018],[0.09318107622006312, 0.8890649012599358, 0.04068705888478519],[0.22010134468069334, 0.7553095298485845, 0.11976074742097713]
1,74,[-0.04868405695460822, 0.9224698166335206, -0.2467850877616018],[0.09318107622006312, 0.8890649012599358, 0.04068705888478519],[0.22010134468069334, 0.7553095298485845, 0.11976074742097713]
1,75,[-0.04868405695460822, 0.9224698166335206, -0.2467850877616018],[0.09318107622006312, 0.8890649012599358, 0.04068705888478519],[0.22010134468069334, 0.7553095298485845, 0.11976074742097713]
1,76,[-0.04868405695460822, 0.9224698166335206, -0.2467850877616018],[0.09318107622006312, 0.8890649012599358, 0.04068705888478519],[0.22010134468069334, 0.7553095298485845, 0.11976074742097713]
1,77,[-0.04868405695460822, 0.9224698166335206, -0.2467850877616018],[0.09318107622006312, 0.8890649012599358, 0.04068705888478519],[0.22010134468069334, 0.7553095298485845, 0.11976074742097713]
1,78,[-0.04868405695460822, 0.9224698166335206, -0.2467850877616018],[0.09318107622006312, 0.8890649012599358, 0.04068705888478519],[0.22010134468069334, 0.7553095298485845, 0.11976074742097713]
1,79,[-0.04868405695460822, 0.9224698166335206, -0.2467850877616018],[0.09318107622006312, 0.8890649012599358, 0.04068705888478519],[0.22010134468069334, 0.7553095298485845, 0.11976074742097713]
1,80,[-0.04868405695460822, 0.9224698166335206, -0.2467850877616018],[0.09318107622006312, 0.8890649012599358, 0.04068705888478519],[0.22010134468069334, 0.7553095298485845, 0.11976074742097713]
1,81,[-0.04868405695460822, 0.9224698166335206, -0.2467850877616018],[0.09318107622006312, 0.8890649012599358, 0.04068705888478519],[0.22010134468069334, 0.7553095298485845, 0.11976074742097713]
1,82,[-0.04868405695460822, 0.9224698166335206, -0.2467850877616018],[0.09318107622006312, 0.8890649012599358, 0.04068705888478519],[0.22010134468069334, 0.7553095298485845, 0.11976074742097713]
1,83,[-0.04868405695460822, 0.9224698166335206, -0.2467850877616018],[0.09318107622006312, 0.8890649012599358, 0.04068705888478519],[0.22010134468069334, 0.7553095298485845, 0.11976074742097713]
1,84,[-0.04868405695460822, 0.9224698166335206, -0.2467850877616018],[0.09318107622006312, 0.8890649012599358, 0.04068705888478519],[0.22010134468069334, 0.7553095298485845, 0.11976074742097713]
1,85,[-0.04868405695460822, 0.9224698166335206, -0.2467850877616018],[0.09318107622006312, 0.8890649012599358, 0.04068705888478519],[0.22010134468069334, 0.7553095298485845, 0.11976074742097713]
1,86,[-0.04868405695460822, 0.9224698166335206, -0.2467850877616018],[0.09318107622006312, 0.8890649012599358, 0.04068705888478519],[0.22010134468069334, 0.7553095298485845, 0.11976074742097713]
1,87,[-0.04868405695460822, 0.9224698166335206, -0.2467850877616018],[0.09318107622006312, 0.8890649012599358, 0.04068705888478519],[0.22010134468069334, 0.7553095298485845, 0.11976074742097713]
1,88,[-0.04868405695460822, 0.9224698166335206, -0.2467850877616018],[0.09318107622006312, 0.8890649012599358, 0.04068705888478519],[0.22010134468069334, 0.7553095298485845, 0.11976074742097713]
1,89,[-0.04868405695460822, 0.9224698166335206, -0.2467850877616018],[0.09318107622006312, 0.8890649012599358, 0.04068705888478519],[0.22010134468069334, 0.7553095298485845, 0.11976074742097713]
1,90,[-0.04868405695460822, 0.9224698166335206, -0.2467850877616018],[0.09318107622006312, 0.8890649012599358, 0.04068705888478519],[0.22010134468069334, 0.7553095298485845, 0.11976074742097713]
1,91,[-0.04868405695460822, 0.9224698166335206, -0.2467850877616018],[0.09318107622006312, 0.8890649012599358, 0.04068705888478519],[0.22010134468069334, 0.7553095298485845, 0.11976074742097713]
1,92,[-0.04868405695460822, 0.9224698166335206, -0.2467850877616018],[0.09318107622006312, 0.8890649012599358, 0.04068705888478519],[0.22010134468069334, 0.7553095298485845, 0.11976074742097713]
1,93,[-0.04868405695460822, 0.9224698166335206, -0.2467850877616018],[0.09318107622006312, 0.8890649012599358, 0.04068705888478519],[0.22010134468069334, 0.7553095298485845, 0.11976074742097713]
1,94,[-0.04868405695460822, 0.9224698166335206, -0.2467850877616018],[0.09318107622006312, 0.8890649012599358, 0.04068705888478519],[0.22010134468069334, 0.7553095298485845, 0.11976074742097713]
1,95,[-0.04868405695460822, 0.9224698166335206, -0.2467850877616018],[0.09318107622006312, 0.8890649012599358, 0.04068705888478519],[0.22010134468069334, 0.7553095298485845, 0.11976074742097713]
1,96,[-0.04868405695460822, 0.9224698166335206, -0.2467850877616018],[0.09318107622006312, 0.8890649012599358, 0.04068705888478519],[0.22010134468069334, 0.7553095298485845, 0.11976074742097713]
1,97,[-0.04868405695460822, 0.9224698166335206, -0.2467850877616018],[0.09318107622006312, 0.8890649012599358, 0.04068705888478519],[0.22010134468069334, 0.7553095298485845, 0.11976074742097713]
1,98,[-0.04868405695460822, 0.9224698166335206, -0.2467850877616018],[0.09318107622006312, 0.8890649012599358, 0.04068705888478519],[0.22010134468069334, 0.7553095298485845, 0.11976074742097713]
1,99,[-0.04868405695460822, 0.9224698166335206, -0.2467850877616018],[0.09318107622006312, 0.8890649012599358, 0.04068705888478519],[0.22010134468069334, 0.7553095298485845, 0.11976074742097713]
2,0,[-0.08804833684052289, 1.0, -0.11375812161437725],[0.08047561257529033, 0.869539199832877, 0.10594149970908587],[0.20626542070220358, 0.7104605391114476, 0.12035496152767383]
2,1,[-0.08804833684052289, 1.0, -0.11375812161437725],[0.08047561257529033, 0.869539199832877, 0.10594149970908587],[0.20626542070220358, 0.7104605391114476, 0.12035496152767383]
2,2,[-0.08804833684052289, 1.0, -0.11375812161437725],[0.08047561257529033, 0.869539199832877, 0.10594149970908587],[0.20626542070220358, 0.7104605391114476, 0.12035496152767383]
2,3,[-0.08804833684052289, 1.0, -0.11375812161437725],[0.08047561257529033, 0.869539199832877, 0.10594149970908587],[0.20626542070220358, 0.7104605391114476, 0.12035496152767383]
2,4,[-0.08804833684052289, 1.0, -0.11375812161437725],[0.08047561257529033, 0.869539199832877, 0.10594149970908587],[0.20626542070220358, 0.7104605391114476, 0.12035496152767383]
2,5,[-0.08804833684052289, 1.0, -0.11375812161437725],[0.08047561257529033, 0.869539199832877, 0.10594149970908587],[0.20626542070220358, 0.7104605391114476, 0.12035496152767383]
2,6,[-0.08804833684052289, 1.0, -0.11375812161437725],[0.08047561257529033, 0.869539199832877, 0.10594149970908587],[0.20626542070220358, 0.7104605391114476, 0.12035496152767383]
2,7,[-0.08804833684052289, 1.0, -0.11375812161437725],[0.08047561257529033, 0.869539199832877, 0.10594149970908587],[0.20626542070220358, 0.7104605391114476, 0.12035496152767383]
2,8,[-0.08804833684052289, 1.0, -0.11375812161437725],[0.08047561257529033, 0.869539199832877, 0.10594149970908587],[0.20626542070220358, 0.7104605391114476, 0.12035496152767383]
2,9,[-0.08804833684052289, 1.0, -0.11375812161437725],[0.08047561257529033, 0.869539199832877, 0.10594149970908587],[0.20626542070220358, 0.7104605391114476, 0.12035496152767383]
2,10,[-0.08804833684052289, 1.0, -0.11375812161437725],[0.08047561257529033, 0.869539199832877, 0.10594149970908587],[0.20626542070220358, 0.7104605391114476, 0.12035496152767383]
2,11,[-0.08804833684052289, 1.0, -0.11375812161437725],[0.08047561257529033, 0.869539199832877, 0.10594149970908587],[0.20626542070220358, 0.7104605391114476, 0.12035496152767383]
2,12,[-0.08804833684052289, 1.0, -0.11375812161437725],[0.08047561257529033, 0.869539199832877, 0.10594149970908587],[0.20626542070220358, 0.7104605391114476, 0.12035496152767383]
2,13,[-0.08804833684052289, 1.0, -0.11375812161437725],[0.08047561257529033, 0.869539199832877, 0.10594149970908587],[0.20626542070220358, 0.7104605391114476, 0.12035496152767383]
2,14,[-0.08804833684052289, 1.0, -0.11375812161437725],[0.08047561257529033, 0.869539199832877, 0.10594149970908587],[0.20626542070220358, 0.7104605391114476, 0.12035496152767383]
2,15,[-0.08804833684052289, 1.0, -0.11375812161437725],[0.08047561257529033, 0.869539199832877, 0.10594149970908587],[0.20626542070220358, 0.7104605391114476, 0.12035496152767383]
2,16,[-0.08804833684052289, 1.0, -0.11375812161437725],[0.08047561257529033, 0.869539199832877, 0.10594149970908587],[0.20626542070220358, 0.7104605391114476, 0.12035496152767383]
2,17,[-0.08804833684052289, 1.0, -0.11375812161437725],[0.08047561257529033, 0.869539199832877, 0.10594149970908587],[0.20626542070220358, 0.7104605391114476, 0.12035496152767383]
2,18,[-0.08804833684052289, 1.0, -0.11375812161437725],[0.08047561257529033, 0.869539199832877, 0.10594149970908587],[0.20626542070220358, 0.7104605391114476, 0.12035496152767383]
2,19,[-0.08804833684052289, 1.0, -0.11375812161437725],[0.08047561257529033, 0.869539199832877, 0.10594149970908587],[0.20626542070220358, 0.7104605391114476, 0.12035496152767383]
2,20,[-0.08804833684052289, 1.0, -0.11375812161437725],[0.08047561257529033, 0.869539199832877, 0.10594149970908587],[0.20626542070220358, 0.7104605391114476, 0.12035496152767383]
2,21,[-0.08804833684052289, 1.0, -0.11375812161437725],[0.08047561257529033, 0.869539199832877, 0.10594149970908587],[0.20626542070220358, 0.7104605391114476, 0.12035496152767383]
2,22,[-0.08804833684052289, 1.0, -0.11375812161437725],[0.08047561257529033, 0.869539199832877, 0.10594149970908587],[0.20626542070220358, 0.7104605391114476, 0.12035496152767383]
2,23,[-0.08804833684052289, 1.0, -0.11375812161437725],[0.08047561257529033, 0.869539199832877, 0.10594149970908587],[0.20626542070220358, 0.7104605391114476, 0.12035496152767383]
2,24,[-0.08804833684052289, 1.0, -0.11375812161437725],[0.08047561257529033, 0.869539199832877, 0.10594149970908587],[0.20626542070220358, 0.7104605391114476, 0.12035496152767383]
2,25,[-0.08804833684052289, 1.0, -0.11375812161437725],[0.08047561257529033, 0.869539199832877, 0.10594149970908587],[0.20626542070220358, 0.7104605391114476, 0.12035496152767383]
2,26,[-0.08804833684052289, 1.0, -0.11375812161437725],[0.08047561257529033, 0.869539199832877, 0.10594149970908587],[0.20626542070220358, 0.7104605391114476, 0.12035496152767383]
2,27,[-0.08804833684052289, 1.0, -0.11375812161437725],[0.08047561257529033, 0.869539199832877, 0.10594149970908587],[0.20626542070220358, 0.7104605391114476, 0.12035496152767383]
2,28,[-0.08804833684052289, 1.0, -0.11375812161437725],[0.08047561257529033, 0.869539199832877, 0.10594149970908587],[0.20626542070220358, 0.7104605391114476, 0.12035496152767383]
2,29,[-0.08804833684052289, 1.0, -0.11375812161437725],[0.08047561257529033, 0.869539199832877, 0.10594149970908587],[0.20626542070220358, 0.7104605391114476, 0.12035496152767383]
2,30,[-0.08804833684052289, 1.0, -0.11375812161437725],[0.08047561257529033, 0.869539199832877, 0.10594149970908587],[0.20626542070220358, 0.7104605391114476, 0.12035496152767383]
2,31,[-0.08804833684052289, 1.0, -0.11375812161437725],[0.08047561257529033, 0.869539199832877, 0.10594149970908587],[0.20626542070220358, 0.7104605391114476, 0.12035496152767383]
2,32,[-0.08804833684052289, 1.0, -0.11375812161437725],[0.08047561257529033, 0.869539199832877, 0.10594149970908587],[0.20626542070220358, 0.7104605391114476, 0.12035496152767383]
2,33,[-0.08804833684052289, 1.0, -0.11375812161437725],[0.08047561257529033, 0.869539199832877, 0.10594149970908587],[0.20626542070220358, 0.7104605391114476, 0.12035496152767383]
2,34,[-0.08804833684052289, 1.0, -0.11375812161437725],[0.08047561257529033, 0.869539199832877, 0.10594149970908587],[0.20626542070220358, 0.7104605391114476, 0.12035496152767383]
2,35,[-0.08804833684052289, 1.0, -0.11375812161437725],[0.08047561257529033, 0.869539199832877, 0.10594149970908587],[0.20626542070220358, 0.7104605391114476, 0.12035496152767383]
2,36,[-0.08804833684052289, 1.0, -0.11375812161437725],[0.08047561257529033, 0.869539199832877, 0.10594149970908587],[0.20626542070220358, 0.7104605391114476, 0.12035496152767383]
2,37,[-0.08804833684052289, 1.0, -0.11375812161437725],[0.08047561257529033, 0.869539199832877, 0.10594149970908587],[0.20626542070220358, 0.7104605391114476, 0.12035496152767383]
2,38,[-0.08804833684052289, 1.0, -0.11375812161437725],[0.08047561257529033, 0.869539199832877, 0.10594149970908587],[0.20626542070220358, 0.7104605391114476, 0.12035496152767383]
2,39,[-0.08804833684052289, 1.0, -0.11375812161437725],[0.08047561257529033, 0.869539199832877, 0.10594149970908587],[0.20626542070220358, 0.7104605391114476, 0.12035496152767383]
2,40,[-0.08804833684052289, 1.0, -0.11375812161437725],[0.08047561257529033, 0.869539199832877, 0.10594149970908587],[0.20626542070220358, 0.7104605391114476, 0.12035496152767383]
2,41,[-0.08804833684052289, 1.0, -0.11375812161437725],[0.08047561257529033, 0.869539199832877, 0.10594149970908587],[0.20626542070220358, 0.7104605391114476, 0.12035496152767383]
2,42,[-0.08804833684052289, 1.0, -0.11375812161437725],[0.08047561257529033, 0.869539199832877, 0.10594149970908587],[0.20626542070220358, 0.7104605391114476, 0.12035496152767383]
2,43,[-0.08804833684052289, 1.0, -0.11375812161437725],[0.08047561257529033, 0.869539199832877, 0.10594149970908587],[0.20626542070220358, 0.7104605391114476, 0.12035496152767383]
2,44,[-0.08804833684052289, 1.0, -0.11375812161437725],[0.08047561257529033, 0.869539199832877, 0.10594149970908587],[0.20626542070220358, 0.7104605391114476, 0.12035496152767383]
2,45,[-0.08804833684052289, 1.0, -0.11375812161437725],[0.08047561257529033, 0.869539199832877, 0.10594149970908587],[0.20626542070220358, 0.7104605391114476, 0.12035496152767383]
2,46,[-0.08804833684052289, 1.0, -0.11375812161437725],[0.08047561257529033, 0.869539199832877, 0.10594149970908587],[0.20626542070220358, 0.7104605391114476, 0.12035496152767383]
2,47,[-0.08804833684052289, 1.0, -0.11375812161437725],[0.08047561257529033, 0.869539199832877, 0.10594149970908587],[0.20626542070220358, 0.7104605391114476, 0.12035496152767383]
2,48,[-0.08804833684052289, 1.0, -0.11375812161437725],[0.08047561257529033, 0.869539199832877, 0.10594149970908587],[0.20626542070220358, 0.7104605391114476, 0.12035496152767383]
2,49,[-0.08804833684052289, 1.0, -0.11375812161437725],[0.08047561257529033, 0.869539199832877, 0.10594149970908587],[0.20626542070220358, 0.7104605391114476, 0.12035496152767383]
2,50,[-0.08804833684052289, 1.0, -0.11375812161437725],[0.08047561257529033, 0.869539199832877, 0.10594149970908587],[0.20626542070220358, 0.7104605391114476, 0.12035496152767383]
2,51,[-0.08804833684052289, 1.0, -0.11375812161437725],[0.08047561257529033, 0.869539199832877, 0.10594149970908587],[0.20626542070220358, 0.7104605391114476, 0.12035496152767383]
2,52,[-0.08804833684052289, 1.0, -0.11375812161437725],[0.08047561257529033, 0.869539199832877, 0.10594149970908587],[0.20626542070220358, 0.7104605391114476, 0.12035496152767383]
2,53,[-0.08804833684052289, 1.0, -0.11375812161437725],[0.08047561257529033, 0.869539199832877, 0.10594149970908587],[0.20626542070220358, 0.7104605391114476, 0.12035496152767383]
2,54,[-0.08804833684052289, 1.0, -0.11375812161437725],[0.08047561257529033, 0.869539199832877, 0.10594149970908587],[0.20626542070220358, 0.7104605391114476, 0.12035496152767383]
2,55,[-0.08804833684052289, 1.0, -0.11375812161437725],[0.08047561257529033, 0.869539199832877, 0.10594149970908587],[0.20626542070220358, 0.7104605391114476, 0.12035496152767383]
2,56,[-0.08804833684052289, 1.0, -0.11375812161437725],[0.08047561257529033, 0.869539199832877, 0.10594149970908587],[0.20626542070220358, 0.7104605391114476, 0.12035496152767383]
2,57,[-0.08804833684052289, 1.0, -0.11375812161437725],[0.08047561257529033, 0.869539199832877, 0.10594149970908587],[0.20626542070220358, 0.7104605391114476, 0.12035496152767383]
2,58,[-0.08804833684052289, 1.0, -0.11375812161437725],[0.08047561257529033, 0.869539199832877, 0.10594149970908587],[0.20626542070220358, 0.7104605391114476, 0.12035496152767383]
2,59,[-0.08804833684052289, 1.0, -0.11375812161437725],[0.08047561257529033, 0.869539199832877, 0.10594149970908587],[0.20626542070220358, 0.7104605391114476, 0.12035496152767383]
2,60,[-0.08804833684052289, 1.0, -0.11375812161437725],[0.08047561257529033, 0.869539199832877, 0.10594149970908587],[0.20626542070220358, 0.7104605391114476, 0.12035496152767383]
2,61,[-0.08804833684052289, 1.0, -0.11375812161437725],[0.08047561257529033, 0.869539199832877, 0.10594149970908587],[0.20626542070220358, 0.7104605391114476, 0.12035496152767383]
2,62,[-0.08804833684052289, 1.0, -0.11375812161437725],[0.08047561257529033, 0.869539199832877, 0.10594149970908587],[0.20626542070220358, 0.7104605391114476, 0.12035496152767383]
2,63,[-0.08804833684052289, 1.0, -0.11375812161437725],[0.08047561257529033, 0.869539199832877, 0.10594149970908587],[0.20626542070220358, 0.7104605391114476, 0.12035496152767383]
2,64,[-0.08804833684052289, 1.0, -0.11375812161437725],[0.08047561257529033, 0.869539199832877, 0.10594149970908587],[0.20626542070220358, 0.7104605391114476, 0.12035496152767383]
2,65,[-0.08804833684052289, 1.0, -0.11375812161437725],[0.08047561257529033, 0.869539199832877, 0.10594149970908587],[0.20626542070220358, 0.7104605391114476, 0.12035496152767383]
2,66,[-0.08804833684052289, 1.0, -0.11375812161437725],[0.08047561257529033, 0.869539199832877, 0.10594149970908587],[0.20626542070220358, 0.7104605391114476, 0.12035496152767383]
2,67,[-0.08804833684052289, 1.0, -0.11375812161437725],[0.08047561257529033, 0.869539199832877, 0.10594149970908587],[0.20626542070220358, 0.7104605391114476, 0.12035496152767383]
2,68,[-0.08804833684052289, 1.0, -0.11375812161437725],[0.08047561257529033, 0.869539199832877, 0.10594149970908587],[0.20626542070220358, 0.7104605391114476, 0.12035496152767383]
2,69,[-0.08804833684052289, 1.0, -0.11375812161437725],[0.08047561257529033, 0.869539199832877, 0.10594149970908587],[0.20626542070220358, 0.7104605391114476, 0.12035496152767383]
2,70,[-0.08804833684052289, 1.0, -0.11375812161437725],[0.08047561257529033, 0.869539199832877, 0.10594149970908587],[0.20626542070220358, 0.7104605391114476, 0.12035496152767383]
2,71,[-0.08804833684052289, 1.0, -0.11375812161437725],[0.08047561257529033, 0.869539199832877, 0.10594149970908587],[0.20626542070220358, 0.7104605391114476, 0.12035496152767383]
2,72,[-0.08804833684052289, 1.0, -0.11375812161437725],[0.08047561257529033, 0.869539199832877, 0.10594149970908587],[0.20626542070220358, 0.7104605391114476, 0.12035496152767383]
2,73,[-0.08804833684052289, 1.0, -0.11375812161437725],[0.08047561257529033, 0.869539199832877, 0.10594149970908587],[0.20626542070220358, 0.7104605391114476, 0.12035496152767383]
2,74,[-0.08804833684052289, 1.0, -0.11375812161437725],[0.08047561257529033, 0.869539199832877, 0.10594149970908587],[0.20626542070220358, 0.7104605391114476, 0.12035496152767383]
2,75,[-0.08804833684052289, 1.0, -0.11375812161437725],[0.08047561257529033, 0.869539199832877, 0.10594149970908587],[0.20626542070220358, 0.7104605391114476, 0.12035496152767383]
2,76,[-0.08804833684052289, 1.0, -0.11375812161437725],[0.08047561257529033, 0.869539199832877, 0.10594149970908587],[0.20626542070220358, 0.7104605391114476, 0.12035496152767383]
2,77,[-0.08804833684052289, 1.0, -0.11375812161437725],[0.08047561257529033, 0.869539199832877, 0.10594149970908587],[0.20626542070220358, 0.7104605391114476, 0.12035496152767383]
2,78,[-0.08804833684052289, 1.0, -0.11375812161437725],[0.08047561257529033, 0.869539199832877, 0.10594149970908587],[0.20626542070220358, 0.7104605391114476, 0.12035496152767383]
2,79,[-0.08804833684052289, 1.0, -0.11375812161437725],[0.08047561257529033, 0.869539199832877, 0.10594149970908587],[0.20626542070220358, 0.7104605391114476, 0.12035496152767383]
2,80,[-0.08804833684052289, 1.0, -0.11375812161437725],[0.08047561257529033, 0.869539199832877, 0.10594149970908587],[0.20626542070220358, 0.7104605391114476, 0.12035496152767383]
2,81,[-0.08804833684052289, 1.0, -0.11375812161437725],[0.08047561257529033, 0.869539199832877, 0.10594149970908587],[0.20626542070220358, 0.7104605391114476, 0.12035496152767383]
2,82,[-0.08804833684052289, 1.0, -0.11375812161437725],[0.08047561257529033, 0.869539199832877, 0.10594149970908587],[0.20626542070220358, 0.7104605391114476, 0.12035496152767383]
2,83,[-0.08804833684052289, 1.0, -0.11375812161437725],[0.08047561257529033, 0.869539199832877, 0.10594149970908587],[0.20626542070220358, 0.7104605391114476, 0.12035496152767383]
2,84,[-0.08804833684052289, 1.0, -0.11375812161437725],[0.08047561257529033, 0.869539199832877, 0.10594149970908587],[0.20626542070220358, 0.7104605391114476, 0.12035496152767383]
2,85,[-0.08804833684052289, 1.0, -0.11375812161437725],[0.08047561257529033, 0.869539199832877, 0.10594149970908587],[0.20626542070220358, 0.7104605391114476, 0.12035496152767383]
2,86,[-0.08804833684052289, 1.0, -0.11375812161437725],[0.08047561257529033, 0.869539199832877, 0.10594149970908587],[0.20626542070220358, 0.7104605391114476, 0.12035496152767383]
2,87,[-0.08804833684052289, 1.0, -0.11375812161437725],[0.08047561257529033, 0.869539199832877, 0.10594149970908587],[0.20626542070220358, 0.7104605391114476, 0.12035496152767383]
2,88,[-0.08804833684052289, 1.0, -0.11375812161437725],[0.08047561257529033, 0.869539199832877, 0.10594149970908587],[0.20626542070220358, 0.7104605391114476, 0.12035496152767383]
2,89,[-0.08804833684052289, 1.0, -0.11375812161437725],[0.08047561257529033, 0.869539199832877, 0.10594149970908587],[0.20626542070220358, 0.7104605391114476, 0.12035496152767383]
2,90,[-0.08804833684052289, 1.0, -0.11375812161437725],[0.08047561257529033, 0.869539199832877, 0.10594149970908587],[0.20626542070220358, 0.7104605391114476, 0.12035496152767383]
2,91,[-0.08804833684052289, 1.0, -0.11375812161437725],[0.08047561257529033, 0.869539199832877, 0.10594149970908587],[0.20626542070220358, 0.7104605391114476, 0.12035496152767383]
2,92,[-0.08804833684052289, 1.0, -0.11375812161437725],[0.08047561257529033, 0.869539199832877, 0.10594149970908587],[0.20626542070220358, 0.7104605391114476, 0.12035496152767383]
2,93,[-0.08804833684052289, 1.0, -0.11375812161437725],[0.08047561257529033, 0.869539199832877, 0.10594149970908587],[0.20626542070220358, 0.7104605391114476, 0.12035496152767383]
2,94,[-0.08804833684052289, 1.0, -0.11375812161437725],[0.08047561257529033, 0.869539199832877, 0.10594149970908587],[0.20626542070220358, 0.7104605391114476, 0.12035496152767383]
2,95,[-0.08804833684052289, 1.0, -0.11375812161437725],[0.08047561257529033, 0.869539199832877, 0.10594149970908587],[0.20626542070220358, 0.7104605391114476, 0.12035496152767383]
2,96,[-0.08804833684052289, 1.0, -0.11375812161437725],[0.08047561257529033, 0.869539199832877, 0.10594149970908587],[0.20626542070220358, 0.7104605391114476, 0.12035496152767383]
2,97,[-0.08804833684052289, 1.0, -0.11375812161437725],[0.08047561257529033, 0.869539199832877, 0.10594149970908587],[0.20626542070220358, 0.7104605391114476, 0.12035496152767383]
2,98,[-0.08804833684052289, 1.0, -0.11375812161437725],[0.08047561257529033, 0.869539199832877, 0.10594149970908587],[0.20626542070220358, 0.7104605391114476, 0.12035496152767383]
2,99,[-0.08804833684052289, 1.0, -0.11375812161437725],[0.08047561257529033, 0.869539199832877, 0.10594149970908587],[0.20626542070220358, 0.7104605391114476, 0.12035496152767383]
3,0,[0.007237054791328736, 0.8796586197761198, 0.06910672929353082],[-0.06426035858172482, 0.7559990577055522, 0.10898934917343678],[-0.15856553426643777, 0.6082265918081634, 0.04854668093433887]
3,1,[0.007237054791328736, 0.8796586197761198, 0.06910672929353082],[-0.06426035858172482, 0.7559990577055522, 0.10898934917343678],[-0.15856553426643777, 0.6082265918081634, 0.04854668093433887]
3,2,[0.007237054791328736, 0.8796586197761198, 0.06910672929353082],[-0.06426035858172482, 0.7559990577055522, 0.10898934917343678],[-0.15856553426643777, 0.6082265918081634, 0.04854668093433887]
3,3,[0.007237054791328736, 0.8796586197761198, 0.06910672929353082],[-0.06426035858172482, 0.7559990577055522, 0.10898934917343678],[-0.15856553426643777, 0.6082265918081634, 0.04854668093433887]
3,4,[0.007237054791328736, 0.8796586197761198, 0.06910672929353082],[-0.06426035858172482, 0.7559990577055522, 0.10898934917343678],[-0.15856553426643777, 0.6082265918081634, 0.04854668093433887]
3,5,[0.007237054791328736, 0.8796586197761198, 0.06910672929353082],[-0.06426035858172482, 0.7559990577055522, 0.10898934917343678],[-0.15856553426643777, 0.6082265918081634, 0.04854668093433887]
3,6,[0.007237054791328736, 0.8796586197761198, 0.06910672929353082],[-0.06426035858172482, 0.7559990577055522, 0.10898934917343678],[-0.15856553426643777, 0.6082265918081634, 0.04854668093433887]
3,7,[0.007237054791328736, 0.8796586197761198, 0.06910672929353082],[-0.06426035858172482, 0.7559990577055522, 0.10898934917343678],[-0.15856553426643777, 0.6082265918081634, 0.04854668093433887]
3,8,[0.007237054791328736, 0.8796586197761198, 0.06910672929353082],[-0.06426035858172482, 0.7559990577055522, 0.10898934917343678],[-0.15856553426643777, 0.6082265918081634, 0.04854668093433887]
3,9,[0.007237054791328736, 0.8796586197761198, 0.06910672929353082],[-0.06426035858172482, 0.7559990577055522, 0.10898934917343678],[-0.15856553426643777, 0.6082265918081634, 0.04854668093433887]
3,10,[0.007237054791328736, 0.8796586197761198, 0.06910672929353082],[-0.06426035858172482, 0.7559990577055522, 0.10898934917343678],[-0.15856553426643777, 0.6082265918081634, 0.04854668093433887]
3,11,[0.007237054791328736, 0.8796586197761198, 0.06910672929353082],[-0.06426035858172482, 0.7559990577055522, 0.10898934917343678],[-0.15856553426643777, 0.6082265918081634, 0.04854668093433887]
3,12,[0.007237054791328736, 0.8796586197761198, 0.06910672929353082],[-0.06426035858172482, 0.7559990577055522, 0.10898934917343678],[-0.15856553426643777, 0.6082265918081634, 0.04854668093433887]
3,13,[0.007237054791328736, 0.8796586197761198, 0.06910672929353082],[-0.06426035858172482, 0.7559990577055522, 0.10898934917343678],[-0.15856553426643777, 0.6082265918081634, 0.04854668093433887]
3,14,[0.007237054791328736, 0.8796586197761198, 0.06910672929353082],[-0.06426035858172482, 0.7559990577055522, 0.10898934917343678],[-0.15856553426643777, 0.6082265918081634, 0.04854668093433887]
3,15,[0.007237054791328736, 0.8796586197761198, 0.06910672929353082],[-0.06426035858172482, 0.7559990577055522, 0.10898934917343678],[-0.15856553426643777, 0.6082265918081634, 0.04854668093433887]
3,16,[0.007237054791328736, 0.8796586197761198, 0.06910672929353082],[-0.06426035858172482, 0.7559990577055522, 0.10898934917343678],[-0.15856553426643777, 0.6082265918081634, 0.04854668093433887]
3,17,[0.007237054791328736, 0.8796586197761198, 0.06910672929353082],[-0.06426035858172482, 0.7559990577055522, 0.10898934917343678],[-0.15856553426643777, 0.6082265918081634, 0.04854668093433887]
3,18,[0.007237054791328736, 0.8796586197761198, 0.06910672929353082],[-0.06426035858172482, 0.7559990577055522, 0.10898934917343678],[-0.15856553426643777, 0.6082265918081634, 0.04854668093433887]
3,19,[0.007237054791328736, 0.8796586197761198, 0.06910672929353082],[-0.06426035858172482, 0.7559990577055522, 0.10898934917343678],[-0.15856553426643777, 0.6082265918081634, 0.04854668093433887]
3,20,[0.007237054791328736, 0.8796586197761198, 0.06910672929353082],[-0.06426035858172482, 0.7559990577055522, 0.10898934917343678],[-0.15856553426643777, 0.6082265918081634, 0.04854668093433887]
3,21,[0.007237054791328736, 0.8796586197761198, 0.06910672929353082],[-0.06426035858172482, 0.7559990577055522, 0.10898934917343678],[-0.15856553426643777, 0.6082265918081634, 0.04854668093433887]
3,22,[0.007237054791328736, 0.8796586197761198, 0.06910672929353082],[-0.06426035858172482, 0.7559990577055522, 0.10898934917343678],[-0.15856553426643777, 0.6082265918081634, 0.04854668093433887]
3,23,[0.007237054791328736, 0.8796586197761198, 0.06910672929353082],[-0.06426035858172482, 0.7559990577055522, 0.10898934917343678],[-0.15856553426643777, 0.6082265918081634, 0.04854668093433887]
3,24,[0.007237054791328736, 0.8796586197761198, 0.06910672929353082],[-0.06426035858172482, 0.7559990577055522, 0.10898934917343678],[-0.15856553426643777, 0.6082265918081634, 0.04854668093433887]
3,25,[0.007237054791328736, 0.8796586197761198, 0.06910672929353082],[-0.06426035858172482, 0.7559990577055522, 0.10898934917343678],[-0.15856553426643777, 0.6082265918081634, 0.04854668093433887]
3,26,[0.007237054791328736, 0.8796586197761198, 0.06910672929353082],[-0.06426035858172482, 0.7559990577055522, 0.10898934917343678],[-0.15856553426643777, 0.6082265918081634, 0.04854668093433887]
3,27,[0.007237054791328736, 0.8796586197761198, 0.06910672929353082],[-0.06426035858172482, 0.7559990577055522, 0.10898934917343678],[-0.15856553426643777, 0.6082265918081634, 0.04854668093433887]
3,28,[0.007237054791328736, 0.8796586197761198, 0.06910672929353082],[-0.06426035858172482, 0.7559990577055522, 0.10898934917343678],[-0.15856553426643777, 0.6082265918081634, 0.04854668093433887]
3,29,[0.007237054791328736, 0.8796586197761198, 0.06910672929353082],[-0.06426035858172482, 0.7559990577055522, 0.10898934917343678],[-0.15856553426643777, 0.6082265918081634, 0.04854668093433887]
3,30,[0.007237054791328736, 0.8796586197761198, 0.06910672929353082],[-0.06426035858172482, 0.7559990577055522, 0.10898934917343678],[-0.15856553426643777, 0.6082265918081634, 0.04854668093433887]
3,31,[0.007237054791328736, 0.8796586197761198, 0.06910672929353082],[-0.06426035858172482, 0.7559990577055522, 0.10898934917343678],[-0.15856553426643777, 0.6082265918081634, 0.04854668093433887]
3,32,[0.007237054791328736, 0.8796586197761198, 0.06910672929353082],[-0.06426035858172482, 0.7559990577055522, 0.10898934917343678],[-0.15856553426643777, 0.6082265918081634, 0.04854668093433887]
3,33,[0.007237054791328736, 0.8796586197761198, 0.06910672929353082],[-0.06426035858172482, 0.7559990577055522, 0.10898934917343678],[-0.15856553426643777, 0.6082265918081634, 0.04854668093433887]
3,34,[0.007237054791328736, 0.8796586197761198, 0.06910672929353082],[-0.06426035858172482, 0.7559990577055522, 0.10898934917343678],[-0.15856553426643777, 0.6082265918081634, 0.04854668093433887]
3,35,[0.007237054791328736, 0.8796586197761198, 0.06910672929353082],[-0.06426035858172482, 0.7559990577055522, 0.10898934917343678],[-0.15856553426643777, 0.6082265918081634, 0.04854668093433887]
3,36,[0.007237054791328736, 0.8796586197761198, 0.06910672929353082],[-0.06426035858172482, 0.7559990577055522, 0.10898934917343678],[-0.15856553426643777, 0.6082265918081634, 0.04854668093433887]
3,37,[0.007237054791328736, 0.8796586197761198, 0.06910672929353082],[-0.06426035858172482, 0.7559990577055522, 0.10898934917343678],[-0.15856553426643777, 0.6082265918081634, 0.04854668093433887]
3,38,[0.007237054791328736, 0.8796586197761198, 0.06910672929353082],[-0.06426035858172482, 0.7559990577055522, 0.10898934917343678],[-0.15856553426643777, 0.6082265918081634, 0.04854668093433887]
3,39,[0.007237054791328736, 0.8796586197761198, 0.06910672929353082],[-0.06426035858172482, 0.7559990577055522, 0.10898934917343678],[-0.15856553426643777, 0.6082265918081634, 0.04854668093433887]
3,40,[0.007237054791328736, 0.8796586197761198, 0.06910672929353082],[-0.06426035858172482, 0.7559990577055522, 0.10898934917343678],[-0.15856553426643777, 0.6082265918081634, 0.04854668093433887]
3,41,[0.007237054791328736, 0.8796586197761198, 0.06910672929353082],[-0.06426035858172482, 0.7559990577055522, 0.10898934917343678],[-0.15856553426643777, 0.6082265918081634, 0.04854668093433887]
3,42,[0.007237054791328736, 0.8796586197761198, 0.06910672929353082],[-0.06426035858172482, 0.7559990577055522, 0.10898934917343678],[-0.15856553426643777, 0.6082265918081634, 0.04854668093433887]
3,43,[0.007237054791328736, 0.8796586197761198, 0.06910672929353082],[-0.06426035858172482, 0.7559990577055522, 0.10898934917343678],[-0.15856553426643777, 0.6082265918081634, 0.04854668093433887]
3,44,[0.007237054791328736, 0.8796586197761198, 0.06910672929353082],[-0.06426035858172482, 0.7559990577055522, 0.10898934917343678],[-0.15856553426643777, 0.6082265918081634, 0.04854668093433887]
3,45,[0.007237054791328736, 0.8796586197761198, 0.06910672929353082],[-0.06426035858172482, 0.7559990577055522, 0.10898934917343678],[-0.15856553426643777, 0.6082265918081634, 0.04854668093433887]
3,46,[0.007237054791328736, 0.8796586197761198, 0.06910672929353082],[-0.06426035858172482, 0.7559990577055522, 0.10898934917343678],[-0.15856553426643777, 0.6082265918081634, 0.04854668093433887]
3,47,[0.007237054791328736, 0.8796586197761198, 0.06910672929353082],[-0.06426035858172482, 0.7559990577055522, 0.10898934917343678],[-0.15856553426643777, 0.6082265918081634, 0.04854668093433887]
3,48,[0.007237054791328736, 0.8796586197761198, 0.06910672929353082],[-0.06426035858172482, 0.7559990577055522, 0.10898934917343678],[-0.15856553426643777, 0.6082265918081634, 0.04854668093433887]
3,49,[0.007237054791328736, 0.8796586197761198, 0.06910672929353082],[-0.06426035858172482, 0.7559990577055522, 0.10898934917343678],[-0.15856553426643777, 0.6082265918081634, 0.04854668093433887]
3,50,[0.007237054791328736, 0.8796586197761198, 0.06910672929353082],[-0.06426035858172482, 0.7559990577055522, 0.10898934917343678],[-0.15856553426643777, 0.6082265918081634, 0.04854668093433887]
3,51,[0.007237054791328736, 0.8796586197761198, 0.06910672929353082],[-0.06426035858172482, 0.7559990577055522, 0.10898934917343678],[-0.15856553426643777, 0.6082265918081634, 0.04854668093433887]
3,52,[0.007237054791328736, 0.8796586197761198, 0.06910672929353082],[-0.06426035858172482, 0.7559990577055522, 0.10898934917343678],[-0.15856553426643777, 0.6082265918081634, 0.04854668093433887]
3,53,[0.007237054791328736, 0.8796586197761198, 0.06910672929353082],[-0.06426035858172482, 0.7559990577055522, 0.10898934917343678],[-0.15856553426643777, 0.6082265918081634, 0.04854668093433887]
3,54,[0.007237054791328736, 0.8796586197761198, 0.06910672929353082],[-0.06426035858172482, 0.7559990577055522, 0.10898934917343678],[-0.15856553426643777, 0.6082265918081634, 0.04854668093433887]
3,55,[0.007237054791328736, 0.8796586197761198, 0.06910672929353082],[-0.06426035858172482, 0.7559990577055522, 0.10898934917343678],[-0.15856553426643777, 0.6082265918081634, 0.04854668093433887]
3,56,[0.007237054791328736, 0.8796586197761198, 0.06910672929353082],[-0.06426035858172482, 0.7559990577055522, 0.10898934917343678],[-0.15856553426643777, 0.6082265918081634, 0.04854668093433887]
3,57,[0.007237054791328736, 0.8796586197761198, 0.06910672929353082],[-0.06426035858172482, 0.7559990577055522, 0.10898934917343678],[-0.15856553426643777, 0.6082265918081634, 0.04854668093433887]
3,58,[0.007237054791328736, 0.8796586197761198, 0.06910672929353082],[-0.06426035858172482, 0.7559990577055522, 0.10898934917343678],[-0.15856553426643777, 0.6082265918081634, 0.04854668093433887]
3,59,[0.007237054791328736, 0.8796586197761198, 0.06910672929353082],[-0.06426035858172482, 0.7559990577055522, 0.10898934917343678],[-0.15856553426643777, 0.6082265918081634, 0.04854668093433887]
3,60,[0.007237054791328736, 0.8796586197761198, 0.06910672929353082],[-0.06426035858172482, 0.7559990577055522, 0.10898934917343678],[-0.15856553426643777, 0.6082265918081634, 0.04854668093433887]
3,61,[0.007237054791328736, 0.8796586197761198, 0.06910672929353082],[-0.06426035858172482, 0.7559990577055522, 0.10898934917343678],[-0.15856553426643777, 0.6082265918081634, 0.04854668093433887]
3,62,[0.007237054791328736, 0.8796586197761198, 0.06910672929353082],[-0.06426035858172482, 0.7559990577055522, 0.10898934917343678],[-0.15856553426643777, 0.6082265918081634, 0.04854668093433887]
3,63,[0.007237054791328736, 0.8796586197761198, 0.06910672929353082],[-0.06426035858172482, 0.7559990577055522, 0.10898934917343678],[-0.15856553426643777, 0.6082265918081634, 0.04854668093433887]
3,64,[0.007237054791328736, 0.8796586197761198, 0.06910672929353082],[-0.06426035858172482, 0.7559990577055522, 0.10898934917343678],[-0.15856553426643777, 0.6082265918081634, 0.04854668093433887]
3,65,[0.007237054791328736, 0.8796586197761198, 0.06910672929353082],[-0.06426035858172482, 0.7559990577055522, 0.10898934917343678],[-0.15856553426643777, 0.6082265918081634, 0.04854668093433887]
3,66,[0.007237054791328736, 0.8796586197761198, 0.06910672929353082],[-0.06426035858172482, 0.7559990577055522, 0.10898934917343678],[-0.15856553426643777, 0.6082265918081634, 0.04854668093433887]
3,67,[0.007237054791328736, 0.8796586197761198, 0.06910672929353082],[-0.06426035858172482, 0.7559990577055522, 0.10898934917343678],[-0.15856553426643777, 0.6082265918081634, 0.04854668093433887]
3,68,[0.007237054791328736, 0.8796586197761198, 0.06910672929353082],[-0.06426035858172482, 0.7559990577055522, 0.10898934917343678],[-0.15856553426643777, 0.6082265918081634, 0.04854668093433887]
3,69,[0.007237054791328736, 0.8796586197761198, 0.06910672929353082],[-0.06426035858172482, 0.7559990577055522, 0.10898934917343678],[-0.15856553426643777, 0.6082265918081634, 0.04854668093433887]
3,70,[0.007237054791328736, 0.8796586197761198, 0.06910672929353082],[-0.06426035858172482, 0.7559990577055522, 0.10898934917343678],[-0.15856553426643777, 0.6082265918081634, 0.04854668093433887]
3,71,[0.007237054791328736, 0.8796586197761198, 0.06910672929353082],[-0.06426035858172482, 0.7559990577055522, 0.10898934917343678],[-0.15856553426643777, 0.6082265918081634, 0.04854668093433887]
3,72,[0.007237054791328736, 0.8796586197761198, 0.06910672929353082],[-0.06426035858172482, 0.7559990577055522, 0.10898934917343678],[-0.15856553426643777, 0.6082265918081634, 0.04854668093433887]
3,73,[0.007237054791328736, 0.8796586197761198, 0.06910672929353082],[-0.06426035858172482, 0.7559990577055522, 0.10898934917343678],[-0.15856553426643777, 0.6082265918081634, 0.04854668093433887]
3,74,[0.007237054791328736, 0.8796586197761198, 0.06910672929353082],[-0.06426035858172482, 0.7559990577055522, 0.10898934917343678],[-0.15856553426643777, 0.6082265918081634, 0.04854668093433887]
3,75,[0.007237054791328736, 0.8796586197761198, 0.06910672929353082],[-0.06426035858172482, 0.7559990577055522, 0.10898934917343678],[-0.15856553426643777, 0.6082265918081634, 0.04854668093433887]
3,76,[0.007237054791328736, 0.8796586197761198, 0.06910672929353082],[-0.06426035858172482, 0.7559990577055522, 0.10898934917343678],[-0.15856553426643777, 0.6082265918081634, 0.04854668093433887]
3,77,[0.007237054791328736, 0.8796586197761198, 0.06910672929353082],[-0.06426035858172482, 0.7559990577055522, 0.10898934917343678],[-0.15856553426643777, 0.6082265918081634, 0.04854668093433887]
3,78,[0.007237054791328736, 0.8796586197761198, 0.06910672929353082],[-0.06426035858172482, 0.7559990577055522, 0.10898934917343678],[-0.15856553426643777, 0.6082265918081634, 0.04854668093433887]
3,79,[0.007237054791328736, 0.8796586197761198, 0.06910672929353082],[-0.06426035858172482, 0.7559990577055522, 0.10898934917343678],[-0.15856553426643777, 0.6082265918081634, 0.04854668093433887]
3,80,[0.007237054791328736, 0.8796586197761198, 0.06910672929353082],[-0.06426035858172482, 0.7559990577055522, 0.10898934917343678],[-0.15856553426643777, 0.6082265918081634, 0.04854668093433887]
3,81,[0.007237054791328736, 0.8796586197761198, 0.06910672929353082],[-0.06426035858172482, 0.7559990577055522, 0.10898934917343678],[-0.15856553426643777, 0.6082265918081634, 0.04854668093433887]
3,82,[0.007237054791328736, 0.8796586197761198, 0.06910672929353082],[-0.06426035858172482, 0.7559990577055522, 0.10898934917343678],[-0.15856553426643777, 0.6082265918081634, 0.04854668093433887]
3,83,[0.007237054791328736, 0.8796586197761198, 0.06910672929353082],[-0.06426035858172482, 0.7559990577055522, 0.10898934917343678],[-0.15856553426643777, 0.6082265918081634, 0.04854668093433887]
3,84,[0.007237054791328736, 0.8796586197761198, 0.06910672929353082],[-0.06426035858172482, 0.7559990577055522, 0.10898934917343678],[-0.15856553426643777, 0.6082265918081634, 0.04854668093433887]
3,85,[0.007237054791328736, 0.8796586197761198, 0.06910672929353082],[-0.06426035858172482, 0.7559990577055522, 0.10898934917343678],[-0.15856553426643777, 0.6082265918081634, 0.04854668093433887]
3,86,[0.007237054791328736, 0.8796586197761198, 0.06910672929353082],[-0.06426035858172482, 0.7559990577055522, 0.10898934917343678],[-0.15856553426643777, 0.6082265918081634, 0.04854668093433887]
3,87,[0.007237054791328736, 0.8796586197761198, 0.06910672929353082],[-0.06426035858172482, 0.7559990577055522, 0.10898934917343678],[-0.15856553426643777, 0.6082265918081634, 0.04854668093433887]
3,88,[0.007237054791328736, 0.8796586197761198, 0.06910672929353082],[-0.06426035858172482, 0.7559990577055522, 0.10898934917343678],[-0.15856553426643777, 0.6082265918081634, 0.04854668093433887]
3,89,[0.007237054791328736, 0.8796586197761198, 0.06910672929353082],[-0.06426035858172482, 0.7559990577055522, 0.10898934917343678],[-0.15856553426643777, 0.6082265918081634, 0.04854668093433887]
3,90,[0.007237054791328736, 0.8796586197761198, 0.06910672929353082],[-0.06426035858172482, 0.7559990577055522, 0.10898934917343678],[-0.15856553426643777, 0.6082265918081634, 0.04854668093433887]
3,91,[0.007237054791328736, 0.8796586197761198, 0.06910672929353082],[-0.06426035858172482, 0.7559990577055522, 0.10898934917343678],[-0.15856553426643777, 0.6082265918081634, 0.04854668093433887]
3,92,[0.007237054791328736, 0.8796586197761198, 0.06910672929353082],[-0.06426035858172482, 0.7559990577055522, 0.10898934917343678],[-0.15856553426643777, 0.6082265918081634, 0.04854668093433887]
3,93,[0.007237054791328736, 0.8796586197761198, 0.06910672929353082],[-0.06426035858172482, 0.7559990577055522, 0.10898934917343678],[-0.15856553426643777, 0.6082265918081634, 0.04854668093433887]
3,94,[0.007237054791328736, 0.8796586197761198, 0.06910672929353082],[-0.06426035858172482, 0.7559990577055522, 0.10898934917343678],[-0.15856553426643777, 0.6082265918081634, 0.04854668093433887]
3,95,[0.007237054791328736, 0.8796586197761198, 0.06910672929353082],[-0.06426035858172482, 0.7559990577055522, 0.10898934917343678],[-0.15856553426643777, 0.6082265918081634, 0.04854668093433887]
3,96,[0.007237054791328736, 0.8796586197761198, 0.06910672929353082],[-0.06426035858172482, 0.7559990577055522, 0.10898934917343678],[-0.15856553426643777, 0.6082265918081634, 0.04854668093433887]
3,97,[0.007237054791328736, 0.8796586197761198, 0.06910672929353082],[-0.06426035858172482, 0.7559990577055522, 0.10898934917343678],[-0.15856553426643777, 0.6082265918081634, 0.04854668093433887]
3,98,[0.007237054791328736, 0.8796586197761198, 0.06910672929353082],[-0.06426035858172482, 0.7559990577055522, 0.10898934917343678],[-0.15856553426643777, 0.6082265918081634, 0.04854668093433887]
3,99,[0.007237054791328736, 0.8796586197761198, 0.06910672929353082],[-0.06426035858172482, 0.7559990577055522, 0.10898934917343678],[-0.15856553426643777, 0.6082265918081634, 0.04854668093433887]
4,0,[0.05251313997877476, 0.9751673221268975, 0.09747602133319534],[0.2148751870356518, 0.864230293345568, 0.13864034653477872],[0.28065004839537644, 0.7539472785289973, 0.0670479023503171]
4,1,[0.05251313997877476, 0.9751673221268975, 0.09747602133319534],[0.2148751870356518, 0.864230293345568, 0.13864034653477872],[0.28065004839537644, 0.7539472785289973, 0.0670479023503171]
4,2,[0.05251313997877476, 0.9751673221268975, 0.09747602133319534],[0.2148751870356518, 0.864230293345568, 0.13864034653477872],[0.28065004839537644, 0.7539472785289973, 0.0670479023503171]
4,3,[0.05251313997877476, 0.9751673221268975, 0.09747602133319534],[0.2148751870356518, 0.864230293345568, 0.13864034653477872],[0.28065004839537644, 0.7539472785289973, 0.0670479023503171]
4,4,[0.05251313997877476, 0.9751673221268975, 0.09747602133319534],[0.2148751870356518, 0.864230293345568, 0.13864034653477872],[0.28065004839537644, 0.7539472785289973, 0.0670479023503171]
4,5,[0.05251313997877476, 0.9751673221268975, 0.09747602133319534],[0.2148751870356518, 0.864230293345568, 0.13864034653477872],[0.28065004839537644, 0.7539472785289973, 0.0670479023503171]
4,6,[0.05251313997877476, 0.9751673221268975, 0.09747602133319534],[0.2148751870356518, 0.864230293345568, 0.13864034653477872],[0.28065004839537644, 0.7539472785289973, 0.0670479023503171]
4,7,[0.05251313997877476, 0.9751673221268975, 0.09747602133319534],[0.2148751870356518, 0.864230293345568, 0.13864034653477872],[0.28065004839537644, 0.7539472785289973, 0.0670479023503171]
4,8,[0.05251313997877476, 0.9751673221268975, 0.09747602133319534],[0.2148751870356518, 0.864230293345568, 0.13864034653477872],[0.28065004839537644, 0.7539472785289973, 0.0670479023503171]
4,9,[0.05251313997877476, 0.9751673221268975, 0.09747602133319534],[0.2148751870356518, 0.864230293345568, 0.13864034653477872],[0.28065004839537644, 0.7539472785289973, 0.0670479023503171]
4,10,[0.05251313997877476, 0.9751673221268975, 0.09747602133319534],[0.2148751870356518, 0.864230293345568, 0.13864034653477872],[0.28065004839537644, 0.7539472785289973, 0.0670479023503171]
4,11,[0.05251313997877476, 0.9751673221268975, 0.09747602133319534],[0.2148751870356518, 0.864230293345568, 0.13864034653477872],[0.28065004839537644, 0.7539472785289973, 0.0670479023503171]
4,12,[0.05251313997877476, 0.9751673221268975, 0.09747602133319534],[0.2148751870356518, 0.864230293345568, 0.13864034653477872],[0.28065004839537644, 0.7539472785289973, 0.0670479023503171]
4,13,[0.05251313997877476, 0.9751673221268975, 0.09747602133319534],[0.2148751870356518, 0.864230293345568, 0.13864034653477872],[0.28065004839537644, 0.7539472785289973, 0.0670479023503171]
4,14,[0.05251313997877476, 0.9751673221268975, 0.09747602133319534],[0.2148751870356518, 0.864230293345568, 0.13864034653477872],[0.28065004839537644, 0.7539472785289973, 0.0670479023503171]
4,15,[0.05251313997877476, 0.9751673221268975, 0.09747602133319534],[0.2148751870356518, 0.864230293345568, 0.13864034653477872],[0.28065004839537644, 0.7539472785289973, 0.0670479023503171]
4,16,[0.05251313997877476, 0.9751673221268975, 0.09747602133319534],[0.2148751870356518, 0.864230293345568, 0.13864034653477872],[0.28065004839537644, 0.7539472785289973, 0.0670479023503171]
4,17,[0.05251313997877476, 0.9751673221268975, 0.09747602133319534],[0.2148751870356518, 0.864230293345568, 0.13864034653477872],[0.28065004839537644, 0.7539472785289973, 0.0670479023503171]
4,18,[0.05251313997877476, 0.9751673221268975, 0.09747602133319534],[0.2148751870356518, 0.864230293345568, 0.13864034653477872],[0.28065004839537644, 0.7539472785289973, 0.0670479023503171]
4,19,[0.05251313997877476, 0.9751673221268975, 0.09747602133319534],[0.2148751870356518, 0.864230293345568, 0.13864034653477872],[0.28065004839537644, 0.7539472785289973, 0.0670479023503171]
4,20,[0.05251313997877476, 0.9751673221268975, 0.09747602133319534],[0.2148751870356518, 0.864230293345568, 0.13864034653477872],[0.28065004839537644, 0.7539472785289973, 0.0670479023503171]
4,21,[0.05251313997877476, 0.9751673221268975, 0.09747602133319534],[0.2148751870356518, 0.864230293345568, 0.13864034653477872],[0.28065004839537644, 0.7539472785289973, 0.0670479023503171]
4,22,[0.05251313997877476, 0.9751673221268975, 0.09747602133319534],[0.2148751870356518, 0.864230293345568, 0.13864034653477872],[0.28065004839537644, 0.7539472785289973, 0.0670479023503171]
4,23,[0.05251313997877476, 0.9751673221268975, 0.09747602133319534],[0.2148751870356518, 0.864230293345568, 0.13864034653477872],[0.28065004839537644, 0.7539472785289973, 0.0670479023503171]
4,24,[0.05251313997877476, 0.9751673221268975, 0.09747602133319534],[0.2148751870356518, 0.864230293345568, 0.13864034653477872],[0.28065004839537644, 0.7539472785289973, 0.0670479023503171]
4,25,[0.05251313997877476, 0.9751673221268975, 0.09747602133319534],[0.2148751870356518, 0.864230293345568, 0.13864034653477872],[0.28065004839537644, 0.7539472785289973, 0.0670479023503171]
4,26,[0.05251313997877476, 0.9751673221268975, 0.09747602133319534],[0.2148751870356518, 0.864230293345568, 0.13864034653477872],[0.28065004839537644, 0.7539472785289973, 0.0670479023503171]
4,27,[0.05251313997877476, 0.9751673221268975, 0.09747602133319534],[0.2148751870356518, 0.864230293345568, 0.13864034653477872],[0.28065004839537644, 0.7539472785289973, 0.0670479023503171]
4,28,[0.05251313997877476, 0.9751673221268975, 0.09747602133319534],[0.2148751870356518, 0.864230293345568, 0.13864034653477872],[0.28065004839537644, 0.7539472785289973, 0.0670479023503171]
4,29,[0.05251313997877476, 0.9751673221268975, 0.09747602133319534],[0.2148751870356518, 0.864230293345568, 0.13864034653477872],[0.28065004839537644, 0.7539472785289973, 0.0670479023503171]
4,30,[0.05251313997877476, 0.9751673221268975, 0.09747602133319534],[0.2148751870356518, 0.864230293345568, 0.13864034653477872],[0.28065004839537644, 0.7539472785289973, 0.0670479023503171]
4,31,[0.05251313997877476, 0.9751673221268975, 0.09747602133319534],[0.2148751870356518, 0.864230293345568, 0.13864034653477872],[0.28065004839537644, 0.7539472785289973, 0.0670479023503171]
4,32,[0.05251313997877476, 0.9751673221268975, 0.09747602133319534],[0.2148751870356518, 0.864230293345568, 0.13864034653477872],[0.28065004839537644, 0.7539472785289973, 0.0670479023503171]
4,33,[0.05251313997877476, 0.9751673221268975, 0.09747602133319534],[0.2148751870356518, 0.864230293345568, 0.13864034653477872],[0.28065004839537644, 0.7539472785289973, 0.0670479023503171]
4,34,[0.05251313997877476, 0.9751673221268975, 0.09747602133319534],[0.2148751870356518, 0.864230293345568, 0.13864034653477872],[0.28065004839537644, 0.7539472785289973, 0.0670479023503171]
4,35,[0.05251313997877476, 0.9751673221268975, 0.09747602133319534],[0.2148751870356518, 0.864230293345568, 0.13864034653477872],[0.28065004839537644, 0.7539472785289973, 0.0670479023503171]
4,36,[0.05251313997877476, 0.9751673221268975, 0.09747602133319534],[0.2148751870356518, 0.864230293345568, 0.13864034653477872],[0.28065004839537644, 0.7539472785289973, 0.0670479023503171]
4,37,[0.05251313997877476, 0.9751673221268975, 0.09747602133319534],[0.2148751870356518, 0.864230293345568, 0.13864034653477872],[0.28065004839537644, 0.7539472785289973, 0.0670479023503171]
4,38,[0.05251313997877476, 0.9751673221268975, 0.09747602133319534],[0.2148751870356518, 0.864230293345568, 0.13864034653477872],[0.28065004839537644, 0.7539472785289973, 0.0670479023503171]
4,39,[0.05251313997877476, 0.9751673221268975, 0.09747602133319534],[0.2148751870356518, 0.864230293345568, 0.13864034653477872],[0.28065004839537644, 0.7539472785289973, 0.0670479023503171]
4,40,[0.05251313997877476, 0.9751673221268975, 0.09747602133319534],[0.2148751870356518, 0.864230293345568, 0.13864034653477872],[0.28065004839537644, 0.7539472785289973, 0.0670479023503171]
4,41,[0.05251313997877476, 0.9751673221268975, 0.09747602133319534],[0.2148751870356518, 0.864230293345568, 0.13864034653477872],[0.28065004839537644, 0.7539472785289973, 0.0670479023503171]
4,42,[0.05251313997877476, 0.9751673221268975, 0.09747602133319534],[0.2148751870356518, 0.864230293345568, 0.13864034653477872],[0.28065004839537644, 0.7539472785289973, 0.0670479023503171]
4,43,[0.05251313997877476, 0.9751673221268975, 0.09747602133319534],[0.2148751870356518, 0.864230293345568, 0.13864034653477872],[0.28065004839537644, 0.7539472785289973, 0.0670479023503171]
4,44,[0.05251313997877476, 0.9751673221268975, 0.09747602133319534],[0.2148751870356518, 0.864230293345568, 0.13864034653477872],[0.28065004839537644, 0.7539472785289973, 0.0670479023503171]
4,45,[0.05251313997877476, 0.9751673221268975, 0.09747602133319534],[0.2148751870356518, 0.864230293345568, 0.13864034653477872],[0.28065004839537644, 0.7539472785289973, 0.0670479023503171]
4,46,[0.05251313997877476, 0.9751673221268975, 0.09747602133319534],[0.2148751870356518, 0.864230293345568, 0.13864034653477872],[0.28065004839537644, 0.7539472785289973, 0.0670479023503171]
4,47,[0.05251313997877476, 0.9751673221268975, 0.09747602133319534],[0.2148751870356518, 0.864230293345568, 0.13864034653477872],[0.28065004839537644, 0.7539472785289973, 0.0670479023503171]
4,48,[0.05251313997877476, 0.9751673221268975, 0.09747602133319534],[0.2148751870356518, 0.864230293345568, 0.13864034653477872],[0.28065004839537644, 0.7539472785289973, 0.0670479023503171]
4,49,[0.05251313997877476, 0.9751673221268975, 0.09747602133319534],[0.2148751870356518, 0.864230293345568, 0.13864034653477872],[0.28065004839537644, 0.7539472785289973, 0.0670479023503171]
4,50,[0.05251313997877476, 0.9751673221268975, 0.09747602133319534],[0.2148751870356518, 0.864230293345568, 0.13864034653477872],[0.28065004839537644, 0.7539472785289973, 0.0670479023503171]
4,51,[0.05251313997877476, 0.9751673221268975, 0.09747602133319534],[0.2148751870356518, 0.864230293345568, 0.13864034653477872],[0.28065004839537644, 0.7539472785289973, 0.0670479023503171]
4,52,[0.05251313997877476, 0.9751673221268975, 0.09747602133319534],[0.2148751870356518, 0.864230293345568, 0.13864034653477872],[0.28065004839537644, 0.7539472785289973, 0.0670479023503171]
4,53,[0.05251313997877476, 0.9751673221268975, 0.09747602133319534],[0.2148751870356518, 0.864230293345568, 0.13864034653477872],[0.28065004839537644, 0.7539472785289973, 0.0670479023503171]
4,54,[0.05251313997877476, 0.9751673221268975, 0.09747602133319534],[0.2148751870356518, 0.864230293345568, 0.13864034653477872],[0.28065004839537644, 0.7539472785289973, 0.0670479023503171]
4,55,[0.05251313997877476, 0.9751673221268975, 0.09747602133319534],[0.2148751870356518, 0.864230293345568, 0.13864034653477872],[0.28065004839537644, 0.7539472785289973, 0.0670479023503171]
4,56,[0.05251313997877476, 0.9751673221268975, 0.09747602133319534],[0.2148751870356518, 0.864230293345568, 0.13864034653477872],[0.28065004839537644, 0.7539472785289973, 0.0670479023503171]
4,57,[0.05251313997877476, 0.9751673221268975, 0.09747602133319534],[0.2148751870356518, 0.864230293345568, 0.13864034653477872],[0.28065004839537644, 0.7539472785289973, 0.0670479023503171]
4,58,[0.05251313997877476, 0.9751673221268975, 0.09747602133319534],[0.2148751870356518, 0.864230293345568, 0.13864034653477872],[0.28065004839537644, 0.7539472785289973, 0.0670479023503171]
4,59,[0.05251313997877476, 0.9751673221268975, 0.09747602133319534],[0.2148751870356518, 0.864230293345568, 0.13864034653477872],[0.28065004839537644, 0.7539472785289973, 0.0670479023503171]
4,60,[0.05251313997877476, 0.9751673221268975, 0.09747602133319534],[0.2148751870356518, 0.864230293345568, 0.13864034653477872],[0.28065004839537644, 0.7539472785289973, 0.0670479023503171]
4,61,[0.05251313997877476, 0.9751673221268975, 0.09747602133319534],[0.2148751870356518, 0.864230293345568, 0.13864034653477872],[0.28065004839537644, 0.7539472785289973, 0.0670479023503171]
4,62,[0.05251313997877476, 0.9751673221268975, 0.09747602133319534],[0.2148751870356518, 0.864230293345568, 0.13864034653477872],[0.28065004839537644, 0.7539472785289973, 0.0670479023503171]
4,63,[0.05251313997877476, 0.9751673221268975, 0.09747602133319534],[0.2148751870356518, 0.864230293345568, 0.13864034653477872],[0.28065004839537644, 0.7539472785289973, 0.0670479023503171]
4,64,[0.05251313997877476, 0.9751673221268975, 0.09747602133319534],[0.2148751870356518, 0.864230293345568, 0.13864034653477872],[0.28065004839537644, 0.7539472785289973, 0.0670479023503171]
4,65,[0.05251313997877476, 0.9751673221268975, 0.09747602133319534],[0.2148751870356518, 0.864230293345568, 0.13864034653477872],[0.28065004839537644, 0.7539472785289973, 0.0670479023503171]
4,66,[0.05251313997877476, 0.9751673221268975, 0.09747602133319534],[0.2148751870356518, 0.864230293345568, 0.13864034653477872],[0.28065004839537644, 0.7539472785289973, 0.0670479023503171]
4,67,[0.05251313997877476, 0.9751673221268975, 0.09747602133319534],[0.2148751870356518, 0.864230293345568, 0.13864034653477872],[0.28065004839537644, 0.7539472785289973, 0.0670479023503171]
4,68,[0.05251313997877476, 0.9751673221268975, 0.09747602133319534],[0.2148751870356518, 0.864230293345568, 0.13864034653477872],[0.28065004839537644, 0.7539472785289973, 0.0670479023503171]
4,69,[0.05251313997877476, 0.9751673221268975, 0.09747602133319534],[0.2148751870356518, 0.864230293345568, 0.13864034653477872],[0.28065004839537644, 0.7539472785289973, 0.0670479023503171]
4,70,[0.05251313997877476, 0.9751673221268975, 0.09747602133319534],[0.2148751870356518, 0.864230293345568, 0.13864034653477872],[0.28065004839537644, 0.7539472785289973, 0.0670479023503171]
4,71,[0.05251313997877476, 0.9751673221268975, 0.09747602133319534],[0.2148751870356518, 0.864230293345568, 0.13864034653477872],[0.28065004839537644, 0.7539472785289973, 0.0670479023503171]
4,72,[0.05251313997877476, 0.9751673221268975, 0.09747602133319534],[0.2148751870356518, 0.864230293345568, 0.13864034653477872],[0.28065004839537644, 0.7539472785289973, 0.0670479023503171]
4,73,[0.05251313997877476, 0.9751673221268975, 0.09747602133319534],[0.2148751870356518, 0.864230293345568, 0.13864034653477872],[0.28065004839537644, 0.7539472785289973, 0.0670479023503171]
4,74,[0.05251313997877476, 0.9751673221268975, 0.09747602133319534],[0.2148751870356518, 0.864230293345568, 0.13864034653477872],[0.28065004839537644, 0.7539472785289973, 0.0670479023503171]
4,75,[0.05251313997877476, 0.9751673221268975, 0.09747602133319534],[0.2148751870356518, 0.864230293345568, 0.13864034653477872],[0.28065004839537644, 0.7539472785289973, 0.0670479023503171]
4,76,[0.05251313997877476, 0.9751673221268975, 0.09747602133319534],[0.2148751870356518, 0.864230293345568, 0.13864034653477872],[0.28065004839537644, 0.7539472785289973, 0.0670479023503171]
4,77,[0.05251313997877476, 0.9751673221268975, 0.09747602133319534],[0.2148751870356518, 0.864230293345568, 0.13864034653477872],[0.28065004839537644, 0.7539472785289973, 0.0670479023503171]
4,78,[0.05251313997877476, 0.9751673221268975, 0.09747602133319534],[0.2148751870356518, 0.864230293345568, 0.13864034653477872],[0.28065004839537644, 0.7539472785289973, 0.0670479023503171]
4,79,[0.05251313997877476, 0.9751673221268975, 0.09747602133319534],[0.2148751870356518, 0.864230293345568, 0.13864034653477872],[0.28065004839537644, 0.7539472785289973, 0.0670479023503171]
4,80,[0.05251313997877476, 0.9751673221268975, 0.09747602133319534],[0.2148751870356518, 0.864230293345568, 0.13864034653477872],[0.28065004839537644, 0.7539472785289973, 0.0670479023503171]
4,81,[0.05251313997877476, 0.9751673221268975, 0.09747602133319534],[0.2148751870356518, 0.864230293345568, 0.13864034653477872],[0.28065004839537644, 0.7539472785289973, 0.0670479023503171]
4,82,[0.05251313997877476, 0.9751673221268975, 0.09747602133319534],[0.2148751870356518, 0.864230293345568, 0.13864034653477872],[0.28065004839537644, 0.7539472785289973, 0.0670479023503171]
4,83,[0.05251313997877476, 0.9751673221268975, 0.09747602133319534],[0.2148751870356518, 0.864230293345568, 0.13864034653477872],[0.28065004839537644, 0.7539472785289973, 0.0670479023503171]
4,84,[0.05251313997877476, 0.9751673221268975, 0.09747602133319534],[0.2148751870356518, 0.864230293345568, 0.13864034653477872],[0.28065004839537644, 0.7539472785289973, 0.0670479023503171]
4,85,[0.05251313997877476, 0.9751673221268975, 0.09747602133319534],[0.2148751870356518, 0.864230293345568, 0.13864034653477872],[0.28065004839537644, 0.7539472785289973, 0.0670479023503171]
4,86,[0.05251313997877476, 0.9751673221268975, 0.09747602133319534],[0.2148751870356518, 0.864230293345568, 0.13864034653477872],[0.28065004839537644, 0.7539472785289973, 0.0670479023503171]
4,87,[0.05251313997877476, 0.9751673221268975, 0.09747602133319534],[0.2148751870356518, 0.864230293345568, 0.13864034653477872],[0.28065004839537644, 0.7539472785289973, 0.0670479023503171]
4,88,[0.05251313997877476, 0.9751673221268975, 0.09747602133319534],[0.2148751870356518, 0.864230293345568, 0.13864034653477872],[0.28065004839537644, 0.7539472785289973, 0.0670479023503171]
4,89,[0.05251313997877476, 0.9751673221268975, 0.09747602133319534],[0.2148751870356518, 0.864230293345568, 0.13864034653477872],[0.28065004839537644, 0.7539472785289973, 0.0670479023503171]
4,90,[0.05251313997877476, 0.9751673221268975, 0.09747602133319534],[0.2148751870356518, 0.864230293345568, 0.13864034653477872],[0.28065004839537644, 0.7539472785289973, 0.0670479023503171]
4,91,[0.05251313997877476, 0.9751673221268975, 0.09747602133319534],[0.2148751870356518, 0.864230293345568, 0.13864034653477872],[0.28065004839537644, 0.7539472785289973, 0.0670479023503171]
4,92,[0.05251313997877476, 0.9751673221268975, 0.09747602133319534],[0.2148751870356518, 0.864230293345568, 0.13864034653477872],[0.28065004839537644, 0.7539472785289973, 0.0670479023503171]
4,93,[0.05251313997877476, 0.9751673221268975, 0.09747602133319534],[0.2148751870356518, 0.864230293345568, 0.13864034653477872],[0.28065004839537644, 0.7539472785289973, 0.0670479023503171]
4,94,[0.05251313997877476, 0.9751673221268975, 0.09747602133319534],[0.2148751870356518, 0.864230293345568, 0.13864034653477872],[0.28065004839537644, 0.7539472785289973, 0.0670479023503171]
4,95,[0.05251313997877476, 0.9751673221268975, 0.09747602133319534],[0.2148751870356518, 0.864230293345568, 0.13864034653477872],[0.28065004839537644, 0.7539472785289973, 0.0670479023503171]
4,96,[0.05251313997877476, 0.9751673221268975, 0.09747602133319534],[0.2148751870356518, 0.864230293345568, 0.13864034653477872],[0.28065004839537644, 0.7539472785289973, 0.0670479023503171]
4,97,[0.05251313997877476, 0.9751673221268975, 0.09747602133319534],[0.2148751870356518, 0.864230293345568, 0.13864034653477872],[0.28065004839537644, 0.7539472785289973, 0.0670479023503171]
4,98,[0.05251313997877476, 0.9751673221268975, 0.09747602133319534],[0.2148751870356518, 0.864230293345568, 0.13864034653477872],[0.28065004839537644, 0.7539472785289973, 0.0670479023503171]
4,99,[0.05251313997877476, 0.9751673221268975, 0.09747602133319534],[0.2148751870356518, 0.864230293345568, 0.13864034653477872],[0.28065004839537644, 0.7539472785289973, 0.0670479023503171]
5,0,[0.026836972254587397, 0.9206319807155661, -0.15735290990809786],[0.14465541022836892, 0.847928571642917, 0.03406182875728846],[0.3118734055025057, 0.7448794337842566, 0.10644492531477881]
5,1,[0.026836972254587397, 0.9206319807155661, -0.15735290990809786],[0.14465541022836892, 0.847928571642917, 0.03406182875728846],[0.3118734055025057, 0.7448794337842566, 0.10644492531477881]
5,2,[0.026836972254587397, 0.9206319807155661, -0.15735290990809786],[0.14465541022836892, 0.847928571642917, 0.03406182875728846],[0.3118734055025057, 0.7448794337842566, 0.10644492531477881]
5,3,[0.026836972254587397, 0.9206319807155661, -0.15735290990809786],[0.14465541022836892, 0.847928571642917, 0.03406182875728846],[0.3118734055025057, 0.7448794337842566, 0.10644492531477881]
5,4,[0.026836972254587397, 0.9206319807155661, -0.15735290990809786],[0.14465541022836892, 0.847928571642917, 0.03406182875728846],[0.3118734055025057, 0.7448794337842566, 0.10644492531477881]
5,5,[0.026836972254587397, 0.9206319807155661, -0.15735290990809786],[0.14465541022836892, 0.847928571642917, 0.03406182875728846],[0.3118734055025057, 0.7448794337842566, 0.10644492531477881]
5,6,[0.026836972254587397, 0.9206319807155661, -0.15735290990809786],[0.14465541022836892, 0.847928571642917, 0.03406182875728846],[0.3118734055025057, 0.7448794337842566, 0.10644492531477881]
5,7,[0.026836972254587397, 0.9206319807155661, -0.15735290990809786],[0.14465541022836892, 0.847928571642917, 0.03406182875728846],[0.3118734055025057, 0.7448794337842566, 0.10644492531477881]
5,8,[0.026836972254587397, 0.9206319807155661, -0.15735290990809786],[0.14465541022836892, 0.847928571642917, 0.03406182875728846],[0.3118734055025057, 0.7448794337842566, 0.10644492531477881]
5,9,[0.026836972254587397, 0.9206319807155661, -0.15735290990809786],[0.14465541022836892, 0.847928571642917, 0.03406182875728846],[0.3118734055025057, 0.7448794337842566, 0.10644492531477881]
5,10,[0.026836972254587397, 0.9206319807155661, -0.15735290990809786],[0.14465541022836892, 0.847928571642917, 0.03406182875728846],[0.3118734055025057, 0.7448794337842566, 0.10644492531477881]
5,11,[0.026836972254587397, 0.9206319807155661, -0.15735290990809786],[0.14465541022836892, 0.847928571642917, 0.03406182875728846],[0.3118734055025057, 0.7448794337842566, 0.10644492531477881]
5,12,[0.026836972254587397, 0.9206319807155661, -0.15735290990809786],[0.14465541022836892, 0.847928571642917, 0.03406182875728846],[0.3118734055025057, 0.7448794337842566, 0.10644492531477881]
5,13,[0.026836972254587397, 0.9206319807155661, -0.15735290990809786],[0.14465541022836892, 0.847928571642917, 0.03406182875728846],[0.3118734055025057, 0.7448794337842566, 0.10644492531477881]
5,14,[0.026836972254587397, 0.9206319807155661, -0.15735290990809786],[0.14465541022836892, 0.847928571642917, 0.03406182875728846],[0.3118734055025057, 0.7448794337842566, 0.10644492531477881]
5,15,[0.026836972254587397, 0.9206319807155661, -0.15735290990809786],[0.14465541022836892, 0.847928571642917, 0.03406182875728846],[0.3118734055025057, 0.7448794337842566, 0.10644492531477881]
5,16,[0.026836972254587397, 0.9206319807155661, -0.15735290990809786],[0.14465541022836892, 0.847928571642917, 0.03406182875728846],[0.3118734055025057, 0.7448794337842566, 0.10644492531477881]
5,17,[0.026836972254587397, 0.9206319807155661, -0.15735290990809786],[0.14465541022836892, 0.847928571642917, 0.03406182875728846],[0.3118734055025057, 0.7448794337842566, 0.10644492531477881]
5,18,[0.026836972254587397, 0.9206319807155661, -0.15735290990809786],[0.14465541022836892, 0.847928571642917, 0.03406182875728846],[0.3118734055025057, 0.7448794337842566, 0.10644492531477881]
5,19,[0.026836972254587397, 0.9206319807155661, -0.15735290990809786],[0.14465541022836892, 0.847928571642917, 0.03406182875728846],[0.3118734055025057, 0.7448794337842566, 0.10644492531477881]
5,20,[0.026836972254587397, 0.9206319807155661, -0.15735290990809786],[0.14465541022836892, 0.847928571642917, 0.03406182875728846],[0.3118734055025057, 0.7448794337842566, 0.10644492531477881]
5,21,[0.026836972254587397, 0.9206319807155661, -0.15735290990809786],[0.14465541022836892, 0.847928571642917, 0.03406182875728846],[0.3118734055025057, 0.7448794337842566, 0.10644492531477881]
5,22,[0.026836972254587397, 0.9206319807155661, -0.15735290990809786],[0.14465541022836892, 0.847928571642917, 0.03406182875728846],[0.3118734055025057, 0.7448794337842566, 0.10644492531477881]
5,23,[0.026836972254587397, 0.9206319807155661, -0.15735290990809786],[0.14465541022836892, 0.847928571642917, 0.03406182875728846],[0.3118734055025057, 0.7448794337842566, 0.10644492531477881]
5,24,[0.026836972254587397, 0.9206319807155661, -0.15735290990809786],[0.14465541022836892, 0.847928571642917, 0.03406182875728846],[0.3118734055025057, 0.7448794337842566, 0.10644492531477881]
5,25,[0.026836972254587397, 0.9206319807155661, -0.15735290990809786],[0.14465541022836892, 0.847928571642917, 0.03406182875728846],[0.3118734055025057, 0.7448794337842566, 0.10644492531477881]
5,26,[0.026836972254587397, 0.9206319807155661, -0.15735290990809786],[0.14465541022836892, 0.847928571642917, 0.03406182875728846],[0.3118734055025057, 0.7448794337842566, 0.10644492531477881]
5,27,[0.026836972254587397, 0.9206319807155661, -0.15735290990809786],[0.14465541022836892, 0.847928571642917, 0.03406182875728846],[0.3118734055025057, 0.7448794337842566, 0.10644492531477881]
5,28,[0.026836972254587397, 0.9206319807155661, -0.15735290990809786],[0.14465541022836892, 0.847928571642917, 0.03406182875728846],[0.3118734055025057, 0.7448794337842566, 0.10644492531477881]
5,29,[0.026836972254587397, 0.9206319807155661, -0.15735290990809786],[0.14465541022836892, 0.847928571642917, 0.03406182875728846],[0.3118734055025057, 0.7448794337842566, 0.10644492531477881]
5,30,[0.026836972254587397, 0.9206319807155661, -0.15735290990809786],[0.14465541022836892, 0.847928571642917, 0.03406182875728846],[0.3118734055025057, 0.7448794337842566, 0.10644492531477881]
5,31,[0.026836972254587397, 0.9206319807155661, -0.15735290990809786],[0.14465541022836892, 0.847928571642917, 0.03406182875728846],[0.3118734055025057, 0.7448794337842566, 0.10644492531477881]
5,32,[0.026836972254587397, 0.9206319807155661, -0.15735290990809786],[0.14465541022836892, 0.847928571642917, 0.03406182875728846],[0.3118734055025057, 0.7448794337842566, 0.10644492531477881]
5,33,[0.026836972254587397, 0.9206319807155661, -0.15735290990809786],[0.14465541022836892, 0.847928571642917, 0.03406182875728846],[0.3118734055025057, 0.7448794337842566, 0.10644492531477881]
5,34,[0.026836972254587397, 0.9206319807155661, -0.15735290990809786],[0.14465541022836892, 0.847928571642917, 0.03406182875728846],[0.3118734055025057, 0.7448794337842566, 0.10644492531477881]
5,35,[0.026836972254587397, 0.9206319807155661, -0.15735290990809786],[0.14465541022836892, 0.847928571642917, 0.03406182875728846],[0.3118734055025057, 0.7448794337842566, 0.10644492531477881]
5,36,[0.026836972254587397, 0.9206319807155661, -0.15735290990809786],[0.14465541022836892, 0.847928571642917, 0.03406182875728846],[0.3118734055025057, 0.7448794337842566, 0.10644492531477881]
5,37,[0.026836972254587397, 0.9206319807155661, -0.15735290990809786],[0.14465541022836892, 0.847928571642917, 0.03406182875728846],[0.3118734055025057, 0.7448794337842566, 0.10644492531477881]
5,38,[0.026836972254587397, 0.9206319807155661, -0.15735290990809786],[0.14465541022836892, 0.847928571642917, 0.03406182875728846],[0.3118734055025057, 0.7448794337842566, 0.10644492531477881]
5,39,[0.026836972254587397, 0.9206319807155661, -0.15735290990809786],[0.14465541022836892, 0.847928571642917, 0.03406182875728846],[0.3118734055025057, 0.7448794337842566, 0.10644492531477881]
5,40,[0.026836972254587397, 0.9206319807155661, -0.15735290990809786],[0.14465541022836892, 0.847928571642917, 0.03406182875728846],[0.3118734055025057, 0.7448794337842566, 0.10644492531477881]
5,41,[0.026836972254587397, 0.9206319807155661, -0.15735290990809786],[0.14465541022836892, 0.847928571642917, 0.03406182875728846],[0.3118734055025057, 0.7448794337842566, 0.10644492531477881]
5,42,[0.026836972254587397, 0.9206319807155661, -0.15735290990809786],[0.14465541022836892, 0.847928571642917, 0.03406182875728846],[0.3118734055025057, 0.7448794337842566, 0.10644492531477881]
5,43,[0.026836972254587397, 0.9206319807155661, -0.15735290990809786],[0.14465541022836892, 0.847928571642917, 0.03406182875728846],[0.3118734055025057, 0.7448794337842566, 0.10644492531477881]
5,44,[0.026836972254587397, 0.9206319807155661, -0.15735290990809786],[0.14465541022836892, 0.847928571642917, 0.03406182875728846],[0.3118734055025057, 0.7448794337842566, 0.10644492531477881]
5,45,[0.026836972254587397, 0.9206319807155661, -0.15735290990809786],[0.14465541022836892, 0.847928571642917, 0.03406182875728846],[0.3118734055025057, 0.7448794337842566, 0.10644492531477881]
5,46,[0.026836972254587397, 0.9206319807155661, -0.15735290990809786],[0.14465541022836892, 0.847928571642917, 0.03406182875728846],[0.3118734055025057, 0.7448794337842566, 0.10644492531477881]
5,47,[0.026836972254587397, 0.9206319807155661, -0.15735290990809786],[0.14465541022836892, 0.847928571642917, 0.03406182875728846],[0.3118734055025057, 0.7448794337842566, 0.10644492531477881]
5,48,[0.026836972254587397, 0.9206319807155661, -0.15735290990809786],[0.14465541022836892, 0.847928571642917, 0.03406182875728846],[0.3118734055025057, 0.7448794337842566, 0.10644492531477881]
5,49,[0.026836972254587397, 0.9206319807155661, -0.15735290990809786],[0.14465541022836892, 0.847928571642917, 0.03406182875728846],[0.3118734055025057, 0.7448794337842566, 0.10644492531477881]
5,50,[0.026836972254587397, 0.9206319807155661, -0.15735290990809786],[0.14465541022836892, 0.847928571642917, 0.03406182875728846],[0.3118734055025057, 0.7448794337842566, 0.10644492531477881]
5,51,[0.026836972254587397, 0.9206319807155661, -0.15735290990809786],[0.14465541022836892, 0.847928571642917, 0.03406182875728846],[0.3118734055025057, 0.7448794337842566, 0.10644492531477881]
5,52,[0.026836972254587397, 0.9206319807155661, -0.15735290990809786],[0.14465541022836892, 0.847928571642917, 0.03406182875728846],[0.3118734055025057, 0.7448794337842566, 0.10644492531477881]
5,53,[0.026836972254587397, 0.9206319807155661, -0.15735290990809786],[0.14465541022836892, 0.847928571642917, 0.03406182875728846],[0.3118734055025057, 0.7448794337842566, 0.10644492531477881]
5,54,[0.026836972254587397, 0.9206319807155661, -0.15735290990809786],[0.14465541022836892, 0.847928571642917, 0.03406182875728846],[0.3118734055025057, 0.7448794337842566, 0.10644492531477881]
5,55,[0.026836972254587397, 0.9206319807155661, -0.15735290990809786],[0.14465541022836892, 0.847928571642917, 0.03406182875728846],[0.3118734055025057, 0.7448794337842566, 0.10644492531477881]
5,56,[0.026836972254587397, 0.9206319807155661, -0.15735290990809786],[0.14465541022836892, 0.847928571642917, 0.03406182875728846],[0.3118734055025057, 0.7448794337842566, 0.10644492531477881]
5,57,[0.026836972254587397, 0.9206319807155661, -0.15735290990809786],[0.14465541022836892, 0.847928571642917, 0.03406182875728846],[0.3118734055025057, 0.7448794337842566, 0.10644492531477881]
5,58,[0.026836972254587397, 0.9206319807155661, -0.15735290990809786],[0.14465541022836892, 0.847928571642917, 0.03406182875728846],[0.3118734055025057, 0.7448794337842566, 0.10644492531477881]
5,59,[0.026836972254587397, 0.9206319807155661, -0.15735290990809786],[0.14465541022836892, 0.847928571642917, 0.03406182875728846],[0.3118734055025057, 0.7448794337842566, 0.10644492531477881]
5,60,[0.026836972254587397, 0.9206319807155661, -0.15735290990809786],[0.14465541022836892, 0.847928571642917, 0.03406182875728846],[0.3118734055025057, 0.7448794337842566, 0.10644492531477881]
5,61,[0.026836972254587397, 0.9206319807155661, -0.15735290990809786],[0.14465541022836892, 0.847928571642917, 0.03406182875728846],[0.3118734055025057, 0.7448794337842566, 0.10644492531477881]
5,62,[0.026836972254587397, 0.9206319807155661, -0.15735290990809786],[0.14465541022836892, 0.847928571642917, 0.03406182875728846],[0.3118734055025057, 0.7448794337842566, 0.10644492531477881]
5,63,[0.026836972254587397, 0.9206319807155661, -0.15735290990809786],[0.14465541022836892, 0.847928571642917, 0.03406182875728846],[0.3118734055025057, 0.7448794337842566, 0.10644492531477881]
5,64,[0.026836972254587397, 0.9206319807155661, -0.15735290990809786],[0.14465541022836892, 0.847928571642917, 0.03406182875728846],[0.3118734055025057, 0.7448794337842566, 0.10644492531477881]
5,65,[0.026836972254587397, 0.9206319807155661, -0.15735290990809786],[0.14465541022836892, 0.847928571642917, 0.03406182875728846],[0.3118734055025057, 0.7448794337842566, 0.10644492531477881]
5,66,[0.026836972254587397, 0.9206319807155661, -0.15735290990809786],[0.14465541022836892, 0.847928571642917, 0.03406182875728846],[0.3118734055025057, 0.7448794337842566, 0.10644492531477881]
5,67,[0.026836972254587397, 0.9206319807155661, -0.15735290990809786],[0.14465541022836892, 0.847928571642917, 0.03406182875728846],[0.3118734055025057, 0.7448794337842566, 0.10644492531477881]
5,68,[0.026836972254587397, 0.9206319807155661, -0.15735290990809786],[0.14465541022836892, 0.847928571642917, 0.03406182875728846],[0.3118734055025057, 0.7448794337842566, 0.10644492531477881]
5,69,[0.026836972254587397, 0.9206319807155661, -0.15735290990809786],[0.14465541022836892, 0.847928571642917, 0.03406182875728846],[0.3118734055025057, 0.7448794337842566, 0.10644492531477881]
5,70,[0.026836972254587397, 0.9206319807155661, -0.15735290990809786],[0.14465541022836892, 0.847928571642917, 0.03406182875728846],[0.3118734055025057, 0.7448794337842566, 0.10644492531477881]
5,71,[0.026836972254587397, 0.9206319807155661, -0.15735290990809786],[0.14465541022836892, 0.847928571642917, 0.03406182875728846],[0.3118734055025057, 0.7448794337842566, 0.10644492531477881]
5,72,[0.026836972254587397, 0.9206319807155661, -0.15735290990809786],[0.14465541022836892, 0.847928571642917, 0.03406182875728846],[0.3118734055025057, 0.7448794337842566, 0.10644492531477881]
5,73,[0.026836972254587397, 0.9206319807155661, -0.15735290990809786],[0.14465541022836892, 0.847928571642917, 0.03406182875728846],[0.3118734055025057, 0.7448794337842566, 0.10644492531477881]
5,74,[0.026836972254587397, 0.9206319807155661, -0.15735290990809786],[0.14465541022836892, 0.847928571642917, 0.03406182875728846],[0.3118734055025057, 0.7448794337842566, 0.10644492531477881]
5,75,[0.026836972254587397, 0.9206319807155661, -0.15735290990809786],[0.14465541022836892, 0.847928571642917, 0.03406182875728846],[0.3118734055025057, 0.7448794337842566, 0.10644492531477881]
5,76,[0.026836972254587397, 0.9206319807155661, -0.15735290990809786],[0.14465541022836892, 0.847928571642917, 0.03406182875728846],[0.3118734055025057, 0.7448794337842566, 0.10644492531477881]
5,77,[0.026836972254587397, 0.9206319807155661, -0.15735290990809786],[0.14465541022836892, 0.847928571642917, 0.03406182875728846],[0.3118734055025057, 0.7448794337842566, 0.10644492531477881]
5,78,[0.026836972254587397, 0.9206319807155661, -0.15735290990809786],[0.14465541022836892, 0.847928571642917, 0.03406182875728846],[0.3118734055025057, 0.7448794337842566, 0.10644492531477881]
5,79,[0.026836972254587397, 0.9206319807155661, -0.15735290990809786],[0.14465541022836892, 0.847928571642917, 0.03406182875728846],[0.3118734055025057, 0.7448794337842566, 0.10644492531477881]
5,80,[0.026836972254587397, 0.9206319807155661, -0.15735290990809786],[0.14465541022836892, 0.847928571642917, 0.03406182875728846],[0.3118734055025057, 0.7448794337842566, 0.10644492531477881]
5,81,[0.026836972254587397, 0.9206319807155661, -0.15735290990809786],[0.14465541022836892, 0.847928571642917, 0.03406182875728846],[0.3118734055025057, 0.7448794337842566, 0.10644492531477881]
5,82,[0.026836972254587397, 0.9206319807155661, -0.15735290990809786],[0.14465541022836892, 0.847928571642917, 0.03406182875728846],[0.3118734055025057, 0.7448794337842566, 0.10644492531477881]
5,83,[0.026836972254587397, 0.9206319807155661, -0.15735290990809786],[0.14465541022836892, 0.847928571642917, 0.03406182875728846],[0.3118734055025057, 0.7448794337842566, 0.10644492531477881]
5,84,[0.026836972254587397, 0.9206319807155661, -0.15735290990809786],[0.14465541022836892, 0.847928571642917, 0.03406182875728846],[0.3118734055025057, 0.7448794337842566, 0.10644492531477881]
5,85,[0.026836972254587397, 0.9206319807155661, -0.15735290990809786],[0.14465541022836892, 0.847928571642917, 0.03406182875728846],[0.3118734055025057, 0.7448794337842566, 0.10644492531477881]
5,86,[0.026836972254587397, 0.9206319807155661, -0.15735290990809786],[0.14465541022836892, 0.847928571642917, 0.03406182875728846],[0.3118734055025057, 0.7448794337842566, 0.10644492531477881]
5,87,[0.026836972254587397, 0.9206319807155661, -0.15735290990809786],[0.14465541022836892, 0.847928571642917, 0.03406182875728846],[0.3118734055025057, 0.7448794337842566, 0.10644492531477881]
5,88,[0.026836972254587397, 0.9206319807155661, -0.15735290990809786],[0.14465541022836892, 0.847928571642917, 0.03406182875728846],[0.3118734055025057, 0.7448794337842566, 0.10644492531477881]
5,89,[0.026836972254587397, 0.9206319807155661, -0.15735290990809786],[0.14465541022836892, 0.847928571642917, 0.03406182875728846],[0.3118734055025057, 0.7448794337842566, 0.10644492531477881]
5,90,[0.026836972254587397, 0.9206319807155661, -0.15735290990809786],[0.14465541022836892, 0.847928571642917, 0.03406182875728846],[0.3118734055025057, 0.7448794337842566, 0.10644492531477881]
5,91,[0.026836972254587397, 0.9206319807155661, -0.15735290990809786],[0.14465541022836892, 0.847928571642917, 0.03406182875728846],[0.3118734055025057, 0.7448794337842566, 0.10644492531477881]
5,92,[0.026836972254587397, 0.9206319807155661, -0.15735290990809786],[0.14465541022836892, 0.847928571642917, 0.03406182875728846],[0.3118734055025057, 0.7448794337842566, 0.10644492531477881]
5,93,[0.026836972254587397, 0.9206319807155661, -0.15735290990809786],[0.14465541022836892, 0.847928571642917, 0.03406182875728846],[0.3118734055025057, 0.7448794337842566, 0.10644492531477881]
5,94,[0.026836972254587397, 0.9206319807155661, -0.15735290990809786],[0.14465541022836892, 0.847928571642917, 0.03406182875728846],[0.3118734055025057, 0.7448794337842566, 0.10644492531477881]
5,95,[0.026836972254587397, 0.9206319807155661, -0.15735290990809786],[0.14465541022836892, 0.847928571642917, 0.03406182875728846],[0.3118734055025057, 0.7448794337842566, 0.10644492531477881]
5,96,[0.026836972254587397, 0.9206319807155661, -0.15735290990809786],[0.14465541022836892, 0.847928571642917, 0.03406182875728846],[0.3118734055025057, 0.7448794337842566, 0.10644492531477881]
5,97,[0.026836972254587397, 0.9206319807155661, -0.15735290990809786],[0.14465541022836892, 0.847928571642917, 0.03406182875728846],[0.3118734055025057, 0.7448794337842566, 0.10644492531477881]
5,98,[0.026836972254587397, 0.9206319807155661, -0.15735290990809786],[0.14465541022836892, 0.847928571642917, 0.03406182875728846],[0.3118734055025057, 0.7448794337842566, 0.10644492531477881]
5,99,[0.026836972254587397, 0.9206319807155661, -0.15735290990809786],[0.14465541022836892, 0.847928571642917, 0.03406182875728846],[0.3118734055025057, 0.7448794337842566, 0.10644492531477881]
6,0,[-0.03821043405350318, 0.9788636420482073, -0.28062518606686204],[0.01952657811917386, 0.9417298163728058, 0.15123293703892338],[0.13063180410527192, 0.7596131921076664, 0.22949960865735994]
6,1,[-0.03821043405350318, 0.9788636420482073, -0.28062518606686204],[0.01952657811917386, 0.9417298163728058, 0.15123293703892338],[0.13063180410527192, 0.7596131921076664, 0.22949960865735994]
6,2,[-0.03821043405350318, 0.9788636420482073, -0.28062518606686204],[0.01952657811917386, 0.9417298163728058, 0.15123293703892338],[0.13063180410527192, 0.7596131921076664, 0.22949960865735994]
6,3,[-0.03821043405350318, 0.9788636420482073, -0.28062518606686204],[0.01952657811917386, 0.9417298163728058, 0.15123293703892338],[0.13063180410527192, 0.7596131921076664, 0.22949960865735994]
6,4,[-0.03821043405350318, 0.9788636420482073, -0.28062518606686204],[0.01952657811917386, 0.9417298163728058, 0.15123293703892338],[0.13063180410527192, 0.7596131921076664, 0.22949960865735994]
6,5,[-0.03821043405350318, 0.9788636420482073, -0.28062518606686204],[0.01952657811917386, 0.9417298163728058, 0.15123293703892338],[0.13063180410527192, 0.7596131921076664, 0.22949960865735994]
6,6,[-0.03821043405350318, 0.9788636420482073, -0.28062518606686204],[0.01952657811917386, 0.9417298163728058, 0.15123293703892338],[0.13063180410527192, 0.7596131921076664, 0.22949960865735994]
6,7,[-0.03821043405350318, 0.9788636420482073, -0.28062518606686204],[0.01952657811917386, 0.9417298163728058, 0.15123293703892338],[0.13063180410527192, 0.7596131921076664, 0.22949960865735994]
6,8,[-0.03821043405350318, 0.9788636420482073, -0.28062518606686204],[0.01952657811917386, 0.9417298163728058, 0.15123293703892338],[0.13063180410527192, 0.7596131921076664, 0.22949960865735994]
6,9,[-0.03821043405350318, 0.9788636420482073, -0.28062518606686204],[0.01952657811917386, 0.9417298163728058, 0.15123293703892338],[0.13063180410527192, 0.7596131921076664, 0.22949960865735994]
6,10,[-0.03821043405350318, 0.9788636420482073, -0.28062518606686204],[0.01952657811917386, 0.9417298163728058, 0.15123293703892338],[0.13063180410527192, 0.7596131921076664, 0.22949960865735994]
6,11,[-0.03821043405350318, 0.9788636420482073, -0.28062518606686204],[0.01952657811917386, 0.9417298163728058, 0.15123293703892338],[0.13063180410527192, 0.7596131921076664, 0.22949960865735994]
6,12,[-0.03821043405350318, 0.9788636420482073, -0.28062518606686204],[0.01952657811917386, 0.9417298163728058, 0.15123293703892338],[0.13063180410527192, 0.7596131921076664, 0.22949960865735994]
6,13,[-0.03821043405350318, 0.9788636420482073, -0.28062518606686204],[0.01952657811917386, 0.9417298163728058, 0.15123293703892338],[0.13063180410527192, 0.7596131921076664, 0.22949960865735994]
6,14,[-0.03821043405350318, 0.9788636420482073, -0.28062518606686204],[0.01952657811917386, 0.9417298163728058, 0.15123293703892338],[0.13063180410527192, 0.7596131921076664, 0.22949960865735994]
6,15,[-0.03821043405350318, 0.9788636420482073, -0.28062518606686204],[0.01952657811917386, 0.9417298163728058, 0.15123293703892338],[0.13063180410527192, 0.7596131921076664, 0.22949960865735994]
6,16,[-0.03821043405350318, 0.9788636420482073, -0.28062518606686204],[0.01952657811917386, 0.9417298163728058, 0.15123293703892338],[0.13063180410527192, 0.7596131921076664, 0.22949960865735994]
6,17,[-0.03821043405350318, 0.9788636420482073, -0.28062518606686204],[0.01952657811917386, 0.9417298163728058, 0.15123293703892338],[0.13063180410527192, 0.7596131921076664, 0.22949960865735994]
6,18,[-0.03821043405350318, 0.9788636420482073, -0.28062518606686204],[0.01952657811917386, 0.9417298163728058, 0.15123293703892338],[0.13063180410527192, 0.7596131921076664, 0.22949960865735994]
6,19,[-0.03821043405350318, 0.9788636420482073, -0.28062518606686204],[0.01952657811917386, 0.9417298163728058, 0.15123293703892338],[0.13063180410527192, 0.7596131921076664, 0.22949960865735994]
6,20,[-0.03821043405350318, 0.9788636420482073, -0.28062518606686204],[0.01952657811917386, 0.9417298163728058, 0.15123293703892338],[0.13063180410527192, 0.7596131921076664, 0.22949960865735994]
6,21,[-0.03821043405350318, 0.9788636420482073, -0.28062518606686204],[0.01952657811917386, 0.9417298163728058, 0.15123293703892338],[0.13063180410527192, 0.7596131921076664, 0.22949960865735994]
6,22,[-0.03821043405350318, 0.9788636420482073, -0.28062518606686204],[0.01952657811917386, 0.9417298163728058, 0.15123293703892338],[0.13063180410527192, 0.7596131921076664, 0.22949960865735994]
6,23,[-0.03821043405350318, 0.9788636420482073, -0.28062518606686204],[0.01952657811917386, 0.9417298163728058, 0.15123293703892338],[0.13063180410527192, 0.7596131921076664, 0.22949960865735994]
