time,acc_x,acc_y,acc_z,gravity_x,gravity_y,gravity_z1409523323800,0.39803603,10.178948,-1.1049241,0.56624275,9.7491665,-0.896381141409523323801,0.22864626,10.099341,-1.1677719,0.5579548,9.752873,-0.860540751409523323806,0.08319851,10.061034,-1.192911,0.5497145,9.755757,-0.83272741409523323815,-0.048482586,10.031705,-1.2366052,0.5414231,9.75782,-0.8137581409523323833,-0.20051439,9.951499,-1.2252327,0.53274727,9.759078,-0.804331661409523323835,-0.3465607,9.859323,-1.2204443,0.52178925,9.76003,-0.799968241409523323846,-0.44532153,9.787497,-1.2186487,0.51011574,9.760332,-0.803803561409523323871,-0.48841715,9.6845455,-1.2443863,0.49731913,9.760094,-0.81465751409523323871,-0.4961983,9.629479,-1.240795,0.4846873,9.759384,-0.830605031409523323875,-0.44352585,9.709086,-1.2360066,0.47328883,9.758379,-0.84877151409523323898,-0.4201824,9.862315,-1.2138603,0.46412793,9.757334,-0.86569251409523323900,-0.45789108,10.003573,-1.1905168,0.45653704,9.7565365,-0.87862171409523323906,-0.52612585,10.0269165,-1.1665748,0.4491475,9.7559805,-0.88852791409523323930,-0.5494693,9.939528,-1.1474211,0.43988517,9.755932,-0.893698631409523323931,-0.50637364,9.844358,-1.1420342,0.4286302,9.756316,-0.8949721409523323943,-0.39025488,9.81084,-1.2018893,0.41724694,9.756922,-0.89375811409523323967,-0.2765303,9.765948,-1.2856863,0.40833735,9.757486,-0.8917081409523323968,-0.16998832,9.742006,-1.328782,0.40196753,9.757879,-0.89028781409523323969,-0.012569559,9.811439,-1.2958617,0.39666095,9.758159,-0.88960051409523323975,0.14784196,9.947908,-1.2306197,0.39308864,9.758479,-0.88767611409523324027,0.20350714,10.061034,-1.1827357,0.39185178,9.758868,-0.88394851409523324027,0.18136078,10.113108,-1.1713632,0.39312226,9.759426,-0.877200371409523324028,0.17657238,10.0903635,-1.1414356,0.3952885,9.760067,-0.86904631409523324029,0.2184709,10.03769,-1.0749966,0.3988424,9.760638,-0.86097271409523324032,0.29568392,10.0029745,-1.033098,0.40460342,9.760906,-0.85521571409523324035,0.35314476,9.9790325,-0.997185,0.41262776,9.760695,-0.85381831409523324048,0.3890578,9.915586,-0.8948329,0.42193976,9.760018,-0.856976331409523324065,0.43275195,9.808446,-0.80564886,0.43091655,9.759238,-0.86139311409523324069,0.4405331,9.753978,-0.7188591,0.4394532,9.758335,-0.867314161409523324075,0.43514615,9.76954,-0.6428431,0.4466288,9.757556,-0.8723681409523324092,0.40222588,9.779117,-0.5979519,0.45358345,9.756935,-0.875726341409523324095,0.38367084,9.826403,-0.60932434,0.4600699,9.756409,-0.878190931409523324110,0.33399114,9.872491,-0.6548142,0.46578738,9.755911,-0.88070341409523324123,0.2717419,9.93474,-0.78170687,0.47150254,9.755288,-0.88454221409523324128,0.15682021,9.943718,-0.961272,0.4770365,9.754476,-0.89052391409523324146,0.12389994,9.81922,-0.9768343,0.48195702,9.753484,-0.898716751409523324147,0.14305355,9.739613,-0.9283517,0.48818305,9.752279,-0.90834671409523324163,0.17118542,9.710882,-0.8074445,0.4964096,9.750922,-0.918418651409523324177,0.2208651,9.745598,-0.74399817,0.50602233,9.749537,-0.92782341409523324177,0.26755205,9.844358,-0.6715736,0.5174509,9.748042,-0.937181951409523324194,0.27473465,9.900622,-0.6338649,0.5299825,9.746507,-0.94609881409523324195,0.2837129,9.962872,-0.59855044,0.54199415,9.744938,-0.955423531409523324208,0.28311434,9.939528,-0.5859809,0.55286914,9.74341,-0.96471571409523324225,0.26156655,9.92636,-0.5530606,0.5633026,9.741919,-0.973707851409523324227,0.22445641,9.892242,-0.5506664,0.5724863,9.740577,-0.981739161409523324244,0.20290859,9.85633,-0.58418524,0.5793074,9.739483,-0.98856111409523324263,0.1945289,9.761759,-0.65660983,0.58371145,9.738702,-0.993664441409523324264,0.18255788,9.662399,-0.7374141,0.5869959,9.73812,-0.99744441409523324267,0.17776948,9.551069,-0.79487497,0.5906585,9.737626,-1.0000821409523324276,0.21068975,9.474455,-0.8607155,0.59559625,9.737188,-1.00142191409523324298,0.25857377,9.490017,-0.9068039,0.60145754,9.736684,-1.00280241409523324299,0.320823,9.533711,-0.87448215,0.6088351,9.736115,-1.00386511409523324309,0.37110126,9.589376,-0.830788,0.61775696,9.735535,-1.00405941409523324332,0.40940848,9.7324295,-0.80564886,0.6274115,9.734961,-1.00363971409523324333,0.38726214,9.852738,-0.8050503,0.6370044,9.734418,-1.00287461409523324336,0.3429694,9.883863,-0.8655039,0.64689654,9.733783,-1.00270721409523324383,0.26396075,9.889849,-0.9391256,0.65747696,9.732947,-1.0039061409523324384,0.17836803,9.869498,-1.01574,0.66872346,9.731894,-1.0066951409523324386,0.077811554,9.827001,-1.0133458,0.67940295,9.730735,-1.01074611409523324389,-0.020350715,9.881469,-0.98461545,0.690596,9.72952,-1.01484971409523324390,-0.10414778,10.018537,-0.94930094,0.7011764,9.728371,-1.01861121409523324396,-0.18315643,10.164583,-0.88525605,0.7107541,9.727278,-1.02239371409523324417,-0.24061728,10.247183,-0.8415619,0.7192913,9.726255,-1.0261471409523324418,-0.22924481,10.23222,-0.8726865,0.7262699,9.725218,-1.03105281409523324431,-0.18674773,10.204087,-0.89303726,0.73121554,9.723908,-1.03987311409523324454,-0.16519992,10.121488,-0.943914,0.735003,9.722407,-1.05115711409523324454,-0.17298107,9.968858,-1.0408791,0.7346274,9.720734,-1.06679881409523324455,-0.16220717,9.72824,-1.1366472,0.72902185,9.719128,-1.08511911409523324474,-0.12868834,9.498397,-1.2551602,0.71684974,9.717795,-1.10496211409523324475,-0.14604631,9.390059,-1.3383588,0.6972081,9.716872,-1.1254681409523324494,-0.12509704,9.303269,-1.4275428,0.6702137,9.716528,-1.1446731409523324497,0.092176765,9.233837,-1.5107412,0.6372326,9.716834,-1.16081181409523324511,0.39444473,9.261371,-1.555034,0.6023747,9.717667,-1.17238521409523324524,0.6452374,9.348759,-1.5747862,0.56959903,9.718583,-1.18114281409523324527,0.84694886,9.486425,-1.5412674,0.5389175,9.720071,-1.18328981409523324543,1.0869676,9.662998,-1.4933833,0.5125778,9.722194,-1.17754421409523324564,1.4580688,9.863512,-1.460463,0.49521104,9.724949,-1.16211761409523324565,1.8579005,10.208278,-1.3874398,0.49332947,9.72812,-1.1360931409523324567,2.2397757,10.723629,-1.3605051,0.5105404,9.73149,-1.09901381409523324576,2.6018987,11.179725,-1.2491747,0.54538494,9.734859,-1.05141321409523324598,2.8311436,11.6585655,-1.0402806,0.5920757,9.737722,-0.99830131409523324599,2.6952724,11.843517,-0.8295909,0.64195585,9.740628,-0.93726641409523324610,2.0949266,11.83813,-0.5482722,0.68254095,9.743668,-0.87493141409523324638,1.4341269,11.741764,-0.19752164,0.6995231,9.747539,-0.81643051409523324639,1.0217255,11.403583,0.016759412,0.6908324,9.752356,-0.764654161409523324640,0.93493575,10.758346,0.12509704,0.66794896,9.757126,-0.72298651409523324667,1.1384429,10.189124,-0.19931729,0.64470136,9.760717,-0.695072531409523324668,1.2515689,9.7084875,-0.4973954,0.62899524,9.762334,-0.68674151409523324670,1.0546459,9.325416,-0.7356185,0.6181424,9.762906,-0.688438361409523324677,0.83378077,9.11712,-0.9487024,0.6049536,9.76237,-0.707506361409523324702,0.7739257,9.077017,-1.3664906,0.5866443,9.761162,-0.73888321409523324703,1.0348936,9.140464,-2.4420857,0.5677935,9.759013,-0.78083141409523324708,1.021127,9.1033535,-2.6563668,0.55505174,9.755161,-0.8361321409523324731,0.8583213,8.950723,-2.5875335,0.54400283,9.750767,-0.89276821409523324732,0.62967503,8.78672,-2.3175871,0.5299208,9.746778,-0.943362061409523324736,0.41060558,8.718486,-1.9722236,0.5102511,9.743322,-0.98879421409523324765,0.27832595,8.815451,-1.5167267,0.48538554,9.740888,-1.02464451409523324766,0.2777274,9.10455,-1.039682,0.4608476,9.73917,-1.0519331409523324768,0.28790274,9.31524,-0.54288524,0.43877253,9.737375,-1.07769391409523324776,0.24181437,9.487623,0.049679685,0.42064506,9.73465,-1.10907241409523324801,0.31483752,9.738416,0.5093664,0.40441376,9.730435,-1.15128781409523324802,0.44532153,9.947908,0.9624691,0.38938424,9.7239895,-1.20947271409523324807,0.6075287,10.065823,1.4024036,0.3764815,9.71488,-1.2844281409523324823,0.789488,10.168175,2.0009542,0.36502135,9.704465,-1.36400761409523324827,1.0552444,10.318411,2.4522612,0.35759297,9.691904,-1.45242131409523324843,1.1043255,10.45907,1.8010383,0.35502136,9.676913,-1.54973471409523324866,1.1186907,10.405201,0.21188685,0.35681495,9.656854,-1.66980911409523324867,1.4873978,10.146626,-1.2641385,0.36369684,9.628079,-1.82706341409523324868,2.099715,9.830592,-2.1481974,0.38101563,9.590113,-2.01369261409523324876,2.3989902,9.560646,-2.2068555,0.41135204,9.546331,-2.20652631409523324900,1.7525556,9.472659,-1.4047978,0.4442796,9.50438,-2.37481931409523324901,1.0193313,9.53012,-0.7110779,0.46343002,9.467089,-2.51591131409523324909,0.35553896,9.437943,-0.43993455,0.46417233,9.444531,-2.5991781409523324927,-0.030526072,9.415796,-0.7074866,0.44582918,9.438031,-2.62586861409523324928,-0.003591303,9.333796,-1.3425486,0.41926003,9.444561,-2.60670161409523324945,-0.008978256,9.390657,-1.882441,0.39425182,9.458909,-2.55811641409523324948,-0.09636662,9.874287,-2.3600843,0.3710022,9.477211,-2.4930351409523324957,-0.13826515,10.338163,-2.7204118,0.3446043,9.498055,-2.41631531409523324986,-0.2621651,10.499173,-2.7090392,0.31842035,9.518996,-2.33616921409523324987,-0.3513491,10.574591,-2.504335,0.28638476,9.540409,-2.25144151409523324988,-0.31064767,10.432734,-2.2762873,0.24910453,9.5587635,-2.17677741409523325013,-0.046088383,10.309433,-2.3211784,0.20144933,9.571797,-2.12379221409523325014,0.45190558,10.48002,-2.557606,0.14428864,9.579315,-2.0943521409523325017,0.96546185,10.67814,-2.895787,0.0859443,9.581759,-2.08635641409523325046,1.3874398,10.977415,-3.2962172,0.03340075,9.579583,-2.09783121409523325047,1.673547,11.398794,-3.445855,-0.010966215,9.573763,-2.12445861409523325050,2.0392613,11.902175,-3.0789435,-0.0471905,9.566684,-2.1556241409523325056,2.5504234,12.423512,-2.3594859,-0.07183073,9.559397,-2.18704751409523325076,3.3614593,13.0280485,-0.97982705,-0.07791005,9.553612,-2.21197561409523325076,5.395334,13.698425,2.557606,-0.059116498,9.551889,-2.21998291409523325099,6.8569937,14.033014,4.237737,0.005335224,9.561002,-2.18120031409523325100,6.855198,14.021044,2.4253263,0.1034934,9.569107,-2.14286831409523325109,6.555324,13.854647,0.9516952,0.18485622,9.552381,-2.21094751409523325133,6.951565,13.184869,1.5676036,0.22638328,9.518984,-2.3469341409523325135,7.6764092,12.398374,3.6870706,0.2518249,9.471138,-2.5307121409523325138,7.515998,12.187085,9.288904,0.26762775,9.430505,-2.67662721409523325181,5.816713,12.987347,8.97287,0.30137044,9.441725,-2.6331351409523325183,4.950012,12.800599,2.9771898,0.32906246,9.50427,-2.393941409523325184,3.7535098,11.2689085,0.8690952,0.3709709,9.571176,-2.10365061409523325186,3.180697,11.561002,-0.25378537,0.44350103,9.622386,-1.83939421409523325213,3.0550013,11.605294,-1.2557588,0.54004157,9.658642,-1.60915841409523325215,1.6208745,11.358093,-0.5255273,0.64372635,9.686118,-1.39109981409523325218,-0.16639702,12.0488205,0.08319851,0.7583888,9.708392,-1.15859771409523325219,-0.7685388,13.509882,-1.5346833,0.8764327,9.725158,-0.907502831409523325266,-0.1412579,13.303382,-3.8067808,1.0031542,9.731821,-0.67508961409523325268,-0.4890157,14.3179245,-5.3223104,1.1619548,9.725599,-0.482673351409523325271,-0.90021986,16.416443,-5.061941,1.3326457,9.710564,-0.315205631409523325272,-0.5638345,19.091364,-4.8081555,1.4969673,9.690761,-0.136611831409523325273,-1.1504139,18.788498,-5.395932,1.6446953,9.667636,0.046822541409523325304,-3.347094,16.54154,-5.115212,1.7655791,9.643598,0.232630361409523325305,-5.427655,14.512454,-4.3640313,1.8019761,9.63011,0.429254031409523325306,-4.56275,12.637196,-3.4213142,1.733409,9.631722,0.62898741409523325311,-1.1857284,11.862671,-3.153762,1.6260136,9.636699,0.81271371409523325332,2.416348,11.923723,-0.94092125,1.5611128,9.6341095,0.95773331409523325332,2.8401217,11.360487,-1.6681601,1.5973312,9.614363,1.08764661409523325336,1.4694413,9.900622,-4.988918,1.717802,9.580985,1.19342551409523325364,0.24480712,8.356362,-5.7945666,1.8569872,9.546622,1.25858271409523325365,-0.8146271,7.6770077,-3.8546648,2.0013838,9.511242,1.30428151409523325368,-1.7381904,6.525397,-0.2717419,2.1377027,9.475014,1.350831409523325377,-1.7537527,5.363012,1.7681179,2.275532,9.433522,1.41457721409523325395,-1.3443443,4.55856,0.5746084,2.4226258,9.386173,1.48359291409523325397,-0.5069722,4.4921207,-1.0642227,2.5781832,9.334744,1.54464141409523325408,0.073621705,4.4927197,-1.6436194,2.7222655,9.282904,1.60852681409523325429,0.076614454,4.2413282,-1.4790181,2.8350847,9.233742,1.69430921409523325430,-0.20470424,3.7565024,-1.0875661,2.9205818,9.184586,1.81217251409523325438,-0.521936,3.2513258,-1.9003977,2.9844804,9.136059,1.94826041409523325469,-0.8391677,3.0304608,-2.9460652,3.0224383,9.089905,2.0997321409523325471,-1.4981717,2.6449943,-3.544017,3.0470767,9.048211,2.23955151409523325472,-2.6503813,2.2307975,-3.4195185,3.0667975,9.012098,2.35525561409523325478,-3.6379895,2.315193,-2.5953147,3.07994,8.981963,2.45126441409523325502,-4.061165,2.5540147,-1.846528,3.0889606,8.9573345,2.5288121409523325503,-3.8163576,3.1531637,-1.2946646,3.1041377,8.934967,2.58864381409523325510,-3.517681,3.3129766,-1.0061632,3.1245875,8.917403,2.6243641409523325523,-3.2638955,3.0334535,-1.2425907,3.1582255,8.906403,2.62145021409523325538,-3.2273839,2.8491,-1.5071499,3.1895063,8.9058,2.58537341409523325539,-3.2231941,3.3261447,-1.4095862,3.199136,8.9195385,2.52542161409523325554,-3.0992942,4.5154643,-0.5530606,3.1779459,8.949078,2.44643861409523325556,-2.8281507,6.241085,1.3754689,3.1258833,8.992765,2.35146931409523325570,-2.3648727,8.687361,5.9358244,3.043602,9.048414,2.24344971409523325586,-0.22804771,14.366407,12.151173,2.9302273,9.106558,2.15749221409523325588,8.239645,19.608511,16.888699,2.7630687,9.163542,2.136671409523325608,18.058266,19.608511,13.756484,2.6637607,9.232415,1.95889811409523325610,19.557634,19.608511,7.53575,2.5838206,9.279872,1.83800421409523325627,14.833876,16.878523,2.110489,2.5641818,9.299961,1.7624091409523325631,8.222886,11.163564,2.0685902,2.6234212,9.311986,1.60467921409523325637,4.1419687,9.488221,4.4101195,3.7090225,8.6887665,2.6303751409523325658,3.300407,10.373477,6.1902084,3.7104168,8.663697,2.70990091409523325659,2.1176715,9.922171,4.803367,3.5989256,8.620508,2.984121409523325672,1.1360487,7.363966,0.9624691,3.4438052,8.617543,3.1699461409523325689,0.9367314,6.9605427,-4.0803185,3.2896192,8.68659,3.14514351409523325690,-1.1905168,11.705851,-8.564059,3.165934,8.883742,2.6881921409523325705,-2.1972785,16.347609,-8.248025,2.7819672,9.248281,1.70304731409523325708,-2.4516625,16.927006,-3.0442274,2.2164168,9.523971,0.742861751409523325721,-2.3427265,15.157691,6.6002154,1.6614785,9.657132,0.386856081409523325738,-1.1941081,13.019669,7.5920134,1.2364031,9.687031,0.89616931409523325739,-2.5492263,10.998364,0.44113165,0.9649521,9.654163,1.42701841409523325764,-2.3505075,11.935096,-2.4169466,0.64096755,9.701619,1.27990451409523325765,-1.0372878,12.8832,-0.52852005,0.37870312,9.756612,0.91406221409523325769,-2.441487,10.414778,-0.6655881,0.27710268,9.770222,0.79773061409523325794,-2.983774,7.9116397,-2.2146366,0.05404548,9.782351,0.687814651409523325795,-1.4323312,7.4004774,-2.712032,-0.21656616,9.7948265,0.42996341409523325797,-1.0588357,7.7159133,-2.15538,-0.3275189,9.800017,0.151057571409523325833,-1.7058687,8.08462,-1.5915456,-0.40579307,9.798093,-0.055904861409523325834,-2.8592753,7.840412,-1.1414356,-0.56496966,9.788404,-0.195809871409523325835,-3.383007,6.5307837,-0.9756372,-0.8397836,9.766401,-0.28730071409523325837,-2.2888567,7.147889,-1.027711,-1.1488204,9.732682,-0.354313021409523325863,-1.1168951,8.57184,-0.98102415,-1.3000454,9.711298,-0.41349381409523325864,-0.7781156,10.048465,-0.9044097,-1.2861084,9.711159,-0.45794451409523325871,-1.2731167,11.206659,-0.83258367,-1.2236494,9.717784,-0.487615941409523325894,-1.8950106,12.121843,-0.878672,-1.2185417,9.717357,-0.50846031409523325895,-1.905186,12.761694,-0.94570965,-1.2807401,9.708542,-0.523768251409523325898,-1.2210429,12.561179,-1.2617443,-1.3282448,9.700975,-0.54521691409523325910,-0.25857377,11.550227,-1.6226702,-1.2845439,9.703901,-0.595509471409523325935,0.670975,10.353725,-1.6041151,-1.1415392,9.716293,-0.678950251409523325936,1.5478514,9.340978,-2.4552538,-0.92766845,9.733136,-0.75888321409523325938,2.72939,9.03452,-4.404134,-0.6591193,9.741425,-0.91684891409523325961,3.459023,9.138069,-4.9559975,-0.30440453,9.722043,-1.2488361409523325963,3.3566709,8.965687,-3.2680852,0.073591456,9.675319,-1.59787191409523325969,2.396596,8.22528,-3.4320881,0.39856443,9.634806,-1.78383841409523325995,1.6226702,7.6321163,-3.5895069,0.57028073,9.582461,-2.00540111409523325996,1.4323312,7.439383,-4.0563765,0.6327008,9.522413,-2.2569331409523326002,0.6997054,6.8186865,-4.1371803,0.69317955,9.449184,-2.53037951409523326011,0.5105635,7.3005195,-3.6661212,0.70994717,9.380019,-2.77157191409523326037,1.0815806,8.546701,-2.758719,0.7041028,9.332916,-2.92767621409523326039,1.3748703,9.426571,-1.7304093,0.7390236,9.322899,-2.95089581409523326040,1.0372878,9.43076,-0.3333926,0.8022027,9.350173,-2.84624861409523326063,0.3549404,9.045893,0.6769605,0.81610656,9.415456,-2.61793021409523326064,-0.26276365,8.602366,1.021127,0.7518232,9.496458,-2.32860661409523326069,-0.6183026,8.367735,0.9959879,0.62660044,9.570311,-2.0461881409523326096,-0.7302315,8.814852,0.86610246,0.48549104,9.628373,-1.79698111409523326098,-0.5746084,9.794679,0.6500258,0.35882485,9.673305,-1.57124691409523326099,-0.13587095,10.833763,0.36750996,0.26670155,9.706487,-1.37235431409523326130,0.47884035,11.625047,-0.05207389,0.22579905,9.729709,-1.20506931409523326131,1.0516531,12.061988,-0.46148238,0.2542536,9.741458,-1.09990041409523326132,1.4131776,12.245145,-0.5979519,0.33277825,9.745369,-1.04279581409523326138,1.5209166,12.391191,-0.65301853,0.42767102,9.745753,-1.00388541409523326160,1.560421,12.810176,-0.37229836,0.64877605,9.76059,-0.693089371409523326161,1.5795746,12.983756,1.4281414,0.64877605,9.76059,-0.693089371409523326171,2.7539306,12.62702,7.9942393,0.64877605,9.76059,-0.693089371409523326194,5.5587378,12.798205,8.716091,0.82149905,9.771864,0.0789583851409523326195,6.6905966,13.823522,-3.316568,1.2079318,9.699872,0.78979111409523326198,6.025607,12.846089,-4.3382936,1.6267577,9.666701,0.28091161409523326228,6.0878563,10.331579,5.755661,1.926936,9.611898,-0.26209641409523326229,9.713276,13.311762,12.776657,2.2729023,9.533017,0.354796021409523326231,10.751163,16.236279,4.341286,2.857528,9.245089,1.59161871409523326238,6.6804214,14.211383,-4.292804,3.2562642,9.06604,1.83685741409523326260,5.1379566,13.135788,-6.3548098,3.2890527,9.14546,1.30885471409523326261,5.245097,12.303204,-7.181408,3.2997706,9.208529,0.696333941409523326269,4.1581297,10.982801,-5.01705,3.3562472,9.2144375,0.0111009481409523326292,2.9759927,10.726024,-0.19153613,3.3831797,9.196187,-0.3932451409523326293,2.8341362,12.242152,4.7267528,3.332604,9.216301,-0.352106931409523326298,2.8898015,13.728951,7.0048356,3.2589996,9.248661,0.107581551409523326327,2.6234465,13.713388,4.7387238,3.1751604,9.25134,0.7081291409523326328,1.5915456,12.430696,1.9907787,3.0681877,9.25307,1.06644941409523326330,0.18255788,11.137826,0.08559271,2.9126358,9.290287,1.1736631409523326338,0.15801731,11.118074,-1.3383588,2.6898947,9.359423,1.15586581409523326362,1.9740193,10.424355,-2.585738,2.502839,9.428922,1.00081371409523326363,2.6862943,9.8042555,-2.8089972,2.4942932,9.454569,0.74833881409523326370,1.6681601,10.092757,-2.6569653,2.5496402,9.457383,0.47712681409523326393,1.3263878,10.846333,-3.5248635,2.4987648,9.480128,0.231782081409523326393,1.8698715,18.429367,-5.1235914,2.4054086,9.506878,-0.060690181409523326398,1.271321,19.608511,-3.5314474,2.243671,9.537686,-0.41090591409523326421,-0.3489549,19.608511,-1.2449849,2.0493133,9.573459,-0.56530661409523326422,-4.992509,19.421764,-5.21098,1.763445,9.631857,-0.536613461409523326442,-7.8068933,12.352883,-8.57184,1.1889493,9.700173,-0.81451521409523326443,-7.304111,8.455123,-6.739079,0.48186406,9.692227,-1.41382561409523326450,-3.7367504,9.413403,-0.5883751,-0.1674962,9.625865,-1.86683551409523326481,-1.7058687,9.465476,-0.4818331,-0.45134836,9.6436825,-1.72222241409523326482,-0.7703344,9.197925,-5.2798133,-0.49634123,9.671829,-1.54265531409523326483,-0.30226797,8.55987,-7.687183,-0.48299718,9.626639,-1.80690561409523326491,0.046088383,7.04015,-6.754043,-0.45811963,9.527759,-2.2764751409523326509,-0.035314474,5.0583496,-3.596091,-0.40218964,9.420705,-2.69424991409523326511,-0.789488,4.1222167,-1.1839328,-0.35636255,9.369736,-2.87253241409523326518,-1.1174936,3.7163997,0.6500258,-0.42984828,9.374271,-2.8475681409523326553,-1.4951789,3.4859576,0.6536171,-0.5488786,9.42492,-2.65329961409523326555,-1.0342951,3.2722752,-0.45070848,-0.67940515,9.463481,-2.48019271409523326559,-0.2136825,3.582923,-2.086547,-0.74631155,9.462112,-2.46613721409523326584,-0.08020575,4.0587707,-2.3959973,-0.70856565,9.423877,-2.61894731409523326585,-0.65301853,3.8833952,-1.3976152,-0.6577835,9.37286,-2.80841831409523326587,-1.2180501,3.4883518,-1.1540052,-0.6824556,9.357087,-2.85474181409523326611,-1.5179238,3.1387985,-1.7154455,-0.8037241,9.345914,-2.85978221409523326612,-2.284667,2.6048915,-2.2152352,-0.98352885,9.299884,-2.95216041409523326613,-3.5380316,1.775899,-2.5582044,-1.2886859,9.198584,-3.14574341409523326618,-4.1742907,1.3922282,-2.372654,-1.8030548,9.013236,-3.41774231409523326635,-3.9875429,1.5023615,-1.6382325,-2.4265206,8.767638,-3.66209031409523326638,-3.3806129,1.9590555,-1.8543092,-3.0105815,8.542579,-3.75914121409523326652,-2.9987376,2.28347,-2.6964695,-3.4469407,8.3237095,-3.87360931409523326665,-2.9735985,2.461838,-2.9095535,-3.7666643,8.077559,-4.09092331409523326669,-3.268684,3.2615013,-1.3982137,-4.03973,7.822426,-4.3197941409523326684,-3.3441012,5.1996074,3.040636,-4.3342395,7.7093306,-4.2368581409523326689,-3.064578,9.850943,12.296021,-4.62234,7.9928074,-3.30444931409523326704,5.3061495,19.445705,19.608511,-4.5531917,8.662962,-0.626052741409523326724,19.452888,19.608511,19.608511,-4.6752024,8.57709,-0.86394351409523326725,18.127699,19.608511,15.9340105,-4.796581,8.486238,-1.07096651409523326730,8.815451,17.258602,6.3793507,-4.862587,8.437541,-1.15479981409523326740,5.9723363,7.9708962,1.578976,2.3450212,8.410254,4.46530151409523326764,2.6192567,3.0753522,6.0040593,2.863315,8.443945,4.0830911409523326766,1.7142484,3.5009215,4.882974,3.0825233,8.249504,4.3144111409523326771,-0.207697,3.881001,4.732738,3.0949707,8.114638,4.554581409523326783,-1.4987702,3.9199066,2.6390088,2.9052894,8.016153,4.84468461409523326792,-1.4532804,6.2542534,-5.1062336,2.5412488,8.06369,4.96883771409523326812,-2.0949266,10.916962,-12.479177,2.2515638,8.560045,4.22214031409523326814,-3.9193082,13.781624,-10.418967,1.825784,9.335907,2.38280251409523326819,-3.9175124,14.468161,-3.4398694,1.1058979,9.708846,0.828066471409523326843,-3.0585926,14.667479,2.7569232,0.4621955,9.788895,0.366496261409523326844,-0.5117606,16.81029,7.57286,0.04961188,9.785326,0.64444681409523326851,-3.2034419,15.579669,-1.0630256,-0.009383915,9.726949,1.24772541409523326883,-2.5384524,14.16709,-5.923255,-0.32300037,9.75838,0.91654761409523326884,-0.6266823,13.160927,-4.0258503,-0.52765983,9.789207,0.251763881409523326886,-0.7505822,10.779893,-2.6168625,-0.50524515,9.7929325,-0.1165304851409523326911,-1.2078748,9.364322,-2.3744495,-0.5174856,9.788767,-0.287469031409523326912,-1.0899603,9.344569,-2.1458032,-0.6014496,9.777548,-0.45633181409523326913,-0.7230489,9.790489,-1.590947,-0.6643482,9.765263,-0.60721511409523326918,-1.1438298,9.34397,-0.9708488,-0.6901309,9.757565,-0.695709351409523326934,-2.030283,8.189965,-0.37110126,-0.76883876,9.749351,-0.72762971409523326938,-2.5366566,7.2502413,-0.5279215,-0.9242853,9.737448,-0.70585841409523326954,-1.1737574,8.488044,-0.8158242,-1.1340473,9.714935,-0.710161571409523326965,-0.670975,9.555259,-0.86011696,-1.1635598,9.709815,-0.73214881409523326970,-0.8750807,10.069414,-0.88286185,-1.1119657,9.714542,-0.749381071409523326985,-1.4083891,10.642825,-1.079785,-1.0884548,9.715961,-0.76534011409523327000,-1.697489,11.190498,-1.2886791,-1.130872,9.70885,-0.79358141409523327000,-1.388637,11.130045,-1.283292,-1.1928498,9.698414,-0.82961751409523327016,-0.6254852,10.533889,-1.3664906,-1.1989648,9.695428,-0.855298761409523327018,0.16819267,9.922171,-1.2132617,-1.1318141,9.700083,-0.89318851409523327033,0.96426475,9.3499565,-1.1947067,-0.9760933,9.715693,-0.907143241409523327038,1.7675194,8.730456,-1.7058687,-0.7584159,9.733337,-0.925919351409523327052,2.4702177,8.608353,-2.5330653,-0.49033904,9.74295,-1.00242951409523327075,2.783858,8.495825,-2.8508956,-0.18211803,9.736143,-1.15963351409523327076,2.4091654,7.8948803,-1.8650831,0.120985806,9.7142725,-1.33740971409523327079,1.8716671,6.8958993,-1.8082209,0.34736001,9.698029,-1.41351131409523327111,2.4833858,6.6121864,-2.7012582,0.5048358,9.677836,-1.50166631409523327112,3.9653966,7.4764934,-4.8338933,0.7123758,9.626058,-1.73261581409523327113,4.4759603,8.291719,-5.16968,1.0585461,9.50077,-2.18752241409523327118,3.6595373,8.523358,-4.1162314,1.4245772,9.355486,-2.57212831409523327148,2.779668,9.239823,-2.5234885,1.66405,9.266644,-2.74420571409523327149,2.1416135,9.463082,-0.8158242,1.7671199,9.257856,-2.70919661409523327150,1.6675615,9.585187,0.81163436,1.7897242,9.3045845,-2.52824141409523327179,1.4909891,9.877279,1.8195933,1.7674227,9.384843,-2.22964241409523327180,1.6579847,10.212467,2.0614076,1.7311604,9.472993,-1.85361021409523327181,2.0338743,10.994773,1.9931729,1.7203912,9.538841,-1.49035571409523327202,1.9937714,11.802815,1.3150153,1.733787,9.580976,-1.17015081409523327203,1.8171991,12.171523,0.79248077,1.7239497,9.60714,-0.949347851409523327225,1.9009962,12.167333,0.50757074,1.6843606,9.62784,-0.798736751409523327226,2.0003555,11.764508,0.40342298,1.6534553,9.641793,-0.68723351409523327230,1.99437,11.3138,0.55725044,1.6455894,9.649367,-0.593444351409523327239,1.7459716,11.217434,1.5705963,1.6489161,9.654166,-0.498562841409523327260,0.81881696,10.166978,6.925827,1.6322789,9.66449,-0.32201941409523327261,0.53570265,9.025542,8.787319,1.5546856,9.677021,0.32957231409523327270,1.9440918,10.852917,4.589086,1.4718524,9.635594,1.07672641409523327289,3.6816838,13.409326,-3.0472202,1.5094147,9.609106,1.24785261409523327290,3.5087025,12.794614,-2.9101522,1.6737419,9.642857,0.619901241409523327299,2.8616695,9.677961,4.5256395,1.7827482,9.640814,0.21657941409523327325,4.685453,11.756727,8.263587,1.8768069,9.589789,0.82698861409523327326,6.299743,14.890738,5.3378725,2.0900702,9.446617,1.60106951409523327330,6.2021794,15.544354,-3.235165,2.3387644,9.300848,2.04811951409523327362,5.2875943,14.174871,-6.2740054,2.4848874,9.35066,1.6002761409523327363,4.9242744,12.998719,-5.78499,2.5726817,9.421399,0.88820821409523327364,4.9284644,11.3407345,-4.381389,2.670611,9.432328,0.263398141409523327373,4.0623617,10.900801,-3.6655228,2.8075063,9.394705,-0.166861711409523327396,2.902371,11.725004,-4.6962266,2.8781424,9.362734,-0.475297841409523327400,2.4127567,12.382812,-2.4169466,2.8361287,9.352371,-0.81236621409523327401,2.9981391,13.143569,3.7708676,2.7454693,9.36887,-0.92579241409523327437,4.06296,13.661315,8.474277,2.732845,9.406383,-0.471071751409523327440,3.5553896,13.514071,7.677606,2.8070278,9.390407,0.333534031409523327441,1.3317747,12.082339,4.563947,2.8263743,9.339549,0.97715291409523327469,0.3489549,11.083957,1.2234371,2.671304,9.344322,1.31078891409523327473,0.6596026,10.129269,-0.1412579,2.4611773,9.396151,1.35104171409523327473,3.2716765,9.728839,-1.2509704,2.3333046,9.439744,1.27173321409523327507,3.8337154,8.904634,-2.0883424,2.4302652,9.437696,1.09274471409523327508,2.569577,8.957906,-2.397793,2.5976956,9.418888,0.840781571409523327509,1.8028339,9.619304,-2.9771898,2.6292107,9.430005,0.57672411409523327510,1.5717934,11.663952,-5.9747305,2.575575,9.457803,0.294593931409523327510,-0.1592144,19.608511,-5.29358,2.4829066,9.484682,-0.21532941409523327519,-1.471237,19.608511,-2.2583308,2.134164,9.555357,-0.55758421409523327541,-4.192846,19.608511,-8.001422,1.7451916,9.631724,-0.595459041409523327542,-5.053561,14.656704,-8.389283,1.2162889,9.672377,-1.0659171409523327552,-3.8977604,9.165603,-4.1575313,0.7174039,9.654855,-1.56189331409523327576,-1.7998412,9.414001,-0.46088383,0.29345542,9.63643,-1.7954091409523327577,-0.30346507,10.621876,-2.2319946,0.06828327,9.661348,-1.68050121409523327578,0.4201824,10.812814,-4.9027267,0.03983955,9.663258,-1.67040311409523327605,0.6266823,9.299079,-4.669292,0.09259865,9.619778,-1.90307921409523327606,-1.0594343,6.206968,-2.472612,0.17083661,9.567734,-2.14468961409523327612,-0.9187749,4.951209,-1.0953473,0.11216172,9.546311,-2.24181941409523327619,-1.460463,3.6326025,-1.9357121,0.040212184,9.548439,-2.2351941409523327638,-1.6980876,2.8646624,-2.0907366,-0.10984701,9.524416,-2.33320381409523327639,-0.8936358,2.980781,-0.8559271,-0.2761993,9.488543,-2.4620511409523327650,-0.59256494,3.0867245,-0.38726214,-0.33998796,9.483588,-2.47312781409523327670,-0.6787562,3.269881,-0.58897364,-0.36859512,9.492829,-2.43324951409523327684,-0.9888053,3.265691,-0.724246,-0.4245666,9.49663,-2.40918161409523327685,-1.1719618,3.0202854,-0.7637503,-0.53329015,9.49332,-2.4005951409523327700,-1.0588357,2.7395654,-1.8291701,-0.6727299,9.482248,-2.40931131409523327701,-1.4670471,2.3253684,-2.2876596,-0.7898614,9.431036,-2.56945541409523327718,-2.0871453,2.2146366,-2.1763294,-0.9799583,9.34105,-2.8204391409523327719,-2.8844144,2.167351,-2.321777,-1.2720329,9.2304535,-3.057951409523327732,-3.366846,2.2176294,-2.055422,-1.7017854,9.075507,-3.30295561409523327749,-3.3943794,2.6288335,-1.4628572,-2.2059865,8.89571,-3.4886031409523327750,-3.229778,3.0244753,-1.4137762,-2.6902065,8.740029,-3.5419021409523327764,-3.6739025,3.156755,-1.9261353,-3.1068792,8.5977955,-3.5490381409523327770,-4.4400473,3.5230677,-1.9428947,-3.5522895,8.40136,-3.60122041409523327784,-4.8320975,4.602853,-0.56982,-4.0372467,8.168668,-3.62545041409523327802,-5.08708,5.8065376,3.7044287,-4.503422,8.044333,-3.34341409523327802,-4.280833,9.066243,14.772224,-4.9527884,8.14254,-2.31070351409523327817,3.681085,18.328812,19.608511,-4.961267,8.4423,0.532734451409523327819,18.97824,19.608511,16.597204,-5.1090155,8.364303,0.326795821409523327837,19.594147,19.608511,13.214198,-5.2692027,8.269158,0.16397631409523327858,15.917252,19.54327,8.088212,-5.396792,8.188086,0.0170130491409523327859,10.21965,13.24233,1.7770962,-5.478891,8.131584,-0.17169981409523327859,5.563526,6.6103907,4.988918,3.2477434,8.4233675,3.8300711409523327886,3.2507274,7.0006456,6.52001,3.6563468,8.2737665,3.78765251409523327887,1.6286557,7.3765354,3.1878796,3.6329584,8.162713,4.04253961409523327890,0.25677812,8.516175,-4.2054152,3.4827616,8.197212,4.1044471409523327900,-0.7882909,14.586075,-8.504205,3.278759,8.525333,3.56914931409523327930,-3.086126,17.572842,-7.303512,2.8546512,9.048714,2.47833781409523327931,-4.0779243,13.669096,-2.8514943,2.178277,9.440592,1.51681391409523327932,-2.0099323,10.751163,-2.8574798,1.562989,9.618993,1.09654841409523327960,-1.8579005,9.947908,-5.647323,1.1903572,9.704133,0.763719261409523327960,-2.2439656,10.478224,-5.815516,0.90273345,9.763316,0.18198111409523327961,-1.6304513,10.326192,-3.05141,0.60838103,9.780722,-0.37114451409523327983,-2.1877017,9.506777,0.16938977,0.3980084,9.780462,-0.59546231409523327984,-2.557606,8.697536,0.11851298,0.14703414,9.792342,-0.50872141409523328001,-2.3008277,8.676587,-1.5167267,-0.1240316,9.794203,-0.478110971409523328002,-1.6980876,9.328408,-1.763928,-0.34042564,9.782076,-0.604562761409523328017,-1.7633295,9.973646,-1.70946,-0.47453403,9.76551,-0.76162591409523328019,-2.777274,9.950302,-1.7836803,-0.61242557,9.748462,-0.873402661409523328033,-3.675698,9.069835,-1.7908629,-0.85806954,9.720243,-0.975183841409523328055,-3.858256,7.9673047,-1.6579847,-1.1822342,9.675736,-1.07370211409523328056,-3.6272156,7.6015906,-1.4532804,-1.4938496,9.6235485,-1.15159061409523328059,-3.3877954,7.7159133,-1.2808979,-1.7461756,9.574657,-1.20299461409523328085,-2.8670566,7.9996266,-1.2198458,-1.9451796,9.532303,-1.23364261409523328087,-2.6725276,8.6496525,-1.1192893,-2.07593,9.501834,-1.2554211409523328101,-2.7569232,9.838972,-1.4407109,-2.1593578,9.483045,-1.25675071409523328104,-2.842516,11.098322,-2.0386627,-2.2165372,9.467305,-1.2757391409523328120,-2.3870192,11.334151,-2.5210943,-2.241608,9.453303,-1.33439791409523328121,-1.429937,10.378864,-2.939481,-2.2060168,9.447865,-1.42889491409523328130,-0.3842694,9.278131,-2.8030117,-2.0898328,9.453472,-1.56039931409523328149,0.219668,8.582615,-1.9758149,-1.8963796,9.475316,-1.6710921409523328154,0.7344214,8.902839,-1.003769,-1.6879232,9.507497,-1.71137461409523328167,1.5861586,10.077793,-0.46507367,-1.4369462,9.5647335,-1.61908671409523328193,3.1292217,11.605294,-1.0468647,-1.1171012,9.632137,-1.46436851409523328194,4.283227,12.164939,-2.6886885,-0.6687721,9.687571,-1.36898891409523328194,3.1872811,9.618107,-3.530849,-0.16467881,9.697914,-1.44697931409523328199,3.2650926,8.22109,-3.1501708,0.15215017,9.666481,-1.64511761409523328218,4.505289,8.222886,-2.9311013,0.4247817,9.621939,-1.8461391409523328232,5.391742,8.636484,-4.0378213,0.8130206,9.547928,-2.08481671409523328233,5.2049947,9.012374,-2.835932,1.2430396,9.4371,-2.35932351409523328253,4.670489,9.487623,-0.78050977,1.6414418,9.34561,-2.47702361409523328254,4.381389,9.832987,0.46447513,1.9360725,9.3281,-2.32562781409523328259,4.144962,9.965266,0.9115923,2.1781933,9.339909,-2.0474331409523328284,3.6164417,9.530719,1.0857705,2.359738,9.352504,-1.76995131409523328284,2.9101522,8.899846,1.2156559,2.4704852,9.367634,-1.52136281409523328303,2.2990322,8.735844,1.5741876,2.5119116,9.391833,-1.28613591409523328303,2.0386627,9.289502,1.5825673,2.497692,9.427106,-1.03034521409523328311,2.0045455,10.043077,1.2336124,2.455418,9.461254,-0.79120111409523328333,1.8459295,10.630256,1.0079589,2.3946292,9.490751,-0.60148881409523328333,-0.3645172,10.126875,2.9538465,2.3202434,9.517603,-0.449551251409523328350,-1.1851299,9.718663,4.1892543,2.0651436,9.586,-0.118987611409523328351,2.094328,11.574768,1.4263457,1.766967,9.641805,0.28951841409523328364,4.335301,13.182474,-1.5065514,1.8018183,9.635329,0.290311871409523328380,4.931457,13.295601,-2.767697,2.0135627,9.597411,-0.075038871409523328381,4.7387238,13.283031,-3.3159695,2.200264,9.545434,-0.462503251409523328400,4.0898952,12.747329,-1.0845734,2.307983,9.500107,-0.76913641409523328400,3.918111,11.112687,6.1507044,2.3527973,9.489777,-0.76081251409523328413,5.140351,12.0170965,12.235568,2.4530003,9.494853,-0.0309153631409523328430,7.076063,14.028825,12.855067,2.6545284,9.36522,1.19017361409523328431,8.7532015,15.155296,5.018845,2.912444,9.105294,2.1867091409523328448,8.404246,14.767436,-4.923077,3.1597536,8.992255,2.30774381409523328465,4.775235,12.852674,-7.892486,3.364627,9.063759,1.6425531409523328466,3.5954924,14.004284,-8.016984,3.3784568,9.16215,0.90080351409523328482,3.3279405,15.011644,-4.766257,3.279108,9.240926,0.152191671409523328483,2.7401638,13.8402815,3.1148565,3.158531,9.281616,-0.213693321409523328498,2.7335799,11.007941,9.269751,3.057231,9.317398,0.098948161409523328502,3.8205473,10.752958,5.505467,3.048075,9.279191,0.88104431409523328517,3.6002808,10.839748,1.8608932,3.1299002,9.20496,1.28172121409523328531,2.7443538,8.942344,2.6761189,3.1616402,9.185037,1.34518721409523328531,2.902371,8.161235,3.1681273,3.1346579,9.168419,1.51142751409523328548,4.643554,10.314221,0.21428105,3.1563535,9.132707,1.67376331409523328551,4.2437224,10.094553,-2.7778726,3.2819026,9.112713,1.53556971409523328570,3.0119057,8.738836,-3.7672763,3.3868284,9.129187,1.16523031409523328573,2.2170308,8.449737,-3.70802,3.3987193,9.163494,0.80590971409523328579,1.9255368,10.277111,-3.6343982,3.3501647,9.203339,0.495300171409523328602,1.7609353,15.659875,-3.9318779,3.2410724,9.253716,0.185957611409523328603,-0.023343466,19.608511,-4.050989,3.000609,9.335592,-0.1159444451409523328611,-1.0791864,19.608511,-2.0530279,2.5848827,9.452553,-0.37151071409523328636,-2.854487,19.608511,-6.976105,2.1551573,9.557312,-0.428309741409523328638,-5.2079873,10.501567,-10.113707,1.6677347,9.624347,-0.87234941409523328640,-5.3875523,7.5106106,-4.2940006,1.1068581,9.614782,-1.58153261409523328651,-3.675698,7.8948803,-1.091756,0.54658645,9.62504,-1.79728751409523328670,-2.219425,8.292317,-3.9923313,0.18274479,9.651825,-1.72606431409523328671,-1.0708067,8.258799,-5.8651958,-0.00531798,9.616976,-1.91940371409523328679,-0.5895722,6.9725137,-4.104859,-0.092454635,9.541824,-2.26173571409523328701,-0.23403321,5.679645,-1.074398,-0.09524112,9.480116,-2.5077371409523328702,-0.9696517,4.919486,1.0247183,-0.08162183,9.480879,-2.50532631409523328711,-0.2124854,4.848857,1.7202339,-0.17830592,9.530487,-2.30399971409523328735,-0.37708676,5.1122193,-0.9343372,-0.19932078,9.594315,-2.0198431409523328736,-0.777517,5.1960163,-1.5310919,-0.21453221,9.595792,-2.0112561409523328740,-0.5662287,5.1702785,-0.6985083,-0.25397733,9.581155,-2.07542181409523328764,-0.60812724,4.210802,-0.3286042,-0.27141088,9.588099,-2.04085141409523328765,-0.4285621,3.4632127,-0.9008184,-0.31464854,9.600325,-1.9761461409523328781,-0.5291186,2.6964695,-1.3174095,-0.36095232,9.594286,-1.99744861409523328781,-1.423353,1.9997569,-2.486977,-0.4226311,9.569785,-2.10023211409523328798,-1.9901801,1.809418,-3.0603883,-0.6088514,9.488744,-2.40071921409523328800,-3.132813,1.7932571,-3.0220811,-0.8829113,9.355913,-2.80317571409523328816,-4.24492,1.5867572,-1.875857,-1.3485125,9.17295,-3.19513371409523328832,-4.0258503,1.5574282,-0.7116765,-2.030529,8.976753,-3.38604041409523328833,-3.2920272,1.4562732,-0.5793968,-2.700349,8.810204,-3.35541751409523328846,-2.509722,1.62686,-0.7613561,-3.2317932,8.647176,-3.3094161409523328862,-1.9261353,2.6384103,-0.45310268,-3.6016083,8.499678,-3.30972841409523328863,-1.447295,4.51726,1.4676456,-3.8005517,8.452247,-3.20713191409523328884,-0.9576807,7.0982094,6.6307416,-3.8096805,8.639534,-2.64862131409523328885,-0.2633622,12.552799,14.836269,-3.5973976,9.068857,-0.992442371409523328891,8.84478,19.5313,19.607914,-2.8719022,9.201766,1.80279771409523328899,19.60133,19.608511,10.185533,-3.066319,9.179713,1.58143841409523328914,18.49461,19.608511,6.6612678,-3.278311,9.140066,1.37196211409523328931,10.16578,18.259378,6.4978633,-3.4680321,9.088819,1.23956481409523328935,5.7203465,9.2865095,5.4025164,3.0881815,8.546845,3.68577771409523328952,4.8027687,4.9763484,5.1559134,3.3995264,8.444142,3.64829781409523328953,3.0843303,5.671864,5.581483,3.7194934,8.270442,3.73303341409523328960,-0.15143326,6.823475,4.9338512,3.7467587,8.140253,3.98352551409523328981,-2.2349873,8.462905,0.91937345,3.4244561,8.153619,4.2381591409523328981,-3.7217865,14.232332,-4.3275194,2.927243,8.41977,4.08767751409523329002,-5.7544637,19.32839,-6.373365,2.2626147,8.963143,3.27307821409523329003,-4.960786,18.095377,-2.7593174,1.4129755,9.453434,2.1923661409523329012,-2.819771,13.441049,0.90261406,0.76486796,9.640697,1.62552621409523329041,0.38726214,12.058995,-1.3748703,0.42603186,9.675092,1.54320381409523329042,-0.6799533,12.207436,-5.305551,0.41364336,9.712988,1.2873111409523329043,-2.6276364,10.800842,-5.2965727,0.3025703,9.776899,0.70076721409523329072,-1.882441,9.75697,-0.62249243,0.03606456,9.804484,0.202999221409523329073,-2.1649568,8.508394,0.18794483,-0.13588096,9.804414,0.159371061409523329074,-1.8423382,8.319851,-1.3012487,-0.32289848,9.79924,0.202581521409523329080,-1.1294646,9.062652,-1.6304513,-0.47902873,9.794819,0.049785241409523329108,-1.3994108,9.913791,-1.389834,-0.5536239,9.789908,-0.146875471409523329109,-2.211644,10.068216,-1.2707225,-0.6510981,9.780891,-0.28399171409523329114,-3.0831332,9.582792,-1.1162965,-0.8295706,9.763973,-0.38343041409523329132,-3.2734723,8.738237,-1.2282255,-1.0752456,9.737138,-0.449893951409523329133,-2.5474305,8.194156,-1.769315,-1.3095818,9.705066,-0.51677011409523329151,-1.6244658,8.010401,-2.2176294,-1.4535302,9.677088,-0.641582251409523329152,-1.2946646,7.8206596,-2.349909,-1.4966958,9.659125,-0.79472371409523329160,-1.5131354,7.402273,-2.6372132,-1.5136812,9.641296,-0.96154831409523329183,-1.4939818,7.3699512,-2.4690206,-1.56913,9.611231,-1.15432121409523329184,-1.2156559,8.315661,-1.7136499,-1.6215868,9.581122,-1.32021921409523329192,-1.9632454,11.6585655,-1.1294646,-1.6182423,9.571561,-1.39171761409523329222,-1.8632874,12.411542,-1.316811,-1.6402768,9.574419,-1.34550491409523329224,-0.7966706,11.687296,-1.9716251,-1.6377897,9.580433,-1.30513161409523329225,0.57281274,10.3226,-2.12246,-1.5265604,9.592206,-1.35261691409523329269,1.8710686,9.249998,-1.8986019,-1.2938174,9.616556,-1.42067441409523329270,2.8263552,8.911219,-1.541866,-0.9541192,9.649882,-1.46281961409523329273,3.8654387,9.481039,-1.365892,-0.554137,9.682291,-1.4548371409523329274,4.666898,9.491214,-0.6344634,-0.09525223,9.703243,-1.41717921409523329276,4.9823337,8.789114,-0.9259575,0.38796005,9.709321,-1.32248321409523329281,4.398747,8.200141,-1.6250644,0.84525007,9.6824665,-1.30605721409523329320,3.5577838,8.028955,-1.5969325,1.2047001,9.63485,-1.37432121409523329322,3.4314895,8.555081,-2.5103204,1.4246044,9.5881815,-1.48581731409523329324,3.7349546,9.32362,-1.7848774,1.6028032,9.531661,-1.65796891409523329325,3.1675289,9.257779,-0.8631097,1.8060243,9.488396,-1.69675541409523329335,2.8772318,9.095572,0.032920275,1.9580489,9.471473,-1.62099471409523329364,3.067571,9.546281,0.4914099,2.0730867,9.471769,-1.4691231409523329367,3.2309752,10.126276,0.99898064,2.1904814,9.470387,-1.29765261409523329368,3.289633,10.398617,1.8124107,2.302958,9.4704685,-1.08490151409523329390,3.0873232,10.310031,2.1470003,2.3850179,9.477295,-0.81421911409523329392,2.5019407,9.816227,1.8752584,2.437503,9.483755,-0.536062241409523329393,1.774702,9.430161,1.311424,2.426507,9.496121,-0.325779621409523329416,1.050456,9.533113,1.0085574,2.3555458,9.517416,-0.201449481409523329416,-1.496376,8.881889,2.046444,2.230499,9.548832,-0.1228181351409523329420,-2.5258827,9.013571,2.0524294,1.8975104,9.621198,0.0488791841409523329432,0.973243,11.836334,-0.9331401,1.4997998,9.689391,0.191515821409523329450,3.6822822,14.184448,-4.396353,1.4467806,9.699338,-0.0064884851409523329452,3.5511997,14.456788,-6.5487404,1.6519854,9.648655,-0.58716281409523329461,2.867655,14.185645,-6.8641763,1.7416621,9.56644,-1.27289441409523329489,2.7641058,11.599907,0.7422025,1.677669,9.497439,-1.7760691409523329490,2.415151,9.264363,8.389283,1.678637,9.550066,-1.4658741409523329492,4.6537294,11.3167925,14.507666,1.7543198,9.639976,-0.40450321409523329518,7.029975,14.472351,13.35366,2.0667667,9.522343,1.10627661409523329519,8.086416,15.14991,6.0645127,2.4277935,9.254297,2.15271931409523329521,8.839393,15.592837,-2.554613,2.6755745,9.123533,2.40267061409523329554,6.8109055,13.822325,-7.1544733,2.9701533,9.160571,1.85270121409523329554,4.755483,12.4630165,-6.8486137,3.1156342,9.232157,1.10926681409523329558,4.1934443,12.6778965,-6.4380083,3.1504238,9.27483,0.471962271409523329561,2.486977,13.099276,-7.1742253,3.1536975,9.285183,-0.09986791409523329593,1.0007763,13.019071,-2.6725276,3.0360374,9.301098,-0.66518121409523329595,1.3640964,12.212823,3.6661212,2.821541,9.360063,-0.77364751409523329596,2.3133974,11.814787,6.7642183,2.6717465,9.427128,-0.401815831409523329613,2.565387,10.999561,5.851429,2.6561692,9.435751,0.285932031409523329614,1.8052281,10.044873,2.819771,2.6811037,9.399878,0.79016751409523329628,0.42078096,9.105747,2.0087352,2.64215,9.392288,0.98710671409523329645,0.4441244,9.279925,2.2224178,2.5071418,9.4160595,1.10565391409523329646,2.5737667,10.174759,1.3413515,2.382432,9.432234,1.23586341409523329669,2.3690627,9.721058,-0.10115502,2.433112,9.417558,1.24898891409523329670,1.2192472,9.422979,-1.1821371,2.4656844,9.423843,1.13224351409523329673,0.9391256,9.993997,-2.0799627,2.3831198,9.463928,0.961873771409523329681,1.0199299,13.570933,-2.961029,2.2730575,9.512999,0.711670041409523329701,0.32621,19.112911,-2.9358897,2.1255155,9.564349,0.419274631409523329702,-0.5021838,19.608511,0.41599256,1.8692993,9.625238,0.175775681409523329715,-2.260725,19.608511,-3.5613751,1.5747485,9.676627,0.231208221409523329736,-3.5739446,19.117102,-8.267777,1.190233,9.733967,-0.05983971409523329737,-4.0863037,11.715427,-10.538078,0.7460557,9.755767,-0.662433271409523329741,-3.7954082,7.647679,-7.0808516,0.36999068,9.70623,-1.3500381409523329773,-0.44951138,7.784148,-2.267309,0.025958618,9.649799,-1.74673021409523329774,-0.054468088,8.403648,-5.433641,-0.018287936,9.646372,-1.76566151409523329808,-0.6362591,6.5666966,-5.9962783,-0.007842677,9.588091,-2.05883981409523329809,-0.7404069,5.434838,-3.5511997,-0.04289134,9.498538,-2.43850951409523329809,0.5506664,4.927267,-1.1671734,-0.08145444,9.4479685,-2.6267231409523329810,0.52971715,4.3281183,-1.3784616,-0.0217212,9.451831,-2.61397311409523329812,-0.41120413,4.3915644,-1.9488802,0.027985813,9.443553,-2.64365361409523329831,-0.44771573,4.4556093,-0.6171055,-0.007787074,9.421902,-2.71993731409523329846,-0.36032736,4.5447936,0.6362591,-0.04424911,9.435045,-2.67364381409523329846,-0.18136078,4.69084,0.8912416,-0.050934944,9.488688,-2.47641561409523329861,-0.14185645,4.665102,-0.427365,-0.048099723,9.547998,-2.2369221409523329861,-0.6500258,3.9217024,-2.0685902,-0.05773637,9.566562,-2.15592461409523329877,-1.1815386,3.1992521,-3.1711202,-0.13688718,9.530376,-2.30729081409523329881,-2.1458032,2.7263973,-3.4278982,-0.2802613,9.44235,-2.63323261409523329895,-3.0986955,2.6048915,-3.0585926,-0.56234497,9.319781,-2.99931031409523329910,-3.9252937,2.6749218,-2.4432828,-0.99012893,9.177742,-3.31045441409523329912,-4.39755,2.7084408,-2.3014264,-1.5555873,9.02575,-3.50519131409523329929,-4.6279917,2.532467,-1.9452889,-2.1814568,8.835889,-3.65222241409523329943,-4.3143516,2.6551697,-1.2958617,-2.824814,8.617159,-3.73301531409523329944,-3.911527,3.2034419,-1.1360487,-3.3848796,8.426969,-3.701241409523329961,-3.3740287,3.9803603,-0.9804256,-3.8168948,8.274938,-3.62314031409523329961,-2.6725276,5.257068,0.7870938,-4.095602,8.192952,-3.50313691409523329977,-2.0165164,7.7428484,6.522404,-4.1965423,8.321403,-3.0518341409523329981,-0.10654198,16.395493,16.868347,-4.124192,8.747128,-1.62764591409523329993,8.482059,19.608511,19.504364,-4.23786,8.647729,-1.85141071409523330009,19.285295,19.608511,11.258734,-4.3807807,8.5233965,-2.0810751409523330028,17.976265,19.608511,10.421362,-4.502816,8.431869,-2.1905781409523330029,10.214263,15.407287,7.5626845,-4.484059,8.408011,-2.3171061409523330046,7.043741,7.8146744,4.1892543,2.7860613,8.577509,3.85156871409523330047,4.1461587,4.3119574,6.6762314,3.3240547,8.462084,3.67616341409523330062,4.007295,5.482722,7.225701,3.54574,8.260934,3.91855451409523330063,2.707842,7.056311,2.2337902,3.5971608,8.074579,4.2464111409523330078,0.31543607,8.896853,-6.8929067,3.5449693,8.118851,4.2056941409523330081,-2.2894554,15.012842,-10.721235,3.353815,8.558452,3.41690091409523330093,-5.037999,19.488802,-6.758233,2.748569,9.173145,2.1140421409523330125,-4.560954,18.5401,1.0247183,1.8391207,9.554291,1.22619991409523330127,-1.5945383,14.322713,2.8113914,1.1406817,9.669451,1.17087341409523330128,-0.11911154,13.602657,-0.011971008,0.86334103,9.684638,1.27781511409523330159,-3.2142158,11.7681,-5.279215,0.74364686,9.714844,1.11319681409523330160,-2.9173348,10.770915,-2.6246436,0.3988852,9.784404,0.52607141409523330160,-2.7150247,9.521142,-1.690905,0.12529059,9.802334,0.26255371409523330161,-2.2104468,7.8062944,-2.2230163,-0.10569179,9.805044,0.142507691409523330179,-1.6795325,7.699753,-2.5731683,-0.2967623,9.802032,-0.049695581409523330195,-1.7196354,8.129512,-1.9560628,-0.43775672,9.792597,-0.2895211409523330196,-1.9405005,8.67958,-1.2348095,-0.57823914,9.779263,-0.449476661409523330211,-2.4779987,8.823232,-0.74639237,-0.72602004,9.765665,-0.52449441409523330213,-2.7856536,8.465299,-0.6913257,-0.9253979,9.747416,-0.54944421409523330227,-2.4851813,8.070255,-1.0151415,-1.1413656,9.723439,-0.567810541409523330245,-1.6681601,8.437765,-1.3144168,-1.3104072,9.698936,-0.61954581409523330246,-1.0654198,9.26197,-1.3497312,-1.3765961,9.684576,-0.69597971409523330276,-1.0139444,9.667188,-1.4191631,-1.3688614,9.680402,-0.76580631409523330277,-0.97503865,9.694122,-1.4359225,-1.3651762,9.675051,-0.83671991409523330277,-1.0522517,10.029909,-1.5179238,-1.352956,9.671234,-0.898404541409523330294,-1.5682021,11.3802395,-1.407192,-1.3594342,9.6641655,-0.96242371409523330294,-2.6850972,13.391369,-1.5035586,-1.3965688,9.655284,-0.997738841409523330309,-2.8981812,13.818135,-2.0165164,-1.5021243,9.636838,-1.02244811409523330328,-1.6274586,11.911752,-2.4582467,-1.5805458,9.618371,-1.07667371409523330328,1.1587936,9.078215,-2.3948002,-1.5209689,9.617822,-1.16384341409523330343,2.042254,8.7053175,-2.384625,-1.2309865,9.648052,-1.2530721409523330344,2.742558,8.684967,-2.0135236,-0.8931682,9.67425,-1.33473981409523330360,3.4446578,8.870518,-0.56084174,-0.5398512,9.691776,-1.39587411409523330361,4.1437645,9.01417,1.204882,-0.15115926,9.717067,-1.3138371409523330375,4.1036615,8.6017685,0.4177882,0.25983226,9.742379,-1.09037381409523330391,3.0885203,7.7069354,-0.78529817,0.62524045,9.736184,-0.99306121409523330393,3.020884,7.65965,-2.5959132,0.85437244,9.710791,-1.0681811409523330407,3.2794578,8.141483,-3.383007,1.0574272,9.659097,-1.32440891409523330424,3.2231941,8.808268,-4.0815153,1.2976182,9.588921,-1.59347141409523330424,3.1364043,9.726444,-3.376423,1.5251249,9.506514,-1.86295221409523330444,2.814384,9.850345,-0.81522566,1.6887197,9.446376,-2.0210421409523330445,2.468422,9.534908,0.7433996,1.7952012,9.451436,-1.90210161409523330466,2.421735,9.227852,1.3365631,1.8544031,9.488773,-1.64156691409523330467,2.4983494,9.196728,1.4149733,1.9165024,9.520382,-1.36371351409523330473,2.441487,9.100361,1.460463,1.9913446,9.536758,-1.12033951409523330496,2.207454,8.813056,1.4269443,2.0552573,9.54678,-0.897385661409523330498,1.9596541,8.65863,1.2683283,2.0882971,9.556372,-0.69655111409523330502,1.9015948,8.6095495,1.1145009,2.0937054,9.566114,-0.525589641409523330536,1.6142905,8.409634,1.3551182,2.093937,9.572473,-0.391884951409523330537,0.219668,8.186374,2.3906105,2.0754073,9.581371,-0.245732711409523330538,0.01616086,9.144054,1.5699978,1.9241023,9.61604,-0.0019349141409523330542,1.7477672,11.501146,-0.9983821,1.7481034,9.648981,0.108152771409523330566,3.3824084,13.61403,-3.1669302,1.7384505,9.650487,-0.127712191409523330567,3.834314,14.987104,-4.4526167,1.8484304,9.613623,-0.57614671409523330574,3.3291376,15.39771,-4.5005007,1.9190812,9.563537,-1.01305741409523330596,3.0657754,13.887567,1.1324574,1.9055805,9.526741,-1.33429051409523330597,3.0484173,12.394184,11.798626,1.915533,9.561034,-1.04296351409523330602,4.8362875,13.381792,16.434998,1.9978225,9.599041,0.19355041409523330634,7.141305,14.498089,11.592126,2.2202852,9.403545,1.67751421409523330635,8.602366,14.889541,3.8097734,2.5217564,9.156496,2.44329931409523330636,8.247426,14.425065,-3.8774097,2.784402,9.078977,2.44737981409523330642,6.6002154,12.404958,-8.206126,2.9856691,9.142536,1.91577761409523330666,5.2678423,11.679515,-8.674192,3.1593666,9.207881,1.18478471409523330667,4.223372,13.376405,-8.488044,3.2736118,9.235572,0.397573981409523330676,2.8820202,13.017275,-4.238934,3.2724445,9.239003,-0.319843081409523330714,2.3535004,10.926538,3.4614172,3.1712897,9.258098,-0.633175731409523330715,3.3010056,9.428367,7.825448,3.1005228,9.299617,-0.27254211409523330717,4.4538136,9.048885,6.0920463,3.1722617,9.268893,0.441316371409523330743,5.0080714,9.866506,2.1254525,3.3421264,9.171806,0.937314451409523330745,4.64535,10.279505,1.2641385,3.4971845,9.102516,1.04129521409523330746,4.656722,11.301829,1.2521675,3.5692544,9.068276,1.09415781409523330752,4.0839095,11.379641,0.85054016,3.6263568,9.045173,1.09762531409523330769,3.305794,9.891046,-0.13108255,3.6204746,9.048902,1.08623731409523330769,2.8341362,9.892242,-1.5089456,3.5967116,9.067662,1.00574591409523330774,2.7970262,12.756307,-2.7485435,3.540862,9.107505,0.828288561409523330802,2.3080103,18.301277,-4.337695,3.4182901,9.174013,0.56843821409523330802,1.3281834,19.608511,-3.4512417,3.1461117,9.285592,0.223965851409523330803,0.6398504,19.608511,-3.50571,2.8277996,9.390096,0.0041883921409523330828,-1.496376,19.608511,-7.9331875,2.498278,9.481295,-0.18452451409523330829,-3.8845923,16.943167,-12.046426,2.0559764,9.563677,-0.69240781409523330842,-5.159505,10.370484,-11.051037,1.4957626,9.583034,-1.44863561409523330843,-5.125387,8.424597,-5.617396,0.95506626,9.535251,-2.08261041409523330860,-3.8193502,8.329428,-2.6868927,0.50555533,9.51715,-2.31056171409523330876,-2.4480712,8.921394,-4.5483847,0.21224006,9.519221,-2.34728461409523330876,-1.6843209,8.715493,-5.919664,0.049892157,9.471929,-2.539781409523330892,-2.4307132,5.09127,-3.0280666,-0.06594255,9.395607,-2.80868031409523330893,-1.3826514,5.1247888,0.04309563,-0.24151158,9.346418,-2.95914481409523330908,-2.4654293,5.149329,1.697489,-0.36120436,9.378855,-2.84200741409523330938,-2.8736405,4.5124717,1.062427,-0.5863062,9.449251,-2.55700331409523330939,-1.9818004,3.940856,-0.9588778,-0.84352887,9.489441,-2.3257951409523330939,-0.4201824,3.9755719,-1.6184803,-0.9940179,9.476416,-2.31945231409523330959,0.27712885,4.0198646,-1.4251486,-0.9418407,9.457028,-2.41824751409523330960,-0.581791,3.8642416,-1.4443022,-0.81520945,9.451217,-2.48601941409523330963,-0.8846575,3.9845502,-1.9859903,-0.8269722,9.432181,-2.5535271409523330982,-1.2791022,4.0258503,-2.9029696,-0.89375913,9.394573,-2.66713741409523330982,-2.7431567,3.3943794,-3.1190462,-1.0130606,9.319219,-2.88032631409523330993,-4.0880995,2.7216089,-2.5157075,-1.3324054,9.19665,-3.1331641409523331021,-4.2999864,2.1374235,-1.1121067,-1.8532847,9.040278,-3.31799841409523331022,-4.1862617,2.0973208,-0.688333,-2.4341366,8.897622,-3.32831881409523331023,-4.174889,2.132635,-1.1001357,-3.0005064,8.746555,-3.26574951409523331054,-4.0587707,2.2613235,-1.3509283,-3.5328224,8.555086,-3.24038651409523331054,-3.918111,2.8119898,-1.377863,-4.006727,8.334083,-3.26490881409523331055,-3.2770636,3.6828809,-0.24540567,-4.3991976,8.132637,-3.26766941409523331062,-2.235586,4.9841294,2.4666264,-4.6447134,8.074431,-3.06604151409523331079,-1.1558008,7.4723034,8.513782,-4.6946115,8.270752,-2.39284041409523331082,1.0839748,15.960347,18.113333,-4.4444747,8.71757,-0.64883051409523331117,12.280459,19.608511,18.912397,-4.6064053,8.616364,-0.84244111409523331118,19.607914,19.608511,1.6035166,-4.76992,8.507264,-1.02209841409523331119,19.607914,19.608511,0.8343793,-4.8879704,8.4163,-1.20169161409523331122,14.596251,16.349405,4.5298295,-4.895027,8.384841,-1.37968711409523331151,5.456984,7.1706343,6.4457893,-4.807962,8.382751,-1.66834651409523331152,1.7112557,3.2435448,7.716512,3.8822782,8.565224,2.78123551409523331155,1.0690111,4.7500963,5.313332,3.9112365,8.398594,3.21500021409523331174,-0.7164649,7.3873096,1.5544355,3.7702858,8.334465,3.5344051409523331175,-2.8987796,12.0488205,-4.1958385,3.4374096,8.4772415,3.53425841409523331190,-7.3100963,18.67597,-7.81228,2.8296452,8.937164,2.87933641409523331194,-6.803124,18.401834,-2.6443958,1.7451991,9.484938,1.77782131409523331207,-3.9187095,12.8832,3.5924997,0.8501986,9.682558,1.302161409523331226,-0.66738373,10.579379,1.9213469,0.38864714,9.6820135,1.50929651409523331226,-0.9900024,10.782288,-5.17387,0.28877485,9.681212,1.53660461409523331241,-2.0410569,10.749367,-6.4284315,0.16755189,9.76451,0.89256641409523331242,-1.9548657,11.277288,-3.6337996,-0.041642364,9.804093,0.220019041409523331255,-1.7866731,10.684724,-1.7357962,-0.22297809,9.803798,-0.0790275261409523331272,-1.578976,9.64564,-0.52073884,-0.37157837,9.797719,-0.192448721409523331275,-1.5316905,9.284116,0.094570965,-0.5017386,9.791901,-0.193185151409523331293,-1.7220296,9.870695,0.19033903,-0.61675096,9.7856655,-0.17534711409523331295,-1.9057846,10.465055,0.091578215,-0.7296913,9.778069,-0.16526431409523331317,-1.714847,10.246585,-0.15801731,-0.8431238,9.768891,-0.168240651409523331318,-1.2192472,8.852561,-0.51355624,-0.9293309,9.760667,-0.18999591409523331322,-0.8984242,7.632715,-1.3784616,-0.97629714,9.755056,-0.236940621409523331349,-0.676362,7.455544,-2.4438813,-0.99826527,9.749097,-0.359141831409523331350,-0.5243302,7.724293,-2.8526914,-1.0039755,9.738156,-0.57508881409523331355,-0.6631939,8.048708,-2.870648,-0.988992,9.722682,-0.81348211409523331389,-0.40880993,8.794501,-2.7760768,-0.9906819,9.702256,-1.02721381409523331390,-0.24720132,10.329783,-2.5133133,-0.96542543,9.684982,-1.19979011409523331391,-0.7589619,12.263102,-2.4313118,-0.9165951,9.676435,-1.30263411409523331417,-1.1246762,12.747927,-2.168548,-0.90976167,9.669916,-1.35478951409523331418,-1.0576386,11.729793,-1.3652935,-0.92539036,9.666784,-1.36650031409523331419,-0.6123171,10.8229885,-1.5688007,-0.9288205,9.672415,-1.3236631409523331422,0.02932897,10.222643,-1.4047978,-0.87565655,9.679516,-1.3078931409523331454,0.43275195,9.457097,-1.448492,-0.7641093,9.688673,-1.31000591409523331456,2.3301568,9.281123,-2.131438,-0.6383713,9.689036,-1.37312951409523331456,2.3822308,9.293693,-2.1667526,-0.35006973,9.682999,-1.51241591409523331476,2.2828712,8.981249,-2.6324248,-0.081307724,9.670947,-1.62374441409523331476,2.5061307,8.540716,-2.6330233,0.14354587,9.644763,-1.76871041409523331490,2.8461072,8.224682,-2.9759927,0.36317384,9.614632,-1.89666711409523331508,2.9287071,8.301296,-2.3660698,0.6101212,9.566795,-2.0675041409523331508,2.4073699,7.961918,-0.9068039,0.85749155,9.531288,-2.14233831409523331523,1.941099,7.9810715,-0.3357868,1.0397722,9.531969,-2.05690381409523331524,1.9303252,8.580819,-0.10055647,1.1541829,9.548665,-1.91343711409523331539,2.2146366,9.504382,0.1316811,1.249137,9.5678005,-1.75135391409523331542,2.4768016,9.97185,0.6063316,1.3608912,9.583911,-1.57068651409523331558,2.5887306,9.813234,1.5765818,1.487494,9.598546,-1.35117551409523331572,2.4486697,9.470264,2.023699,1.6055671,9.616133,-1.05948771409523331576,2.2008698,9.2625675,2.0123265,1.7044272,9.627581,-0.758298931409523331587,1.8770541,9.267356,1.6681601,1.764159,9.633641,-0.50107861409523331608,0.4782418,9.157223,1.8363527,1.7810268,9.638347,-0.31724051409523331608,-0.825401,9.209895,2.0757728,1.6589386,9.664226,-0.145178441409523331625,0.32680854,10.5440645,0.79248077,1.4200943,9.703245,0.0279199821409523331626,2.2852654,12.406155,-1.30484,1.317823,9.717679,0.0214892181409523331640,3.2243912,13.329718,-3.2638955,1.4087238,9.702009,-0.238602281409523331642,2.9334955,13.447034,-3.7666779,1.5350384,9.665032,-0.63338271409523331663,3.0292637,13.514071,-2.28347,1.5887423,9.625441,-0.998585641409523331665,3.2908301,11.636418,4.0467997,1.612859,9.6069565,-1.12935691409523331676,4.409521,9.824008,14.40651,1.7135617,9.635218,-0.62978671409523331707,7.4830775,12.064383,16.137518,2.001153,9.564977,0.822806361409523331709,8.940548,14.452599,8.298303,2.4797447,9.221875,2.2312061409523331713,8.907627,15.4084835,-1.335366,2.8500085,8.993711,2.6760061409523331746,7.203554,15.094843,-6.5577183,3.0581322,9.021377,2.33087851409523331747,4.956596,12.956223,-7.5644803,3.196529,9.141416,1.54503771409523331748,3.436278,11.894993,-7.0545154,3.2172189,9.226071,0.836355571409523331749,2.6856956,12.228385,-5.097854,3.1921823,9.271063,0.166633751409523331756,2.4953568,12.885593,0.20111294,3.1147988,9.293987,-0.300332041409523331773,3.2267854,12.443265,6.9587474,3.0218868,9.326441,-0.236854551409523331774,4.0258503,11.971607,7.3507977,3.0223017,9.320503,0.405321661409523331789,3.8827965,11.941081,2.432509,3.100439,9.24871,1.00946661409523331807,2.9999347,10.472239,0.99778354,3.129135,9.224762,1.13255131409523331808,2.2068555,9.239823,1.4790181,3.1229022,9.223656,1.15847231409523331825,2.995745,9.77792,0.93373865,3.0665662,9.231332,1.2446291409523331826,3.5697548,10.755353,-0.7009025,3.074337,9.228865,1.24374771409523331841,2.3828292,10.136452,-1.8590976,3.1262724,9.2344265,1.05932431409523331843,1.929128,9.5570545,-1.9919758,3.0977983,9.268389,0.819147941409523331856,2.2517467,10.70687,-2.4331074,3.0302575,9.305909,0.622889041409523331873,2.5091233,15.652692,-3.2878375,2.9644692,9.338851,0.410015671409523331876,1.6897079,19.608511,-4.559757,2.8233025,9.390594,0.126944121409523331890,0.2825158,19.608511,-4.1934443,2.5701191,9.461989,-0.188746511409523331906,-1.3784616,19.608511,-6.7229185,2.2556932,9.534847,-0.41100541409523331906,-3.5895069,18.554464,-9.339182,1.8761104,9.592788,-0.79311341409523331924,-5.849633,10.714052,-9.764751,1.3680851,9.616283,-1.35123871409523331925,-6.55293,6.4002995,-4.0043025,0.75798947,9.584256,-1.93336451409523331939,-4.1060557,6.9611416,1.1833342,0.17425197,9.578751,-2.0946481409523331953,-2.5629928,8.418014,-2.0506337,-0.16514131,9.624929,-1.87186291409523331954,-1.9189527,8.891466,-4.7740383,-0.30456427,9.614077,-1.90975091409523331977,-2.03148,7.152079,-4.4903255,-0.39648056,9.552882,-2.18073731409523331978,-2.56419,4.811148,-2.5438392,-0.5164153,9.485846,-2.43360731409523331983,-1.353921,4.3664255,0.053869538,-0.7273466,9.4430895,-2.54351161409523332010,-1.596334,3.8750155,1.3293805,-0.8356911,9.46599,-2.42219541409523332011,-1.5825673,3.8456864,-0.38187516,-0.9551436,9.511853,-2.18694541409523332014,0.08439561,5.2486887,-0.87807345,-1.0617431,9.512318,-2.135161409523332023,-0.24540567,4.709395,-0.5770026,-0.9506204,9.525469,-2.12888721409523332046,-0.6560113,4.1144357,-0.90500826,-0.9036222,9.535781,-2.10303141409523332046,-1.1552023,3.5781345,-1.4957775,-0.9245348,9.529854,-2.12073611409523332056,-1.3461399,3.1370027,-2.2146366,-1.0395396,9.497837,-2.20926261409523332076,-1.8243817,2.794632,-2.9388826,-1.1779386,9.434219,-2.40381931409523332077,-2.6970682,2.5115175,-3.8594532,-1.3765235,9.323355,-2.71120451409523332083,-3.8959646,2.3199813,-3.828927,-1.6944486,9.132219,-3.14671371409523332111,-4.231153,2.2104468,-1.9656396,-2.1796925,8.878654,-3.54807951409523332112,-3.8654387,2.1559787,-0.9648633,-2.7322302,8.673593,-3.67070821409523332116,-3.4745853,1.9626468,-0.7625532,-3.2459302,8.513463,-3.62702471409523332123,-2.9191303,2.1888988,-0.65062433,-3.7120812,8.3546095,-3.54842881409523332144,-2.2343888,3.3063924,-0.49559975,-4.066301,8.22805,-3.45467641409523332145,-1.1540052,5.09546,1.5640123,-4.2177696,8.209192,-3.3151141409523332154,-0.13946225,8.409634,7.439383,-4.1080484,8.46297,-2.76991961409523332171,1.1240777,16.073473,16.712725,-3.6759214,9.025995,-1.09059671409523332191,11.984177,19.608511,19.132664,-3.7985036,8.951028,-1.27312831409523332191,19.607914,19.608511,-0.05746084,-3.9496176,8.8576,-1.45390581409523332211,18.001404,19.608511,2.1733365,-4.0820074,8.778648,-1.56299961409523332211,9.057863,16.419436,8.523358,-4.119357,8.727944,-1.73904551409523332214,4.422689,8.930372,6.9916677,3.1937633,8.838026,2.80349331409523332223,3.5452142,6.1626754,5.519832,3.3600273,8.710615,3.00096061409523332243,2.6527755,7.0066314,6.455965,3.5411863,8.5977125,3.11604261409523332244,0.90500826,8.948329,7.0245876,3.4950871,8.501755,3.41686081409523332255,-0.65780693,8.987235,5.507262,3.2296321,8.460628,3.7626681409523332280,-1.453879,8.933964,-0.5907693,2.8429782,8.49232,3.99604491409523332281,-3.4039562,12.978968,-9.31524,2.4708295,8.736733,3.70606181409523332283,-3.8474822,17.73086,-10.4728365,1.9258442,9.277316,2.5284181409523332313,-2.818574,17.69734,-4.794389,1.319761,9.639568,1.22773561409523332314,-0.8750807,14.417284,-2.0727801,0.8876016,9.743824,0.663664461409523332315,-1.3263878,13.050195,-2.597709,0.69953036,9.771042,0.455835941409523332323,-1.5610195,14.296975,-1.9177556,0.50119084,9.791707,0.204160571409523332347,-1.6059108,12.794614,0.47165772,0.288845,9.802358,0.0275659431409523332348,-1.4682442,10.414778,1.5514427,0.11660057,9.805759,0.062372251409523332363,-1.7741034,8.407239,0.30645782,-0.021205138,9.804832,0.187579561409523332383,-1.6765398,8.055291,-0.6410475,-0.17791545,9.8033285,0.183033511409523332383,-1.8058267,9.141661,-0.6356605,-0.31269225,9.801332,0.080528121409523332384,-2.0817583,10.677541,-0.6027403,-0.4476241,9.796431,-0.0024180211409523332415,-1.827973,11.128249,-0.32621,-0.59498113,9.788396,-0.0606073031409523332416,-1.3509283,9.753379,-0.15682021,-0.7102026,9.780489,-0.0896127451409523332418,-1.0283096,8.095993,-0.44352585,-0.7870095,9.774499,-0.100930591409523332423,-0.5805939,7.5985975,-0.9379285,-0.8445249,9.769309,-0.133288961409523332451,-0.40880993,7.955932,-1.6962919,-0.85804415,9.766872,-0.205798611409523332452,-0.61411273,8.176199,-2.416348,-0.84792835,9.763841,-0.344725971409523332455,-0.51595044,8.407239,-2.6138697,-0.85886884,9.753743,-0.545206551409523332471,-0.10055647,8.876503,-2.4241292,-0.8619322,9.740001,-0.74822011409523332492,0.05865794,9.869498,-2.3630772,-0.81067663,9.730279,-0.9137181409523332493,-1.009156,11.323976,-2.1769278,-0.75001657,9.722748,-1.03732061409523332495,-1.7615339,11.66515,-1.7184383,-0.7960086,9.710594,-1.11404611409523332503,-1.632247,10.445902,-1.9069817,-0.8995246,9.699397,-1.13268461409523332524,-0.5895722,9.083003,-2.0500352,-0.95103306,9.689321,-1.1760091409523332525,0.6961141,8.455722,-1.9710265,-0.8752199,9.687738,-1.2458461409523332537,1.893215,8.5886,-1.6394296,-0.6788836,9.692569,-1.32801711409523332564,2.8419175,9.109339,-0.9223662,-0.3965892,9.701734,-1.37458441409523332565,3.3051953,9.391854,-0.25318682,-0.07073811,9.710702,-1.36662591409523332566,3.0591912,8.952518,-1.3976152,0.26767552,9.715859,-1.30416251409523332598,1.70946,7.653664,-2.280477,0.5261479,9.695495,-1.3751241409523332601,1.3742718,7.5710645,-2.8622682,0.6281721,9.663854,-1.54459321409523332601,1.1833342,8.234857,-3.0508115,0.7028914,9.624664,-1.74418011409523332603,2.1691468,9.680356,-2.0721815,0.7631864,9.586778,-1.91876481409523332622,2.4809916,9.928755,-0.4381389,0.9159467,9.569457,-1.93828391409523332623,2.5384524,9.673772,0.32022446,1.0761551,9.582387,-1.78610461409523332638,2.759916,9.603143,0.6362591,1.2285844,9.600655,-1.57747851409523332653,2.9508536,9.536704,0.88944596,1.3870404,9.610597,-1.37220671409523332657,3.0148985,9.645041,1.1312603,1.5553002,9.611365,-1.17179721409523332671,2.846706,9.846753,1.1641805,1.7075688,9.608163,-0.968423841409523332684,2.4462755,9.990405,0.9516952,1.8111279,9.606197,-0.781772551409523332685,2.1619642,10.290877,0.6314707,1.8516456,9.609115,-0.637742941409523332703,2.1978772,10.76493,0.45190558,1.8553485,9.614451,-0.538902761409523332704,2.3971944,11.1970825,0.29927522,1.8616925,9.617235,-0.461816881409523332722,2.4953568,11.388618,0.18614918,1.8864396,9.6147175,-0.411049961409523332723,2.0961237,11.096526,0.60932434,1.9187417,9.609588,-0.380281631409523332735,-0.94570965,9.277532,3.572149,1.9137353,9.612901,-0.316491131409523332753,-1.721431,8.998607,3.513491,1.6559248,9.665808,0.0216445531409523332755,1.5981296,11.564592,-0.29508537,1.3510447,9.708108,0.312558031409523332770,4.611831,14.261063,-4.2718544,1.3812699,9.708177,0.1174813061409523332787,6.196194,14.952388,-4.895544,1.6289699,9.660674,-0.433829521409523332787,5.5192337,13.03583,6.6109896,1.9401457,9.564771,-0.959892631409523332803,6.940192,12.801797,17.49503,2.1762445,9.557193,-0.30728331409523332804,10.314819,14.478935,16.472107,2.125426,9.55704,-0.56205241409523332819,10.269928,14.72853,4.2239704,2.0734622,9.572256,-0.493029031409523332823,7.387908,13.78701,-7.4854717,3.351677,8.806859,2.71586061409523332838,6.599617,13.091495,-10.627263,3.428751,8.988367,1.90350081409523332855,5.7903767,13.7923975,-10.336368,3.5352192,9.101451,0.914438071409523332856,3.9731777,13.530232,-1.4969746,3.599376,9.122148,0.0360524361409523332870,2.1733365,11.80521,9.196728,3.530627,9.1486225,-0.088196611409523332888,1.690905,11.298238,9.201516,3.4138656,9.170659,0.6441491409523332889,2.1110873,11.996147,3.2609026,3.325023,9.122263,1.37802261409523332902,1.5077485,10.623073,2.8191724,3.2415278,9.123883,1.55486811409523332904,2.100912,10.718243,1.4389153,3.1037061,9.150308,1.6760891409523332919,4.201824,11.352706,-2.5145104,3.002384,9.183011,1.68178511409523332937,3.269881,9.505579,-4.8057613,3.0709794,9.213866,1.35800341409523332938,2.2319946,8.855554,-5.0242324,3.1348047,9.252956,0.852162961409523332953,1.5508442,9.74859,-4.7734394,3.1144292,9.289955,0.40922451409523332971,1.714847,12.598887,-4.4406457,3.014039,9.331896,0.0407630951409523332972,1.6992847,17.775152,-4.470573,2.8735785,9.371929,-0.28256871409523332987,0.46866497,19.608511,-4.8877625,2.639877,9.427877,-0.562661951409523332987,-2.2786815,19.608511,-3.3746274,2.3175178,9.494983,-0.803010341409523333004,-4.234744,19.608511,-6.6504936,1.8475244,9.589968,-0.88858071409523333005,-5.3163247,15.59583,-8.435969,1.333094,9.639987,-1.20992471409523333022,-5.9956794,9.4295635,-7.979874,0.79787356,9.628195,-1.68275541409523333038,-6.178836,7.301717,-4.7979803,0.24691944,9.568308,-2.13468961409523333039,-5.3594203,6.463746,-1.893215,-0.26809564,9.521779,-2.33115361409523333059,-3.8313212,7.0347633,-3.4207156,-0.66686386,9.503879,-2.32421761409523333061,-2.047641,8.10557,-4.9972973,-0.9053112,9.453101,-2.44737551409523333064,-1.8154035,7.593809,-3.651756,-0.9688949,9.38221,-2.684361409523333112,-2.0566192,5.7023897,0.006584055,-1.0341477,9.342048,-2.7976891409523333114,-0.95468795,5.3821654,2.0308816,-1.1718122,9.368726,-2.65032361409523333116,-0.86610246,4.9895163,1.3628993,-1.2159224,9.445547,-2.33956811409523333118,-0.40462008,4.3766007,-0.6314707,-1.2428058,9.499375,-2.09467581409523333120,0.42556936,3.8217444,-1.7651252,-1.2071611,9.5082855,-2.07500581409523333147,1.3078327,4.155137,-2.3600843,-1.0678494,9.494161,-2.21156171409523333148,0.97623575,4.495114,-1.0109516,-0.8200371,9.471058,-2.40769341409523333149,0.08259996,4.189853,-1.6843209,-0.63670284,9.483778,-2.41307851409523333156,-0.9768343,3.5924997,-1.7118542,-0.5870174,9.467515,-2.4883611409523333176,-2.0913353,3.039439,-2.1230583,-0.68862486,9.43602,-2.58025551409523333177,-3.1789012,2.7263973,-2.4438813,-0.9526631,9.366307,-2.7450141409523333185,-3.9983168,2.4881742,-2.429516,-1.3781606,9.245804,-2.96415281409523333224,-4.1742907,1.9967642,-1.9231426,-1.9319618,9.074935,-3.17544561409523333225,-3.8414967,1.7950528,-1.3611037,-2.5174358,8.877912,-3.3189761409523333226,-3.4985273,2.3223755,-1.3652935,-3.0538065,8.6845875,-3.37972951409523333227,-3.3435028,2.6994624,-1.0947487,-3.4962234,8.503718,-3.41080241409523333236,-3.3824084,3.5356374,-0.11611878,-3.8666527,8.3594265,-3.36740061409523333275,-2.9592333,5.0559554,2.1332338,-4.19659,8.288299,-3.1405661409523333277,-2.0452468,7.9744873,9.496002,-4.3829594,8.413381,-2.48497921409523333279,1.5933412,16.63192,18.96926,-4.2593346,8.818759,-0.507908641409523333280,16.806099,19.608511,17.065271,-4.3960476,8.737936,-0.70257541409523333285,19.607914,19.608511,6.3500214,-4.551956,8.640625,-0.88863461409523333313,16.45894,19.608511,11.07438,-4.6804047,8.5589285,-1.00445891409523333314,9.589975,15.368979,6.0848637,-4.7533226,8.490842,-1.21733251409523333318,6.655881,7.2406645,4.466982,3.0788686,8.509724,3.77830171409523333345,2.9119477,4.4322658,6.232107,3.605356,8.35766,3.64983941409523333346,1.2060791,5.9747305,5.127183,3.7939062,8.188739,3.83682561409523333346,-1.1270704,8.107366,-0.14963761,3.6162212,8.154211,4.0745771409523333369,-3.353678,15.0104475,-6.0501475,3.245352,8.397073,3.8893791409523333369,-5.6904187,19.608511,-7.1646485,2.5722141,8.974288,3.00270921409523333388,-3.4847605,19.608511,-0.8415619,1.6687981,9.463151,1.95812881409523333389,1.3760674,17.507002,6.157288,1.1062872,9.61492,1.58108641409523333396,2.3612814,11.081563,-9.152434,1.0209812,9.575168,1.85585321409523333405,-2.0931308,9.099164,-9.905411,1.1124364,9.694747,0.971989631409523333425,-3.2345665,8.27077,-5.4964886,0.8469696,9.7696905,0.078552331409523333426,-3.402759,6.703166,-0.4758476,0.5133445,9.787292,-0.340275381409523333439,-2.882619,5.5497594,1.009156,0.18024069,9.80031,-0.303011661409523333463,-2.5115175,5.0601454,-0.9451111,-0.10302871,9.804117,-0.197747411409523333465,-2.6372132,5.7137623,-1.661576,-0.35136905,9.795656,-0.303355781409523333466,-2.7754784,7.311892,-0.7882909,-0.60883236,9.774126,-0.51590451409523333492,-2.9269116,9.0315275,0.20709845,-0.861571,9.751282,-0.58359121409523333492,-2.9059622,9.910798,0.40701428,-1.1007395,9.731551,-0.505679671409523333498,-2.2290018,9.702502,-0.4902128,-1.3068444,9.710226,-0.417212871409523333505,-1.2629414,9.464878,-1.8183962,-1.4226924,9.692574,-0.447622721409523333521,-0.7858967,9.5492735,-2.7982233,-1.4264389,9.682455,-0.62106541409523333537,-0.7433996,9.671976,-3.3435028,-1.3801677,9.669989,-0.86998721409523333538,-0.8439561,9.467871,-3.484162,-1.3256959,9.649989,-1.13606041409523333552,-0.7858967,9.354745,-3.2435448,-1.3065774,9.621652,-1.37370421409523333569,-0.5805939,9.610924,-2.9041667,-1.2819233,9.597101,-1.55650131409523333569,-0.5734113,10.548254,-2.9131448,-1.2359573,9.5832615,-1.67448651409523333585,-1.2240356,12.46182,-2.6713305,-1.1828824,9.574364,-1.76145271409523333586,-1.8004397,13.572729,-2.2290018,-1.1829484,9.570707,-1.78117311409523333602,-1.3676877,12.084733,-1.5292963,-1.2163754,9.574754,-1.73634361409523333607,-0.29927522,10.13286,-0.20171149,-1.1921594,9.590349,-1.6656451409523333636,0.52492875,9.613917,0.11492168,-1.09433,9.628432,-1.50536271409523333641,1.3030443,9.774927,-1.4059949,-0.9119671,9.671868,-1.3392721409523333642,1.7483658,9.358934,-1.7034745,-0.6740439,9.690281,-1.34704711409523333667,2.0494366,9.275736,-2.179322,-0.42916286,9.693319,-1.42329931409523333668,2.0099323,9.351153,-1.8183962,-0.19390228,9.678362,-1.56910541409523333669,1.7723078,8.574235,-1.7172412,-0.004328385,9.664459,-1.66391421409523333694,2.566584,8.546103,-2.4558525,0.14222206,9.647648,-1.75301861409523333695,3.1052797,8.690952,-1.5310919,0.3662211,9.617725,-1.88033011409523333696,2.654571,7.3627687,0.31244332,0.65179247,9.59941,-1.89655211409523333706,2.7048495,7.6249337,0.02932897,0.8815359,9.615432,-1.71368931409523333734,3.016694,8.4347725,-0.3633201,1.09694,9.6193285,-1.56065271409523333735,3.2160115,9.3421755,-0.28072014,1.324871,9.607064,-1.45584021409523333753,3.277662,9.770139,0.6787562,1.5445495,9.591293,-1.33859651409523333757,2.9592333,9.655815,1.1127052,1.7367022,9.584915,-1.13300121409523333791,2.373851,9.248801,0.96665895,1.8659033,9.583779,-0.91650371409523333793,1.8417397,8.945336,0.2837129,1.9226354,9.587062,-0.7497481409523333794,1.596334,9.153631,-0.45789108,1.920359,9.592623,-0.68133291409523333795,1.091756,9.746795,-0.2088941,1.8908731,9.596856,-0.70379261409523333798,0.61770403,10.327988,0.36391866,1.8120868,9.61286,-0.692591671409523333825,1.2958617,11.3167925,0.10594343,1.6918966,9.639723,-0.6193611409523333826,2.5971103,12.332533,-0.6967127,1.6407986,9.6505375,-0.587610541409523333827,3.6978445,12.683284,-0.41958386,1.7055128,9.634257,-0.665375771409523333836,3.654749,12.488156,0.27473465,1.8435739,9.605969,-0.70495021409523333856,2.7748797,11.750143,1.2599486,1.9587092,9.585552,-0.67162151409523333858,2.2092497,11.737574,2.0919337,1.9822856,9.589635,-0.52900931409523333865,2.146402,11.850699,4.89315,1.9598993,9.60438,-0.29170771409523333891,2.971803,12.4869585,7.9972324,1.9522067,9.608253,0.20182811409523333892,4.8997335,13.590686,7.8757267,2.0074263,9.553167,0.93679921409523333896,6.302736,14.0234375,4.6166196,2.170371,9.433121,1.57355891409523333927,6.939594,13.971364,0.8631097,2.3724809,9.335806,1.83968071409523333928,6.5906386,13.39496,-2.8042088,2.5748584,9.298036,1.75699591409523333929,5.7059813,12.892178,-6.439804,2.7657216,9.31056,1.3544931409523333939,5.3127337,12.758701,-6.67683,2.8998535,9.339454,0.732013171409523333969,4.7979803,13.359646,-5.276222,3.013123,9.331233,0.1399171409523333973,3.4488475,13.433866,-4.1533413,3.0622933,9.311518,-0.297321171409523333974,2.693477,12.738949,-1.5628152,3.0041943,9.316067,-0.596758541409523333998,3.043629,11.807006,3.5769374,2.9244065,9.337708,-0.652265671409523334001,2.7449522,10.893618,6.857592,2.901708,9.361915,-0.324100731409523334001,1.039682,9.721058,6.463746,2.9229012,9.356205,0.29743881409523334025,0.24779987,9.486425,3.7989995,2.849398,9.34377,0.863310341409523334025,1.1725603,10.381857,2.6180596,2.6979458,9.3533945,1.18552351409523334026,2.8269536,11.176133,1.4933833,2.590248,9.362088,1.34621451409523334050,1.9069817,10.313622,-0.99778354,2.6061435,9.356325,1.35558131409523334051,1.0827777,9.69951,-2.6408045,2.5676012,9.393673,1.15616771409523334071,0.54647654,10.0664215,-2.9388826,2.4651608,9.453766,0.848337951409523334071,0.3477578,13.56016,-2.7234044,2.3204505,9.511736,0.5592451409523334076,-0.08678981,19.121891,-3.3871968,2.11984,9.570651,0.281586261409523334085,-1.4502877,19.608511,-4.4663835,1.838604,9.632752,0.0035348961409523334100,-2.690484,19.608511,-6.7881603,1.5028079,9.686287,-0.296310071409523334120,-4.032434,19.604322,-8.522161,1.1366794,9.715263,-0.701407431409523334122,-4.3502645,14.237121,-10.015544,0.7124983,9.710628,-1.16897511409523334125,-4.608838,9.0554695,-4.993706,0.29405922,9.652103,-1.70903711409523334138,-3.004723,8.546701,-0.018555064,-0.12097368,9.616268,-1.91915151409523334156,-1.6154876,8.892065,0.0664391,-0.36780632,9.6406,-1.75896851409523334159,-1.0588357,8.64666,-3.3051953,-0.45212755,9.659767,-1.62936471409523334166,-0.58298814,8.348581,-7.3603745,-0.48562926,9.629163,-1.79270861409523334195,-1.4269443,6.1357403,-7.597999,-0.46767625,9.52937,-2.26776551409523334196,-1.9387048,4.2179847,-4.507085,-0.53248197,9.395005,-2.76056961409523334201,-0.9504981,3.8624458,-0.52373165,-0.693707,9.304669,-3.0186581409523334222,-0.75596917,3.6302083,2.1529858,-0.78717697,9.321451,-2.94301271409523334222,0.17657238,3.8385038,2.083554,-0.8470314,9.408997,-2.63129781409523334225,0.8367735,4.1796775,-0.96665895,-0.7765238,9.493209,-2.3337431409523334255,0.62847793,4.2239704,-2.8652608,-0.613156,9.494335,-2.37740021409523334256,-0.29448682,2.980781,-0.93254155,-0.4604157,9.436222,-2.62985251409523334257,-0.5374983,2.8341362,-1.282095,-0.4558517,9.42964,-2.65415481409523334265,-1.2473791,2.5210943,-2.1817162,-0.5178314,9.413747,-2.69881581409523334292,-2.544438,1.8219875,-2.396596,-0.6875325,9.349746,-2.8774931409523334293,-3.775656,1.70946,-2.3169887,-1.0504085,9.233429,-3.13222031409523334297,-4.506486,2.070386,-2.1386206,-1.6016815,9.067418,-3.37445071409523334323,-4.9081135,2.5067291,-1.8561049,-2.2689333,8.854292,-3.55301141409523334324,-4.655525,2.9562407,-1.0881647,-2.9600132,8.617248,-3.62653781409523334325,-4.225766,3.781043,0.3345897,-3.558472,8.424446,-3.5406741409523334354,-3.6475663,5.0200424,3.0921116,-4.03074,8.347875,-3.19945881409523334355,-2.2278047,6.6510925,6.3751607,-4.3521357,8.459715,-2.3796071409523334357,0.108337626,8.817246,9.764751,-4.332269,8.737943,-1.02479611409523334365,4.051588,16.084846,13.496714,-3.7422647,9.033697,0.74708771409523334388,12.190677,19.608511,11.33894,-2.322286,9.206349,2.45367381409523334388,18.810045,19.608511,8.204929,-2.4833267,9.221079,2.23051021409523334399,16.941969,19.608511,7.277775,-2.6204364,9.231955,2.01858831409523334429,13.215395,14.115016,3.719991,-2.652323,9.257999,1.85068071409523334431,10.603919,7.5004354,5.0918684,3.6174593,8.616558,2.97309761409523334432,7.829638,6.2285156,8.511986,4.206121,8.354223,2.94718481409523334463,6.001665,8.464102,8.279748,4.4588118,8.067003,3.3485581409523334464,3.8642416,10.118495,3.0364463,4.4636145,7.9044847,3.710211409523334465,1.2336124,11.369465,-4.183269,4.3461823,7.9919167,3.66201781409523334466,-1.1348516,15.449185,-9.746795,4.0686483,8.365431,3.10419941409523334491,-2.859874,17.617733,-8.84478,3.5358474,8.915932,2.04312281409523334495,-2.634819,15.572487,-3.9019501,2.8406456,9.321736,1.09834811409523334497,-1.9710265,12.457031,-2.9789855,2.2644923,9.516991,0.68512961409523334520,-2.4821887,11.273697,-4.883573,1.8632511,9.6195135,0.404545281409523334521,-3.520075,10.967239,-3.8923733,1.482177,9.693946,-0.0308106621409523334525,-2.8275523,11.106103,2.1787236,1.0520747,9.743266,-0.363724171409523334552,-2.8311436,9.922769,5.866991,0.7216259,9.779055,-0.140554171409523334553,-4.5441947,7.479486,1.3210008,0.43068215,9.789362,0.391562671409523334572,-2.819771,6.7971387,-2.5240872,0.005889496,9.796663,0.442429961409523334572,-1.359308,7.023989,-3.1124623,-0.2481601,9.803111,0.088424771409523334579,-1.6705543,7.5351515,-2.6072857,-0.33814162,9.797329,-0.261576471409523334586,-2.9125464,8.214506,-1.8291701,-0.4800554,9.782827,-0.486009541409523334606,-3.66672,8.536526,-0.7930793,-0.75011015,9.7585945,-0.61447361409523334607,-3.2704794,7.9822683,0.073023155,-1.0958974,9.725613,-0.617943471409523334617,-2.3900118,7.5830355,0.41000703,-1.3666724,9.696459,-0.53037911409523334640,-1.3323733,8.154651,0.31902736,-1.5122631,9.680177,-0.421490461409523334641,-0.45789108,9.218874,-0.21308395,-1.5241945,9.681353,-0.344456941409523334646,-0.18315643,9.97604,-0.7410054,-1.4371351,9.694953,-0.336061121409523334674,-0.10295067,10.518925,-1.3186066,-1.331725,9.708399,-0.37935471409523334675,0.43394905,11.12406,-1.9458874,-1.2324698,9.717261,-0.475660121409523334677,0.27353755,12.121244,-2.6449943,-1.0705434,9.728984,-0.609262051409523334706,-1.0271125,13.835493,-2.8892028,-0.95273054,9.728813,-0.78285861409523334707,-1.9093759,14.496293,-2.0392613,-0.9657415,9.713231,-0.94386631409523334708,-1.2797008,12.514492,-1.0456676,-1.0465072,9.700572,-0.98697361409523334717,-0.04129998,9.75697,-0.56802434,-1.0356282,9.706346,-0.94058271409523334736,0.89064306,8.1720085,-0.10295067,-0.8993619,9.725604,-0.87985571409523334737,1.8608932,8.283937,-0.13826515,-0.69634676,9.748862,-0.803223551409523334746,2.8275523,9.038112,0.2184709,-0.44624054,9.768741,-0.736880661409523334775,3.6607344,10.018537,-1.6226702,-0.11280455,9.785669,-0.631160441409523334776,3.4913447,9.874885,-1.7926586,0.26787528,9.777618,-0.70481911409523334777,2.4821887,7.828441,-0.30047232,0.57895494,9.754827,-0.82376011409523334807,2.77069,7.3747396,-1.0324994,0.7546876,9.736433,-0.895946861409523334809,2.9071593,7.342418,-4.876989,0.9543442,9.699477,-1.08618451409523334810,2.9891608,8.025364,-3.9402575,1.1622499,9.604967,-1.60130081409523334848,2.8688521,8.377911,-1.8507179,1.3510396,9.5263195,-1.89587311409523334849,2.368464,8.702325,-0.8038532,1.5148133,9.496173,-1.92312611409523334850,2.0973208,9.003994,-0.11432313,1.6134578,9.504125,-1.79965191409523334851,1.9524715,9.427768,0.31783026,1.6736078,9.527061,-1.61386661409523334871,1.7711107,9.675568,0.6159084,1.7088594,9.552789,-1.41224991409523334872,1.501763,9.713276,0.9475053,1.7173429,9.578995,-1.20994851409523334879,1.4454993,10.070012,1.0785879,1.692083,9.60714,-1.00503851409523334903,1.525705,10.852318,0.94570965,1.6528631,9.631744,-0.81726961409523334904,1.7124528,11.7627125,0.98102415,1.6158687,9.650355,-0.65573831409523334906,2.0512323,12.503718,0.98940384,1.5914477,9.662904,-0.515758751409523334919,2.3864205,12.580932,0.9504981,1.5988258,9.667365,-0.395206661409523334936,2.480393,11.965622,1.09834,1.6386119,9.664128,-0.29995561409523334939,1.7950528,10.475231,2.8209682,1.6891096,9.657817,-0.20950261409523334946,1.1474211,9.260772,3.2872388,1.6883357,9.660194,0.0238876571409523334972,2.3307555,10.396821,0.427365,1.640518,9.664593,0.273371851409523334973,4.6399627,13.093889,-2.545635,1.6893224,9.658387,0.179251241409523334977,6.6750345,14.519037,-3.6236243,1.8944197,9.619972,-0.19408291409523335012,6.9587474,13.404537,7.6524673,2.204542,9.534709,-0.632224141409523335013,8.874707,13.025056,17.727268,2.5389233,9.472261,0.0229018611409523335015,10.751761,15.682021,13.878589,2.5259285,9.471013,-0.299956471409523335018,8.741829,16.33923,0.9600749,2.5229735,9.471494,-0.30950011409523335039,5.8346696,14.493898,-7.8876977,3.5412261,8.8097725,2.45316771409523335040,5.039196,13.523648,-8.418612,3.4702098,9.014574,1.69277921409523335046,3.8744168,13.696031,-7.318476,3.4647489,9.12495,0.949311409523335088,1.6873137,13.922881,-1.3329718,3.4032958,9.193263,0.268122521409523335089,0.10175357,12.380417,6.693589,3.2060452,9.266918,0.12608051409523335092,0.362123,12.469601,6.3446345,2.9668353,9.32364,0.661835131409523335093,0.5823896,12.180501,3.156755,2.7909892,9.324934,1.19430071409523335099,0.40880993,11.046248,0.99299514,2.6433513,9.338438,1.40594291409523335121,1.3305776,9.889849,-0.320823,2.4769244,9.386017,1.39208771409523335122,2.2870612,9.894637,-1.608305,2.401689,9.422999,1.26859521409523335127,1.3144168,8.774749,-2.8078,2.4130945,9.446297,1.05585581409523335162,0.74639237,8.187572,-3.0897174,2.3891747,9.480961,0.757365051409523335164,0.6183026,9.139865,-2.9334955,2.3237581,9.516012,0.46481971409523335166,1.0408791,12.437878,-3.1292217,2.2227194,9.549227,0.205391061409523335170,1.3557167,17.961302,-4.1383777,2.1119194,9.576419,-0.0486949121409523335206,1.4036007,19.608511,-3.3033998,1.9581083,9.60325,-0.3373211409523335211,-0.04189853,19.608511,-1.7274165,1.802501,9.62704,-0.491433861409523335213,-2.9712043,19.608511,-6.7851677,1.5350147,9.671872,-0.518654171409523335214,-5.0158525,14.344859,-8.750807,1.1174247,9.698872,-0.92392531409523335252,-5.5778913,8.651448,-7.7823524,0.5833584,9.677045,-1.47815011409523335253,-4.95899,6.7091517,-3.2728736,0.078316286,9.615637,-1.92452431409523335254,-3.0723593,6.497265,0.25498247,-0.30406567,9.59143,-2.0204911409523335255,-1.7136499,7.6680293,-3.5913026,-0.49558222,9.612809,-1.87581791409523335258,-0.88046765,7.754221,-7.033566,-0.56080216,9.5712385,-2.0608911409523335266,0.21308395,6.0064535,-3.751714,-0.5558776,9.462894,-2.51297141409523335286,-1.049259,4.6776714,-2.3624785,-0.47568348,9.418267,-2.69078761409523335287,-1.596334,4.296395,-0.4758476,-0.5519972,9.394384,-2.75884771409523335300,-1.0055647,4.4155064,0.3357868,-0.69377214,9.410432,-2.67073251409523335318,-0.736217,4.1419687,0.25198972,-0.75553167,9.449058,-2.51294351409523335320,-0.5979519,4.3197384,-0.58119243,-0.7835897,9.480049,-2.38433841409523335326,-0.94451255,4.132392,-1.0480618,-0.7951136,9.488733,-2.34566161409523335363,-1.596334,3.41473,-1.2114661,-0.85833174,9.479136,-2.36212331409523335365,-1.893215,2.907758,-1.168969,-1.0257642,9.449921,-2.41188431409523335370,-1.7824832,2.9346926,-1.887828,-1.2374569,9.410948,-2.46438151409523335371,-2.0949266,2.7629087,-3.1944637,-1.4367181,9.341777,-2.6148521409523335403,-3.371036,2.669535,-3.3303347,-1.6725458,9.200128,-2.95476631409523335404,-4.6273932,2.4115596,-2.2571337,-2.0909479,8.994941,-3.29990581409523335405,-4.0384197,2.4642322,-0.9307459,-2.6982856,8.766597,-3.4693591409523335406,-3.7942111,2.60968,-0.6769605,-3.2173166,8.6079855,-3.42371631409523335438,-3.8253357,2.9759927,-0.28550854,-3.6841125,8.458737,-3.32377621409523335439,-3.7229836,3.678691,0.43155485,-4.1172614,8.336912,-3.11680481409523335440,-2.8353333,4.807557,3.0005333,-4.4691844,8.267483,-2.80098081409523335446,-0.9864111,7.631518,9.698313,-4.627203,8.403343,-2.03548571409523335477,3.550601,17.071257,18.650232,-4.2973747,8.814245,-0.109848781409523335479,16.573862,19.608511,18.301277,-4.414347,8.751487,-0.308845551409523335480,19.607914,19.608511,8.622119,-4.5469627,8.674259,-0.502755761409523335502,17.61893,19.583971,6.452972,-4.6504006,8.615283,-0.56663271409523335503,7.881712,12.215816,4.3263226,-4.687048,8.58568,-0.69863251409523335506,4.5340195,4.673482,4.1611223,3.2451005,8.472465,3.72250821409523335533,1.8656816,2.3594859,6.501455,3.5736797,8.341943,3.71634461409523335534,1.5688007,4.4675803,4.9057193,3.7238464,8.134949,4.01571461409523335540,-0.24241292,7.2394676,1.9327193,3.6484935,8.060418,4.2294841409523335546,-2.9885623,15.613787,-2.0416555,3.3605278,8.211814,4.1765241409523335568,-7.743447,19.608511,-3.064578,2.6338189,8.753695,3.55052421409523335569,-4.519056,19.239206,3.008913,1.4803295,9.290724,2.76793741409523335578,3.5847185,13.933057,-4.653131,0.825764,9.428504,2.5674541409523335605,0.33159694,7.3364325,-11.579556,1.0224048,9.569785,1.88262771409523335607,-3.0998926,7.711125,-6.7803793,1.0081743,9.726054,0.746887741409523335608,-3.6062663,8.268375,-1.0121487,0.65129185,9.784332,0.114369931409523335638,-3.3848026,8.406042,2.166154,0.26035395,9.802814,0.086422091409523335640,-3.0561984,8.740033,-1.2378023,-0.07685089,9.80142,0.310866421409523335641,-2.5600002,9.378088,-3.7822402,-0.3773111,9.798765,0.1105095741409523335647,-2.532467,10.073005,-3.6122518,-0.6088024,9.781909,-0.337623031409523335678,-2.791639,10.870275,-1.8956091,-0.80387807,9.750496,-0.672300341409523335680,-3.1028855,11.6986685,-0.57400984,-1.0051805,9.723853,-0.77892151409523335681,-3.2010477,11.784261,0.12689269,-1.215105,9.703518,-0.73189171409523335709,-2.7311857,10.8385515,0.109534726,-1.4110582,9.6838255,-0.634678361409523335710,-2.1745336,9.315839,-0.05327099,-1.5459855,9.667366,-0.567767741409523335711,-1.489792,8.2833395,-0.58657944,-1.6302074,9.655265,-0.53730861409523335752,-0.6751649,7.8853035,-1.2186487,-1.6539725,9.649593,-0.56576721409523335752,-0.18255788,7.6345105,-1.6765398,-1.6000539,9.653032,-0.65511321409523335753,-0.130484,7.504027,-2.1829133,-1.5014194,9.659377,-0.78266861409523335754,-0.16759412,8.305486,-3.0280666,-1.4155183,9.657771,-0.94560461409523335758,-0.3585317,9.932944,-3.4554317,-1.3335509,9.64526,-1.16662221409523335780,-0.6452374,12.107478,-3.5613751,-1.2576444,9.62783,-1.37609181409523335780,-0.80325466,12.966398,-2.9580362,-1.1916013,9.613987,-1.52373231409523335795,-0.7625532,11.661558,-2.1086931,-1.1335895,9.614647,-1.5633151409523335799,-0.219668,10.027515,-0.8678981,-1.0723237,9.62704,-1.52990981409523335816,0.2753332,9.2907,0.3597288,-0.9819072,9.6513,-1.43480251409523335818,1.0414777,9.062652,-0.5117606,-0.8421844,9.69251,-1.23141291409523335827,2.1619642,9.321824,-0.62608373,-0.6348618,9.718284,-1.14992481409523335859,2.7323828,9.03871,-0.17896658,-0.33682942,9.737823,-1.10983161409523335860,2.9652188,9.020155,-1.1785458,-0.023734512,9.744145,-1.10518471409523335861,3.994127,9.229648,-3.196858,0.25459027,9.719573,-1.2788711409523335885,4.5022964,8.528147,-3.615843,0.60432494,9.652879,-1.62083391409523335887,4.5340195,7.884106,-3.3273418,0.9948089,9.569328,-1.89965381409523335888,4.0958805,7.7410526,-3.4823663,1.3641093,9.485101,-2.08384731409523335917,3.0304608,7.4004774,-1.9674352,1.6585608,9.40325,-2.23572561409523335918,2.789245,8.301296,-0.89303726,1.8328166,9.375442,-2.21636271409523335919,2.6138697,9.22426,0.52852005,1.964256,9.381527,-2.07341931409523335927,3.104681,10.877457,1.0271125,2.058851,9.415568,-1.8106971409523335945,3.2638955,12.0727625,1.9877859,2.1553323,9.445211,-1.52082471409523335948,2.7694929,12.248735,2.5965118,2.2260895,9.4797945,-1.16120181409523335969,1.1815386,10.980408,3.063381,2.2286448,9.517465,-0.78828611409523335970,-0.16519992,9.60015,2.8413188,2.1057446,9.568076,-0.433753821409523335978,0.80325466,9.878476,1.3156139,1.8913796,9.621318,-0.152623641409523335998,2.2014685,10.928932,-0.8086416,1.7924834,9.641191,-0.069602531409523336014,2.907758,11.927913,-3.728969,1.8343817,9.630563,-0.240241421409523336015,3.1723173,12.770672,-5.4982843,1.9082332,9.594765,-0.685224241409523336034,3.6727054,12.864046,-4.138976,1.9373426,9.538417,-1.19820881409523336035,3.7541082,11.912351,0.25079262,1.977323,9.492854,-1.46503081409523336038,3.169923,10.429741,6.971317,2.0608041,9.495795,-1.32413351409523336047,1.7669208,9.202713,15.720328,2.1526737,9.551633,-0.550174241409523336060,3.1040826,9.913192,13.032238,2.2146378,9.50632,0.946381871409523336075,5.379173,11.509526,5.758055,2.355104,9.300311,2.03176741409523336080,6.567894,13.480553,1.3383588,2.5534575,9.17634,2.33345651409523336096,7.1125746,14.789582,-1.9740193,2.7042627,9.157175,2.23685241409523336115,7.542334,14.531608,-4.06296,2.828054,9.192365,1.91649571409523336116,7.076063,13.794193,-6.659472,3.023695,9.213056,1.46535031409523336119,5.551555,12.686874,-6.4164605,3.2278535,9.223592,0.822635351409523336127,4.297592,12.275671,-4.855441,3.3381648,9.217874,0.2404651409523336155,3.25791,12.87482,-3.9636009,3.3522682,9.213314,-0.217933431409523336157,1.596334,14.320319,-3.9055414,3.2704782,9.228564,-0.55498371409523336160,1.3988123,14.984112,-3.8313212,2.7269757,9.382927,-0.833458661409523336184,2.2110453,14.396934,0.50996494,2.7269757,9.382927,-0.833458661409523336185,2.191293,12.102091,7.6692266,2.7269757,9.382927,-0.833458661409523336188,0.47345337,10.139444,9.67018,2.674342,9.433093,-0.187223241409523336226,-0.22864626,9.557653,6.789956,2.5688026,9.439727,0.68059741409523336228,1.2300211,9.6767645,3.7972038,2.4117286,9.420436,1.26861271409523336230,3.2034419,9.951499,0.79726917,2.342071,9.401457,1.5158021409523336234,1.8022354,9.330204,-0.842759,2.434847,9.390544,1.43513271409523336262,0.908001,8.995614,-1.8441339,2.4297566,9.421441,1.22601271409523336263,0.85173726,9.185355,-1.9536686,2.3360345,9.472951,0.988195361409523336265,1.0061632,11.869255,-2.1631613,2.233249,9.517144,0.779049041409523336279,0.9876082,17.842789,-3.2345665,2.1160657,9.559449,0.556386531409523336280,0.57520694,19.608511,-2.7431567,1.9330536,9.611042,0.248020531409523336294,-0.8714894,19.608511,-4.7016134,1.7277348,9.653135,0.0481882771409523336309,-2.148796,19.510948,-8.557475,1.4450936,9.696001,-0.263949631409523336310,-2.4504654,13.836092,-9.991602,1.0982172,9.710084,-0.82378981409523336328,-3.5464113,8.542512,-4.8374844,0.7749352,9.669564,-1.43853931409523336329,-2.6384103,8.261193,0.7918822,0.40887278,9.655943,-1.66312851409523336344,-0.80445176,9.025542,-0.22685061,0.15502267,9.692674,-1.48272011409523336365,-0.59136784,8.687361,-3.642778,0.108258866,9.704832,-1.40531441409523336365,-1.1917139,7.401076,-5.9801173,0.08966142,9.667525,-1.6435651409523336368,-1.7363948,4.662708,-5.5521536,0.005934943,9.590532,-2.0474441409523336382,-0.3776853,3.5075054,-2.8395233,-0.13909955,9.497817,-2.43772461409523336416,0.020949265,3.8013937,-0.88286185,-0.15990813,9.451262,-2.61122251409523336417,-0.82899237,4.404134,0.724246,-0.1403334,9.459865,-2.58102461409523336420,-0.9828198,4.9518075,1.1659763,-0.21493487,9.512078,-2.37582661409523336422,-1.2761095,4.767454,0.40641573,-0.29832113,9.570568,-2.1179381409523336428,-1.436521,4.3179426,-0.22385786,-0.43466845,9.600725,-1.95130031409523336460,-1.520318,3.8720226,-1.0839748,-0.58710825,9.606603,-1.88119791409523336461,-1.6681601,3.9217024,-2.0847511,-0.7532225,9.584382,-1.93459581409523336462,-1.70946,4.267066,-2.5318682,-0.9339421,9.529759,-2.11703851409523336486,-1.8926164,4.7483006,-2.906561,-1.1083294,9.459285,-2.33750721409523336486,-3.3991678,4.7285485,-2.0272903,-1.2944559,9.374442,-2.57189631409523336488,-4.072537,3.6314054,-1.3245921,-1.6848605,9.287754,-2.65881281409523336516,-4.0336313,3.0921116,-1.079785,-2.1889076,9.17469,-2.684051409523336517,-3.66253,3.1184478,-1.359308,-2.6910672,9.038476,-2.6897121409523336519,-3.3650506,3.2513258,-1.2605472,-3.1119397,8.889706,-2.73118731409523336527,-2.9029696,3.6110547,-0.38965634,-3.45626,8.75329,-2.7576441409523336548,-2.3828292,4.5136685,1.9812019,-3.7104497,8.6832075,-2.64666941409523336549,-1.1881226,7.5321584,8.676587,-3.8632302,8.7578745,-2.13200621409523336560,1.0839748,16.106993,18.427572,-3.6776862,9.078878,-0.467948351409523336578,11.794436,19.608511,17.808073,-3.801405,9.015931,-0.65779591409523336579,19.607914,19.608511,-0.6392518,-3.958101,8.928341,-0.88800751409523336595,19.467852,19.608511,5.6215854,-4.0948324,8.848179,-1.05475941409523336615,12.320562,14.999075,6.4416,-4.1282086,8.810073,-1.2291911409523336616,7.1006036,8.358158,7.1490865,3.4000347,8.718117,2.93335821409523336625,5.2325277,6.6265516,8.041525,3.7639709,8.512577,3.08851981409523336628,3.8181531,8.522161,6.2686186,4.012976,8.303832,3.33358361409523336659,1.0133458,9.852738,1.7405846,3.9750319,8.239726,3.5322011409523336664,-1.9009962,15.846622,-4.3077674,3.722446,8.39238,3.44698951409523336666,-5.245097,19.608511,-6.4098763,3.1204293,8.857372,2.82493951409523336691,-4.613028,19.578585,-3.1741128,2.2403607,9.334718,2.00354891409523336692,-0.95349085,15.757439,-0.36272156,1.531161,9.568015,1.50964531409523336693,0.93732995,10.837354,-5.1104236,1.2531779,9.63455,1.33242651409523336719,-0.45130703,9.033921,-5.7299232,1.2182635,9.695729,0.82405731409523336720,-1.5771804,7.5854297,-2.6491842,1.0976719,9.741042,0.278573751409523336721,-1.074398,6.3949127,0.3842694,0.90037835,9.765167,0.034781141409523336728,-1.5610195,5.4258595,-0.38726214,0.7678573,9.776113,0.091704731409523336751,-1.6250644,5.360019,-1.8154035,0.58458406,9.789015,0.06205991409523336752,-1.9907787,6.425439,-1.9476831,0.38187978,9.798159,-0.14366461409523336759,-2.682703,8.306085,-1.234211,0.1380268,9.798882,-0.365044441409523336789,-3.3028011,10.058042,-0.78410107,-0.1695869,9.793867,-0.470988721409523336790,-3.6511576,10.767922,-0.7691373,-0.5122389,9.78045,-0.5007961409523336791,-2.830545,10.435128,-1.0648212,-0.8428173,9.756491,-0.520523851409523336820,-1.70946,9.837775,-1.316811,-1.0454606,9.733558,-0.57900381409523336821,-1.074398,9.785102,-1.4700398,-1.1183431,9.72022,-0.66109011409523336822,-0.86370826,9.7479925,-1.7615339,-1.1231438,9.713573,-0.74527771409523336828,-1.0618285,9.321226,-1.9626468,-1.1189882,9.705764,-0.84642871409523336852,-1.316811,9.144653,-1.8986019,-1.1476531,9.691371,-0.96467551409523336853,-1.311424,9.617508,-1.9961656,-1.2007484,9.674485,-1.06437521409523336862,-0.92655605,10.369886,-2.203264,-1.23252,9.660429,-1.15212551409523336891,-0.51595044,11.027095,-2.1733365,-1.2053251,9.652287,-1.24536541409523336892,-0.29807812,11.580155,-1.6376339,-1.1318376,9.652304,-1.31238421409523336893,-0.23762453,11.406575,-1.0773908,-1.0457094,9.661166,-1.31861661409523336916,-0.36272156,10.490194,-2.1374235,-0.97105044,9.674341,-1.27849911409523336917,-0.14305355,9.804854,-3.6697125,-0.9162489,9.668867,-1.35791409523336922,0.15801731,9.528923,-4.3101616,-0.8287434,9.641412,-1.58958881409523336928,0.70509243,9.88925,-4.5220485,-0.70526016,9.598737,-1.88075721409523336968,1.0845734,9.886856,-3.6332011,-0.54584414,9.552436,-2.15021821409523336970,1.6466122,9.813234,-2.3253684,-0.3950525,9.528423,-2.28549431409523336971,2.2529438,9.710283,-1.0977415,-0.1898273,9.536161,-2.27947261409523336973,2.5767596,9.279925,-0.81043726,0.045095425,9.56692,-2.1546281409523337013,2.5252843,8.620922,-0.6979098,0.2871689,9.588885,-2.03499981409523337013,2.415151,8.587403,-0.053869538,0.49549133,9.598251,-1.94895591409523337014,2.3636756,9.317036,0.18674773,0.67308927,9.613444,-1.81632141409523337015,2.1398177,9.467871,0.42556936,0.8306614,9.630725,-1.65212321409523337030,1.9847932,9.002797,0.7182605,0.9572709,9.648836,-1.4676531409523337031,2.2056582,8.907627,1.3814543,1.0654569,9.664368,-1.27873831409523337041,2.6833014,8.988432,1.9207484,1.1922326,9.678143,-1.04044811409523337063,2.8443117,8.516175,1.5664065,1.3589102,9.681703,-0.767062841409523337064,2.4917655,8.0606785,1.0295067,1.5301412,9.670511,-0.557026741409523337068,2.1505916,7.9421654,0.49440265,1.6516719,9.657212,-0.425001771409523337104,2.0141222,8.107366,0.0712275,1.7278252,9.646476,-0.361273971409523337105,2.0799627,8.74123,-0.1388637,1.7828003,9.63699,-0.347033861409523337106,1.75076,9.555858,0.350152,1.8287902,9.62829,-0.349250081409523337108,1.0378864,10.129868,1.6699557,1.8259517,9.630553,-0.297861841409523337138,1.1480197,10.469246,1.8411411,1.7426744,9.649938,-0.1104461409523337140,2.0266917,11.173141,0.4878186,1.6766546,9.662058,0.062069211409523337141,2.9712043,12.065579,-0.6422446,1.7012521,9.657887,0.0365688581409523337163,3.5835214,12.580932,-1.1857284,1.7995883,9.639149,-0.136720261409523337164,3.970185,12.831125,-1.6124948,1.9190456,9.611544,-0.32536741409523337168,3.9863458,13.375807,-0.6422446,2.0381703,9.579599,-0.497533351409523337192,3.9971197,13.871407,3.3554738,2.1235297,9.560527,-0.50728611409523337193,5.4551888,13.936648,7.478289,2.195364,9.556952,-0.124147771409523337212,6.905476,14.153922,6.6534867,2.3838859,9.4943905,0.586532951409523337213,6.7642183,14.128184,2.2451627,2.650829,9.374102,1.12681821409523337222,5.6670756,13.1950445,-0.80086046,2.8511443,9.302562,1.22625061409523337228,4.991312,13.38239,-2.9239187,2.9464097,9.29236,1.06822251409523337251,4.143166,13.891158,-4.24073,2.9878433,9.309291,0.761759761409523337251,3.3482912,15.039777,-4.006098,2.9736078,9.337233,0.379652231409523337259,2.8072014,14.739305,-0.29568392,2.8916008,9.370567,0.0388198531409523337277,3.1453824,12.563574,4.823718,2.7961192,9.399572,0.0127039991409523337290,3.714604,11.435306,4.0025067,2.7958915,9.390651,0.411170241409523337291,2.926313,10.607511,2.31639,2.8799818,9.343856,0.75395641409523337313,2.1039047,9.240421,1.4401124,2.9134722,9.317294,0.93279231409523337314,2.0386627,8.715493,1.4820108,2.8861833,9.31686,1.01806961409523337320,2.9903579,9.840768,1.299453,2.8592877,9.316191,1.09702481409523337328,2.1535845,10.142437,0.017357962,2.8818176,9.308684,1.10177531409523337354,1.6250644,9.735423,-1.2192472,2.8555787,9.328611,0.9965351409523337363,1.3425486,9.960478,-2.4462755,2.7902048,9.364603,0.830276251409523337364,1.5490485,13.997102,-3.715801,2.6883776,9.412231,0.59407531409523337383,1.4945804,19.466656,-4.9404354,2.5354683,9.469499,0.26526421409523337384,0.3477578,19.608511,-3.7774518,2.3113182,9.529748,-0.110042681409523337388,-2.441487,19.608511,-7.0132155,2.036222,9.587691,-0.316750681409523337416,-4.502895,18.55985,-9.3260145,1.6243267,9.642951,-0.73852051409523337417,-5.271434,11.374852,-9.689933,1.1035972,9.65886,-1.2879831409523337420,-5.3713913,7.8308353,-5.5671177,0.5814605,9.60987,-1.8661911409523337445,-3.2974143,8.078635,1.0947487,0.08600582,9.574159,-2.1209621409523337445,-2.5605986,9.018958,-1.4730326,-0.18641075,9.621422,-1.88782951409523337450,-2.1332338,8.875306,-4.405331,-0.35300526,9.617652,-1.88323091409523337472,-1.8273745,7.65965,-5.6239796,-0.4684477,9.561698,-2.12717821409523337473,-2.1769278,4.670489,-3.0538042,-0.5512452,9.482328,-2.43966031409523337490,-1.6017209,3.1387985,-0.37588966,-0.7004415,9.436036,-2.57700471409523337490,-1.4838065,2.9801826,-1.4676456,-0.84105074,9.439667,-2.52105471409523337515,-0.641646,3.6996403,-1.049259,-0.9688251,9.407953,-2.59271551409523337516,0.051475335,3.9145198,-0.35673606,-0.97750217,9.400491,-2.61642891409523337522,0.14664486,3.7283707,-0.08738836,-0.89503753,9.427143,-2.54917341409523337551,0.030526072,3.7906199,-0.24061728,-0.81449854,9.462077,-2.44459821409523337552,-0.5189432,3.6092591,-0.6835446,-0.7623906,9.486717,-2.36460451409523337552,-1.1498153,3.0053217,-1.5292963,-0.7890148,9.490034,-2.34245561409523337560,-1.5801731,2.7832594,-3.0627825,-0.9204467,9.448112,-2.46097281409523337573,-2.3439236,2.4420857,-3.4985273,-1.1079177,9.332973,-2.79972981409523337595,-3.2273839,2.3906105,-3.17531,-1.4091312,9.163011,-3.1974971409523337595,-3.9983168,2.7335799,-2.6910827,-1.8472493,8.965813,-3.51741861409523337600,-4.4741645,2.56419,-0.83018947,-2.3899195,8.754762,-3.7165581409523337608,-3.7349546,2.9334955,-0.89303726,-3.0247371,8.596491,-3.6223941409523337624,-3.6475663,2.8652608,-1.2348095,-3.4903018,8.4599695,-3.52378961409523337643,-3.0873232,3.4973302,-1.4024036,-3.8983676,8.30145,-3.47261951409523337644,-2.2014685,4.5046906,-0.42916065,-4.149174,8.185242,-3.45782521409523337666,-1.6741456,6.5631056,4.5801077,-4.209308,8.235015,-3.26139621409523337667,-0.89662856,14.927848,15.998654,-4.1431108,8.625882,-2.1445761409523337669,7.2149267,19.608511,19.556438,-3.4396474,9.147638,0.81235451409523337699,19.552847,19.608511,5.477335,-3.6357536,9.090065,0.5677921409523337700,19.607914,19.608511,4.654328,-3.8290792,9.018067,0.427795861409523337702,17.984644,18.045696,5.433641,-3.991004,8.953471,0.278601881409523337709,7.6722193,8.84059,5.8412538,-4.0499473,8.930966,0.0784141941409523337732,3.834314,4.9284644,7.015011,3.8499556,8.540944,2.898361409523337733,2.7880478,6.3368535,8.004415,4.0849833,8.368737,3.07368541409523337740,1.4730326,7.8589673,5.3384714,4.0415797,8.228691,3.48204731409523337779,-0.7410054,7.8811135,-1.620276,3.8149524,8.215278,3.75842381409523337780,-3.7989995,12.241553,-8.776545,3.4783423,8.471552,3.5077541409523337781,-5.931635,18.777126,-8.829816,2.8109074,9.061569,2.48136471409523337782,-4.4687777,17.580025,-2.719813,1.8601828,9.535795,1.3336941409523337789,-3.0759506,11.792042,1.0414777,1.184906,9.691582,0.916311141409523337824,-1.4814123,10.703877,2.1188686,0.7909537,9.728738,0.946807741409523337825,-1.163582,12.557588,-1.8249803,0.5859318,9.73234,1.05291151409523337829,-1.2982559,12.68867,-3.2309752,0.41285497,9.769286,0.74899281409523337855,-0.49320555,11.604097,-2.0153193,0.24603191,9.797505,0.34461871409523337856,-0.66379243,9.74859,-1.6992847,0.17017931,9.804224,0.136432221409523337857,-0.97025025,8.165425,-1.8154035,0.08417167,9.806287,-0.0059170971409523337894,-0.5105635,8.294712,-1.6927006,-0.01925291,9.80553,-0.146985071409523337895,-0.6464345,9.4295635,-1.4706384,-0.077949025,9.801801,-0.298371231409523337898,-1.3958195,10.21546,-0.8451532,-0.137915,9.796626,-0.421313521409523337899,-2.295441,10.198701,-0.8798691,-0.27302223,9.791447,-0.472711321409523337902,-2.6090813,9.398438,-1.7316064,-0.49284723,9.780166,-0.52522641409523337909,-1.7340006,8.794501,-2.3774424,-0.7224483,9.7578,-0.65865091409523337935,-0.717662,8.716091,-2.4522612,-0.8354585,9.734869,-0.83948141409523337937,-0.22804771,8.75799,-2.5037365,-0.8341682,9.719107,-1.0067551409523337942,-0.12509704,8.646061,-2.344522,-0.7847062,9.707246,-1.15065541409523337967,-0.110731825,8.720282,-1.9949685,-0.7436022,9.69679,-1.26083671409523337969,0.001197101,9.097966,-1.5598224,-0.71384627,9.690731,-1.32308381409523337970,-0.13108255,9.74859,-1.2018893,-0.6736364,9.6926365,-1.33019071409523337998,-0.8451532,10.614095,-0.9032126,-0.64193213,9.699468,-1.29562621409523337998,-1.3395559,11.139622,-0.95947635,-0.6779407,9.705138,-1.23332561409523338002,-1.2862848,10.920552,-1.5215151,-0.74571157,9.705483,-1.19075951409523338009,-1.0115502,10.282497,-2.556409,-0.7946214,9.698554,-1.21534071409523338033,-0.44951138,10.173561,-3.0753522,-0.79326653,9.676174,-1.38302081409523338039,0.107140526,9.968858,-3.2878375,-0.73413277,9.646861,-1.6029641409523338041,0.6183026,9.770737,-3.4153287,-0.6323798,9.620073,-1.79574671409523338080,1.0145429,9.654019,-3.2213984,-0.49699867,9.597183,-1.95383781409523338081,1.246182,9.275137,-2.3211784,-0.33998525,9.581673,-2.06067821409523338082,1.3904326,8.856153,-1.1941081,-0.17930575,9.5835,-2.0723871409523338082,1.5053543,8.639477,-0.2885013,-0.027662791,9.601225,-1.99653261409523338089,1.5478514,8.416218,0.002394202,0.12760289,9.631991,-1.83816791409523338127,1.4933833,8.159439,0.2908955,0.27154726,9.65776,-1.68057861409523338128,1.4873978,8.414422,0.006584055,0.39742228,9.679245,-1.5246831409523338129,1.3126211,8.711303,0.3800795,0.5085946,9.691244,-1.41121571409523338130,1.4155718,8.933365,0.6314707,0.5899562,9.707381,-1.26058441409523338140,1.7776948,9.303867,1.0133458,0.6766031,9.722176,-1.09174051409523338173,2.0853498,9.442133,1.4562732,0.7943202,9.733301,-0.89572661409523338177,2.2948422,9.184756,1.3221979,0.9306547,9.739609,-0.666583361409523338178,2.220622,8.736442,0.91697925,1.0733391,9.73591,-0.480009381409523338206,2.1428106,8.885481,0.6194997,1.1950299,9.726949,-0.358847921409523338207,2.1320367,9.136872,0.31004912,1.294771,9.716644,-0.284212081409523338209,2.271499,9.412206,-0.2669535,1.3830613,9.705438,-0.249035551409523338210,2.445677,9.796474,-0.56323594,1.4757892,9.690997,-0.27753041409523338234,2.5611973,10.412982,-0.43993455,1.573635,9.673849,-0.332698461409523338235,2.7252002,11.14441,-0.57879823,1.6587101,9.658345,-0.36804771409523338259,2.8694508,11.588534,-0.6961141,1.737935,9.642104,-0.424036441409523338260,2.8048072,11.569381,-0.47405192,1.810153,9.6256,-0.491483541409523338261,2.2649148,11.249755,0.801459,1.8683681,9.613032,-0.518851761409523338269,1.0181342,10.470443,3.3159695,1.8797432,9.616057,-0.410348681409523338293,1.7723078,11.078569,2.693477,1.7961408,9.640522,-0.0679316741409523338294,3.9133227,13.351864,0.6907272,1.7849326,9.641498,0.160960671409523338303,5.4521956,15.348629,0.6464345,1.9382454,9.612501,0.115725691409523338309,5.8933277,16.219519,2.2601264,2.1535697,9.56709,0.0574395061409523338329,6.1764417,15.770008,8.907627,2.349446,9.520172,0.129480081409523338330,6.193201,13.819931,12.529456,2.5356672,9.44335,0.75094291409523338341,4.532822,13.39077,6.827066,2.7235081,9.275756,1.64719181409523338365,5.0541596,15.269021,-2.4025815,2.7686057,9.164385,2.12585571409523338366,4.9039235,15.07988,-7.04015,2.777359,9.21606,1.87641121409523338369,4.3275194,14.236522,-6.522404,2.7832165,9.319442,1.25384411409523338402,4.0916905,11.651981,-0.7368156,2.801857,9.374179,0.66688191409523338402,3.9234982,9.738416,3.4261026,2.8586285,9.365055,0.542551761409523338403,3.043629,9.259575,4.450821,2.9593282,9.312638,0.829199851409523338426,1.8764555,9.6767645,2.15957,3.0342467,9.250648,1.17866361409523338427,2.5791538,10.477027,1.5825673,3.0042017,9.245089,1.29362621409523338429,3.5751417,10.033501,1.0594343,2.9874022,9.246352,1.32317721409523338443,2.967613,9.6049385,-0.0688333,3.0463262,9.228845,1.31099841409523338465,2.3894134,9.755774,-0.6434417,3.0605977,9.237525,1.2129491409523338466,1.7262194,12.236765,-1.5304934,3.0135825,9.268021,1.0920351409523338469,1.4562732,17.630302,-3.7229836,2.867666,9.33799,0.86535311409523338503,1.6950948,19.608511,-5.1247888,2.6137857,9.439266,0.488597181409523338503,0.5955577,19.608511,-3.74094,2.3970146,9.5088,0.086250151409523338504,-2.5240872,19.608511,-7.683592,2.124674,9.572889,-0.126117171409523338522,-4.867412,15.238495,-10.515334,1.6444273,9.6489525,-0.60328331409523338523,-5.915474,8.610147,-8.613739,1.0638702,9.66585,-1.26881271409523338542,-5.379173,6.8246717,-2.1332338,0.51038086,9.628117,-1.79143631409523338543,-2.6719291,7.177817,1.4161704,0.049341246,9.631371,-1.8451671409523338549,-1.1827357,8.765771,-2.4624364,-0.123395205,9.671386,-1.61847691409523338575,-0.6667852,9.500193,-6.2865753,-0.1514017,9.652071,-1.72771751409523338576,-1.1605892,8.673594,-7.2747817,-0.13877931,9.568991,-2.1413831409523338581,-1.2401965,6.76362,-5.5102553,-0.18565029,9.46078,-2.57479261409523338589,0.15263036,5.967548,-3.1022868,-0.28038764,9.378273,-2.85303351409523338615,-1.1665748,5.473145,-0.6254852,-0.27491286,9.348874,-2.94845561409523338616,-2.5240872,5.732916,1.8303672,-0.38586226,9.378176,-2.84100561409523338621,-2.4289176,5.651513,0.8810662,-0.60974514,9.464929,-2.49273681409523338648,-1.3210008,5.4737434,-1.3802572,-0.80589706,9.510642,-2.25135661409523338651,-0.2789245,5.5862713,-1.9375077,-0.85678124,9.497618,-2.28726551409523338651,-0.14305355,5.1361613,-1.5215151,-0.78204364,9.479134,-2.38848541409523338672,-0.75956047,4.5561657,-1.7705121,-0.72848916,9.47378,-2.4263591409523338673,-1.299453,4.088698,-2.5959132,-0.7848814,9.453495,-2.48712591409523338690,-1.9847932,3.4703953,-2.4624364,-0.9078521,9.394353,-2.66314551409523338690,-2.666542,2.791639,-1.9782091,-1.110369,9.319259,-2.84409641409523338714,-3.0238767,2.4947581,-1.3904326,-1.4297962,9.229988,-2.98887441409523338715,-3.2609026,2.3223755,-0.32680854,-1.8207574,9.135358,-3.06602791409523338723,-3.406949,2.634819,-0.439336,-2.2710845,9.057281,-2.9963731409523338760,-3.478775,2.847903,-1.0528502,-2.7255592,8.955172,-2.92345671409523338761,-3.25791,3.4769795,-1.6118963,-3.1590557,8.808541,-2.93263461409523338762,-2.7491422,4.277241,-0.88166475,-3.4973433,8.656608,-3.00035121409523338763,-2.582745,5.234922,2.5151088,-3.6852527,8.610981,-2.9052221409523338770,-2.517503,8.523956,11.564592,-3.849323,8.738308,-2.23495961409523338801,1.5191209,18.823214,19.608511,-3.8181617,9.032809,-0.0202813391409523338802,15.924434,19.608511,17.363947,-3.9926183,8.953984,-0.235661181409523338803,19.607914,19.608511,1.1043255,-4.2083445,8.845387,-0.46836031409523338826,18.79987,19.608511,3.4344823,-4.410044,8.739968,-0.578692851409523338827,10.323199,14.435241,4.9907136,-4.50954,8.671939,-0.794924861409523338830,4.919486,5.8759694,5.374983,3.343185,8.736402,2.94428351409523338865,2.9771898,3.6176388,7.24665,3.7077296,8.578109,2.97307251409523338866,0.88944596,4.5783124,7.709928,3.8564343,8.36999,3.35284451409523338867,-1.4598645,5.595848,0.7290344,3.7200823,8.223655,3.83443331409523338870,-3.7972038,10.687118,-9.515755,3.3842664,8.378056,3.81120971409523338895,-6.3218894,17.934965,-11.63163,2.7801435,9.007295,2.70367261409523338896,-5.3821654,18.117523,-6.1279593,2.8411245,8.986371,2.70990131409523338903,-4.104859,13.520057,-1.4999673,0.99451476,9.7424,0.516704861409523338927,-4.540005,11.966819,0.023942016,0.48172233,9.788496,0.35172131409523338929,-3.8815994,13.828909,0.1328782,0.011865283,9.799665,0.369884941409523338930,-3.9707835,13.287221,-1.6226702,-0.36128107,9.794279,0.33465081409523338973,-2.4702177,11.963227,-1.508347,-0.6798374,9.782355,0.1173050251409523338975,-1.6663644,10.242993,-2.0362685,-0.82342684,9.77183,-0.0610754041409523338977,-1.4939818,9.085397,-1.9548657,-0.8896644,9.763288,-0.238986421409523338978,-1.5795746,8.9998045,-1.602918,-0.94974625,9.75313,-0.38058251409523339008,-1.8351556,9.132683,-1.2126632,-1.0203612,9.741589,-0.480326741409523339009,-1.9722236,8.945934,-1.0139444,-1.105486,9.72887,-0.545305431409523339010,-1.5155296,8.430583,-0.88645315,-1.2052484,9.714554,-0.58757651409523339011,-0.8331822,7.65965,-0.9247604,-1.2632962,9.705091,-0.6210541409523339023,-0.5398925,7.1826053,-1.1988965,-1.2597053,9.702934,-0.66073151409523339041,-0.025737667,7.7368627,-1.4730326,-1.23446,9.701581,-0.72514941409523339042,0.4249708,9.030331,-1.7770962,-1.1558365,9.704819,-0.80680041409523339049,0.78529817,9.959879,-2.0129251,-1.0260369,9.710902,-0.903344331409523339076,0.078410104,10.933721,-2.1739352,-0.8728467,9.71568,-1.00701551409523339077,-1.560421,12.673108,-2.337938,-0.79741865,9.711619,-1.10406331409523339084,-2.4995465,13.397354,-2.2667105,-0.9022977,9.693589,-1.17922561409523339090,-1.863886,12.084733,-1.9249382,-1.0649674,9.672082,-1.21945561409523339113,-0.5303157,10.11251,-1.4197617,-1.1147677,9.665533,-1.22685091409523339114,0.4997896,8.853159,-0.7685388,-1.0153365,9.679534,-1.20254111409523339122,1.0127473,8.275558,-0.6464345,-0.83276457,9.7045,-1.13998061409523339150,1.5987282,8.278551,-1.4371196,-0.63633984,9.725127,-1.08966451409523339151,2.248754,8.406042,-1.2551602,-0.4166797,9.732762,-1.12699211409523339151,2.5198972,8.447941,-0.39624038,-0.1475513,9.7365675,-1.16098181409523339182,2.099715,8.215703,1.3126211,0.1132878,9.738482,-1.14868741409523339183,2.6210523,7.756615,-1.3628993,0.28612873,9.751111,-1.0021931409523339184,4.243124,8.055291,-4.8440685,0.4979938,9.723766,-1.17079351409523339208,3.5595794,7.9726915,-5.9609637,0.88863724,9.622166,-1.67171841409523339209,2.15538,7.753622,-6.7983356,1.2004341,9.490333,-2.15938641409523339210,2.585738,8.453327,-4.2131963,1.338353,9.349377,-2.6397681409523339221,2.3756466,8.582016,-1.3748703,1.4871254,9.276705,-2.81097341409523339236,1.9440918,8.393473,0.15442601,1.59891,9.296314,-2.6818631409523339258,2.1523874,9.011177,0.6607997,1.6440636,9.35548,-2.4377181409523339258,2.496554,10.128072,0.8367735,1.7034165,9.4121895,-2.16320561409523339263,2.4666264,10.710462,1.1145009,1.7855431,9.45972,-1.86973991409523339270,1.8525136,10.812215,1.3192052,1.8408962,9.504161,-1.56602611409523339293,1.6849195,11.151593,1.2395979,1.8164512,9.551626,-1.27957441409523339294,1.6609775,11.595717,1.1210849,1.7710812,9.589293,-1.03881451409523339302,1.4215573,11.893197,1.5089456,1.7268606,9.6172905,-0.834319951409523339324,-1.9746178,10.259154,4.9200845,1.6704818,9.643073,-0.625318471409523339325,-2.5839422,10.280702,4.147356,1.3299779,9.715307,-0.11995121409523339330,1.3359646,13.272257,-2.545635,0.96047205,9.756387,0.246523571409523339366,4.175488,15.552734,-6.105813,0.99610305,9.754667,-0.15692981409523339367,5.525219,15.464747,-4.344279,1.2586762,9.682656,-0.912310961409523339368,4.5633483,11.149797,7.9930425,1.5137521,9.595653,-1.34253761409523339370,5.183447,8.522161,16.973095,1.7583003,9.627351,-0.62679571409523339394,7.7081323,11.341333,16.04594,2.1186519,9.522537,1.00148941409523339395,8.53054,13.846267,8.863335,2.6028175,9.129478,2.45934221409523339402,8.774749,15.409082,-4.3460746,2.9279642,8.84782,3.05181409523339418,7.8595657,14.17128,-10.216658,3.078773,8.978784,2.46434641409523339421,6.7929487,13.160927,-8.86513,3.2372074,9.142358,1.45195391409523339435,6.1465144,12.404359,-6.7480574,3.394533,9.180919,0.598567371409523339451,4.981735,12.068572,-6.1279593,3.524746,9.151283,-0.0240381711409523339452,2.6282349,12.074557,-5.887342,3.5526206,9.12204,-0.58110161409523339473,1.2384008,12.56896,-1.2611457,3.426839,9.13618,-0.97846861409523339474,1.6915035,13.09329,7.192182,3.2102447,9.214789,-0.975891409523339482,2.4528596,12.7018385,10.891224,3.0700061,9.309457,-0.28188071409523339506,2.0871453,11.640609,6.4481835,3.0319092,9.302816,0.65993431409523339507,1.5065514,10.988788,0.45190558,2.9803863,9.268396,1.1766521409523339510,1.5227122,10.405799,-0.6512229,2.8629963,9.305683,1.17384911409523339522,2.3995886,10.313622,0.49679685,2.747322,9.351048,1.0865141409523339542,1.7537527,10.111312,0.038307227,2.7323725,9.359742,1.04869311409523339543,0.88405895,10.113707,-0.641646,2.6819866,9.381035,0.986673531409523339550,0.78529817,10.751761,-1.376666,2.5699859,9.425352,0.85341311409523339588,1.0199299,13.178884,-2.5917234,2.430876,9.476569,0.675188241409523339590,1.2952632,18.405426,-4.811148,2.2792268,9.528815,0.42092241409523339591,2.0260932,19.608511,-5.463568,2.0928922,9.580685,0.026163931409523339614,-0.96426475,19.608511,-5.506664,1.9697593,9.601326,-0.323980481409523339616,-5.495291,19.48102,-11.9746,1.6604236,9.644891,-0.62404671409523339618,-7.6051817,12.529456,-10.679935,1.820646,9.631011,-0.315090331409523339656,-7.683592,7.1065893,-4.0922894,0.3599822,9.603111,-1.95474851409523339658,-3.5500026,8.191162,3.1280246,-0.29268634,9.569557,-2.12327651409523339659,-1.8800468,9.357139,-0.7858967,-0.5632581,9.636084,-1.73177641409523339662,-0.86729956,9.0794115,-5.4982843,-0.6210049,9.642659,-1.67447821409523339664,-0.7410054,7.5028296,-7.217321,-0.6008692,9.578825,-2.0138181409523339671,-1.1701661,4.587889,-3.9630024,-0.5892991,9.4750805,-2.4588531409523339706,-0.7272388,2.8413188,-2.5091233,-0.65563864,9.412095,-2.67450361409523339707,0.021547815,3.120842,-1.6927006,-0.7082703,9.369712,-2.80664561409523339708,-0.6979098,3.2758665,-1.0348936,-0.6831344,9.348676,-2.88201831409523339710,-0.21547815,3.4530375,-0.66020113,-0.71514356,9.343435,-2.89122181409523339748,0.017956512,3.9731777,-0.28191724,-0.6891266,9.356807,-2.854061409523339749,0.08020575,4.3514614,0.16998832,-0.6300507,9.388488,-2.7621971409523339750,-0.19991584,4.368221,-0.48722005,-0.5712141,9.437001,-2.60521391409523339751,-0.62009823,4.07553,-1.1360487,-0.5555356,9.460742,-2.52114221409523339773,-1.0827777,4.0426097,-1.91596,-0.61276454,9.453283,-2.5358081409523339774,-1.7705121,3.8774097,-2.5558102,-0.72782874,9.412651,-2.6537981409523339812,-2.7688942,3.5745432,-2.3942018,-0.93653077,9.332519,-2.8631121409523339812,-3.494936,3.4141316,-2.0907366,-1.2974958,9.231083,-3.045331409523339813,-3.7337575,3.281852,-2.1906946,-1.7653002,9.109857,-3.17248321409523339814,-3.5470097,3.1316159,-1.8722657,-2.2540014,8.953034,-3.30651641409523339843,-3.3877954,2.9107506,-1.5741876,-2.6992164,8.802988,-3.37521151409523339844,-2.9322984,3.217807,-1.7082629,-3.0962567,