time,acc_x,acc_y,acc_z,gravity_x,gravity_y,gravity_z1409523027351,0.30226797,-10.17416,-0.8331822,0.58718437,-9.696967,-1.33955921409523027361,0.24181437,-10.149619,-0.7290344,0.5810703,-9.695823,-1.35047981409523027372,0.21188685,-10.1861315,-0.6889315,0.57255554,-9.694903,-1.36067141409523027390,0.18195933,-10.202292,-0.66738373,0.5629563,-9.694183,-1.3697751409523027391,0.18914193,-10.201694,-0.6572084,0.55217826,-9.693791,-1.37691371409523027405,0.23702596,-10.1699705,-0.59615624,0.5414979,-9.6936035,-1.3824741409523027409,0.32022446,-10.131663,-0.55006784,0.5298001,-9.6938505,-1.38527351409523027422,0.41838676,-10.107721,-0.5979519,0.5178391,-9.694399,-1.38595121409523027440,0.52732295,-10.08737,-0.7254431,0.507261,-9.694973,-1.38585131409523027443,0.6051345,-9.991004,-0.8487445,0.49908468,-9.695448,-1.3854981409523027472,0.6512229,-9.911995,-0.8858546,0.4929811,-9.695865,-1.3847641409523027473,0.66858083,-9.859323,-0.87448215,0.48936436,-9.69633,-1.38277981409523027474,0.65900403,-9.8515415,-0.90979666,0.48798665,-9.696676,-1.38083361409523027504,0.6356605,-9.8994255,-0.98341835,0.4870102,-9.697396,-1.3761251409523027505,0.58777654,-9.988011,-1.1390414,0.48806292,-9.698361,-1.36893141409523027505,0.5602432,-10.035895,-1.2174516,0.49073535,-9.69954,-1.35959941409523027509,0.55365914,-10.07121,-1.287482,0.4948954,-9.700942,-1.34803721409523027523,0.4973954,-10.063428,-1.2964603,0.49971625,-9.702247,-1.33682631409523027538,0.4321534,-10.078991,-1.287482,0.5038155,-9.703199,-1.32835021409523027541,0.39923313,-10.113108,-1.2922704,0.5068404,-9.703723,-1.32335631409523027557,0.36032736,-10.088568,-1.2593501,0.50978464,-9.704032,-1.3199691409523027577,0.3333926,-10.088568,-1.2725182,0.51192605,-9.703968,-1.31959761409523027577,0.31483752,-10.1382475,-1.2856863,0.5127999,-9.703601,-1.32195451409523027588,0.31423897,-10.187328,-1.2599486,0.51247984,-9.703106,-1.32572071409523027589,0.33399114,-10.119692,-1.1719618,0.51090515,-9.702518,-1.3306021409523027606,0.35673606,-10.024523,-1.0498575,0.5078557,-9.701861,-1.33655491409523027609,0.39444473,-9.89344,-0.93373865,0.5027461,-9.701116,-1.34387271409523027623,0.4189853,-9.767146,-0.86610246,0.49541855,-9.700272,-1.35264961409523027639,0.4213795,-9.718064,-0.83258367,0.4871993,-9.699434,-1.36161331409523027641,0.43634325,-9.668385,-0.82899237,0.47725686,-9.698618,-1.37091161409523027665,0.4782418,-9.595362,-0.79008657,0.46618193,-9.697732,-1.3809711409523027666,0.52612585,-9.600749,-0.75477207,0.454317,-9.696797,-1.39144051409523027670,0.55725044,-9.64564,-0.7404069,0.44149464,-9.695781,-1.40262211409523027701,0.55246204,-9.701305,-0.736217,0.4279773,-9.694612,-1.41481481409523027701,0.52971715,-9.742605,-0.7290344,0.4140984,-9.69332,-1.42773251409523027702,0.47105917,-9.755774,-0.7380127,0.4003522,-9.692003,-1.44054941409523027709,0.38965634,-9.752182,-0.76434886,0.38515055,-9.690731,-1.45321131409523027721,0.3705027,-9.76535,-0.7685388,0.36932665,-9.689641,-1.46453461409523027729,0.3393781,-9.844358,-0.7332243,0.35405603,-9.68863,-1.47494291409523027743,0.30107087,-9.879075,-0.64703304,0.33865678,-9.687679,-1.4847911409523027750,0.2873042,-9.919776,-0.5674258,0.32268238,-9.686777,-1.49419811409523027805,0.2885013,-9.950302,-0.5710171,0.30614188,-9.685861,-1.50358971409523027805,0.31244332,-9.925761,-0.6655881,0.28970775,-9.684911,-1.5129351409523027806,0.36750996,-9.909002,-0.7649474,0.27416912,-9.6838665,-1.52247881409523027806,0.4357447,-9.873089,-0.86969376,0.2605065,-9.683005,-1.53034511409523027806,0.50278234,-9.809045,-0.95349085,0.24810763,-9.682397,-1.53623471409523027810,0.5979519,-9.824008,-1.0223241,0.23651451,-9.681921,-1.5410631409523027823,0.7068881,-9.929952,-1.1384429,0.22650632,-9.681543,-1.54493131409523027842,0.80684596,-9.97604,-1.2485762,0.21790333,-9.681157,-1.54858021409523027842,0.89543146,-9.973047,-1.3365631,0.21036388,-9.680738,-1.55224261409523027857,0.95468795,-9.992201,-1.3928268,0.20382074,-9.680205,-1.55643561409523027876,1.0175357,-10.001778,-1.4155718,0.19791941,-9.679473,-1.56173871409523027877,1.0953473,-9.974244,-1.3838485,0.19453911,-9.67826,-1.5696691409523027892,1.2228385,-9.951499,-1.3497312,0.19417292,-9.676446,-1.58084861409523027892,1.3437457,-9.888053,-1.3239936,0.19718379,-9.673935,-1.59577951409523027907,1.4030021,-9.73662,-1.3180081,0.20458296,-9.670727,-1.61418351409523027910,1.42455,-9.618706,-1.3102269,0.217633,-9.666952,-1.63494781409523027924,1.3652935,-9.646837,-1.4065934,0.2380974,-9.6629505,-1.65562361409523027937,1.276708,-9.764751,-1.508347,0.26227877,-9.658792,-1.67611851409523027941,1.1097125,-9.867104,-1.6340426,0.29256022,-9.654752,-1.69427571409523027955,0.84216046,-10.064626,-1.6938977,0.3277113,-9.651029,-1.7089931409523027973,0.37588966,-10.199299,-1.6537948,0.36580607,-9.647942,-1.71865941409523027973,-0.219668,-10.292074,-1.5981296,0.40509617,-9.645674,-1.72258071409523027989,-0.7505822,-10.423157,-1.4933833,0.44331253,-9.644521,-1.7196221409523027990,-1.258153,-10.62427,-1.3497312,0.4773837,-9.645255,-1.7063321409523028006,-1.6705543,-10.827777,-1.1534066,0.5010691,-9.648526,-1.68085061409523028011,-2.0338743,-11.058818,-1.0013748,0.514386,-9.653385,-1.64862131409523028028,-2.236783,-11.020511,-0.931943,0.514749,-9.660971,-1.6034641409523028030,-2.3397336,-10.669162,-0.6721721,0.5010922,-9.671053,-1.54596951409523028043,-2.48159,-10.423157,-0.8936358,0.4757985,-9.683417,-1.47493891409523028068,-2.9281087,-10.738593,-1.6597804,0.44354692,-9.696622,-1.39612541409523028069,-3.5583823,-11.359888,-1.9602526,0.4055527,-9.709228,-1.31788131409523028070,-4.146757,-11.23958,-1.8375498,0.35739568,-9.720585,-1.24615671409523028104,-3.9959226,-10.516531,-1.4185646,0.3010665,-9.730625,-1.18096421409523028104,-2.7629087,-9.288305,-0.908001,0.23503567,-9.73788,-1.13527861409523028105,-1.8381484,-8.587403,-0.5943606,0.16528204,-9.741809,-1.1136581409523028110,-1.4203602,-8.409634,-0.39683893,0.081710026,-9.7422905,-1.11870431409523028135,-1.1150994,-8.542512,-0.26635495,-0.008922434,-9.739687,-1.14403311409523028135,-0.6715736,-8.829816,-0.05267244,-0.093964815,-9.734903,-1.18034761409523028142,-0.21068975,-9.174581,-0.022146367,-0.16959932,-9.728217,-1.22615341409523028165,0.18614918,-9.457695,0.04070143,-0.23845951,-9.719015,-1.28617111409523028165,0.45908818,-9.8677025,0.017357962,-0.3019754,-9.708249,-1.35245351409523028170,0.581791,-10.261548,-0.15143326,-0.35827568,-9.694971,-1.43163361409523028196,0.6847417,-10.393828,-0.50996494,-0.39973435,-9.6794615,-1.52270931409523028196,0.86251116,-10.544662,-0.98222125,-0.42002532,-9.6617155,-1.62642051409523028202,1.1480197,-10.726623,-1.4119805,-0.41467473,-9.641948,-1.74105541409523028225,1.6430209,-10.421362,-1.8297687,-0.38313234,-9.62075,-1.86138691409523028226,2.1158757,-9.874287,-2.1547816,-0.32823858,-9.599282,-1.97900411409523028240,2.6617537,-9.534908,-2.9442697,-0.25947133,-9.577202,-2.09290841409523028242,2.847903,-9.660604,-3.3686419,-0.18019788,-9.555391,-2.19827751409523028264,2.7180176,-9.659407,-3.8205473,-0.09540771,-9.533685,-2.29568151409523028265,2.3229742,-9.404425,-3.9199066,-0.007965572,-9.510846,-2.3904221409523028270,1.7106571,-9.35235,-3.345897,0.077649646,-9.487163,-2.48155761409523028292,1.1677719,-9.539697,-2.1930888,0.15395635,-9.465116,-2.560911409523028292,0.91099375,-9.642049,-1.2515689,0.21751258,-9.447449,-2.62084131409523028308,0.62009823,-9.828198,-0.8571242,0.26474252,-9.435254,-2.660131409523028322,0.24420857,-10.311228,-0.7577648,0.2899933,-9.426114,-2.68974181409523028322,-0.08678981,-10.776301,-0.6655881,0.3090037,-9.4221115,-2.70161371409523028339,-0.18914193,-10.952874,-0.42676646,0.3199743,-9.421511,-2.70243171409523028355,-0.39683893,-10.93791,-0.22744916,0.32990417,-9.4218025,-2.70021991409523028356,-0.87208796,-10.980408,-0.13108255,0.33961132,-9.42103,-2.70171381409523028372,-1.3862427,-11.354502,-0.22685061,0.35087037,-9.419313,-2.70626021409523028373,-1.7776948,-11.853094,-0.32680854,0.3692045,-9.417732,-2.7093181409523028390,-2.0721815,-12.158355,-0.32561144,0.39623484,-9.41695,-2.7082211409523028391,-2.6701334,-12.304401,-0.1448492,0.43105596,-9.417906,-2.69956831409523028409,-4.2556934,-12.902951,-0.7284359,0.46091363,-9.421632,-2.68157221409523028422,-5.883152,-13.926473,-1.7699136,0.47473553,-9.4274,-2.65878681409523028423,-6.8186865,-14.16709,-3.4757824,0.4638,-9.435241,-2.63277551409523028438,-6.235698,-13.412916,-1.2814964,0.429175,-9.439395,-2.62374521409523028442,-4.903325,-12.748526,0.5823896,0.39119393,-9.443627,-2.614431409523028455,-4.8781857,-12.879009,0.59615624,0.35863853,-9.440522,-2.63027291409523028475,-5.140351,-12.563574,-0.5895722,0.32959217,-9.432468,-2.6627621409523028476,-4.7375264,-11.683704,-1.2641385,0.31215602,-9.414119,-2.7289821409523028488,-4.223372,-11.179725,-0.3393781,0.32734716,-9.389611,-2.81041341409523028490,-4.1545386,-11.835736,2.6515784,0.35847455,-9.364076,-2.89066531409523028506,-3.582923,-12.810176,11.508329,0.38174057,-9.345632,-2.9468311409523028521,-3.4943373,-13.706804,15.430032,0.38679728,-9.370275,-2.8668271409523028523,-3.0101101,-13.160328,8.090008,0.37417,-9.432288,-2.65750581409523028538,-2.1936872,-12.033856,3.3105824,0.36270958,-9.477014,-2.49500131409523028543,-1.395221,-11.228208,5.183447,0.36237538,-9.518617,-2.33130551409523028560,-2.2170308,-11.530476,1.9752164,0.34699374,-9.580942,-2.0628891409523028562,-2.6803088,-11.632229,-0.12150574,0.2985992,-9.630558,-1.82581061409523028570,-2.7563248,-11.5616,-2.297835,0.23356202,-9.673507,-1.5934641409523028591,-2.4899697,-11.314998,-5.0302176,0.14755349,-9.710286,-1.36342541409523028591,-2.1739352,-12.106879,-5.523423,0.033185426,-9.738249,-1.15577791409523028611,-2.3181858,-12.621633,-4.5022964,-0.10500461,-9.7586775,-0.96310661409523028612,-1.8525136,-12.409147,-3.667917,-0.2567009,-9.773097,-0.768812241409523028622,-1.2300211,-12.310387,-3.1962593,-0.41837353,-9.780235,-0.58508181409523028647,1.5454572,-14.537593,-1.3724761,-0.5892537,-9.780318,-0.41053921409523028648,3.6236243,-17.310078,-0.3681085,-0.7398799,-9.776023,-0.228833271409523028651,6.631939,-19.512743,-0.7673417,-0.86787415,-9.768069,-0.044804541409523028676,7.5285673,-19.608511,-2.3660698,-0.95014274,-9.759571,0.135621431409523028676,4.602853,-18.020557,-2.9867666,-1.025647,-9.747661,0.318682221409523028682,2.2307975,-14.604032,-4.059369,-1.1369437,-9.726345,0.52532761409523028690,-0.045489833,-13.136386,-4.1437645,-1.2665155,-9.696915,0.732238351409523028717,-1.3748703,-11.683704,-4.011485,-1.3712741,-9.66605,0.925996361409523028717,-0.712275,-10.548853,-2.878429,-1.4713885,-9.634925,1.08334851409523028722,-0.47405192,-10.597934,-1.6537948,-1.5911624,-9.602278,1.19784491409523028748,-1.1270704,-11.021708,-2.5258827,-1.7558553,-9.563617,1.27459241409523028748,0.18016368,-9.660604,-2.0159178,-1.944755,-9.520833,1.319871409523028751,0.8858546,-8.281544,-0.74998367,-2.1116571,-9.476634,1.38010361409523028775,1.0372878,-7.608773,-2.6426,-2.2600338,-9.4306345,1.45799731409523028776,1.5077485,-7.422025,-6.284181,-2.4052472,-9.384395,1.52259741409523028782,2.3852234,-6.5744777,-8.085219,-2.5422573,-9.342435,1.55763651409523028790,2.8951883,-5.7203465,-3.9893386,-2.674264,-9.302293,1.5767241409523028812,2.5390508,-5.369596,-0.9516952,-2.8041608,-9.256039,1.62259651409523028813,2.2152352,-5.119402,-1.982399,-2.9084954,-9.212119,1.68757131409523028825,2.6862943,-4.282628,-2.166154,-2.9626238,-9.176856,1.78285281409523028852,2.4546554,-3.8600516,-1.8896236,-2.9792151,-9.146953,1.90471181409523028852,2.8335378,-3.7774518,-1.2952632,-2.9889565,-9.11782,2.0253151409523028853,3.1352072,-3.6990416,-1.4628572,-2.9833446,-9.09344,2.13995481409523028882,4.1305966,-2.9173348,-1.6418238,-2.9677527,-9.073295,2.24458481409523028882,5.373187,-2.3229742,-1.6418238,-2.9511979,-9.056687,2.33178471409523028885,6.0345855,-2.131438,-1.8590976,-2.939437,-9.046287,2.38638111409523028891,6.063316,-2.3050177,-2.2164323,-2.929871,-9.04573,2.40021681409523028911,5.7963624,-2.6701334,-2.4450784,-2.9124677,-9.057695,2.37615061409523028911,5.573103,-2.7886465,-2.1697452,-2.878373,-9.079662,2.3334671409523028922,5.3396683,-2.907758,-1.8890251,-2.8335245,-9.108871,2.27376221409523028940,4.708796,-3.453636,-1.7950528,-2.7635126,-9.148071,2.20139961409523028957,3.9193082,-4.7040076,-1.6783354,-2.6677897,-9.195926,2.11854621409523028958,2.7443538,-7.3178773,-0.089782566,-2.5472078,-9.25263,2.0176651409523028974,-2.8401217,-15.093047,13.324331,-2.4035378,-9.317557,1.89117341409523028975,-15.244481,-19.608511,19.608511,-2.2441165,-9.358941,1.88269151409523028982,-19.60911,-19.608511,15.741877,-2.1101902,-9.423885,1.70525441409523028991,-19.60911,-19.608511,5.0451818,-1.9982845,-9.472243,1.56648671409523029017,-17.237055,-16.192585,1.6352397,-1.9834456,-9.479881,1.53889431409523029017,-7.8493905,-10.535086,3.7457285,-2.0738893,-9.469517,1.48244351409523029023,-7.904457,-12.3038025,4.735731,-3.9594526,-8.63684,2.42860941409523029047,-3.5033157,-10.33936,5.1744685,-4.094586,-8.564378,2.46093681409523029048,-0.43634325,-8.561067,3.6062663,-3.9519777,-8.567705,2.6733311409523029052,1.8148049,-6.7648168,1.4748282,-3.7131011,-8.617672,2.84938551409523029076,3.9228995,-6.229114,-1.0528502,-3.328607,-8.747707,2.92717841409523029076,6.1117983,-8.549694,-3.9402575,-2.7905304,-8.986644,2.761081409523029082,8.016386,-10.959458,-5.1810527,-2.0198534,-9.332106,2.2366051409523029112,8.0445175,-10.399814,-4.9081135,-1.0414222,-9.629482,1.5358741409523029112,5.94181,-9.411607,-4.050989,-0.12087328,-9.764027,0.905307651409523029113,3.8857894,-11.018116,-3.8414967,0.523226,-9.784159,0.408521771409523029138,1.3060371,-15.6233635,0.30286652,0.88158584,-9.766797,-0.053737731409523029139,-0.17178397,-16.569073,3.7271736,0.88635004,-9.765959,-0.103919221409523029156,0.866701,-14.562133,4.305373,0.7484303,-9.776523,0.172740251409523029156,2.8173769,-11.277288,2.5881321,0.72290164,-9.770385,0.432869171409523029177,3.3117795,-9.063849,0.676362,0.86228347,-9.749086,0.618209661409523029178,3.1531637,-8.291121,-0.7787141,1.0652215,-9.724388,0.686992941409523029184,3.1280246,-8.295909,-1.5442601,1.278478,-9.702614,0.628634041409523029205,2.248754,-8.74123,-2.6030958,1.4866426,-9.681317,0.482049381409523029206,1.7184383,-9.0016,-2.8377275,1.6018881,-9.67241,0.22094871409523029221,1.7088615,-8.862736,-2.508525,1.6590891,-9.665116,-0.057886081409523029222,1.6609775,-9.09258,-2.0937295,1.6977818,-9.654208,-0.290120421409523029236,1.0905589,-9.888053,-2.0147207,1.726336,-9.642623,-0.458243551409523029251,0.521936,-10.757747,-2.1918917,1.6788883,-9.643029,-0.6030891409523029252,0.08259996,-11.691485,-2.3343468,1.5717168,-9.651112,-0.74574621409523029268,-0.29628247,-12.257714,-2.3373394,1.4188445,-9.663613,-0.878561561409523029271,-0.6123171,-12.0649805,-2.1086931,1.2358564,-9.678177,-0.987904851409523029288,-0.99179804,-11.55741,-1.678934,1.0435137,-9.692816,-1.06338821409523029307,-1.3748703,-11.048044,-1.4688427,0.8414698,-9.708827,-1.09588651409523029308,-1.5412674,-10.421362,-1.2533646,0.63525575,-9.723258,-1.10684781409523029311,-1.553837,-9.836577,-1.0546459,0.42957595,-9.73472,-1.10501181409523029323,-1.4311341,-9.332,-1.0420763,0.23696868,-9.742466,-1.09480811409523029343,-1.22224,-8.847174,-1.0672154,0.06888737,-9.745089,-1.09493521409523029343,-1.1563994,-8.611345,-1.3042414,-0.061200906,-9.744011,-1.10492591409523029352,-2.3852234,-8.593389,-2.2505496,-0.16436552,-9.738627,-1.14127311409523029390,-6.0345855,-9.967062,-3.7229836,-0.37033904,-9.71676,-1.27192581409523029391,-5.6784477,-9.762358,-3.0998926,-0.9005992,-9.649033,-1.50183021409523029392,-4.359243,-8.775348,-2.3439236,-1.3372347,-9.566341,-1.69331091409523029418,-3.4332852,-8.603564,-2.831742,-1.6245761,-9.493273,-1.84632351409523029418,-2.7168205,-8.677784,-4.1575313,-1.8099145,-9.426341,-2.0096621409523029419,-2.0500352,-8.804677,-4.3197384,-1.8976161,-9.357507,-2.23752361409523029444,-1.2120646,-8.969278,-2.9502552,-1.9060067,-9.302623,-2.44922521409523029444,-0.51235914,-9.19134,-1.5388732,-1.8373177,-9.294378,-2.53164171409523029445,-0.4770447,-9.361329,-0.81761986,-1.7156615,-9.330803,-2.48254851409523029452,-0.5506664,-9.518148,-0.31423897,-1.6090263,-9.383475,-2.35198041409523029472,-0.6452374,-9.549872,-0.14724341,-1.5033494,-9.438531,-2.19646671409523029473,-0.8098387,-9.632472,-0.23463176,-1.4187174,-9.488718,-2.03023891409523029503,-0.9343372,-9.82341,-0.25079262,-1.2950331,-9.588488,-1.59818321409523029503,-1.0133458,-10.111312,-0.1604115,-1.2950331,-9.588488,-1.59818321409523029504,-1.1073183,-10.572795,0.17357962,-1.2950331,-9.588488,-1.59818321409523029527,-1.3862427,-11.428123,0.52133745,-1.2793403,-9.616822,-1.43191331409523029528,-1.7513585,-12.301409,0.75237787,-1.2748709,-9.643794,-1.24190651409523029533,-2.1589713,-12.94066,1.4101849,-1.2968718,-9.664031,-1.04643191409523029567,-2.3942018,-13.29141,5.288193,-1.3430377,-9.679982,-0.815218031409523029579,-2.1894975,-13.25071,8.942942,-1.4024174,-9.701991,-0.273811761409523029579,-1.6142905,-13.467384,11.947665,-1.4399364,-9.688097,0.48760221409523029602,-1.3018472,-14.390349,19.566015,-1.4219865,-9.612714,1.32065071409523029602,-2.6162639,-14.878766,11.836334,-1.4980232,-9.6530695,0.862869261409523029603,-4.4514194,-13.347674,-7.3819222,-1.5189977,-9.169051,3.12914251409523029605,-4.623802,-12.928091,-12.343307,-1.7313501,-9.359015,2.36255221409523029619,-4.807557,-13.544598,-10.531495,-1.8818411,-9.512553,1.46300961409523029636,-4.4675803,-13.774441,-5.2259436,-1.9848922,-9.584285,0.609973251409523029636,-5.6766524,-14.192827,-1.5771804,-2.059888,-9.587137,0.11860121409523029652,-6.699575,-14.68723,3.681085,-2.2169971,-9.552346,-0.089497931409523029652,-7.3442135,-14.876372,13.496115,-2.41826,-9.502869,0.133841251409523029670,-6.5325794,-14.880562,16.984467,-2.6288457,-9.387419,1.06579481409523029671,-4.947618,-14.927249,13.860034,-2.5857565,-9.404348,1.02103221409523029684,-3.4769795,-13.268666,2.1045034,-2.774991,-8.961738,2.85605651409523029704,-2.043451,-11.652579,-3.6894648,-2.8497658,-8.941243,2.84664851409523029705,-1.5298948,-12.318168,-2.926313,-2.859486,-9.051402,2.46289161409523029720,-2.2050598,-12.638392,-4.4603977,-2.7590885,-9.177273,2.08217571409523029737,-2.754529,-12.7497225,-7.9756846,-2.6599083,-9.299104,1.61924141409523029737,-2.4570496,-11.872248,-8.596381,-2.6217341,-9.402111,0.94721191409523029756,-2.1619642,-10.372879,-7.803302,-2.6063702,-9.450676,0.248960151409523029756,-1.3640964,-9.640852,-6.727707,-2.587544,-9.45329,-0.332180351409523029763,-0.13587095,-14.111424,-4.2078094,-2.5173979,-9.443367,-0.80988561409523029771,1.411382,-18.777723,-0.7763199,-2.2872825,-9.482786,-1.00770211409523029786,4.7734394,-19.608511,2.047641,-1.9093375,-9.5766115,-0.90183981409523029808,11.651382,-19.608511,2.2984335,-1.3472184,-9.693667,-0.62303111409523029809,9.490616,-19.548656,2.5222914,-1.5534736,-9.676659,-0.34549591409523029812,3.8977604,-15.838243,-0.97144735,0.2886375,-9.801382,-0.141247381409523029840,2.0829554,-12.326548,-6.179435,0.5785379,-9.788047,-0.172620281409523029841,1.4616601,-10.383054,-7.730279,0.70068043,-9.765592,-0.559145751409523029845,0.012569559,-9.772532,-3.7642837,0.78846306,-9.722824,-1.00768271409523029852,-0.54527944,-10.018537,-1.3156139,0.71206456,-9.708334,-1.18810361409523029879,0.7278373,-9.352949,-3.2860417,0.5840613,-9.712108,-1.22647831409523029879,1.7914615,-7.404069,-5.5790887,0.563081,-9.690027,-1.39882091409523029883,2.0039468,-5.7245364,-6.471527,0.6423659,-9.633028,-1.72119021409523029913,1.6328455,-5.2325277,-6.8426285,0.7791613,-9.543493,-2.1177941409523029914,1.0755951,-4.6603136,-6.727108,0.90255123,-9.4265175,-2.54883931409523029914,-0.08738836,-4.0946836,-3.74513,0.97500384,-9.291996,-2.9796941409523029945,-0.9540894,-3.982156,-1.3329718,0.9043036,-9.223602,-3.20589691409523029945,-0.4866215,-4.0001125,-0.7751228,0.7215102,-9.225055,-3.24780181409523029946,0.7128736,-3.7618895,-1.8602947,0.5853282,-9.243567,-3.22246051409523029952,2.0386627,-3.3734303,-2.8072014,0.6023492,-9.218944,-3.2891721409523029972,3.2477345,-2.722806,-2.5372553,0.8028058,-9.142578,-3.45530371409523029973,3.9151182,-2.3038206,-2.2697031,1.1749276,-9.043353,-3.6066211409523029983,4.39755,-2.11827,-2.2876596,1.6309158,-8.91424,-3.74790841409523030009,5.04997,-1.9871874,-2.2182279,2.1645656,-8.736516,-3.89337641409523030009,5.418677,-1.8926164,-2.5264814,2.7781634,-8.505777,-4.0129721409523030012,5.3624134,-1.775899,-3.3039982,3.4151747,-8.206636,-4.1422321409523030044,5.557541,-1.4053963,-4.050989,3.989605,-7.834043,-4.3452551409523030045,5.474941,-1.5502456,-4.455011,4.535133,-7.368723,-4.6157251409523030046,5.073912,-2.1996727,-4.0701427,4.986271,-6.886871,-4.8865611409523030052,4.941034,-3.6894648,-2.7329812,5.3007007,-6.526415,-5.0476631409523030070,4.812944,-5.9465985,0.8146271,5.53897,-6.3834705,-4.9740851409523030086,3.3554738,-10.652402,10.183737,5.748911,-6.6303873,-4.37702751409523030086,-6.39611,-18.986618,19.608511,5.709422,-7.603935,-2.39855771409523030106,-19.219454,-19.608511,19.608511,5.791281,-7.4800506,-2.58462791409523030106,-19.60911,-19.608511,15.328278,5.865597,-7.3663626,-2.73895861409523030112,-14.793773,-18.495209,8.114548,5.8678656,-7.3065963,-2.89002011409523030133,-4.5992613,-7.767389,4.3047748,5.7913437,-7.29789,-3.06129311409523030134,-7.2909427,-7.256227,3.9372647,-2.777063,-8.617089,3.76883031409523030151,-2.4067712,-5.0242324,2.7581203,-3.2677293,-8.474877,3.69713381409523030152,-0.033518825,-5.8083334,-0.5686229,-3.3215182,-8.457342,3.68934581409523030173,-0.046686932,-6.1261635,-3.1663318,-3.1622486,-8.604602,3.48301721409523030174,0.31124622,-5.357026,1.5502456,-2.9631295,-8.834526,3.05636881409523030183,1.9237411,-5.4976854,1.216853,-2.6834528,-8.917486,3.07374571409523030213,4.482544,-9.002198,-2.7509377,-2.2603717,-9.04511,3.04090381409523030213,6.289568,-11.331757,-4.5244427,-1.5434058,-9.363237,2.47347261409523030214,5.318719,-12.676101,-6.0166287,-0.6296683,-9.631722,1.73315991409523030246,3.8732197,-14.302362,-5.5760956,0.059838384,-9.765771,0.89247731409523030248,2.8443117,-17.512987,-4.4514194,0.49441376,-9.792251,0.194351481409523030248,1.7962499,-18.979435,-1.9393034,0.7236518,-9.7754345,-0.29594491409523030252,2.1883004,-17.376518,-0.107739076,0.7795538,-9.76254,-0.50546911409523030277,3.4183214,-14.476541,0.973243,0.8341195,-9.7556715,-0.54908731409523030277,3.781043,-11.620856,0.91458505,0.97252667,-9.748083,-0.446630271409523030284,3.311181,-8.778939,0.3728969,1.1721798,-9.730781,-0.329094021409523030309,2.8694508,-7.2550297,-0.260968,1.3599905,-9.708989,-0.237416711409523030309,2.6551697,-6.5948286,-0.80325466,1.5405654,-9.682663,-0.207627731409523030312,2.3983915,-6.4098763,-0.91817635,1.7016459,-9.654707,-0.247881711409523030336,2.131438,-6.3326635,-0.94092125,1.8349005,-9.628181,-0.318902581409523030336,2.184709,-7.429208,-1.146224,1.9412005,-9.604341,-0.398473561409523030352,2.3235726,-8.559271,-1.323395,2.022607,-9.583502,-0.485750261409523030352,2.0021513,-10.654198,-1.5275006,2.0842583,-9.565283,-0.575861631409523030369,0.99419224,-12.972981,-1.7244238,2.0660954,-9.563941,-0.65778821409523030385,-0.019752163,-14.507067,-1.9369092,1.9218934,-9.588604,-0.731721161409523030386,-0.6769605,-14.450803,-1.8555063,1.6919177,-9.62666,-0.796998261409523030400,-1.0307038,-13.224373,-1.596334,1.4374133,-9.665124,-0.83044521409523030403,-1.1510124,-11.772888,-1.2503718,1.1844188,-9.6994,-0.83018831409523030414,-1.2246342,-10.649409,-1.0618285,0.9502473,-9.727182,-0.80583591409523030434,-1.2431892,-10.111911,-1.0995371,0.7373627,-9.747423,-0.78385851409523030434,-1.1671734,-9.510367,-1.0181342,0.55471915,-9.759229,-0.787493651409523030450,-1.0803835,-8.674192,-1.1312603,0.3945777,-9.766891,-0.789018631409523030452,-1.453879,-8.353969,-2.086547,0.26127633,-9.768771,-0.820500431409523030468,-2.183512,-8.328231,-2.8820202,0.10637188,-9.75968,-0.952732151409523030482,-3.4452562,-8.811261,-3.7912183,-0.1005252,-9.736747,-1.1644961409523030483,-4.0641575,-9.409811,-4.135385,-0.40965253,-9.687345,-1.46899441409523030499,-4.2054152,-9.561244,-3.9205053,-0.7446368,-9.612647,-1.7924511409523030517,-4.0013094,-9.157223,-3.3141737,-1.0627289,-9.535178,-2.03012371409523030518,-2.984971,-8.489241,-1.3910311,-1.336694,-9.460448,-2.20988131409523030532,-2.3145945,-8.294113,-0.095768064,-1.5246701,-9.436699,-2.18963431409523030533,-2.235586,-8.418612,-0.11372458,-1.6359854,-9.45166,-2.03963641409523030549,-2.0452468,-8.127716,-0.4878186,-1.7148262,-9.469487,-1.88642311409523030552,-1.7878702,-7.716512,-0.50757074,-1.7633305,-9.481168,-1.78002141409523030567,-1.2671312,-7.371747,-0.09995792,-1.7954943,-9.490587,-1.69567871409523030584,-1.134253,-7.355586,0.26396075,-1.7897153,-9.510134,-1.58892291409523030584,-1.4155718,-7.9212165,0.25318682,-1.7715691,-9.536098,-1.44733691409523030599,-1.5861586,-8.789114,0.15682021,-1.7762604,-9.55504,-1.31015551409523030613,-1.7585411,-9.754577,0.17178397,-1.7767937,-9.572119,-1.17811241409523030614,-1.9752164,-10.605715,0.25378537,-1.7756555,-9.587559,-1.04699081409523030633,-2.0925324,-11.320384,0.40222588,-1.7813141,-9.599786,-0.91728631409523030633,-2.1200657,-11.844714,0.7290344,-1.7843401,-9.610685,-0.788186551409523030648,-2.2260091,-12.45763,1.4293385,-1.780632,-9.6221285,-0.64371241409523030652,-2.4247277,-13.326127,3.4446578,-1.777749,-9.633473,-0.45407721409523030668,-2.2421699,-13.53921,4.268862,-1.7782689,-9.643555,-0.099985911409523030681,-2.2463598,-13.515867,3.5110967,-1.7618281,-9.643832,0.250720471409523030685,-2.3301568,-13.204022,3.083732,-1.7643803,-9.637754,0.413591621409523030698,-2.2840683,-12.671312,6.8408327,-1.7961473,-9.629493,0.465979251409523030716,-4.110844,-13.585299,18.786703,-1.8285578,-9.594826,0.87525381409523030716,-6.8743515,-15.290569,12.575544,-1.9017879,-9.612772,0.384976481409523030734,-8.019379,-14.065935,-4.8979383,-2.244781,-9.091813,2.91037271409523030735,-6.701969,-12.895769,-9.1255,-2.587169,-9.173983,2.30542521409523030750,-5.4563856,-14.471153,-2.2697031,-2.8312492,-9.2503805,1.60775731409523030754,-5.286996,-15.346234,10.205285,-2.898552,-9.2713995,1.34534921409523030771,-4.7459064,-17.23047,19.266142,-2.8438563,-9.19258,1.89191591409523030772,-5.0757074,-17.92898,13.6092415,-2.7754872,-9.205265,1.93136671409523030784,-5.121796,-15.786767,-1.3054385,-2.7138815,-9.203368,2.02564881409523030807,-6.332065,-14.666281,-7.2885485,-2.7343442,-8.888554,3.11245351409523030808,-7.0646906,-13.835493,-5.946,-2.9915595,-9.015679,2.43691409523030813,-7.0132155,-13.210008,-6.1106014,-3.1984158,-9.084903,1.8452851409523030842,-6.029797,-12.870031,-7.7949224,-3.3990471,-9.112877,1.25392951409523030843,-5.5264163,-11.825561,-7.9810715,-3.5234494,-9.130687,0.62149011409523030844,-4.150947,-9.884461,-7.098808,-3.6287856,-9.110429,0.0486867281409523030853,-2.871845,-8.56825,-6.415862,-3.6793208,-9.081768,-0.393011331409523030877,-2.2290018,-8.81964,-6.3105173,-3.66862,-9.063929,-0.746204141409523030877,-1.2252327,-10.778696,-6.183026,-3.6023805,-9.055306,-1.09300121409523030884,0.51595044,-15.1774435,-5.561132,-3.4170072,-9.080531,-1.42772541409523030907,7.1945763,-19.58038,-0.9247604,-3.035441,-9.17788,-1.65014061409523030919,9.254189,-19.608511,1.0965444,-2.1578674,-9.448375,-1.49741661409523030920,6.577471,-17.847576,1.8183962,-1.2298825,-9.652534,-1.21915791409523030941,4.3167458,-13.447034,-1.3970166,-0.57880044,-9.74082,-0.97560421409523030942,3.9199066,-11.528081,-4.96318,-0.14351124,-9.7513275,-1.0302551409523030944,3.9713821,-9.618107,-4.8841715,0.19714579,-9.722436,-1.2671691409523030968,4.4220905,-7.913435,-1.9871874,0.4709747,-9.684422,-1.46987411409523030968,4.787805,-7.327454,-1.1629834,0.77001584,-9.661369,-1.49512981409523030984,3.99293,-6.5218053,-3.328539,1.0485817,-9.636779,-1.48437521409523030986,3.3207579,-5.3085437,-5.225345,1.2755435,-9.580199,-1.66226161409523031000,3.441665,-4.5537715,-6.0172276,1.475015,-9.4862995,-2.00120661409523031019,1.869273,-4.3837833,-7.017405,1.710966,-9.349589,-2.4141631409523031019,0.12808979,-3.8714242,-4.522647,1.795919,-9.185499,-2.92774221409523031024,-1.6657659,-4.0982747,-2.9011738,1.7072339,-9.089678,-3.26090461409523031033,-1.6095021,-4.3101616,-1.1498153,1.4162694,-9.072724,-3.44242481409523031056,-0.45010993,-4.553173,-1.0552444,1.1377128,-9.104865,-3.46084711409523031057,0.23044191,-4.6860514,-2.3409307,0.99993664,-9.135873,-3.42145871409523031065,0.9103952,-4.300585,-3.503914,0.9466037,-9.1176195,-3.48473261409523031090,2.1170728,-3.2638955,-2.7395654,1.0015959,-9.039295,-3.66856241409523031091,3.0280666,-2.48159,-1.5568297,1.2329444,-8.951799,-3.80992131409523031093,3.6685154,-2.1733365,-1.9500773,1.5956537,-8.871487,-3.8627721409523031127,4.518457,-2.0159178,-2.429516,2.05087,-8.729496,-3.96991971409523031127,5.111022,-1.8303672,-3.1585505,2.6133592,-8.511387,-4.1106021409523031128,5.3743844,-1.8602947,-3.9755719,3.2403502,-8.185586,-4.3204991409523031133,5.707178,-1.733402,-4.0958805,3.8362772,-7.770717,-4.5901371409523031156,5.6987987,-2.086547,-3.7582982,4.4140606,-7.305165,-4.8291831409523031156,5.240309,-3.2962172,-2.943671,4.909056,-6.8829594,-4.969551409523031166,4.4196963,-5.0200424,-0.5859809,5.2477565,-6.6472216,-4.94428441409523031182,2.3654714,-8.59698,6.209362,5.448804,-6.7469954,-4.57810071409523031185,-4.4101195,-16.580446,17.891272,5.3857846,-7.5338573,-3.22563221409523031202,-15.275605,-19.608511,17.352575,5.4621115,-7.402379,-3.3971361409523031204,-19.60911,-19.608511,18.298883,5.5479693,-7.2599173,-3.56146621409523031213,-19.153614,-19.608511,16.721106,5.5989394,-7.1566057,-3.68853141409523031234,-6.3979053,-14.359224,7.606379,5.570409,-7.0956173,-3.8461881409523031235,-3.9025488,-10.371682,5.663484,-2.724472,-8.434076,4.1969021409523031253,-2.384625,-8.339603,6.4457893,-2.8602498,-8.39188,4.19114541409523031254,1.3449428,-7.949348,4.465186,-2.8941169,-8.330565,4.28907541409523031265,3.264494,-8.0924015,2.2391772,-2.619081,-8.397874,4.33434151409523031294,3.7786489,-7.577648,2.8748376,-2.1661744,-8.539006,4.3085341409523031295,4.799177,-8.220491,5.2558713,-1.6166662,-8.647375,4.3335541409523031295,5.9705405,-11.919533,4.060566,-0.9679412,-8.689003,4.4423771409523031325,3.9067385,-14.027628,-2.1176715,-0.27776772,-8.81967,4.278631409523031325,2.2056582,-12.633005,-4.745308,0.11722937,-9.1153,3.61495971409523031326,1.7938557,-11.122863,-4.085107,0.30678603,-9.36835,2.88275741409523031333,2.212841,-11.121067,-3.9378633,0.44674423,-9.52601,2.2860371409523031357,2.8592753,-11.599309,-4.213795,0.620956,-9.635262,1.71654341409523031357,2.9532478,-12.460623,-4.747103,0.84268445,-9.70036,1.16760591409523031365,2.0003555,-12.462419,-3.2752678,1.034009,-9.732095,0.62253341409523031381,1.7711107,-10.821792,-2.2122424,1.1128234,-9.740276,0.242926141409523031385,2.9221232,-8.7125,-1.4622587,1.1701237,-9.73649,-0.044146891409523031401,3.603872,-7.953538,-1.3204023,1.3289909,-9.713586,-0.224569221409523031406,3.515885,-7.9104424,-1.8662802,1.5555551,-9.676757,-0.333177481409523031413,2.9358897,-8.176797,-2.1039047,1.7863381,-9.630408,-0.484369041409523031429,2.3612814,-8.154651,-2.0219033,1.9384491,-9.591416,-0.646181941409523031433,2.0404584,-7.716512,-1.5795746,2.039857,-9.558963,-0.79726451409523031450,1.8764555,-7.368156,-1.1450269,2.101248,-9.537112,-0.89367381409523031469,1.7717092,-7.282563,-0.89782566,2.139931,-9.524225,-0.93818751409523031470,1.3449428,-9.020754,-1.2389994,2.1653144,-9.517107,-0.952089131409523031473,0.11192893,-11.562798,-1.5981296,2.1123533,-9.525926,-0.98238371409523031508,-1.4814123,-13.98154,-1.9285295,1.8977529,-9.567037,-1.02016841409523031509,-2.521693,-14.596251,-2.0500352,1.5191475,-9.629667,-1.06400291409523031509,-2.8844144,-13.598467,-1.9177556,1.1003946,-9.683107,-1.0940571409523031513,-2.9765913,-11.911154,-2.3630772,0.701324,-9.718766,-1.10639211409523031535,-3.1136594,-10.757148,-2.2379801,0.32630262,-9.731788,-1.16458191409523031535,-3.1268275,-10.169372,-1.929128,-0.031388532,-9.7307205,-1.2175671409523031545,-2.6396074,-9.630676,-2.1733365,-0.3526324,-9.717674,-1.26997761409523031573,-2.2278047,-9.124901,-3.3147724,-0.58842623,-9.690177,-1.3873041409523031574,-2.6366146,-9.449316,-3.7642837,-0.7459581,-9.647123,-1.59590941409523031575,-3.642778,-9.569026,-3.4302924,-0.90264446,-9.588865,-1.8464361409523031606,-3.5595794,-8.955511,-2.8820202,-1.1322359,-9.527194,-2.03002551409523031607,-2.654571,-8.207323,-1.5275006,-1.3278621,-9.474183,-2.1556961409523031607,-1.6346412,-7.793725,-0.6787562,-1.4555414,-9.458899,-2.14034631409523031613,-0.83737206,-7.911041,-0.34117374,-1.5053049,-9.473358,-2.03958731409523031635,-0.581791,-8.496424,0.11372458,-1.4787966,-9.504854,-1.90822641409523031636,-0.7930793,-9.089587,0.5626374,-1.4136455,-9.547261,-1.73832631409523031647,-0.78410107,-9.391256,0.7092823,-1.3590152,-9.590293,-1.53289911409523031668,-0.7338228,-9.674969,0.5141548,-1.2993828,-9.628021,-1.33537011409523031669,-0.80086046,-9.906608,0.27593175,-1.2381661,-9.65708,-1.17394151409523031674,-0.8810662,-9.864111,0.26515785,-1.1897578,-9.677622,-1.04810111409523031721,-0.9792285,-9.994595,0.44711718,-1.156345,-9.693153,-0.93596951409523031722,-1.3509283,-10.716447,0.7032967,-1.1365362,-9.70614,-0.81823931409523031723,-1.7304093,-11.386824,0.89662856,-1.1482952,-9.715152,-0.683835451409523031724,-1.851915,-11.6669445,1.091756,-1.1881392,-9.719109,-0.545588971409523031726,-2.007538,-11.966819,1.751957,-1.2306223,-9.720818,-0.402073121409523031734,-1.9416976,-12.118851,3.072958,-1.2876098,-9.719247,-0.220726771409523031755,-1.5077485,-12.0093155,3.6481647,-1.3339276,-9.715347,0.0553464261409523031756,-1.7872716,-12.370241,3.4272997,-1.3410401,-9.7090845,0.325098841409523031786,-2.420538,-12.416928,3.1890767,-1.3782898,-9.696906,0.490653721409523031787,-2.996942,-11.854291,3.5009215,-1.4642788,-9.678682,0.591056051409523031787,-3.3225534,-11.705851,7.453748,-1.5801662,-9.649295,0.75138661409523031794,-4.4663835,-13.231556,15.348629,-1.7212485,-9.572668,1.25366811409523031820,-6.4140663,-15.19959,7.8595657,-1.8989298,-9.336054,2.32434031409523031821,-7.4286094,-14.506468,-5.525219,-2.1505668,-9.201289,2.62330561409523031828,-5.6539073,-13.989919,-6.8162923,-2.4648955,-9.276958,2.00816851409523031850,-4.7734394,-14.745889,-1.364695,-2.6242023,-9.342549,1.41446961409523031850,-5.832874,-15.490485,3.1184478,-2.6510649,-9.360999,1.23041841409523031868,-7.105392,-17.147871,8.588001,-2.685642,-9.337086,1.3328741409523031869,-5.7628436,-16.55411,14.681844,-2.7616336,-9.2462225,1.74674461409523031874,-4.474763,-15.564705,7.6722193,-2.7231038,-9.250901,1.78211641409523031905,-3.7008374,-14.116812,0.002394202,-2.7871366,-8.994978,2.73726821409523031906,-3.210026,-13.554174,-1.7806876,-2.8489535,-9.018451,2.59256861409523031907,-2.842516,-12.53185,-2.5432408,-2.868848,-9.079533,2.34567261409523031914,-1.8483237,-11.391612,-5.6401405,-2.8534386,-9.1623535,2.01979061409523031939,-1.8680758,-10.191518,-8.717288,-2.794459,-9.2835245,1.47565451409523031940,-2.3714569,-8.09719,-9.660604,-2.7656548,-9.379954,0.73346931409523031949,-2.1960814,-7.143699,-8.065467,-2.7899072,-9.401416,-0.0140889871409523031972,-1.9093759,-8.150461,-6.2458735,-2.809991,-9.374691,-0.62409321409523031973,-1.0630256,-10.793061,-5.4138885,-2.7968695,-9.34231,-1.03398621409523031974,0.03232172,-16.402077,-3.6020765,-2.6703582,-9.341742,-1.33094441409523032004,1.8046296,-19.608511,0.98820674,-2.3675005,-9.41368,-1.39569381409523032005,8.338406,-19.608511,1.1150994,-1.9216067,-9.555156,-1.08482051409523032008,10.359112,-19.608511,3.3081882,-1.0723547,-9.70909,-0.868343951409523032014,7.229292,-16.572664,1.3934253,-1.2348588,-9.706423,-0.656389061409523032028,1.7022774,-10.948086,-7.524976,0.39058572,-9.789538,-0.427544441409523032046,1.146224,-10.762535,-5.3300915,0.5402105,-9.753066,-0.869620861409523032046,1.751957,-9.965864,-3.4793737,0.5925132,-9.725625,-1.10974631409523032065,3.247136,-7.9553337,-2.7569232,0.63865006,-9.703696,-1.26522981409523032084,3.448249,-5.9304376,-2.5701754,0.7980346,-9.671716,-1.41118671409523032085,2.5773582,-4.6136265,-5.645528,1.0018234,-9.630928,-1.55306151409523032086,2.3989902,-3.8947675,-7.685986,1.1749717,-9.537531,-1.95583651409523032094,2.4887726,-3.0711622,-8.218098,1.3598536,-9.380718,-2.51462671409523032116,1.9979613,-3.0125043,-6.4416,1.5555533,-9.164377,-3.12487861409523032116,0.82240826,-3.4745853,-4.829105,1.6807249,-8.973203,-3.58150651409523032129,-0.15981296,-3.774459,-2.3050177,1.6587645,-8.845186,-3.89635751409523032170,-0.7206547,-3.4344823,-0.3812766,1.5158958,-8.824278,-4.0005681409523032176,0.009576807,-2.7222073,-0.44951138,1.3346853,-8.881852,-3.93722081409523032177,1.5173253,-2.220622,-0.9103952,1.2628812,-8.916219,-3.88285971409523032178,2.56419,-2.100912,-2.4133554,1.4055334,-8.8942995,-3.8841141409523032179,3.2782607,-1.922544,-3.8630445,1.7090298,-8.7680645,-4.0460711409523032209,3.7870286,-1.5771804,-4.8620253,2.0959842,-8.51698,-4.3861521409523032209,4.349067,-1.4329298,-4.896741,2.5521114,-8.150041,-4.8201621409523032210,5.170877,-1.9273324,-3.903746,3.045379,-7.7228575,-5.22049141409523032214,6.015432,-3.1759086,-2.996942,3.5997667,-7.338481,-5.4183741409523032236,6.6666546,-4.8626237,-1.8968062,4.173032,-7.0610456,-5.3756741409523032237,6.4990606,-7.3567834,1.8794483,4.707768,-6.947747,-5.073081409523032248,2.9580362,-11.66515,11.126453,5.149598,-7.202067,-4.21690231409523032268,-6.5619082,-18.08161,18.958487,5.0454216,-8.137755,-2.1192081409523032269,-17.240047,-19.608511,17.566257,5.102434,-8.053963,-2.29549171409523032274,-19.557634,-19.608511,17.407043,5.155404,-7.9697666,-2.46475461409523032306,-14.526819,-19.194315,10.335769,5.1466236,-7.9197283,-2.63829111409523032306,-7.2065473,-13.336302,4.372411,5.055226,-7.9014835,-2.86036091409523032308,-5.6102133,-10.523713,2.2655134,-2.683647,-8.678762,3.6942531409523032314,-4.56275,-9.379285,4.262876,-2.9599688,-8.687053,3.45602371409523032334,-1.508347,-8.250419,4.2880154,-3.0916913,-8.645982,3.44366481409523032335,-0.38606504,-8.449737,3.6457705,-2.9786491,-8.651591,3.52817681409523032346,0.92895025,-8.122928,3.3512838,-2.7747962,-8.684958,3.61142471409523032371,3.2770636,-8.179192,3.1603463,-2.4367461,-8.751176,3.69453791409523032372,5.455787,-13.077129,2.1517887,-1.910542,-8.867192,3.7273481409523032374,6.0699,-17.196953,-1.6621746,-1.1838746,-9.085718,3.49550681409523032403,5.08289,-17.110163,-4.5687356,-0.48801383,-9.366766,2.86285111409523032404,1.7782934,-14.915278,-2.574964,0.001185703,-9.575874,2.11495041409523032406,-2.4947581,-13.421296,6.3284736,0.1412696,-9.662009,1.6721291409523032414,0.30047232,-11.95365,0.62488663,-0.06130729,-9.598683,2.0079621409523032433,2.1769278,-10.707469,-5.4300494,-0.00764467,-9.631634,1.84444361409523032434,2.1470003,-9.449316,-5.8723783,0.17129093,-9.722439,1.27092981409523032446,1.8351556,-8.461707,-2.8048072,0.3264239,-9.774156,0.727820631409523032470,2.920926,-7.380127,-0.6679823,0.46041006,-9.787008,0.415797621409523032471,4.453215,-6.47033,0.23223756,0.68521106,-9.779083,0.265342271409523032474,5.0122614,-6.5026517,0.062249243,1.0470454,-9.747415,0.249049591409523032505,4.4927197,-7.5052238,-0.5955577,1.4613123,-9.694344,0.233726641409523032506,3.393781,-8.581417,-1.2018893,1.8165696,-9.635359,0.174215871409523032506,2.3612814,-9.15842,-1.6460136,2.0412688,-9.591685,0.0563099161409523032514,1.8602947,-9.378687,-1.8495208,2.128952,-9.572249,-0.100141409523032532,2.0087352,-9.290101,-1.8495208,2.133158,-9.568074,-0.268303451409523032534,1.9829975,-9.746795,-2.0368671,2.1354978,-9.561767,-0.427373771409523032566,1.043872,-11.790246,-2.3630772,2.1253154,-9.555078,-0.59488781409523032567,-0.65062433,-14.7159605,-2.5971103,1.9924084,-9.571448,-0.766883971409523032567,-1.7705121,-15.866973,-2.349909,1.6835362,-9.617945,-0.911732851409523032574,-1.982399,-14.462774,-1.5197195,1.2986274,-9.669338,-0.99390171409523032600,-1.8447324,-12.176909,-1.1270704,0.9430796,-9.711688,-0.98189891409523032601,-2.7162218,-10.117896,-1.4873978,0.6477771,-9.740167,-0.93805651409523032608,-3.2255883,-9.711481,-1.3108255,0.32472706,-9.756297,-0.937875031409523032615,-3.2429461,-8.517372,-1.3263878,5.22E-04,-9.762355,-0.931043151409523032635,-2.9616275,-7.4950485,-2.0428526,-0.30004913,-9.755404,-0.9552261409523032635,-2.8455088,-7.5644803,-2.4839842,-0.5623957,-9.732841,-1.06109831409523032646,-3.465607,-7.791331,-2.8538885,-0.8082456,-9.696262,-1.22458391409523032665,-3.9396589,-7.5770497,-2.1978772,-1.087228,-9.637739,-1.44994021409523032668,-3.4081461,-7.029975,-1.6687586,-1.3691204,-9.571568,-1.63737361409523032674,-3.0190883,-7.2550297,-1.8854338,-1.5784085,-9.516422,-1.76543061409523032703,-2.1110873,-7.4986396,-1.543063,-1.7477883,-9.46756,-1.86572791409523032703,-1.5149311,-7.873931,-0.29508537,-1.8214763,-9.4489155,-1.88961521409523032706,-1.1498153,-8.841188,-0.26156655,-1.8289438,-9.470929,-1.76828631409523032733,-0.9091981,-9.603143,-0.4177882,-1.774242,-9.502973,-1.64802961409523032733,-0.7577648,-10.17416,-0.7260417,-1.6792285,-9.537316,-1.5460151409523032734,-0.60573304,-10.6398325,-0.6973112,-1.5587379,-9.568048,-1.48095011409523032746,-0.89662856,-10.928932,-0.46866497,-1.4246294,-9.598515,-1.41751431409523032768,-1.1839328,-11.142614,-0.2908955,-1.3325989,-9.623269,-1.33688931409523032769,-1.2521675,-11.355699,-0.31364042,-1.2807465,-9.64276,-1.24388951409523032775,-1.0779893,-11.411364,-0.34596214,-1.2474799,-9.65781,-1.15797671409523032806,-0.8487445,-11.477204,-0.28790274,-1.2075137,-9.671755,-1.0814111409523032807,-1.0899603,-11.865065,-0.24899697,-1.1582144,-9.685498,-1.00997021409523032808,-1.2988545,-11.719019,0.032920275,-1.136612,-9.694739,-0.943681241409523032840,-1.4383167,-11.52449,0.4830302,-1.1361494,-9.70156,-0.871377351409523032841,-1.4939818,-11.634624,0.9935937,-1.153301,-9.707583,-0.77660881409523032842,-1.6537948,-12.09431,2.0452468,-1.1771644,-9.713881,-0.65205711409523032873,-1.7238252,-12.307992,6.5619082,-1.2103729,-9.7214575,-0.445697521409523032874,-2.0284874,-12.831125,11.2449665,-1.2437949,-9.726416,0.142139581409523032875,-3.2597055,-14.135366,18.556261,-1.3014365,-9.663705,1.04375891409523032876,-6.145916,-16.31469,12.013506,-1.3612612,-9.688783,0.66696551409523032905,-6.6109896,-14.845247,-5.382764,-1.7334551,-9.245309,2.77304941409523032905,-4.335301,-12.771271,-9.755175,-2.0763478,-9.345766,2.1250451409523032908,-3.8271315,-14.706384,-5.3324857,-2.2096138,-9.449491,1.41249131409523032927,-4.7536874,-15.565304,-1.4287399,-2.207004,-9.500415,1.02061409523032927,-6.121375,-14.50587,2.183512,-2.2103941,-9.519344,0.816485171409523032944,-8.5778265,-15.690999,10.000581,-2.353963,-9.4784975,0.887325941409523032946,-8.7370405,-16.601994,17.23107,-2.6116078,-9.34733,1.40617381409523032962,-6.745663,-16.023195,12.079945,-2.5503383,-9.363499,1.41104911409523032977,-4.5154643,-14.226347,2.5845408,-2.9541779,-8.905059,2.85361861409523032977,-3.0789435,-12.82514,-0.91099375,-3.0514176,-8.870797,2.85800981409523032994,-3.283049,-12.133814,-3.0520086,-3.080687,-8.923299,2.6560291409523032995,-3.7535098,-12.857462,-6.739079,-3.073441,-9.028843,2.28130481409523033015,-3.46022,-11.942877,-9.896433,-3.0548923,-9.166701,1.67618991409523033015,-3.205836,-9.643845,-11.101913,-3.0533416,-9.280983,0.843115751409523033028,-2.2888567,-8.703522,-8.978256,-3.0879705,-9.307773,-0.013351431409523033043,-1.3676877,-9.014768,-7.029975,-3.0755718,-9.288335,-0.66185441409523033049,-0.83976626,-10.824784,-5.7466826,-2.991388,-9.272596,-1.1139811409523033067,0.5315128,-13.819931,-4.929063,-2.83706,-9.279791,-1.41666151409523033068,1.8722657,-18.793884,-1.7244238,-2.5323083,-9.336461,-1.60882191409523033075,5.0721164,-19.608511,4.435259,-2.0790205,-9.467145,-1.49036511409523033110,10.348937,-19.608511,4.1515455,-1.4520108,-9.650123,-0.96807321409523033110,8.455722,-18.22646,2.0470424,-1.638071,-9.644061,-0.692249661409523033111,4.996699,-13.726557,-1.5747862,0.11605039,-9.799111,-0.36652761409523033126,3.3626564,-11.481993,-6.8988924,0.4892983,-9.784728,-0.435989621409523033127,2.8078,-9.527127,-7.2861543,0.6990359,-9.74632,-0.83125271409523033143,2.5803509,-7.776367,-3.8265328,0.8288544,-9.690599,-1.25527131409523033156,2.505532,-7.3352356,-1.5544355,0.9405656,-9.650128,-1.46994721409523033157,1.917157,-6.941988,-4.735132,1.0612364,-9.632408,-1.50361341409523033174,-0.59017074,-5.9597664,-7.730279,1.1460879,-9.575903,-1.77734841409523033175,-1.1324574,-4.948815,-6.872556,1.042681,-9.481469,-2.27704481409523033193,-0.6769605,-4.5753193,-4.148553,0.91750383,-9.379647,-2.71123531409523033195,-0.11851298,-4.7524905,-2.5540147,0.8207319,-9.3147135,-2.9551541409523033220,0.6512229,-4.384382,-1.5867572,0.72798055,-9.273801,-3.10436251409523033220,1.7256209,-3.7942111,-1.2988545,0.71057904,-9.254046,-3.166721409523033227,2.6282349,-3.376423,-1.0360907,0.8367206,-9.236926,-3.18582561409523033253,3.1172507,-3.181894,-2.8431146,1.0904989,-9.217241,-3.16601661409523033253,3.05141,-2.734777,-4.0479965,1.4066671,-9.1142235,-3.33505871409523033255,2.9843724,-2.3864205,-3.6254199,1.7112285,-8.939079,-3.65170531409523033281,3.6367924,-2.0787656,-2.2697031,2.0160203,-8.752509,-3.9369621409523033281,4.4657845,-2.1398177,-1.7705121,2.4273083,-8.582699,-4.07625251409523033287,5.039196,-2.337938,-2.2720973,2.9383118,-8.391483,-4.13760381409523033295,5.2923827,-2.5408466,-3.0160956,3.4883616,-8.136589,-4.21872761409523033316,5.4498014,-2.64679,-3.5553896,4.0176063,-7.823179,-4.3390221409523033316,5.056554,-3.0310593,-3.8121676,4.4969144,-7.479935,-4.4719951409523033329,4.620809,-3.8115692,-3.393781,4.8403616,-7.1674075,-4.62272551409523033342,4.056975,-5.2875943,-0.41479546,5.0751934,-6.9678583,-4.67565541409523033363,2.6449943,-8.881291,7.2747817,5.2406583,-7.076283,-4.3164991409523033363,-3.447052,-17.207129,18.260576,5.202676,-7.810773,-2.84506631409523033386,-15.194801,-19.608511,19.174562,5.285375,-7.688525,-3.02022811409523033386,-19.60911,-19.608511,19.608511,5.3639016,-7.5643353,-3.19058351409523033389,-19.545664,-19.608511,15.166669,5.4059744,-7.455192,-3.37133931409523033396,-8.451532,-13.430274,7.554305,5.3866954,-7.389501,-3.54248451409523033409,-3.9665937,-9.032125,4.204817,-2.7742922,-8.368259,4.2948721409523033426,-4.610634,-8.714295,4.538808,-2.9889238,-8.341846,4.2012281409523033427,-0.073023155,-7.052121,3.3261447,-3.2186794,-8.306271,4.1007781409523033441,0.91937345,-8.635287,0.7314286,-3.0591395,-8.377902,4.07710461409523033459,2.5671828,-9.303269,1.3605051,-2.7668223,-8.552281,3.92091251409523033460,4.768651,-14.044387,3.3602622,-2.2398443,-8.744448,3.83250931409523033477,4.469376,-19.303251,1.2635399,-1.4785317,-8.958824,3.7045631409523033477,2.6360161,-18.024149,-1.7950528,-0.8486602,-9.215789,3.24336121409523033492,0.19752164,-13.4979105,-0.27952304,-0.5054656,-9.419131,2.68233011409523033495,1.738789,-10.887033,-1.8136078,-0.4490981,-9.49376,2.41603371409523033509,4.5118732,-9.677961,-4.8201265,-0.2829872,-9.581064,2.07207631409523033526,5.2756233,-8.325836,-5.269039,0.10973639,-9.687339,1.52112011409523033527,4.1557355,-8.514978,-4.2161894,0.5572934,-9.740119,0.99493491409523033541,3.7343562,-7.5848308,-2.4468741,0.9034674,-9.748687,0.56323041409523033557,4.2598834,-6.299743,-1.3431472,1.1942378,-9.729548,0.282962951409523033557,4.6339774,-6.2458735,-1.3437457,1.5308164,-9.686037,0.0875830051409523033574,4.490924,-7.4088573,-2.5276785,1.8862554,-9.623168,-0.084056881409523033575,3.6715083,-9.324219,-3.6152446,2.2092955,-9.548623,-0.336448161409523033590,2.9370868,-10.430939,-4.0761285,2.4021468,-9.484464,-0.66707541409523033627,2.8125885,-10.317214,-3.4398694,2.4732711,-9.436187,-1.00583891409523033630,3.1663318,-9.336189,-2.3175871,2.4997816,-9.400285,-1.24745041409523033630,3.3614593,-8.501212,-1.6370354,2.5621061,-9.366463,-1.36943541409523033653,3.1830912,-8.342596,-1.401805,2.6541052,-9.333906,-1.41574541409523033659,2.695871,-8.8328085,-1.2180501,2.733409,-9.3055725,-1.45092071409523033659,1.8076223,-10.439318,-1.4371196,2.765444,-9.295318,-1.4559471409523033660,0.29628247,-13.022661,-1.8076223,2.6795774,-9.320497,-1.45553781409523033676,-0.95827925,-14.424467,-2.046444,2.4002142,-9.396957,-1.45141051409523033676,-1.3150153,-13.348871,-1.8028339,2.0014699,-9.491277,-1.44229461409523033690,-1.1839328,-11.174936,-1.146224,1.6177096,-9.566553,-1.42635061409523033711,-1.2431892,-9.370906,-1.0127473,1.3304458,-9.620313,-1.36011111409523033711,-1.198298,-8.758589,-1.6023195,1.0680466,-9.661735,-1.29636791409523033723,-1.0594343,-8.597578,-2.700061,0.8422645,-9.682847,-1.30516961409523033727,-1.3700819,-8.799889,-4.9224787,0.6549451,-9.679135,-1.43379951409523033740,-3.731962,-9.705495,-5.397129,0.4536124,-9.634192,-1.77396021409523033756,-4.722563,-9.920375,-4.337096,0.05109043,-9.570436,-2.13881441409523033756,-4.3305125,-9.072827,-3.1836896,-0.3782073,-9.495098,-2.42290931409523033773,-3.6900635,-8.2037325,-2.1164744,-0.7029945,-9.43879,-2.56620431409523033775,-3.3135753,-8.781333,-0.97982705,-0.9902169,-9.393309,-2.63735371409523033789,-3.4913447,-10.040684,-1.1665748,-1.2246547,-9.394029,-2.53433421409523033807,-2.9430726,-10.534488,-0.91338795,-1.4434965,-9.401572,-2.38686561409523033809,-2.297835,-10.700885,-0.8122329,-1.577031,-9.424964,-2.20303731409523033823,-1.9758149,-10.866683,-0.21547815,-1.6398386,-9.449915,-2.0446051409523033827,-1.8992004,-10.899603,0.24899697,-1.6657836,-9.481027,-1.8723571409523033839,-1.9883845,-10.802039,0.5895722,-1.6711668,-9.514043,-1.69132841409523033855,-2.0626047,-10.673351,0.81642276,-1.682084,-9.545301,-1.49272171409523033855,-2.2930467,-10.603919,0.9528923,-1.6963375,-9.570272,-1.30488161409523033871,-2.4905684,-10.629059,1.1653777,-1.7315744,-9.587055,-1.12267521409523033875,-2.693477,-10.856507,1.9919758,-1.7832249,-9.597399,-0.938325761409523033887,-2.621651,-11.112088,4.0186677,-1.8471286,-9.606172,-0.69280071409523033904,-2.006341,-11.175535,5.5377884,-1.8984293,-9.616849,-0.287313971409523033907,-1.9812019,-11.259332,5.485116,-1.8916119,-9.620352,0.202509791409523033921,-1.869273,-11.306618,5.8125234,-1.8829052,-9.604329,0.618008431409523033937,-1.198298,-11.44608,11.717223,-1.8755519,-9.5759,0.97715911409523033937,-2.5354595,-12.952631,11.862072,-1.8291154,-9.466526,1.79154191409523033955,-4.0563765,-12.893374,-0.31064767,-1.8784211,-9.293246,2.50549771409523033956,-4.0294414,-12.021885,-6.535572,-2.0131972,-9.325368,2.27044561409523033973,-4.2515035,-12.941258,-7.36636,-2.1239922,-9.424984,1.68188351409523033976,-4.7518916,-14.4454155,-4.5777135,-2.2031436,-9.500219,1.03072251409523033993,-5.2115784,-14.694413,-1.6813282,-2.2664511,-9.523404,0.581670051409523034013,-5.781399,-14.358027,-1.5460558,-2.3684092,-9.506985,0.422219131409523034014,-6.408081,-13.728951,0.3752911,-2.512364,-9.476723,0.223950541409523034016,-6.105813,-13.841478,2.9317,-2.7025602,-9.424091,0.230366221409523034028,-5.065532,-14.338874,6.8653736,-2.8490577,-9.375288,0.396534921409523034047,-3.887585,-16.105795,11.28088,-2.898315,-9.332188,0.824864451409523034049,-2.879626,-18.012178,11.519701,-2.8318717,-9.263482,1.52931261409523034056,-1.9674352,-17.296312,6.067506,-2.6906064,-9.181684,2.15122081409523034081,-2.0231004,-15.068507,0.58418524,-2.5623846,-9.178509,2.31507091409523034081,-2.825158,-13.062764,-1.22224,-2.4868171,-9.225548,2.20803071409523034087,-3.0753522,-11.331757,-2.8975825,-2.4870024,-9.269673,2.01453381409523034138,-2.520496,-10.734404,-5.3683987,-2.509414,-9.325072,1.7077021409523034139,-2.2822728,-10.656591,-7.394492,-2.515037,-9.39922,1.22459071409523034140,-1.8662802,-9.545084,-8.338406,-2.525219,-9.456884,0.600850161409523034141,-1.4987702,-8.421006,-7.6626425,-2.5095603,-9.479924,-0.059564391409523034143,-1.2485762,-8.576031,-6.427833,-2.4739358,-9.468936,-0.62391409523034164,-0.78649527,-10.515334,-4.7626657,-2.4223242,-9.444506,-1.05073821409523034164,-0.15562311,-15.586852,-0.08259996,-2.303198,-9.440491,-1.32015451409523034169,1.5143325,-19.608511,6.2105594,-2.0734627,-9.516974,-1.13945911409523034176,7.1305313,-19.608511,3.25791,-1.6860741,-9.648293,-0.487850641409523034194,10.498574,-19.608511,0.5069722,-0.96703845,-9.757492,-0.163056221409523034196,7.173627,-18.15583,-3.1064768,-1.1720189,-9.735833,0.10135011409523034208,3.6062663,-13.020866,-5.3594203,0.40817297,-9.794857,-0.254118621409523034230,1.8327614,-10.462662,-7.3849154,0.66994435,-9.767718,-0.559704361409523034230,0.43394905,-9.333796,-6.0088477,0.75634503,-9.725434,-1.00709741409523034236,0.36990416,-8.959103,-3.0065188,0.72349375,-9.68261,-1.37623941409523034265,1.002572,-8.852561,-3.0891187,0.6795649,-9.662125,-1.53361131409523034266,1.5795746,-8.191761,-3.6834793,0.6799895,-9.638386,-1.67616391409523034268,1.1336545,-5.945401,-5.1020436,0.7396695,-9.603598,-1.84233421409523034276,-0.034715924,-3.9953241,-8.875306,0.7955437,-9.536152,-2.14459921409523034305,1.3922282,-3.763685,-4.64116,0.77385294,-9.373996,-2.7748381409523034305,2.2050598,-4.3939586,-2.694674,0.8699165,-9.278185,-3.05433681409523034307,2.2661119,-3.9719806,-0.664391,1.0204026,-9.223688,-3.17060881409523034325,2.0069396,-3.2890346,-1.2378023,1.1670158,-9.217891,-3.13671281409523034343,2.569577,-2.8000188,-1.578976,1.3118676,-9.1864195,-3.1716071409523034344,3.2333694,-2.5959132,-1.1384429,1.5410671,-9.125281,-3.24418951409523034361,3.7140055,-2.4390929,-2.0374656,1.8718209,-9.0580435,-3.25860951409523034361,4.392163,-2.4013844,-3.0095115,2.2669098,-8.925801,-3.3706951409523034367,5.155315,-2.0572178,-2.72939,2.730634,-8.708338,-3.58871561409523034376,5.085284,-1.6747441,-3.4356794,3.2890139,-8.442282,-3.7524191409523034394,5.407903,-1.5502456,-4.1491513,3.8132079,-8.094721,-4.0131441409523034396,5.819706,-1.5927427,-4.226963,4.3316855,-7.659844,-4.32824661409523034409,6.160281,-1.7932571,-4.4502225,4.842229,-7.1871924,-4.589931409523034421,6.307524,-2.1583729,-4.5675383,5.3050156,-6.701762,-4.80766341409523034436,5.7975593,-3.739743,-3.954024,5.6833124,-6.2493405,-4.98157261409523034436,3.9522285,-7.08983,0.35075054,5.8981566,-6.022579,-5.0110591409523034458,-3.3075895,-16.371552,16.92102,5.901703,-6.4248056,-4.47907921409523034459,-14.9308405,-19.608511,19.608511,5.9901385,-6.2380514,-4.62334971409523034479,-19.60911,-19.608511,19.607315,6.089636,-6.0113835,-4.79061461409523034479,-19.592352,-19.608511,13.867216,6.1543703,-5.851594,-4.90438181409523034488,-8.537724,-13.218388,5.9358244,6.0786743,-5.821095,-5.03338771409523034507,-6.9126587,-7.5016327,3.454833,-2.6637805,-8.663818,3.74338221409523034508,-5.4581814,-5.9986725,5.5377884,-3.1766474,-8.551477,3.59882381409523034520,-0.9648633,-5.2049947,3.5823243,-3.4993951,-8.387625,3.6840681409523034537,1.6310499,-6.3165026,0.31783026,-3.4086008,-8.383343,3.777751409523034538,4.781221,-7.7853456,-1.3694834,-3.0715234,-8.553364,3.68457561409523034557,7.328053,-11.860276,-2.3624785,-2.3345819,-8.876017,3.45491741409523034557,7.6829934,-15.790359,-2.5025394,-1.271939,-9.275349,2.91898511409523034572,6.227917,-14.948797,-2.8700492,-0.2815005,-9.54076,2.25056311409523034586,4.216788,-11.968016,-1.763928,0.38067397,-9.654135,1.68022261409523034589,1.9829975,-11.556811,1.1881226,0.74531746,-9.6831875,1.36043631409523034602,1.2946646,-12.816162,2.3080103,0.8499147,-9.678007,1.33575171409523034608,3.1669302,-11.464635,-0.17776948,0.8717665,-9.673107,1.35699581409523034621,3.4823663,-10.300454,-2.0290859,1.0758003,-9.679434,1.14960661409523034639,2.6677392,-9.583391,-2.3481133,1.2824779,-9.684602,0.856811941409523034639,2.4289176,-8.343194,-1.8004397,1.4036274,-9.68681,0.60492461409523034655,3.2231941,-7.0263834,-0.9487024,1.5290406,-9.678205,0.40591481409523034656,3.5272577,-7.1395097,-0.729633,1.7368886,-9.647427,0.284227581409523034669,3.1627405,-8.265383,-1.1013328,1.9595085,-9.607054,0.187701971409523034685,2.7461493,-9.203311,-1.8219875,2.1154954,-9.57556,0.0613686631409523034688,2.373851,-9.2308445,-2.0069396,2.2152884,-9.552237,-0.132823841409523034704,1.95307,-8.618527,-1.9219455,2.2653077,-9.535954,-0.323050951409523034724,2.0644004,-7.8529816,-1.7022774,2.2701395,-9.527685,-0.48999361409523034725,2.2900538,-7.627328,-1.4191631,2.2927144,-9.5141535,-0.6283091409523034739,1.8327614,-8.612542,-1.447295,2.3409286,-9.495084,-0.7306171409523034739,0.5069722,-10.941502,-1.6531962,2.330464,-9.490012,-0.824031231409523034754,-1.0636241,-13.445837,-1.7782934,2.149608,-9.524675,-0.91112351409523034756,-2.3906105,-14.538191,-1.8255788,1.7842411,-9.593981,-0.97077371409523034770,-2.882619,-13.729549,-1.804031,1.3324784,-9.663656,-1.00431561409523034785,-2.7551277,-12.247539,-1.5041572,0.8846295,-9.712449,-1.0276881409523034788,-2.4474726,-11.017518,-1.5867572,0.49591744,-9.739282,-1.0348041409523034801,-2.4917655,-10.391434,-1.7788919,0.18501434,-9.746857,-1.06535111409523034808,-2.5246856,-9.783307,-2.130241,-0.08086305,-9.741988,-1.12138431409523034819,-2.4983494,-9.303269,-2.4073699,-0.30896628,-9.725673,-1.21910951409523034834,-2.7246015,-8.763377,-3.4877534,-0.5071204,-9.701714,-1.33790091409523034836,-2.6844985,-7.9972324,-4.5962687,-0.70889616,-9.65544,-1.56216121409523034852,-2.3989902,-7.6231384,-4.8225207,-0.8867618,-9.582526,-1.88658991409523034856,-2.8688521,-7.9667063,-2.2900538,-1.0283927,-9.496298,-2.22106961409523034874,-2.3253684,-8.241441,-1.9405005,-1.2134236,-9.457475,-2.2921951409523034885,-1.8261774,-8.50181,-1.2509704,-1.3365301,-9.434374,-2.3187721409523034890,-1.6059108,-9.41041,0.15442601,-1.4128722,-9.436222,-2.26538251409523034906,-1.2497733,-10.177153,0.20590134,-1.4548098,-9.475668,-2.06533741409523034908,-1.2401965,-10.389638,-0.05267244,-1.433859,-9.521417,-1.85932591409523034927,-1.1552023,-10.516531,0.16879122,-1.4119037,-9.554198,-1.70124581409523034928,-0.8098387,-10.623073,0.4297592,-1.372307,-9.5892315,-1.52767371409523034936,-1.0103531,-10.900801,0.4405331,-1.2946401,-9.626355,-1.35188581409523034962,-1.6932992,-11.382035,0.4309563,-1.240631,-9.654486,-1.19255241409523034963,-2.1122844,-11.874641,0.6075287,-1.2504624,-9.670322,-1.04478761409523034970,-2.006341,-11.94168,0.74758947,-1.2953326,-9.67985,-0.89052291409523034992,-1.8698715,-11.717822,1.0229226,-1.3308573,-9.687539,-0.74217761409523034992,-1.7064673,-11.508329,2.0290859,-1.3660189,-9.693429,-0.58464051409523034997,-1.3844471,-11.057022,5.5282116,-1.3912425,-9.700981,-0.35467551409523035025,-0.9840169,-10.864288,6.658275,-1.3846875,-9.707033,0.162895961409523035026,-0.91338795,-11.416152,5.6790466,-1.3395398,-9.68922,0.70358991409523035028,-0.688333,-11.407174,6.042965,-1.3012141,-9.665643,1.02595071409523035037,-0.5781997,-11.4377,12.334329,-1.2779642,-9.635952,1.29830631409523035067,-2.7156234,-13.18427,16.48767,-1.271898,-9.491278,2.113841409523035068,-4.6698904,-13.378201,0.17118542,-1.4323765,-9.197803,3.08530381409523035070,-4.7884035,-12.633005,-9.0429,-1.6435221,-9.247294,2.82077571409523035091,-4.5082817,-13.161526,-11.282077,-1.8327276,-9.417222,2.03160451409523035091,-4.2239704,-14.115016,-5.422867,-1.9511573,-9.546415,1.10874951409523035106,-3.5924997,-14.073117,-1.3329718,-2.0100005,-9.579755,0.59884771409523035116,-4.3161473,-13.915699,3.323152,-2.00969,-9.591211,0.374442821409523035117,-5.8442464,-15.159487,9.060856,-2.073056,-9.570168,0.53358331409523035136,-6.2165446,-15.363592,12.602479,-2.2170591,-9.486117,1.12633931409523035137,-6.6492968,-14.942811,9.4535055,-2.350211,-9.336529,1.86442891409523035161,-6.3392477,-13.899538,3.0693667,-2.5659122,-9.175484,2.32314061409523035161,-5.913678,-13.077129,-1.6591818,-2.805617,-9.089826,2.38201241409523035168,-5.051167,-12.735357,-2.7222073,-3.024508,-9.081969,2.1308621409523035193,-4.0934863,-12.336722,-2.4049757,-3.1536517,-9.111172,1.79204561409523035194,-3.5751417,-13.004705,-4.51307,-3.1845117,-9.154487,1.49152821409523035198,-2.6671407,-12.7730665,-6.9461775,-3.157849,-9.223548,1.06045771409523035225,-2.1877017,-10.358514,-8.316259,-3.077757,-9.29789,0.49704931409523035225,-1.6759412,-9.224859,-8.118738,-3.0329924,-9.32442,-0.162796441409523035228,-1.0893618,-10.2406,-6.9240313,-2.964333,-9.317316,-0.75547711409523035237,-0.24241292,-12.598887,-5.7616463,-2.8366687,-9.310695,-1.19776941409523035260,1.9033904,-17.652449,-3.1555579,-2.6162503,-9.333818,-1.48506841409523035261,5.9388175,-19.608511,2.5372553,-2.1834,-9.443981,-1.48806331409523035268,11.991958,-19.608511,4.2461166,-1.4859087,-9.633075,-1.07995841409523035294,9.295488,-19.433136,3.232771,-1.6910508,-9.627541,-0.788152751409523035295,4.4161053,-15.024813,-0.45549688,0.27705052,-9.797264,-0.327522521409523035297,1.1288661,-12.220604,-5.8107276,0.6260139,-9.78163,-0.313411861409523035331,0.59017074,-10.170568,-8.455722,0.69287384,-9.760795,-0.64590081409523035331,0.6943185,-8.443152,-5.6389437,0.6555562,-9.716215,-1.15576711409523035332,0.9804256,-8.417415,-3.3321302,0.60994303,-9.671967,-1.50046721409523035337,0.98820674,-8.100781,-4.2556934,0.60358286,-9.642828,-1.67987121409523035362,1.1204864,-6.1088057,-4.2676644,0.61901337,-9.601264,-1.89814631409523035363,0.9660604,-4.473566,-5.5910597,0.6659514,-9.5499115,-2.12745671409523035370,0.9187749,-3.99293,-4.6686935,0.7198156,-9.456447,-2.49556951409523035399,0.62009823,-4.7668557,-5.6347537,0.7768162,-9.366446,-2.79939581409523035400,1.0803835,-5.6269727,-3.6774938,0.7963661,-9.250172,-3.15760951409523035401,1.9746178,-5.583877,-2.9508536,0.83848846,-9.193617,-3.3082871409523035439,2.1033063,-5.48332,-2.1428106,0.9544325,-9.148762,-3.3999471409523035440,2.3139958,-5.3061495,-1.3371617,1.0799813,-9.125837,-3.42390781409523035441,3.3901896,-4.0539823,-1.8231846,1.2491034,-9.1254425,-3.3669641409523035442,3.6098576,-3.4051533,-2.758719,1.5525337,-9.070122,-3.3901241409523035465,3.8522706,-2.7383683,-2.5270798,1.898101,-8.952272,-3.52482651409523035466,4.469376,-2.2864625,-1.8351556,2.290491,-8.806509,-3.65642881409523035469,5.1140146,-1.9829975,-2.5133133,2.7824752,-8.63837,-3.71575551409523035492,5.597045,-1.6831238,-3.912724,3.331574,-8.380131,-3.85284641409523035493,5.993285,-1.364695,-4.9218802,3.8886642,-7.993703,-4.14118771409523035498,6.238691,-1.127669,-4.8817773,4.440971,-7.492329,-4.50702051409523035518,6.1542954,-1.5227122,-4.8548427,4.9690523,-6.958965,-4.80122231409523035519,5.5222263,-3.0113072,-3.774459,5.39138,-6.4499073,-5.04996161409523035534,3.679888,-6.1423244,1.9063832,5.658233,-6.1745825,-5.10189631409523035537,-1.364695,-13.878589,15.515624,5.77501,-6.55405,-4.4569171409523035561,-13.029245,-19.608511,19.608511,5.1458793,-8.145599,-1.82743411409523035562,-19.60911,-19.608511,19.608511,5.250816,-8.024486,-2.05108981409523035569,-19.60911,-19.608511,13.660716,5.3292193,-7.9242306,-2.23077631409523035598,-13.124415,-16.356588,7.404069,5.3230243,-7.872805,-2.41965461409523035599,-1.6364368,-4.9123034,1.922544,5.277802,-7.8352394,-2.6313821409523035600,-6.26802,-7.0329676,3.4051533,-2.913614,-8.629077,3.63596871409523035642,-2.095525,-5.179257,3.5314474,-3.4030745,-8.494346,3.5264091409523035642,1.0354922,-6.8318543,0.56323594,-3.405255,-8.4616585,3.60207941409523035643,3.5206735,-9.503783,-1.6879122,-3.0861864,-8.639278,3.46535921409523035644,6.8127007,-15.540763,-2.939481,-2.4668238,-8.964262,3.11884551409523035649,7.9505453,-18.45331,-4.07134,-1.4313239,-9.376658,2.48997951409523035688,6.537368,-15.381549,-3.2620997,-0.44742405,-9.641324,1.73639571409523035692,2.3295584,-12.226589,1.1402385,0.20716742,-9.72472,1.2479221409523035693,1.003769,-11.264719,3.5230677,0.41964084,-9.718137,1.24583531409523035694,3.5661635,-10.247782,-0.47644615,0.4943141,-9.692971,1.40440111409523035725,3.9366663,-9.895236,-2.9113493,0.77588737,-9.704198,1.18192111409523035725,2.8616695,-9.599552,-3.570952,1.0410239,-9.716593,0.82128341409523035726,2.8281507,-8.69155,-2.429516,1.2036626,-9.721491,0.46283641409523035731,3.5272577,-7.9541364,-1.1857284,1.382126,-9.7065115,0.209187521409523035738,3.763685,-8.231864,-1.2449849,1.6149893,-9.672436,0.078571731409523035770,3.5781345,-9.270349,-1.5077485,1.8490874,-9.630615,-0.050194651409523035771,3.1507695,-10.205883,-1.8058267,2.0353613,-9.591144,-0.19404871409523035772,2.5151088,-10.392033,-2.2709002,2.1584835,-9.559693,-0.351591971409523035801,2.391209,-9.531317,-2.379238,2.2058074,-9.540383,-0.534674471409523035802,2.508525,-8.814852,-1.9973627,2.2403939,-9.520672,-0.71264911409523035802,2.4067712,-8.659827,-1.7172412,2.2876468,-9.49866,-0.84411421409523035816,1.5939398,-9.551069,-1.7711107,2.3310626,-9.47846,-0.946216461409523035817,0.25198972,-11.773487,-2.0219033,2.276617,-9.481708,-1.0414661409523035833,-1.01574,-13.976751,-2.1470003,2.0759985,-9.518022,-1.12601771409523035837,-1.6406267,-14.301764,-1.8261774,1.7414088,-9.577445,-1.18761471409523035857,-1.7082629,-12.670714,-1.3664906,1.3749323,-9.636041,-1.19442381409523035858,-1.6843209,-10.683527,-1.2509704,1.0480623,-9.681351,-1.15905631409523035869,-1.7375919,-9.594764,-1.3599066,0.7672055,-9.711839,-1.12339091409523035893,-1.8124107,-9.179968,-1.365892,0.51853144,-9.729672,-1.11129921409523035894,-1.8285716,-8.81605,-1.9997569,0.29810792,-9.737807,-1.12100111409523035898,-2.243367,-8.759187,-2.5306711,0.090940796,-9.733153,-1.19493661409523035941,-2.6366146,-8.526949,-2.815581,-0.13593115,-9.714278,-1.3359331409523035942,-3.7187939,-8.296508,-3.2357635,-0.37647593,-9.676861,-1.54499891409523035943,-4.927267,-8.407239,-4.787206,-0.68669105,-9.6127825,-1.8147331409523035944,-4.1796775,-7.924209,-3.6302083,-1.0703026,-9.497876,-2.19435981409523035951,-3.067571,-7.111976,-3.1376014,-1.3696783,-9.4061575,-2.41217731409523035991,-2.4899697,-6.977302,-3.7582982,-1.5659362,-9.337791,-2.55419061409523035993,-2.1859062,-7.578247,-3.4650085,-1.688867,-9.265553,-2.73270061409523035994,-1.3718776,-8.739435,-2.3570917,-1.7511634,-9.219015,-2.84843641409523035996,-1.0911574,-9.750386,-2.0081367,-1.7203465,-9.231953,-2.82522321409523035999,-0.4890157,-11.245565,-0.6302736,-1.6546596,-9.26444,-2.75729421409523036009,-0.93014735,-11.498154,-0.29568392,-1.5160064,-9.350865,-2.5364181409523036018,-1.3389573,-11.370064,-0.11372458,-1.427876,-9.42372,-2.30760651409523036038,-1.6196774,-11.241974,0.08200141,-1.3881489,-9.4805765,-2.08856131409523036039,-1.6059108,-11.212047,0.11671733,-1.386222,-9.525761,-1.87313811409523036057,-1.4814123,-11.190498,0.31603462,-1.3877913,-9.5615635,-1.67956611409523036058,-1.567005,-11.215638,0.41240123,-1.3889323,-9.592885,-1.48922621409523036075,-1.6651673,-11.27669,0.8062474,-1.3996563,-9.617192,-1.31185331409523036121,-1.553837,-11.678916,4.1060557,-1.4135885,-9.639024,-1.123121409523036125,-0.95827925,-12.105682,7.156269,-1.4069561,-9.68315,-0.653806451409523036126,-0.3764882,-12.528857,7.341221,-1.3389523,-9.714782,0.024982381409523036127,0.9947908,-12.707226,13.728951,-1.2332702,-9.711949,0.572255131409523036128,0.36511576,-13.305776,19.608511,-1.0370921,-9.622704,1.58063711409523036155,-2.4779987,-13.523049,9.31105,-1.1277516,-9.681837,1.07730931409523036156,-4.6561236,-12.847885,-5.713164,-1.1140081,-9.222351,3.14286451409523036156,-4.943428,-12.939463,-10.188525,-1.3751816,-9.3610735,2.57867481409523036158,-5.5180364,-13.961787,-12.671312,-1.6042641,-9.505866,1.79867211409523036169,-6.2380924,-15.02182,-9.0429,-1.8006715,-9.611434,0.740460341409523036192,-5.2355204,-14.747086,-2.2397757,-2.01501,-9.597278,-0.048968651409523036192,-5.865794,-13.842077,2.9317,-2.1426759,-9.567606,-0.200584341409523036198,-7.104195,-15.307927,11.873445,-2.3223577,-9.527396,-0.0759444461409523036228,-7.0964136,-16.719309,18.764555,-2.4910994,-9.456605,0.733080741409523036229,-5.910087,-15.378556,13.228563,-2.3967142,-9.487073,0.64931281409523036230,-5.507861,-13.230957,1.6693572,-2.691629,-9.084168,2.53049761409523036238,-5.443816,-11.543045,-5.0643353,-2.9135454,-9.024959,2.496351409523036261,-5.5766945,-11.651981,-3.4662056,-3.1530292,-9.052121,2.07071951409523036261,-5.7395,-11.765706,-2.77069,-3.3175209,-9.068127,1.71275071409523036271,-5.1343656,-12.317569,-6.4870896,-3.4231472,-9.080099,1.4157211409523036286,-4.9027267,-13.297995,-8.119336,-3.4928021,-9.125736,0.83165771409523036303,-3.8546648,-11.419145,-8.47308,-3.5164983,-9.151795,0.221876621409523036304,-2.3517046,-9.235035,-7.621941,-3.5195134,-9.145438,-0.37998631409523036324,-1.4269443,-9.501988,-6.160281,-3.4712172,-9.128138,-0.893396441409523036325,-0.6841431,-11.503541,-5.0721164,-3.3551018,-9.128682,-1.25729931409523036331,0.54647654,-15.83106,-3.9223008,-3.1466746,-9.166186,-1.49995571409523036338,1.3599066,-19.599533,0.45848963,-2.78212,-9.269796,-1.58148481409523036357,4.505289,-19.608511,2.0883424,-2.3431878,-9.43334,-1.30076961409523036358,9.122507,-19.608511,0.078410104,-1.7365757,-9.603461,-0.96345721409523036369,7.269395,-18.556261,0.17058687,-0.9027216,-9.729627,-0.83057391409523036385,4.1413703,-13.694834,-2.9562407,-0.27861908,-9.775571,-0.72867591409523036404,2.179322,-11.533468,-5.6766524,0.09844372,-9.769312,-0.84927481409523036404,2.4199393,-10.487202,-4.7614684,0.2842308,-9.737983,-1.12309041409523036433,2.456451,-9.700109,-2.6617537,0.4205378,-9.703687,-1.3535171409523036433,2.902371,-9.168595,-2.0362685,0.55022013,-9.6848955,-1.4389091409523036434,3.2585084,-8.147469,-4.590882,0.6915508,-9.666985,-1.49719821409523036454,3.6643257,-6.8198833,-4.8105497,0.87789696,-9.611928,-1.73508811409523036454,4.4017396,-5.7383027,-5.315128,1.1102561,-9.538252,-1.98983791409523036458,3.912724,-5.1235914,-7.023989,1.4061847,-9.425365,-2.31419871409523036469,2.995745,-4.333505,-4.863222,1.6506904,-9.256909,-2.7848221409523036482,1.6938977,-4.1641154,-2.8862102,1.8225349,-9.131343,-3.07690741409523036504,0.9564836,-4.6112323,-3.1064768,1.8632077,-9.073336,-3.2207831409523036504,1.4275428,-4.581305,-2.2301989,1.8070331,-9.029314,-3.372911409523036525,1.8417397,-4.518457,-1.9997569,1.8364149,-9.005489,-3.4204011409523036526,2.3708582,-4.1276035,-1.9405005,1.918801,-8.978363,-3.44638371409523036530,3.1106665,-3.4572272,-1.7441759,2.0789104,-8.929617,-3.48000721409523036558,3.663727,-2.670732,-1.5197195,2.340449,-8.850767,-3.51520131409523036558,4.44723,-2.344522,-2.0057425,2.6927674,-8.735559,-3.55097411409523036559,5.8107276,-1.4263457,-2.741361,3.1440146,-8.548614,-3.63411521409523036582,6.1261635,-0.9600749,-3.2638955,3.7737517,-8.21869,-3.79240851409523036583,6.142923,-0.9223662,-3.1824925,4.4135437,-7.78871,-4.0033751409523036603,6.2991447,-1.4311341,-3.1136594,5.0070033,-7.322155,-4.18166971409523036604,6.1524997,-2.4797945,-2.7814639,5.541898,-6.8652716,-4.2808651409523036625,5.205593,-4.2305546,-1.3958195,5.9453697,-6.519571,-4.2799741409523036626,3.304597,-7.1766195,4.4304705,6.1575093,-6.45646,-4.0705761409523036632,-3.9396589,-15.248671,17.368137,6.1698546,-6.9734397,-3.07804851409523036662,-16.785149,-19.608511,17.212515,6.2918015,-6.820175,-3.17315081409523036662,-19.60911,-19.608511,19.021933,6.406028,-6.6533976,-3.29628731409523036662,-19.60911,-19.608511,14.064139,6.504954,-6.5016394,-3.40362551409523036670,-9.378687,-13.439851,5.494693,6.5137544,-6.4122343,-3.5531181409523036681,-4.9164934,-8.1797905,2.1691468,-2.7957938,-8.54085,3.92527821409523036705,-6.623559,-6.96593,4.896741,-3.121874,-8.5175295,3.72504761409523036706,-0.5955577,-5.360019,5.288193,-3.5367572,-8.346093,3.7422551409523036710,2.304419,-7.7626004,3.9857473,-3.376861,-8.311433,3.96071861409523036718,5.9370217,-13.354857,1.7310078,-2.922292,-8.426876,4.07656151409523036734,8.987833,-19.48521,0.15622166,-2.0432844,-8.770225,3.8831091409523036759,8.306085,-18.35814,-0.05327099,-0.8806274,-9.166069,3.3731371409523036760,2.3822308,-13.883377,6.0956373,-0.027112463,-9.368116,2.89966541409523036761,0.5189432,-9.730036,6.0956373,0.17924744,-9.316978,3.0548621409523036789,2.6569653,-9.408015,-9.126099,0.19829057,-9.239987,3.27928691409523036790,3.632004,-9.481039,-9.349358,0.41947514,-9.5210495,2.31172131409523036790,3.705027,-8.784326,-5.864597,0.7217317,-9.688455,1.33541851409523036798,3.6864722,-7.289746,-3.5446155,1.0083851,-9.728646,0.71204411409523036819,3.5930982,-6.359598,-3.0358477,1.2909403,-9.715778,0.32789371409523036820,3.833117,-6.2662244,-3.7774518,1.5586867,-9.681987,8.63E-041409523036837,4.175488,-7.2526355,-5.194819,1.8465824,-9.623402,-0.3881361409523036838,3.566762,-9.494805,-5.911284,2.1448622,-9.528211,-0.88496091409523036850,3.1022868,-10.292673,-5.2498856,2.3178194,-9.426773,-1.39070561409523036869,2.722806,-9.770139,-3.803788,2.4077842,-9.339039,-1.77632461409523036884,2.2140381,-9.324219,-2.3403323,2.4439113,-9.283886,-2.00179171409523036885,1.8842367,-9.182362,-1.5562311,2.419565,-9.274996,-2.07136151409523036902,1.8680758,-9.115923,-1.0935516,2.3790283,-9.288989,-2.05555531409523036902,1.8674773,-9.118916,-0.7966706,2.3319683,-9.313411,-1.99817931409523036915,1.5855601,-9.378687,-1.0031705,2.2963738,-9.342685,-1.90033511409523036918,0.84694886,-10.38904,-1.5490485,2.2421253,-9.372335,-1.81729841409523036933,-0.545878,-12.660539,-1.917157,2.1100578,-9.410975,-1.77527771409523036949,-1.963844,-14.520833,-1.7914615,1.8265017,-9.477377,-1.73598271409523036950,-2.473809,-13.988722,-1.2563573,1.4215815,-9.559134,-1.66506731409523036968,-1.7381904,-11.6908865,-0.8523358,1.0215961,-9.627816,-1.5594441409523036988,-1.7369933,-10.118495,-0.43155485,0.7273288,-9.670649,-1.4560011409523036989,-1.8555063,-9.775525,-0.46267948,0.4626669,-9.703189,-1.34330241409523036992,-1.1258733,-9.176376,-0.79726917,0.22630525,-9.723617,-1.25317851409523036999,-0.7882909,-8.486248,-1.1115081,0.08999562,-9.729931,-1.22096461409523037022,-1.0815806,-8.15525,-1.2330139,0.008168109,-9.7272625,-1.24527341409523037022,-1.7286136,-8.558673,-1.0654198,-0.07519845,-9.719787,-1.30019091409523037030,-3.3650506,-9.478046,-2.2212207,-0.21561055,-9.715294,-1.3179441409523037055,-3.6415808,-9.38168,-2.4498668,-0.4986913,-9.685624,-1.45271831409523037056,-2.6833014,-8.604162,-2.6030958,-0.7885148,-9.644258,-1.59278021409523037059,-2.4839842,-8.799889,-2.7036524,-0.9793653,-9.600606,-1.74345521409523037103,-2.5408466,-9.162011,-1.8602947,-1.1356951,-9.557811,-1.87851751409523037104,-2.6210523,-9.68275,-0.9816227,-1.2772458,-9.5346,-1.90538121409523037104,-2.7485435,-10.346542,-0.31663316,-1.412288,-9.530396,-1.82957791409523037105,-2.5330653,-10.677541,0.45489833,-1.5392209,-9.538098,-1.68104231409523037112,-2.1380222,-10.68652,0.95468795,-1.6282439,-9.5576105,-1.4735321409523037119,-2.0769699,-10.879851,1.2336124,-1.6734887,-9.583015,-1.23921051409523037132,-2.1894975,-11.249157,1.9716251,-1.6990782,-9.606217,-1.00206381409523037152,-2.0153193,-11.274296,3.2507274,-1.7200619,-9.627556,-0.7224791409523037153,-1.2521675,-10.801441,4.210802,-1.7222329,-9.6475725,-0.35869581409523037175,-0.6973112,-10.786477,4.611831,-1.6672374,-9.663773,0.04682151409523037176,-0.7302315,-11.162367,4.586692,-1.5797065,-9.669308,0.423571381409523037179,-1.0307038,-11.261726,4.2293572,-1.4997872,-9.662849,0.74187111409523037218,-1.3024458,-10.934917,3.7193923,-1.4630754,-9.648831,0.964278941409523037218,-1.062427,-10.763732,3.8379054,-1.4560702,-9.632207,1.12730261409523037219,-0.65182143,-10.648212,5.094861,-1.4218597,-9.610671,1.33555761409523037220,-1.0205284,-10.784083,5.170877,-1.3607174,-9.56626,1.67495741409523037241,-2.9897594,-11.687894,-0.3513491,-1.3398855,-9.50797,1.99338651409523037242,-4.9883194,-13.120824,-4.410718,-1.4574218,-9.531267,1.78920581409523037251,-6.037578,-14.60882,-3.269881,-1.6802702,-9.584392,1.21922991409523037282,-6.160281,-15.284584,-1.2964603,-1.9431789,-9.574106,0.85494981409523037283,-6.379949,-15.373169,-2.0919337,-2.1455367,-9.542675,0.71020811409523037284,-5.990891,-14.65012,-2.0967221,-2.336577,-9.511121,0.499394981409523037328,-6.095039,-14.385561,0.41359833,-2.5023003,-9.477442,0.29493031409523037329,-6.8306575,-15.847819,9.148245,-2.6656516,-9.433377,0.275784671409523037330,-6.4583592,-16.788143,15.91785,-2.812105,-9.3539295,0.875479341409523037331,-4.8219223,-16.233286,10.330381,-2.8009408,-9.355369,0.89566071409523037332,-3.1016884,-14.527417,2.1859062,-2.8659153,-9.089259,2.3113411409523037359,-2.4271219,-13.954604,-1.3724761,-2.8535488,-9.092121,2.31538411409523037359,-2.4995465,-13.880983,-3.5098996,-2.8482265,-9.144149,2.10772971409523037360,-2.3517046,-11.997943,-7.709928,-2.8032591,-9.233151,1.74957931409523037383,-1.9536686,-10.13286,-8.949526,-2.7520087,-9.3472805,1.1068841409523037384,-1.6759412,-8.649054,-8.298303,-2.7220755,-9.413362,0.386417631409523037399,-1.5903485,-8.089409,-7.216124,-2.6906106,-9.426502,-0.26842841409523037400,-1.3742718,-9.331401,-5.783194,-2.647871,-9.40941,-0.78875821409523037416,-0.41599256,-12.334928,-5.183447,-2.5792356,-9.392636,-1.1385691409523037431,1.460463,-18.340183,-1.0007763,-2.3900468,-9.406502,-1.40563021409523037432,5.5120506,-19.608511,6.6606693,-2.0017495,-9.517901,-1.25416621409523037447,9.677961,-19.608511,5.632958,-1.3496822,-9.69638,-0.573547841409523037450,7.937976,-19.252974,1.8393455,-1.5686518,-9.67612,-0.287080681409523037463,5.04159,-13.98513,-3.8606503,0.1468943,-9.805388,0.0564084841409523037481,3.4165258,-11.146206,-7.593809,0.52682155,-9.790882,-0.177453181409523037481,1.4706384,-10.170568,-8.286332,0.7437612,-9.757528,-0.63861411409523037495,0.6183026,-10.267534,-4.8560395,0.80037504,-9.706871,-1.14299321409523037499,1.6400281,-9.7084875,-4.2754455,0.7694161,-9.673035,-1.41801691409523037514,1.8100165,-8.6813755,-7.204153,0.7983514,-9.632697,-1.65656021409523037528,0.48602295,-6.6630635,-5.9489927,0.8404481,-9.545607,-2.08457471409523037533,0.58538234,-3.8522706,-4.0898952,0.81140083,-9.465076,-2.43400381409523037546,1.0540473,-3.807978,-3.2674868,0.82501936,-9.387802,-2.71272751409523037551,1.7142484,-4.76925,-3.3806129,0.88681906,-9.3273535,-2.8955841409523037571,2.3175871,-4.733337,-3.117849,1.0048258,-9.2709055,-3.03497221409523037572,2.5689783,-4.2413282,-3.1160536,1.1743411,-9.217399,-3.1354211409523037579,2.6521769,-3.855862,-1.7208325,1.3506082,-9.142959,-3.27911471409523037613,3.0986955,-3.3500867,-0.5351041,1.5445185,-9.094454,-3.32802681409523037613,3.2794578,-2.634819,-1.1887212,1.8199855,-9.064623,-3.26965521409523037614,2.8221653,-2.2942438,-3.7672763,2.1426733,-8.98723,-3.28771421409523037641,2.6120741,-2.135628,-4.3394904,2.3990936,-8.798681,-3.60526851409523037642,3.015497,-1.7591397,-2.9149406,2.6186323,-8.571021,-3.9813051409523037643,3.787627,-1.4580688,-1.9063832,2.922166,-8.364258,-4.20363141409523037674,4.299388,-1.4119805,-3.1531637,3.3414834,-8.151233,-4.30839821409523037674,4.7381253,-1.2132617,-4.698621,3.7835293,-7.821047,-4.5482481409523037675,5.2026005,-1.2138603,-5.1385555,4.235321,-7.344915,-4.92794751409523037679,5.7185507,-1.5304934,-5.0146556,4.694514,-6.803041,-5.27736041409523037712,5.298967,-4.261679,-2.915539,5.132073,-6.2750287,-5.51871731409523037713,2.557606,-8.804677,6.675633,5.399376,-6.1772437,-5.3720421409523037714,-5.00448,-18.47366,19.608511,5.4337244,-7.1400027,-3.95795561409523037754,-17.706917,-19.608511,19.608511,5.520897,-6.97711,-4.1243171409523037754,-19.60911,-19.608511,19.569607,5.6042666,-6.79329,-4.314371409523037755,-18.152838,-19.566015,11.558009,5.6364083,-6.6785684,-4.44950341409523037756,-3.8486793,-8.689755,3.1262288,5.512552,-6.649197,-4.6443961409523037769,-3.5523968,-5.085883,2.4756045,-2.7615445,-8.578089,3.86789871409523037813,-4.5202527,-4.4963107,3.976769,-3.1461754,-8.521518,3.69536141409523037814,-0.6440403,-5.4486046,3.7181952,-3.4837422,-8.3845,3.70595221409523037815,1.4951789,-7.5052238,2.2750902,-3.3208337,-8.399762,3.81922031409523037816,4.4328647,-9.358934,2.1853075,-2.9017916,-8.550054,3.8270851409523037818,6.3619924,-16.535555,-1.0408791,-2.1416361,-8.770586,3.82891871409523037846,6.6534867,-19.608511,-3.6978445,-1.1266477,-9.186251,3.24250321409523037847,4.7387238,-17.31367,-4.7896004,-0.28475687,-9.507397,2.38719461409523037848,1.252766,-13.468581,-1.0749966,0.1859256,-9.662547,1.66463761409523037858,0.8726865,-12.78384,2.5007436,0.2749857,-9.69825,1.42784011409523037859,3.9163153,-11.236588,-0.089782566,0.3214514,-9.687838,1.48757141409523037881,4.4939165,-10.126875,-2.8299465,0.640736,-9.701302,1.2824211409523037882,3.8061821,-8.685565,-4.390966,0.9744413,-9.716923,0.895700041409523037896,3.4680011,-7.1185603,-4.2161894,1.2224262,-9.718456,0.477185551409523037899,3.6170402,-6.6624646,-3.5164838,1.4575527,-9.69728,0.0933043061409523037916,4.1413703,-7.5525093,-3.3728316,1.7152734,-9.652308,-0.247307421409523037930,4.299388,-9.157223,-3.235165,1.9993107,-9.5839615,-0.56641431409523037931,3.8001966,-10.418967,-2.932897,2.2485538,-9.507914,-0.84496381409523037945,3.1280246,-10.515334,-2.349909,2.3891094,-9.453306,-1.04764621409523037967,2.6737247,-9.97185,-1.6101006,2.4698973,-9.416554,-1.18258191409523037968,2.7132292,-9.239224,-1.1067197,2.5032682,-9.400113,-1.24173381409523037971,2.8670566,-8.55149,-0.9032126,2.5336683,-9.391064,-1.24853411409523037979,2.7401638,-8.016984,-0.90740246,2.5802476,-9.379988,-1.23633641409523038008,2.428319,-8.094197,-1.002572,2.6289628,-9.367499,-1.22838091409523038009,1.8938135,-9.242816,-1.198298,2.6579573,-9.359364,-1.22798931409523038013,0.6003461,-11.701062,-1.3676877,2.608548,-9.3726225,-1.23280051409523038037,-0.8678981,-13.710995,-1.347337,2.3981605,-9.42927,-1.22804491409523038038,-1.6448165,-13.545197,-1.0851719,2.0389004,-9.517255,-1.19797061409523038040,-1.8142064,-11.574768,-0.5446809,1.6464374,-9.600143,-1.13881471409523038084,-1.6412252,-9.214684,0.031124622,1.2876743,-9.666062,-1.03899031409523038085,-1.5837644,-8.033145,-0.31304187,0.99154496,-9.714372,-0.904537141409523038088,-1.6172832,-8.215703,-0.7733272,0.7334262,-9.744407,-0.824032661409523038090,-1.1845313,-8.019379,-1.6633717,0.49611968,-9.761029,-0.80409611409523038092,-0.015562311,-7.466318,-3.7762547,0.32941756,-9.760618,-0.890077531409523038159,-0.7368156,-7.635708,-7.3166804,0.28695348,-9.728091,-1.20512311409523038160,-3.1010897,-8.572439,-7.402273,0.1827236,-9.621616,-1.8871981409523038161,-3.9875429,-8.861539,-6.249465,-0.11690818,-9.471599,-2.53880431409523038162,-4.032434,-9.029732,-4.4059296,-0.44907445,-9.319901,-3.01797491409523038162,-3.6463692,-9.516952,-2.417545,-0.78241354,-9.227257,-3.22737461409523038163,-4.4161053,-10.764331,-1.5514427,-1.0815476,-9.224074,-3.14914041409523038164,-4.2102036,-10.976217,-0.985214,-1.4140406,-9.246439,-2.94520471409523038208,-3.0334535,-10.884041,-0.42916065,-1.6750153,-9.277551,-2.70032981409523038208,-2.2403743,-11.252748,-0.05626374,-1.8087395,-9.318103,-2.46410581409523038209,-1.9213469,-11.599309,-0.030526072,-1.8406916,-9.369905,-2.23319221409523038210,-1.9788077,-11.930905,0.1388637,-1.8195287,-9.421774,-2.02235361409523038211,-2.4540567,-12.154165,0.4321534,-1.793371,-9.469466,-1.81202211409523038241,-2.6527755,-12.177508,0.6847417,-1.8089901,-9.505186,-1.59667611409523038241,-2.569577,-11.900978,1.0145429,-1.8460389,-9.531578,-1.38260391409523038242,-2.331354,-11.997345,2.2888567,-1.8788297,-9.554213,-1.16508531409523038277,-0.98341835,-12.66832,6.627749,-1.8938131,-9.583212,-0.86365771409523038278,-0.7906851,-12.285846,4.699818,-1.783386,-9.640405,-0.229170311409523038280,-0.5363012,-12.25532,5.9585695,-1.6914021,-9.659245,0.09241141409523038281,0.39085343,-12.074557,18.370111,-1.6147444,-9.665311,0.3804851409523038310,-1.6124948,-13.661315,17.727268,-1.4896637,-9.5440445,1.69188771409523038311,-4.1359835,-11.386824,-4.3556514,-1.6489254,-9.605369,1.09010721409523038314,-4.905121,-10.976217,-14.021044,-1.6575798,-9.4057865,2.22575331409523038332,-4.4556093,-12.998719,-12.206239,-1.8433304,-9.558834,1.18373231409523038333,-4.132991,-14.422072,-6.599617,-1.9326067,-9.608229,0.34258221409523038340,-6.0387754,-14.680048,-1.6089035,-1.9933972,-9.600576,-0.160259111409523038371,-7.119757,-14.684836,1.721431,-2.2053928,-9.550763,-0.299290751409523038371,-6.1249666,-14.1108265,6.7133417,-2.4524984,-9.493548,-0.167835161409523038374,-4.947019,-14.209587,12.25113,-2.5841203,-9.4554615,0.294849281409523038380,-4.7578773,-15.164873,12.006922,-2.620379,-9.386196,1.09696841409523038405,-5.3845596,-14.651318,7.2304893,-2.648073,-9.275222,1.76872151409523038406,-5.616797,-13.374609,1.0372878,-2.753981,-9.164475,2.14438371409523038411,-5.33488,-13.248914,-1.8794483,-2.9376893,-9.1161375,2.1062821409523038429,-5.731719,-12.926893,0.8511387,-3.0868785,-9.122966,1.84745571409523038444,-5.6778493,-13.050794,0.12389994,-3.222989,-9.094717,1.75180981409523038445,-5.3683987,-13.55178,-5.2325277,-3.3111975,-9.085752,1.62956931409523038462,-4.1156325,-12.78384,-9.284714,-3.3691103,-9.133512,1.18256321409523038463,-2.9352913,-10.693702,-9.2069025,-3.3948464,-9.188467,0.466336161409523038481,-1.9375077,-9.049484,-7.9182234,-3.3690057,-9.207192,-0.218571161409523038481,-1.1605892,-9.1829605,-6.335656,-3.3194935,-9.193345,-0.79609691409523038497,-0.5542577,-11.176133,-5.146935,-3.2019188,-9.192987,-1.1862081409523038511,0.85173726,-15.670649,-3.9576154,-3.007758,-9.223709,-1.43073331409523038512,3.1184478,-19.608511,1.1091139,-2.6414826,-9.320207,-1.52536111409523038530,9.239224,-19.608511,4.709395,-2.0941696,-9.504592,-1.20315991409523038531,10.548853,-19.608511,3.1519666,-2.3630264,-9.478131,-0.86689491409523038546,6.9467764,-17.58182,0.45070848,-2.5884285,-9.44504,-0.51149931409523038564,3.8660371,-13.35785,-2.8748376,0.2590224,-9.797836,-0.32509471409523038564,2.7730842,-12.116456,-6.2339025,0.5772835,-9.778259,-0.47199561409523038579,3.3123782,-10.724228,-5.5324016,0.7420523,-9.74467,-0.81311061409523038580,3.743933,-9.527127,-4.2538977,0.87546796,-9.704902,-1.10400381409523038596,3.5901055,-8.21271,-2.8233624,1.0256776,-9.661483,-1.33196381409523038611,3.933075,-5.708974,-1.8980033,1.1901237,-9.621578,-1.47622291409523038613,3.4003649,-4.5178585,-4.6657004,1.4278418,-9.574767,-1.56700771409523038626,2.6084828,-4.4167037,-6.8569937,1.6421239,-9.485875,-1.86869371409523038632,1.614889,-4.220978,-8.79929,1.7904152,-9.353006,-2.34224411409523038650,0.7565677,-4.76506,-6.2315083,1.852221,-9.160388,-2.9710191409523038664,-0.40880993,-5.453393,-3.6487634,1.8182024,-9.028146,-3.37002941409523038664,-0.14963761,-5.514445,-0.61770403,1.6339965,-8.99386,-3.55118921409523038679,0.41120413,-5.159505,-1.2689269,1.471182,-9.054592,-3.4670391409523038680,0.8738836,-4.683657,-2.2134395,1.3935858,-9.083394,-3.4234911409523038714,1.9183542,-3.9755719,-1.2892777,1.4001193,-9.066532,-3.4652681409523038718,2.498948,-3.2495303,-1.9692309,1.5637466,-9.053448,-3.42931181409523038719,3.3584664,-2.4492683,-2.4121583,1.8008283,-8.980235,-3.50467591409523038749,4.209007,-1.9949685,-2.4109612,2.1454113,-8.837235,-3.67027381409523038749,5.1020436,-1.7381904,-2.3397336,2.6225648,-8.636955,-3.83347541409523038750,5.583278,-1.5047557,-3.0364463,3.2256045,-8.372328,-3.95853661409523038752,5.7963624,-1.2036849,-3.7044287,3.858292,-8.006395,-4.1450691409523038760,5.6628857,-0.9008184,-4.0677485,4.467471,-7.544072,-4.3930761409523038780,5.6880245,-0.87208796,-4.1599255,4.9936037,-7.0380893,-4.65828131409523038780,5.505467,-1.6106992,-3.3973722,5.4599795,-6.501955,-4.9075081409523038799,4.8500543,-3.3554738,-1.4664485,5.8338923,-6.095452,-4.99815651409523038825,2.8496985,-6.9838862,3.549404,6.0825777,-6.0154176,-4.7945131409523038825,-4.381389,-16.3512,18.508974,6.087515,-6.638028,-3.879321409523038826,-19.573795,-19.608511,19.550453,6.1934376,-6.4400563,-4.04195261409523038857,-19.60911,-19.608511,15.662868,6.2727127,-6.2725844,-4.18068461409523038858,-10.371682,-15.297153,5.2421045,6.24946,-6.1596694,-4.37871461409523038858,-6.9371996,-10.630256,4.3358994,-2.0868385,-8.941681,3.44410321409523038860,-5.2852,-7.7727757,7.2340803,-2.5370648,-8.839079,3.40651821409523038882,-0.41180268,-7.20116,6.494272,-2.9397526,-8.629901,3.61289881409523038882,3.555988,-10.220847,3.9486372,-2.8437817,-8.577519,3.80912731409523038892,8.424597,-17.471687,0.830788,-2.2734332,-8.723434,3.8605151409523038920,10.032304,-19.515139,-2.3451207,-1.1318893,-9.095564,3.48710751409523038921,4.665102,-15.262437,-0.7846996,-1.1983839,-9.0756855,3.5165621409523038922,-1.4377182,-11.555016,4.4514194,0.3860361,-9.502784,2.39133051409523038953,0.5614403,-9.794679,-3.4153287,0.2562009,-9.46589,2.54984161409523038954,2.4073699,-8.637681,-7.524976,0.31263357,-9.581836,2.06424211409523038954,2.8742392,-6.588843,-6.347627,0.5219333,-9.713093,1.24652921409523038961,2.6701334,-5.4204726,-4.474763,0.76051265,-9.758408,0.604567771409523038985,2.5139117,-5.3516393,-3.0783448,0.97752225,-9.756483,0.160877081409523038986,3.0945058,-5.865794,-2.7647045,1.1808772,-9.733836,-0.168353131409523038992,4.1413703,-6.7253127,-3.1914709,1.4365253,-9.688839,-0.48289311409523039033,4.5567646,-8.504803,-3.9019501,1.7764068,-9.611342,-0.798013871409523039035,4.19105,-10.611102,-4.3777976,2.104399,-9.508065,-1.15698681409523039035,4.1695023,-11.137826,-4.1000705,2.3259776,-9.409362,-1.49134681409523039064,3.7858315,-10.982801,-3.0358477,2.507354,-9.318576,-1.74576641409523039065,3.5075054,-10.3453455,-2.0290859,2.6194344,-9.263638,-1.86920631409523039066,3.2321723,-9.528324,-1.4945804,2.6888843,-9.238898,-1.89288711409523039066,2.7736826,-9.064447,-1.0654198,2.736074,-9.229308,-1.87193191409523039072,2.3451207,-8.921992,-1.0809821,2.7504678,-9.235846,-1.81782751409523039103,2.0488381,-9.572617,-1.2569559,2.735301,-9.2522135,-1.75642931409523039106,1.4275428,-11.133636,-1.6274586,2.6809394,-9.277721,-1.70495331409523039106,0.40581718,-12.777855,-2.112883,2.5421355,-9.323747,-1.66604171409523039112,-0.35314476,-12.968193,-2.2164323,2.29022,-9.391376,-1.6514691409523039133,-0.7942764,-11.584345,-1.7998412,1.9920194,-9.460803,-1.64178291409523039134,-0.9427169,-10.09156,-2.0021513,1.6987954,-9.523702,-1.60736621409523039141,-1.3156139,-9.852738,-2.2828712,1.4295374,-9.566883,-1.61293471409523039176,-1.2449849,-9.537302,-3.1783028,1.1583108,-9.595282,-1.66111541409523039177,-1.5077485,-9.3421755,-2.6426,0.9113316,-9.599596,-1.78539031409523039178,-2.566584,-9.845556,-1.887828,0.66129625,-9.601233,-1.88399211409523039182,-3.466804,-10.559028,-2.9466639,0.34457508,-9.606344,-1.94159111409523039201,-4.429273,-10.985794,-4.124611,-0.004641688,-9.581122,-2.09103971409523039201,-4.590882,-9.877877,-2.8060043,-0.3934303,-9.524418,-2.30241511409523039223,-4.219182,-8.497621,-1.6286557,-0.7726456,-9.480558,-2.38587781409523039223,-3.9761705,-7.8422074,-1.4676456,-1.1029762,-9.453267,-2.36423661409523039244,-3.6822822,-7.965509,-1.0869676,-1.399808,-9.423229,-2.32673121409523039244,-3.739743,-8.851364,-1.0636241,-1.642344,-9.407275,-2.23075181409523039267,-3.5745432,-9.545682,-0.6560113,-1.8559623,-9.3928995,-2.12113551409523039268,-2.956839,-9.964667,0.26156655,-2.0267026,-9.389164,-1.97648291409523039274,-2.4474726,-10.461464,0.9151836,-2.1225562,-9.411002,-1.7601641409523039304,-2.308609,-11.0061455,1.1186907,-2.1519096,-9.449051,-1.50170981409523039304,-2.2499511,-11.370663,1.1204864,-2.1446283,-9.487702,-1.24677221409523039305,-2.0949266,-11.874043,2.3774424,-2.1196456,-9.52022,-1.02123221409523039312,-1.6376339,-12.065579,4.0456023,-2.0722888,-9.558846,-0.710266951409523039329,-1.0121487,-11.59033,4.2395325,-1.990486,-9.597736,-0.303016541409523039345,-1.0175357,-11.3562975,3.618836,-1.8888156,-9.622979,0.031977491409523039345,-1.3425486,-11.424532,3.881001,-1.8150923,-9.63434,0.235223161409523039362,-1.3186066,-11.224616,5.0122614,-1.7628921,-9.636255,0.452961981409523039362,-0.36272156,-10.691308,8.607155,-1.7051371,-9.6241255,0.799448131409523039382,1.2246342,-10.843938,13.416508,-1.5868199,-9.567723,1.4529591409523039382,0.01616086,-11.574768,-2.633622,-1.3582804,-9.389089,2.48404461409523039394,-4.212598,-10.916363,-8.796896,-1.2180126,-9.500616,2.10359951409523039426,-4.5459905,-12.082937,-9.36073,-1.4339799,-9.618873,1.26149481409523039427,-4.9464207,-13.891757,-4.7656584,-1.6247972,-9.662158,0.416078241409523039428,-5.627571,-14.800955,-2.6144683,-1.8143296,-9.637355,0.0019984071409523039460,-6.3697734,-14.41489,-2.3421278,-2.0206616,-9.59384,-0.21342741409523039461,-6.318897,-14.356232,-1.5526398,-2.2671602,-9.533633,-0.374432831409523039462,-5.7562594,-14.526819,0.8319851,-2.480799,-9.477812,-0.432596861409523039466,-5.613206,-15.416863,8.494628,-2.614984,-9.444955,-0.353634541409523039498,-4.83509,-16.680403,13.526043,-2.6923037,-9.425699,0.279440641409523039499,-3.2357635,-16.486473,9.919178,-2.662809,-9.434732,0.25629291409523039508,-2.336741,-15.512631,4.2054152,-2.4909155,-9.281582,1.95396541409523039509,-1.8118122,-14.3658085,1.7405846,-2.4909155,-9.281582,1.95396541409523039526,-2.2870612,-13.636176,-0.21906945,-2.4909155,-9.281582,1.95396541409523039527,-2.8778305,-12.7257805,-2.1272483,-2.4661987,-9.315853,1.81744981409523039545,-3.2782607,-11.224616,-4.860828,-2.4520404,-9.36705,1.55442991409523039546,-2.6048915,-10.292673,-6.76781,-2.5023081,-9.416832,1.11000781409523039571,-1.9859903,-9.126697,-7.741651,-2.5249026,-9.459626,0.55741781409523039572,-1.3024458,-9.056067,-7.801506,-2.5289793,-9.474759,-0.0599922241409523039575,-0.6769605,-10.088568,-6.2620344,-2.471055,-9.467128,-0.66163581409523039604,0.50757074,-12.876616,-4.2479124,-2.3515332,-9.457667,-1.09234081409523039605,2.3678656,-18.400038,0.18555063,-2.1146507,-9.487438,-1.2989031409523039605,5.9064956,-19.608511,5.2241483,-1.6995311,-9.597526,-1.08141781409523039613,9.423578,-19.608511,5.568913,-1.0687811,-9.733159,-0.541935561409523039637,7.353192,-19.293076,2.082357,-1.314156,-9.713372,-0.30623551409523039637,4.088698,-14.098257,-2.9759927,0.27205375,-9.802132,0.1208483351409523039641,2.3971944,-11.575367,-6.4188547,0.56549835,-9.790166,-0.0570187981409523039681,1.1450269,-10.287885,-6.3943143,0.7161577,-9.769949,-0.453419831409523039682,0.81343,-9.879673,-4.784812,0.738938,-9.74088,-0.86000211409523039683,1.9249382,-9.299678,-3.0172927,0.72236794,-9.710821,-1.16125851409523039684,3.2453403,-7.7386584,-2.9753942,0.798416,-9.687028,-1.30169871409523039695,2.6862943,-6.2195373,-4.385579,0.9711092,-9.649512,-1.45405461409523039724,1.0001777,-4.3897686,-9.083003,1.1286066,-9.590734,-1.7071871409523039724,0.6404489,-3.6565444,-7.865551,1.1761694,-9.444998,-2.36199931409523039725,0.9427169,-4.3502645,-4.9458222,1.2008432,-9.284012,-2.92156431409523039752,1.1450269,-4.4939165,-2.5995045,1.2269962,-9.181289,-3.22006151409523039752,1.6412252,-4.282628,-0.9020155,1.2256194,-9.136485,-3.345581409523039755,2.497751,-3.8534677,-0.23702596,1.2870643,-9.141887,-3.3075331409523039761,3.1184478,-3.4153287,-1.0073603,1.4854159,-9.147486,-3.20740271409523039779,3.2243912,-3.1184478,-2.191293,1.7679671,-9.103404,-3.18946841409523039781,2.9628246,-2.8455088,-2.8030117,2.0788248,-8.998257,-3.2985291409523039793,3.0561984,-2.4235306,-2.307412,2.3635395,-8.860266,-3.47559761409523039823,3.518878,-2.2337902,-2.0380642,2.6643062,-8.718765,-3.6131731409523039823,4.24492,-2.2284033,-2.461838,3.0222635,-8.552758,-3.72648141409523039824,4.7279496,-2.0679917,-3.6104562,3.4616838,-8.319673,-3.86912941409523039852,4.7734394,-1.6693572,-4.8518496,3.9254196,-7.987564,-4.11828761409523039853,5.2786164,-1.3174095,-4.9703627,4.338517,-7.5424333,-4.52320241409523039853,5.8442464,-1.1180922,-4.960786,4.7886524,-7.026644,-4.88523051409523039880,5.951387,-1.7423803,-4.581305,5.24611,-6.460979,-5.1869541409523039880,5.4462104,-3.2728736,-3.66253,5.623023,-5.9836044,-5.36176541409523039882,3.4584243,-6.625355,0.10414778,5.857838,-5.759989,-5.3552441409523039893,-3.8804023,-16.46732,16.540941,5.8593254,-6.172025,-4.87286571409523039922,-16.010626,-19.608511,19.608511,5.9656677,-5.937211,-5.0329631409523039923,-19.60911,-19.608511,19.608511,6.0321856,-5.7086353,-5.21484381409523039924,-19.60911,-19.608511,14.7824,6.0129943,-5.597819,-5.35525661409523039950,-10.539874,-11.87524,5.6880245,5.7885747,-5.5481358,-5.6463251409523039951,-5.544971,-6.5146227,2.7084408,-3.1544545,-8.522274,3.68654751409523039953,-2.4672248,-5.871181,3.560178,-3.6132696,-8.437022,3.45417331409523039962,1.0785879,-7.7009497,1.365892,-3.6590648,-8.420459,3.44637471409523039978,4.6417584,-13.844471,-0.94570965,-3.306385,-8.580052,3.40894631409523039982,6.563704,-19.557634,-3.6014779,-2.4519262,-8.991246,3.0522041409523040020,5.3396683,-19.306843,-2.0626047,-1.4536276,-9.4101925,2.34641361409523040021,1.0606314,-14.1904335,4.827309,-0.7176045,-9.600518,1.86695161409523040021,0.9528923,-11.035474,3.1280246,-0.50134414,-9.569334,2.08492541409523040022,4.173094,-9.929353,-2.0919337,-0.36415392,-9.558319,2.16247941409523040048,5.3205147,-9.736021,-4.1635165,0.01397475,-9.641056,1.79450441409523040050,4.423288,-9.403826,-2.755726,0.4670406,-9.710154,1.29042791409523040055,4.176685,-7.422025,-1.4059949,0.8156872,-9.7257595,0.95637411409523040074,4.325125,-5.6006365,-0.22984336,1.139311,-9.70991,0.768126371409523040075,4.289212,-5.3103395,-0.5590461,1.480188,-9.670242,0.68252431409523040092,4.4795513,-6.541558,-1.496376,1.8155245,-9.619863,0.57664491409523040093,4.4005427,-8.205527,-2.4881742,2.1576948,-9.558368,0.390298721409523040106,3.9055414,-9.194932,-3.4871547,2.4496489,-9.495082,0.1140969251409523040121,3.1908724,-9.030929,-3.6553473,2.645874,-9.43992,-0.240135331409523040122,3.039439,-8.192958,-2.9658175,2.7490814,-9.395417,-0.582304241409523040138,3.2662897,-8.0606785,-2.1853075,2.825944,-9.353422,-0.83542561409523040142,3.4326868,-8.489241,-1.8046296,2.913806,-9.311713,-0.985966271409523040160,3.2728736,-9.178771,-1.869273,2.9855301,-9.276122,-1.10025321409523040176,2.4037786,-10.784681,-2.0416555,3.025735,-9.249279,-1.21084881409523040177,0.57760113,-14.033613,-2.319383,2.9491982,-9.26096,-1.3066161409523040196,-1.0845734,-16.497845,-2.4809916,2.6415355,-9.343724,-1.37386641409523040197,-1.4065934,-15.338453,-2.1200657,2.1781685,-9.457662,-1.40663181409523040202,-0.76195467,-12.144588,-1.2300211,1.7565389,-9.547086,-1.39215091409523040223,-0.10534488,-9.831789,-0.91817635,1.4855124,-9.600782,-1.33740431409523040224,-0.427365,-9.537302,-2.046444,1.297968,-9.64042,-1.24417151409523040240,-0.985214,-9.388862,-3.8726213,1.1040006,-9.661311,-1.26911391409523040242,-1.021127,-8.952518,-4.3059716,0.89382136,-9.653476,-1.47711091409523040268,-0.91817635,-8.786121,-3.393781,0.710873,-9.620702,-1.76272021409523040269,-1.8872294,-9.5253315,-3.5063083,0.56555533,-9.58073,-2.01498031409523040273,-3.2112231,-9.865907,-3.6709096,0.36176324,-9.535743,-2.26033571409523040297,-3.846285,-9.660006,-2.585738,0.066703886,-9.500637,-2.42978261409523040298,-3.3446999,-8.889671,-1.4700398,-0.28068158,-9.476068,-2.50913741409523040302,-2.259528,-8.276156,-1.2012907,-0.5613272,-9.47635,-2.46051071409523040325,-1.9913772,-8.407239,-0.79128367,-0.7456711,-9.487345,-2.36741661409523040326,-2.1637597,-8.859743,-0.53450555,-0.89405257,-9.508224,-2.22817021409523040343,-2.094328,-9.504981,-0.52133745,-1.0343732,-9.529711,-2.07003551409523040343,-1.6514006,-10.014946,-0.28072014,-1.147232,-9.547583,-1.92299931409523040373,-1.2372037,-10.135254,0.05925649,-1.2042258,-9.57013,-1.76999351409523040373,-1.4089876,-10.530896,0.107140526,-1.2075688,-9.599177,-1.60248331409523040374,-1.6903064,-10.9834,0.42916065,-1.2206593,-9.621799,-1.44960781409523040418,-1.7040731,-11.329363,0.74998367,-1.2457219,-9.642519,-1.28076281409523040419,-1.6017209,-11.379641,1.2485762,-1.2654579,-9.662248,-1.10000461409523040419,-1.6053122,-11.129447,1.7699136,-1.2779334,-9.681781,-0.89465611409523040420,-1.4263457,-10.6117,3.0885203,-1.2941073,-9.698145,-0.664584931409523040422,-0.9379285,-10.1304655,4.506486,-1.3004419,-9.714108,-0.339578481409523040440,-0.6254852,-10.268132,4.44304,-1.2747186,-9.723083,0.084403621409523040442,-0.98222125,-11.175535,3.6727054,-1.2224151,-9.721246,0.416480661409523040463,-1.6621746,-11.903971,3.5063083,-1.2089,-9.713094,0.603968261409523040464,-2.2296004,-12.296021,4.5938745,-1.2450761,-9.698452,0.74847631409523040475,-1.8728642,-12.448651,10.521918,-1.3139149,-9.664612,1.01944821409523040501,-2.621651,-13.280637,15.519814,-1.3607582,-9.542301,1.80644071409523040502,-4.437054,-13.947422,4.883573,-1.457534,-9.263399,2.86974071409523040502,-6.023213,-14.399926,-7.177817,-1.661481,-9.18316,3.01321271409523040539,-6.419453,-14.563929,-10.392033,-1.9384117,-9.36071,2.18861751409523040539,-5.6096144,-14.748282,0.8678981,-2.1935718,-9.477732,1.23741521409523040540,-6.7743936,-14.007875,3.602675,-2.3281195,-9.452636,1.1823381409523040542,-8.447941,-14.935629,11.104906,-2.4973023,-9.39294,1.30635631409523040562,-8.198345,-17.478271,16.554708,-2.6997921,-9.224022,1.94908791409523040562,-5.6898203,-17.459118,11.657967,-2.6045718,-9.24007,2.00191641409523040573,-3.3943794,-15.134946,-0.55246204,-2.830969,-8.844702,3.15075781409523040595,-3.5631707,-14.315531,-5.0523643,-2.8998413,-8.913433,2.88305431409523040596,-3.5075054,-13.732542,-3.4979286,-2.9608831,-9.052561,2.3355371409523040602,-2.9215245,-12.892178,-4.383185,-2.981163,-9.123799,2.00981741409523040635,-1.9536686,-12.397177,-7.2310877,-2.9379537,-9.224558,1.5640661409523040636,-2.1619642,-10.78947,-8.400057,-2.842417,-9.339535,0.929585641409523040637,-2.079364,-8.743026,-7.739257,-2.8129702,-9.390986,0.25879921409523040642,-1.6825253,-8.103774,-7.2670007,-2.8136182,-9.389552,-0.300478461409523040668,-1.2443863,-9.589975,-5.9226565,-2.7893999,-9.369783,-0.77252041409523040669,0.26755205,-13.193847,-4.8141413,-2.707218,-9.359447,-1.11451351409523040674,2.753332,-18.884865,-4.086902,-2.4453824,-9.402475,-1.33565391409523040702,7.589619,-19.608511,-1.5586253,-1.9524814,-9.504218,-1.42410431409523040702,10.117896,-19.608511,3.7445314,-1.1765959,-9.644094,-1.33321191409523040703,6.9342065,-18.75857,2.6252422,-1.4061788,-9.64878,-1.04600071409523040725,3.8905778,-14.007875,-0.09756372,0.2745223,-9.780686,-0.65819681409523040725,3.7175968,-11.754931,-3.9695864,0.5894306,-9.767921,-0.640828971409523040741,3.4464533,-10.186729,-7.6943655,0.81483126,-9.738246,-0.82037831409523040742,3.5697548,-8.870518,-5.54557,0.9947931,-9.677165,-1.23824241409523040763,4.0378213,-7.6530657,-3.0735564,1.1294132,-9.625426,-1.49866131409523040764,4.050989,-6.303933,-2.9604304,1.3179992,-9.580348,-1.62794291409523040777,1.9093759,-5.240309,-4.382586,1.5317498,-9.519494,-1.78979291409523040803,0.9935937,-5.0062757,-3.459023,1.5989476,-9.451603,-2.06904031409523040804,0.3752911,-4.8458643,-3.799598,1.6079484,-9.402292,-2.27636381409523040805,-0.3890578,-4.6405616,-4.6860514,1.5574148,-9.347251,-2.52463441409523040841,0.065242,-4.7177744,-3.436278,1.439168,-9.276964,-2.83497791409523040845,1.0253168,-4.7022123,-2.3056161,1.3652971,-9.232139,-3.01230551409523040846,1.4927847,-4.38917,-1.2425907,1.3930571,-9.206761,-3.07658361409523040847,1.751957,-3.888782,-0.93134445,1.462705,-9.200725,-3.06228731409523040872,2.5809495,-3.1052797,-1.0989386,1.5770977,-9.191626,-3.03267961409523040872,3.3566709,-2.2343888,-0.99419224,1.8172158,-9.145153,-3.0388031409523040874,3.2585084,-1.9494787,-2.3959973,2.1879306,-9.05802,-3.05542761409523040904,3.0627825,-1.8567034,-4.1012673,2.545833,-8.893513,-3.2549261409523040905,3.7786489,-1.7190368,-3.5966895,2.8465774,-8.639597,-3.66397981409523040906,4.8494554,-2.1505916,-2.8999767,3.2450645,-8.3481045,-3.9936291409523040928,5.4964886,-2.243367,-3.876811,3.7602384,-8.042472,-4.16528841409523040929,5.898116,-2.110489,-4.183269,4.273919,-7.638447,-4.4224651409523040934,6.173449,-2.1667526,-4.1695023,4.782585,-7.1828885,-4.6586911409523040963,5.8663926,-2.6850972,-3.9827545,5.2678585,-6.7235627,-4.8180681409523040964,5.405509,-3.5924997,-3.268684,5.625633,-6.3559146,-4.9117171409523040964,4.2658687,-5.7987566,-0.95588505,5.8565946,-6.1661754,-4.88354441409523040974,1.3281834,-12.025476,9.493608,5.903908,-6.367078,-4.55791141409523041000,-9.768942,-19.608511,19.608511,5.5752335,-7.5873303,-2.7421911409523041001,-19.327791,-19.608511,17.85476,5.680429,-7.438249,-2.92840671409523041003,-19.60911,-19.608511,16.166248,5.7579894,-7.342794,-3.01650881409523041024,-16.081852,-17.46271,11.110293,5.736326,-7.3335404,-3.07963251409523041024,-1.9542671,-5.5946507,4.823119,5.6172514,-7.348518,-3.2582391409523041043,-6.711546,-7.4735007,3.639785,-2.980047,-8.523151,3.82695981409523041043,-2.8502972,-6.3739634,4.44304,-3.3958464,-8.415491,3.71727321409523041054,-0.55485624,-7.4561424,2.6557682,-3.3826575,-8.37838,3.81192421409523041073,1.5358804,-8.355764,1.2898762,-3.1960378,-8.446164,3.82335451409523041096,5.471948,-12.870031,0.05746084,-2.7423418,-8.619051,3.78971271409523041098,6.578069,-18.462288,-4.349666,-1.8362197,-8.981566,3.48283581409523041099,3.503914,-10.943297,-4.669292,-0.9238002,-9.4057665,2.6169751409523041103,3.127426,-9.348759,-1.62686,-0.501006,-9.590164,1.98698681409523041144,4.596867,-9.446921,-1.2210429,-0.15958062,-9.660408,1.67971661409523041146,5.613206,-10.128671,-2.9041667,0.30016515,-9.700303,1.40868841409523041147,4.8309007,-11.42932,-3.2202013,0.82779175,-9.72495,0.954203371409523041148,3.9121256,-10.501567,-2.285864,1.2029169,-9.71832,0.52690211409523041154,4.3263226,-8.488642,-1.1845313,1.4537373,-9.694781,0.261230441409523041180,4.735132,-7.643489,-1.0935516,1.7480069,-9.648982,0.109707741409523041180,4.607043,-8.224682,-1.5945383,2.0685215,-9.585976,-0.0260521421409523041183,4.0581717,-9.534309,-2.255338,2.3548477,-9.517934,-0.184447351409523041213,3.4201171,-10.234613,-2.6713305,2.5365639,-9.465151,-0.383586941409523041214,2.6036944,-9.855731,-2.72939,2.64872,-9.422618,-0.60740971409523041215,2.1751323,-8.809465,-2.4301147,2.6765323,-9.39923,-0.81304721409523041223,2.3319526,-7.828441,-1.9752164,2.666362,-9.386301,-0.978917241409523041246,2.7760768,-7.4124484,-1.6071079,2.6717856,-9.371436,-1.0991591409523041246,2.247557,-8.059482,-1.3814543,2.7211404,-9.347116,-1.18203531409523041256,0.8265981,-10.388441,-1.4526819,2.7115571,-9.343133,-1.23439981409523041279,-0.78410107,-12.956821,-1.5221137,2.5278702,-9.390398,-1.265191409523041280,-1.7142484,-13.859435,-1.3820529,2.15496,-9.482875,-1.26556121409523041283,-2.0219033,-13.0041065,-1.0737995,1.7424461,-9.572238,-1.22740191409523041320,-2.0470424,-11.550227,-0.9564836,1.3485289,-9.644969,-1.15171381409523041320,-2.682703,-10.618284,-1.0570401,0.9949878,-9.6981325,-1.06141721409523041321,-3.2279825,-10.077195,-1.3126211,0.62036216,-9.737075,-0.98737091409523041323,-3.1172507,-9.39365,-1.4155718,0.23780514,-9.756909,-0.957367961409523041357,-2.2990322,-8.62152,-2.540248,-0.10003099,-9.758148,-0.968973341409523041358,-1.9865888,-8.585009,-2.7844565,-0.33117783,-9.738278,-1.10752171409523041359,-2.0817583,-8.746617,-1.9752164,-0.52914953,-9.706733,-1.29216841409523041370,-2.7766755,-8.785523,-0.97025025,-0.6997683,-9.674179,-1.44602271409523041391,-3.4452562,-8.792706,-0.48961425,-0.88472444,-9.644841,-1.53775731409523041391,-3.402759,-8.599973,-1.4891934,-1.1038413,-9.618964,-1.55803231409523041413,-2.9334955,-8.385093,-2.083554,-1.3139509,-9.580003,-1.6332421409523041415,-2.2008698,-8.893262,-1.8716671,-1.4797707,-9.538652,-1.73055021409523041415,-1.5520413,-9.93474,-1.578976,-1.5617281,-9.517775,-1.77295341409523041423,-1.115698,-10.315418,-1.6903064,-1.5554569,-9.520619,-1.76316341409523041443,-0.7104794,-10.279505,-1.2012907,-1.4992429,-9.532834,-1.74576821409523041443,-0.30526072,-9.981427,-0.6787562,-1.4074172,-9.558048,-1.68322961409523041454,-0.23403321,-9.5492735,-0.5793968,-1.2864228,-9.590126,-1.59530471409523041472,-0.7218518,-9.417592,-0.5303157,-1.1741412,-9.616289,-1.52274741409523041488,-1.146224,-9.679757,-0.24061728,-1.1215439,-9.633235,-1.45372591409523041488,-1.4879963,-10.2417965,0.14844051,-1.1168426,-9.647052,-1.36288981409523041503,-1.6232687,-10.742185,0.39683893,-1.1495624,-9.660826,-1.23180631409523041503,-1.5472529,-11.054627,0.6799533,-1.1871953,-9.672639,-1.09592821409523041519,-1.5089456,-11.303625,1.1288661,-1.2160621,-9.684956,-0.9451031409523041523,-1.54845,-11.711836,3.2142158,-1.2343448,-9.698398,-0.766723161409523041535,-1.8171991,-12.194268,4.721366,-1.2449554,-9.718564,-0.412308961409523041552,-2.6970682,-13.172299,4.783615,-1.2696397,-9.724111,0.0091095751409523041556,-3.2106245,-14.259866,6.973711,-1.3618705,-9.706443,0.317322281409523041572,-3.080739,-14.60882,17.938557,-1.4816839,-9.665575,0.74273761409523041585,-3.5793316,-14.389153,17.025766,-1.4971938,-9.688681,0.241441581409523041586,-4.549582,-13.393165,-1.4879963,-1.4847078,-9.691541,-0.20010051409523041609,-5.392939,-13.807362,-11.996147,-1.8935784,-9.21894,2.7560671409523041609,-4.881179,-14.994287,-9.512762,-2.1111352,-9.402254,1.81963771409523041617,-4.035427,-15.234904,-2.0979192,-2.2034616,-9.50313,1.00283711409523041623,-5.2684407,-14.971541,4.004901,-2.2026072,-9.530871,0.69384181409523041644,-6.3153057,-15.190013,9.504382,-2.2711492,-9.503973,0.82872421409523041644,-5.892729,-15.23251,13.648746,-2.401701,-9.40947,1.36531071409523041655,-5.4504004,-15.947778,4.1395745,-2.5141416,-9.241036,2.1101531409523041681,-4.646547,-13.10167,-1.2126632,-2.6296651,-9.180094,2.23184281409523041682,-5.023035,-13.811551,-2.6222494,-2.7735798,-9.177492,2.0618651409523041683,-5.2026005,-13.199833,-4.3239284,-2.9021158,-9.1975765,1.7755751409523041726,-5.2780175,-13.038822,-7.8912888,-3.0133653,-9.232921,1.35764911409523041727,-4.4514194,-12.926893,-9.250597,-3.1066597,-9.273346,0.72396051409523041729,-3.4243069,-11.125257,-9.17099,-3.1477404,-9.287642,0.0424609851409523041730,-2.1823149,-9.36911,-7.5950065,-3.1508574,-9.268762,-0.57665761409523041739,-1.335366,-8.931569,-5.8963203,-3.1194766,-9.233546,-1.08668731409523041767,-0.6422446,-10.618883,-5.2277393,-3.0454826,-9.214738,-1.40854661409523041768,1.06123,-15.555128,-3.5380316,-2.8911014,-9.22767,-1.63157051409523041768,4.5699325,-19.608511,-2.6102784,-2.531837,-9.327862,-1.65866071409523041801,10.031705,-19.608511,0.3812766,-1.9068652,-9.488271,-1.58332941409523041802,10.484808,-19.608511,2.1619642,-2.1802227,-9.4854965,-1.20098981409523041802,6.022016,-17.673998,2.441487,-2.3593364,-9.484584,-0.804095451409523041803,3.3865983,-13.354259,-0.93852705,0.3738301,-9.771277,-0.74349021409523041824,3.3147724,-11.394605,-7.5267715,0.66442955,-9.752948,-0.780351041409523041851,3.964798,-10.50875,-8.622718,0.87185943,-9.693969,-1.1988461409523041852,4.7405195,-9.258378,-5.6748567,1.0443621,-9.614148,-1.62722861409523041854,5.1666875,-6.8306575,-2.5073278,1.2428576,-9.544083,-1.88047711409523041881,4.6800656,-4.9733553,-0.92895025,1.4954032,-9.485681,-1.98897841409523041882,3.1489737,-4.748899,-4.624999,1.7590692,-9.435967,-2.0096291409523041888,2.307412,-4.6004586,-7.7637978,1.9205352,-9.338824,-2.29527541409523041889,0.587178,-4.367024,-9.39365,2.0259264,-9.17573,-2.80570221409523041915,-0.093373865,-4.52145,-4.795586,1.9815538,-8.971121,-3.4296981409523041916,-0.40701428,-4.8494554,-2.345719,1.8727605,-8.893067,-3.68463731409523041918,-0.044292733,-4.7656584,-0.5422867,1.7017864,-8.898692,-3.75334481409523041952,0.6512229,-4.136582,-1.0055647,1.5608517,-8.961296,-3.6645981409523041952,0.78649527,-3.4871547,-3.3291376,1.5299866,-8.987342,-3.61348181409523041953,1.6591818,-2.5474305,-2.6240451,1.5325288,-8.910166,-3.7987821409523041955,2.7263973,-1.5783775,-1.8052281,1.6692113,-8.821877,-3.94443851409523041971,3.4434607,-0.8798691,-2.7736826,1.9707167,-8.711687,-4.0488471409523041987,4.797382,-0.40462008,-2.4301147,2.3713312,-8.486156,-4.3049231409523041988,5.521628,-0.2741361,-2.930503,2.9855192,-8.176481,-4.51688241409523042003,5.716755,-0.11911154,-4.0186677,3.69921,-7.7456064,-4.74255661409523042004,6.1650696,0.12210429,-4.4663835,4.3703933,-7.177163,-5.05552861409523042019,6.493075,-0.62608373,-4.4597993,5.02209,-6.5044613,-5.351731409523042039,5.9956794,-2.203264,-4.23654,5.574699,-5.892682,-5.51084761409523042040,4.993706,-4.0623617,-2.6384103,5.892597,-5.518194,-5.5675151409523042053,3.1280246,-6.8970966,1.8620903,6.0557733,-5.5033813,-5.40471409523042055,-1.9871874,-14.40651,14.756063,6.066396,-6.1078787,-4.6971341409523042069,-14.249091,-19.608511,19.608511,5.3010917,-8.006308,-1.99194371409523042086,-19.60911,-19.608511,19.608511,5.395329,-7.884789,-2.21154261409523042087,-18.32941,-19.608511,14.353838,5.4297776,-7.815715,-2.366971409523042104,-7.0808516,-15.092449,6.7372837,5.3523045,-7.813879,-2.54293561409523042105,-5.605425,-8.544906,5.903503,-2.5820928,-8.630075,3.87620741409523042118,-3.3051953,-6.5068417,6.39192,-2.894593,-8.503872,3.93393971409523042144,0.4914099,-5.9567738,3.892972,-3.029492,-8.377713,4.0995721409523042144,2.168548,-6.215348,2.4396915,-2.8134642,-8.387535,4.23131851409523042145,3.6661212,-6.8905125,2.3774424,-2.3906107,-8.483886,4.2987271409523042183,6.625355,-11.455058,2.6210523,-1.7764124,-8.637506,4.29048441409523042184,5.33069,-17.535133,-1.7603368,-0.85281396,-8.88308,4.0662021409523042184,2.5312698,-17.191565,-4.4580035,-0.18558161,-9.243246,3.27083781409523042185,0.092176765,-13.5930805,-3.0801406,0.062007543,-9.50637,2.40738151409523042214,0.2645593,-12.035053,0.23403321,0.07629063,-9.620254,1.90139191409523042215,2.6360161,-11.581951,-1.7597382,0.08424129,-9.649269,1.7478281409523042218,3.515885,-10.345944,-4.8763905,0.311715,-9.698111,1.42122791409523042256,3.2453403,-9.427169,-3.280655,0.60053664,-9.749711,0.86768741409523042258,3.8576574,-8.080431,-1.9662381,0.84365714,-9.758047,0.489044641409523042259,4.6645036,-7.328053,-1.2348095,1.1421535,-9.737322,0.224638491409523042304,4.583101,-7.7159133,-1.4389153,1.5079558,-9.689778,0.068309861409523042305,4.144363,-8.841787,-1.7609353,1.8405724,-9.631953,-0.0904255361409523042305,3.70802,-9.657013,-1.9812019,2.0990596,-9.575995,-0.254326641409523042306,3.2626984,-9.775525,-2.0380642,2.2911437,-9.525747,-0.425670471409523042306,3.0137014,-9.270947,-1.7998412,2.4149103,-9.48669,-0.58422261409523042307,2.9233203,-8.59698,-1.6184803,2.498589,-9.456711,-0.70574181409523042326,2.7216089,-8.136695,-1.6537948,2.5651157,-9.431172,-0.80222591409523042327,2.355296,-8.3408,-1.6968905,2.6119397,-9.409472,-0.89999771409523042337,1.5346833,-9.697714,-1.7878702,2.6203723,-9.397235,-0.99800221409523042360,0.21428105,-11.919533,-1.6226702,2.5273044,-9.413633,-1.08010471409523042361,-0.92895025,-13.320141,-1.2976574,2.2789676,-9.472294,-1.11908881409523042364,-1.6777369,-13.000515,-0.7332243,1.9307176,-9.551242,-1.10295771409523042402,-1.9626468,-11.518504,-0.61112,1.5507039,-9.628798,-1.02565771409523042403,-2.106299,-10.548853,-1.6555905,1.1862489,-9.68922,-0.939260661409523042404,-2.4666264,-10.51713,-2.956839,0.8381781,-9.72426,-0.952167451409523042404,-2.5779567,-9.952098,-2.9771898,0.50365824,-9.731686,-1.10047011409523042421,-2.3953989,-9.444528,-2.755726,0.18207681,-9.725212,-1.24798971409523042439,-2.532467,-9.38168,-3.6649241,-0.08333675,-9.702299,-1.42438461409523042440,-3.1591492,-9.35235,-4.6800656,-0.31995326,-9.652297,-1.70328971409523042444,-3.4644098,-8.768764,-4.111443,-0.57037795,-9.574847,-2.04141281409523042471,-3.520075,-7.93618,-2.7862523,-0.82123953,-9.499545,-2.29229141409523042472,-3.210026,-7.2783732,-1.9979613,-1.0766598,-9.446354,-2.40365821409523042475,-2.8736405,-7.0126166,-2.0374656,-1.3090544,-9.412012,-2.42296841409523042484,-2.3139958,-7.253833,-0.58538234,-1.5080831,-9.378804,-2.43600561409523042509,-1.8555063,-8.379107,1.411382,-1.6294366,-9.393189,-2.29855591409523042510,-2.15957,-10.0987425,0.81343,-1.689676,-9.46039,-1.95355951409523042517,-2.0973208,-11.343728,0.08559271,-1.7405115,-9.504019,-1.67769561409523042539,-1.4030021,-11.616667,0.095169514,-1.744126,-9.535109,-1.48663541409523042540,-0.92416185,-11.279084,0.11432313,-1.6680818,-9.572579,-1.32424071409523042544,-1.073201,-10.885837,0.038905777,-1.560639,-9.607599,-1.195351409523042574,-1.3509283,-10.599131,0.20350714,-1.4834242,-9.632684,-1.08684711409523042574,-1.5394717,-10.891224,0.3716998,-1.4495275,-9.648919,-0.98367161409523042577,-1.6741456,-11.552023,0.48243165,-1.4335917,-9.661649,-0.87621011409523042584,-1.6286557,-11.859678,0.6697779,-1.432605,-9.67084,-0.76998941409523042611,-1.6358383,-11.775881,1.3940239,-1.4295094,-9.679549,-0.65819181409523042612,-1.6603789,-11.607688,3.7834373,-1.43138,-9.688876,-0.497208481409523042616,-1.4867992,-11.555016,5.204396,-1.4409187,-9.699149,-0.143721661409523042641,-1.5035586,-12.018892,5.2319293,-1.4430696,-9.69638,0.26108281409523042642,-1.3814543,-12.118252,6.399701,-1.4439993,-9.680855,0.605226641409523042644,-0.9127894,-12.372636,16.159065,-1.453093,-9.651469,0.952917641409523042675,-2.8808231,-14.5567465,18.485632,-1.4401591,-9.473102,2.0872661409523042676,-5.3594203,-14.836269,-0.5883751,-1.6078656,-9.538444,1.61346281409523042677,-6.9677253,-14.572309,-12.964602,-1.791843,-9.185992,2.92868881409523042684,-6.642114,-14.879964,-8.839393,-2.1050808,-9.390719,1.88505041409523042713,-6.295553,-14.787189,-3.6337996,-2.3040013,-9.469202,1.09369871409523042714,-7.9427643,-14.687829,0.53809685,-2.428819,-9.478091,0.66106861409523042716,-10.411784,-15.5671,6.655282,-2.6757472,-9.413302,0.632878661409523042744,-10.203489,-15.080478,12.91193,-3.0163229,-9.281154,0.96558621409523042745,-8.832211,-15.139734,10.912173,-2.9612184,-9.299532,0.95930941409523042746,-6.555324,-14.645331,2.0446482,-3.535423,-8.864596,2.25613021409523042765,-4.5274353,-13.892355,-1.9063832,-3.666693,-8.811305,2.25536511409523042766,-3.578733,-14.401722,-2.4277205,-3.6886768,-8.861118,2.0111241409523042783,-2.3660698,-14.800955,-7.5016327,-3.6051867,-8.957068,1.71578981409523042784,-1.9087774,-12.313978,-9.543886,-3.4333508,-9.117547,1.11930431409523042802,-1.7471687,-9.667787,-8.826224,-3.3164396,-9.220737,0.38682551409523042816,-1.1378443,-8.942344,-7.0144124,-3.2443888,-9.251163,-0.245621981409523042817,-0.5967548,-10.271125,-6.0160303,-3.1402209,-9.26344,-0.705761731409523042833,0.7326257,-13.286622,-5.351041,-2.9794898,-9.28482,-1.0417181409523042836,2.5887306,-18.73822,-2.5773582,-2.6796687,-9.344793,-1.29020261409523042850,6.8851256,-19.608511,0.8487445,-2.1917574,-9.473704,-1.27102331409523042868,10.014347,-19.608511,2.7641058,-1.4553854,-9.6426525,-1.03513221409523042868,7.530363,-18.463486,1.4508862,-1.7041234,-9.631448,-0.708188951409523042884,3.8786068,-14.043789,-0.42676646,0.002904782,-9.792198,-0.53219651409523042884,2.5198972,-12.039244,-5.1762643,0.34222794,-9.78666,-0.52395961409523042899,2.296638,-10.4171715,-7.6201453,0.55172527,-9.756928,-0.817517761409523042916,1.6783354,-10.020931,-5.0026846,0.6763342,-9.7045145,-1.23908941409523042917,3.0579941,-9.438541,-3.1603463,0.70907503,-9.669054,-1.47548351409523042934,4.621408,-8.252813,-2.566584,0.83303696,-9.637309,-1.61205171409523042952,4.074931,-6.8001313,-1.46585,1.093262,-9.5962925,-1.69892351409523042952,3.1549592,-5.547964,-3.0735564,1.3220878,-9.564381,-1.71612741409523042964,2.6408045,-4.313154,-6.7486563,1.5146631,-9.507189,-1.86803351409523042964,1.8339585,-3.5021186,-7.567473,1.6817677,-9.373112,-2.34240031409523042984,-0.02932897,-4.196437,-6.203975,1.7733907,-9.200055,-2.89559651409523042984,-0.2184709,-5.3025584,-2.8814218,1.6770977,-9.075276,-3.31618741409523043000,0.23343466,-5.4623713,-0.770933,1.5384736,-9.061925,-3.41833421409523043013,