time,acc_x,acc_y,acc_z,gravity_x,gravity_y,gravity_z1409523561912,-0.6536171,9.617508,1.632247,0.036936816,9.652843,1.72963771409523561912,-0.58538234,9.782708,1.6095021,-0.028235622,9.655618,1.71424961409523561928,-0.50038815,10.14543,1.5819688,-0.079985976,9.6585865,1.69579391409523561930,-0.46986207,10.645219,1.6118963,-0.118722826,9.662496,1.67107741409523561947,-0.56682724,11.031883,1.6705543,-0.15070231,9.66668,1.64406841409523561980,-0.6931214,11.153987,1.8650831,-0.19054596,9.669855,1.62111311409523561983,-0.54049104,11.23539,2.0093338,-0.23966011,9.668982,1.61980371409523561984,-0.11432313,11.336545,1.9722236,-0.26802403,9.666084,1.63259951409523561985,0.19991584,11.2725,1.6561891,-0.24968526,9.66538,1.63966171409523562001,0.26276365,10.970232,1.2707225,-0.20450814,9.669964,1.61876151409523562002,0.31603462,10.585963,0.97862995,-0.16329817,9.678421,1.57223011409523562009,0.44352585,10.183737,0.9516952,-0.12374387,9.688407,1.51322721409523562026,0.41180268,9.845556,1.3515269,-0.07209551,9.697039,1.46035961409523562030,0.32800564,9.742605,1.9542671,-0.027762745,9.697174,1.46096861409523562041,0.3489549,9.798869,2.3660698,0.008078678,9.688105,1.52018191409523562064,0.47105917,9.907805,2.5570073,0.04533961,9.673622,1.60915661409523562065,0.6063316,10.010756,2.5833437,0.09293577,9.657642,1.70050281409523562070,0.74998367,10.06283,2.44029,0.14830928,9.642548,1.7803551409523562099,0.93852705,10.0508585,2.1398177,0.20890725,9.6306715,1.8376451409523562100,1.074398,9.918579,1.8022354,0.2773276,9.624248,1.86208331409523562102,1.1067197,9.60853,1.5628152,0.35285512,9.622984,1.85581371409523562110,1.1641805,9.299079,1.483208,0.42347822,9.624186,1.83469861409523562131,1.2389994,9.016563,1.4173675,0.49457714,9.62465,1.8143631409523562132,1.146224,8.74123,1.4161704,0.5699148,9.62386,1.79636611409523562144,1.0450691,8.579621,1.4425066,0.6307383,9.621943,1.78627441409523562164,1.0109516,8.5622635,1.4359225,0.67543465,9.619492,1.78312611409523562171,0.87807345,8.626907,1.359308,0.7123995,9.617531,1.77932791409523562171,0.7787141,8.785523,1.2000936,0.73432845,9.61851,1.76506211409523562199,0.7038953,8.9519205,1.1031284,0.7395915,9.623012,1.73811451409523562200,0.6063316,8.956709,1.1414356,0.7355501,9.629307,1.70464771409523562204,0.4441244,8.710705,1.3569138,0.7241069,9.634591,1.67950681409523562210,0.26874915,8.549096,1.6011224,0.70120317,9.635818,1.68217861409523562224,0.15023616,8.620922,1.7699136,0.66438675,9.633853,1.7081771409523562230,0.077213004,8.937555,1.7687165,0.6182905,9.630849,1.74208451409523562242,0.07062895,9.270947,1.6430209,0.5672864,9.62965,1.76591131409523562265,0.16400282,9.598354,1.3736732,0.5162015,9.633355,1.76135911409523562265,0.40880993,9.965864,1.0582372,0.48400268,9.6426325,1.71923851409523562270,0.75716627,10.518925,0.8355764,0.48093146,9.656182,1.64233471409523562305,1.0893618,11.235989,0.8619126,0.51482934,9.670723,1.54352411409523562307,1.2078748,12.029667,1.5945383,0.5773419,9.681676,1.44990541409523562308,1.1162965,11.711238,2.1098902,0.63972855,9.680851,1.42906831409523562310,0.6901286,11.283274,2.4546554,0.6879884,9.672076,1.46559811409523562341,0.18495208,11.190498,2.6102784,0.6897166,9.660919,1.5366591409523562342,-0.0700304,11.416751,2.4911668,0.6450556,9.651611,1.61267261409523562344,-0.29209262,11.69807,2.0272903,0.57921004,9.647584,1.66103591409523562366,-0.5758055,11.915942,1.447295,0.49792293,9.652988,1.65598031409523562367,-0.96546185,12.261306,0.52133745,0.3955185,9.667705,1.59669941409523562370,-1.7806876,12.58153,-1.4449008,0.26253098,9.693745,1.46040511409523562395,-2.8161798,12.919711,-4.735132,0.06480653,9.736759,1.16692721409523562395,-3.6595373,13.170504,-4.9733553,-0.2046642,9.784806,0.62132161409523562408,-4.096479,13.297995,-2.5450363,-0.5032421,9.792936,0.124758011409523562410,-4.5118732,13.010691,-0.516549,-0.8062164,9.773153,-0.076700381409523562425,-5.357026,12.018892,-0.10175357,-1.1021254,9.744403,-0.048220721409523562440,-5.9639564,11.373655,-1.3814543,-1.437964,9.70063,0.0203103831409523562443,-5.183447,12.247539,-3.7044287,-1.7946755,9.640954,-0.0388736281409523562458,-3.8121676,13.402143,-6.39611,-2.029566,9.589741,-0.296838341409523562461,-3.6349967,13.226768,0.22804771,-2.0933607,9.551667,-0.7442391409523562476,-4.5082817,11.365275,6.3721676,-2.144651,9.549283,-0.61813541409523562492,-4.087501,10.962451,3.5847185,-2.2992563,9.533062,-0.067184951409523562493,-3.7600937,10.44231,3.164536,-2.444673,9.496349,0.1153384451409523562508,-2.7401638,11.005547,3.9384618,-2.5518746,9.466285,0.21851651409523562510,-2.4528596,12.076952,1.894412,-2.5401754,9.4621,0.431888041409523562524,-2.2505496,11.894993,0.36152446,-2.5021296,9.467888,0.518496631409523562541,-0.3788824,13.402741,-0.078410104,-2.4703898,9.47727,0.49893621409523562542,2.094328,16.506824,1.5472529,-2.2792087,9.528024,0.438586651409523562560,3.715801,19.276316,3.6218286,-1.8605303,9.616045,0.49040511409523562576,4.1293993,19.454086,3.9043443,-1.3572423,9.68893,0.67300741409523562577,5.0421886,17.839796,1.9758149,-0.90920687,9.730662,0.811134641409523562591,5.355231,16.031574,-0.12569559,-0.4637892,9.765433,0.76917471409523562591,5.027225,15.291766,0.7715315,-0.27726182,9.793581,0.423404281409523562607,4.221576,14.525621,3.3153708,-0.117697574,9.805109,0.127946591409523562610,3.508104,13.600263,3.769072,-0.006069676,9.806576,-0.0378273351409523562625,2.0087352,12.469601,3.347094,0.05781097,9.805018,-0.169325471409523562642,0.8984242,11.639412,3.3854012,0.049205054,9.802168,-0.292318221409523562642,0.2837129,10.809222,3.86903,-0.011890052,9.798273,-0.40509881409523562657,-0.37110126,9.713875,4.486734,-0.10766572,9.793407,-0.497976421409523562662,-0.92535895,8.7849245,4.743512,-0.24153264,9.787348,-0.565572861409523562674,-0.8499416,7.9152308,3.882198,-0.4133391,9.779027,-0.608416561409523562690,-0.47165772,7.0066314,2.6611552,-0.594661,9.766711,-0.65430331409523562691,-1.2240356,6.143522,3.2603042,-0.7661156,9.750072,-0.72079031409523562711,0.005985504,6.505046,3.3393128,-0.9450046,9.729924,-0.778427661409523562711,0.38367084,6.3087215,6.3991027,-1.0917962,9.710381,-0.82879941409523562730,1.3742718,5.234922,5.864597,-1.2119141,9.69723,-0.815710841409523562731,1.2401965,4.3742065,2.581548,-1.3073419,9.684271,-0.822287261409523562748,0.51116204,3.4159272,1.0229226,-1.4081255,9.663971,-0.891758861409523562766,0.7906851,3.2273839,1.270124,-1.5135816,9.637938,-0.99482061409523562767,2.2373815,3.2986114,1.0253168,-1.6078825,9.609971,-1.11066521409523562770,3.5434184,2.9179332,0.81043726,-1.6751274,9.583909,-1.23004631409523562793,4.1701007,2.4791958,0.7110779,-1.7227253,9.559431,-1.34902861409523562793,4.5561657,2.4636335,0.7799112,-1.7552997,9.535622,-1.47011821409523562814,4.4544125,2.4169466,1.5358804,-1.7784159,9.513204,-1.58321961409523562815,4.3197384,2.1332338,2.132635,-1.795995,9.494763,-1.67159521409523562822,4.140772,1.8836381,2.3080103,-1.8048861,9.483845,-1.72321151409523562847,4.1635165,1.7483658,1.9033904,-1.8025957,9.481546,-1.73820211409523562848,3.882198,1.6591818,-0.05327099,-1.7813319,9.488338,-1.72299641409523562851,3.7361517,2.6156654,-1.7190368,-1.7552415,9.495891,-1.70810511409523562883,2.9029696,4.1695023,-3.5314474,-1.6982598,9.513451,-1.6675031409523562887,1.5292963,7.765593,-6.7546415,-1.6075379,9.540268,-1.60296541409523562888,-3.301604,17.609953,-17.149069,-1.4724826,9.569632,-1.55704011409523562891,-11.068395,19.608511,-19.585768,-1.3596697,9.615839,-1.36283391409523562922,-14.645331,19.608511,-11.518504,-1.2162254,9.660581,-1.16805181409523562923,-16.871939,19.608511,-1.8920178,-1.078671,9.686259,-1.08775841409523562924,-14.705786,16.972496,0.18794483,-1.0237783,9.698535,-1.02987551409523562950,-6.5008564,11.983578,-0.5327099,-1.0470188,9.708418,-0.905948761409523562951,-4.021062,9.2494,-2.7850552,-3.4339516,8.853776,-2.44724131409523562952,-4.103063,8.025364,-3.9019501,-3.4957309,8.832807,-2.43552851409523562975,-4.6519337,6.432023,-3.1471782,-3.5398386,8.764312,-2.61280421409523562976,-4.917092,2.6779146,2.8455088,-3.6898203,8.648883,-2.78432681409523562992,-2.2481554,2.2613235,11.513118,-3.997831,8.593333,-2.51840691409523562992,0.8750807,5.9717374,9.868899,-4.167834,8.771955,-1.36102131409523563008,1.3958195,8.467094,3.7840357,-3.862566,9.011543,-0.207533331409523563010,3.6493618,12.5982895,0.25438392,-3.3312862,9.220855,0.220834121409523563024,5.5647235,15.721525,-1.8579005,-2.46815,9.4889765,0.194791931409523563041,7.5285673,18.396448,-1.2360066,-1.4559207,9.6977825,-0.0608843861409523563045,7.902063,19.190125,-1.9015948,-0.42087418,9.796262,-0.162743761409523563060,7.381324,17.44535,-3.098097,0.38867456,9.795992,-0.24054481409523563075,6.455965,13.237541,-0.11611878,0.94698197,9.75443,-0.353151409523563075,3.5434184,7.73806,0.8230068,1.3409878,9.712695,-0.188910471409523563089,1.7992426,5.072715,0.85054016,1.5290766,9.686672,-0.0260609091409523563091,2.0428526,5.590461,1.1665748,1.5778039,9.67831,0.1060778651409523563108,3.245939,7.0587053,2.3223755,1.6857951,9.658801,0.189936891409523563111,4.691438,8.4587145,4.011485,1.9231623,9.60964,0.355882641409523563124,5.394735,9.145252,5.533599,2.257952,9.519619,0.66998191409523563139,3.5392287,8.485051,5.775413,2.5863562,9.396277,1.09139651409523563142,1.8435353,8.003218,4.663306,2.6900513,9.31122,1.4950651409523563155,1.4736311,8.801085,3.6469676,2.6338,9.274266,1.79484581409523563171,1.6502035,9.920375,3.354875,2.5144746,9.278399,1.93884581409523563171,2.0871453,10.646417,3.4596214,2.4203184,9.28221,2.03791409523563188,2.6102784,10.979809,3.7702692,2.377313,9.271447,2.13519361409523563191,2.7419596,11.004948,3.858256,2.3811302,9.244429,2.24525621409523563208,2.7299886,10.900202,3.2465374,2.3820329,9.218248,2.34951141409523563211,2.4001873,10.503363,2.4774003,2.366593,9.212062,2.3890451409523563228,2.2254105,10.432136,1.4766239,2.3195999,9.229012,2.36964181409523563231,1.7166426,9.934141,0.7272388,2.2769146,9.2639885,2.27257041409523563242,0.97982705,8.821436,0.23582886,2.1999252,9.317386,2.12533571409523563267,0.005985504,7.8811135,-0.24839842,2.0799775,9.377818,1.97499781409523563268,-1.1043255,7.2406645,-0.6991069,1.9010297,9.449513,1.8064211409523563271,-1.9201498,7.100005,-0.76554596,1.6460211,9.531848,1.61396311409523563300,-2.0578163,7.479486,-1.316811,1.3354784,9.609707,1.42843351409523563302,-1.4377182,7.8811135,-5.3169236,1.0404111,9.678131,1.19235581409523563303,-1.7022774,7.6369047,-3.7666779,0.8445136,9.754863,0.54759591409523563327,-2.9682117,6.692991,-0.26276365,0.6038433,9.787373,0.114453481409523563328,-3.3919852,7.1472907,1.4101849,0.19710985,9.802994,0.181338561409523563331,-2.834735,7.765593,2.0739772,-0.2544038,9.794248,0.422344541409523563364,-2.3876176,7.978079,2.179322,-0.5675778,9.767573,0.665385841409523563365,-2.1930888,8.392874,2.0242975,-0.7744214,9.736878,0.87397661409523563366,-1.7944542,9.010578,1.8782512,-0.9330966,9.706972,1.03654031409523563371,-1.4885949,9.865308,2.167351,-1.0242928,9.684151,1.15691271409523563395,-1.6298528,10.701483,2.4768016,-1.0661647,9.663468,1.28493341409523563396,-2.0727801,11.578958,1.8525136,-1.1060119,9.641211,1.41215631409523563414,-2.3110032,12.531252,0.78769237,-1.1916815,9.628071,1.43197461409523563415,-2.0979192,12.913127,-0.3309984,-1.2821438,9.632196,1.3218491409523563423,-1.7872716,13.337499,-1.6095021,-1.3294559,9.6524725,1.11027241409523563445,-1.2695254,13.576321,-5.2983685,-1.3288366,9.682327,0.81064071409523563445,0.4866215,13.426683,-16.33444,-1.2749653,9.72082,0.224697811409523563451,-0.031124622,11.324574,-13.916297,-1.0643387,9.668894,-1.24503341409523563487,-0.7763199,10.941502,-3.365649,-0.94704735,9.491374,-2.2775711409523563488,-2.2870612,12.142194,2.6886885,-0.9449118,9.502203,-2.23286371409523563489,-3.5565867,14.614207,1.4431051,-1.099678,9.615821,-1.58021461409523563492,-4.9601874,18.416199,-2.098518,-1.3046888,9.659362,-1.07929641409523563514,-6.621763,16.056713,7.560889,-1.5260537,9.638305,-0.9719361409523563515,-7.3627687,13.1315975,-0.008379706,-1.8093475,9.634953,-0.253684851409523563524,-7.076063,15.687408,-4.8662148,-2.1796286,9.552643,-0.408196181409523563538,-7.1526775,16.601994,-1.1252748,-2.4452026,9.458551,-0.85273971409523563543,-5.925649,15.360001,-0.12389994,-2.6386478,9.391405,-1.00471431409523563560,-4.5244427,12.328343,0.8110358,-2.702505,9.380123,-0.93816761409523563563,-3.691859,11.5633955,1.5011644,-2.7611623,9.374537,-0.81511171409523563572,-2.0284874,13.641562,1.2605472,-2.8188536,9.364599,-0.727159261409523563602,-0.9343372,13.660118,2.930503,-2.7342408,9.394817,-0.65704471409523563604,-0.694917,11.15279,7.1502833,-2.5778449,9.452446,-0.41999831409523563606,-0.39145198,8.92319,9.2787285,-2.4552162,9.493321,0.138351071409523563641,0.036511578,8.165425,8.085817,-2.342968,9.488388,0.807088551409523563642,0.7146692,9.640253,6.950966,-2.2215357,9.450571,1.38631641409523563643,0.93732995,13.575124,6.2524576,-2.0373306,9.426785,1.77634041409523563666,-0.42317516,19.405005,-0.7092823,-1.8033426,9.42914,2.00240541409523563666,-0.18555063,19.608511,-8.385093,-1.627382,9.539322,1.58849971409523563667,5.2498856,19.608511,-6.451775,-1.4108696,9.679304,0.70067111409523563671,9.629479,19.115906,-1.8112136,-0.7732395,9.774538,0.17569911409523563691,10.475231,15.415068,3.9977183,0.12305939,9.805554,0.079656891409523563692,9.188348,13.033436,6.9796963,0.8578937,9.760626,0.405702021409523563706,5.993884,10.683527,7.1006036,1.3983521,9.674291,0.78937521409523563722,3.493739,7.9846625,5.9771247,1.6141139,9.608473,1.11456571409523563723,3.0903158,6.7468605,4.8877625,1.6632133,9.556737,1.43975581409523563738,4.1317935,6.194997,3.3883939,1.7266611,9.493213,1.75155621409523563754,2.6431987,4.569334,7.466318,1.9130439,9.422785,1.92919351409523563754,0.16340427,2.148796,11.914744,2.0266292,9.287737,2.408551409523563772,0.074818805,1.4520833,9.157822,1.9752216,9.02741,3.2824931409523563772,-0.878672,1.4407109,4.68246,1.9365127,8.765358,3.94826721409523563787,-2.3020248,1.8800468,2.183512,1.8295116,8.636157,4.27083971409523563791,-3.0430303,2.4450784,1.9482816,1.4829122,8.615647,4.4431951409523563803,-2.3145945,2.0410569,0.81642276,0.9961431,8.61362,4.580791409523563820,0.6380547,1.638831,-0.091578215,0.6399702,8.642008,4.5909181409523563825,3.550601,1.1145009,-0.47165772,0.43500316,8.684475,4.53443151409523563837,4.6381674,0.18794483,0.81343,1.2462744,8.700955,4.348631409523563856,5.544971,-0.29927522,1.9021933,1.9842373,8.548311,4.37716531409523563856,5.571906,-0.2896984,2.8209682,2.877247,8.195563,4.55242731409523563880,5.9717374,0.38486794,2.6952724,3.7418838,7.682168,4.8117541409523563880,4.919486,1.0953473,2.4241292,4.549691,7.1351275,4.9558721409523563886,4.6112323,2.1092918,1.2108675,5.0673,6.7146726,5.0404411409523563892,3.7355533,3.6086605,0.6560113,5.4736176,6.503424,4.8903361409523563910,2.337938,5.9603653,-2.5965118,5.660217,6.5488877,4.6091651409523563912,-1.9859903,10.948685,-11.5951185,5.6205387,7.1128025,3.74004771409523563923,-9.301474,19.04827,-19.585768,4.714366,8.516477,1.18944011409523563939,-12.227787,19.608511,-19.121891,4.6911764,8.490784,1.43870191409523563961,-9.640253,16.45475,-4.739322,4.633586,8.478363,1.67858391409523563962,-7.1808095,11.395802,-2.7670987,-1.0999243,9.02434,-3.67720961409523563964,-4.7494974,9.0237465,-3.12982,-1.7728143,9.024998,-3.40249041409523563972,-3.7780502,8.309675,-3.5302503,-2.075648,8.990954,-3.3203621409523563995,-3.57993,9.311649,-3.8965633,-2.2549639,8.928946,-3.37038421409523563996,-3.626617,9.610326,-2.6144683,-2.3693569,8.886284,-3.404491409523564005,-3.5422213,10.229825,1.086369,-2.4694078,8.891702,-3.3181381409523564027,-2.3157916,16.064495,7.960122,-2.5388114,9.021547,-2.8873081409523564028,1.5460558,19.530102,9.188946,-2.3909712,9.35259,-1.72706171409523564032,3.3979707,19.608511,-2.272696,-1.8483183,9.610437,-0.62738081409523564068,3.052607,19.512146,-3.5661635,-1.212998,9.703452,-0.73623691409523564069,4.879383,12.919711,1.3006501,-0.754079,9.735772,-0.903610651409523564070,6.232107,8.668806,-0.10474633,-0.29322687,9.776207,-0.71428691409523564072,8.435371,8.48984,-1.2240356,0.1820343,9.778192,-0.72403211409523564112,6.7809777,4.7536874,3.6332011,0.8275662,9.735875,-0.83561731409523564114,4.096479,3.2477345,3.977966,1.3953866,9.6963215,-0.45240011409523564115,3.815759,4.39336,2.1547816,1.7462853,9.6498995,0.017643211409523564116,4.8877625,6.3470287,3.5913026,2.0434575,9.587769,0.263410121409523564127,5.667674,7.8984714,7.925406,2.4296248,9.483029,0.582636831409523564162,5.094861,8.159439,8.143877,2.834607,9.298815,1.29128841409523564164,3.952827,7.460931,5.2379146,3.0991433,9.100585,1.93521181409523564166,2.831742,6.7426705,2.172738,3.2440205,8.978958,2.24166321409523564167,2.2122424,6.4864907,0.62249243,3.2814236,8.96135,2.25762631409523564172,2.1272483,7.000047,0.21068975,3.262598,8.989348,2.1719711409523564207,2.3666685,7.643489,0.09756372,3.23786,9.023796,2.06342961409523564208,2.731784,8.24563,0.0712275,3.2417336,9.050437,1.93678881409523564209,3.3740287,9.3104515,0.23283611,3.2735162,9.06759,1.79814841409523564228,4.349067,11.139024,0.59376204,3.3287535,9.07581,1.64907251409523564229,6.2458735,14.857219,2.6366146,3.397026,9.070432,1.53554251409523564232,7.6285253,18.00739,4.64535,3.4957647,9.02494,1.5812991409523564263,5.8693852,16.365566,5.543774,3.5643556,8.967075,1.74851191409523564264,2.926313,12.052411,4.4621935,3.4824257,8.951722,1.97731021409523564265,0.6422446,8.857349,2.7880478,3.2561698,8.996536,2.15176731409523564272,-1.2467805,7.191583,1.5825673,2.951504,9.082653,2.22810391409523564292,-3.063381,6.654085,0.8655039,2.589229,9.193583,2.22357921409523564296,-4.7548847,7.2765775,1.4359225,2.1376224,9.320964,2.17268781409523564306,-5.3037553,8.026561,1.638831,1.5420575,9.444696,2.1424651409523564328,-4.9081135,9.3822775,-3.1070752,0.9336238,9.530006,2.11605761409523564329,-4.3538556,10.812215,-1.2671312,0.4390965,9.665699,1.59745451409523564332,-4.983531,9.697714,1.4191631,0.022877894,9.718181,1.31408581409523564363,-5.3276973,9.667188,1.6394296,-0.47562575,9.694052,1.40339031409523564363,-5.080496,9.685144,0.8810662,-0.98658967,9.638508,1.51532921409523564365,-4.5561657,9.199121,0.51116204,-1.4002855,9.588659,1.50571611409523564372,-3.7882257,9.063251,0.019153614,-1.7102221,9.54414,1.4679661409523564388,-2.966416,9.465476,0.17956513,-1.9093298,9.519432,1.38031921409523564406,-2.2254105,10.225636,0.6147113,-1.9861654,9.514006,1.30736911409523564407,-2.0649989,10.872668,0.9415198,-1.9663568,9.5236635,1.26636551409523564428,-2.0883424,11.170148,0.9516952,-1.930824,9.533746,1.24498841409523564429,-1.882441,11.165958,-1.1599907,-1.9106586,9.541899,1.21322491409523564433,0.748188,11.131242,-15.692795,-1.8888805,9.573307,0.976905051409523564460,2.143409,9.766547,-18.043303,-1.6351465,9.650047,-0.61095631409523564460,0.48482585,9.643845,-6.245275,-1.2729403,9.474556,-2.18696931409523564463,-1.2246342,10.708067,0.45250413,-1.1519842,9.440003,-2.39368151409523564472,-2.9765913,12.1763115,0.55485624,-1.2388387,9.53785,-1.91443611409523564486,-4.919486,14.423868,9.81503,-1.4157577,9.583223,-1.52573071409523564506,-7.131728,12.165538,-0.06584055,-1.6106343,9.66228,-0.4653871409523564507,-8.592192,17.664421,-6.4948707,-2.029793,9.572709,-0.64311261409523564527,-9.592968,16.191986,-1.6304513,-2.4220822,9.40879,-1.33363341409523564528,-6.903681,18.525734,0.3693056,-2.779172,9.300407,-1.39606511409523564532,-6.455366,18.575415,1.8183962,-2.8691869,9.311944,-1.1071881409523564562,-5.6161985,16.468517,0.3812766,-2.9109542,9.3351,-0.743376261409523564562,-5.8508306,15.091252,-4.1760864,-2.9473026,9.333558,-0.60704121409523564564,-5.9477954,12.761095,-4.380192,-3.0480974,9.279049,-0.88246321409523564572,-6.023213,11.936293,0.9636662,-3.2231345,9.185134,-1.18957461409523564587,-4.7321396,12.366052,4.2359414,-3.4025266,9.133073,-1.08636021409523564603,-2.6048915,11.579556,5.139154,-3.4389172,9.154782,-0.730903741409523564605,-0.96187055,11.255741,8.111555,-3.3601875,9.207426,-0.320671651409523564620,-0.58418524,10.369886,9.009381,-3.183397,9.272069,0.25517011409523564635,-0.59735334,9.449914,7.1993647,-3.0214622,9.289227,0.866842451409523564636,-0.013766659,9.5732155,4.88896,-2.8970983,9.2764635,1.3131841409523564653,0.21428105,11.391612,3.3010056,-2.7340603,9.2922535,1.53275321409523564654,0.46926352,16.815077,-0.45609543,-2.524241,9.343849,1.57831141409523564672,1.0049661,19.608511,-4.710592,-2.216468,9.466526,1.28161571409523564672,-0.47465047,19.608511,-0.676362,-1.8617575,9.601727,0.71492171409523564692,0.6572084,19.608511,4.931457,-1.6605803,9.651,0.52065061409523564692,4.123414,17.75121,4.6273932,-1.4145916,9.672982,0.77637251409523564704,6.363788,12.898163,4.718373,-0.9083894,9.709609,1.03378191409523564719,7.08145,12.047025,5.643732,-0.25949293,9.720994,1.2670151409523564737,5.555745,11.532869,4.325125,0.326331,9.683932,1.51173151409523564738,3.5500026,9.704298,2.6629508,0.6635256,9.643,1.65610251409523564755,4.0737343,7.4806833,3.7511156,0.79043657,9.623469,1.71302211409523564757,5.723339,4.313753,6.1106014,1.0015017,9.5660925,1.91239431409523564783,4.7219644,1.8674773,8.309675,1.3529965,9.432071,2.31858681409523564785,3.6894648,0.6769605,6.9988503,1.6918943,9.211981,2.90642641409523564786,2.6210523,0.19752164,5.5623293,1.9899472,8.982242,3.39556071409523564810,2.0458453,0.3345897,4.07553,2.2105446,8.764592,3.80339221409523564810,1.6106992,0.7751228,2.2014685,2.3456218,8.568327,4.1535791409523564812,1.3012487,0.97264445,1.4957775,2.4116457,8.444625,4.36379051409523564839,0.95827925,0.7835025,1.8010383,2.4598677,8.366128,4.4863511409523564840,1.2132617,0.700304,1.3210008,2.5192614,8.263789,4.64042141409523564854,1.7836803,0.89543146,1.3078327,2.3521743,8.307625,4.64984371409523564855,2.4259248,1.3162124,2.0859482,2.83438,8.054165,4.82359931409523564864,3.8055837,1.6352397,1.2330139,3.105076,7.8779716,4.94635871409523564872,5.868787,1.5705963,-0.64583594,3.5956705,7.7042336,4.88736441409523564884,6.929418,1.8393455,0.47105917,4.438149,7.50635,4.48641541409523564892,5.8502316,2.28347,2.3744495,5.27452,7.1330833,4.17958741409523564905,4.7267528,3.4835634,1.4951789,5.7541585,6.7661705,4.15681409523564912,2.8766334,5.671864,-1.0073603,5.9986553,6.650912,3.9939851409523564924,0.74519527,10.226832,-4.110844,5.9618034,6.9838195,3.44289881409523564932,-5.1385555,19.243397,-11.425729,5.375086,7.852114,2.37132171409523564964,-18.842367,19.608511,-19.608511,5.403595,7.7721586,2.56224581409523564965,-19.278711,19.608511,-16.795324,5.3854337,7.742627,2.6868591409523564966,-9.873089,15.334264,-3.357868,5.2453985,7.789171,2.82577631409523564973,-5.6580973,5.468955,1.1174936,-2.4346964,8.871246,-3.39759541409523564984,-5.2205567,1.673547,-2.0027497,-2.9080129,8.894384,-2.93322371409523565008,-4.007295,0.32142156,-5.7616463,-3.386192,8.715735,-2.95635461409523565033,-1.3688848,0.92176765,-7.2268977,-3.6899154,8.378347,-3.51542641409523565034,2.0362685,5.559336,-3.1651347,-3.6050384,8.055581,-4.27571061409523565035,2.64679,17.235859,2.8766334,-3.0430675,8.219558,-4.39875131409523565035,6.3224883,19.608511,4.703409,-2.2369604,8.942739,-3.3457181409523565065,5.0691237,17.566257,3.0615854,-1.1747793,9.478058,-2.2263721409523565065,3.2980127,8.874707,5.7562594,-0.47946316,9.673704,-1.53621711409523565066,2.8335378,4.987122,2.3241713,-0.097426355,9.770722,-0.83301031409523565073,3.5607765,3.5691562,1.0336965,0.15139878,9.788355,-0.579275251409523565088,4.06296,4.607641,1.834557,0.51492083,9.782336,-0.459493851409523565113,3.9725792,6.4368114,2.2134395,0.98187757,9.755023,-0.214114461409523565114,3.791817,8.492233,2.1877017,1.4085402,9.704695,0.072689971409523565115,4.955399,11.049241,4.234744,1.7311318,9.647453,0.316578241409523565141,6.2141504,12.70124,5.971139,2.0830355,9.554632,0.735102951409523565142,6.143522,12.480973,6.223727,2.4776723,9.40679,1.24251531409523565146,4.1922474,10.692505,5.5347958,2.8013556,9.248969,1.6671431409523565153,2.6599581,9.1255,3.039439,2.9213674,9.146877,1.9926481409523565176,1.7124528,7.799112,1.0582372,2.8965924,9.13157,2.09632231409523565177,1.1893197,6.543353,0.6374562,2.8113534,9.168805,2.04931451409523565185,1.2401965,6.4164605,0.5710171,2.7277875,9.204113,2.00346761409523565215,1.435324,6.8707604,0.6440403,2.6806333,9.227817,1.9575511409523565216,1.75076,7.8625584,1.4137762,2.6473505,9.250655,1.89401981409523565217,2.5552118,9.936536,2.8407204,2.6342928,9.252689,1.90226281409523565241,3.6661212,13.008895,4.6818614,2.6370559,9.2288475,2.01113871409523565242,3.5523968,14.216769,6.2458735,2.6576092,9.176857,2.21196651409523565245,2.3989902,12.212224,6.2063694,2.6127193,9.120496,2.48206231409523565253,1.2683283,10.026319,4.6525326,2.4862647,9.083685,2.7341481409523565273,0.3477578,9.155427,3.039439,2.3023674,9.093177,2.86070161409523565274,-1.0785879,8.196549,1.3868413,2.0751796,9.142028,2.87877511409523565285,-2.31639,7.441179,-2.9311013,1.7927741,9.241846,2.74674961409523565306,-1.2922704,10.155605,-0.81881696,1.4384322,9.434709,2.25556661409523565307,-2.594716,11.489774,3.4997244,1.1854801,9.53348,1.96920751409523565313,-4.0785227,11.457452,4.370615,0.8206451,9.522974,2.19314721409523565345,-4.5962687,10.199299,3.833117,0.33814254,9.482698,2.4767861409523565346,-3.1370027,9.659407,2.7096379,-0.14212607,9.44983,2.6174271409523565347,-2.6461914,9.549872,1.0827777,-0.41408232,9.44204,2.6166381409523565353,-2.3894134,9.539098,-0.33159694,-0.60747695,9.466557,2.4871021409523565375,-2.3175871,9.409811,-0.78410107,-0.77948594,9.514085,2.2461051409523565376,-2.3894134,9.470264,-0.664391,-0.956834,9.555334,1.98757731409523565387,-2.542642,9.614515,-0.8762778,-1.1297551,9.581464,1.75773271409523565409,-2.767697,9.561843,-1.8142064,-1.290119,9.60089,1.52607861409523565409,-0.8230068,10.443508,-9.341577,-1.4516642,9.621834,1.21795251409523565413,2.15538,11.027095,-17.719486,-1.3968177,9.704861,0.187061621409523565436,0.009576807,10.415376,-8.686164,-1.0342276,9.634863,-1.50671681409523565437,-2.8203697,10.811616,-0.38067806,-0.94209176,9.534734,-2.09085131409523565454,-4.31914,11.323976,4.0976763,-1.1673294,9.578845,-1.74741891409523565455,-3.7588966,12.16434,3.6643257,-1.4933836,9.638886,-1.01589561409523565470,-2.3864205,13.107058,-1.7423803,-1.6398066,9.656343,-0.48626611409523565485,-2.517503,13.464392,-2.6515784,-1.6211107,9.653483,-0.593838041409523565486,-3.5739446,13.621212,4.501099,-1.6309459,9.638121,-0.78549921409523565501,-5.430648,13.022063,8.668806,-1.7201536,9.648977,-0.329637021409523565519,-6.9767036,14.51784,1.2449849,-1.9271547,9.6052,0.443431409523565519,-8.744822,16.767193,-6.021417,-2.2355769,9.540804,0.381646041409523565532,-8.972271,17.550097,-5.1385555,-2.6199348,9.447141,-0.24053661409523565534,-6.053739,17.975666,0.7763199,-2.9047139,9.346398,-0.614716531409523565564,-2.5929205,19.22544,1.2395979,-2.9346585,9.344911,-0.480468241409523565566,-2.2242134,17.270575,0.8343793,-2.7301013,9.411833,-0.366536141409523565567,-2.8473043,13.28782,1.7196354,-2.5855403,9.453437,-0.343402531409523565587,-2.7431567,11.259931,3.153762,-2.5910897,9.454177,-0.274187541409523565588,-2.2613235,10.629059,4.5238442,-2.5955088,9.456771,-0.056729021409523565607,-1.429937,9.48044,5.0864816,-2.583526,9.457437,0.229557531409523565608,-1.192911,9.4062195,3.448249,-2.5259764,9.459033,0.56259821409523565614,-1.2934675,9.842564,2.0590134,-2.4721563,9.460765,0.743462741409523565647,-1.2503718,10.1065235,1.4431051,-2.4376068,9.464852,0.803132531409523565647,-1.0169371,10.277709,1.5227122,-2.4024198,9.47257,0.818044251409523565648,-0.5931635,10.614095,1.9063832,-2.3345315,9.486581,0.85154791409523565658,0.30705637,13.347075,1.543063,-2.216096,9.509482,0.910521451409523565695,1.6256629,18.288708,1.1935096,-1.9946172,9.557338,0.921511051409523565697,1.632247,19.608511,-0.3417723,-1.6382653,9.630943,0.85522511409523565699,0.02633622,19.608511,1.4850036,-1.322216,9.694229,0.66636311409523565709,-0.2124854,19.608511,3.1783028,-1.1733896,9.716006,0.626725551409523565744,1.9572599,17.781137,0.28491,-1.0494401,9.723442,0.723693671409523565746,5.504868,12.782044,1.508347,-0.7465822,9.756467,0.651426851409523565747,8.426991,11.481394,3.4153287,-0.20862888,9.779721,0.695637171409523565748,8.942942,11.154586,2.89459,0.42889923,9.758387,0.87198741409523565749,8.171411,8.859145,2.9520507,1.0359226,9.697833,1.02434361409523565755,6.0687027,5.681441,7.6231384,1.5058354,9.620195,1.16391751409523565780,5.0840874,3.70383,9.55047,1.8113122,9.492006,1.67073071409523565781,2.291251,1.8602947,7.5722613,2.084715,9.291757,2.34256431409523565785,-0.3752911,0.8439561,3.2267854,2.209079,9.10913,2.88341621409523565810,-1.0462662,1.9482816,1.0582372,2.1311688,9.047574,3.12568471409523565811,-0.7721301,2.558803,1.4718355,1.937552,9.0637865,3.20375921409523565813,0.040102877,2.505532,2.4821887,1.7442122,9.065525,3.30823041409523565832,0.96546185,2.3307555,2.235586,1.681092,9.007989,3.49291521409523565833,1.8668787,1.8872294,1.6609775,1.7341427,8.940967,3.63624481409523565848,3.1747115,1.3042414,0.08080431,1.9361806,8.867068,3.7143931409523565855,4.380192,0.9516952,0.32022446,2.3482265,8.804035,3.62563041409523565874,4.9733553,0.7212533,1.1923125,2.9468904,8.645216,3.57022241409523565875,5.7760115,0.60812724,0.4321534,3.628764,8.3587475,3.62405851409523565885,5.675455,0.7942764,0.57520694,4.43243,8.011282,3.51330521409523565901,5.0517654,1.2132617,0.825401,5.1609936,7.611689,3.40539771409523565918,3.9965212,2.4654293,-0.40043023,5.709909,7.2425027,3.33369041409523565918,2.392406,4.280833,-2.1936872,6.030577,7.108347,3.0453151409523565932,-0.29927522,7.035362,-5.632958,6.0402284,7.334426,2.42738961409523565933,-6.9006877,15.294161,-14.702194,5.4913387,8.039803,1.17352711409523565949,-17.708115,19.608511,-19.608511,5.5573397,7.9599223,1.38780121409523565963,-19.60911,19.608511,-12.121843,5.605861,7.8845882,1.60560151409523565965,-16.020802,19.557037,-0.06464344,5.609524,7.8239026,1.86819861409523565982,-9.773131,14.355035,-0.46686932,5.5310216,7.8058953,2.15550351409523565999,-5.8771667,9.457097,-2.984971,-3.6830583,8.685679,-2.6766491409523566000,-3.6643257,6.987478,-4.177882,-3.8738358,8.630222,-2.58516381409523566016,-0.9552865,7.2927384,-2.054225,-3.8783343,8.571482,-2.76742531409523566017,1.3688848,14.513651,6.4224463,-3.6663022,8.6507,-2.8096291409523566034,3.0059202,19.564817,7.587824,-3.1324484,9.08479,-1.95570221409523566034,5.7921724,19.608511,-0.38606504,-2.403207,9.453842,-1.00988551409523566049,3.405752,15.9417925,0.92655605,-1.5422268,9.636887,-0.960396951409523566054,4.1653123,10.447099,4.2275615,-1.0551281,9.715152,-0.82032391409523566065,4.5058875,7.3843164,2.0709844,-0.63324285,9.77778,-0.40547231409523566080,5.1810527,7.2646065,-1.9818004,-0.22522411,9.802124,-0.195042681409523566085,6.8450227,7.524976,-0.2717419,0.2516849,9.797337,-0.34534841409523566096,5.864597,7.0108213,1.5676036,0.8771964,9.7624,-0.31065411409523566123,5.037999,7.7811556,2.529474,1.368014,9.710097,-0.11377661409523566124,4.969166,9.485827,3.2387564,1.7381198,9.650562,0.126404611409523566126,5.3223104,10.791864,5.240309,2.051482,9.5813265,0.399932241409523566134,5.0092683,10.16578,5.2840033,2.3667178,9.481745,0.81579911409523566157,2.6318262,6.3470287,2.463035,2.6331213,9.370214,1.19838741409523566158,2.0518308,5.3516393,1.2366052,2.735592,9.32008,1.35019651409523566167,1.9428947,5.713164,1.0779893,2.7860963,9.296058,1.41116561409523566190,2.010531,6.7085533,1.6424223,2.8156612,9.279349,1.4615451409523566191,2.0159178,7.753622,2.5025394,2.8184114,9.264186,1.54978041409523566194,1.6136919,8.323442,3.2561142,2.807426,9.241411,1.6985431409523566228,1.1558008,8.738836,3.4769795,2.735384,9.223136,1.90311321409523566229,1.7483658,11.057022,4.18686,2.6153736,9.21734,2.09065081409523566230,2.7234044,14.907496,6.303933,2.5088077,9.206165,2.263361409523566235,2.3068132,14.964359,6.8264675,2.4165742,9.166949,2.50950461409523566270,1.5873557,12.056602,4.705205,2.2861686,9.133463,2.74293451409523566271,0.9983821,10.26095,2.7162218,2.142757,9.146289,2.81503181409523566274,0.40402153,10.311827,1.0390835,1.9992347,9.191852,2.77187941409523566275,-1.4024036,11.235989,-5.711368,1.8082553,9.292223,2.56031231409523566310,-4.0533834,10.771513,-9.163208,1.4960971,9.528108,1.77405141409523566311,-4.085107,9.997588,-4.096479,0.9888991,9.729129,0.73248431409523566314,-5.3079453,9.42238,2.11827,0.50441056,9.788731,0.311026451409523566316,-7.423821,7.9822683,6.531382,-0.054595515,9.787922,0.603308441409523566341,-7.681796,6.307524,7.9792757,-0.76490784,9.686817,1.32321141409523566342,-6.025607,6.1447186,5.1439424,-1.4389465,9.47381,2.08488271409523566349,-3.977966,6.8007298,2.3570917,-1.9098144,9.285863,2.50913261409523566371,-2.5893292,7.8505874,0.55365914,-2.144885,9.218818,2.56578521409523566375,-2.345719,8.897452,-0.45549688,-2.2236488,9.248909,2.38399771409523566404,-2.3876176,9.773131,-1.0696096,-2.2605264,9.308722,2.09956051409523566405,-2.111686,10.9103775,-1.5999253,-2.2806451,9.370772,1.7769841409523566412,-1.3449428,12.500726,-1.7663223,-2.2375662,9.439505,1.43508421409523566413,0.25258827,13.754689,-7.0754647,-2.0821242,9.517758,1.11687991409523566414,2.861071,13.475764,-18.787899,-1.777171,9.638685,0.328326521409523566446,1.1468226,11.134235,-11.405378,-1.730065,9.635522,0.57791271409523566447,-0.66379243,10.399814,-1.8237832,-1.0274326,9.502756,-2.1937191409523566456,-0.22565351,11.113286,-2.136825,-1.056773,9.548128,-1.97151981409523566475,0.7098808,12.913726,-4.2610803,-1.0443907,9.588879,-1.77004981409523566476,-0.7026982,14.884752,12.771869,-0.8945398,9.589821,-1.84541571409523566477,-3.532046,11.971008,11.03308,-0.77703536,9.758578,-0.58032621409523566486,-6.3865333,12.696451,-1.0636241,-0.91665715,9.762518,0.152920281409523566510,-7.08564,15.253459,-2.7407625,-1.3547032,9.7120905,-0.102351541409523566510,-10.178948,15.046959,-2.825158,-1.7715067,9.630889,-0.52735741409523566514,-11.703457,12.841301,-2.082357,-2.3244221,9.503404,-0.67289111409523566531,-7.6231384,16.341623,-0.37110126,-2.9396152,9.33287,-0.65313311409523566534,-5.57849,17.587208,1.9907787,-3.114929,9.284255,-0.51979781409523566557,-3.240552,16.780361,4.277241,-3.0967312,9.300533,-0.284186361409523566558,-1.5382746,11.987768,3.4476504,-2.9750946,9.344404,0.036081951409523566566,-0.2633622,10.915166,1.0049661,-2.839326,9.382332,0.283697131409523566593,-1.0354922,11.909358,3.2148144,-2.6817698,9.43133,0.168750881409523566595,-2.8538885,11.513118,6.7642183,-2.5646687,9.460649,0.298329441409523566596,-3.0190883,10.817003,7.6800003,-2.5877752,9.428098,0.76471011409523566620,-1.5532384,10.70687,5.834071,-2.6413674,9.360162,1.25735571409523566621,-0.45908818,10.295067,3.9228995,-2.578844,9.3354645,1.53917651409523566626,0.033518825,10.346542,2.5288756,-2.4453907,9.352265,1.65094111409523566637,0.2908955,11.945869,0.80205756,-2.290538,9.388961,1.66469381409523566660,0.736217,15.891514,-1.8579005,-2.090891,9.455897,1.5442081409523566661,1.4191631,19.394829,-1.7806876,-1.8282948,9.561993,1.18152211409523566667,1.9195513,19.608511,0.58777654,-1.5035026,9.653791,0.845095341409523566700,2.0775685,19.608511,2.4642322,-1.187771,9.706286,0.73996971409523566701,2.0242975,19.608511,4.252701,-0.8992656,9.733298,0.79032331409523566704,3.8019924,14.173076,1.0247183,-0.64127034,9.740014,0.944089951409523566730,5.395334,12.896966,0.74998367,-0.27946636,9.761286,0.89978731409523566731,7.1365166,11.329363,2.247557,0.13358723,9.768809,0.85024321409523566732,7.5471225,10.716447,2.2373815,0.6624628,9.741581,0.91277071409523566735,6.6750345,9.589975,1.079785,1.1470804,9.688171,0.99696061409523566765,6.120178,6.689998,2.719813,1.5109644,9.6361475,1.01589671409523566766,2.3068132,3.3584664,10.703279,1.8218017,9.563615,1.17843941409523566768,1.532289,2.3421278,11.544841,1.8941765,9.412433,1.99714591409523566781,0.66858083,2.1811178,5.4324436,1.9482028,9.172016,2.87211041409523566796,0.30645782,2.5438392,2.405574,1.9711552,9.045191,3.23565321409523566797,-0.1328782,2.5743654,1.2174516,1.912521,9.006839,3.3748361409523566815,-0.79367787,3.1190462,4.5136685,1.8290814,9.01269,3.40533351409523566816,-0.39444473,3.9995139,4.185065,1.5945728,8.910571,3.7721941409523566835,1.0714053,4.5537715,1.9117701,1.4270962,8.819465,4.04361531409523566836,3.3997664,4.538808,1.5532384,1.4689225,8.818791,4.03008271409523566846,4.3287168,4.1820717,2.3493104,1.7855068,8.790683,3.96311241409523566866,5.222951,3.5021186,1.3485341,2.189057,8.683826,3.9961941409523566867,5.4521956,2.259528,1.4951789,2.7402763,8.563042,3.91606881409523566888,5.6156,1.2665327,1.8429368,3.344854,8.359488,3.88604191409523566889,5.497087,0.044292733,1.4059949,3.9823225,8.049982,3.93818431409523566896,4.9308586,-1.2952632,0.79248077,4.654634,7.6541457,3.98984071409523566924,3.9187095,-2.2756886,0.5955577,5.3386583,7.1714964,4.02973271409523566925,2.9825768,-2.0626047,-0.7374141,5.966242,6.606936,4.11372571409523566926,2.1470003,0.3878607,-3.341707,6.5461035,6.1228337,3.9786721409523566973,-2.3289597,9.621099,-10.927735,6.9770937,6.0927444,3.22009591409523566974,-16.757616,19.590555,-19.608511,5.964219,7.7630835,0.57706921409523566975,-19.53908,19.608511,-16.548124,6.1190243,7.6189,0.824804251409523566975,-14.865599,19.608511,-2.1888988,6.2631683,7.4665895,1.09230951409523566976,-10.602123,18.254591,2.9107506,6.2918925,7.3823533,1.44337981409523567005,-9.797672,10.530297,1.4664485,-3.39327,8.865454,-2.46167541409523567006,-7.3298483,6.2195373,-4.144363,-4.0280695,8.746288,-1.85674371409523567008,-4.572925,5.129577,-3.1040826,-4.36803,8.5241375,-2.10470031409523567014,-0.5638345,9.70789,5.005079,-4.474907,8.401165,-2.35924671409523567030,0.55126494,15.194801,7.542334,-4.1450934,8.712959,-1.75298241409523567034,6.8557963,19.507357,0.50517654,-3.5892668,9.087148,-0.84340671409523567048,11.5394535,19.608511,0.272939,-2.4097362,9.478054,-0.728062331409523567070,7.373543,17.164032,3.1615434,-2.3940806,9.473664,-0.829732951409523567071,5.517438,9.487623,5.084686,-0.13730595,9.803618,-0.20147361409523567075,4.2299557,7.9427643,0.38726214,0.3266353,9.798025,0.249803621409523567107,4.5358152,7.410054,-0.350152,0.6163694,9.7851925,0.20125441409523567108,4.809353,7.378331,1.9662381,0.97698087,9.757061,0.125240251409523567109,5.397129,8.268375,1.352724,1.3661351,9.70629,0.303306671409523567115,5.975329,9.710882,0.88166475,1.7779357,9.6343,0.435455951409523567145,6.6056023,10.64043,2.203264,2.1712759,9.550515,0.49356271409523567147,5.7442884,9.993398,3.5087025,2.5562696,9.445377,0.648621741409523567149,3.7630866,8.010401,3.5535939,2.8316958,9.34544,0.902579551409523567178,2.4169466,6.3392477,3.4380736,2.9503446,9.280856,1.15392921409523567179,1.5544355,5.374983,3.5033157,2.9875948,9.233633,1.4087861409523567180,1.8818425,5.9322333,2.3247697,2.9680092,9.192892,1.6888031409523567202,2.5121162,6.747459,1.2120646,2.993713,9.159246,1.82106161409523567203,2.4929626,7.0784574,0.9427169,3.066319,9.134167,1.82621821409523567207,1.8171991,7.228095,2.6042929,3.117864,9.122325,1.79791281409523567215,1.2336124,7.840412,3.8271315,3.074594,9.107585,1.94143511409523567231,1.4814123,9.533113,3.755904,2.9458785,9.096819,2.17717051409523567256,2.5540147,13.44045,6.109404,2.8082366,9.103415,2.32637671409523567257,1.8022354,12.554595,6.911462,2.6688726,9.073483,2.59218051409523567258,1.2910733,9.473258,3.4314895,2.491546,9.034695,2.88736871409523567267,0.6889315,9.306262,0.5231331,2.3431554,9.071377,2.89657431409523567294,-0.5494693,9.961675,-7.1167645,2.1549807,9.197572,2.63270761409523567296,-2.8395233,8.900445,-5.173271,1.9087886,9.475458,1.65608261409523567298,-4.4568067,8.415619,4.745308,1.4606775,9.648653,0.96969321409523567339,-6.9743094,9.042301,12.44925,0.8292577,9.664575,1.44177061409523567341,-6.4924765,8.567052,11.774684,0.01630173,9.428354,2.69745041409523567343,-3.7349546,10.13286,6.103419,-0.55678517,9.091295,3.63438181409523567345,-2.5492263,10.394426,1.6166847,-0.79211766,8.962905,3.8999091409523567347,-1.5334862,8.866327,-0.2657564,-0.9313535,9.045952,3.67065551409523567367,-0.5650316,7.690176,-0.23582886,-1.0375293,9.159989,3.3449231409523567368,-0.6943185,8.5383215,-0.5279215,-1.077282,9.242699,3.09554271409523567375,-1.4766239,9.997588,-1.2557588,-1.0939887,9.330785,2.81248021409523567395,-1.9195513,11.246164,-2.0242975,-1.1562821,9.430099,2.4303561409523567396,-1.0546459,13.031041,-6.6427126,-1.243151,9.523195,1.98335651409523567419,3.3446999,15.191809,-19.45229,-1.1988801,9.668894,1.11604811409523567419,2.9005754,12.045827,-15.278598,-1.2529569,9.625927,1.39356571409523567428,0.31244332,10.414179,-3.086126,-0.33746788,9.588677,-2.0282531409523567451,-0.34356794,10.216658,-2.6641479,-0.34883097,9.608643,-1.92943431409523567452,1.4041992,12.460024,4.3915644,-0.48263767,9.633944,-1.76765261409523567457,1.1180922,15.846024,16.87613,-0.3650757,9.737957,-1.09968971409523567481,-2.3175871,14.083293,5.8999114,-0.52323914,9.77351,-0.6124791409523567481,-6.8611836,10.963648,-2.4025815,-0.17993864,9.776141,0.75171971409523567495,-7.389105,10.74398,3.3147724,-0.7383976,9.777692,0.147902741409523567496,-8.0606785,11.969213,-3.2082303,-1.277595,9.718519,0.297475461409523567515,-9.563639,13.306375,-1.5777789,-1.832454,9.633335,0.106520351409523567518,-8.91062,14.486117,2.0566192,-2.3770223,9.514157,-0.0306213481409523567537,-5.6616883,15.166669,3.750517,-2.7816844,9.403399,0.093270991409523567537,-0.98102415,15.39771,3.1387985,-2.8842158,9.364274,0.40257721409523567549,-0.20530279,15.415667,0.729633,-2.6141636,9.431646,0.61692721409523567569,-2.1164744,15.972917,-1.7872716,-2.3230052,9.508122,0.607991041409523567569,-4.4903255,14.504672,-1.1300632,-2.2255912,9.545167,0.326993821409523567575,-5.1475334,12.460623,-0.19812019,-2.341781,9.521774,0.14927171409523567596,-4.7058034,11.562798,0.57161564,-2.521636,9.476702,0.0622919131409523567597,-4.010288,11.034876,2.700061,-2.6708443,9.435867,0.0371393521409523567621,-3.4626143,11.391013,5.6658783,-2.7767045,9.403287,0.196217571409523567622,-3.141791,11.983578,7.109582,-2.8330321,9.369637,0.59519061409523567627,-1.5747862,12.138004,6.338649,-2.8224258,9.33263,1.05181791409523567650,-0.39983168,11.163564,4.921282,-2.7164266,9.316435,1.41260411409523567651,0.11791443,9.962872,3.9755719,-2.5580614,9.327305,1.62113931409523567656,0.40761283,9.829395,3.1316159,-2.4045205,9.344274,1.75306011409523567685,0.41000703,12.198458,2.2637177,-2.2404203,9.371512,1.823641409523567686,1.0869676,17.864336,1.5041572,-2.0399413,9.423755,1.7893841409523567687,2.0991163,19.608511,0.65301853,-1.7231919,9.517738,1.61668181409523567696,1.110311,19.608511,0.41120413,-1.3583244,9.613059,1.3836271409523567720,0.83138657,19.608511,4.0563765,-1.1248342,9.669779,1.18343711409523567722,2.6198552,19.081787,2.6623523,-0.9348053,9.679342,1.26761521409523567730,4.2119994,13.922283,1.6071079,-0.6022411,9.703554,1.28403681409523567762,5.3743844,11.071986,2.6318262,-0.17842531,9.723744,1.25989261409523567763,6.2650275,11.474212,3.3614593,0.24838483,9.713588,1.32472421409523567765,6.443395,10.9822035,2.9700072,0.6612731,9.67751,1.44184361409523567793,7.029975,7.1873937,2.5258827,1.0323179,9.6270685,1.55701381409523567795,8.1319065,3.4476504,4.4484267,1.4601672,9.554436,1.65863531409523567796,7.0305734,2.2655134,8.32404,1.9844283,9.395791,1.98784671409523567797,2.2421699,0.3489549,6.877943,2.46598,9.133412,2.5826581409523567816,1.3790601,0.4866215,2.2230163,2.615197,8.935183,3.08117681409523567816,0.49081135,0.8870517,2.8083985,2.6981602,8.862254,3.21726061409523567827,1.0079589,1.2868834,0.12509704,2.6664793,8.775497,3.47144631409523567844,0.6943185,0.6356605,-0.5315128,2.5302913,8.826265,3.44457131409523567896,0.9888053,0.23582886,1.4065934,2.3830578,8.866472,3.44631771409523567898,1.9865888,0.260968,2.8048072,2.2366579,8.902496,3.4515681409523567900,3.655946,-0.1436521,1.0941502,3.0587616,8.455417,3.91411351409523567902,5.168483,-0.81163436,-1.2982559,3.5890121,8.197485,4.01131061409523567904,5.7215433,-1.1366472,-0.87567925,4.4642644,7.8928647,3.73409081409523567905,5.9956794,-0.97264445,0.8774749,5.4058714,7.4028425,3.4849471409523567921,5.527613,-0.5770026,1.608305,6.2403665,6.722222,3.46986581409523567922,5.0374002,0.70509243,1.1007342,6.875305,6.0479007,3.5104781409523567927,4.3526587,3.0831332,-0.19273324,7.2997293,5.611113,3.37635281409523567944,3.2273839,7.3310456,-3.70383,7.447334,5.6349683,2.99244551409523567947,0.8158242,14.948797,-6.3985043,7.2059236,6.3658595,1.9289641409523567963,-12.563574,19.608511,-19.196709,5.995478,7.7457094,0.478179251409523567978,-19.60911,19.608511,-18.623896,6.1111193,7.6439695,0.627983451409523567979,-18.514961,19.608511,-5.106832,6.2100544,7.54553,0.81888831409523567995,-9.712678,17.650055,3.140594,6.1898465,7.507989,1.2191351409523567996,-5.2145715,8.974067,0.57161564,-2.6971974,9.012458,-2.76967641409523568020,-3.6804867,2.6198552,-2.5288756,-3.0890684,9.015236,-2.3137681409523568021,-0.44651863,1.299453,-3.8881836,-3.3463607,8.883407,-2.46117571409523568029,2.7988217,4.277241,-1.9847932,-3.3205554,8.772922,-2.86009551409523568051,6.14412,11.09473,2.131438,-2.8158934,8.884249,-3.05143981409523568052,5.988497,18.183962,1.6214731,-1.7820264,9.303504,-2.5376371409523568056,10.790069,19.608511,-2.2744915,-0.8271949,9.578411,-1.93395561409523568087,8.101978,19.442713,2.3648727,-0.8432537,9.563057,-2.0018151409523568089,2.7042508,11.449073,9.147646,1.0282954,9.664665,-1.30661511409523568091,2.3050177,7.2699933,7.2065473,1.1935892,9.727384,-0.351789831409523568096,2.586935,7.3831196,3.6768951,1.314297,9.71128,0.366140431409523568118,2.9933507,8.414422,2.180519,1.4327163,9.678497,0.666638431409523568119,3.494936,9.388862,1.5622166,1.5990363,9.6433735,0.786659541409523568127,3.6044707,9.862914,0.85772276,1.8074499,9.602543,0.83349491409523568148,3.940856,10.201095,1.4921862,2.0074399,9.565062,0.80632631409523568150,4.610634,10.102933,2.168548,2.2086415,9.51756,0.841627961409523568156,4.7919946,8.878897,2.2451627,2.4379523,9.45289,0.93253341409523568184,4.414908,6.968324,1.6723499,2.690278,9.372698,1.0418051409523568185,4.0001125,5.4204726,1.2437878,2.9252925,9.295208,1.10099671409523568187,3.1860838,4.5621514,1.4036007,3.1394403,9.220159,1.14147371409523568196,2.15957,4.431069,2.2158337,3.2938623,9.156257,1.21811851409523568217,1.7555484,5.3049526,1.3263878,3.3503866,9.111263,1.38930271409523568217,1.6101006,6.229114,-0.8098387,3.3476744,9.104109,1.44176241409523568227,1.9961656,7.392098,0.93972415,3.3133478,9.146103,1.2413451409523568249,2.7030537,9.657611,3.3093853,3.2664192,9.161978,1.24862351409523568251,4.175488,13.948619,6.154894,3.2262163,9.137064,1.50863991409523568259,3.7834373,15.019425,8.374319,3.184726,9.072692,1.92722191409523568283,1.5849615,11.713632,6.785766,3.0417206,9.004109,2.41750671409523568283,-0.12210429,9.515156,4.26946,2.7699475,8.998935,2.74170281409523568287,-0.8690952,9.672575,3.900753,2.4235485,9.059846,2.86635681409523568296,-1.7345991,10.193314,5.954978,2.0664573,9.116625,2.96433781409523568317,-1.9207484,12.061988,4.1826706,1.672298,9.111366,3.2182041409523568317,-2.6743233,11.283274,1.8992004,1.302886,9.162615,3.243361409523568329,-3.942053,9.257181,0.57760113,0.92519385,9.250258,3.12203721409523568346,-4.6339774,8.079233,1.6711528,0.44701436,9.33369,2.97536441409523568347,-3.9576154,8.72507,0.61291564,-0.063201725,9.355125,2.94075131409523568361,-2.3906105,10.1621895,-0.3172317,-0.42319545,9.3938465,2.78333141409523568376,-2.1559787,9.487623,-0.48841715,-0.5800043,9.461629,2.51228451409523568376,-1.9321208,9.55047,-1.0001777,-0.73720646,9.513857,2.26129561409523568391,-2.1284454,9.777321,-1.8674773,-0.86288846,9.567241,1.97324361409523568396,-2.2331917,10.41358,-4.1198225,-1.0180705,9.617749,1.6225931409523568408,0.40940848,11.664551,-14.050373,-1.1518632,9.680812,1.06089211409523568426,4.2036195,11.066,-19.428349,-0.9635975,9.7505455,-0.41080141409523568427,1.4167689,9.256582,-10.494983,-0.9901348,9.754584,-0.195286421409523568442,-2.5863364,8.617929,-1.0372878,-0.24287118,9.400266,-2.78324251409523568468,-3.6577415,8.539519,2.1230583,-0.57872814,9.472395,-2.47166971409523568469,-0.95827925,9.817424,0.41599256,-1.0150702,9.560001,-1.93555191409523568470,2.079364,12.254123,0.02932897,-1.070875,9.620253,-1.57300511409523568476,1.4808137,13.09329,4.569334,-0.71183574,9.68383,-1.37373581409523568503,-1.2204443,13.604452,10.70687,-0.4105714,9.761586,-0.84455761409523568504,-5.1559134,13.822924,5.309142,-0.3758996,9.798527,0.134062441409523568510,-8.359954,16.142307,-6.803723,-0.74445295,9.766831,0.47453591409523568528,-10.454282,17.242441,-3.039439,-1.4093677,9.701082,-0.27026541409523568529,-11.179725,16.255432,-6.237494,-2.0438843,9.577776,-0.50904961409523568549,-7.228095,16.457144,-0.025139118,-2.5974154,9.411904,-0.91645841409523568550,-3.2465374,17.053898,6.063316,-2.7546623,9.385061,-0.70913091409523568556,-3.702633,15.236101,7.8104844,-2.6218855,9.446418,-0.24764091409523568580,-4.233547,13.157934,4.881179,-2.5988624,9.453451,0.220417951409523568581,-3.1262288,12.715007,2.1350293,-2.6543472,9.427852,0.490378231409523568588,-2.585738,11.51192,2.0171149,-2.6531718,9.423677,0.57043611409523568617,-2.2679076,11.306019,3.5571852,-2.6377006,9.424886,0.62001641409523568618,-1.7525556,11.95365,6.2165446,-2.6042926,9.422211,0.781020051409523568619,-1.4700398,11.923124,6.894104,-2.5095706,9.411567,1.13791921409523568648,-0.5410896,11.463438,5.1385555,-2.42694,9.378924,1.52188111409523568649,0.06344634,11.110293,2.6821043,-2.318003,9.369657,1.73401461409523568650,-0.023942016,11.532271,0.82719666,-2.1869974,9.400145,1.73917131409523568656,0.16998832,12.920309,0.7092823,-2.06036,9.451861,1.60860841409523568684,0.6907272,14.7638445,0.9247604,-1.8973966,9.5066805,1.48097621409523568685,1.7711107,17.465702,1.644218,-1.6744316,9.5658045,1.36456811409523568690,3.221997,19.558832,2.2026656,-1.3651564,9.625372,1.28800511409523568697,3.8504748,19.608511,1.5346833,-0.98450774,9.679141,1.23099431409523568731,3.0280666,19.608511,1.2366052,-0.62177014,9.720655,1.13695421409523568732,2.2200236,19.592352,1.8956091,-0.38069853,9.744448,1.03499131409523568734,1.5119383,16.021997,-0.016759412,-0.22103506,9.753856,0.991877561409523568737,3.1735144,12.100295,-0.16759412,-0.08085107,9.76865,0.85866791409523568788,6.290765,11.613674,0.5081693,0.20785862,9.775268,0.755862831409523568790,8.406042,11.527483,1.1312603,0.68920875,9.755648,0.72297061409523568792,8.957307,10.068216,0.34117374,1.2278973,9.703122,0.715580461409523568793,9.953295,7.2909427,1.5304934,1.7178519,9.628273,0.71813421409523568796,8.699332,4.6363716,6.220136,2.2449598,9.509873,0.83237321409523568797,6.019023,3.4596214,9.71986,2.7227237,9.331035,1.29959681409523568826,3.7002387,2.2068555,9.874885,3.0444984,9.1087055,1.98315421409523568828,0.9139865,1.1127052,3.9390604,3.2306085,8.8681135,2.66273051409523568829,-0.6584055,1.3491327,1.6663644,3.2233586,8.7757845,2.96073151409523568849,-1.7459716,1.8351556,2.3840263,3.0610588,8.7723055,3.13798761409523568850,-1.0672154,2.0817583,3.0897174,2.788394,8.786025,3.3467931409523568858,1.1893197,2.005144,1.555034,2.560169,8.744982,3.62508441409523568878,2.598906,1.3563153,1.4083891,2.6339986,8.692277,3.69820981409523568878,3.8666358,0.8062474,0.66738373,2.8996184,8.577545,3.76674031409523568897,4.7159786,0.11372458,0.49679685,3.3691661,8.412177,3.74891781409523568898,5.2397103,-0.31184477,0.86729956,4.0070205,8.145712,3.709661409523568908,3.9959226,-0.56982,2.4025815,4.726447,7.7473373,3.71615931409523568924,2.5725696,0.80564886,2.4827871,5.223129,7.289443,3.9690491409523568931,1.8106151,2.0440497,1.6346412,5.4192767,6.999091,4.2207291409523568943,1.0749966,3.5637693,-0.091578215,5.455622,6.9252853,4.2949971409523568965,-0.12330139,6.2464724,-2.6755204,5.3505516,7.15903,4.03612231409523568966,-1.8447324,15.264832,-6.1447186,4.941743,7.835681,3.21740481409523568968,-15.945982,19.608511,-19.608511,3.6675975,8.96529,1.53058641409523568977,-19.60911,19.608511,-17.722479,3.7946486,8.871652,1.750671409523568998,-13.437457,19.608511,-5.7245364,3.8683267,8.785586,2.00497321409523569000,-5.3875523,16.52478,1.4808137,3.835372,8.732386,2.2816081409523569008,-5.319318,8.710106,-0.516549,-2.84464,9.028642,-2.5616481409523569034,-3.4021606,4.751293,-5.945401,-3.163309,9.005914,-2.24887041409523569035,-1.0109516,3.084929,-8.761581,-3.3460438,8.846665,-2.59054261409523569037,2.296638,8.190564,-2.7419596,-3.2537675,8.614222,-3.3732211409523569065,4.8500543,17.438766,6.6469026,-2.694374,8.766978,-3.47142771409523569066,8.317456,19.608511,6.8121023,-1.8205318,9.340737,-2.36784321409523569068,7.854179,19.086576,7.4723034,-1.7940372,9.346,-2.36729861409523569077,3.0334535,14.272435,4.6471453,0.045817163,9.792862,-0.51782851409523569098,2.191293,9.646837,5.514445,0.31564057,9.801139,-0.091811441409523569099,3.0627825,7.8888946,3.3865983,0.46560663,9.787257,0.403944371409523569110,2.2296004,7.4866686,-0.789488,0.6670425,9.759369,0.69294251409523569131,3.4422636,7.049727,-0.34356794,0.8140501,9.7567625,0.55974231409523569132,3.6218286,6.317101,-0.65062433,1.0933477,9.73426,0.46817691409523569137,4.299388,7.4106526,-1.697489,1.3946525,9.699403,0.38332071409523569168,5.8723783,9.6767645,-0.7745243,1.7195886,9.652987,0.182366161409523569169,5.841852,10.7673235,1.9536686,2.1311638,9.571978,0.0760872141409523569170,4.759673,9.726444,3.4111388,2.4744227,9.486554,0.230049121409523569177,3.5835214,8.200739,2.979584,2.7009687,9.413756,0.50632281409523569197,2.7353754,7.2023573,2.3810337,2.8333998,9.360248,0.72664491409523569198,2.4259248,7.116166,1.6879122,2.9102147,9.321736,0.89793381409523569210,2.3451207,7.7069354,1.3874398,2.9597,9.294734,1.00919691409523569223,2.2266076,8.099585,1.9716251,2.9693792,9.283523,1.08137891409523569242,1.9764135,8.122928,2.9059622,2.9734335,9.26835,1.1944841409523569244,1.471237,7.9541364,3.127426,2.9456701,9.248492,1.39957111409523569262,1.3491327,8.625112,3.6583402,2.8693523,9.2392435,1.60424261409523569263,2.60968,12.295423,7.08983,2.7638104,9.23039,1.82527891409523569275,3.0178912,14.550162,10.243592,2.6798925,9.155295,2.27357581409523569277,2.1272483,12.205042,8.838196,2.5600479,9.028888,2.84530071409523569292,1.3988123,9.6528225,5.6586957,2.3932137,8.9514065,3.21173171409523569304,1.1617863,9.324817,3.6768951,2.2358055,8.934934,3.36727521409523569308,-0.08798691,9.139865,-0.9271546,2.0877833,8.99209,3.30966231409523569321,-0.66379243,10.14124,-6.157887,1.8730675,9.171498,2.9232941409523569339,-0.05805939,13.532028,1.3413515,1.6671047,9.432349,2.10283681409523569340,-3.1920695,13.033436,7.409456,1.4712938,9.46745,2.09118681409523569361,-5.831078,10.951677,7.699154,0.99664587,9.368623,2.7213961409523569363,-6.4625487,10.437522,2.3349452,0.32781902,9.256743,3.2211221409523569369,-5.7041855,9.988011,0.2765303,-0.3079472,9.28667,3.13581281409523569377,-4.486734,9.177573,-0.5422867,-0.80149513,9.337224,2.8886431409523569392,-3.2854433,8.607155,-1.0696096,-1.1612531,9.384369,2.59913441409523569408,-2.132635,8.890868,-1.3227965,-1.3727169,9.432102,2.3068351409523569411,-1.1552023,9.402629,-4.4322658,-1.4481914,9.488007,2.01267721409523569426,4.332308,9.944916,-17.621325,-1.4261563,9.5951,1.43892281409523569441,5.263054,8.263587,-17.663822,-0.8705533,9.760852,-0.371876331409523569442,-0.56084174,7.7973166,-4.07553,-0.3109858,9.609645,-1.93090621409523569460,-3.0933087,8.525154,-0.23463176,-0.42948213,9.581578,-2.04433161409523569461,-2.0404584,9.776723,5.989694,-0.80076784,9.627283,-1.68657721409523569476,-0.54887074,13.189657,10.361506,-0.93042207,9.725765,-0.845112261409523569477,-4.034828,13.558364,5.445612,-0.7300848,9.776602,0.235467051409523569489,-6.7306995,12.115858,-2.9825768,-0.91402215,9.744084,0.62269821409523569503,-5.4504004,13.312959,1.5376761,-1.4499738,9.697699,0.150262461409523569509,-6.59423,15.146318,0.1412579,-1.7518992,9.647763,0.147994521409523569524,-9.081207,17.501614,-3.7140055,-2.0604134,9.587173,0.10584991409523569539,-11.394605,15.8304615,-1.3371617,-2.4635801,9.487327,-0.30295361409523569540,-8.598177,16.236877,1.1755531,-2.9726028,9.3353815,-0.42975921409523569558,-4.173094,16.606781,4.2898107,-3.2093537,9.258918,-0.378020821409523569559,-1.9853917,15.541362,2.360683,-3.132662,9.292725,0.0455821861409523569581,-1.2569559,13.674483,-0.7212533,-2.9337425,9.353001,0.291454321409523569582,-0.5231331,11.910555,0.06584055,-2.7695577,9.405388,0.196502821409523569591,-1.0857705,10.876859,3.2261868,-2.6249692,9.448099,0.115597391409523569614,-1.9542671,10.158598,4.908712,-2.513831,9.474418,0.294002831409523569615,-2.645593,9.88925,5.601235,-2.4871352,9.46754,0.591821971409523569617,-2.3175871,11.11987,5.345654,-2.5221653,9.430267,0.93761521409523569642,-1.3060371,12.060791,3.2561142,-2.5303626,9.394595,1.22851361409523569645,-1.3006501,12.37503,0.94331545,-2.4603362,9.400572,1.32150761409523569666,-1.1180922,12.778453,-0.581791,-2.3871226,9.432606,1.2239141409523569667,-0.58657944,13.6493435,-0.427365,-2.293973,9.479398,1.02423791409523569669,0.20590134,15.346234,1.3748703,-2.1393416,9.530957,0.868587261409523569692,1.3617022,18.628086,2.802413,-1.9119662,9.580202,0.85701721409523569695,2.6833014,19.608511,3.269881,-1.5919416,9.632426,0.923282741409523569721,2.9287071,19.608511,2.0494366,-1.2214032,9.679806,0.98992641409523569722,2.4372973,19.608511,1.7351977,-0.8933023,9.719028,0.95543961409523569723,2.9041667,18.55267,2.7880478,-0.6495419,9.743339,0.903231861409523569756,2.778471,14.024635,1.6753427,-0.39681277,9.753456,0.939680341409523569757,2.9951463,11.350311,0.9091981,-0.1510599,9.761135,0.931557831409523569759,5.474941,10.916363,1.4341269,0.07942995,9.765206,0.897110161409523569760,9.165603,11.174936,2.920926,0.50122255,9.753252,0.89064011409523569780,11.328764,10.805033,3.8115692,1.1459186,9.688063,0.99935771409523569781,8.546701,8.926781,5.717354,1.852014,9.557813,1.17840781409523569789,6.9719152,6.0363812,5.0403934,2.261129,9.420132,1.52275851409523569816,4.775235,2.2284033,6.8013287,2.544781,9.2877445,1.85263811409523569817,2.191293,1.0564415,6.457162,2.7691543,9.106065,2.36257271409523569818,1.6286557,1.8962077,3.1310172,2.8673375,8.926178,2.8761261409523569841,0.16519992,2.6833014,3.3123782,2.9252474,8.834466,3.09281641409523569841,0.3866636,3.1609447,1.977012,2.8479543,8.783629,3.30263471409523569856,1.7351977,2.9831753,2.333748,2.7636323,8.778279,3.38740781409523569857,1.8734628,2.4133554,3.4344823,2.8287508,8.714467,3.49665621409523569869,2.9430726,2.0159178,1.4580688,2.9263186,8.581988,3.73584651409523569886,3.1507695,0.9115923,0.92416185,3.1871812,8.473934,3.76891421409523569891,3.6236243,-0.021547815,0.3609259,3.5204916,8.332005,3.78870031409523569905,4.268263,-0.9636662,0.15622166,3.9747138,8.135227,3.76697661409523569909,4.6776714,-1.6813282,0.5626374,4.5888104,7.821888,3.73246221409523569923,4.38917,-1.436521,0.93493575,5.3191237,7.334333,3.75298071409523569937,3.74513,-0.5793968,1.5125369,5.9739957,6.781282,3.80735971409523569938,2.1577742,0.9708488,1.055843,6.4315724,6.2790575,3.92157171409523569957,0.55964464,3.4003649,-1.0815806,6.57744,6.104396,3.95525551409523569958,-0.5590461,7.4842744,-5.3384714,6.4126763,6.5078974,3.5630391409523569981,-2.195483,17.072454,-10.231621,5.793545,7.6143994,2.15084771409523569982,-15.765819,19.608511,-19.608511,4.033209,8.937022,-0.182332251409523569989,-19.60911,19.608511,-12.85806,4.216329,8.853977,-0.0059948571409523570012,-16.45475,19.608511,1.0791864,4.3457317,8.789585,0.16791211409523570013,-5.0781016,16.262016,1.496376,4.3392205,8.780263,0.498522941409523570017,-2.4666264,3.3758245,-5.246893,-3.1325727,9.049207,-2.11405781409523570035,-0.80086046,3.1346085,-7.3190746,-3.250078,8.907553,-2.50257251409523570037,1.271321,3.490746,-3.9755719,-3.1482048,8.728074,-3.1748891409523570056,6.187216,8.668806,2.461838,-2.8142579,8.700288,-3.54334951409523570058,9.607333,17.429789,1.7166426,-1.9048496,9.124335,-3.0476991409523570081,12.44925,19.608511,-0.52492875,-0.5818021,9.498983,-2.36668471409523570082,9.4696665,19.044079,2.3295584,-0.5824208,9.487145,-2.41355511409523570089,3.6152446,15.299547,4.0096893,1.3773718,9.592602,-1.50174951409523570113,2.6485856,10.922348,5.8125234,1.5178862,9.6432905,-0.93451781409523570114,2.7216089,9.276335,2.7790697,1.6389568,9.664299,-0.292472541409523570118,2.1703439,8.418612,2.48159,1.7446107,9.650147,-0.0375040961409523570147,1.7842789,8.875306,4.985925,1.8003867,9.638678,0.157784091409523570148,2.4187422,9.464279,4.815338,1.8129551,9.622879,0.53272391409523570149,3.4727895,9.783307,1.1198878,1.8859782,9.582679,0.88643391409523570158,3.9564183,9.885659,0.14604631,2.0493586,9.548604,0.891457261409523570184,3.406949,9.019556,0.60333884,2.2281737,9.514801,0.82109661409523570185,2.4067712,7.8835077,0.52732295,2.3483374,9.485198,0.82867611409523570191,1.8435353,7.3418193,0.20470424,2.3923826,9.473225,0.83959441409523570211,1.6160861,7.5165963,0.27832595,2.399984,9.473915,0.809574541409523570212,1.7220296,8.364143,0.724246,2.3846672,9.480538,0.77663551409523570218,1.757344,9.34397,1.1150994,2.3739073,9.482161,0.78966751409523570249,1.2330139,9.793482,1.4173675,2.3558757,9.483626,0.825274171409523570251,1.1348516,10.804434,2.4073699,2.284787,9.496328,0.877436341409523570253,2.3720553,14.03481,5.242703,2.192198,9.505044,1.00935891409523570258,2.6420016,14.90211,7.5124063,2.1698952,9.467471,1.35238961409523570285,1.7770962,12.336722,7.4082584,2.1479335,9.395573,1.81106931409523570286,0.79846627,10.150817,5.2367177,2.0703852,9.324028,2.22404741409523570290,-0.25258827,9.223063,0.46746787,1.9213856,9.309867,2.4093691409523570312,-1.3617022,8.406042,-1.0875661,1.6927259,9.407454,2.19199971409523570313,-1.7615339,7.807492,-0.33399114,1.3991176,9.521099,1.8872091409523570318,-1.8201919,7.6482773,1.5915456,1.1139685,9.587147,1.736681409523570340,-1.7705121,8.200141,3.1741128,0.86951864,9.593557,1.83792851409523570341,-2.3654714,8.231864,4.032434,0.6530253,9.561874,2.07714061409523570364,-3.496133,7.8206596,4.9404354,0.37718073,9.509173,2.36722781409523570365,-3.6685154,7.873931,5.8586116,-0.01874664,9.4296055,2.69306541409523570371,-3.9097314,8.11395,3.8606503,-0.41033,9.296426,3.09491421409523570390,-3.9378633,8.974067,1.1563994,-0.80990845,9.223792,3.23049761409523570391,-3.2501287,9.99639,0.089782566,-1.1632124,9.251691,3.03703021409523570411,-2.72939,9.958083,-0.60333884,-1.3860857,9.3153515,2.73374871409523570411,-2.2661119,9.54209,-1.1653777,-1.521113,9.381089,2.41904381409523570418,-1.7878702,9.499594,-1.5849615,-1.6028204,9.444228,2.09950041409523570438,-1.3335704,10.254965,-1.8938135,-1.6319587,9.507083,1.76705531409523570439,-0.89603,11.645996,-2.0207062,-1.5957308,9.570804,1.42259071409523570459,-0.30705637,12.834118,-4.509479,-1.5037078,9.628138,1.09919461409523570460,3.127426,13.828909,-17.488447,-1.3555226,9.695368,0.576863471409523570470,3.9558198,12.245145,-17.739239,-1.3996041,9.668045,0.860453671409523570497,1.228824,10.883442,-7.6734166,-0.4309721,9.500856,-2.3913121409523570498,1.0540473,11.7387705,-2.9287071,-0.37060472,9.449323,-2.59679821409523570499,1.18094,13.193249,5.9717374,-0.35448477,9.499666,-2.40854481409523570534,-0.18016368,14.5328045,17.995419,-0.25576895,9.674651,-1.58306651409523570535,-3.927688,10.753557,10.42196,-0.4102698,9.739527,-1.06943191409523570536,-7.730279,10.625467,-1.3269863,-0.2838371,9.778721,0.682981671409523570538,-8.383297,14.718355,-1.5029601,-0.9489663,9.759212,0.16620881409523570567,-11.583746,16.138716,-5.2875943,-1.5472193,9.683684,-0.0523632241409523570568,-11.944673,16.147095,-2.8389246,-2.2402165,9.539536,-0.386107121409523570570,-5.430648,16.312294,3.9749734,-2.790897,9.387154,-0.5124341409523570596,-3.3464954,14.312538,4.938041,-2.8406463,9.385576,-0.109845111409523570597,-1.8369513,11.501745,-0.41000703,-2.791606,9.395004,0.33353871409523570598,-0.9127894,11.541249,-0.92176765,-2.7321339,9.416,0.211649541409523570624,-1.2449849,12.364256,2.919729,-2.63232,9.44676,0.0072393041409523570626,-2.219425,11.950658,7.269395,-2.4884562,9.466208,0.60736151409523570629,-2.4061728,11.159973,8.570643,-2.4884562,9.466208,0.60736151409523570638,-0.98222125,10.833164,6.9599442,-2.4832473,9.4126,1.18610371409523570656,-0.09876082,9.910199,4.8189297,-2.3817742,9.380118,1.58458861409523570678,0.46267948,10.018537,3.098097,-2.238589,9.379174,1.78611361409523570679,0.8834604,11.551425,1.8531121,-2.0575845,9.409047,1.84569221409523570680,1.3054385,15.266028,0.9451111,-1.8531016,9.465236,1.77361771409523570690,2.510919,19.573795,0.25917232,-1.5815158,9.545047,1.60038881409523570718,2.0907366,19.608511,-1.2904748,-1.2109903,9.636535,1.35687231409523570719,1.9572599,19.608511,1.6274586,-0.918608,9.707238,1.0469331409523570719,3.8660371,18.968662,1.8070238,-0.676452,9.733033,0.99037181409523570738,5.7215433,14.066533,0.45370123,-0.29926792,9.752546,0.9842011409523570738,8.412027,13.0041065,1.2844892,0.15258272,9.762414,0.91781631409523570752,9.329605,11.97041,2.6114755,0.79264385,9.732875,0.90178751409523570774,8.210915,9.759365,2.5941176,1.3943409,9.659308,0.961228131409523570775,6.782175,7.7769656,2.8724434,1.8313057,9.576724,1.0502621409523570778,5.8921304,5.233725,3.7523127,2.1304636,9.496422,1.20394041409523570812,3.6649241,3.4626143,8.658031,2.402473,9.395676,1.45594761409523570813,3.2734723,3.1627405,11.0935335,2.5643108,9.23348,2.08267781409523570813,1.1575965,2.4666264,6.1405287,2.711386,8.976589,2.87047361409523570818,-0.2184709,2.4169466,1.5286977,2.738609,8.828826,3.27448231409523570841,-1.1168951,2.508525,0.05566519,2.6484663,8.828124,3.34966231409523570842,-1.0959458,3.1549592,2.581548,2.4097366,8.898882,3.34267381409523570852,-0.050876785,3.7588966,3.5775359,2.1331306,8.892224,3.54238681409523570878,1.049259,3.4703953,1.3682863,2.0000112,8.831274,3.76549481409523570879,2.593519,2.7168205,1.1240777,2.0595255,8.8270855,3.74316951409523570880,3.7283707,1.7256209,1.9776106,2.307319,8.769657,3.73360091409523570890,5.2564697,1.3820529,1.8297687,2.7021828,8.601812,3.85712741409523570915,6.6666546,0.760159,0.6733692,3.3358226,8.340165,3.93501421409523570916,6.6893997,-0.22744916,0.45609543,4.2083983,7.991299,3.82085421409523570918,5.837662,-1.049259,0.9792285,5.099388,7.5209394,3.68810561409523570936,4.7602715,-1.5053543,2.0895395,5.861415,6.949425,3.6769151409523570938,3.4500446,-0.21547815,1.335366,6.4440837,6.2956247,3.8741821409523570952,2.3008277,2.2385786,-0.5746084,6.7883005,5.879647,3.93943071409523570977,0.7990648,5.547365,-3.4195185,6.889734,5.959728,3.63092471409523570978,-2.248754,12.672509,-6.657078,6.612473,6.6971655,2.75564311409523570979,-14.081497,19.608511,-18.80885,5.254377,8.20211,1.13459671409523570990,-19.60911,19.608511,-18.875288,5.3513174,8.102303,1.37349671409523571011,-16.96232,19.608511,-7.632715,5.383084,8.0336685,1.62879661409523571012,-7.3867106,17.513586,0.062249243,5.2897553,8.02142,1.96104761409523571018,-6.766014,7.138911,-0.5542577,-2.9234152,8.846757,-3.05924151409523571035,-5.305551,1.2791022,-3.3381157,-3.4112382,8.761346,-2.78795311409523571038,-1.4449008,1.6490064,-4.4442368,-3.8526967,8.509047,-2.98718291409523571052,3.063381,6.0663085,-2.1170728,-3.8537657,8.345874,-3.4154451409523571075,4.459201,15.245678,2.2331917,-3.2238777,8.564101,-3.52606421409523571076,5.6179943,19.603125,3.1094694,-2.2721581,9.111243,-2.827181409523571079,8.566454,19.608511,1.3808558,-1.3056933,9.508958,-2.01128961409523571112,5.5162406,16.263813,0.37229836,-0.25143152,9.682,-1.53820561409523571113,4.505289,8.974067,4.250905,0.28259823,9.714447,-1.31151581409523571113,4.7375264,7.7691846,3.9151182,0.63459826,9.748097,-0.86153211409523571118,4.6112323,7.102998,1.9494787,1.0224196,9.742968,-0.446777551409523571132,4.52145,7.6243353,1.7112557,1.3848276,9.705458,-0.238256981409523571138,5.1158104,9.066243,1.5771804,1.7230241,9.653886,-0.0639624741409523571153,5.143344,10.172963,1.8842367,2.070228,9.585239,0.0880740061409523571173,4.9601874,10.392631,2.420538,2.363965,9.514064,0.254255321409523571174,3.875614,9.084799,2.3840263,2.599045,9.444794,0.45963061409523571179,2.7694929,7.3897038,1.7848774,2.7408986,9.393264,0.65152511409523571203,2.1122844,6.3021374,1.1695676,2.806982,9.3641,0.77772161409523571204,1.8154035,5.959168,0.6787562,2.841125,9.347543,0.84961661409523571223,1.7681179,6.250662,1.2725182,2.8587987,9.339716,0.8759921409523571224,1.7393875,7.0275807,2.2589293,2.8698726,9.327505,0.96533381409523571230,1.3162124,7.52737,1.8237832,2.8550107,9.311394,1.14772391409523571239,0.82001406,8.177995,1.8956091,2.7841146,9.318846,1.25627551409523571257,1.9231426,12.026673,4.9188876,2.6476252,9.346089,1.34576931409523571259,3.2501287,16.662447,9.543288,2.535428,9.322675,1.68218391409523571273,2.8670566,15.4324255,9.844957,2.4390838,9.215304,2.302051409523571290,1.5394717,11.207857,6.0226145,2.3580294,9.097589,2.80070691409523571291,0.33638534,9.4062195,-0.85532856,2.2273738,9.078418,2.96505281409523571299,-0.8595184,9.503185,-3.3435028,2.0233476,9.243567,2.57544681409523571327,-2.3600843,9.478644,-1.70946,1.7252548,9.4417305,2.01186941409523571328,-3.731962,8.653842,2.7018566,1.3180373,9.569538,1.69030281409523571333,-4.3544545,9.375694,5.8029466,0.8243973,9.590486,1.87439171409523571339,-5.9567738,8.903438,7.9744873,0.33936977,9.530486,2.2858321409523571365,-6.55712,7.7649946,7.117363,-0.24520503,9.352844,2.93846181409523571366,-4.7297454,8.033744,4.6004586,-0.834358,9.14691,3.43631891409523571371,-3.436278,9.396045,0.9708488,-1.2359376,9.044679,3.5828271409523571397,-3.3213563,10.010158,-0.22385786,-1.4662396,9.105268,3.33386161409523571402,-2.7982233,9.53012,-0.65780693,-1.6496223,9.194221,2.9858711409523571403,-1.661576,9.9233675,-1.1510124,-1.7795792,9.267086,2.6691961409523571431,-1.4437037,10.875063,-1.7423803,-1.7785374,9.355083,2.3429941409523571432,-1.1839328,11.541249,-2.2972364,-1.7216489,9.4519825,1.96630071409523571433,-0.039504327,11.812991,-5.21098,-1.6505189,9.539916,1.56082891409523571460,4.0982747,11.633426,-17.541119,-1.4749299,9.649908,0.93500941409523571461,4.3903675,9.479841,-17.285538,-0.9034359,9.734047,-0.77622231409523571461,1.0552444,8.384495,-5.671864,-0.38934362,9.548033,-2.20314841409523571470,0.079008654,9.263765,-3.0190883,-0.33460167,9.514087,-2.35384461409523571484,2.1200657,12.294825,-1.2360066,-0.41994858,9.541414,-2.2260881409523571508,2.4690206,15.441403,9.52593,-0.24008039,9.599673,-1.98973661409523571509,0.019752163,16.57446,15.400702,0.046020284,9.7675905,-0.873193861409523571513,-5.1756654,12.474988,3.9815574,-0.043763738,9.794989,-0.476121721409523571519,-8.062474,11.577163,1.002572,-0.25883946,9.791051,0.48856211409523571541,-7.2101383,14.874577,3.4093432,-0.94288206,9.757205,0.279794841409523571542,-9.458893,17.27656,-5.921459,-1.3912145,9.694597,0.499708351409523571551,-11.779472,17.282545,-4.3903675,-1.9365453,9.613521,0.0195405671409523571579,-9.65821,17.380108,0.5363012,-2.5120173,9.47407,-0.319651371409523571580,-5.728726,16.66484,2.8766334,-2.8460941,9.381033,-0.257583021409523571582,-3.6864722,14.144345,2.5378537,-2.9059036,9.366213,0.0131736621409523571612,-3.004723,12.075156,-1.4413095,-2.8823864,9.371523,0.191798881409523571613,-3.063381,10.702681,-3.3674448,-2.884679,9.372773,-0.0102069211409523571613,-2.6605566,11.379641,-0.84934306,-2.9342854,9.3512745,-0.337643241409523571619,-2.8287494,11.756129,4.0138793,-2.9155402,9.354569,-0.402570751409523571637,-3.526659,10.129269,8.187572,-2.887405,9.371604,-0.079612461409523571653,-3.5523968,10.433332,10.6398325,-2.9544277,9.336161,0.52711251409523571654,-2.1416135,10.883442,7.9852614,-2.9910445,9.255884,1.24606451409523571667,-0.74758947,10.04607,4.795586,-2.9293687,9.203468,1.69862591409523571670,-0.19692309,9.491214,1.5825673,-2.8086112,9.213162,1.84382931409523571686,0.6452374,15.095442,-0.53091425,-2.6699224,9.272392,1.75060451409523571706,2.0919337,19.569607,-1.6118963,-2.3616214,9.403756,1.47053551409523571707,1.9841946,19.608511,-0.75956047,-1.9106799,9.552815,1.12402631409523571710,0.3405752,19.608511,2.6605566,-1.5341315,9.644487,0.89481591409523571719,2.3343468,19.44032,4.522647,-1.3375726,9.670458,0.92925891409523571733,4.299388,14.830284,2.492364,-1.0316437,9.690848,1.09250471409523571750,6.2823853,12.267291,1.0989386,-0.58936965,9.7197695,1.16151931409523571752,7.5285673,11.418547,2.385822,-0.009549626,9.741556,1.1280081409523571766,7.44896,10.457873,2.1332338,0.5725867,9.719805,1.16958331409523571770,6.7881603,8.250419,0.6799533,1.0464784,9.673643,1.223061409523571784,6.89171,6.010045,3.6296098,1.4212991,9.627683,1.20749191409523571803,5.5790887,4.0563765,8.690353,1.8138132,9.5293865,1.43918121409523571804,4.047398,2.2158337,9.567828,2.1631305,9.341394,2.05659991409523571820,1.115698,1.3341689,5.0242324,2.4185753,9.089063,2.77665851409523571822,-0.19393034,1.5676036,1.6214731,2.4721532,8.958586,3.1309121409523571834,-0.11671733,1.9021933,2.705448,2.3788254,8.945511,3.23873641409523571858,0.5033809,2.1242554,2.9741971,2.2464912,8.891864,3.47252541409523571859,0.44951138,1.9111716,2.8419175,2.1920767,8.808544,3.71143341409523571860,0.87089086,1.5711949,0.6751649,2.171438,8.721217,3.92372781409523571896,2.1930888,1.2036849,-0.27952304,2.0355904,8.7743,3.8779411409523571896,3.5769374,1.2695254,1.2348095,2.4930985,8.682613,3.81668261409523571898,5.3516393,1.4443022,0.1400608,2.9240906,8.512848,3.89249441409523571900,6.2351,1.1150994,1.1599907,3.651581,8.297315,3.74044561409523571924,5.7640405,0.5231331,1.7657237,4.4848585,7.9089975,3.6748061409523571925,4.634576,0.08200141,1.8770541,5.2018604,7.432907,3.72329761409523571933,3.6577415,0.96306765,1.5699978,5.738889,6.960654,3.8451081409523571964,2.6018987,2.52289,0.7260417,6.0622883,6.641216,3.9132221409523571965,1.460463,4.6471453,-0.66858083,6.139282,6.6331434,3.80539161409523571966,-0.45609543,8.792706,-3.1334114,5.968196,6.9906716,3.41782621409523572000,-7.1820064,18.835184,-14.720749,5.2458825,7.904695,2.48333071409523572001,-18.488026,19.608511,-19.608511,5.3231263,7.7764144,2.71331241409523572002,-19.600132,19.608511,-11.523293,5.355027,7.6646614,2.9575391409523572003,-15.250466,18.841768,-0.57999533,5.2384977,7.644418,3.2080231409523572019,-10.568604,9.979631,1.388637,5.043923,7.668204,3.45367811409523572020,-8.097789,2.8221653,-2.5222914,-4.0212793,8.657303,-2.24739841409523572031,-5.2265425,1.5981296,-4.577115,-4.5484567,8.379824,-2.29357461409523572050,-2.166154,4.935647,-3.9199066,-4.799257,8.115361,-2.69785671409523572053,0.427365,14.237719,4.8267107,-4.6543236,8.089481,-3.011311409523572069,1.5209166,19.194315,6.397307,-4.0539575,8.648393,-2.22285841409523572081,6.752846,19.608511,-0.6063316,-3.275415,9.155067,-1.27545551409523572082,8.845378,19.59714,-1.0570401,-2.118898,9.505737,-1.14963011409523572097,6.7372837,12.503119,5.614403,-1.0165346,9.692507,-1.09195291409523572100,5.386954,5.849633,3.3435028,-0.35139337,9.785838,-0.53320791409523572116,6.199187,3.7804444,-0.40701428,0.07151201,9.804102,-0.211833071409523572125,6.238691,3.6050692,-1.0199299,0.6264948,9.784284,-0.213816361409523572136,7.4387846,5.275025,-0.24660277,1.2620381,9.720758,-0.29070671409523572145,8.013991,7.4507556,-0.079008654,1.989505,9.598033,-0.300024571409523572151,7.191583,9.179968,1.678934,2.6597042,9.4339285,-0.312053441409523572175,7.165247,10.424355,4.3341036,3.1203892,9.295678,-0.15464521409523572176,6.7025676,10.58716,5.0637364,3.4984758,9.157844,0.254805951409523572180,5.2540755,9.234436,4.4873323,3.7694316,9.027732,0.67959211409523572208,3.5553896,7.371747,3.4446578,3.9291756,8.923811,1.04765841409523572209,2.4187422,6.381146,2.5007436,3.9591703,8.871366,1.3394881409523572213,1.690905,5.655703,3.0280666,3.9098973,8.857413,1.55863641409523572222,1.2378023,5.349245,4.5860934,3.8283656,8.840217,1.83427421409523572249,1.3485341,6.7342906,4.5819035,3.70883,8.794566,2.25179581409523572251,1.4095862,8.0924015,4.288614,3.552291,8.766534,2.5883421409523572252,1.1324574,9.208698,4.9266686,3.355952,8.770436,2.8262021409523572275,1.1779473,11.098921,5.083489,3.127675,8.7802305,3.04886671409523572284,1.9758149,14.935629,7.104195,2.8664012,8.815177,3.2010631409523572285,2.367267,17.832014,9.359533,2.6184483,8.829491,3.3696011409523572314,2.8048072,16.251242,6.5738792,2.3912406,8.814734,3.57111141409523572315,3.067571,13.492524,2.508525,2.2962928,8.851572,3.54219221409523572315,2.3774424,12.394184,0.52492875,2.2836335,8.955187,3.2802471409523572320,0.45848963,11.286267,-5.626374,2.2076182,9.088847,2.94782041409523572335,-2.5839422,9.083003,-9.093777,2.0610712,9.3239765,2.23289941409523572349,-3.0262709,10.832565,-4.4101195,1.6934468,9.573085,1.28790461409523572353,-4.8099513,11.954847,-0.8858546,1.2478402,9.69165,0.82776661409523572372,-6.551733,10.482413,1.1881226,0.69268256,9.74926,0.801551941409523572373,-6.237494,8.654441,2.166154,0.04766659,9.756407,0.99028241409523572380,-4.8985367,8.566454,1.9243397,-0.53473085,9.717045,1.20974931409523572402,-3.731962,8.292317,1.3491327,-0.9361922,9.6692915,1.34116671409523572403,-2.7724855,8.250419,1.0708067,-1.195784,9.63404,1.38771161409523572427,-2.3145945,8.6257105,0.25797522,-1.3498721,9.614269,1.38350021409523572428,-1.9686323,8.966286,-1.5717934,-1.459142,9.609947,1.3000821409523572431,0.36032736,9.913791,-7.9367785,-1.535808,9.629779,1.03878081409523572460,2.6384103,10.312426,-13.675081,-1.3733327,9.708551,0.168400761409523572461,0.9103952,9.533113,-8.510789,-0.98046243,9.688494,-1.15851191409523572463,-1.6801311,9.12131,-0.11611878,-0.8166943,9.609074,-1.7802031409523572493,-1.5634137,9.679757,3.5116954,-0.96511227,9.644034,-1.49383871409523572494,0.75956047,10.83077,1.1240777,-1.0652336,9.706531,-0.90493811409523572495,1.9500773,12.23437,-4.4765587,-0.8665996,9.747591,-0.63548811409523572500,0.2717419,13.59727,-1.7657237,-0.5644883,9.738523,-1.00643971409523572522,-3.080739,13.393165,5.4539914,-0.45193568,9.734252,-1.10021341409523572523,-6.787562,11.665748,6.007052,-0.6341735,9.770668,-0.54980191409523572533,-7.5225816,12.297218,4.1293993,-1.1147034,9.743021,-0.03688451409523572559,-7.390302,14.941015,-2.2080526,-1.5908854,9.6732855,0.258892361409523572560,-10.133459,15.737088,-3.715801,-1.9976685,9.6010275,-0.0013829791409523572561,-10.324995,15.14991,1.2665327,-2.510244,9.47224,-0.38172351409523572584,-5.6880245,16.37215,4.973954,-2.9749322,9.342371,-0.200649411409523572584,-1.4951789,15.656882,5.549161,-3.0511303,9.317282,0.2219571409523572601,-0.83617496,14.574703,1.9572599,-2.820522,9.371695,0.621605161409523572602,-2.4779987,13.51467,-0.9516952,-2.577448,9.4400625,0.64217681409523572615,-2.9245174,11.991359,-0.7637503,-2.5242,9.466235,0.434972551409523572629,-2.9215245,11.395203,0.5722142,-2.5504684,9.46489,0.285225061409523572631,-2.396596,11.478401,2.4420857,-2.5612984,9.462362,0.271725541409523572656,-2.5019407,12.027272,6.541558,-2.5400271,9.46358,0.399123251409523572657,-2.2092497,12.316372,7.789535,-2.52289,9.440255,0.8288551409523572660,0.30645782,12.494142,5.9507885,-2.4944973,9.394073,1.30355751409523572689,1.7585411,12.436681,4.2850223,-2.2925615,9.403725,1.57623821409523572690,2.31639,12.491149,2.2948422,-2.0100896,9.447844,1.6935781409523572692,2.2541409,12.7730665,0.7793127,-1.7188802,9.508589,1.67407951409523572700,1.9716251,13.573328,-0.025737667,-1.4455495,9.574687,1.55116921409523572742,2.12246,16.542736,0.6853402,-1.1897721,9.636964,1.37250591409523572744,3.1878796,19.58457,2.088941,-0.9273241,9.684299,1.23482481409523572745,3.347094,19.608511,0.6991069,-0.60489047,9.716321,1.18220081409523572746,1.6400281,19.608511,0.23044191,-0.32441083,9.747045,1.0296851409523572795,1.0510546,19.608511,1.3958195,-0.1973454,9.766713,0.861846571409523572796,2.4654293,15.8783455,1.5292963,-0.08667846,9.7731695,0.804993031409523572797,5.9519854,11.471817,2.1679497,0.168622,9.772509,0.80001531409523572799,8.872313,9.924564,1.7579426,0.5976279,9.750013,0.86629181409523572800,8.431181,7.6931686,1.9620483,1.211171,9.687125,0.92899821409523572803,7.8469963,5.2205567,5.795764,1.7054733,9.602996,1.02187351409523572821,5.21936,3.2453403,10.098145,2.1156015,9.46973,1.42086281409523572824,4.2940006,1.6705543,9.657611,2.3775167,9.267286,2.15295431409523572833,2.2272062,0.45609543,4.1575313,2.6411798,9.00789,2.837691409523572856,-0.21428105,0.26396075,1.9021933,2.7990758,8.862138,3.13019011409523572857,-1.3293805,1.2545617,2.9113493,2.6862907,8.931216,3.03110671409523572860,-0.80086046,1.9129672,2.8161798,2.448707,8.777559,3.62335011409523572886,1.7226281,2.2140381,2.1775265,2.267909,8.73044,3.84790661409523572887,3.7163997,1.7064673,1.7513585,2.3774102,8.644269,3.9742831409523572894,4.5034933,1.0319009,2.2996306,2.7682855,8.495975,4.040471409523572901,5.1265845,0.5189432,1.9081788,3.2623818,8.245583,4.18779561409523572926,5.1942205,-0.15801731,2.1386206,3.859324,7.9290524,4.29023651409523572927,5.6485205,-0.45070848,1.8381484,4.483957,7.5139694,4.4277281409523572932,5.4019175,-0.4938041,0.7272388,5.16006,7.02602,4.492131409523572959,4.4167037,0.15981296,1.6184803,5.817799,6.5549006,4.39964531409523572961,3.1884782,1.5131354,1.2072762,6.235294,6.140824,4.42513131409523572962,1.5388732,3.1878796,-0.13826515,6.4220414,5.9807835,4.3769861409523572996,-0.7577648,5.2744265,-2.3708582,6.381238,6.211073,4.10764841409523572997,-3.2225955,8.255806,-5.769428,5.975212,6.9706826,3.4462761409523572999,-5.151125,14.801554,-10.331579,4.9362664,8.228899,2.0221021409523573002,-15.670649,19.608511,-19.600132,3.0261323,9.324379,-0.262442741409523573022,-19.60911,19.608511,-18.28452,3.1657314,9.281149,-0.093837981409523573023,-15.636531,19.608511,-6.183026,3.3087745,9.231558,0.0273649771409523573032,-6.7079544,16.345215,0.40462008,3.3552294,9.212689,0.198005631409523573052,-4.633379,8.486847,-2.939481,-3.3198442,8.671472,-3.15508911409523573053,-5.1223946,4.0815153,-8.149862,-3.5442252,8.62277,-3.0424851409523573061,-4.012682,1.7890673,-7.1604586,-3.8145578,8.328807,-3.50007631409523573086,-2.1086931,2.223615,3.2680852,-3.9292831,8.021498,-4.04805371409523573087,1.863886,6.017826,7.631518,-3.9994195,8.145141,-3.71910431409523573092,7.093421,14.853029,4.6806645,-3.6827507,8.651622,-2.78517441409523573103,11.35929,19.604322,4.226963,-2.4499967,9.291936,-1.95649531409523573132,9.952098,19.604921,6.0148335,-2.4265847,9.285688,-2.01447061409523573133,6.891111,18.281527,4.2503066,-2.3977838,9.290401,-2.02717971409523573135,5.9304376,14.589068,4.0880995,0.89301634,9.765904,-0.0046323361409523573159,4.176685,11.925519,0.6536171,1.2847853,9.715749,0.352099031409523573160,3.70802,11.395802,-0.84335756,1.478726,9.687525,0.36827511409523573161,3.8827965,10.237606,0.12090719,1.6370913,9.665775,0.251237451409523573182,2.89459,8.222287,-1.5664065,1.8110524,9.635033,0.237965881409523573182,2.7934349,8.026561,-1.9057846,1.9278181,9.614724,0.104753931409523573210,4.383185,9.172785,-0.007781155,2.0324695,9.593511,-0.06338381409523573210,5.521029,9.501988,1.8028339,2.2677891,9.540683,-0.053708211409523573212,5.306748,8.309675,2.456451,2.5881414,9.458285,0.11293841409523573228,4.5082817,6.813898,2.1452048,2.875405,9.370437,0.312025961409523573232,3.4105403,6.1644707,1.2186487,3.0913534,9.294701,0.471688721409523573242,2.5785553,6.6708446,0.7721301,3.2147286,9.248174,0.55426411409523573263,2.180519,7.7889366,0.8702923,3.2419214,9.237235,0.577774171409523573264,2.5210943,9.339182,1.869273,3.2082992,9.246903,0.60990361409523573280,3.7463272,12.249334,4.598663,3.179548,9.248519,0.72508951409523573281,4.707599,15.043966,7.7847466,3.1882052,9.21301,1.06121651409523573301,3.7666779,13.925276,8.7125,3.1721647,9.143169,1.58436421409523573316,2.44448,10.828975,6.5744777,3.0513968,9.08328,2.08647851409523573316,0.93134445,8.902839,-0.5231331,2.9011889,9.04991,2.41922741409523573328,-0.30047232,8.764574,-0.3405752,2.7035441,9.183308,2.1279351409523573332,-2.484583,6.7630215,2.5037365,2.4147463,9.308422,1.9216311409523573346,-2.8377275,6.7348895,6.4002995,1.9973049,9.3720045,2.0848751409523573363,-3.2650926,7.129334,6.8970966,1.5842025,9.318543,2.61255741409523573364,-3.8379054,6.63972,5.6658783,1.1865491,9.220791,3.12081671409523573377,-4.045004,6.597223,5.051167,0.7552118,9.133618,3.48956371409523573381,-2.7419596,7.7973166,4.1174283,0.27554283,9.046855,3.774771409523573397,-2.3535004,8.841787,2.098518,-0.08971308,9.008023,3.87528731409523573413,-2.8006175,9.547478,0.60812724,-0.3307339,9.05532,3.7499571409523573413,-2.690484,10.368091,-0.7200562,-0.61489075,9.153935,3.46377921409523573431,-2.0895395,10.785878,-1.6017209,-0.8549079,9.280385,3.05188181409523573446,-1.2964603,11.320384,-1.9668367,-0.99051416,9.407818,2.58499721409523573447,-0.9684546,11.866262,-2.5276785,-1.0069747,9.520032,2.1272931409523573466,-0.18255788,12.658743,-5.638345,-0.97508484,9.615244,1.6633261409523573466,2.3989902,12.77546,-16.437391,-0.86099225,9.722598,0.94877081409523573480,2.2439656,10.709264,-16.154278,-0.4754691,9.770843,-0.68918291409523573481,-0.6901286,9.355942,-5.2941785,-0.18476444,9.5903845,-2.03979681409523573495,-2.3481133,9.111733,0.9379285,-0.2732418,9.549795,-2.2129451409523573512,-1.5634137,9.59177,1.1073183,-0.56752753,9.63003,-1.76374521409523573513,1.2826935,11.372458,-2.0494366,-0.7274872,9.682868,-1.37229031409523573533,2.6749218,13.012486,0.3465607,-0.5300722,9.693767,-1.38576761409523573534,1.1043255,13.653534,7.3232646,-0.18989305,9.726429,-1.23730421409523573541,-1.5622166,13.025056,9.454702,-0.025735622,9.796466,-0.446084321409523573564,-5.412093,12.314576,3.8989575,-0.10100187,9.800517,0.331729021409523573564,-7.603985,13.75828,0.6781576,-0.54504067,9.778697,0.500433151409523573577,-8.681973,15.552135,-1.5664065,-1.1423566,9.732087,0.389728221409523573581,-11.112687,15.623961,-4.036624,-1.7236154,9.652329,0.179168241409523573594,-10.652402,16.001648,-1.4610616,-2.3690634,9.515231,-0.135306881409523573611,-7.5944076,17.562666,0.8218097,-2.8348687,9.385318,-0.22299541409523573614,-5.533,16.727688,1.4155718,-2.9791842,9.341943,-0.151429761409523573628,-4.313154,12.9005575,1.4155718,-2.9949574,9.338126,-0.0063768421409523573633,-3.4799721,10.769718,0.8726865,-3.0316386,9.326268,0.0172577171409523573647,-2.4235306,12.349891,1.7423803,-3.0855687,9.308578,-0.0044961421409523573661,-2.0775685,13.518261,3.4063504,-3.0309665,9.326345,0.054138421409523573661,-3.4608185,11.87943,6.6044054,-2.922522,9.357237,0.267138781409523573678,-3.1130607,10.91756,8.623915,-2.9521956,9.325499,0.699999451409523573681,-0.53809685,10.853515,6.4380083,-2.9767692,9.262437,1.23145841409523573698,0.5153519,10.547057,4.1216183,-2.8071933,9.266139,1.55844581409523573711,0.99898064,11.225215,3.0148985,-2.5746536,9.308093,1.70321851409523573713,1.501763,13.575124,1.9027919,-2.3257225,9.368929,1.72758951409523573731,2.8736405,18.656218,-0.0688333,-2.0211036,9.452606,1.65340321409523573748,3.918111,19.608511,-0.7577648,-1.5766915,9.577244,1.40029121409523573749,2.735974,19.608511,0.09876082,-1.1133001,9.677607,1.1290971409523573763,2.119467,19.608511,3.09271,-0.80190676,9.727071,0.95469261409523573764,3.289633,16.982073,2.3139958,-0.5561457,9.738269,1.01351951409523573779,5.2822075,13.597869,0.5177461,-0.26082245,9.748182,1.0369811409523573781,6.7043633,12.037448,2.143409,0.20016325,9.756756,0.967488941409523573795,6.6109896,11.3640785,2.8622682,0.68828624,9.728168,1.02927641409523573810,6.2315083,10.389638,1.4167689,1.0706356,9.6790495,1.15765381409523573813,6.5840545,7.349002,1.1563994,1.3766154,9.636971,1.18494981409523573829,7.0730705,4.8817773,4.8344917,1.7179976,9.577008,1.22465471409523573847,4.8560395,4.305373,13.439851,2.142636,9.443266,1.55056071409523573847,3.6218286,3.4099417,11.732785,2.41886,9.172364,2.4874161409523573862,0.88645315,2.6114755,3.876811,2.5973823,8.879819,3.25158721409523573863,-0.59615624,2.6862943,1.2006922,2.5799732,8.809437,3.45078831409523573877,-1.0313023,2.8341362,3.0502129,2.3779025,8.839468,3.51849221409523573881,0.878672,2.1410148,0.08259996,2.1223383,8.807938,3.75317241409523573893,2.4887726,1.1821371,-0.16879122,2.1628673,8.824229,3.69125631409523573908,3.3441012,0.25677812,1.2491747,2.424257,8.790434,3.60855051409523573915,3.90614,-0.20350714,1.775899,2.8078766,8.634024,3.70673231409523573925,4.8781857,-0.427365,1.1719618,3.3006895,8.386824,3.86484531409523573943,5.577293,-0.6721721,0.4345476,3.9636345,8.059577,3.93741131409523573944,5.337274,-0.96067345,0.7104794,4.762179,7.646743,3.87548261409523573967,4.69084,-0.4213795,1.6693572,5.508778,7.137007,3.85835271409523573968,3.8151605,0.6865373,1.7100586,6.0523634,6.619289,3.96538931409523573975,3.1944637,2.520496,0.31783026,6.3758235,6.26305,4.03651761409523573982,1.702876,5.179257,-1.7848774,6.536578,6.2374725,3.81280421409523574004,-0.9552865,9.421184,-5.789778,6.3808193,6.7352,3.17689061409523574005,-10.784083,18.724453,-17.696741,5.5579114,7.886247,1.75701791409523574014,-19.586365,19.608511,-19.608511,5.637827,7.78942,1.92619671409523574032,-19.187132,19.608511,-9.668385,5.7064734,7.6897826,2.11513921409523574035,-12.363059,19.024326,0.025139118,5.694894,7.626422,2.3614111409523574042,-7.7853456,12.186486,0.016759412,5.5718646,7.601669,2.70912221409523574079,-6.0489507,5.843049,-3.508104,-3.5567136,8.768862,-2.57434031409523574080,-2.4947581,4.417302,-4.1862617,-3.8692148,8.6182165,-2.63172221409523574082,1.5394717,8.8777,-0.2896984,-3.874559,8.532873,-2.88934091409523574083,3.4171243,17.51598,6.8162923,-3.4018304,8.781974,-2.73402451409523574114,4.578911,19.608511,4.96318,-2.5928514,9.300046,-1.71950151409523574115,7.207744,19.608511,-3.3381157,-1.7789332,9.591536,-1.0041251409523574116,4.50888,17.850569,0.13227965,-0.87350136,9.696096,-1.18029881409523574137,3.5296519,9.207501,8.090008,-0.36421838,9.740079,-1.08102541409523574138,3.7762547,4.6393642,5.6341553,-0.08000892,9.799777,-0.358305481409523574142,5.5461683,4.699219,2.6880898,0.20717992,9.802642,0.188916891409523574169,5.917868,5.4791307,2.5863364,0.70259345,9.77138,0.44368661409523574169,5.891532,6.2991447,2.8257565,1.2478476,9.70455,0.65953771409523574173,6.0327897,8.255207,1.2467805,1.7725707,9.606691,0.8601521409523574181,6.2991447,10.3692875,0.7978677,2.2268746,9.511366,0.863330661409523574195,6.927024,11.389217,1.8513165,2.598298,9.420598,0.819483941409523574210,5.8484364,10.269928,2.4911668,2.949292,9.3088875,0.903712331409523574225,4.203021,8.24563,2.2810757,3.1916945,9.21132,1.06540331409523574226,2.8149827,6.625953,1.6304513,3.3157566,9.151252,1.19613291409523574251,2.4768016,5.9064956,1.103727,3.3605936,9.121636,1.29327451409523574253,2.2667105,5.7478795,1.1480197,3.4059246,9.097752,1.34201791409523574255,2.4546554,5.7802014,1.1653777,3.4477048,9.0739765,1.39522921409523574262,2.8700492,6.045958,1.2677298,3.5037756,9.045197,1.44165781409523574288,3.2716765,6.510433,1.6897079,3.5847003,9.007041,1.48106221409523574289,3.168726,7.2723875,2.484583,3.6765647,8.958389,1.5493561409523574294,2.759916,8.665813,3.441665,3.7078936,8.921149,1.68374571409523574319,2.2780828,10.923545,5.08708,3.635052,8.910614,1.8862031409523574320,2.142212,14.366407,9.712079,3.4338193,8.924606,2.1750221409523574323,1.5005659,14.414291,11.547235,3.115324,8.879277,2.76108861409523574370,0.82779527,11.374253,7.750031,2.7747076,8.793107,3.33956071409523574372,0.36750996,9.658808,3.9749734,2.5016322,8.792737,3.54964951409523574375,-0.02932897,9.725247,2.079364,2.2522411,8.88396,3.4889921409523574376,-1.1593921,9.507974,-3.0460231,1.9969715,9.010383,3.31594661409523574378,-1.9961656,10.046669,-7.811083,1.722806,9.251556,2.75880891409523574409,-1.7160441,12.285248,-0.6051345,1.419684,9.538166,1.78276731409523574410,-3.0065188,13.080122,2.1003134,1.1162004,9.604481,1.63660111409523574411,-5.9687448,11.440094,5.8759694,0.72750896,9.606005,1.8346191409523574413,-7.3220673,10.299856,5.569512,0.08032237,9.525862,2.32849981409523574433,-6.851607,9.953295,2.112883,-0.64318323,9.411199,2.6806831409523574434,-4.1796775,8.881291,0.45789108,-1.2375375,9.36768,2.62402181409523574442,-3.232771,8.405443,-0.40043023,-1.5313939,9.377007,2.42837331409523574467,-2.7383683,9.088389,-1.7549498,-1.7024722,9.403583,2.20103931409523574468,-1.3084313,9.752182,-9.131485,-1.8065007,9.460789,1.84402571409523574473,2.9370868,9.804854,-19.517532,-1.7455475,9.616339,0.80591481409523574496,2.6880898,8.636484,-13.702016,-1.7423402,9.594831,1.03628021409523574499,-0.8690952,8.647857,-1.8207904,-0.83583796,9.499335,-2.28788421409523574511,-3.0065188,8.939949,2.1134815,-0.9188641,9.530924,-2.11838461409523574528,-1.4820108,10.390836,2.409764,-1.2682381,9.60268,-1.5331321409523574528,0.8583213,12.081141,5.5862713,-1.3579128,9.659242,-1.01267421409523574546,0.35314476,12.457031,9.120711,-1.1029545,9.738864,-0.329258861409523574547,-2.4947581,12.248735,9.7007065,-0.84371907,9.756998,0.509435361409523574561,-5.193622,13.043611,0.44532153,-0.86464906,9.692339,1.21709911409523574562,-9.530719,14.064738,-7.7548194,-1.2186124,9.681144,0.980223361409523574576,-11.368268,14.5567465,1.7226281,-1.977496,9.604594,0.108019061409523574590,-8.908825,14.9787245,1.7112557,-2.6365097,9.442473,0.24275781409523574594,-6.603807,15.294759,0.10115502,-2.951908,9.341212,0.44542851409523574606,-4.6339774,16.402077,2.3654714,-3.0656364,9.306856,0.393314271409523574613,-3.9324763,17.636288,2.4510639,-2.9928339,9.32383,0.528742731409523574624,-3.5332432,16.114773,1.282095,-2.9087694,9.3507185,0.52300451409523574640,-2.954445,13.323133,0.7697359,-2.8465972,9.372138,0.479916451409523574642,-2.099715,11.646594,-0.093373865,-2.8074675,9.3858,0.441888631409523574667,-1.1456255,12.0727625,0.587178,-2.7526026,9.406149,0.34341831409523574668,-1.875857,12.643779,5.120599,-2.6264215,9.443434,0.306328621409523574674,-2.8215668,12.159552,8.392874,-2.5403068,9.451062,0.628224251409523574698,-1.7555484,11.437101,7.615956,-2.5233629,9.406051,1.15292441409523574700,-0.47884035,10.445304,4.9218802,-2.465105,9.356673,1.59571391409523574702,0.34117374,10.035296,2.6982653,-2.3570502,9.350694,1.78303971409523574725,0.6733692,10.349535,1.4706384,-2.2095492,9.38499,1.7917181409523574726,0.7170634,11.499949,0.56203884,-2.0387647,9.436705,1.72116681409523574742,1.2270284,15.006856,0.05327099,-1.8457873,9.498236,1.59592191409523574742,2.6844985,19.325397,1.8357542,-1.5754547,9.576584,1.40618791409523574764,3.787627,19.608511,2.7665,-1.1909915,9.643819,1.32237911409523574765,2.9724014,19.608511,1.4460979,-0.7906138,9.686766,1.3083851409523574774,2.3612814,19.608511,2.6677392,-0.5116706,9.720139,1.1947751409523574801,2.3181858,17.02816,0.96785605,-0.31250733,9.731011,1.17479031409523574802,4.0479965,12.304999,0.25797522,-0.09836598,9.746991,1.07559511409523574803,7.0048356,11.034876,1.8219875,0.25928676,9.755808,0.96301561409523574837,8.754997,10.954071,2.4355016,0.78995,9.724798,0.987250451409523574838,8.4587145,9.361927,2.0129251,1.3546463,9.652119,1.08256261409523574839,7.8266454,6.9862804,1.9949685,1.844009,9.564908,1.13250241409523574842,6.369175,4.9733553,4.7680526,2.2249007,9.466571,1.26658881409523574867,3.3261447,3.4943373,11.109096,2.5364456,9.337545,1.5959641409523574868,3.1561563,2.722806,7.109582,2.6714494,9.126153,2.39730721409523574875,2.1452048,1.9063832,4.720767,2.8433518,8.941896,2.85100561409523574896,0.83856916,1.5394717,2.8724434,2.9347267,8.800647,3.17905331409523574897,0.04070143,1.757344,2.48159,2.884974,8.718218,3.44093131409523574912,-0.09696517,2.2373815,2.171541,2.7617786,8.66981,3.65750551409523574925,0.7062895,2.5246856,1.2779051,2.655611,8.642765,3.79746461409523574925,1.4520833,2.544438,1.0833763,2.6544015,8.637762,3.80967241409523574943,2.593519,2.5330653,1.2431892,2.7519016,8.616638,3.78826711409523574951,4.2664676,2.3708582,0.40880993,2.985524,8.539399,3.78624991409523574967,5.254674,1.8662802,0.22924481,3.4555569,8.414476,3.66416741409523574968,6.171055,1.2138603,-0.3196259,4.06778,8.205267,3.50672751409523574974,6.0944405,0.42676646,0.090381116,4.820179,7.893769,3.25955251409523574989,5.507861,0.33638534,0.060453594,5.549173,7.4766197,3.07851481409523574995,3.566762,1.9249382,-0.21787235,6.1682773,7.044064,2.91614721409523575007,1.9554642,4.469376,-1.7525556,6.429831,6.8951325,2.69903971409523575025,-0.16220717,10.306439,-3.128623,6.3339534,7.1583724,2.19297531409523575026,-9.28232,19.209877,-14.712968,5.497382,8.000428,1.3936751409523575041,-19.60911,19.608511,-19.608511,5.595494,7.902395,1.55338561409523575042,-19.297266,19.608511,-9.780912,5.676602,7.809534,1.7198231409523575060,-9.385869,18.935143,-0.023942016,5.655224,7.7650332,1.97309051409523575062,-5.187038,11.912351,0.3752911,-2.5926232,8.997707,-2.91374921409523575076,-3.9432502,6.1866174,-3.3626564,-2.8230326,9.057192,-2.48357561409523575091,-1.9369092,3.152565,-5.9867015,-3.0703154,8.96599,-2.5208351409523575094,-0.9032126,1.0061632,-6.199785,-3.1633356,8.794943,-2.9686121409523575108,0.38606504,1.4185646,-0.3633201,-3.1293755,8.571844,-3.5917831409523575126,2.3397336,6.083068,5.9561753,-3.1344068,8.562011,-3.6108031409523575127,4.6920366,13.974956,4.703409,-2.537495,9.060991,-2.76223421409523575145,9.497798,19.590555,2.2038627,-1.629413,9.500108,-1.80647491409523575146,10.141838,19.608511,1.899799,-0.26859644,9.723675,-1.24436061409523575159,3.2393548,18.550873,1.4862007,-0.19711992,9.717877,-1.30169341409523575174,1.2006922,11.748347,6.704962,0.9780371,9.740595,-0.578470351409523575177,0.55725044,9.459491,2.789245,0.98741496,9.7555485,0.15713061409523575194,1.1785458,9.108142,0.41060558,0.9124474,9.755261,0.41558921409523575195,2.6372132,8.455123,1.3311762,0.9283581,9.756253,0.352222951409523575202,2.9981391,7.4788876,1.1504139,1.1152643,9.7348995,0.397924961409523575225,3.7140055,7.7847466,-0.13108255,1.3332436,9.704615,0.46185881409523575225,5.337274,8.954314,-0.6847417,1.6027079,9.666186,0.408140061409523575244,5.6706667,9.163208,-0.07062895,1.9821932,9.600101,0.281667651409523575245,4.1802764,7.6375036,1.4089876,2.3511643,9.517941,0.226241541409523575258,3.0262709,6.1638722,1.6496049,2.5714858,9.457545,0.335710231409523575273,2.0213048,5.504868,1.3844471,2.6999726,9.415941,0.46967971409523575274,1.5227122,6.250662,1.3227965,2.7530286,9.3948145,0.573331831409523575289,1.4736311,7.695563,1.6651673,2.733724,9.39397,0.67118081409523575303,1.6346412,9.052477,2.0147207,2.6818817,9.400113,0.784705461409523575304,1.6543933,10.013748,2.5133133,2.623033,9.404456,0.919946851409523575322,1.5065514,10.629657,2.8072014,2.550822,9.406419,1.08765551409523575323,2.134431,12.662334,4.2916064,2.4523175,9.411062,1.26034031409523575338,2.2828712,13.775638,6.671443,2.3685365,9.393354,1.5248991409523575342,1.2773066,12.026673,5.847239,2.2671168,9.341435,1.9411821409523575365,0.23582886,10.344747,2.843713,2.0974898,9.317633,2.22545081409523575366,0.076614454,10.633847,1.858499,1.89168,9.355234,2.25200871409523575374,-0.40761283,10.764331,2.0679917,1.6879485,9.4133625,2.17021751409523575390,-1.0348936,10.460267,2.5737667,1.4665502,9.450425,2.17004511409523575395,-1.5442601,10.02572,4.0623617,1.2210271,9.469551,2.23765561409523575408,-2.484583,8.4234,3.6332011,0.9535246,9.452247,2.43232541409523575432,-3.7181952,7.1634517,3.1771057,0.63053447,9.432607,2.60744171409523575433,-3.7618895,7.2783732,1.834557,0.20381607,9.407739,2.76103471409523575437,-2.77069,8.319851,1.9686323,-0.20632352,9.412442,2.74476581409523575443,-2.369661,9.586982,1.2294226,-0.46403924,9.4131775,2.7105661409523575461,-1.6921021,10.70687,-0.089184016,-0.64383453,9.440437,2.57566071409523575463,-1.6591818,10.967838,-1.252766,-0.7346349,9.502251,2.31040241409523575476,-2.107496,10.852318,-2.2786815,-0.829129,9.572517,1.96210561409523575491,-2.6683378,10.805033,-3.1860838,-0.9752888,9.6324835,1.56027891409523575495,-2.8712463,10.549451,-4.289212,-1.1587116,9.673924,1.11488721409523575511,-2.146402,10.395025,-4.5681367,-1.3254814,9.69684,0.62030811409523575527,-0.27593175,10.568604,-7.2580223,-1.3880092,9.706794,0.148342311409523575528,2.0338743,10.323798,-13.333309,-1.2506536,9.713698,-0.50033611409523575548,-0.17537527,9.362526,-4.2000284,-0.89844084,9.629838,-1.6215551409523575549,-0.28311434,9.182362,-1.2294226,-0.86771953,9.611001,-1.74530761409523575555,1.5646108,10.213664,-3.7259765,-0.88613343,9.642583,-1.5510471409523575571,2.5504234,12.170924,-1.3215994,-0.7020871,9.645762,-1.62378611409523575574,1.2737153,13.702016,8.005612,-0.40274787,9.678317,-1.52916781409523575590,-1.5292963,14.307151,14.279617,-0.20065205,9.786762,-0.59110241409523575605,-5.039196,14.221559,5.4258595,-0.22327276,9.778062,0.714168251409523575605,-7.32925,15.695189,-4.0414124,-0.57428455,9.736722,1.0182641409523575622,-8.228272,17.23047,-1.5873557,-1.1306539,9.7318125,0.428769021409523575623,-9.724648,16.494253,-4.261679,-1.6264781,9.670273,0.1037467941409523575646,-10.146626,16.544533,-1.2455834,-2.1431217,9.565668,-0.274590251409523575646,-8.147469,18.227655,0.39205053,-2.5755303,9.457015,-0.319243071409523575660,-6.1524997,15.581465,2.178125,-2.7844977,9.39934,-0.263371531409523575674,-3.3518825,11.733982,2.4534583,-2.8880672,9.371422,-0.077041161409523575675,-1.8543092,11.44189,2.223615,-2.8872764,9.371758,0.064310271409523575688,-1.5849615,12.330139,4.419098,-2.8236663,9.390241,0.143825111409523575694,-1.8974048,11.620856,6.9767036,-2.7327106,9.411375,0.358757321409523575707,-1.2300211,9.817424,8.2833395,-2.6725845,9.402045,0.79324361409523575723,-0.046088383,9.343372,7.5225816,-2.6067362,9.362531,1.31084481409523575723,0.6919243,9.618107,5.2277393,-2.4642835,9.332115,1.73474351409523575738,1.2479776,10.282497,3.2615013,-2.2674727,9.338201,1.95626911409523575745,1.6106992,11.768699,1.9572599,-2.0364223,9.380759,2.00616741409523575760,2.3864205,16.1453,-0.22266077,-1.7684443,9.448727,1.94025031409523575763,3.5577838,19.608511,-2.60968,-1.421746,9.561135,1.65339451409523575776,2.8179753,19.608511,-2.3259668,-0.99437666,9.681286,1.20593061409523575788,2.1284454,19.608511,2.0530279,-0.68343705,9.744935,0.85995681409523575805,3.8456864,18.893244,2.0805612,-0.46450377,9.75524,0.88878251409523575806,6.483498,14.287997,1.8034325,-0.10682751,9.761411,0.93479311409523575822,8.893861,12.829928,2.8042088,0.37997064,9.751611,0.96546831409523575823,8.786121,11.273099,2.847903,1.0327334,9.69597,1.04500131409523575839,6.10282,8.643068,2.5342624,1.5611635,9.618048,1.10739421409523575843,4.3993454,7.2981253,2.7922378,1.828231,9.563268,1.17127261409523575857,4.433463,6.279991,4.0294414,1.96657,9.517718,1.30997381409523575871,4.1198225,4.8883615,4.3185415,2.1473367,9.4388075,1.57106161409523575874,1.5556326,3.4009635,10.923545,2.3574471,9.339786,1.83881881409523575888,1.417966,3.268684,10.998364,2.3888235,9.139282,2.63390251409523575906,0.41838676,2.6102784,4.0587707,2.4038994,8.8731785,3.4144381409523575906,-0.49559975,2.7976246,0.8882488,2.375065,8.786312,3.6510491409523575919,-1.2246342,3.056797,1.5442601,2.220238,8.822436,3.66135861409523575923,-1.13964,2.8640637,3.4165258,1.9324534,8.84424,3.7703381409523575935,0.095169514,2.8221653,3.654749,1.6746179,8.777323,4.0403811409523575943,1.5795746,2.4426842,2.7114334,1.6046782,8.673712,4.2851071409523575958,3.3028011,1.7184383,1.5580268,1.7444543,8.574503,4.42777251409523575974,4.0958805,0.7068881,1.5753847,2.1156235,8.467705,4.47129871409523575975,4.812944,0.23104046,1.0169371,2.6503735,8.272053,4.55181841409523575988,5.2852,-0.03232172,0.8343793,3.326969,8.015995,4.5656891409523576007,5.773019,-0.16819267,0.9044097,4.1022267,7.670524,4.5282641409523576007,5.710171,-0.22325931,1.8327614,4.9237185,7.21064,4.4647571409523576021,4.8243165,0.18195933,1.9147629,5.633271,6.6347322,4.51851461409523576023,3.2986114,1.6502035,1.3754689,6.12837,6.1355066,4.57919651409523576036,1.2336124,3.6475663,-0.694917,6.325611,5.955269,4.54882571409523576054,-1.8872294,7.4872675,-7.08145,6.2165704,6.325799,4.18436431409523576055,-8.091804,17.887081,-18.033726,5.5883546,7.646484,2.54400751409523576070,-18.151041,19.608511,-19.608511,5.6379757,7.507428,2.83234071409523576076,-19.351135,19.608511,-11.253346,5.6463647,7.3873,3.11716991409523576087,-8.5778265,12.5982895,-0.5722142,5.5569468,7.3637238,3.32660771409523576110,-5.7879825,4.060566,-3.153762,-3.1218286,8.666171,-3.36483121409523576110,-4.7937903,1.6525977,-4.621408,-3.5696192,8.475228,-3.40569161409523576115,-3.233968,2.5582044,-2.5492263,-3.911673,8.185911,-3.72290661409523576123,-0.7206547,7.7368627,4.770447,-4.0689936,8.041973,-3.86527971409523576148,2.730587,17.939753,6.5283895,-3.8683212,8.475726,-3.06080871409523576149,10.05864,19.608511,2.717419,-2.915183,9.174393,-1.87153161409523576155,10.123283,19.608511,1.9207484,-2.903999,9.158452,-1.96467161409523576195,5.1277814,16.556503,1.1450269,-2.8813312,9.149927,-2.03645321409523576197,4.537012,7.744644,4.4167037,0.4242498,9.777254,-0.629070041409523576198,4.8398786,6.4302273,-0.013766659,0.7910401,9.773291,-0.165668711409523576200,6.467936,6.273407,-1.536479,1.1734924,9.734675,-0.171394681409523576204,6.6391215,6.215946,0.7290344,1.7060105,9.649983,-0.37116791409523576241,6.8001313,6.853402,0.26276365,2.2650979,9.536943,-0.29406771409523576244,6.9928646,8.159439,-0.6739678,2.7795439,9.401591,-0.233681341409523576246,7.5890207,9.5385,0.5255273,3.2114944,9.261843,-0.273823951409523576264,7.5201874,9.835381,2.9029696,3.606291,9.116909,-0.216840671409523576265,6.0585275,8.129512,3.5853171,3.9436612,8.978558,0.0588999351409523576266,3.9067385,5.732916,3.3225534,4.1797676,8.863251,0.37774671409523576275,2.415151,4.449624,3.4985273,4.2962933,8.78978,0.67233291409523576289,1.8531121,4.3981485,3.1124623,4.3309894,8.740148,1.01131461409523576306,2.0213048,5.111022,2.110489,4.311987,8.7077465,1.32375221409523576306,1.8507179,5.9029045,1.6106992,4.2839427,8.691777,1.50705811409523576318,1.0773908,6.057929,2.272696,4.2039986,8.711315,1.615481409523576323,0.47046062,6.4044895,3.1962593,4.030081,8.757667,1.79780881409523576335,0.1364695,7.521983,4.216788,3.7755697,8.811901,2.06539941409523576361,1.9758149,12.540829,7.4202294,3.4436364,8.863556,2.3977421409523576362,3.8379054,18.690933,15.471332,3.1606882,8.831972,2.85949351409523576374,2.8113914,17.06108,15.416265,3.402813,8.7304,2.89333371409523576399,1.721431,11.7387705,8.422802,3.6402092,8.633704,2.89454961409523576400,1.2850877,8.799889,3.1370027,2.3753328,8.436471,4.39933441409523576401,1.1390414,9.023148,-4.068946,2.1960242,8.577361,4.21624761409523576404,0.01436521,10.727221,-9.048885,2.0998192,8.896959,3.5503921409523576423,-1.8166006,10.833763,-9.4217825,1.976073,9.284972,2.46065431409523576424,-3.342904,10.675147,-5.79337,1.7057049,9.561722,1.35440211409523576443,-4.9757495,11.862072,1.8698715,1.2341973,9.699071,0.758405451409523576444,-8.549694,9.69951,9.765948,0.60285807,9.737963,0.98947111409523576455,-9.294889,8.26658,10.769718,-0.27131125,9.602268,1.97313261409523576474,-7.418434,8.259995,5.8586116,-1.0840974,9.300019,2.91629271409523576475,-5.3833623,8.775348,2.1571758,-1.6490449,9.114733,3.22066781409523576488,-3.180697,8.880095,0.16699557,-2.0103323,9.086565,3.09245591409523576504,-1.8614918,9.270947,-0.39743748,-2.1579523,9.1407795,2.82130431409523576504,-1.7232267,10.408792,-0.7140707,-2.150441,9.225191,2.5380761409523576520,-1.8154035,11.789049,-1.4921862,-2.1143029,9.311313,2.2359751409523576523,0.046686932,13.03164,-7.227496,-2.0651953,9.401509,1.87535971409523576539,7.053917,13.776237,-19.42356,-1.831941,9.580199,1.01693071409523576555,5.0781016,9.766547,-17.449541,-1.8653452,9.54232,1.27867211409523576557,0.35254622,8.102577,-6.417658,-0.41923168,9.555198,-2.16629121409523576570,0.47764325,9.171588,1.4425066,-0.48844346,9.509749,-2.34445361409523576585,1.039682,11.129447,10.073005,-0.52744657,9.605293,-1.90538881409523576586,0.60214174,13.584102,14.784794,-0.3135507,9.7721615,-0.759558141409523576605,-1.5568297,14.444818,10.589554,-0.046058863,9.788205,0.59939271409523576606,-6.0782795,11.335348,-0.760159,-0.05066139,9.723979,1.2696741409523576617,-7.750031,11.357494,-4.259285,-0.60323274,9.750733,0.854236071409523576624,-6.5565214,14.433445,-2.0452468,-1.274498,9.71962,0.273906981409523576636,-10.6715555,16.69836,2.4821887,-1.6649402,9.663935,0.082225871409523576659,-7.9607205,16.587627,5.728726,-2.2770016,9.533938,0.299504341409523576660,-4.863222,15.549742,4.1677065,-2.5986722,9.431987,0.67446521409523576664,-2.8886044,16.190788,1.0450691,-2.6695504,9.387903,0.954547051409523576698,-2.220622,14.927249,-1.685518,-2.5385225,9.426354,0.93282041409523576699,-2.2655134,13.101071,-3.5715504,-2.4259298,9.478496,0.66584471409523576700,-2.9724014,12.021885,-1.22224,-2.4097006,9.50262,0.25290451409523576704,-2.854487,12.066776,4.1599255,-2.482627,9.487067,0.0499742851409523576728,-1.3275849,12.077551,7.0724716,-2.52236,9.471498,0.314344761409523576729,-0.15741876,10.951078,6.8360443,-2.415521,9.472647,0.77756261409523576738,0.57041854,10.8948145,5.905897,-2.256805,9.46533,1.21850251409523576766,1.3329718,10.64881,4.0940847,-2.0645716,9.46541,1.52116161409523576766,1.7088615,10.486604,2.1871033,-1.8347853,9.485129,1.68412391409523576767,1.7070658,11.674128,0.21667525,-1.5970544,9.524349,1.70487091409523576790,1.7417817,14.961965,-0.30825347,-1.3608248,9.587132,1.55094871409523576791,1.9907787,19.341558,1.0809821,-1.1137729,9.65388,1.31625271409523576807,1.9458874,19.608511,0.3489549,-0.8526874,9.7008295,1.1563831409523576808,1.8908207,19.608511,1.3186066,-0.6295406,9.737605,0.97626851409523576825,2.7688942,19.585169,1.489792,-0.43323243,9.758401,0.86965231409523576826,4.8662148,16.138716,1.0420763,-0.18432781,9.7716875,0.806560161409523576836,7.563283,12.32954,2.5809495,0.2080258,9.774789,0.761990371409523576859,8.945336,10.660782,3.8127663,0.7620994,9.740008,0.84960611409523576860,7.1808095,9.208698,3.8229415,1.3317355,9.65606,1.07580731409523576864,5.8879404,8.3629465,3.1471782,1.6983722,9.566127,1.33234631409523576896,5.016451,6.5391636,3.8899791,1.9692326,9.4927635,1.47646611409523576897,3.4201171,4.510676,8.005612,2.1550813,9.4170685,1.68666781409523576898,2.3104045,3.5889084,10.258555,2.2982485,9.278544,2.19021871409523576904,1.3748703,2.9083564,4.5920787,2.3995886,9.061327,2.88178541409523576927,-0.037110128,2.356493,2.2655134,2.45552,8.951196,3.16495181409523576928,-0.87807345,2.521693,1.5801731,2.3534436,8.921097,3.32351331409523576936,-0.24839842,2.5845408,1.5903485,2.1258435,8.930041,3.4504411409523576959,1.2988545,2.520496,2.8981812,1.9864584,8.924596,3.54626231409523576960,2.8275523,2.381632,2.3918076,2.0451844,8.834159,3.73433281409523576965,3.9947255,1.7238252,0.7194576,2.3024254,8.718971,3.85341021409523576996,4.7494974,1.2719196,-0.07062895,2.7651799,8.614555,3.78333021409523576997,5.205593,0.80205756,0.47225627,3.3496656,8.471325,3.63136151409523576998,5.979519,0.36990416,0.47165772,3.9975657,8.213371,3.56796961409523577004,6.000468,-0.15502456,0.40761283,4.7632914,7.832469,3.4833731409523577026,5.333084,0.10055647,0.9911995,5.5338845,7.3578134,3.37774011409523577027,4.184466,1.1139023,0.5931635,6.1197977,6.8951087,3.3430451409523577038,2.7736826,2.9909565,-0.8391677,6.484441,6.59849,3.25304961409523577060,0.7823054,5.502474,-2.6360161,6.58488,6.6606736,2.90605851409523577073,-2.1122844,10.875661,-4.0803185,6.2820783,7.190792,2.23571471409523577074,-10.482413,18.91958,-16.807297,5.1284986,8.263466,1.25858961409523577101,-19.607914,19.608511,-19.507357,5.2519803,8.155336,1.44138961409523577102,-19.60911,19.608511,-9.218874,5.3530245,8.056685,1.6141041409523577103,-10.878056,18.68076,-0.85532856,5.338342,7.9946856,1.93842081409523577104,-4.5657425,10.864288,-0.96546185,-2.9927673,8.818967,-3.07238221409523577122,-4.9901147,5.4743423,-3.7074213,-3.2139955,8.837612,-2.78158431409523577136,-3.0125043,4.6645036,-8.214506,-3.54581,8.685088,-2.85777431409523577137,0.6811504,6.830059,-7.587225,-3.5555596,8.452754,-3.47553921409523577154,5.195418,15.78557,2.2457612,-3.1237648,8.393654,-3.99488041409523577171,6.8324533,19.608511,3.6822822,-2.237467,8.948576,-3.32973481409523577171,13.424289,19.608511,-0.18555063,-1.3094265,9.395058,-2.48770951409523577184,8.750807,18.276138,0.010773907,-1.3332329,9.392362,-2.48524931409523577185,3.4512417,8.303091,5.591658,0.73065317,9.613091,-1.79583191409523577199,3.690662,6.7013707,2.5091233,0.9869092,9.682177,-1.20494511409523577204,3.9282866,6.6361284,2.4229321,1.2518657,9.681525,-0.93344521409523577220,4.184466,7.7572136,3.50571,1.5345426,9.662335,-0.674419641409523577233,4.823718,9.058462,2.3463178,1.8186332,9.631291,-0.318111421409523577236,4.9841294,9.826403,1.8285716,2.120388,9.574299,-0.0846609851409523577249,4.5118732,10.029909,2.5510218,2.3911388,9.510401,0.07153321409523577256,3.6894648,9.165603,2.4983494,2.5808413,9.4567795,0.281034051409523577270,2.8682537,7.8027034,1.6514006,2.7009394,9.415078,0.481318121409523577282,2.2104468,6.7803793,1.3012487,2.7700546,9.387953,0.6029631409523577284,1.6256629,6.041768,1.1988965,2.8041608,9.3712635,0.69750471409523577311,1.2228385,5.9226565,1.1330559,2.8052325,9.363665,0.789202751409523577312,0.8762778,6.330868,1.0522517,2.7745645,9.365888,0.86738611409523577316,0.1388637,6.901885,1.4508862,2.7015536,9.381757,0.924451771409523577342,-0.545878,8.470686,3.1729157,2.5406175,9.416856,1.01905081409523577342,0.88765025,15.300744,8.759786,2.2634096,9.455246,1.28284381409523577344,1.780089,19.289484,12.969391,2.0297146,9.390919,1.96501711409523577356,1.1504139,15.092449,10.465654,2.2834039,9.337478,1.94112361409523577371,0.557849,10.885837,5.79337,1.718163,9.1187315,3.17286041409523577383,0.4830302,9.628283,2.9053638,1.545606,9.124862,3.24320581409523577384,-0.3645172,9.596559,-4.609437,1.3658838,9.194799,3.12416431409523577402,-2.0518308,9.242217,-8.901642,1.1818969,9.422928,2.44579741409523577404,-2.9700072,7.6369047,-7.965509,0.925662,9.656913,1.43443071409523577417,-2.822764,7.079056,-3.2184057,0.59817046,9.770164,0.597080951409523577434,-3.3303347,7.2867527,1.5239093,0.27834758,9.795964,0.363266921409523577436,-4.0384197,6.247669,4.663306,-0.08085209,9.783421,0.66972181409523577451,-4.1862617,5.0942626,5.4312468,-0.49208152,9.7116995,1.26929871409523577469,-3.015497,5.0900726,4.3394904,-0.907559,9.583593,1.87121651409523577470,-1.4377182,6.1985884,3.2255883,-1.1758589,9.465071,2.28038841409523577484,-0.8026561,7.430405,2.883816,-1.2489262,9.405237,2.48034141409523577484,-0.91697925,8.968679,1.9339164,-1.2355548,9.37667,2.59265571409523577502,-1.2749124,10.338163,0.7918822,-1.2064185,9.394853,2.54001761409523577505,-1.4532804,10.798449,0.22685061,-1.2125032,9.44726,2.33441971409523577522,-1.496376,10.876859,-0.22385786,-1.2347312,9.501564,2.08952741409523577524,-1.1887212,11.185112,-0.55725044,-1.2521876,9.550706,1.84022751409523577536,-0.4985925,12.150574,-1.1210849,-1.2251973,9.59916,1.58915781409523577551,2.2278047,14.23293,-10.1544075,-1.1182798,9.654303,1.30928871409523577593,5.723339,14.770429,-19.569008,-0.7289432,9.778022,0.171309341409523577596,2.6276364,11.783662,-10.618284,-0.7121347,9.770985,0.437183231409523577598,-0.21188685,11.126453,0.53809685,0.14629327,9.546354,-2.23966811409523577599,-0.87807345,12.143391,3.5535939,0.001981822,9.643772,-1.7799061409523577601,-0.5153519,13.623008,5.9890957,-0.15067923,9.737856,-1.14972711409523577607,-0.4201824,15.320497,10.958859,-0.13790917,9.792918,-0.50010761409523577621,-4.234744,13.937246,5.509058,-0.039996497,9.800689,0.33952541409523577634,-8.07265,14.377181,-1.9243397,-0.33420068,9.788814,0.487640321409523577638,-9.8198185,16.633717,-1.316811,-0.9740914,9.756498,0.179618911409523577651,-12.978968,16.229694,-5.4527946,-1.6341,9.669543,-0.006956981409523577669,-12.16434,17.087418,-2.4259248,-2.3940465,9.504615,-0.318179821409523577670,-8.627506,19.190723,2.0488381,-2.915532,9.35483,-0.396521541409523577684,-6.779781,16.143503,1.4981717,-3.0800009,9.307434,-0.235897261409523577685,-4.4723687,12.170326,-0.40521863,-3.1784067,9.275598,-0.177254511409523577698,-4.1293993,10.656591,0.3669114,-3.2389576,9.252632,-0.26139411409523577706,-3.8774097,10.5123415,1.7938557,-3.3171697,9.225076,-0.254393281409523577719,-3.6116533,9.664794,3.5242648,-3.3514645,9.214261,-0.188323021409523577735,-2.955642,9.2547865,9.6767645,-3.395234,9.19974,0.0869838741409523577737,-0.9295488,10.715848,7.897873,-3.3886952,9.169676,0.7772821409523577761,5.99E-04,10.214862,5.119402,-3.2226312,9.174246,1.27210961409523577763,0.5033809,10.414179,4.03004,-3.0237584,9.207024,1.50265561409523577765,0.6847417,12.126033,3.4763808,-2.8040018,9.258411,1.60927821409523577791,0.96067345,16.195578,2.4007857,-2.548815,9.32175,1.66700451409523577792,1.050456,19.608511,-0.7380127,-2.2192485,9.41604,1.60732131409523577796,0.089184016,19.608511,-1.9393034,-1.8712369,9.538933,1.29523681409523577826,0.28909984,19.608511,1.7687165,-1.6325264,9.625263,0.92712481409523577827,2.5629928,19.540876,2.4067712,-1.407482,9.66641,0.86594581409523577828,4.8907557,16.550518,0.57760113,-1.024894,9.710894,0.90473471409523577837,7.848193,14.372393,1.1767502,-0.49507105,9.7563305,0.85982181409523577860,9.618706,13.739126,2.0500352,0.16032822,9.768958,0.843885961409523577861,10.173561,11.563994,2.0931308,0.8081464,9.73314,0.88503281409523577865,9.721656,8.414422,3.4195185,1.4165546,9.6602125,0.91871591409523577888,7.475895,5.6748567,6.2446766,1.9148356,9.552675,1.11810681409523577889,5.3247046,4.759673,7.9445596,2.279819,9.410965,1.55130831409523577897,4.9655743,4.5364137,9.197925,2.523162,9.242715,2.0919531409523577923,2.5629928,3.3770216,3.8283286,2.7599978,9.027119,2.65780521409523577924,-0.037110128,2.7126305,0.8206126,2.856572,8.937313,2.85215951409523577925,-0.682946,2.8814218,2.4073699,2.7398617,8.962991,2.8858881409523577957,-0.6051345,3.3363202,2.5917234,2.5327682,8.961683,3.07306311409523577958,0.4357447,2.7455509,1.0235212,2.353131,8.9514475,3.24110441409523577959,2.0667946,1.6340426,0.6572084,2.328476,8.953368,3.25357871409523577965,2.8880057,0.79008657,0.7266402,2.5269904,8.903393,3.24257561409523577985,3.304597,-0.003591303,1.4389153,2.8583515,8.79353,3.26711441409523577986,4.546589,-0.82121116,-0.717662,3.28898,8.591773,3.39623481409523578005,4.859631,-1.7357962,0.044891283,3.9894607,8.350021,3.24526141409523578007,4.722563,-1.9865888,1.0887632,4.7842207,7.9248934,3.2369241409523578016,4.531027,-1.9548657,1.3359646,5.5388007,7.3502836,3.386061409523578033,4.172495,-0.49559975,1.62686,6.2478805,6.668423,3.55900261409523578037,3.3620577,1.5340848,0.38606504,6.731389,6.1073203,3.68231181409523578048,2.2092497,4.143166,-0.7158663,6.9646893,5.941658,3.5157041409523578074,-0.18614918,7.0365586,-4.2131963,6.860864,6.287709,3.0925181409523578075,-5.9388175,15.237897,-13.469779,6.271424,7.280315,1.95874111409523578077,-16.627731,19.608511,-19.608511,3.975454,8.910037,-0.988614141409523578085,-19.60911,19.608511,-12.215217,4.0978894,8.87855,-0.740962741409523578108,-16.022596,19.608511,-2.0733786,4.1953726,8.85011,-0.494748121409523578108,-9.294291,17.207726,0.39145198,4.2110624,8.853644,-0.224447061409523578120,-6.974908,9.88506,-1.0151415,-3.5656219,8.74514,-2.6418281409523578137,-4.1186256,5.9543796,-4.3394904,-3.861351,8.690605,-2.39451861409523578137,-1.7172412,3.716998,-6.5481415,-3.951783,8.573049,-2.65644051409523578151,1.316811,3.2369606,-5.8987145,-3.8672938,8.423315,