time,acc_x,acc_y,acc_z,gravity_x,gravity_y,gravity_z1409347626747,0.3609259,-9.503185,-0.6572084,0.28643093,-9.777668,-0.696827231409347626747,0.4818331,-9.493608,-0.6781576,0.2874962,-9.777919,-0.69287531409347626760,0.5590461,-9.752182,-0.79846627,0.29928282,-9.777699,-0.69094521409347626777,0.6338649,-10.231023,-0.93493575,0.31903848,-9.776387,-0.700596871409347626777,0.8098387,-10.530297,-1.1097125,0.34370705,-9.774092,-0.720671651409347626794,0.9331401,-11.027095,-1.2144588,0.38166386,-9.770125,-0.75455641409347626798,1.2156559,-10.751163,-1.2270284,0.42623103,-9.765488,-0.78993811409347626814,1.2677298,-10.88823,-1.1917139,0.49308485,-9.759226,-0.827516441409347626815,1.2964603,-11.167754,-1.2497733,0.5568094,-9.753376,-0.855584561409347626828,1.3102269,-10.818799,-1.2952632,0.6163117,-9.7473345,-0.883210841409347626846,1.2773066,-10.432136,-1.3467385,0.6765622,-9.740409,-0.91495211409347626848,1.1336545,-10.286688,-1.3365631,0.7309087,-9.733094,-0.950295271409347626860,0.96665895,-10.128072,-1.2318168,0.76642394,-9.727239,-0.98175891409347626866,0.8182184,-10.02153,-1.0785879,0.7825164,-9.723886,-1.00205761409347626877,0.7230489,-10.101735,-0.9600749,0.78644586,-9.722883,-1.00866731409347626894,0.5722142,-10.115502,-0.9091981,0.7741057,-9.723198,-1.01518771409347626895,0.44472298,-10.036493,-0.90740246,0.762057,-9.723566,-1.02075991409347626910,0.30166942,-9.921572,-0.8882488,0.7508394,-9.723889,-1.02596451409347626927,0.15682021,-9.972448,-0.8972271,0.740572,-9.724226,-1.0302451409347626928,0.04070143,-10.098145,-0.87927055,0.7303157,-9.724532,-1.03466051409347626942,-0.0664391,-10.296863,-0.8499416,0.71966803,-9.724775,-1.03981071409347626948,-0.19393034,-10.227431,-0.74399817,0.70727736,-9.725109,-1.04519641409347626960,-0.26994625,-10.336966,-0.6500258,0.6953852,-9.725379,-1.0506361409347626983,-0.39205053,-10.475231,-0.57161564,0.6842121,-9.725604,-1.05587221409347626984,-0.5057751,-10.394426,-0.47405192,0.67268854,-9.725755,-1.06188111409347626986,-0.56563014,-10.339958,-0.41958386,0.6613637,-9.725925,-1.0674161409347626995,-0.56563014,-10.311228,-0.4237737,0.65033877,-9.72611,-1.0724861409347627021,-0.54049104,-10.335769,-0.4165911,0.63857675,-9.7263365,-1.07750181409347627022,-0.56563014,-10.3226,-0.40462008,0.6266697,-9.726615,-1.08197161409347627028,-0.4914099,-10.313024,-0.43873745,0.6134841,-9.727108,-1.08508251409347627050,-0.427365,-10.280702,-0.4938041,0.60208005,-9.727679,-1.0863551409347627051,-0.33877954,-10.235811,-0.5955577,0.5916011,-9.728535,-1.08446531409347627055,-0.1945289,-10.15381,-0.6817489,0.5826327,-9.7294855,-1.08076811409347627093,-0.08379706,-10.0508585,-0.736217,0.5767492,-9.730217,-1.07733121409347627095,0.006584055,-9.973047,-0.7769185,0.57266575,-9.730604,-1.07600781409347627097,0.035314474,-9.883863,-0.7954735,0.5702394,-9.730605,-1.07729261409347627098,0.016759412,-9.779716,-0.7846996,0.56865853,-9.730426,-1.07974641409347627129,-0.019153614,-9.705495,-0.741604,0.56755704,-9.730167,-1.0826451409347627129,-0.032920275,-9.702502,-0.6889315,0.56674135,-9.729963,-1.08489431409347627130,-0.076015905,-9.729437,-0.5979519,0.56489074,-9.729942,-1.08605641409347627145,-0.14185645,-9.794081,-0.47644615,0.5596832,-9.7302475,-1.08602241409347627148,-0.25558102,-9.915586,-0.3788824,0.55118984,-9.73089,-1.08458971409347627161,-0.34237084,-9.768942,-0.2801216,0.53873193,-9.731886,-1.08192091409347627176,-0.39983168,-9.792285,-0.20649989,0.5224016,-9.733224,-1.07788831409347627176,-0.39983168,-9.730635,-0.18854338,0.50373685,-9.735007,-1.07064891409347627192,-0.39384618,-9.667188,-0.20290859,0.48220807,-9.737192,-1.06063781409347627195,-0.35194764,-9.755175,-0.25318682,0.45744917,-9.739581,-1.04961311409347627209,-0.31483752,-9.870096,-0.37110126,0.42992082,-9.741961,-1.03912681409347627216,-0.22325931,-9.986814,-0.49440265,0.400344,-9.744042,-1.03138421409347627246,-0.061052144,-10.1065235,-0.7433996,0.37010437,-9.745686,-1.0271471409347627247,0.30526072,-10.326791,-0.8571242,0.34110448,-9.746562,-1.02885621409347627250,0.4285621,-10.389638,-0.94810385,0.31774756,-9.746909,-1.03304421409347627271,0.4758476,-10.462662,-1.0324994,0.29542965,-9.74676,-1.0410471409347627272,0.52373165,-10.4249525,-1.1282675,0.2757871,-9.746181,-1.05181441409347627275,0.55365914,-10.348937,-1.168969,0.25987697,-9.745232,-1.0645711409347627292,0.54168814,-10.346542,-1.1923125,0.24801469,-9.744183,-1.07692671409347627295,0.5279215,-10.315418,-1.2012907,0.23952363,-9.7431555,-1.0881081409347627309,0.51714754,-10.253767,-1.1647792,0.23450258,-9.74214,-1.09825231409347627327,0.49081135,-10.278308,-1.1246762,0.2334148,-9.741071,-1.10792271409347627328,0.47345337,-10.313622,-1.0684125,0.2324816,-9.74002,-1.11729431409347627343,0.46028528,-10.183139,-1.0307038,0.23476008,-9.738967,-1.12596691409347627346,0.45130703,-9.996989,-0.943914,0.23875967,-9.737856,-1.13470661409347627362,0.43754035,-9.878476,-0.8726865,0.24428427,-9.736852,-1.14213361409347627376,0.46208093,-9.746197,-0.8158242,0.25107437,-9.736039,-1.14756911409347627376,0.4985925,-9.593566,-0.7739257,0.25799188,-9.735316,-1.15214931409347627392,0.50278234,-9.424176,-0.7044938,0.2640902,-9.734609,-1.15674261409347627395,0.47764325,-9.36911,-0.6871359,0.269673,-9.733942,-1.16104051409347627412,0.43754035,-9.504382,-0.7290344,0.27349663,-9.73327,-1.16579091409347627425,0.33279404,-9.803658,-0.8439561,0.2757862,-9.73256,-1.17116271409347627428,0.19093758,-10.012551,-0.96426475,0.2768728,-9.731979,-1.17573311409347627442,0.06584055,-10.139444,-1.050456,0.27747136,-9.73178,-1.17721711409347627460,-0.0676362,-10.221446,-1.1438298,0.27853608,-9.732162,-1.17381641409347627460,-0.16879122,-10.269928,-1.1611878,0.2796978,-9.733143,-1.16537711409347627476,-0.32202014,-10.324396,-1.1875241,0.2805448,-9.734453,-1.15416781409347627477,-0.5303157,-10.392631,-1.1899183,0.27976388,-9.73636,-1.1381671409347627495,-0.7248446,-10.4171715,-1.2150574,0.27835926,-9.738675,-1.11853811409347627496,-0.93014735,-10.475829,-1.2150574,0.27651772,-9.741249,-1.09635561409347627509,-1.1019313,-10.654796,-1.2623428,0.27254122,-9.7442665,-1.07024731409347627525,-1.2300211,-10.85531,-1.2904748,0.26575667,-9.747766,-1.039631409347627526,-1.2749124,-10.960655,-1.3090298,0.25607845,-9.751727,-1.00429931409347627540,-1.216853,-10.915764,-1.2324153,0.24270898,-9.755985,-0.96554481409347627556,-1.1821371,-10.911574,-1.1270704,0.22792175,-9.760164,-0.9260961409347627557,-1.0348936,-10.922947,-1.062427,0.21064445,-9.764013,-0.88886081409347627584,-0.7284359,-10.726623,-1.0498575,0.19181436,-9.766961,-0.86027011409347627585,-0.32202014,-10.411784,-1.1504139,0.1719681,-9.768608,-0.84565471409347627587,0.013766659,-10.038289,-1.4814123,0.15103929,-9.768766,-0.84780051409347627596,0.10534488,-9.653421,-1.8537107,0.13120529,-9.767217,-0.868711771409347627621,0.030526072,-9.426571,-2.0907366,0.11497692,-9.763969,-0.90667821409347627622,-0.11312603,-9.288904,-2.1230583,0.10386808,-9.759264,-0.95727031409347627629,-0.12090719,-9.07582,-1.602918,0.09439766,-9.753921,-1.01119141409347627653,0.11372458,-8.796896,-0.91219085,0.086935945,-9.748367,-1.06402921409347627654,-0.049679685,-9.048885,-0.7870938,0.08188509,-9.743091,-1.11169761409347627655,-0.46148238,-9.290101,-0.7954735,0.07777473,-9.737657,-1.15862241409347627689,-0.86490536,-9.762358,-0.8858546,0.0782631,-9.731929,-1.20575821409347627690,-1.0654198,-10.277111,-1.4682442,0.08321195,-9.7259655,-1.25264561409347627691,-0.7092823,-10.070611,-1.5849615,0.087523095,-9.719542,-1.30125621409347627695,-0.6099229,-10.094553,-1.5801731,0.09282763,-9.713057,-1.3484611409347627721,-0.6560113,-10.189124,-1.5520413,0.09728929,-9.706975,-1.39124921409347627722,-1.009156,-10.290877,-1.6214731,0.09952216,-9.7006855,-1.43430451409347627729,-1.2521675,-10.205883,-1.6891093,0.09823387,-9.693137,-1.48452661409347627750,-0.48123455,-9.827001,-1.1486182,0.09296441,-9.683337,-1.54749071409347627751,0.13706805,-9.555858,-0.5895722,0.09026392,-9.671421,-1.62044791409347627756,0.20231004,-9.64983,-0.48003745,0.083626084,-9.6566515,-1.70660051409347627812,0.23403321,-9.781511,-0.6440403,0.07561054,-9.639276,-1.80250721409347627815,0.32680854,-9.67018,-0.6955156,0.074252404,-9.620627,-1.89957691409347627817,0.40821138,-9.607931,-0.74878657,0.07970599,-9.602047,-1.99116041409347627818,0.41838676,-9.743204,-0.99658644,0.090364166,-9.583704,-2.07723241409347627819,0.37229836,-9.76116,-1.1474211,0.10322423,-9.564699,-2.1624721409347627831,0.4297592,-9.65821,-1.2360066,0.11970775,-9.544285,-2.25004391409347627831,0.59017074,-9.61272,-1.2306197,0.14270313,-9.522233,-2.34032061409347627835,0.7374141,-9.66659,-1.1360487,0.17116818,-9.498904,-2.4314411409347627858,0.96426475,-9.803658,-0.98102415,0.19983606,-9.475386,-2.51943731409347627858,1.2156559,-10.005369,-0.7751228,0.2356579,-9.453185,-2.59849261409347627884,1.501763,-10.125079,-0.6775591,0.27521834,-9.43483,-2.6605691409347627885,1.6184803,-10.019734,-0.44831428,0.31865826,-9.421872,-2.70132521409347627887,1.5334862,-10.006566,-0.3477578,0.3650304,-9.415511,-2.71758841409347627896,1.2952632,-10.293272,-0.55126494,0.41508216,-9.415588,-2.7101271409347627930,1.043872,-10.518327,-0.95708215,0.4690236,-9.4208555,-2.682891409347627930,0.50038815,-10.754155,-1.3090298,0.527332,-9.429206,-2.64242081409347627931,-0.2693477,-11.068993,-1.7100586,0.58483315,-9.438167,-2.59796671409347627935,-0.75956047,-11.279683,-2.1637597,0.6401909,-9.448628,-2.54637151409347627947,-0.9576807,-11.501745,-2.6372132,0.6987778,-9.45952,-2.48989921409347627960,-1.2599486,-11.62744,-3.1489737,0.75676733,-9.470953,-2.4287381409347627985,-2.4061728,-12.106879,-3.2812533,0.80452335,-9.482001,-2.36956121409347627986,-3.2208,-12.593501,-3.6715083,0.8260674,-9.490136,-2.32923031409347627988,-3.4931402,-12.598887,-3.406949,0.8249644,-9.489648,-2.3316181409347627996,-3.843891,-12.364855,-2.9987376,0.82354605,-9.486377,-2.34538771409347628012,-4.1880574,-12.166136,-2.2397757,0.79981536,-9.479573,-2.38083481409347628031,-4.179079,-11.83813,-2.621651,0.7569766,-9.472727,-2.42174321409347628031,-3.5033157,-10.997766,-2.597709,0.70019877,-9.464192,-2.47167061409347628036,-3.1489737,-10.976217,-1.8956091,0.64139295,-9.453427,-2.52819281409347628061,-3.8881836,-12.44087,-0.39983168,0.5795666,-9.43908,-2.59581971409347628061,-4.964976,-14.143746,0.6985083,0.5089602,-9.422054,-2.67137841409347628087,-6.131551,-15.572487,0.9696517,0.4297133,-9.402898,-2.75159961409347628088,-6.8863225,-16.204556,1.3694834,0.33493572,-9.385183,-2.82428721409347628090,-6.4260373,-15.608998,3.7163997,0.23063335,-9.367356,-2.89306711409347628096,-4.684854,-14.722545,9.882068,0.13706687,-9.355724,-2.9363271409347628119,-2.2272062,-14.147937,15.92204,0.05502543,-9.371461,-2.88844251409347628120,-0.2136825,-13.752295,15.030798,-0.007073007,-9.429154,-2.6946951409347628127,0.16400282,-13.368624,6.930017,-0.039325174,-9.494623,-2.45377611409347628144,-0.7685388,-12.448053,-2.2798786,-0.0735387,-9.548738,-2.23307471409347628160,-1.6645688,-14.056358,-4.97156,-0.13858604,-9.587213,-2.05828641409347628161,-1.7357962,-14.3694,-4.9069166,-0.2348153,-9.631116,-1.83218381409347628175,-1.3862427,-13.64695,-4.753089,-0.3590534,-9.671408,-1.58284261409347628176,-0.6290765,-13.442844,-3.9480386,-0.49589172,-9.701429,-1.34414671409347628193,-0.48841715,-14.13836,-2.9215245,-0.6390394,-9.72137,-1.12114811409347628196,0.7074866,-15.015835,-2.0512323,-0.79561144,-9.732356,-0.904793141409347628224,2.7760768,-15.324687,-2.409764,-0.94979316,-9.736223,-0.68865971409347628224,4.1132383,-15.098434,-3.6224272,-1.0882372,-9.734306,-0.478940281409347628263,4.0958805,-14.3574295,-3.9456444,-1.209541,-9.727472,-0.289252431409347628267,3.228581,-13.427281,-3.1609447,-1.3237224,-9.7161665,-0.119413731409347628270,1.9758149,-13.1315975,-3.0711622,-1.422565,-9.702881,0.0286801511409347628271,0.5883751,-12.532449,-3.4859576,-1.5049548,-9.689286,0.152461421409347628272,-1.0899603,-12.085332,-4.0701427,-1.5880443,-9.673476,0.269006341409347628276,-2.373851,-11.874043,-2.906561,-1.6935174,-9.651735,0.382612821409347628293,-2.6922798,-12.13561,-2.4001873,-1.8252766,-9.622004,0.50577921409347628310,-1.2018893,-11.438897,-3.1902738,-1.9744167,-9.585172,0.629735231409347628311,0.58298814,-10.486005,-3.4117374,-2.1201138,-9.545013,0.75380881409347628336,2.160767,-9.872491,-2.8107927,-2.2772346,-9.496818,0.89166071409347628337,2.6779146,-9.000402,-2.9346926,-2.4345703,-9.443401,1.03220311409347628338,2.5617957,-8.021772,-6.815095,-2.5792844,-9.389591,1.16330211409347628369,2.698864,-6.919243,-5.763442,-2.703536,-9.342711,1.2549961409347628370,1.9961656,-6.047155,-4.245518,-2.8339276,-9.291641,1.34338391409347628371,1.0821792,-5.3941364,-3.6822822,-2.9843295,-9.232152,1.42531571409347628376,0.7182605,-4.8320975,-2.795829,-3.1277916,-9.166694,1.53591491409347628392,0.42197806,-4.7381253,-1.2719196,-3.2645679,-9.100172,1.64311851409347628412,0.66618663,-4.7578773,-1.1468226,-3.3846037,-9.034899,1.7565521409347628413,1.4957775,-4.642956,-1.6406267,-3.4874585,-8.9737215,1.86556891409347628416,2.385822,-4.462792,-1.6178818,-3.5740023,-8.916503,1.97304141409347628427,3.0172927,-4.2060137,-1.9937714,-3.652281,-8.864046,2.0639581409347628446,3.5063083,-4.048595,-1.7711107,-3.7240095,-8.819715,2.12480191409347628450,3.8247373,-3.5655649,-2.0829554,-3.7837207,-8.78355,2.1686611409347628456,3.9977183,-3.0992942,-2.4774003,-3.8376293,-8.754174,2.19258621409347628481,4.006098,-2.806603,-2.8880057,-3.873936,-8.7362,2.20041041409347628482,3.7481227,-2.6168625,-2.9472623,-3.8941884,-8.73061,2.18681171409347628488,3.6721067,-2.3415294,-2.6001031,-3.8987,-8.737223,2.15208861409347628514,3.7672763,-2.180519,-2.3133974,-3.8860605,-8.754881,2.10261131409347628516,4.0563765,-2.1517887,-2.1823149,-3.8537266,-8.783068,2.0437511409347628517,4.3101616,-2.7617116,-2.0524294,-3.7969954,-8.823796,1.97328161409347628529,4.380192,-4.111443,-1.3030443,-3.7235959,-8.87232,1.89397551409347628555,4.2718544,-5.769428,1.258153,-3.6150272,-8.9386,1.78981181409347628557,-2.6725276,-13.479954,14.989498,-3.4586082,-9.025463,1.65814241409347628558,-15.170859,-19.608511,18.459295,-3.231058,-9.10665,1.6731981409347628581,-19.595345,-19.608511,4.9943047,-3.0074923,-9.215739,1.48172911409347628582,-19.60911,-19.608511,4.018069,-2.8135133,-9.293736,1.37150061409347628589,-18.179174,-17.995419,5.549161,-2.7514384,-9.330774,1.2396121409347628613,-8.7532015,-6.1836243,7.08564,-2.8720615,-9.317403,1.05244981409347628614,-4.909311,-6.9228344,5.964555,-4.497335,-8.391675,2.35035371409347628618,-0.5482722,-6.2674217,1.5448587,-4.5610304,-8.249619,2.70392061409347628644,3.8498764,-7.533954,-4.271256,-4.2948713,-8.376937,2.74798581409347628645,7.7224975,-13.424888,-7.513005,-3.706792,-8.782236,2.30269841409347628661,7.583634,-12.246941,-6.4577603,-2.619161,-9.343404,1.41816821409347628661,5.81372,-9.400833,-4.174889,-1.6085947,-9.650898,0.665581051409347628677,3.4793737,-9.431359,-2.5438392,-0.8531826,-9.767496,0.196237441409347628678,1.3491327,-12.25951,-0.3429694,-0.3984186,-9.79826,-0.075923551409347628690,-0.34715924,-15.96334,1.7705121,-0.16164368,-9.804676,-0.112154561409347628721,0.4249708,-15.503654,-0.2136825,-0.118760675,-9.805813,0.048158761409347628721,1.1432313,-13.884574,-0.24480712,-0.04583806,-9.806545,-6.26E-041409347628722,1.6591818,-11.839926,-0.19871874,0.04758812,-9.806479,-0.0331663561409347628729,2.8981812,-9.121908,-0.8571242,0.16231091,-9.805171,-0.0515916571409347628748,4.2000284,-7.2460513,-1.460463,0.38808537,-9.797873,-0.146565361409347628749,4.4514194,-7.152079,-2.236783,0.73360014,-9.774507,-0.302096131409347628758,4.1036615,-7.701548,-2.9855695,1.1019694,-9.731885,-0.49644851409347628776,3.5362358,-8.103774,-3.4440591,1.4320726,-9.672187,-0.75389711409347628776,3.3566709,-7.9667063,-3.1483753,1.6989444,-9.603813,-1.02506211409347628792,3.4745853,-7.5710645,-2.191293,1.9171625,-9.537472,-1.23753811409347628807,3.1854854,-7.571663,-1.2366052,2.1138196,-9.482205,-1.33789471409347628810,2.8550856,-8.1079645,-0.6512229,2.258826,-9.447919,-1.34347921409347628823,2.778471,-9.217078,-0.7230489,2.358842,-9.430682,-1.29170921409347628836,2.7341783,-10.316016,-1.0319009,2.417504,-9.422391,-1.24282281409347628837,2.428319,-11.299435,-1.400608,2.4548979,-9.4189005,-1.19507311409347628854,1.7938557,-12.163143,-1.7633295,2.4336202,-9.426823,-1.17597391409347628856,1.0696096,-12.384008,-2.321777,2.3389606,-9.450158,-1.18075881409347628878,0.58897364,-11.590929,-2.6144683,2.1816735,-9.4812765,-1.23129831409347628879,0.31304187,-10.483012,-2.56419,2.0062084,-9.509573,-1.30902281409347628888,0.21547815,-9.768343,-2.7449522,1.8330702,-9.533224,-1.38849681409347628908,0.37828386,-9.384073,-3.6134489,1.6704801,-9.547168,-1.49380651409347628909,0.5554548,-9.046491,-4.208408,1.5383507,-9.537303,-1.68633521409347628923,0.8936358,-8.665813,-5.365406,1.4275082,-9.510952,-1.91687821409347628942,-0.85293436,-9.512163,-7.9553337,1.3484021,-9.450481,-2.2451331409347628943,-5.8801594,-11.498753,-7.007828,1.0856688,-9.348211,-2.75729041409347628960,-7.6728177,-11.531074,-3.7349546,0.37805736,-9.304831,-3.07368731409347628961,-7.133524,-11.326968,-2.1470003,-0.41373104,-9.286075,-3.12539171409347628968,-5.8292828,-10.606912,-0.5482722,-1.0564508,-9.248702,-3.08476921409347628976,-3.9103298,-9.091382,0.19393034,-1.4512483,-9.257705,-2.89122131409347628992,-2.5917234,-8.591593,0.74998367,-1.7103789,-9.274358,-2.6891031409347629009,-2.0919337,-9.058462,0.47345337,-1.7939842,-9.324337,-2.45127921409347629010,-2.4187422,-10.089765,0.25019407,-1.7945155,-9.380086,-2.22802281409347629028,-2.967613,-11.712435,1.5053543,-1.8026507,-9.42661,-2.01491241409347629028,-3.3554738,-12.826936,2.4235306,-1.8485271,-9.481648,-1.68868551409347629036,-2.598906,-12.519879,2.11827,-1.9325916,-9.518668,-1.35293611409347629063,-1.7956513,-11.938686,3.3752258,-1.9712896,-9.535581,-1.16493341409347629063,-1.3431472,-11.24377,9.029732,-1.9363399,-9.574286,-0.86833711409347629069,-1.0408791,-11.279683,14.8512335,-1.9059511,-9.619192,-0.094210321409347629078,-0.12569559,-11.200674,12.141596,-1.8373893,-9.5608635,1.1765621409347629101,-0.7374141,-10.973824,4.156334,-1.6640772,-9.423602,2.14405851409347629102,-2.2679076,-11.340137,-1.1953052,-1.5568148,-9.373288,2.42655751409347629112,-2.9484594,-11.779472,-4.9278655,-1.591581,-9.406906,2.2687881409347629134,-3.1142578,-11.965622,-7.727885,-1.6566266,-9.503729,1.7621331409347629136,-1.8489223,-11.296442,-7.00723,-1.7089688,-9.60708,0.976630871409347629137,-0.40581718,-10.745776,-4.4023385,-1.6703085,-9.658733,0.298873071409347629166,0.50517654,-10.639234,-2.629432,-1.5354809,-9.684047,-0.178655611409347629172,-0.64823014,-11.537658,-0.8846575,-1.3499227,-9.702131,-0.465543061409347629173,-2.0123265,-12.36246,-0.7787141,-1.2632965,-9.710551,-0.528836251409347629202,-2.574964,-13.538013,-0.023343466,-1.275567,-9.708684,-0.53363811409347629203,-2.9418752,-13.348273,1.2036849,-1.3161852,-9.707348,-0.453221321409347629204,-3.4099417,-12.004527,1.7561469,-1.3958722,-9.702794,-0.27876551409347629209,-4.3885717,-11.912351,1.2731167,-1.5273902,-9.686429,-0.102770641409347629227,-5.692813,-12.818556,1.8555063,-1.7417378,-9.650731,0.0116886841409347629230,-6.757634,-14.061745,3.1184478,-2.0158281,-9.596116,0.146181331409347629237,-7.176021,-15.0900545,3.9881415,-2.3080242,-9.524046,0.368716981409347629255,-6.1728506,-14.895526,5.774216,-2.575741,-9.440848,0.63746441409347629257,-4.9081135,-14.964359,10.780492,-2.7494802,-9.359034,1.00957571409347629270,-3.2944214,-13.818135,7.2646065,-2.8115523,-9.243738,1.67895051409347629277,-1.484405,-11.653178,-0.688333,-2.7903018,-9.182811,2.01508931409347629290,-1.0450691,-12.435484,-1.7004818,-2.6994147,-9.245787,1.84363321409347629305,-1.0372878,-13.256096,-3.4195185,-2.5727494,-9.317774,1.65241181409347629309,-0.51355624,-13.892355,-5.355231,-2.422465,-9.410639,1.31982121409347629321,-0.06943185,-14.225149,-5.497087,-2.2377665,-9.510719,0.84203071409347629339,0.5117606,-13.571532,-5.556942,-2.0576386,-9.581573,0.360555321409347629340,0.54288524,-13.633781,-5.3384714,-1.8612729,-9.627986,-0.0892190861409347629353,0.46088383,-14.945206,-5.490503,-1.671398,-9.652108,-0.462189081409347629357,1.18094,-17.73864,-5.2995653,-1.4925927,-9.660849,-0.781398831409347629370,2.5923219,-19.608511,-1.8962077,-1.2638491,-9.670804,-1.02402751409347629390,4.8638206,-19.608511,2.682703,-0.97049576,-9.709403,-0.97775551409347629390,6.326678,-19.331982,2.8173769,-0.5629463,-9.769762,-0.63656191409347629403,3.916914,-15.305532,-1.8818425,-0.10012539,-9.800678,-0.327211261409347629423,1.2042835,-13.252505,-5.0798974,0.18253858,-9.797344,-0.386124641409347629423,0.011372458,-12.21821,-7.059902,0.282761,-9.778331,-0.688980041409347629438,0.22804771,-10.399215,-7.2711906,0.2863035,-9.7378845,-1.12339091409347629438,1.276708,-8.963891,-5.313332,0.2888773,-9.682454,-1.52872651409347629453,2.4313118,-8.069058,-5.6539073,0.3429089,-9.633901,-1.80020821409347629457,3.8486793,-6.859388,-4.5423994,0.48317108,-9.572117,-2.07642051409347629470,2.9472623,-5.7059813,-4.1784806,0.73692983,-9.508002,-2.28587061409347629485,2.066196,-5.519832,-6.2446766,0.9415316,-9.434837,-2.50354581409347629489,1.2946646,-5.7161565,-8.47308,1.0830414,-9.320552,-2.85038421409347629502,-0.19393034,-5.903503,-0.90979666,1.1404475,-9.149805,-3.3392891409347629508,-0.91219085,-5.7257333,-0.39564183,1.0346876,-9.191383,-3.25857111409347629525,-0.4297592,-5.609016,-0.8265981,0.85386676,-9.237461,-3.17972021409347629546,0.7092823,-5.3103395,-0.45130703,0.69275594,-9.268821,-3.12721251409347629547,1.5825673,-4.631583,-0.8595184,0.68323493,-9.309343,-3.0066111409347629549,2.6042929,-3.5248635,-1.1923125,0.81179845,-9.322833,-2.9319171409347629557,3.402759,-2.7431567,-1.9829975,1.0804882,-9.297014,-2.9271981409347629578,3.8965633,-2.4133554,-2.6300306,1.4578041,-9.2111635,-3.0331011409347629579,4.8542438,-1.9237411,-3.3028011,1.9055882,-9.065677,-3.2175531409347629591,5.820903,-1.7399861,-3.4865563,2.4732323,-8.827136,-3.48355531409347629610,6.9252286,-1.6286557,-3.6697125,3.1508365,-8.493029,-3.7564811409347629611,7.5201874,-2.019509,-3.2704794,3.9225023,-8.045815,-4.0061531409347629617,7.881712,-2.694674,-2.172738,4.6677237,-7.568789,-4.1347521409347629646,8.686164,-3.1082723,-0.45250413,5.34224,-7.151603,-4.06023171409347629647,7.9032598,-4.1401734,2.6060886,6.0171747,-6.785001,-3.73198871409347629651,5.3205147,-6.1524997,6.3177,6.546802,-6.6411924,-3.03387211409347629657,0.095169514,-8.701127,12.808979,6.7206316,-6.884671,-1.89862481409347629676,-10.111312,-14.273033,19.608511,6.245337,-7.5604305,0.0777823251409347629677,-14.845247,-19.021334,16.750433,6.403858,-7.4244323,-0.196910811409347629689,-19.484612,-19.608511,6.9611416,6.559349,-7.2766056,-0.44312021409347629711,-19.595345,-19.608511,4.7638626,6.680689,-7.154829,-0.58925361409347629713,-12.732964,-19.05186,5.6616883,6.771273,-7.0625453,-0.663870751409347629717,-9.227852,-12.736554,5.7083755,6.8051376,-7.025728,-0.70684771409347629745,-6.579865,-9.218275,6.8970966,-3.5734084,-8.5516815,3.20466521409347629746,-3.779846,-7.969699,6.4248405,-3.7382128,-8.38859,3.43914561409347629749,1.3856442,-7.6009917,4.710592,-3.7141447,-8.280091,3.71693541409347629757,7.431602,-11.6430025,-1.6561891,-3.3383074,-8.338067,3.9373511409347629781,9.159617,-12.014703,-7.6081743,-2.4833326,-8.777758,3.59922431409347629782,6.6546836,-11.663354,-7.8691425,-1.5300866,-9.296045,2.72263981409347629790,1.8082209,-13.430274,-2.0069396,-0.7905279,-9.609661,1.78881411409347629813,-2.6557682,-13.066955,1.3664906,-0.485439,-9.694828,1.39464821409347629814,-1.4730326,-9.461287,-5.2917843,-0.6307982,-9.693606,1.34406081409347629818,0.09636662,-9.075222,-4.256292,-0.6937164,-9.754182,0.738285061409347629853,0.047884032,-9.4535055,-0.24121583,-0.61727995,-9.782,0.319167671409347629854,0.08678981,-8.874108,-0.22984336,-0.5330545,-9.786649,0.328275081409347629855,1.299453,-9.750985,-2.3882163,-0.4567951,-9.792507,0.261800921409347629859,3.465607,-9.519346,-3.6595373,-0.26644117,-9.802638,-0.087771811409347629876,5.1786585,-8.823232,-4.5765166,0.09318858,-9.7941675,-0.485783281409347629878,5.3444567,-9.388862,-5.3037553,0.57927597,-9.751106,-0.8664831409347629893,4.982932,-10.268132,-4.7159786,1.0524629,-9.665806,-1.27862181409347629916,4.63697,-10.043077,-3.1866825,1.4539506,-9.566533,-1.59306241409347629968,3.9713821,-9.388264,-1.8100165,2.151469,-9.413426,-1.71143571409347629969,3.3267434,-8.887277,-0.94930094,2.151469,-9.413426,-1.71143571409347629970,2.7114334,-8.826224,-0.3417723,2.151469,-9.413426,-1.71143571409347629971,2.3475149,-8.962095,-0.05746084,2.2269952,-9.415485,-1.5998541409347629971,2.6479871,-9.247604,-0.37948096,2.2550962,-9.431527,-1.4598791409347629972,2.5929205,-10.013748,-0.59974754,2.2985249,-9.4358425,-1.36089791409347629973,2.6013002,-9.937733,-0.90620536,2.3229766,-9.443408,-1.26340841409347629996,2.304419,-10.051457,-1.5316905,2.3481283,-9.445412,-1.20036951409347629997,1.6047137,-10.548853,-2.4744074,2.345767,-9.445644,-1.20314541409347629998,1.0767922,-10.7990465,-3.5284548,2.2698207,-9.452617,-1.29087281409347630025,0.94690675,-10.705074,-4.301183,2.1451523,-9.456049,-1.46691381409347630026,0.57520694,-10.442909,-4.271256,2.0123177,-9.445942,-1.70151521409347630030,-0.31483752,-10.3453455,-3.0430303,1.848164,-9.436865,-1.92361011409347630037,-1.1001357,-10.008362,-1.9596541,1.6224223,-9.458016,-2.02090741409347630055,-1.8010383,-9.546879,-0.5734113,1.354952,-9.499087,-2.02529721409347630058,-2.1763294,-9.332,0.29209262,1.0429744,-9.559367,-1.92381361409347630072,-3.0998926,-10.095152,1.0755951,0.72157127,-9.618955,-1.76787951409347630086,-4.1042604,-10.077793,0.48602295,0.35427696,-9.678898,-1.53747791409347630089,-5.0439844,-10.325593,-1.5424645,-0.05921382,-9.712435,-1.35481421409347630101,-5.2020016,-10.64881,-2.0201077,-0.52719814,-9.698911,-1.35039941409347630129,-5.3139305,-10.932524,-1.3545196,-0.97089875,-9.658721,-1.39172091409347630132,-4.923676,-10.443508,-1.3084313,-1.3711224,-9.616125,-1.34928291409347630133,-4.047398,-9.362526,-1.1875241,-1.7130954,-9.563337,-1.33350311409347630153,-3.1992521,-8.500613,-1.0372878,-1.9578202,-9.515184,-1.34112581409347630155,-2.381632,-8.024167,-0.7553706,-2.1088212,-9.478396,-1.37232771409347630171,-1.797447,-8.180388,-0.25797522,-2.17002,-9.460813,-1.3980151409347630172,-1.8567034,-8.884883,0.27234045,-2.1587708,-9.467316,-1.3711511409347630184,-1.8656816,-9.879673,0.5895722,-2.1295958,-9.486797,-1.2790181409347630191,-1.6831238,-11.154586,0.6087258,-2.091743,-9.514063,-1.13030641409347630203,-1.4867992,-12.232575,1.0552444,-2.008348,-9.547652,-0.989586231409347630221,-1.5735891,-12.969989,1.2689269,-1.9044337,-9.586565,-0.80079911409347630221,-1.4024036,-13.185468,1.5478514,-1.8142034,-9.618079,-0.60961951409347630237,-0.89064306,-13.348871,1.7513585,-1.7242669,-9.645033,-0.41306411409347630238,-0.09995792,-13.383588,1.965041,-1.6094936,-9.671064,-0.22458151409347630252,0.6985083,-12.503718,2.2505496,-1.4496251,-9.698815,-0.0441097771409347630274,1.2348095,-11.845313,3.8432922,-1.255256,-9.725138,0.12813071409347630274,2.0817583,-11.335946,8.156446,-1.0401541,-9.742737,0.409354721409347630278,2.64679,-10.5841675,13.157934,-0.79065615,-9.722465,1.00941851409347630289,0.664391,-10.943297,11.736377,-0.5383283,-9.5929785,1.96350151409347630304,-2.380435,-12.101493,3.6924577,-0.47112846,-9.4107895,2.71761821409347630325,-4.1533413,-13.22138,-2.0177135,-0.6227301,-9.36497,2.84251931409347630327,-5.518635,-13.793594,-8.321048,-0.8663503,-9.421168,2.58096931409347630330,-6.7444663,-13.092093,-11.382035,-1.1542679,-9.56929,1.80740371409347630338,-5.100847,-12.480973,-7.4866686,-1.5273136,-9.656667,0.765834751409347630360,-6.1405287,-12.707824,-4.5244427,-1.7610925,-9.647139,0.0408645121409347630361,-7.382521,-13.315352,-3.9025488,-2.0591764,-9.578945,-0.417115421409347630371,-8.51019,-13.102867,-2.486977,-2.4047284,-9.479225,-0.72934771409347630390,-9.290101,-13.383588,2.7246015,-2.7797983,-9.366609,-0.842484831409347630390,-8.463503,-14.6998,10.315418,-3.154456,-9.270426,-0.52819331409347630405,-4.695628,-15.596429,8.943541,-3.3904357,-9.196995,0.301034031409347630427,0.65242,-13.397354,2.148796,-3.3480814,-9.171986,0.914021551409347630427,0.86729956,-15.2097645,-1.5101427,-3.0354578,-9.273483,0.979236071409347630431,0.6823475,-15.481506,-5.104438,-2.7194142,-9.380574,0.8831741409347630438,0.8242039,-14.4130945,-5.765238,-2.418277,-9.488369,0.541473031409347630461,0.7062895,-12.782044,-5.975329,-2.1372302,-9.56967,0.155133281409347630462,0.45908818,-12.178705,-6.417059,-1.9345956,-9.609837,-0.280689751409347630470,0.03172317,-13.671491,-6.541558,-1.7730241,-9.616951,-0.73555011409347630487,0.65541273,-17.167624,-5.3863554,-1.6291934,-9.606596,-1.10878721409347630505,2.6426,-19.608511,-4.2060137,-1.426049,-9.613902,-1.30755391409347630506,6.108207,-19.608511,-0.9127894,-1.1102476,-9.64696,-1.36889591409347630522,8.081029,-19.608511,2.0506337,-0.62112814,-9.712421,-1.20558931409347630523,5.5551467,-17.368137,1.6065093,-0.04823416,-9.767355,-0.87567341409347630539,2.4241292,-14.534001,-1.9129672,0.33998892,-9.778608,-0.65848731409347630540,0.16759412,-13.483545,-6.75943,0.51978785,-9.764705,-0.742132961409347630555,0.7015011,-11.668142,-7.6602483,0.52497166,-9.725968,-1.1403281409347630569,3.582923,-9.0315275,-5.163096,0.54008245,-9.664386,-1.57427881409347630570,5.036802,-7.317279,-3.4099417,0.745854,-9.608104,-1.81614461409347630585,4.8841715,-6.083068,-2.5737667,1.0010602,-9.555766,-1.96356981409347630589,3.3961751,-5.3145294,-3.857059,1.2645214,-9.510886,-2.0284121409347630600,2.2601264,-5.5324016,-6.749853,1.4581735,-9.448175,-2.18543431409347630621,1.2844892,-6.2488666,-7.4812818,1.5706698,-9.334947,-2.56166891409347630621,1.0594343,-5.989694,-5.09546,1.5946947,-9.2104645,-2.96558281409347630632,1.0498575,-5.2929816,-1.3862427,1.5867702,-9.126078,-3.21982311409347630638,0.30585927,-4.959589,-0.91937345,1.5569012,-9.134575,-3.21031409347630654,0.52073884,-4.3418846,-0.8870517,1.4811472,-9.157081,-3.18189981409347630667,0.9828198,-3.8965633,-2.0266917,1.430006,-9.175973,-3.15071271409347630671,1.7956513,-3.341707,-2.598906,1.4531244,-9.147437,-3.2223011409347630683,2.7365725,-2.6330233,-2.1380222,1.5854568,-9.075239,-3.36106511409347630701,3.5936968,-2.1027076,-2.3930047,1.8489921,-8.981479,-3.4762991409347630702,4.0240545,-1.6172832,-2.432509,2.2260635,-8.829916,-3.6397291409347630721,4.6375685,-1.4137762,-2.0129251,2.6754572,-8.627635,-3.81788091409347630722,5.2522798,-1.204882,-1.401805,3.213007,-8.39352,-3.92375351409347630737,5.6898203,-0.8218097,-1.5089456,3.845477,-8.113452,-3.94393521409347630738,6.0507464,-0.56682724,-1.7675194,4.5277076,-7.743061,-3.96425271409347630751,5.85921,-0.9600749,-1.8064252,5.216845,-7.280388,-3.99385451409347630768,5.3438582,-1.4676456,-1.9710265,5.798527,-6.831964,-3.98393341409347630769,5.5264163,-1.6867151,-1.9297266,6.2228694,-6.451667,-3.97772481409347630788,5.971139,-1.9021933,-1.9949685,6.6013703,-6.0887713,-3.93943621409347630802,6.749853,-3.6092591,-1.9997569,6.943084,-5.74645,-3.86552861409347630802,-2.256535,-13.362638,11.569381,7.187563,-5.5394154,-3.7180941409347630819,-18.69273,-19.608511,19.608511,6.3164845,-7.335524,-1.56923441409347630820,-19.60911,-19.608511,16.104,6.4945984,-7.1305814,-1.77352071409347630840,-19.60911,-19.608511,6.201581,6.617419,-6.959344,-1.98687651409347630840,-16.742653,-14.963162,4.642956,6.621212,-6.8939605,-2.19163681409347630851,-10.255563,-5.585074,7.7853456,6.5411134,-6.957429,-2.23122721409347630899,-0.7110779,-6.4338183,4.43466,-4.5111294,-8.09971,3.19605471409347630901,2.231396,-6.9366007,-0.04309563,-4.262904,-8.142777,3.41953331409347630901,5.643732,-8.304887,-3.8235402,-3.7528815,-8.420201,3.34461861409347630902,8.370728,-12.158954,-6.855198,-2.904536,-8.910363,2.88782121409347630903,6.3123126,-14.283808,-6.1219735,-1.7318822,-9.460096,1.91769831409347630935,2.8766334,-12.098499,-5.039196,-0.83941346,-9.716937,1.02317691409347630935,1.1785458,-11.095329,-3.8612487,-0.39711294,-9.790844,0.389968451409347630936,0.7517793,-11.717822,-2.5049336,-0.19044556,-9.8047285,-0.037932551409347630938,1.4544775,-10.986393,-2.8365304,-0.08842297,-9.802368,-0.275905431409347631065,1.316811,-10.0508585,-2.0380642,0.053591013,-9.792413,-0.525576351409347631066,0.9367314,-9.425373,-1.1043255,0.18111557,-9.782507,-0.663448751409347631066,1.22224,-8.785523,-0.98820674,0.27095044,-9.778098,-0.69699331409347631067,2.7018566,-7.69257,-1.1115081,0.3871355,-9.769819,-0.75576811409347631069,3.816956,-7.6548615,-1.6382325,0.64151996,-9.747744,-0.860433161409347631070,3.9857473,-8.664616,-2.1709423,0.9827045,-9.706431,-0.994922941409347631070,3.6176388,-9.59177,-2.2816741,1.314663,-9.650981,-1.14044371409347631071,3.1591492,-9.767744,-2.0147207,1.5685215,-9.598411,-1.25723531409347631072,3.1004913,-9.297284,-1.3664906,1.7521685,-9.556109,-1.33456811409347631073,3.1555579,-8.990228,-0.96785605,1.9064748,-9.526513,-1.33464991409347631073,2.9873652,-9.087193,-0.76434886,2.0403528,-9.503953,-1.29701031409347631074,2.586935,-9.494805,-0.6099229,2.1428616,-9.488561,-1.24328921409347631075,2.3786395,-10.137649,-0.7015011,2.2000327,-9.484184,-1.17495391409347631121,2.4259248,-10.763134,-1.1988965,2.2264855,-9.485784,-1.11043551409347631121,2.5031378,-11.090541,-1.7591397,2.239443,-9.483892,-1.1004841409347631122,2.4528596,-11.258734,-1.9782091,2.2451925,-9.480096,-1.12128541409347631123,2.154183,-11.475409,-2.2637177,2.2428622,-9.477349,-1.1488381409347631123,1.6053122,-11.534067,-2.7850552,2.2094288,-9.480312,-1.18849031409347631160,1.2653356,-11.238382,-3.6032736,2.1227174,-9.489039,-1.27380941409347631161,1.2946646,-10.707469,-4.489128,2.00997,-9.491032,-1.43204591409347631161,1.3413515,-10.062231,-5.479729,1.9061879,-9.473036,-1.67286251409347631162,0.49559975,-9.919776,-7.325659,1.8137256,-9.425613,-2.00962781409347631170,-1.5167267,-10.286089,-6.356007,1.6372246,-9.346341,-2.47704361409347631181,-3.232771,-11.003153,-2.509722,1.3128718,-9.297897,-2.82769821409347631199,-3.4464533,-11.07019,0.28550854,0.8598354,-9.34049,-2.86117631409347631200,-3.6733038,-10.505158,1.4239515,0.43417016,-9.418227,-2.69794321409347631217,-3.9552212,-9.797073,1.2557588,0.05700199,-9.504257,-2.4158291409347631218,-4.2664676,-9.094974,0.6865373,-0.2929466,-9.572363,-2.11055831409347631232,-4.670489,-9.291897,0.21428105,-0.6405507,-9.609945,-1.84636321409347631251,-5.032612,-9.870695,-0.10115502,-1.0008584,-9.614263,-1.65367561409347631251,-4.52145,-9.803658,-0.065242,-1.3673388,-9.5985155,-1.47284151409347631267,-3.50571,-9.387665,0.21906945,-1.6578178,-9.575014,-1.31952671409347631282,-2.7898436,-9.39365,0.4381389,-1.8446672,-9.558862,-1.1814171409347631282,-2.3786395,-9.910798,0.6147113,-1.9478389,-9.552994,-1.05671161409347631298,-2.1817162,-10.368091,0.82240826,-1.9871997,-9.557528,-0.935479941409347631299,-1.7717092,-10.618883,1.18094,-1.9942218,-9.567142,-0.814436551409347631321,-1.0115502,-10.809222,1.8022354,-1.9622915,-9.584495,-0.67623981409347631322,-0.19991584,-10.958859,2.3888147,-1.8592747,-9.616719,-0.481857631409347631332,0.010773907,-10.936115,3.0184898,-1.6989038,-9.654947,-0.257131761409347631355,-0.30166942,-11.318588,3.0615854,-1.536721,-9.685498,0.0020072481409347631355,-0.33638534,-11.669339,3.3991678,-1.4163647,-9.700921,0.237519311409347631358,-0.09935937,-11.704654,4.372411,-1.3106028,-9.706985,0.47658291409347631370,0.50757074,-11.39221,6.359598,-1.2024314,-9.7008505,0.786156541409347631385,1.0708067,-10.901998,8.306085,-1.0650544,-9.668227,1.24957631409347631403,-0.21667525,-11.224017,5.3007627,-0.89939535,-9.5882635,1.8511281409347631405,-2.8592753,-12.103887,0.825401,-0.8506042,-9.538854,2.11118981409347631411,-4.685453,-12.899361,-2.0632033,-0.99610776,-9.546784,2.00923751409347631418,-6.8318543,-13.788208,-5.21936,-1.2478064,-9.573164,1.72275611409347631433,-8.358757,-13.649942,-7.6530657,-1.6195182,-9.596574,1.20552911409347631449,-6.861782,-12.962807,-4.9224787,-2.065424,-9.5726795,0.517906841409347631452,-6.2339025,-13.3943615,-3.74513,-2.3678787,-9.516211,0.0725946951409347631465,-6.2327056,-14.135366,-3.084929,-2.601192,-9.45086,-0.292294861409347631484,-6.7253127,-15.758037,1.3221979,-2.776331,-9.390392,-0.53190671409347631485,-5.2648497,-18.27554,15.080478,-2.9279842,-9.351091,-0.3929321409347631499,-2.0027497,-19.563023,18.656816,-2.9351635,-9.348333,-0.40483111409347631500,-0.5201403,-17.424402,7.5668745,-2.9681573,-9.337203,-0.420798481409347631517,-0.25917232,-14.633361,-2.2900538,-2.3874671,-9.253224,2.20186691409347631518,-1.0301052,-13.722367,-4.410718,-2.2706683,-9.330738,1.98790871409347631533,-1.7842789,-12.813767,-4.042011,-2.1960206,-9.419998,1.61602311409347631551,-1.5442601,-12.237364,-5.21936,-2.135782,-9.491139,1.23575061409347631551,-1.3299791,-11.969811,-6.397307,-2.0605414,-9.553757,0.806400541409347631566,-1.09834,-12.200851,-5.393538,-2.0024557,-9.595743,0.286879271409347631587,-1.4036007,-12.675503,-4.630386,-1.939778,-9.612163,-0.1182318261409347631588,-1.572392,-12.844294,-4.7656584,-1.8989012,-9.611537,-0.42771281409347631591,-0.40102878,-14.310742,-4.656722,-1.872256,-9.601173,-0.694635331409347631599,1.2563573,-18.657415,-3.9199066,-1.7570903,-9.604758,-0.91192661409347631616,3.7642837,-19.608511,-1.939902,-1.4951956,-9.637016,-1.03086691409347631619,7.338228,-19.608511,4.8494554,-1.0872575,-9.69474,-1.00013921409347631632,7.1484876,-17.892467,2.7790697,-0.47488546,-9.780877,-0.528517661409347631649,3.6523547,-13.488334,-1.6693572,0.06709932,-9.802665,-0.271387671409347631651,1.6023195,-12.278065,-6.0441623,0.34716803,-9.793097,-0.38090661409347631662,0.61291564,-10.951677,-7.237672,0.4650497,-9.765676,-0.765321551409347631681,1.3551182,-9.3738985,-4.8979383,0.47857788,-9.721495,-1.19744861409347631682,3.4452562,-7.5968018,-4.496909,0.5009857,-9.684825,-1.45725511409347631696,4.607641,-5.740697,-5.8322754,0.67103,-9.638564,-1.67874861409347631699,3.9923313,-4.819528,-4.8979383,0.95816183,-9.55041,-2.01046251409347631714,2.461838,-4.5459905,-4.7758336,1.2392195,-9.46089,-2.2641251409347631719,1.827973,-4.9021277,-4.892551,1.4041865,-9.364925,-2.54889541409347631731,1.2054806,-5.317522,-3.9324763,1.4994627,-9.266477,-2.8380281409347631751,0.95109665,-5.2127757,-1.4784195,1.5250272,-9.204449,-3.02041409347631752,1.0552444,-5.1930237,-3.0256724,1.5111467,-9.204482,-3.0272631409347631763,1.4814123,-5.12838,-1.7477672,1.4946334,-9.156679,-3.17673921409347631780,1.0121487,-4.689044,-0.91338795,1.5407112,-9.148242,-3.17903691409347631780,1.0935516,-3.8109705,-2.966416,1.5718166,-9.166672,-3.10997221409347631793,2.1242554,-2.9909565,-2.4983494,1.599574,-9.098549,-3.29062341409347631799,2.8485014,-2.3391352,-2.6084828,1.7687578,-9.011867,-3.43920831409347631815,4.055179,-1.6166847,-2.5234885,2.0554645,-8.879016,-3.6205691409347631819,5.333084,-0.89064306,-3.1028855,2.5218418,-8.675407,-3.81418421409347631831,6.3859344,-0.29328972,-3.6607344,3.1669247,-8.336386,-4.0799111409347631847,6.885724,0.05207389,-3.74513,3.9380152,-7.836295,-4.3880481409347631851,6.5152216,0.019153614,-3.7960067,4.72428,-7.233697,-4.63952731409347631864,6.373365,-0.06464344,-3.58412,5.3765674,-6.599712,-4.8689541409347631880,6.260239,-1.2605472,-3.596091,5.939193,-5.9778414,-5.01615431409347631880,6.3991027,-3.8073792,-3.4614172,6.3342366,-5.4988112,-5.08044341409347631895,6.005855,-10.110115,1.4143747,6.5448074,-5.328178,-4.9946391409347631899,-11.24377,-19.606117,19.608511,6.5532217,-6.0100713,-4.135791409347631914,-19.448101,-19.608511,19.608511,6.672369,-5.750617,-4.3104881409347631919,-19.60911,-19.608511,17.186777,6.7723413,-5.4598827,-4.52719161409347631932,-17.095797,-17.987637,3.870227,6.8129797,-5.2291245,-4.7339181409347631948,-6.206968,-7.757812,2.8634653,6.642787,-5.1413155,-5.06069471409347631951,-5.796961,-4.6525326,5.5623293,-3.1132128,-8.783715,3.05362771409347631963,-3.1962593,-4.341286,6.3248825,-3.6562161,-8.528334,3.17332721409347631981,1.027711,-5.064934,5.094861,-3.759323,-8.354582,3.49840741409347631981,3.7271736,-7.8290396,3.3488896,-3.38089,-8.34798,3.87958721409347631997,8.2593975,-12.540829,-0.16819267,-2.6910577,-8.52999,4.0209291409347631999,9.555858,-17.017387,-4.0743327,-1.4948868,-8.987329,3.62817341409347632017,5.9585695,-14.71237,-5.3995233,-0.30220717,-9.418673,2.7143431409347632029,1.91596,-11.244369,-3.5009215,0.34730202,-9.623476,1.85431911409347632031,-1.1767502,-11.143213,-1.4437037,0.54047686,-9.699387,1.34170511409347632045,-1.3790601,-11.848905,-2.0446482,0.39039442,-9.7414255,1.05953541409347632064,-0.39803603,-10.672154,-3.7499185,0.22385201,-9.777342,0.723794161409347632064,0.28431144,-10.087969,-3.068768,0.17759997,-9.800804,0.288311931409347632080,0.91578215,-9.774927,-1.5801731,0.18923692,-9.804801,-0.0214285721409347632081,1.8070238,-9.585785,-0.9355343,0.25860637,-9.801926,-0.160506781409347632098,3.2692823,-8.610746,-0.80086046,0.4076748,-9.794474,-0.269209151409347632099,4.214992,-8.53054,-1.1007342,0.68841845,-9.775583,-0.366702741409347632113,4.26946,-9.202713,-1.5921441,1.0369251,-9.740881,-0.45875911409347632130,4.1395745,-9.36911,-1.9129672,1.3705478,-9.693519,-0.572469061409347632131,3.9294837,-9.003994,-2.2822728,1.668614,-9.638603,-0.695291161409347632146,3.6098576,-8.693945,-2.52289,1.9201249,-9.580134,-0.839373471409347632151,3.1232362,-8.828619,-2.2942438,2.112372,-9.523605,-1.00459031409347632159,2.6156654,-8.987833,-1.5310919,2.2436366,-9.478555,-1.13730541409347632178,2.1775265,-9.115923,-0.8439561,2.3115597,-9.455129,-1.19482471409347632179,1.7836803,-9.554062,-0.7194576,2.3293698,-9.452492,-1.18102941409347632195,1.4622587,-10.451887,-1.1348516,2.2974663,-9.464802,-1.14437171409347632199,0.89902276,-11.875839,-1.6921021,2.2195637,-9.485086,-1.13008011409347632211,0.24121583,-12.691065,-2.2014685,2.0667717,-9.518307,-1.14046361409347632228,0.43754035,-11.81359,-2.094328,1.8515404,-9.555413,-1.19845341409347632233,1.0803835,-10.14543,-1.7046716,1.6864039,-9.583578,-1.21715221409347632242,0.6398504,-9.561843,-2.6743233,1.6200553,-9.597406,-1.19815891409347632261,0.78170687,-9.504382,-3.1555579,1.523126,-9.601702,-1.2875581409347632262,0.60693014,-9.77792,-4.833295,1.4554403,-9.592205,-1.42887381409347632275,-0.3890578,-9.983223,-8.104971,1.3610257,-9.556293,-1.73068171409347632279,-3.9043443,-11.412561,-5.263054,1.1511519,-9.46138,-2.30814031409347632294,-4.9308586,-11.513716,-1.8507179,0.64091045,-9.445637,-2.55725361409347632299,-5.4204726,-10.9025955,-1.4556746,0.11203166,-9.487915,-2.47735571409347632312,-4.8997335,-10.148422,-1.9955671,-0.4261565,-9.473082,-2.49990371409347632327,-3.9079356,-9.704897,-0.80564886,-0.86150753,-9.42629,-2.56383511409347632331,-3.0897174,-9.519944,0.47225627,-1.1524813,-9.422929,-2.45979791409347632345,-2.9765913,-9.611523,0.6206968,-1.3439903,-9.456605,-2.2218761409347632362,-2.9867666,-9.794679,0.40641573,-1.4909639,-9.490112,-1.97108731409347632363,-2.819771,-10.016143,0.12928689,-1.6036978,-9.515024,-1.75009361409347632377,-2.6886885,-9.948506,0.074818805,-1.682484,-9.532102,-1.57437931409347632379,-2.0829554,-9.444528,0.48243165,-1.7579361,-9.540508,-1.43483111409347632393,-1.5161282,-8.996213,1.1450269,-1.7875139,-9.557931,-1.27324591409347632399,-1.3976152,-8.97287,1.4287399,-1.7836429,-9.583163,-1.07331091409347632413,-1.3557167,-9.49301,1.6059108,-1.7732179,-9.606451,-0.86150461409347632427,-1.0726024,-10.159795,2.3600843,-1.7449566,-9.628446,-0.646951741409347632432,-0.38486794,-10.541072,3.4344823,-1.6818063,-9.653983,-0.377528671409347632444,-0.09876082,-10.860698,3.74513,-1.5636425,-9.681072,-0.0470662861409347632451,-0.18854338,-11.109096,3.4745853,-1.4243379,-9.698893,0.270376441409347632461,-0.30346507,-11.495161,3.4422636,-1.3165797,-9.705172,0.496627931409347632477,-0.56084174,-12.054207,3.7828386,-1.2216058,-9.705818,0.689301551409347632480,-0.6063316,-12.25113,4.581305,-1.1454537,-9.696345,0.9160891409347632493,-0.25258827,-12.054806,5.5006785,-1.0756779,-9.669681,1.22905581409347632500,-0.05267244,-11.6442,3.8432922,-0.99047905,-9.62022,1.62502851409347632512,-1.2246342,-11.477803,0.6194997,-0.893537,-9.585622,1.86757371409347632527,-2.861071,-12.375628,-1.376666,-0.8862977,-9.594999,1.82232191409347632533,-4.76506,-13.921085,-3.942053,-1.0038494,-9.629725,1.55918671409347632543,-5.993884,-14.574703,-5.1481323,-1.2561846,-9.660806,1.12305151409347632561,-5.7424927,-13.905523,-3.709217,-1.5653683,-9.660621,0.62643011409347632562,-4.8668137,-13.451822,-2.813187,-1.8413799,-9.629315,0.236626741409347632577,-4.5196543,-12.784438,-2.1296425,-2.0351362,-9.592694,-0.094084641409347632579,-4.84347,-12.931682,0.38367084,-2.1791782,-9.556613,-0.304549931409347632593,-5.8262897,-14.932636,5.7478795,-2.3278937,-9.522879,-0.257024231409347632599,-6.2183404,-17.325043,16.628927,-2.4931366,-9.482178,0.207294261409347632612,-5.2528787,-18.430565,16.546926,-2.5207942,-9.475356,0.183308991409347632626,-3.8618474,-16.055517,3.9426517,-2.5731769,-9.461155,0.188937931409347632631,-2.8119898,-13.275848,-2.89459,-2.63295,-9.136424,2.40077331409347632643,-3.3375173,-12.625823,-3.4290953,-2.6851106,-9.195899,2.09666561409347632660,-3.3626564,-12.40795,-2.7138276,-2.7118409,-9.262972,1.73599031409347632661,-2.9029696,-12.766482,-4.381389,-2.697196,-9.319954,1.4261791409347632676,-2.079364,-11.931504,-6.877943,-2.6744015,-9.381188,1.0056151409347632680,-0.9331401,-11.298837,-6.7570357,-2.6236582,-9.438333,0.452426971409347632693,-0.6218939,-11.532869,-5.3396683,-2.5231645,-9.476166,-0.079297411409347632700,-0.5746084,-13.781624,-3.567959,-2.3886528,-9.500659,-0.44966511409347632713,0.13227965,-18.007988,-1.3688848,-2.2186086,-9.5314665,-0.63193251409347632728,1.055843,-19.608511,2.0937295,-1.9659619,-9.588713,-0.60161451409347632732,3.5452142,-19.608511,2.6503813,-1.6677784,-9.6582155,-0.328310161409347632743,4.7255554,-19.145832,-0.34596214,-1.2447257,-9.72721,-0.049615971409347632758,2.4654293,-14.485518,-4.4316673,-0.81289136,-9.7728615,-0.0275093541409347632760,0.7410054,-12.423512,-6.3709707,-0.58599985,-9.784827,-0.290077181409347632776,0.28191724,-11.836334,-5.8388596,-0.45445672,-9.769881,-0.71641751409347632780,0.17657238,-11.16117,-5.1660886,-0.34610215,-9.73895,-1.0970191409347632794,1.9554642,-9.4295635,-4.4304705,-0.28458676,-9.699933,-1.41445591409347632800,3.6661212,-7.417237,-4.429273,-0.13220204,-9.665726,-1.65126381409347632812,3.2662897,-6.3446345,-4.7644615,0.12904753,-9.626546,-1.86637841409347632827,2.8562827,-6.041768,-5.482722,0.36242023,-9.57281,-2.09770421409347632833,3.1800983,-5.6820393,-4.2521024,0.57568675,-9.493465,-2.39021061409347632841,2.8365304,-5.6227827,-3.4159272,0.81157184,-9.428983,-2.57022121409347632857,1.6944963,-5.7658362,-1.525705,1.0100287,-9.373761,-2.69866631409347632860,1.0552444,-5.255273,-2.1458032,1.0883554,-9.363375,-2.70427821409347632878,0.7823054,-4.5406036,-2.0021513,1.101222,-9.3331585,-2.80176261409347632880,0.717662,-3.8630445,-1.3760674,1.0949178,-9.30797,-2.88673731409347632894,1.3006501,-3.3542767,-1.8836381,1.1076293,-9.299915,-2.9077751409347632909,2.3008277,-2.8060043,-2.7611132,1.1995301,-9.260738,-2.99504351409347632912,3.520075,-1.8740613,-2.4887726,1.4141716,-9.163035,-3.1951971409347632934,4.547188,-1.1755531,-2.0231004,1.8141695,-9.01869,-3.39741131409347632935,5.5401826,-0.94810385,-2.2122424,2.3868616,-8.820121,-3.5607221409347632941,6.3751607,-0.81761986,-2.2457612,3.0966265,-8.523485,-3.73249271409347632974,6.563704,-1.0163386,-2.2930467,3.9044232,-8.122981,-3.86562321409347632975,6.8839283,-0.8230068,-2.5617957,4.67568,-7.663516,-3.94701981409347632976,6.089652,-1.3623008,-2.7138276,5.4074535,-7.121299,-4.0270231409347632980,6.3991027,-0.7164649,-2.3451207,5.9094625,-6.6700277,-4.093821409347632999,6.315904,-1.501763,-1.7633295,6.4358487,-6.146,-4.12030841409347633016,6.3548098,-4.0773253,-2.236783,6.8556433,-5.7426834,-4.0239491409347633018,4.0414124,-11.291056,4.8901567,7.0354905,-5.6114755,-3.8966171409347633030,-12.726977,-19.608511,19.608511,6.7888427,-6.5479674,-2.68442921409347633032,-18.236036,-19.608511,19.251177,6.9555984,-6.302313,-2.84093071409347633042,-19.60911,-19.608511,19.103933,7.0705943,-6.0870686,-3.02070521409347633060,-19.223045,-18.991405,8.919,7.010265,-5.9594507,-3.39286451409347633061,-10.955867,-8.22528,4.1940427,6.8697653,-5.876402,-3.80060861409347633077,-6.625953,-2.480393,6.0363812,-3.4670513,-8.286665,3.9346051409347633080,-4.6279917,-3.116652,6.5152216,-4.0612197,-7.935052,4.0880111409347633093,-1.1767502,-6.8162923,4.008492,-4.2596893,-7.6866727,4.3520671409347633122,2.8215668,-10.034698,-1.774702,-4.0229926,-7.756282,4.45264051409347633123,8.228272,-15.83525,-6.5708866,-3.4502726,-8.233574,4.058851409347633124,10.001778,-18.136078,-6.510433,-2.2782595,-9.02442,3.088651409347633151,8.090008,-13.854048,-5.0200424,-0.995719,-9.531197,2.08212781409347633152,4.6273932,-11.880029,-1.7818847,-0.08616467,-9.70564,1.40125041409347633153,1.0899603,-12.856264,0.010773907,0.4072829,-9.739652,1.06943551409347633161,0.8559271,-10.724228,-1.3533225,0.4887306,-9.754011,0.889274661409347633184,0.8499416,-10.548853,-2.0213048,0.5221049,-9.772782,0.62492641409347633185,1.5442601,-9.64983,-1.8100165,0.5538944,-9.783701,0.377875861409347633194,2.730587,-8.3150625,-1.0911574,0.65934813,-9.782541,0.193820451409347633217,3.2495303,-7.9421654,-1.3371617,0.873209,-9.76747,0.066634911409347633217,3.448249,-8.2833395,-1.8668787,1.1177675,-9.742475,-0.072192551409347633220,3.642778,-8.807071,-1.8195933,1.3574951,-9.708938,-0.253225981409347633232,3.6661212,-8.8884735,-1.4305356,1.6062092,-9.665587,-0.40853991409347633246,3.5063083,-8.523358,-1.0600328,1.8409114,-9.619084,-0.50463061409347633262,3.2848446,-8.284536,-0.9331401,2.0401015,-9.576367,-0.549144271409347633262,2.9831753,-8.388684,-0.705691,2.2015882,-9.538838,-0.577903331409347633284,2.6449943,-8.555679,-0.47524905,2.3154132,-9.511345,-0.58614161409347633284,2.2224178,-9.247604,-0.4878186,2.3815517,-9.495619,-0.576027631409347633292,1.7298107,-10.489596,-1.0714053,2.390307,-9.493994,-0.56650581409347633306,0.94451255,-12.297218,-2.1290438,2.3264647,-9.506593,-0.618584331409347633314,0.1316811,-13.626,-2.8532898,2.1590726,-9.535909,-0.758437631409347633328,-0.06464344,-12.949638,-3.105878,1.9151716,-9.573023,-0.92723181409347633333,0.4866215,-10.806828,-2.586935,1.6909007,-9.59925,-1.07964651409347633342,0.6739678,-9.389461,-2.52289,1.5580704,-9.612438,-1.15924491409347633359,0.3716998,-9.174581,-2.9735985,1.4651725,-9.618354,-1.22920691409347633361,-0.12988544,-9.339781,-3.6194344,1.355243,-9.614683,-1.37532971409347633384,0.31244332,-8.763377,-5.8574142,1.2232804,-9.606565,-1.54527771409347633386,-1.7160441,-9.011775,-8.23366,1.1301969,-9.544842,-1.94655261409347633394,-6.3482256,-11.054029,-11.04146,0.82566553,-9.431554,-2.5562541409347633422,-7.5806413,-11.610682,-9.852738,0.10872663,-9.225611,-3.3236531409347633423,-5.8424506,-10.1304655,-4.6136265,-0.5743999,-8.992506,-3.86979681409347633424,-3.7576995,-8.951322,-0.75118077,-1.0509498,-8.905717,-3.96914631409347633455,-2.6168625,-8.5143795,0.91817635,-1.3469671,-8.964267,-3.74139071409347633456,-2.4498668,-9.378687,2.0141222,-1.5426123,-9.069825,-3.39543631409347633457,-2.6030958,-10.638037,1.9488802,-1.6565946,-9.216086,-2.91373541409347633461,-2.7712884,-11.923723,0.7870938,-1.7058716,-9.342952,-2.44328451409347633484,-2.8975825,-13.089699,0.10295067,-1.725824,-9.422127,-2.1012961409347633485,-2.847903,-13.2752495,0.050278235,-1.7441967,-9.469927,-1.85705071409347633495,-2.6162639,-12.305598,0.3184288,-1.7699604,-9.499733,-1.67114761409347633514,-1.8602947,-11.143812,1.0941502,-1.8075773,-9.519124,-1.51305831409347633516,-0.95827925,-10.729016,1.9099745,-1.7976314,-9.551323,-1.30809811409347633532,-0.3405752,-11.257536,2.2290018,-1.737467,-9.590071,-1.08726741409347633533,-0.16699557,-11.949461,3.140594,-1.6262907,-9.629745,-0.89082951409347633541,0.44352585,-11.796232,5.791574,-1.495919,-9.669292,-0.661344471409347633559,2.1571758,-11.10311,13.263279,-1.3170439,-9.71571,-0.201896791409347633561,5.45878,-10.512939,19.608511,-1.0192285,-9.709623,0.92453481409347633583,2.8694508,-11.820772,12.652159,-1.0656618,-9.73713,0.4722751409347633583,-0.6123171,-11.987768,2.15538,-0.24942309,-9.238533,3.27989031409347633593,-2.0446482,-11.5616,-1.2539631,-0.27571929,-9.215442,3.34215161409347633611,-2.717419,-11.33056,-2.7886465,-0.4321379,-9.283761,3.1297641409347633616,-4.288614,-10.905589,-7.562086,-0.57116586,-9.409895,2.70148831409347633637,-4.24073,-11.903971,-8.821436,-0.808978,-9.596609,1.84960941409347633638,-4.7884035,-13.190854,-6.8306575,-1.0428116,-9.708837,0.90632931409347633641,-7.0593038,-14.848241,-4.3807907,-1.3080884,-9.7166395,0.214950321409347633663,-7.3579803,-14.174273,-3.6445735,-1.7114121,-9.654207,-0.194410821409347633664,-6.849811,-11.84651,-3.0945058,-2.0836096,-9.571456,-0.464929881409347633676,-6.087258,-10.901399,-0.9660604,-2.4109182,-9.478767,-0.714727641409347633681,-6.4589577,-12.44925,3.7906199,-2.6705546,-9.404364,-0.772319441409347633693,-6.498462,-14.50587,14.407707,-2.8965118,-9.358873,-0.43830491409347633708,-4.97156,-16.582241,19.534891,-3.034561,-9.301009,0.673114961409347633712,-3.2998085,-15.6233635,7.697957,-3.0575786,-9.300856,0.56189861409347633736,-2.4109612,-13.171103,-3.2842462,-2.8766603,-9.088046,2.30274631409347633737,-1.9907787,-12.87482,-3.769072,-2.8528934,-9.189211,1.89467111409347633741,-2.2301989,-14.046183,-2.3385365,-2.8093219,-9.255377,1.61743871409347633765,-2.0632033,-14.596251,-3.1812954,-2.7353728,-9.32001,1.35112521409347633766,-1.8806454,-14.495694,-4.9536033,-2.5972292,-9.4003725,1.02850481409347633772,-1.1097125,-13.500903,-5.8029466,-2.4704714,-9.470671,0.61118251409347633792,-0.97025025,-12.690466,-5.4761376,-2.3487809,-9.519964,0.154612471409347633794,-1.4676456,-13.214796,-5.133767,-2.2457464,-9.542734,-0.251498731409347633807,-1.2354081,-13.88218,-4.518457,-2.1738434,-9.544895,-0.58290631409347633813,-0.9151836,-15.120581,-3.618836,-2.0761828,-9.549363,-0.818228961409347633828,-0.12509704,-18.443134,-1.9758149,-1.9541149,-9.562695,-0.95219491409347633846,1.6675615,-19.608511,0.90620536,-1.7601962,-9.60379,-0.91615511409347633847,4.7135844,-19.608511,2.0350714,-1.4605484,-9.673281,-0.68179161409347633865,6.547543,-18.363527,-0.56563014,-0.99882954,-9.747075,-0.408968931409347633866,4.525041,-13.976152,-4.26527,-0.48004153,-9.788183,-0.362498281409347633878,2.2230163,-12.20564,-6.8240733,-0.123931795,-9.786533,-0.61549221409347633903,0.6667852,-11.108498,-6.356007,0.08034107,-9.7541065,-1.01061441409347633903,0.45968673,-9.941324,-2.0566192,0.13693127,-9.706732,-1.3896261409347633918,0.350152,-8.881291,-1.560421,0.17084903,-9.693474,-1.47573541409347633918,1.8154035,-7.499837,-2.9047651,0.16678573,-9.686837,-1.5191391409347633921,3.2620997,-6.47033,-5.1182046,0.27451152,-9.665613,-1.63430451409347633942,2.6473885,-5.8651958,-6.157887,0.5128531,-9.605413,-1.90877681409347633943,1.6765398,-6.2482677,-6.8228765,0.71951914,-9.51357,-2.26818511409347633955,1.3245921,-6.6415157,-5.514445,0.835394,-9.398777,-2.67123821409347633961,1.0576386,-6.4583592,-2.7455509,0.8854932,-9.308149,-2.95713831409347633975,0.7954735,-6.4122705,-2.0488381,0.89940417,-9.280667,-3.0382011409347633992,0.75357497,-6.169858,-1.7160441,0.8589332,-9.271913,-3.0764021409347633993,1.1552023,-6.0597243,-1.0737995,0.8277249,-9.275703,-3.07353471409347634007,2.0721815,-5.723339,-0.44232875,0.87140167,-9.298069,-2.99281881409347634013,3.1214404,-5.0691237,-0.75956047,1.0363346,-9.326309,-2.84892871409347634033,3.958214,-4.490924,-1.5646108,1.3215637,-9.3182335,-2.75579451409347634035,4.720767,-3.870227,-2.030283,1.7031732,-9.253156,-2.76562981409347634042,5.514445,-2.8395233,-2.4115596,2.1697435,-9.134948,-2.8311431409347634064,5.7107697,-2.2212207,-2.8574798,2.7391667,-8.935637,-2.97014051409347634065,5.9172697,-1.6621746,-3.0825348,3.331642,-8.662863,-3.1662921409347634073,6.429629,-1.1605892,-3.3901896,3.9394507,-8.31606,-3.39032461409347634090,6.5720835,-1.7591397,-3.54282,4.5789475,-7.8715224,-3.63906431409347634095,7.180211,-1.596334,-2.9281087,5.1362214,-7.4146204,-3.8487681409347634106,7.023391,-2.9269116,-1.9847932,5.719244,-6.9280396,-3.93229031409347634114,6.417059,-5.6215854,0.12629414,6.1543984,-6.6118383,-3.81803151409347634142,1.5616181,-13.006501,12.030265,6.3942327,-6.6125154,-3.39983081409347634143,-15.342045,-19.608511,19.355326,5.949293,-7.6669984,-1.41189861409347634143,-18.935143,-19.608511,15.670649,6.108255,-7.502218,-1.60509241409347634168,-19.60911,-19.608511,17.821838,6.272731,-7.3161907,-1.81564491409347634169,-17.907433,-17.627909,8.597578,6.3543153,-7.18866,-2.02885341409347634173,-7.2604165,-6.7708025,3.594894,6.309312,-7.124957,-2.36600541409347634191,-6.0758853,-4.793192,5.2199583,-3.2528472,-8.468662,3.72439671409347634193,-4.727351,-6.581062,7.6369047,-3.7108715,-8.2369795,3.81470681409347634207,-0.63206923,-7.9553337,4.281431,-3.843245,-8.030653,4.1119891409347634228,3.2908301,-12.384008,-2.7234044,-3.6075287,-8.114851,4.15996741409347634228,8.308478,-18.911201,-5.777209,-2.9980018,-8.595759,3.64627271409347634242,8.9279785,-17.238253,-6.9677253,-1.8611634,-9.220634,2.77243231409347634243,5.052963,-11.856087,-4.086902,-0.8354195,-9.585831,1.8932321409347634258,0.50038815,-9.924564,-1.7633295,-0.27566025,-9.702683,1.39726981409347634261,-0.40102878,-9.916184,-1.7208325,-0.18052754,-9.739518,1.13119951409347634275,-0.43754035,-9.939528,-3.8031895,-0.16224955,-9.768015,0.854372261409347634291,-0.50397944,-10.237008,-2.586935,-0.16617885,-9.797227,0.396360221409347634294,0.3172317,-9.940725,-1.2192472,-0.18259382,-9.804387,0.105135031409347634307,2.3116016,-8.871715,-1.0540473,-0.13155279,-9.805726,-0.0290840571409347634335,4.084508,-7.813477,-1.2904748,0.09364435,-9.804841,-0.163388491409347634336,4.3927617,-7.992444,-1.946486,0.4663652,-9.790912,-0.301602181409347634337,3.9396589,-8.88608,-2.6437972,0.85183597,-9.75891,-0.456532661409347634342,3.6463692,-9.497798,-3.2225955,1.1727561,-9.713696,-0.66268011409347634365,3.4614172,-9.332599,-3.3518825,1.4478301,-9.656854,-0.9051831409347634368,3.232771,-8.856153,-2.6994624,1.6783084,-9.594009,-1.14397661409347634373,2.7491422,-8.494628,-1.8267759,1.8629494,-9.538509,-1.31021111409347634390,2.3852234,-8.470087,-1.2246342,1.9884007,-9.501697,-1.39082191409347634395,1.9997569,-8.740033,-0.98581254,2.0667548,-9.482296,-1.40890121409347634407,1.6059108,-9.22067,-0.99898064,2.0948968,-9.478422,-1.39329971409347634426,1.4323312,-9.877279,-1.2348095,2.0671625,-9.488015,-1.36922851409347634427,1.4155718,-10.443508,-1.6005238,2.0218687,-9.501037,-1.34638711409347634444,1.4526819,-10.456078,-1.6897079,1.9648826,-9.513057,-1.34587221409347634444,1.6807296,-10.056246,-1.5173253,1.9158051,-9.523157,-1.34520051409347634455,1.6831238,-10.077195,-1.7172412,1.8975834,-9.528995,-1.32959621409347634462,1.4024036,-10.426748,-2.4600422,1.8796934,-9.531199,-1.3391731409347634475,1.1438298,-10.70687,-3.0597897,1.8246796,-9.530197,-1.4199651409347634492,0.80804306,-10.750565,-3.3560722,1.738061,-9.5255575,-1.55347561409347634493,-5.99E-04,-10.62427,-3.8726213,1.6232854,-9.519573,-1.70677471409347634508,-0.4961983,-10.068815,-5.0002904,1.4417754,-9.5113325,-1.9042591409347634526,-2.0254946,-10.506355,-2.670732,1.2185247,-9.475845,-2.21221851409347634527,-3.3716345,-11.28088,-1.0600328,0.8788586,-9.492444,-2.3003241409347634542,-4.068946,-11.444284,0.60932434,0.45862436,-9.535665,-2.2430251409347634542,-3.8019924,-10.638636,-0.3812766,0.040581603,-9.600636,-1.99913321409347634558,-3.2477345,-10.043077,-0.61112,-0.319163,-9.628708,-1.8320841409347634563,-2.6689363,-9.450513,-0.17717093,-0.59133506,-9.638174,-1.71065831409347634581,-2.4013844,-9.173983,-0.3196259,-0.8045485,-9.649632,-1.55167651409347634582,-2.1637597,-9.170391,-0.18076223,-0.9664491,-9.651809,-1.44185531409347634595,-1.9686323,-9.232041,0.05207389,-1.0847505,-9.6539345,-1.33986151409347634607,-1.8668787,-9.266758,0.20470424,-1.168172,-9.658258,-1.23443021409347634631,-1.9135658,-9.577405,0.43514615,-1.2341399,-9.662235,-1.13511411409347634632,-1.8405426,-9.849147,0.5919664,-1.2964845,-9.665758,-1.03084991409347634636,-1.2749124,-10.057443,0.9864111,-1.3457515,-9.66966,-0.92574821409347634642,-1.0450691,-10.824186,1.4107834,-1.335784,-9.684103,-0.77733111409347634667,-1.0199299,-11.633426,1.9177556,-1.3054353,-9.700427,-0.60657531409347634668,-0.90021986,-11.822568,2.7635074,-1.2662272,-9.716424,-0.39770111409347634674,-0.48841715,-11.425131,3.6062663,-1.2148154,-9.730275,-0.127958271409347634701,-0.5686229,-11.256339,3.3943794,-1.1388521,-9.738545,0.184718861409347634702,-0.7104794,-11.025299,2.8724434,-1.0877731,-9.736465,0.434029731409347634703,-1.1629834,-10.737396,2.3636756,-1.0598633,-9.730521,0.60334351409347634741,-1.8010383,-11.121067,2.203264,-1.0749594,-9.721362,0.71412091409347634743,-2.7018566,-12.057798,2.5157075,-1.137832,-9.706885,0.80752431409347634744,-3.4332852,-13.032238,3.2489316,-1.2608804,-9.681266,0.92394441409347634747,-3.3722332,-13.053187,2.855684,-1.419348,-9.6395235,1.11150251409347634780,-3.7367504,-12.762292,0.676362,-1.5445865,-9.597355,1.29437841409347634782,-4.4436383,-12.686874,-2.1188686,-1.6772076,-9.573597,1.30523161409347634783,-4.698621,-12.770073,-3.4632127,-1.8416158,-9.572493,1.0706241409347634784,-3.293823,-13.244724,-3.2890346,-2.0028508,-9.573255,0.71536831409347634794,-3.578733,-13.962984,-1.5568297,-2.0387435,-9.5843315,0.393061409347634824,-4.0563765,-15.227721,0.6757634,-2.0884671,-9.579374,0.210489841409347634826,-4.3676224,-17.068264,6.3350577,-2.1509352,-9.565633,0.206247391409347634828,-4.349666,-18.233044,15.917252,-2.1877255,-9.53931,0.62115391409347634855,-3.7074213,-16.878523,11.578958,-2.2121437,-9.533579,0.62266021409347634856,-3.204639,-13.897742,1.7238252,-2.1955376,-9.288532,2.25236681409347634856,-3.283049,-12.039244,-3.453636,-2.2791207,-9.269391,2.24819641409347634897,-3.4680011,-11.889007,-1.9512744,-2.387287,-9.32544,1.87280551409347634903,-3.3560722,-12.378023,-2.006341,-2.441896,-9.351042,1.6629871409347634904,-2.7246015,-13.498509,-4.677073,-2.4716868,-9.387298,1.39275611409347634906,-1.8243817,-12.712014,-7.290344,-2.4443445,-9.449707,0.94793031409347634908,-0.88046765,-11.918336,-6.967127,-2.3984368,-9.502646,0.342964141409347634942,-1.0965444,-12.431892,-6.30932,-2.2934167,-9.532528,-0.203767841409347634943,-1.2018893,-13.511079,-5.151125,-2.1851766,-9.539248,-0.630998971409347634944,-0.48243165,-15.822082,-3.828927,-2.084785,-9.540489,-0.896166741409347634946,1.1653777,-19.3655,-1.2797008,-1.9271047,-9.5613985,-1.01798931409347634971,3.8259344,-19.608511,1.8968062,-1.6387112,-9.62466,-0.92247261409347634971,6.907272,-19.608511,3.1052797,-1.1986767,-9.713727,-0.6140591409347634973,5.527613,-17.613543,-0.55126494,-0.5872177,-9.784913,-0.284703671409347634991,2.3133974,-13.819332,-3.5571852,-0.13334697,-9.801307,-0.29491471409347635009,0.7308301,-12.722788,-6.678027,0.071966626,-9.791071,-0.54783091409347635009,2.6282349,-9.281721,-5.919065,0.13675445,-9.7565155,-0.980868641409347635035,4.5418005,-6.817489,-4.146757,0.29660687,-9.710074,-1.34048181409347635036,5.024831,-4.9200845,-4.3239284,0.5861477,-9.664122,-1.55935541409347635037,3.5853171,-4.3406878,-4.9069166,0.91769195,-9.594373,-1.81003931409347635043,2.3762453,-4.5166616,-5.273828,1.1545745,-9.509407,-2.0996571409347635061,1.9692309,-5.1636944,-5.6347537,1.3048775,-9.419859,-2.3945741409347635063,1.7256209,-5.5587378,-4.0462008,1.4105364,-9.318387,-2.71079751409347635074,1.3060371,-5.3965306,-1.8513165,1.4860429,-9.247733,-2.90542861409347635098,0.492607,-4.9158945,-1.5873557,1.5096664,-9.22919,-2.95183731409347635099,-0.11133038,-4.7016134,-1.5005659,1.4375988,-9.228503,-2.9897181409347635102,0.2172738,-4.1539397,-0.8984242,1.3347783,-9.234547,-3.01859331409347635128,1.3563153,-3.5661635,-0.3357868,1.272948,-9.253453,-2.987241409347635129,2.7263973,-3.1962593,-0.9068039,1.3702166,-9.267366,-2.89980031409347635135,3.845088,-3.0256724,-1.7160441,1.6489714,-9.229298,-2.87599441409347635142,4.7135844,-2.6491842,-2.331354,2.076365,-9.12121,-2.94323441409347635160,5.365406,-2.2391772,-2.742558,2.619335,-8.93212,-3.08653861409347635181,6.002862,-1.6436194,-3.5984852,3.2326376,-8.658416,-3.2790651409347635182,6.5122285,-0.9648633,-4.359243,3.887777,-8.263738,-3.57298421409347635183,6.2512608,-0.74998367,-4.7500963,4.558059,-7.727805,-3.95923521409347635212,6.4900823,-0.08499416,-4.333505,5.1225553,-7.141437,-4.3508281409347635214,6.0860605,-0.41958386,-3.441665,5.6881614,-6.4897223,-4.65818831409347635215,6.192004,-2.0602105,-2.7988217,6.149204,-5.931318,-4.81426861409347635223,6.303933,-5.01286,-2.291251,6.4951,-5.5793104,-4.7807311409347635249,-0.6410475,-14.96376,12.644977,6.6602116,-5.573981,-4.5544181409347635250,-15.722124,-19.608511,19.608511,6.0259833,-7.3923793,-2.28267671409347635255,-19.60911,-19.608511,19.608511,6.160689,-7.208557,-2.50059991409347635284,-19.60911,-19.608511,14.944607,6.2639265,-7.04173,-2.71066121409347635285,-13.459004,-14.644733,2.4642322,6.222946,-6.9563437,-3.00909141409347635286,-5.6000376,-5.7161565,2.4893713,-2.9111845,-8.712716,3.43278071409347635318,-4.3676224,-3.8498764,6.281787,-3.4879189,-8.568825,3.25270181409347635318,-1.4047978,-4.483143,6.5696893,-3.789761,-8.341036,3.49788551409347635320,2.3391352,-5.7879825,4.534618,-3.618391,-8.211055,3.95679451409347635323,4.7985787,-8.845977,0.8002619,-3.0834026,-8.280686,4.25361631409347635366,7.9744873,-16.47151,-5.5282116,-2.3209722,-8.604571,4.09204631409347635367,8.128913,-18.181568,-6.96174,-1.1548157,-9.2424755,3.06812791409347635369,5.2540755,-16.03696,-4.349067,-0.1551099,-9.609306,1.95130121409347635370,0.6338649,-15.249867,-0.5919664,0.3828237,-9.714901,1.28239891409347635375,-2.5079262,-13.236942,1.6118963,0.42432007,-9.739709,1.06227851409347635403,-3.0466216,-12.043433,-0.3405752,0.177161,-9.748721,1.04950321409347635404,-1.6639702,-11.01632,-0.49440265,-0.10038696,-9.76552,0.891609851409347635405,0.5758055,-9.268554,0.22984336,-0.22912528,-9.775156,0.751149241409347635436,2.3523033,-8.243835,-0.599149,-0.17094634,-9.77823,0.72622111409347635436,3.5045128,-7.2807674,-1.5388732,0.043197483,-9.786861,0.621190131409347635437,3.977966,-6.59004,-1.9422961,0.36766005,-9.790045,0.43616381409347635443,3.693056,-6.8162923,-2.0841527,0.73599285,-9.776194,0.2339661409347635472,3.3279405,-7.4926543,-2.1637597,1.0743331,-9.747598,0.0237146371409347635474,2.908955,-7.3807254,-3.0639796,1.3507262,-9.711405,-0.185839381409347635477,2.5995045,-7.313089,-3.1471782,1.556722,-9.670519,-0.477546221409347635498,2.4037786,-7.5614877,-2.3241713,1.7116127,-9.626564,-0.75499241409347635499,2.284667,-8.300098,-1.8022354,1.8298802,-9.589764,-0.926495251409347635503,2.171541,-9.581595,-1.757344,1.9188712,-9.561725,-1.03040741409347635543,1.7633295,-11.3880205,-2.2218192,1.9649285,-9.541906,-1.12314771409347635546,0.9091981,-13.470377,-3.0190883,1.9311342,-9.533862,-1.24361241409347635547,0.13347675,-14.522031,-3.445855,1.7841742,-9.541082,-1.39817521409347635577,0.17776948,-13.381792,-3.50152,1.5712057,-9.5569515,-1.53830151409347635578,0.7320272,-11.344326,-3.4410665,1.4018424,-9.561403,-1.66876091409347635578,1.4059949,-9.965864,-3.4715924,1.3086159,-9.554526,-1.78015671409347635579,2.4582467,-9.367314,-3.527856,1.279109,-9.537994,-1.88704481409347635583,2.9059622,-9.029133,-4.1802764,1.3489062,-9.503278,-2.00961261409347635608,0.76315176,-9.154829,-6.4110737,1.4608079,-9.440828,-2.21522281409347635609,-3.0544028,-10.5362835,-3.6697125,1.3623426,-9.351808,-2.61879851409347635631,-3.9217024,-10.880449,-0.6410475,0.9435542,-9.365895,-2.74956351409347635632,-3.70383,-10.351331,1.4586674,0.5074134,-9.447691,-2.579551409347635635,-3.5571852,-9.6049385,1.5586253,0.11163521,-9.527976,-2.31852651409347635660,-3.6212301,-9.237429,1.0253168,-0.24599136,-9.593241,-2.0198091409347635661,-3.7565024,-9.539697,0.034117375,-0.57698333,-9.634492,-1.73609841409347635663,-3.7074213,-10.078392,-1.2072762,-0.8781766,-9.644529,-1.54345811409347635675,-3.072958,-10.011953,-1.6292542,-1.1365488,-9.626375,-1.48712481409347635687,-2.3092074,-10.052654,-1.0390835,-1.3126322,-9.601816,-1.50084591409347635707,-1.8273745,-10.594941,-0.682946,-1.4036037,-9.593637,-1.47052091409347635708,-1.5807717,-11.010335,-0.4249708,-1.4325845,-9.597045,-1.41943071409347635729,-1.4957775,-11.242573,-0.05327099,-1.4291008,-9.607208,-1.35263921409347635731,-1.228824,-11.295844,0.4973954,-1.4126878,-9.621849,-1.26282451409347635735,-0.6775591,-11.253945,1.2521675,-1.375313,-9.642559,-1.14015791409347635761,-0.35434186,-11.530476,1.7118542,-1.3008378,-9.671722,-0.96746851409347635765,0.3728969,-11.402985,2.7940333,-1.2081846,-9.70169,-0.766743661409347635766,1.270124,-10.979809,4.8799815,-1.0654665,-9.73604,-0.49463941409347635804,2.260725,-10.587758,7.165247,-0.8566329,-9.7690115,-0.0547217731409347635805,2.8269536,-10.494385,9.118318,-0.59390783,-9.774187,0.531925441409347635806,2.6384103,-10.907983,13.136386,-0.30887336,-9.722518,1.24404531409347635807,1.1025299,-11.790845,13.025056,-0.08976328,-9.548916,2.23170921409347635828,-1.4496891,-11.681909,3.1932666,-0.058669925,-9.310921,3.0779351409347635829,-3.2411506,-10.654198,-2.5210943,-0.21906099,-9.286215,3.1446171409347635837,-3.879804,-10.172963,-5.3157263,-0.4743632,-9.377471,2.8299151409347635860,-4.575918,-11.110293,-6.9198413,-0.7129647,-9.518249,2.25055811409347635866,-4.5082817,-11.817181,-4.9907136,-0.97479314,-9.645704,1.47667121409347635868,-6.117185,-13.090897,-3.247136,-1.237363,-9.686078,0.90511871409347635878,-6.8426285,-14.121001,-2.7335799,-1.5852859,-9.663886,0.516298831409347635904,-6.093842,-13.555371,-3.851672,-1.9388317,-9.611409,0.1792151409347635904,-5.817312,-12.211027,-2.5432408,-2.2111492,-9.551597,-0.219583241409347635905,-6.3967085,-11.999739,1.8674773,-2.452407,-9.484625,-0.444971381409347635938,-7.8212585,-13.491925,9.21229,-2.716805,-9.418916,-0.270903681409347635939,-4.7734394,-16.667234,11.259931,-3.0067055,-9.322178,0.476559551409347635940,-3.413533,-15.998654,1.1522095,-2.9752338,-9.259833,1.25453361409347635962,-2.6330233,-15.586253,-0.97503865,-2.9269726,-9.277096,1.24044491409347635963,-1.6938977,-16.011225,1.3347675,-2.8689306,-9.309029,1.13208331409347635964,-0.64942724,-15.934609,-0.18315643,-2.7279944,-9.3451,1.18218561409347635985,0.1448492,-16.132132,-3.9438488,-2.4879956,-9.422005,1.09823251409347635986,0.3716998,-14.973936,-5.9412117,-2.211184,-9.523924,0.7589311409347636008,0.7787141,-12.476185,-5.9358244,-1.6539614,-9.652911,-0.506106561409347636030,0.41359833,-12.297218,-5.6018333,-1.6539614,-9.652911,-0.506106561409347636031,-0.05626374,-13.288418,-5.0661306,-1.6539614,-9.652911,-0.506106561409347636032,-0.3549404,-14.434044,-4.935647,-1.5466809,-9.651029,-0.797376161409347636036,-0.11911154,-17.882292,-4.8638206,-1.4532684,-9.643184,-1.03314241409347636063,1.292869,-19.608511,-2.1188686,-1.3298736,-9.641928,-1.19792271409347636064,4.449624,-19.608511,1.3084313,-1.1210417,-9.675597,-1.13863051409347636065,7.632715,-19.460072,1.882441,-0.7405308,-9.739948,-0.86913791409347636087,5.2241483,-14.847642,-2.8149827,-0.20878625,-9.784943,-0.617832061409347636087,1.4616601,-12.46601,-7.9846625,0.120563194,-9.779736,-0.71596221409347636109,-1.6226702,-12.030265,-9.52174,0.24359979,-9.7319,-1.18371361409347636109,-2.566584,-10.614694,-4.0982747,0.2172624,-9.647149,-1.74806821409347636117,1.9973627,-7.766192,0.7098808,0.102638684,-9.605835,-1.97174081409347636124,3.9833531,-6.039374,-0.55246204,0.21276276,-9.622972,-1.87711141409347636158,3.405752,-5.119402,-5.2379146,0.43071854,-9.626505,-1.8207841409347636159,2.3403323,-4.5920787,-7.5800424,0.6529433,-9.564419,-2.06541681409347636161,1.9201498,-4.1557355,-4.961983,0.8280542,-9.439952,-2.52428651409347636183,1.335366,-4.4645877,-2.4612393,0.98057353,-9.356122,-2.76981381409347636184,0.8702923,-4.8159366,-1.9452889,1.0451865,-9.316373,-2.87805561409347636184,0.97264445,-4.9494133,-0.8265981,1.0278283,-9.291552,-2.96328041409347636213,1.1204864,-4.827309,-1.3682863,1.0331801,-9.303253,-2.9244491409347636214,1.7178397,-4.4879313,-1.726818,1.0705467,-9.299257,-2.92372371409347636216,2.520496,-4.176685,-1.8656816,1.1887392,-9.274402,-2.95681171409347636223,3.7989995,-3.6876693,-1.7555484,1.407394,-9.2275505,-3.00697761409347636238,4.830302,-2.9161377,-1.5598224,1.7974485,-9.143976,-3.0540651409347636253,5.6245785,-2.2373815,-2.023699,2.3258946,-9.007597,-3.10222481409347636256,6.0244102,-1.757344,-2.2709002,2.9602904,-8.7785635,-3.21619031409347636270,6.3129115,-1.3341689,-2.4061728,3.6404755,-8.467829,-3.34860851409347636285,6.4709287,-0.9355343,-2.3133974,4.3373284,-8.076689,-3.4821111409347636286,6.0764837,-1.1216835,-1.6986861,5.0225067,-7.6186485,-3.59179761409347636303,5.8466406,-1.4269443,-1.6741456,5.6116548,-7.1930947,-3.59710171409347636304,6.2740054,-1.3180081,-1.9482816,6.089396,-6.809773,-3.5660421409347636318,6.4805055,-1.5771804,-1.6232687,6.553765,-6.3643713,-3.56558061409347636323,6.1046157,-2.754529,-1.1480197,6.9770055,-5.95153,-3.4743451409347636336,5.743091,-4.7381253,-0.8984242,7.2565975,-5.717085,-3.29046031409347636352,0.770933,-11.509526,8.230667,7.3484077,-5.7295194,-3.05678181409347636355,-16.746244,-19.608511,19.608511,6.7810283,-6.914978,-1.53984931409347636369,-19.60911,-19.608511,19.608511,6.967885,-6.686457,-1.70594881409347636385,-19.60911,-19.608511,15.093047,7.0913777,-6.463929,-2.02493761409347636385,-10.25257,-16.80969,5.3300915,7.0953126,-6.3111176,-2.4488271409347636398,-7.4495587,-3.964798,7.0706763,-2.4198647,-8.688186,3.85098221409347636405,-2.6270378,-4.295198,5.6976013,-3.1862595,-8.307376,4.1237911409347636421,2.2559366,-5.3965306,1.3323733,-3.3220794,-8.13097,4.36136771409347636423,7.241862,-10.114903,-5.081693,-2.911501,-8.273075,4.3874571409347636437,10.147225,-16.197971,-6.42903,-1.9305475,-8.870038,3.71022991409347636460,7.477092,-15.993267,-4.950012,-0.6166341,-9.425092,2.63776611409347636461,4.2503066,-12.811374,-2.1158757,0.20632513,-9.6392975,1.79214241409347636463,0.9487024,-11.406575,1.6849195,0.63470966,-9.689139,1.37408191409347636492,0.6344634,-10.976816,-0.001795651,0.6984721,-9.686888,1.35894381409347636493,1.7369933,-10.936713,-2.2876596,0.6945555,-9.711246,1.17461191409347636498,1.7585411,-10.858303,-2.8496985,0.79670614,-9.740886,0.80671451409347636503,1.1665748,-10.564415,-1.8980033,0.89056677,-9.753776,0.49104341409347636525,1.371279,-9.60853,-1.3078327,0.91208196,-9.759311,0.307191971409347636525,2.777274,-8.098388,-1.7405846,0.9673536,-9.75759,0.155145561409347636535,3.8432922,-7.633912,-2.984971,1.1600299,-9.737555,-0.069219671409347636556,4.1216183,-8.548497,-4.2862196,1.4028372,-9.698772,-0.369122061409347636573,4.343082,-9.436746,-4.672883,1.7006707,-9.626072,-0.78540571409347636574,4.482544,-9.339182,-3.7547069,1.974572,-9.533644,-1.17519351409347636576,4.2544966,-8.670602,-2.315193,2.2401054,-9.439639,-1.43022271409347636583,3.9163153,-8.158242,-1.2785037,2.4653406,-9.368461,-1.52462021409347636599,3.6415808,-8.031948,-0.5674258,2.6449382,-9.32093,-1.51491881409347636604,3.2920272,-8.288726,-0.43035775,2.7808495,-9.292255,-1.446121409347636618,2.9939492,-8.879496,-0.59256494,2.8796995,-9.278227,-1.3387551409347636641,2.8006175,-9.689334,-0.9475053,2.9238293,-9.276028,-1.25576171409347636642,2.3989902,-10.411186,-1.541866,2.924552,-9.282529,-1.20499481409347636644,1.8686744,-10.861895,-2.0709844,2.8683536,-9.299001,-1.21307871409347636655,1.7663223,-10.8595,-2.5198972,2.755534,-9.324963,-1.27378251409347636667,1.9189527,-10.564415,-2.8287494,2.6401176,-9.343513,-1.37803081409347636689,1.7872716,-10.732608,-3.157952,2.5496647,-9.349184,-1.50412621409347636690,1.3461399,-11.455058,-3.3039982,2.4527743,-9.349571,-1.65522461409347636708,1.2234371,-11.605893,-3.5476084,2.3131986,-9.360133,-1.79092421409347636709,0.6440403,-11.227609,-2.8640637,2.172391,-9.366091,-1.9306671409347636716,-0.39145198,-10.933122,-2.7880478,1.9981292,-9.390213,-2.0004361409347636735,-1.8890251,-11.099519,-1.8441339,1.7508217,-9.424981,-2.06754351409347636737,-2.9813797,-11.335348,-0.5291186,1.3936943,-9.487192,-2.05455641409347636765,-3.4985273,-11.30961,0.25977087,0.9785376,-9.564539,-1.93195071409347636767,-3.335123,-10.672752,0.18375498,0.57824767,-9.636921,-1.72213591409347636768,-3.6326025,-10.506954,-0.79367787,0.20914924,-9.681699,-1.54639771409347636807,-4.1401734,-10.790069,-1.9961656,-0.14789544,-9.69649,-1.45827751409347636809,-4.5196543,-10.742185,-1.8974048,-0.5063038,-9.681729,-1.47585821409347636810,-4.598663,-10.032304,-1.1480197,-0.856836,-9.654802,-1.49030761409347636811,-4.3281183,-9.174581,-0.8074445,-1.1914406,-9.622983,-1.46596521409347636825,-3.6768951,-8.500014,-0.44592008,-1.4873732,-9.586078,-1.43710211409347636867,-3.1789012,-8.279149,-0.10115502,-1.7108713,-9.554638,-1.39721491409347636868,-2.9526494,-8.393473,0.30166942,-1.8698165,-9.535889,-1.31947881409347636869,-3.0071173,-8.761581,0.65301853,-1.9918554,-9.523015,-1.23089211409347636870,-2.5785553,-9.859921,0.7637503,-2.0940497,-9.515606,-1.11293671409347636871,-2.1033063,-10.381259,1.033098,-2.1262207,-9.522843,-0.98235571409347636891,-1.9297266,-10.8595,1.4957775,-2.110505,-9.541317,-0.82428521409347636892,-1.8243817,-11.281479,2.0452468,-2.0758784,-9.563732,-0.62939391409347636896,-1.7483658,-11.733384,2.5198972,-2.0255718,-9.587015,-0.39569151409347636904,-1.3215994,-11.951257,3.0226796,-1.9625735,-9.607127,-0.147687641409347636926,-1.0043676,-11.908759,3.0723593,-1.8716239,-9.625602,0.1233411361409347636927,-1.0893618,-11.742362,2.778471,-1.77465,-9.638092,0.358078121409347636936,-1.5352819,-12.041637,2.8377275,-1.70678,-9.64269,0.52517661409347636958,-2.107496,-13.011888,3.8774097,-1.6754873,-9.640042,0.657820341409347636959,-2.2307975,-13.592482,6.9479733,-1.6727921,-9.624299,0.86314421409347636964,-2.5905263,-13.705607,5.7909756,-1.6691941,-9.5720415,1.32671451409347636992,-3.9606082,-13.371616,0.95588505,-1.6859322,-9.513313,1.68073341409347636993,-4.84347,-12.680291,-1.2300211,-1.805276,-9.505217,1.60069221409347636997,-5.8005524,-12.508507,-1.8890251,-1.9936116,-9.494392,1.43261411409347637004,-6.2045736,-12.6354,-1.1288661,-2.2275221,-9.472587,1.21600021409347637027,-5.5497594,-12.8610525,-0.5955577,-2.4535713,-9.437057,1.04516261409347637029,-5.0882773,-14.016255,0.60094464,-2.6070204,-9.4093075,0.915831861409347637038,-7.171831,-15.76522,8.107366,-2.7017128,-9.386889,0.87030461409347637062,-7.3071036,-16.234484,13.385384,-2.8661642,-9.281698,1.34372351409347637064,-5.8005524,-15.307927,4.1401734,-2.8759274,-9.270508,1.39897661409347637065,-4.2538977,-13.202227,-3.807978,-3.0634172,-9.069877,2.12678481409347637087,-3.6421793,-12.878411,-3.7247794,-3.1723654,-9.117037,1.72805011409347637087,-3.2435448,-13.589489,-3.0029275,-3.225212,-9.160174,1.36366861409347637102,-2.5600002,-14.459183,-5.0439844,-3.1767015,-9.218638,1.04673031409347637104,-1.6047137,-13.90313,-6.5403605,-3.0502303,-9.29895,0.62932321409347637120,-0.7188591,-12.597093,-6.6187706,-2.8991756,-9.367326,0.135509711409347637137,-0.29149407,-12.397775,-5.865794,-2.7231688,-9.414655,-0.345043871409347637137,-0.16699557,-13.973758,-5.3396683,-2.5259862,-9.449229,-0.70840781409347637150,0.44472298,-17.219099,-4.882974,-2.3029022,-9.4807205,-0.991452041409347637170,2.2643163,-19.585768,-3.539827,-2.0334322,-9.523702,-1.15527891409347637171,5.3103395,-19.608511,-1.7250223,-1.6638088,-9.590535,-1.19322071409347637186,6.7845693,-19.608511,1.7340006,-1.1408296,-9.67635,-1.11227681409347637187,3.8660371,-17.484257,-1.6077064,-0.5549255,-9.757395,-0.80976741409347637200,0.7793127,-14.132374,-5.41329,-0.19367431,-9.773314,-0.784358261409347637204,0.19093758,-13.192051,-6.5870476,-0.09116963,-9.750734,-1.04175071409347637218,1.6352397,-11.645397,-5.005677,-0.03963088,-9.70586,-1.40181731409347637233,3.5793316,-9.825205,-3.3225534,0.06887071,-9.663463,-1.66827931409347637236,5.5563436,-7.9691005,-2.6048915,0.26692075,-9.633489,-1.81523041409347637251,6.4523735,-5.9621606,-2.6390088,0.60546035,-9.602898,-1.89423561409347637267,6.3500214,-4.518457,-2.783858,1.0421752,-9.5499115,-1.97064541409347637268,5.018845,-4.268862,-3.8313212,1.5019169,-9.469712,-2.05892281409347637284,3.5488055,-4.4759603,-4.9679685,1.8503327,-9.364956,-2.24594351409347637285,2.35769,-4.6645036,-5.218761,2.0508828,-9.24496,-2.54852771409347637299,1.525705,-4.5914803,-4.1413703,2.1428092,-9.127326,-2.87588331409347637307,0.5967548,-4.951209,-3.0627825,2.145556,-9.042779,-3.12970971409347637343,0.035913024,-4.7907977,-0.87807345,2.0448804,-9.00801,-3.2931181409347637344,0.729633,-5.2181625,0.919972,1.9219083,-9.053266,-3.24269251409347637347,2.1362264,-5.0427876,0.22505496,1.8938041,-9.148826,-2.9804241409347637348,3.9707835,-4.581305,-1.127669,2.0347817,-9.18226,-2.777811409347637385,5.0930657,-3.8007953,-2.098518,2.3848639,-9.114152,-2.72306131409347637386,5.7269306,-3.1106665,-2.6874914,2.852419,-8.958143,-2.79030011409347637387,6.377555,-2.486977,-2.895787,3.4050455,-8.721978,-2.91601131409347637389,6.578069,-1.8674773,-3.1543608,4.0176425,-8.402473,-3.07040881409347637425,6.9892735,-1.246182,-3.5595794,4.6194367,-8.008957,-3.26921821409347637426,6.8611836,-1.401805,-3.994127,5.223953,-7.5196958,-3.51210621409347637428,6.6271505,-2.0685902,-4.324527,5.7215185,-7.0129843,-3.7752691409347637429,6.8240733,-2.6372132,-4.3317094,6.0837007,-6.557921,-4.0190361409347637437,6.6804214,-4.1922474,-3.5326445,6.36328,-6.1744556,-4.1898911409347637472,4.8937483,-8.878299,4.6339774,6.5427303,-5.969742,-4.2101361409347637473,-11.793239,-19.284697,19.608511,6.5723114,-6.524313,-3.2262121409347637474,-19.58457,-19.608511,17.943943,6.662839,-6.324607,-3.43166331409347637477,-19.60911,-19.608511,8.357559,6.735198,-6.0888247,-3.70590451409347637485,-18.76695,-19.015348,3.2794578,6.7171416,-5.9166574,-4.00544551409347637505,-11.669339,-10.821792,3.834314,6.6516314,-5.84166,-4.21915151409347637506,-8.472482,-7.183802,6.8641763,-3.5070283,-8.902341,2.14928941409347637519,-4.3101616,-7.244256,8.215105,-3.9919198,-8.609583,2.47185181409347637555,-0.97384155,-8.946533,6.190807,-4.0098863,-8.43464,2.99132821409347637557,3.12982,-10.875661,2.0374656,-3.696957,-8.449177,3.3338131409347637558,7.691373,-16.117765,-3.7894228,-3.074898,-8.7048235,3.30778551409347637559,7.460931,-15.82687,-5.8454432,-2.0338726,-9.215975,2.66450171409347637568,4.0880995,-11.321581,-4.5579615,-1.1267066,-9.559843,1.87358321409347637592,1.702876,-9.085397,-2.1990743,-0.61717826,-9.698252,1.31659051409347637593,0.81642276,-9.416994,-1.5173253,-0.38730946,-9.745738,1.02026891409347637597,0.6266823,-10.2178545,-3.1142578,-0.2530106,-9.771912,0.784929341409347637626,0.7691373,-10.460267,-3.9246953,-0.159426,-9.796758,0.41053431409347637627,0.43155485,-10.276512,-2.6940753,-0.051643386,-9.8065,0.0174281061409347637628,0.58298814,-10.053253,-1.0103531,0.012464637,-9.804121,-0.222420511409347637657,2.1110873,-9.458294,-0.6206968,0.07801526,-9.800657,-0.33380411409347637657,3.7343562,-8.819042,-1.335366,0.2646344,-9.794152,-0.418290881409347637658,4.1216183,-9.297882,-2.304419,0.57371587,-9.775588,-0.528306661409347637666,3.7535098,-10.023325,-3.091513,0.9130789,-9.738899,-0.700396361409347637688,3.247136,-10.020931,-3.5093012,1.196036,-9.688797,-0.931181971409347637689,3.0735564,-9.388264,-2.8892028,1.419464,-9.631399,-1.17968621409347637698,2.8963854,-8.778939,-1.7004818,1.6035503,-9.580314,-1.34781861409347637725,2.5582044,-8.572439,-0.7870938,1.7541975,-9.546982,-1.39582661409347637726,2.1577742,-8.665813,-0.2669535,1.862381,-9.53214,-1.35656711409347637726,1.8986019,-8.8328085,-0.05805939,1.9257098,-9.532372,-1.26329971409347637738,1.763928,-9.269751,-0.30286652,1.9517508,-9.5409565,-1.15378371409347637770,1.7531542,-9.921572,-0.7062895,1.9590237,-9.550583,-1.05783561409347637773,1.7860745,-10.380061,-0.88166475,1.9519091,-9.558309,-0.999600231409347637774,2.0572178,-10.146626,-1.3934253,1.9429841,-9.5645485,-0.95637021409347637779,2.005144,-10.0987425,-2.8616695,1.9632046,-9.5595255,-0.965244951409347637785,1.5508442,-10.101137,-5.590461,1.9735786,-9.541791,-1.10888181409347637802,1.1139023,-10.131064,-6.1507044,1.9252235,-9.498521,-1.49733761409347637817,-0.079008654,-10.175956,-5.771822,1.8219668,-9.44455,-1.91083361409347637822,-1.3431472,-10.30225,-4.132392,1.5992709,-9.407323,-2.2616481409347637844,-1.9788077,-10.396222,-1.5622166,1.2871983,-9.409968,-2.4425371409347637846,-2.8951883,-10.347141,-0.2777274,0.9341851,-9.45841,-2.41581921409347637846,-3.5901055,-9.952697,0.45609543,0.5393454,-9.518096,-2.29898791409347637874,-3.4530375,-9.712079,0.3441665,0.14287323,-9.577848,-2.10114651409347637875,-3.0454245,-10.023325,-0.17357962,-0.2013447,-9.620091,-1.89305891409347637879,-2.6539726,-10.564415,-0.5363012,-0.4815911,-9.642579,-1.72020411409347637885,-2.790442,-10.650007,-0.724246,-0.68543667,-9.651816,-1.59468091409347637904,-3.3488896,-10.459669,-0.8726865,-0.88360745,-9.652939,-1.4867421409347637916,-3.4733882,-10.118495,-0.6464345,-1.0989579,-9.640346,-1.42352251409347637917,-2.992752,-9.763555,-0.20350714,-1.3023993,-9.62294,-1.36865571409347637939,-2.4025815,-9.706094,0.43275195,-1.4528599,-9.610536,-1.30277191409347637940,-2.006341,-9.648633,0.729633,-1.5451211,-9.609751,-1.19820381409347637945,-1.6795325,-9.73662,0.7110779,-1.5948867,-9.615883,-1.07774271409347637971,-1.5951369,-10.22384,0.55365914,-1.6054598,-9.627016,-0.955732461409347637973,-1.4586674,-11.027095,0.6278794,-1.5957769,-9.639103,-0.84354751409347637977,-1.6130934,-11.85489,0.5674258,-1.5622125,-9.65426,-0.724656941409347637985,-1.6412252,-12.000936,0.62129533,-1.5318837,-9.666425,-0.61965171409347638011,-1.38325,-11.7681,0.8523358,-1.5076836,-9.676188,-0.51832831409347638012,-1.0654198,-11.716026,1.2671312,-1.4740938,-9.686628,-0.40824531409347638018,-1.2036849,-11.64839,1.7597382,-1.4250985,-9.698676,-0.274185781409347638046,-1.0408791,-11.871649,3.9031472,-1.3935324,-9.706389,-0.120243171409347638047,0.12150574,-11.798626,8.27077,-1.3475319,-9.711528,0.201970441409347638048,1.0354922,-11.3323555,13.074137,-1.2135627,-9.694382,0.84654731409347638078,0.17477672,-11.179127,10.105327,-1.0275012,-9.583755,1.80728591409347638078,-2.5258827,-11.586141,0.2896984,-0.9293249,-9.452783,2.4395951409347638079,-3.934272,-12.798205,-3.9121256,-1.0391905,-9.469431,2.3281591409347638087,-4.4795513,-13.504495,-4.44304,-1.2175293,-9.53068,1.96319571409347638107,-4.736928,-13.35785,-4.9787426,-1.3990458,-9.582452,1.54585911409347638108,-5.33488,-12.862848,-3.3279405,-1.5955116,-9.622712,1.01398321409347638120,-4.5459905,-13.044808,-2.8137856,-1.8445746,-9.610672,0.63474751409347638134,-3.9384618,-13.094487,-2.593519,-2.0147748,-9.594508,0.237617511409347638149,-4.4597993,-13.029245,0.75716627,-2.1259103,-9.5731535,-0.074971361409347638149,-6.0519433,-14.572309,8.048109,-2.254847,-9.543866,-0.0266518611409347638166,-5.7682304,-16.71871,15.816096,-2.4441502,-9.47775,0.60727381409347638166,-3.5260606,-16.919226,10.776301,-2.4567845,-9.473042,0.6293531409347638181,-2.7246015,-14.923059,1.2551602,-2.4882796,-9.211717,2.2634331409347638186,-2.4349031,-13.206416,-2.3642743,-2.5144107,-9.236995,2.12744881409347638199,-3.2333694,-13.570335,-2.5701754,-2.4983401,-9.296121,1.87372651409347638215,-3.4638114,-12.99034,-4.759673,-2.512767,-9.347715,1.57372581409347638217,-2.8999767,-11.740566,-6.761824,-2.518807,-9.409804,1.13206281409347638233,-2.5899277,-10.387244,-7.0688806,-2.5324485,-9.456885,0.56957981409347638247,-2.2619221,-11.16117,-5.931635,-2.5571437,-9.467387,0.002763621409347638248,-1.6460136,-12.509106,-3.7600937,-2.5337949,-9.463537,-0.437863021409347638262,0.49559975,-18.347366,-2.665345,-2.4466584,-9.473582,-0.65993871409347638265,2.9735985,-19.608511,-0.6266823,-2.1324615,-9.544059,-0.730717241409347638279,6.3009405,-19.608511,2.7682958,-1.6842715,-9.639174,-0.64802261409347638286,7.3549876,-18.783709,1.9620483,-1.076479,-9.741729,-0.332083851409347638299,4.2718544,-14.5088625,-0.9648633,-0.4743246,-9.794651,-0.101303491409347638313,1.6101006,-13.222577,-3.4261026,-0.12877777,-9.805099,-0.117486571409347638321,0.65541273,-12.4312935,-5.829881,0.03129998,-9.800291,-0.35173841409347638349,0.7194576,-11.062409,-6.3793507,0.103174835,-9.777223,-0.75211371409347638350,1.9428947,-9.698911,-5.553351,0.14329058,-9.739474,-1.1368881409347638351,3.6894648,-8.358158,-4.0934863,0.26061815,-9.694177,-1.4578831409347638374,3.9534256,-7.1089835,-3.8540661,0.4809452,-9.652973,-1.66107211409347638375,3.3141737,-6.495469,-1.7956513,0.73315823,-9.601203,-1.85736161409347638377,3.3734303,-6.637326,-1.6328455,0.9603179,-9.573845,-1.89465641409347638386,3.2399535,-6.2009826,-4.4873323,1.1966938,-9.546068,-1.9002381409347638399,2.866458,-6.517017,-5.9465985,1.399556,-9.467995,-2.1374571409347638414,3.1651347,-6.205172,-3.2992098,1.5587171,-9.361768,-2.46942971409347638419,2.3600843,-5.5497594,-3.857059,1.7472794,-9.298062,-2.58136441409347638433,1.5442601,-5.085284,-1.5143325,1.8522882,-9.2196245,-2.78171681409347638448,1.3030443,-4.593276,0.63087213,1.8580074,-9.205241,-2.82520481409347638449,1.073201,-4.213795,-1.685518,1.8780124,-9.248023,-2.66787771409347638464,1.1701661,-3.982156,-2.758719,1.882676,-9.225725,-2.74078821409347638465,1.9626468,-3.4644098,-2.0386627,1.9073918,-9.1683445,-2.91096521409347638480,3.2453403,-2.4791958,-1.9829975,2.0655177,-9.106317,-2.99650531409347638498,4.5166616,-1.977012,-2.284667,2.397072,-8.9833765,-3.1182381409347638499,5.542577,-1.9129672,-2.3852234,2.89048,-8.779017,-3.27786371409347638514,6.217742,-1.3227965,-2.6868927,3.5035186,-8.491919,-3.43265221409347638517,6.4368114,-1.0702082,-3.3399115,4.2044497,-8.0959835,-3.59834361409347638529,5.801151,-1.441908,-3.3889925,4.8688626,-7.6036057,-3.82750321409347638547,5.378574,-1.3311762,-3.4290953,5.365909,-7.147146,-4.03679471409347638547,5.2474914,-1.3922282,-2.6312277,5.7646446,-6.701216,-4.2465231409347638562,4.6495395,-3.1747115,-2.4720132,6.126005,-6.313143,-4.33436251409347638565,4.2000284,-6.171055,-2.3080103,6.2765293,-6.1701374,-4.32492831409347638580,-6.1584854,-15.985486,14.149732,6.2022576,-6.3324428,-4.195541409347638599,-17.425,-19.608511,19.608511,6.3005004,-6.127335,-4.35084631409347638599,-19.60911,-19.608511,19.608511,6.3911886,-5.893508,-4.5375871409347638613,-19.412786,-19.608511,12.764687,6.38023,-5.733228,-4.75322441409347638634,-11.007941,-13.752893,3.787627,6.235439,-5.656705,-5.02905651409347638635,-7.271789,-6.6882024,4.4382515,-3.360149,-8.557371,3.41338591409347638637,-5.0613422,-4.9338512,6.872556,-3.8843236,-8.354957,3.3581391409347638646,-0.8367735,-7.149685,5.8681884,-4.086465,-8.133492,3.64931541409347638669,4.730344,-16.550518,0.20829555,-3.806618,-8.136173,3.93481331409347638669,10.373477,-19.608511,-3.0256724,-2.886336,-8.662424,3.5779691409347638678,10.044274,-18.31684,-1.3425486,-2.9902568,-8.628719,3.57406831409347638709,2.7808652,-13.2668705,5.0002904,-0.49729982,-9.486134,2.43646261409347638710,-3.930082,-9.34038,-3.4847605,-0.16637744,-9.458704,2.58372711409347638711,-2.681506,-7.934983,-9.006987,-0.4442118,-9.563055,2.12627841409347638756,-1.5286977,-7.1849995,-2.7006595,-0.65955144,-9.707062,1.22814131409347638763,0.57400984,-2.8844144,0.44232875,-0.7473498,-9.732587,0.94266021409347638764,1.2635399,-3.755904,-0.18435353,-0.66224957,-9.73556,0.975022851409347638769,2.9879637,-4.670489,-0.5650316,-0.5058239,-9.752664,0.89447751409347638770,5.1379566,-6.2500634,-1.3874398,-0.13620412,-9.779637,0.71452721409347638772,6.2225304,-8.758589,-2.5121162,0.46251142,-9.785596,0.44561671409347638804,5.846042,-10.703877,-3.5703533,1.1160501,-9.742354,0.106465991409347638805,5.1080294,-11.568184,-4.0880995,1.6505262,-9.662319,-0.292781771409347638805,4.730344,-11.142016,-4.0677485,2.0120783,-9.574262,-0.674891351409347638806,3.9348705,-10.788872,-3.4859576,2.3028812,-9.47863,-1.01127611409347638843,3.435081,-10.754155,-2.5965118,2.4655075,-9.408706,-1.25216631409347638845,2.7210102,-10.617087,-1.927931,2.5460975,-9.368035,-1.38840961409347638846,2.086547,-10.360908,-1.4634558,2.5466597,-9.358152,-1.45254861409347638847,1.697489,-10.4488945,-1.4945804,2.4896393,-9.371335,-1.46634331409347638871,1.3826514,-10.990582,-1.8968062,2.3956075,-9.395422,-1.46885911409347638871,1.1659763,-11.473613,-2.0380642,2.270653,-9.420929,-1.503531409347638877,1.1857284,-10.996569,-2.1021092,2.134755,-9.452712,-1.50314431409347638902,1.168969,-10.017939,-2.1284454,2.0208848,-9.477558,-1.50408711409347638903,0.9708488,-9.424775,-2.2505496,1.9309664,-9.494796,-1.51348211409347638906,1.1174936,-9.113529,-2.255338,1.8401146,-9.507202,-1.54838681409347638945,0.44113165,-9.546281,-2.9771898,1.7797368,-9.509708,-1.60260421409347638946,-0.18076223,-9.718064,-2.8407204,1.6544722,-9.5102415,-1.72869781409347638947,-0.98102415,-9.850345,-3.064578,1.4817055,-9.518116,-1.83858141409347638948,-2.7281928,-10.1699705,-5.121197,1.2385656,-9.530895,-1.94893921409347638974,-7.542334,-12.30081,-2.9550436,0.8268115,-9.51179,-2.23888371409347638975,-6.297349,-11.049839,-0.50757074,-0.004897709,-9.547385,-2.24003531409347638978,-4.631583,-9.69532,-0.009576807,-0.6312965,-9.55358,-2.1215521409347639009,-3.578733,-8.459313,0.15981296,-1.0433552,-9.531017,-2.05948161409347639010,-2.8904,-8.165425,-0.65301853,-1.2944734,-9.519532,-1.96806131409347639011,-2.8161798,-9.173384,-1.6867151,-1.448635,-9.508739,-1.91199681409347639042,-2.4073699,-10.1226845,-1.4945804,-1.5681218,-9.487134,-1.92502241409347639044,-1.8148049,-10.579379,-1.0893618,-1.6246266,-9.485811,-1.88423731409347639045,-1.596334,-10.604518,-1.0749966,-1.6148967,-9.503388,-1.80225051409347639047,-1.3323733,-10.505158,-0.9624691,-1.590224,-9.521392,-1.72761991409347639073,-1.127669,-10.766127,-0.7757214,-1.5441768,-9.540964,-1.66008951409347639073,-0.825401,-10.939108,-0.35793316,-1.4841286,-9.561896,-1.59307351409347639080,-0.97982705,-11.241974,0.08140286,-1.4075326,-9.588852,-1.49772631409347639101,-0.88525605,-11.481394,0.682946,-1.3546187,-9.615937,-1.36717451409347639101,-0.46447513,-11.785458,2.0368671,-1.2961323,-9.648105,-1.18511761409347639119,0.52073884,-11.764508,4.9099092,-1.2111893,-9.689451,-0.90439741409347639120,1.7118542,-11.538257,8.793304,-1.0562413,-9.741427,-0.399158331409347639126,2.070386,-11.544841,10.86788,-0.81483227,-9.765313,0.38088881409347639155,1.0163386,-11.734581,11.689092,-0.5675222,-9.711592,1.2382521409347639156,-0.12330139,-11.585542,8.751406,-0.45423546,-9.574167,2.07348971409347639159,-1.6178818,-10.621876,1.6274586,-0.47168812,-9.433739,2.6367551409347639167,-2.4546554,-9.959281,-3.4650085,-0.5919225,-9.442687,2.57985881409347639188,-3.1723173,-10.679337,-6.670246,-0.7403359,-9.51961,2.23591161409347639189,-4.9015293,-12.340913,-8.020576,-0.89830494,-9.636438,1.58191911409347639221,-6.739678,-13.921684,-3.6140475,-1.169293,-9.706182,0.77018681409347639222,-6.4978633,-14.173674,-1.8710686,-1.5560572,-9.675439,0.367370551409347639222,-5.565322,-12.811374,-1.4646529,-1.8811378,-9.623992,0.102416711409347639226,-4.264672,-11.972205,-0.22984336,-2.131646,-9.571568,-0.107559631409347639249,-4.350863,-12.944251,1.4999673,-2.2730782,-9.538317,-0.15496671409347639250,-4.68665,-15.063719,4.8817773,-2.3757155,-9.514469,-0.0353618231409347639260,-3.7774518,-16.973095,11.602302,-2.4571095,-9.487202,0.354957941409347639290,-3.268684,-18.23364,14.788385,-2.4142644,-9.431849,1.17556581409347639291,-3.6116533,-16.919823,7.49026,-2.4581454,-9.422261,1.16142371409347639292,-4.259285,-14.1347685,-1.1761516,-2.3055797,-9.240595,2.337971409347639298,-4.7189717,-11.78486,-4.563947,-2.4255376,-9.262798,2.11842511409347639317,-4.144363,-11.285069,-2.920926,-2.5974555,-9.299305,1.7165491409347639320,-3.4009635,-11.7860565,-2.369661,-2.6895542,-9.324348,1.41181911409347639327,-2.6162639,-12.522872,-4.425682,-2.696021,-9.355891,1.17010441409347639346,-1.6280571,-11.835736,-6.6469026,-2.653134,-9.410526,0.75711371409347639346,-0.7954735,-11.513118,-7.152079,-2.5748897,-9.459833,0.227794621409347639361,-0.33638534,-12.106281,-6.4523735,-2.457292,-9.488222,-0.32520171409347639383,0.08499416,-12.958616,-5.3636103,-2.2933018,-9.502871,-0.778855561409347639384,0.8984242,-16.4338,-3.9983168,-2.093834,-9.519659,-1.07811321409347639387,2.5779567,-19.608511,-1.8088194,-1.822079,-9.561415,-1.1957261409347639399,5.683835,-19.608511,4.496909,-1.4378093,-9.635233,-1.12489831409347639420,7.358579,-19.479824,5.1182046,-0.8836419,-9.746193,-0.63348911409347639421,4.7896004,-15.5120325,0.08259996,-0.27780923,-9.80152,-0.153021991409347639427,2.0260932,-13.56016,-3.5984852,0.0908461,-9.805813,-0.0905675741409347639469,0.9923966,-12.773664,-7.0066314,0.24309944,-9.798156,-0.327770651409347639471,0.8984242,-11.773487,-7.3112936,0.29907033,-9.76929,-0.801191871409347639473,1.7699136,-10.733805,-6.7642183,0.33024904,-9.719482,-1.26212421409347639474,2.8281507,-9.27394,-4.8267107,0.41322803,-9.658801,-1.64534741409347639479,2.5360582,-7.1664443,-3.3770216,0.5629615,-9.6100025,-1.87118151409347639512,1.6011224,-5.8107276,-1.553837,0.7148564,-9.571077,-2.0134191409347639514,2.0925324,-5.889736,-4.2419267,0.8026504,-9.563167,-2.01791621409347639516,3.140594,-6.5499372,-6.0411696,0.9281147,-9.509443,-2.20895341409347639569,3.2124202,-6.7450647,-5.105635,1.1446882,-9.4084635,-2.5181191409347639570,2.3870192,-6.655881,-3.4889505,1.3684675,-9.312294,-2.7529761409347639570,1.447295,-6.10701,-1.8896236,1.4751459,-9.252108,-2.89703971409347639571,0.98581254,-5.0493712,-0.49200845,1.4615235,-9.245525,-2.92482381409347639572,1.2162545,-3.957017,-1.055843,1.4559367,-9.270572,-2.84729741409347639572,1.9093759,-3.1358056,-1.0749966,1.4787772,-9.263495,-2.85854361409347639578,2.6036944,-2.6390088,-2.7096379,1.6247013,-9.2315445,-2.88258671409347639597,3.5422213,-2.154183,-2.979584,1.8682606,-9.120763,-3.0808631409347639599,4.609437,-1.8866309,-2.6072857,2.2376583,-8.953937,-3.31516271409347639613,5.6700683,-1.1653777,-2.753332,2.7481067,-8.736675,-3.50554041409347639635,6.229114,-0.4249708,-2.6659436,3.4011362,-8.411478,-3.721521409347639636,6.6109896,-0.004788403,-2.7802668,4.1278944,-7.990641,-3.90903231409347639638,7.0275807,0.033518825,-2.7449522,4.883396,-7.4515676,-4.09841161409347639646,6.9048777,-0.6805518,-2.6797101,5.6263976,-6.8361516,-4.2167641409347639662,6.506243,-1.8908207,-2.9322984,6.220698,-6.2741284,-4.25542641409347639683,5.629367,-5.1756654,-2.695871,6.603113,-5.8575225,-4.27302271409347639684,4.5142674,-9.715671,-0.28909984,6.6642137,-5.8602095,-4.17331551409347639687,-8.272566,-19.145233,18.84117,6.4432597,-6.410688,-3.68210391409347639719,-19.02313,-19.608511,19.608511,6.560485,-6.205287,-3.8242451409347639720,-19.60911,-19.608511,17.88768,6.6851892,-5.947992,-4.01248071409347639725,-19.57619,-19.563622,6.439804,6.753646,-5.701371,-4.24888561409347639727,-11.862671,-9.83957,-0.3824737,6.6794415,-5.5580597,-4.54570151409347639750,-10.256162,-4.5801077,3.6415808,-3.439422,-8.723733,2.8700621409347639750,-7.9667063,-5.777209,7.6560583,-4.2938256,-8.351327,2.8264441409347639759,-2.6880898,-8.395866,5.281609,-4.679229,-8.044775,3.0914091409347639792,2.5953147,-12.441469,0.9163807,-4.45246,-8.100513,3.2753121409347639793,7.5094137,-18.061857,-1.6657659,-3.756223,-8.503148,3.12372521409347639794,9.547478,-18.516756,-3.3369186,-2.608244,-9.0683565,2.6706441409347639823,7.5429325,-12.695853,-3.132813,-1.4058257,-9.471908,2.11589671409347639824,4.300585,-9.372701,-1.9728222,-0.568551,-9.640896,1.70301911409347639825,1.4999673,-8.727464,-1.5987282,-0.10245237,-9.702647,1.42074821409347639827,0.86131406,-8.696339,-2.4361002,0.05398381,-9.73852,1.15269351409347639854,0.70509243,-8.6017685,-2.3391352,0.1291653,-9.772284,0.81006611409347639855,1.1959038,-9.279327,-1.2515689,0.18825711,-9.791295,0.515258971409347639861,1.9327193,-10.425551,-0.43993455,0.3026989,-9.796186,0.33690321409347639882,2.5905263,-10.092757,-0.6835446,0.45932198,-9.79254,0.25609251409347639883,3.0095115,-9.112331,-0.9008184,0.6581108,-9.783319,0.154740481409347639887,2.8886044,-8.823831,-1.3700819,0.8902542,-9.766071,0.041314011409347639910,2.6300306,-8.750807,-1.9267339,1.1012428,-9.744118,-0.099273441409347639910,2.5516205,-8.491635,-2.067393,1.2816348,-9.718548,-0.278643341409347639933,2.5474305,-8.1642275,-1.9548657,1.4432542,-9.689138,-0.456073221409347639934,2.574964,-8.344392,-1.7058687,1.5869321,-9.658069,-0.61136431409347639939,2.3409307,-9.042301,-1.4628572,1.7200241,-9.62726,-0.726460751409347639947,1.6543933,-9.891046,-1.3605051,1.8086925,-9.604481,-0.808059451409347639965,0.8331822,-10.372879,-1.3174095,1.8132749,-9.59806,-0.87160751409347639968,0.18435353,-10.8385515,-1.3694834,1.7318801,-9.608466,-0.92107971409347640009,-0.2088941,-11.34253,-1.5502456,1.5809809,-9.630691,-0.95952891409347640011,-0.36032736,-11.313202,-1.827973,1.3892274,-9.656527,-0.99598091409347640012,-0.5081693,-10.821792,-1.9183542,1.1954715,-9.6760645,-1.05594591409347640016,-0.79846627,-10.307038,-1.8010383,1.0209181,-9.691435,-1.09737731409347640037,-1.0229226,-9.474455,-1.845331,0.8319326,-9.706832,-1.12056931409347640038,-1.2300211,-8.619126,-2.2732944,0.6466621,-9.716674,-1.15691961409347640041,-1.2521675,-8.429984,-2.6874914,0.45848233,-9.715343,-1.25391881409347640048,-1.1133038,-8.934562,-3.0107086,0.28054538,-9.702377,-1.39841951409347640076,-0.5722142,-9.234436,-3.205836,0.12553719,-9.679508,-1.56898771409347640078,0.78529817,-8.470087,-5.0266266,0.034039926,-9.649391,-1.74884391409347640080,-2.6396074,-9.486425,-2.3906105,0.07840426,-9.579277,-2.09803321409347640106,-3.8666358,-9.750985,-0.1316811,-0.20568448,-9.5642185,-2.15726521409347640108,-3.6469676,-10.197504,-0.07182605,-0.558691,-9.57338,-2.0514961409347640110,-2.6449943,-10.184336,-1.508347,-0.8354952,-9.575888,-1.94285611409347640131,-1.6101006,-9.361927,-2.918532,-0.9882573,-9.564613,-1.92663161409347640132,-0.46806642,-9.150639,-2.441487,-1.0353993,-9.534303,-2.04826931409347640139,-0.688333,-9.292496,-1.893215,-0.96241504,-9.524712,-2.1269771409347640160,-0.6607997,-9.36911,-1.5269021,-0.91720665,-9.526937,-2.13696121409347640161,-0.3453636,-9.585187,-1.2940661,-0.8891461,-9.536559,-2.10566951409347640182,-0.1328782,-9.920973,-1.1210849,-0.8242519,-9.555518,-2.04526421409347640183,-0.19692309,-10.257957,-0.9115923,-0.76266545,-9.578056,-1.96203721409347640187,-0.41000703,-10.629657,-0.60573304,-0.7153142,-9.600189,-1.86952021409347640219,-0.52373165,-10.99178,-0.24241292,-0.6859283,-9.623061,-1.75972011409347640222,-0.56563014,-11.221623,0.24061728,-0.66361094,-9.647764,-1.62808871409347640223,-0.6721721,-11.507132,0.66259533,-0.6481746,-9.675271,-1.46266781409347640227,-0.8912416,-12.050615,1.1755531,-0.64005643,-9.702974,-1.27005041409347640250,-1.6783354,-12.515091,1.2826935,-0.6537381,-9.728457,-1.04885791409347640252,-2.2798786,-12.629414,1.8124107,-0.728122,-9.743195,-0.842844371409347640259,-2.1996727,-11.951855,4.4220905,-0.8416943,-9.751208,-0.61308981409347640285,-2.2290018,-11.307216,7.5231805,-0.9500389,-9.758731,-0.187007551409347640286,-2.7712884,-12.197859,11.304223,-1.074303,-9.737324,0.448068471409347640287,-4.022857,-13.660716,11.499351,-1.2264769,-9.644181,1.28681331409347640320,-5.683236,-13.747506,3.7882257,-1.4415056,-9.495738,1.98075451409347640320,-5.8119245,-12.912528,-3.080739,-1.7626565,-9.440268,1.98615171409347640321,-4.4723687,-12.460623,-6.7731967,-2.045287,-9.451002,1.63270581409347640327,-3.38181,-13.090897,-7.053318,-2.1930957,-9.489872,1.14150751409347640364,-3.9653966,-13.592482,-4.638766,-2.2066698,-9.534074,0.63436881409347640366,-4.803367,-13.82831,-2.7964275,-2.2350705,-9.545632,0.236172851409347640368,-5.329493,-14.948797,-0.3429694,-2.3199718,-9.527967,-0.0772378441409347640370,-5.9825115,-16.898874,6.801927,-2.4419672,-9.496206,-0.170992821409347640379,-5.1265845,-18.525135,15.941194,-2.5536857,-9.463113,0.31399581409347640406,-3.2932243,-18.021755,13.967175,-2.5623193,-9.461325,0.29702891409347640408,-1.8728642,-16.05372,6.781576,-2.6040962,-9.449411,0.312619571409347640410,-1.4317327,-13.823522,0.480636,-2.3620038,-9.206326,2.4155581409347640444,-2.1296425,-12.9963255,-2.4666264,-2.3288746,-9.236056,2.33280831409347640448,-2.6791117,-12.9652,-3.3865983,-2.313065,-9.305242,2.05732581409347640449,-2.48159,-12.336124,-5.221754,-2.2940705,-9.38212,1.69807121409347640474,-1.7040731,-11.585542,-6.7809777,-2.281121,-9.459667,1.21720231409347640475,-1.4371196,-11.282676,-6.6522894,-2.2330406,-9.526039,0.66218181409347640475,-1.460463,-11.593323,-6.2901664,-2.1858535,-9.559218,0.117399471409347640492,-1.1450269,-13.198037,-5.9160724,-2.1262002,-9.566747,-0.356418071409347640493,-0.05805939,-17.249624,-4.976947,-2.025128,-9.56741,-0.73069741409347640516,2.2337902,-19.608511,-3.2866404,-1.818333,-9.589466,-0.95194711409347640517,5.3713913,-19.608511,1.4089876,-1.4658673,-9.645016,-0.99764681409347640522,5.609016,-18.76755,3.7972038,-0.9345818,-9.735024,-0.72542031409347640528,1.6364368,-14.586674,0.20590134,-0.4490806,-9.789442,-0.368172231409347640552,-0.6835446,-13.152547,-4.080917,-0.23738281,-9.798506,-0.32141691409347640553,-1.496376,-12.41214,-7.341221,-0.20960225,-9.786548,-0.591563641409347640559,-0.99778354,-11.349114,-7.9278,-0.28394526,-9.744648,-1.06376731409347640582,1.6992847,-9.436148,-5.348048,-0.35701954,-9.679094,-1.53558171409347640583,4.0641575,-7.318476,-3.8187518,-0.2609791,-9.634974,-1.8082011409347640588,4.2969937,-6.455366,-4.335301,0.018606208,-9.609831,-1.9547951409347640615,2.5264814,-5.54557,-4.4155064,0.3494732,-9.570713,-2.10944411409347640616,2.4139538,-5.57849,-3.53863,0.54126215,-9.514174,-2.31472091409347640619,2.2996306,-5.54557,-3.0029275,0.73068905,-9.465718,-2.45696191409347640628,1.8507179,-5.1277814,-2.123657,0.888679,-9.415451,-2.59420351409347640651,1.5969325,-4.8668137,-1.9680338,0.98784167,-9.380097,-2.68484071409347640652,1.30484,-4.8015714,-1.4628572,1.055409,-9.347611,-2.77104231409347640660,1.0360907,-4.3885717,-1.9578584,1.1058177,-9.333108,-2.80011581409347640682,1.4059949,-4.0306387,-1.7537527,1.1462214,-9.305909,-2.87343551409347640687,2.1027076,-3.7511156,-1.5059528,1.2345452,-9.277877,-2.92700151409347640688,3.0400376,-3.3746274,-1.5197195,1.4234798,-9.240753,-2.958481409347640729,4.035427,-3.0202854,-2.0069396,1.7309387,-9.173511,-3.00348851409347640730,5.145738,-2.544438,-1.9153614,2.1696398,-9.044149,-3.10909081409347640731,5.7748146,-2.2068555,-2.4253263,2.7651691,-8.847777,-3.20016861409347640731,6.3003416,-1.8830396,-2.8640637,3.4254947,-8.559726,-3.34177831409347640739,6.467936,-1.8321629,-2.806603,4.114432,-8.17696,-3.51840691409347640776,6.3380504,-1.7591397,-3.1681273,4.7644525,-7.75338,-3.6545171409347640777,6.1195793,-2.0524294,-3.0621839,5.3126235,-7.3117647,-3.80586121409347640778,6.281787,-2.4720132,-2.883816,5.7594695,-6.897358,-3.92751261409347640789,6.579865,-3.7606924,-3.0639796,6.145808,-6.524783,-3.9782731409347640791,6.7648168,-7.215525,-2.5408466,6.4195924,-6.254543,-3.9799371409347640809,-3.9324763,-16.861166,14.346655,6.483749,-6.3054914,-3.79106281409347640809,-13.99351,-19.608511,19.294872,6.629582,-6.0766797,-3.91062931409347640824,-19.487604,-19.608511,18.262371,6.7957673,-5.7961187,-4.04882051409347640828,-19.60911,-19.608511,6.6403184,6.901096,-5.541355,-4.22357941409347640840,-19.053057,-16.968306,3.7044287,6.8798,-5.379758,-4.46059941409347640858,-9.318831,-3.1729157,4.735132,6.7655287,-5.320374,-4.70017151409347640859,-8.697536,-4.581305,7.2394676,-4.0200553,-8.443659,2.95197941409347640876,-4.945224,-6.766014,6.2620344,-4.624291,-8.046263,3.16922431409347640891,-0.023343466,-7.129334,-0.28311434,-4.626366,-7.9473004,3.40698271409347640891,4.6680946,-9.351153,-7.752425,-4.279532,-8.185154,3.2953411409347640909,8.669404,-14.772224,-8.106169,-3.5936673,-8.775974,2.4976411409347640909,8.922591,-15.681422,-5.7502737,-2.3639889,-9.401297,1.4824231409347640925,7.4375877,-12.132018,-3.2321723,-1.1809423,-9.703806,0.782258031409347640928,4.146757,-12.512098,1.2569559,-0.295695,-9.793127,0.421450821409347640947,0.09935937,-14.353239,3.2728736,0.1859332,-9.793381,0.474898341409347640948,0.6452374,-11.847109,-0.8110358,0.21317309,-9.782952,0.64712951409347640960,2.1529858,-9.578004,-2.1883004,0.24202685,-9.793593,0.444250671409347640984,2.6916811,-8.363545,-2.2319946,0.38975188,-9.796642,0.210433141409347640985,2.5845408,-7.6129627,-1.9937714,0.5971155,-9.788449,0.0117073891409347640988,2.392406,-7.203554,-2.0644004,0.80219626,-9.772732,-0.14351651409347641014,2.2307975,-7.53575,-2.3702598,0.99822897,-9.749945,-0.335406271409347641015,2.183512,-8.15525,-2.7162218,1.1695453,-9.720166,-0.566510441409347641020,1.9997569,-8.544906,-2.7940333,1.3136145,-9.684264,-0.81231361409347641039,1.9147629,-8.672397,-2.6856956,1.4169538,-9.648564,-1.03335341409347641039,2.0925324,-8.865729,-2.1350293,1.491429,-9.616323,-1.21340371409347641054,2.3391352,-9.176376,-1.2336124,1.5684836,-9.590172,-1.3186651409347641061,2.148796,-9.767744,-0.65062433,1.657992,-9.574518,-1.32290161409347641081,0.90620536,-11.104307,-0.62129533,1.7237887,-9.572031,-1.25505091409347641082,0.6841431,-11.639412,-1.2976574,1.6443247,-9.595794,-1.1778661409347641088,0.83737206,-12.016499,-1.8884265,1.5463977,-9.613612,-1.16513281409347641111,1.2114661,-12.060791,-2.4947581,1.4616297,-9.623125,-1.1956361409347641112,1.1270704,-11.945869,-3.7014358,1.4129021,-9.621523,-1.26508311409347641127,1.0462662,-11.514913,-4.920683,1.3627083,-9.60613,-1.42678871409347641128,1.3263878,-10.608707,-5.727529,1.3097391,-9.572041,-1.68256381409347641140,1.3000516,-9.755774,-6.191406,1.2800299,-9.512072,-2.01305441409347641159,-0.33279404,-9.846753,-4.219182,1.2533069,-9.433696,-2.36749891409347641160,-1.1719618,-9.664195,-2.1440077,1.0711739,-9.408664,-2.54950981409347641172,-1.6627731,-9.783307,-0.073023155,0.83862466,-9.424105,-2.57941751409347641190,-2.3876176,-9.849746,0.8870517,0.59363943,-9.478122,-2.44605111409347641191,-3.1381998,-9.59177,0.9720459,0.32169017,-9.5518055,-2.1977131409347641205,-3.436278,-9.360131,0.8050503,0.008359832,-9.6177025,-1.91575121409347641208,-3.0322564,-8.971672,0.42437226,-0.30751112,-9.65956,-1.66394671409347641223,-2.5899277,-8.552687,0.012569559,-0.5777376,-9.680872,-1.45511461409347641236,-2.349909,-8.519767,-0.27832595,-0.7882728,-9.685792,-1.31698861409347641241,-2.0165164,-8.6574335,-0.3788824,-0.95737994,-9.681835,-1.23122351409347641270,-1.5682021,-8.837597,-0.4429273,-1.0713793,-9.677032,-1.17371181409347641271,-1.2862848,-8.937555,-0.44951138,-1.1279724,-9.6752615,-1.13463351409347641271,-1.2671312,-8.981848,-0.2741361,-1.1506866,-9.67582,-1.10671391409347641295,-1.371279,-8.954314,-0.046686932,-1.1661203,-9.678215,-1.06898071409347641296,-1.3724761,-8.942942,0.044292733,-1.1923403,-9.68213,-1.00253871409347641306,-1.2689269,-8.949526,0.15801731,-1.2162265,-9.684675,-0.94775371409347641313,-1.1563994,-9.2547865,0.40402153,-1.233051,-9.688309,-0.886927251409347641353,-1.2785037,-9.989806,0.7751228,-1.2372057,-9.695342,-0.800038641409347641354,-1.3467385,-10.8385515,0.99419224,-1.2437056,-9.703963,-0.67579031409347641354,-1.2976574,-11.632828,1.2006922,-1.2435321,-9.712894,-0.53262981409347641355,-1.364695,-12.212823,1.2946646,-1.2289766,-9.721837,-0.381962841409347641385,-1.2898762,-12.320562,1.3784616,-1.2157872,-9.727964,-0.242823841409347641385,-1.1282675,-12.175115,1.6915035,-1.1996073,-9.732365,-0.111451081409347641386,-0.84694886,-11.844116,2.582745,-1.1756898,-9.735871,0.0305325021409347641388,-0.59256494,-11.273099,4.1772833,-1.1373432,-9.737744,0.230625751409347641403,-1.0642227,-11.382035,6.671443,-1.0923489,-9.730624,0.54048551409347641408,-2.818574,-12.377424,7.997831,-1.0993229,-9.6907835,1.02498221409347641426,-5.005677,-13.153744,5.4527946,-1.2439383,-9.599487,1.57252551409347641436,-6.579266,-13.613431,-0.30585927,-1.5320079,-9.50031,1.88876761409347641440,-6.0627174,-12.990938,-3.927688,-1.8847973,-9.475799,1.681411409347641454,-5.514445,-13.772047,-3.3716345,-2.163586,-9.474906,1.30975811409347641460,-4.895544,-14.721348,-2.8772318,-2.335766,-9.473256,0.98591021409347641471,-5.3085437,-14.8117285,-2.1092918,-2.408184,-9.482709,0.670280641409347641489,-6.974908,-15.33127,0.24899697,-2.5140278,-9.47001,0.411040781409347641489,-8.132504,-17.16463,9.502586,-2.7241318,-9.414646,0.337559941409347641503,-7.0904284,-19.495985,19.43972,-2.9256973,-9.3136015,0.931401131409347641508,-4.8344917,-16.97908,7.78355,-2.9486842,-9.307795,0.91683551409347641524,-3.1124623,-12.660539,-3.264494,-2.9448588,-9.050932,2.3619531409347641549,-2.8496985,-12.07336,-3.5122938,-3.004666,-9.103943,2.06411461409347641549,-2.8760347,-12.943653,-6.211158,-3.0161173,-9.165649,1.75051311409347641550,-1.6681601,-12.288838,-8.374319,-2.9475524,-9.271303,1.23500861409347641572,-0.7266402,-10.429143,-8.146272,-2.8267603,-9.372622,0.57771981409347641573,-0.76195467,-10.972627,-5.928642,-2.7127004,-9.423871,-0.0480161351409347641589,-0.98820674,-11.724405,-4.274847,-2.587348,-9.447966,-0.46044251409347641590,-0.5267244,-15.006258,-2.8790276,-2.4648108,-9.466705,-0.69034081409347641607,0.9283517,-19.504364,-0.28431144,-2.261853,-9.509509,-0.78971131409347641609,5.0080714,-19.608511,2.5779567,-1.9330338,-9.592368,-0.6482711409347641631,8.620323,-19.608511,5.1636944,-1.371796,-9.704265,-0.34033321409347641635,6.3643866,-18.045696,2.8700492,-1.6009128,-9.675067,0.0226040461409347641641,3.5464113,-14.462175,-1.893215,-0.11459055,-9.8020315,0.278264581409347641668,1.8908207,-13.146562,-7.891887,0.18865444,-9.80436,0.096490541409347641669,1.4460979,-11.637616,-9.414599,0.3338564,-9.791808,-0.423572631409347641670,1.7274165,-9.948506,-7.137714,0.41489246,-9.744143,-1.02466391409347641695,3.305794,-7.551911,-5.787384,0.50016457,-9.685589,-1.45244921409347641697,5.0625396,-4.8518496,-3.6768951,0.676287,-9.615714,-1.80306891409347641700,4.4801497,-3.1705215,-4.824915,0.9841575,-9.545242,-2.02241421409347641709,3.0119057,-3.2136173,-6.5577183,1.2882677,-9.437881,-2.33176661409347641727,1.0630256,-3.6876693,-4.3394904,1.5032829,-9.296833,-2.73484951409347641729,0.533907,-4.4322658,-5.09546,1.5493243,-9.22229,-2.9528541409347641741,0.93852705,-4.76506,-2.6282349,1.4915628,-9.122209,-3.2758151409347641756,0.6374562,-5.173271,-0.39085343,1.4827749,-9.081921,-3.38976291409347641781,0.6356605,-5.222951,-1.3293805,1.4398752,-9.125442,-3.28990841409347641782,0.6584055,-4.8081555,-1.6741456,1.4032676,-9.138897,-3.26830461409347641783,0.93493575,-4.381389,-1.3563153,1.3799139,-9.139157,-3.27750781409347641789,1.5544355,-3.7241807,-1.827973,1.4100004,-9.143028,-3.25381781409347641816,2.6366146,-3.1573534,-1.5753847,1.5260372,-9.10492,-3.30787251409347641816,3.4332852,-2.959832,-2.2691047,1.7960188,-9.040822,-3.34787561409347641820,4.2862196,-2.6396074,-2.7970262,2.1685011,-8.911222,-3.47247981409347641843,5.1762643,-1.9506758,-3.0005333,2.6488109,-8.702327,-3.66384171409347641843,5.6527104,-1.401805,-3.4117374,3.2564716,-8.399525,-3.87476231409347641849,5.7640405,-0.9744401,-3.6140475,3.9025555,-7.9934278,-4.12863251409347641883,5.6299653,-1.2731167,-3.0232782,4.527922,-7.5078516,-4.39323141409347641884,5.009867,-2.1458032,-1.9572599,5.085866,-7.058038,-4.5264151409347641885,4.449025,-3.2800562,-0.20470424,5.503188,-6.7701926,-4.4776971409347641889,3.4500446,-5.568913,4.345476,5.7999754,-6.728743,-4.1538821409347641905,-3.6804867,-13.228563,18.426973,5.9632573,-7.1272964,-3.13234421409347641909,-15.371373,-19.590555,18.99021,6.0586433,-6.9749603,-3.28834131409347641924,-19.60911,-19.608511,18.49042,6.1526976,-6.8092413,-3.45672271409347641941,-19.60911,-19.608511,9.599552,6.1834364,-6.674849,-3.65812641409347641942,-16.455349,-18.124706,4.0539823,6.131384,-6.5687456,-3.92786261409347641957,-10.597934,-9.842564,5.9956794,6.0842524,-6.5204926,-4.07865761409347641977,-5.1822495,-6.293758,7.4190326,-4.176065,-8.149318,3.50991371409347641978,-0.87687635,-5.879561,4.865018,-4.278871,-7.955018,3.8182931409347641981,0.8858546,-6.199785,2.007538,-4.0749445,-7.938025,4.0685341409347641989,2.939481,-6.1985884,-0.035314474,-3.7270782,-8.077604,4.1269351409347642006,6.0022635,-9.496002,0.98700964,-3.231864,-8.357232,3.98523641409347642027,4.6375685,-15.107412,-3.4997244,-2.3636634,-8.733515,3.78275231409347642028,1.039682,-11.869255,-2.598906,-1.6138381,-9.202405,2.9802121409347642029,-1.3916297,-10.8152075,-1.8818425,-1.3235227,-9.404952,2.44245221409347642041,-0.090979666,-12.0571995,-3.0304608,-1.3185672,-9.503705,2.02764991409347642064,1.5508442,-12.797606,-4.449624,-1.1697218,-9.616576,1.5243391409347642065,1.4030021,-13.384785,-2.1146786,-0.8869898,-9.723604,0.913886551409347642070,0.57400984,-12.930485,-0.24779987,-0.64807874,-9.766075,0.61169751409347642089,1.5448587,-10.790069,-0.42197806,-0.51816905,-9.778745,0.52734281409347642090,3.840898,-8.392874,-0.84575176,-0.32356355,-9.79311,0.400883821409347642106,5.457583,-7.121553,-1.204882,0.04511077,-9.803866,0.22924541409347642122,5.651513,-7.542334,-1.8896236,0.53434044,-9.791771,0.078097971409347642122,4.8781857,-8.236652,-2.4426842,1.0399901,-9.750795,-0.104117381409347642138,4.033033,-8.243237,-2.5192988,1.4531623,-9.692745,-0.330778031409347642157,3.3859997,-8.045714,-2.15538,1.7756375,-9.6292095,-0.54391111409347642157,3.0346506,-7.9331875,-1.7603368,2.0035505,-9.574083,-0.70220251409347642172,2.794632,-8.0684595,-1.3808558,2.1590254,-9.531369,-0.81362641409347642172,2.4690206,-8.6712,-1.1013328,2.2633083,-9.500998,-0.882556741409347642195,2.1098902,-9.818622,-1.0857705,2.3128211,-9.486108,-0.91378721409347642196,1.6460136,-11.273099,-1.4173675,2.2971318,-9.487712,-0.93643331409347642202,1.0139444,-12.840702,-1.9847932,2.2164292,-9.50389,-0.966372551409347642218,0.12210429,-13.885173,-2.5181017,2.0540924,-9.533267,-1.03342191409347642221,-0.5506664,-13.368025,-2.5408466,1.8120252,-9.572667,-1.11848381409347642238,-0.5201403,-11.610682,-2.1428106,1.5479488,-9.611852,-1.17751351409347642241,-0.49919105,-10.017939,-2.098518,1.3310343,-9.642679,-1.19058871409347642252,-0.8643068,-9.205706,-2.5408466,1.1470755,-9.663375,-1.21398831409347642276,-1.110311,-9.030331,-2.8568811,0.9561301,-9.672326,-1.30474581409347642277,-1.2545617,-9.806051,-2.9885623,0.76066464,-9.670691,-1.43856621409347642282,-1.3132197,-10.469246,-3.1118636,0.57338154,-9.662845,-1.57195881409347642289,-2.1164744,-10.722432,-2.831742,0.3874141,-9.648963,-1.70816831409347642306,-5.070919,-11.192893,-3.1669302,0.1391412,-9.638184,-1.80455831409347642318,-8.285733,-11.544841,-0.16460137,-0.36408874,-9.613596,-1.90173211409347642323,-5.4498014,-8.86513,1.1127052,-1.1000342,-9.587968,-1.74102771409347642348,-2.8634653,-6.863578,0.82360536,-1.5439771,-9.547186,-1.62411751409347642349,-1.8884265,