time,acc_x,acc_y,acc_z,gravity_x,gravity_y,gravity_z1409346147150,3.4302924,-9.440337,-0.6374562,3.6069143,-9.031248,-1.26375721409346147155,3.3794158,-9.424775,-0.55605334,3.5797718,-9.050546,-1.20134761409346147182,3.3464954,-9.2547865,-0.55485624,3.5511262,-9.070148,-1.13680971409346147182,3.3141737,-9.090185,-0.57161564,3.5271327,-9.086506,-1.07941711409346147191,3.3315318,-9.021352,-0.557849,3.507202,-9.09999,-1.02963021409346147195,3.3722332,-8.995016,-0.5518635,3.492681,-9.110673,-0.983464361409346147207,3.3967736,-8.963891,-0.480636,3.4847186,-9.117998,-0.94300451409346147225,3.4662056,-9.014768,-0.4794389,3.479661,-9.124417,-0.89854111409346147226,3.5733461,-9.178172,-0.5770026,3.4809306,-9.127877,-0.85754751409346147239,3.731962,-9.339781,-0.7308301,3.4861784,-9.128696,-0.826940541409346147262,3.8307228,-9.399037,-0.92057055,3.4987137,-9.1253805,-0.81045541409346147262,3.8911762,-9.367912,-1.0462662,3.5163794,-9.118289,-0.813800751409346147274,3.9211037,-9.299678,-1.1252748,3.5381982,-9.108408,-0.829744461409346147275,3.9306808,-9.251195,-1.1300632,3.5608675,-9.097475,-0.852389451409346147293,3.8935704,-9.22426,-1.1168951,3.583907,-9.086178,-0.87599151409346147295,3.8935704,-9.239823,-1.1402385,3.6028106,-9.076707,-0.89639111409346147316,3.982156,-9.314043,-1.2210429,3.6184113,-9.068454,-0.91686511409346147317,4.1216183,-9.4972,-1.3437457,3.6357505,-9.05905,-0.940907661409346147327,4.274847,-9.69951,-1.5101427,3.6566095,-9.04746,-0.97113681409346147350,4.3777976,-9.730635,-1.6358383,3.6814318,-9.032967,-1.01142321409346147350,4.372411,-9.634268,-1.7016789,3.7111871,-9.015182,-1.0601961409346147355,4.44304,-9.534309,-1.6801311,3.7401257,-8.997112,-1.11078931409346147376,4.5040917,-9.542689,-1.6304513,3.7745302,-8.976764,-1.15802221409346147376,4.5118732,-9.581595,-1.5436616,3.8099365,-8.956729,-1.19656031409346147396,4.4657845,-9.504382,-1.4808137,3.8432128,-8.938938,-1.22288861409346147396,4.43885,-9.389461,-1.5167267,3.873273,-8.923663,-1.23950031409346147407,4.4382515,-9.291298,-1.5771804,3.9017339,-8.908742,-1.25746231409346147424,4.377199,-9.201516,-1.5741876,3.9296749,-8.893366,-1.27909561409346147444,4.298789,-8.928576,-1.4903905,3.9536116,-8.879735,-1.29986921409346147444,4.1772833,-8.916606,-1.3311762,3.9778492,-8.866566,-1.31573251409346147459,4.0156746,-9.030331,-1.1384429,3.9918544,-8.859983,-1.31763421409346147459,3.9456444,-9.229049,-1.0654198,3.9881449,-8.8640785,-1.30123661409346147473,3.9312792,-9.485827,-1.0456676,3.9735756,-8.874022,-1.27783181409346147475,3.8935704,-9.5971575,-1.050456,3.950857,-8.887925,-1.25137661409346147491,3.8774097,-9.607931,-1.0444705,3.9224,-8.904172,-1.22510661409346147495,3.9025488,-9.578004,-1.0540473,3.8947513,-8.919549,-1.20122661409346147508,3.8780081,-9.464279,-1.0426749,3.8728895,-8.931747,-1.18110011409346147529,3.8935704,-9.282919,-1.0001777,3.8546183,-8.94179,-1.16476891409346147529,3.9031472,-9.124303,-0.96905315,3.8457508,-8.947701,-1.14858721409346147542,3.8540661,-8.98903,-0.8834604,3.844624,-8.950187,-1.13286981409346147559,3.846285,-8.902839,-0.83976626,3.8456554,-8.952555,-1.11043791409346147559,3.8600516,-8.820239,-0.8924387,3.8497624,-8.954025,-1.08405891409346147573,3.8301241,-8.781932,-0.9343372,3.8574488,-8.953084,-1.06432041409346147575,3.8055837,-8.846576,-0.9624691,3.8633463,-8.952136,-1.050811409346147594,3.819949,-9.011775,-0.91458505,3.8632612,-8.952992,-1.04379711409346147595,3.7457285,-9.1590185,-0.74519527,3.8597884,-8.956248,-1.02862381409346147611,3.558981,-9.303867,-0.57879823,3.8439445,-8.966194,-1.00092611409346147625,3.34051,-9.463082,-0.46148238,3.8092096,-8.9853735,-0.960915451409346147627,3.180697,-9.609727,-0.39863458,3.7547822,-9.013211,-0.913252951409346147644,3.0986955,-9.7084875,-0.36272156,3.6860435,-9.046557,-0.8621221409346147657,3.0304608,-9.754577,-0.30466217,3.612817,-9.080836,-0.810158431409346147657,2.973,-9.7324295,-0.27952304,3.5390105,-9.114589,-0.755043451409346147673,2.9550436,-9.722255,-0.2861071,3.4696536,-9.145015,-0.70755381409346147675,2.9682117,-9.701904,-0.3274071,3.4043171,-9.172908,-0.662401561409346147692,3.0388405,-9.663596,-0.40880993,3.347219,-9.196423,-0.62635451409346147695,3.165733,-9.647436,-0.54049104,3.3033702,-9.213907,-0.601703641409346147707,3.2980127,-9.506178,-0.7236475,3.2758346,-9.224449,-0.59063131409346147727,3.4207156,-9.313444,-0.85652566,3.2674186,-9.227022,-0.59699751409346147746,3.4955344,-9.252991,-0.9684546,3.2768836,-9.222413,-0.61604341409346147747,3.4566288,-9.339781,-1.0007763,3.292824,-9.214477,-0.64895141409346147747,3.3842041,-9.345168,-0.91338795,3.3031414,-9.208597,-0.679254951409346147756,3.316568,-9.435549,-0.8762778,3.3066738,-9.205633,-0.70186071409346147776,3.2758665,-9.564238,-0.8936358,3.3006613,-9.206494,-0.718657261409346147776,3.2483332,-9.570822,-0.96665895,3.2872503,-9.210023,-0.734731731409346147792,3.2477345,-9.481637,-1.003769,3.27205,-9.213726,-0.75588151409346147796,3.241749,-9.41879,-0.9840169,3.2610488,-9.215741,-0.778503361409346147809,3.288436,-9.408614,-0.98820674,3.2525072,-9.21711,-0.797785761409346147829,3.3476925,-9.424775,-0.9828198,3.246055,-9.21915,-0.8005081409346147830,3.37762,-9.448118,-1.043872,3.2408173,-9.220704,-0.80380661409346147843,3.394978,-9.384672,-1.1085154,3.235512,-9.222162,-0.808448431409346147857,3.425504,-9.261371,-1.1623849,3.2299767,-9.223648,-0.81360261409346147857,3.4883518,-9.113529,-1.2252327,3.2240255,-9.225141,-0.820258561409346147873,3.526659,-8.972271,-1.2587515,3.218818,-9.226092,-0.82996181409346147875,3.5859156,-8.92738,-1.2677298,3.2142923,-9.226541,-0.84242261409346147890,3.6122518,-8.940548,-1.2635399,3.2111576,-9.226514,-0.854599061409346147906,3.591901,-8.916606,-1.2557588,3.2086804,-9.226097,-0.868270341409346147911,3.5571852,-8.965687,-1.3150153,3.207307,-9.225379,-0.88090491409346147923,3.469797,-9.163208,-1.4640543,3.2081077,-9.223999,-0.892338751409346147927,3.3363202,-9.657611,-1.6992847,3.2114885,-9.221775,-0.90311541409346147942,3.2495303,-9.713276,-1.7286136,3.2151375,-9.219509,-0.91319991409346147960,3.1411927,-9.77792,-1.851915,3.2205632,-9.216995,-0.919437471409346147960,3.0268695,-9.835979,-2.142212,3.2245758,-9.215082,-0.92454311409346147977,2.9939492,-9.737817,-2.2774844,3.2255025,-9.213632,-0.935679851409346147978,2.9113493,-9.724648,-2.0518308,3.2255845,-9.212603,-0.94549531409346147992,2.4528596,-10.166379,-1.4867992,3.222505,-9.213434,-0.94789681409346148011,1.7591397,-10.802638,-0.7858967,3.2103958,-9.219153,-0.93324551409346148011,1.4287399,-11.039664,-0.20350714,3.1898108,-9.228898,-0.907157961409346148027,1.4826094,-10.726024,0.15203181,3.1685078,-9.238094,-0.888016761409346148042,1.7651252,-10.366295,0.15562311,3.1438196,-9.246374,-0.88956771409346148043,2.211644,-10.140042,-0.08798691,3.1201484,-9.253415,-0.899668041409346148058,2.6898856,-9.7240505,-0.43873745,3.0851762,-9.260916,-0.94208681409346148058,3.0765493,-9.267356,-0.7332243,3.0500066,-9.2670965,-0.994390131409346148073,3.311181,-9.022549,-0.96426475,3.0213277,-9.271702,-1.03803421409346148076,3.518878,-8.965687,-1.2479776,2.9997132,-9.275383,-1.06740461409346148092,3.8414967,-8.931569,-1.4502877,2.9862728,-9.277576,-1.08587851409346148107,3.9456444,-8.932168,-1.5251064,2.9830933,-9.277054,-1.09902361409346148108,3.8001966,-9.032125,-1.2587515,2.983868,-9.274743,-1.11628341409346148123,3.696049,-9.203311,-0.7811083,2.9812224,-9.272826,-1.13903521409346148127,3.6074634,-9.363124,-0.31244332,2.9791539,-9.269485,-1.17118111409346148141,3.3692403,-9.402629,0.027533319,2.9769666,-9.264266,-1.21715221409346148156,2.9311013,-9.458893,0.074220255,2.973127,-9.258105,-1.27216451409346148156,2.2918496,-9.662998,-0.2088941,2.9659448,-9.252278,-1.32999921409346148178,1.9327193,-9.850345,-0.6099229,2.9535565,-9.248317,-1.38403281409346148179,1.9961656,-9.855731,-0.9271546,2.9374073,-9.245823,-1.43414891409346148187,2.3110032,-9.646238,-1.0079589,2.9238381,-9.242816,-1.48050191409346148210,2.6360161,-9.415198,-0.9044097,2.9103181,-9.238856,-1.53099331409346148226,2.7635074,-9.325416,-0.7116765,2.9009511,-9.233364,-1.58110051409346148226,2.8508956,-9.409213,-0.56563014,2.8976922,-9.2261,-1.62875741409346148228,3.1142578,-9.450513,-0.5781997,2.9026215,-9.21689,-1.67155871409346148245,3.2375593,-9.603143,-0.6979098,2.9157698,-9.205594,-1.71047581409346148247,3.177704,-9.824607,-0.7942764,2.9309003,-9.193983,-1.74668261409346148256,3.1142578,-9.864111,-0.8038532,2.9451773,-9.182769,-1.78132121409346148272,3.05141,-9.798869,-0.7254431,2.95848,-9.171624,-1.81634031409346148276,3.0322564,-9.738416,-0.6739678,2.9751928,-9.159987,-1.84750061409346148297,3.064578,-9.694721,-0.7356185,2.993725,-9.14852,-1.87417961409346148298,3.1364043,-9.739014,-0.86370826,3.0145571,-9.137588,-1.89402171409346148308,3.2315738,-9.821015,-1.0402806,3.0382462,-9.127284,-1.90581331409346148333,3.4111388,-9.920375,-1.2090719,3.0656595,-9.117118,-1.91058441409346148334,3.5889084,-10.011354,-1.3503298,3.0963726,-9.106852,-1.91000951409346148336,3.762488,-10.119094,-1.4802152,3.1290152,-9.09566,-1.91013751409346148370,3.7696705,-10.26095,-1.6382325,3.1624455,-9.084225,-1.90950211409346148370,3.5284548,-10.242993,-1.7884687,3.1979554,-9.071749,-1.90968371409346148371,3.2423477,-10.192117,-1.929128,3.2340095,-9.05857,-1.91151551409346148376,2.9502552,-10.472239,-2.2164323,3.2710454,-9.045296,-1.91136091409346148397,2.7024553,-10.869077,-2.5127146,3.3066456,-9.033103,-1.90775281409346148398,2.4181437,-11.057022,-2.7341783,3.3376873,-9.022564,-1.90357171409346148408,2.0494366,-11.017518,-2.8167782,3.359736,-9.013934,-1.90566381409346148428,1.6657659,-10.9899845,-2.7928362,3.3758686,-9.006736,-1.91118921409346148429,1.4748282,-10.684724,-2.130241,3.3776467,-9.001502,-1.932571409346148436,1.3850456,-10.66138,-1.5688007,3.3688078,-8.998313,-1.96262861409346148459,1.2880806,-11.294048,-0.87089086,3.3480847,-8.997116,-2.00315951409346148460,1.2395979,-11.923723,-0.1340753,3.313898,-8.998621,-2.05263951409346148478,1.2557588,-12.386402,0.6907272,3.2693274,-9.00226,-2.10742431409346148479,1.0462662,-12.901155,1.0911574,3.2163675,-9.009188,-2.15868191409346148489,0.670975,-13.56016,1.8956091,3.1513739,-9.022044,-2.20044611409346148514,0.20829555,-14.287398,3.2309752,3.0778632,-9.042256,-2.22143771409346148514,-0.45968673,-14.790181,5.319318,2.986887,-9.075283,-2.21090841409346148517,-1.0103531,-14.966753,6.658275,2.8794253,-9.123291,-2.15519621409346148549,-1.01574,-14.783597,6.70975,2.7623515,-9.177223,-2.07806781409346148550,-0.08678981,-13.959991,5.628768,2.6549993,-9.226532,-1.99812151409346148550,1.1085154,-13.189657,4.9027267,2.581444,-9.268218,-1.89913071409346148557,1.6256629,-12.960412,5.071518,2.5361402,-9.313182,-1.73292061409346148593,1.4000094,-13.163919,6.384139,2.4952004,-9.360026,-1.5278421409346148595,0.5021838,-13.5930805,7.5070195,2.4491973,-9.413629,-1.24716691409346148597,0.52971715,-13.4739685,4.687847,2.3785546,-9.467109,-0.94164921409346148630,0.79846627,-14.24131,-0.7679402,2.2879152,-9.510888,-0.691971661409346148632,1.1707647,-14.171879,-4.6261964,2.159568,-9.553552,-0.48615011409346148633,2.6964695,-14.042591,-3.7349546,1.9941795,-9.597649,-0.280692281409346148635,3.502717,-13.855246,-3.2561142,1.8235937,-9.6355,-0.0452154731409346148637,4.1772833,-12.958018,-4.2820296,1.6568187,-9.664234,0.16701151409346148663,4.4568067,-12.687473,-5.0236335,1.5068504,-9.684349,0.336408641409346148664,5.225345,-12.3989725,-4.2036195,1.367863,-9.69875,0.483322441409346148668,6.5367694,-12.894572,-3.3147724,1.2390151,-9.707511,0.63203961409346148677,7.53575,-13.2668705,-2.9855695,1.1254629,-9.711108,0.77337041409346148706,7.9565306,-13.034034,-2.7311857,1.0277818,-9.711066,0.899593531409346148707,7.5052238,-12.714408,-2.9652188,0.94047016,-9.708215,1.01807121409346148709,5.547964,-12.3834095,-2.5941176,0.8540402,-9.704547,1.12371621409346148740,2.7982233,-12.570756,-1.6992847,0.7379695,-9.700435,1.23586791409346148743,1.0480618,-13.003508,-1.9626468,0.60194665,-9.696203,1.33854831409346148744,2.1170728,-12.018892,-1.6124948,0.45281348,-9.692146,1.42395521409346148758,2.7012582,-10.278308,-2.0638018,0.31605136,-9.682113,1.52551171409346148759,3.9953241,-8.467693,-2.8311436,0.18752062,-9.665861,1.64510021409346148775,4.892551,-7.3466077,-2.44448,0.084803425,-9.64851,1.75199371409346148777,4.5801077,-6.302736,-1.7609353,-0.002767967,-9.629969,1.85313061409346148796,4.138976,-5.394735,-2.1667526,-0.08203279,-9.605365,1.97500291409346148797,3.7134068,-4.8548427,-2.8927941,-0.15626565,-9.575774,2.10962751409346148829,2.7868507,-4.409521,-2.9352913,-0.21748449,-9.539234,2.26408981409346148830,2.1092918,-4.168904,-2.8083985,-0.27776977,-9.498694,2.42240291409346148831,0.86729956,-4.0940847,-3.1675289,-0.329453,-9.461205,2.5588061409346148837,0.5189432,-3.7128084,-2.232593,-0.3702567,-9.431061,2.66240571409346148865,1.0354922,-3.4691982,-1.8608932,-0.4018575,-9.406882,2.74216911409346148865,1.881244,-3.2357635,-1.388637,-0.4320683,-9.389436,2.79682041409346148871,2.9299042,-3.0532057,-0.45370123,-0.46546897,-9.374631,2.8407731409346148898,3.7271736,-2.9364884,-0.5291186,-0.49704212,-9.364791,2.86775471409346148898,4.505289,-2.7551277,-0.91458505,-0.523875,-9.360295,2.87764331409346148898,4.8997335,-2.4289176,-1.6106992,-0.5412934,-9.360772,2.87286041409346148908,4.9182887,-2.0452468,-2.4235306,-0.5499052,-9.365818,2.85472131409346148921,4.968567,-1.9033904,-3.3500867,-0.5461032,-9.375498,2.8235071409346148952,4.8943467,-2.3906105,-3.594894,-0.52342826,-9.391275,2.7749531409346148953,4.0916905,-3.493739,-2.7252002,-0.47809932,-9.412933,2.70896961409346148953,3.3979707,-7.261614,-1.584363,-0.42092556,-9.435342,2.63961321409346148957,2.5306711,-10.496181,1.863886,-0.340075,-9.466224,2.53877261409346148982,0.27952304,-16.09921,13.046005,-0.24200594,-9.50136,2.41577531409346148983,-7.247847,-19.608511,19.608511,-0.15329759,-9.506511,2.40274291409346148993,-12.319365,-19.608511,14.931438,-0.077169165,-9.558011,2.19290731409346149009,-11.6442,-19.608511,7.7584105,-0.0216371,-9.608858,1.95953291409346149010,-9.272144,-17.904438,4.429273,-0.066728145,-9.648999,1.75006621409346149017,-7.261614,-13.986328,5.8705826,-1.3867071,-9.26917,2.8861621409346149047,-3.6008794,-12.300211,5.3845596,-1.8823478,-9.165538,2.93599441409346149048,-0.46746787,-11.177331,4.0162735,-1.9729003,-9.111915,3.04155681409346149051,1.5095441,-9.7958765,2.7401638,-1.727872,-9.120594,3.1622161409346149057,2.9724014,-8.763377,1.5173253,-1.3782471,-9.153299,3.23851061409346149094,4.59567,-9.949105,0.2801216,-0.9661979,-9.214052,3.21529031409346149095,6.072294,-13.437457,-1.3024458,-0.44306746,-9.321634,3.01350621409346149095,6.0944405,-13.678074,-3.3812113,0.13950609,-9.461765,2.57409071409346149097,5.3582234,-12.24275,-3.3854012,0.62465125,-9.580105,2.00044941409346149124,3.3997664,-11.366472,0.53450555,0.99915296,-9.638821,1.50505951409346149124,3.4925418,-9.941324,1.3634979,1.1687604,-9.634896,1.40470451409346149143,5.1607018,-8.8088665,-0.7386112,1.3552152,-9.615386,1.37045861409346149144,5.8759694,-8.751406,-3.301604,1.6947092,-9.589921,1.15402671409346149148,5.113416,-9.285912,-3.3315318,2.0746322,-9.5533495,0.77448261409346149157,4.610634,-8.14268,-1.2503718,2.365078,-9.507358,0.432397451409346149172,5.2852,-7.043741,-0.748188,2.6172578,-9.446829,0.278830981409346149188,5.407305,-6.547543,-0.8499416,2.9151037,-9.362523,0.125501231409346149194,4.9943047,-6.712743,-0.66738373,3.1961234,-9.27119,-0.0150932331409346149217,4.658518,-7.3711486,-0.92535895,3.418388,-9.19099,-0.103449271409346149218,4.722563,-8.281544,-1.54845,3.5955176,-9.121797,-0.188354881409346149219,5.1277814,-8.632893,-1.7938557,3.7396934,-9.060121,-0.315094141409346149244,4.9625816,-8.693945,-1.6537948,3.8877628,-8.992224,-0.442268551409346149244,4.5777135,-8.734647,-1.4568717,4.0042696,-8.935301,-0.54461571409346149248,4.1018662,-8.92319,-1.0360907,4.071784,-8.898718,-0.635453051409346149257,3.6314054,-9.36492,-0.93852705,4.099634,-8.883356,-0.670370341409346149269,3.390788,-10.1544075,-1.2216414,4.0697303,-8.89496,-0.69810091409346149298,3.1040826,-10.843938,-1.567005,3.9922776,-8.926113,-0.74605571409346149299,2.6839,-11.265318,-1.7513585,3.869397,-8.973883,-0.81706751409346149299,2.28347,-11.442489,-1.7962499,3.7059345,-9.035665,-0.890604141409346149309,2.2152352,-10.9660425,-1.7531542,3.5161424,-9.105149,-0.950472651409346149326,2.1930888,-9.964667,-1.8076223,3.3482783,-9.1629925,-0.999498551409346149329,2.204461,-9.132683,-1.9907787,3.2225397,-9.199741,-1.07256111409346149337,2.4355016,-8.33242,-2.1559787,3.124516,-9.224229,-1.14951471409346149359,2.6252422,-7.793725,-3.0202854,3.0760179,-9.225798,-1.26221051409346149359,2.3211784,-7.878121,-3.7134068,3.0641637,-9.20015,-1.46236921409346149368,0.6721721,-8.714894,-5.2002063,3.0285013,-9.169809,-1.70679461409346149386,-1.3934253,-10.435128,-5.3642087,2.8208728,-9.162225,-2.0655981409346149389,-0.62009823,-10.770915,-4.4113164,2.3931353,-9.20241,-2.39977741409346149410,0.9020155,-9.994595,-3.5661635,2.0910616,-9.230372,-2.56867841409346149411,1.7483658,-9.946711,-3.1094694,1.9388343,-9.232095,-2.67950991409346149417,2.1691468,-10.286089,-2.7281928,1.8921406,-9.233863,-2.70664671409346149443,2.0685902,-10.631453,-2.3888147,1.8893341,-9.235708,-2.70230911409346149444,1.8920178,-10.810419,-1.8034325,1.8819536,-9.243262,-2.68155671409346149449,1.6406267,-10.875063,-0.42197806,1.8613766,-9.265706,-2.61771409346149457,1.2791022,-10.847529,0.52612585,1.8221407,-9.320642,-2.44455551409346149475,1.0785879,-11.021109,1.4030021,1.754514,-9.392096,-2.2092111409346149478,0.7966706,-11.238382,2.087744,1.6768447,-9.473433,-1.90070271409346149489,0.5279215,-11.386824,2.3930047,1.577685,-9.549902,-1.57501341409346149510,0.29987377,-11.465234,2.6018987,1.4633223,-9.615702,-1.251941409346149511,0.28072014,-11.542446,2.8742392,1.3375319,-9.670235,-0.93162681409346149518,0.41599256,-11.522096,2.5121162,1.2161864,-9.712074,-0.605697631409346149550,0.5638345,-11.509526,2.328361,1.1140106,-9.73749,-0.33267351409346149551,0.7613561,-11.5077305,2.8574798,1.0333122,-9.751564,-0.098131511409346149552,0.83617496,-11.393407,3.5523968,0.9793774,-9.7564,0.154425921409346149558,0.6859388,-11.223419,4.0719385,0.93565583,-9.751636,0.44780511409346149575,0.37110126,-11.142614,4.437054,0.88395184,-9.737174,0.75924581409346149578,0.12030864,-10.824186,4.5783124,0.8128714,-9.713921,1.07207791409346149614,-0.3573346,-11.270704,4.417302,0.7271515,-9.682261,1.37676271409346149614,-0.38606504,-12.043433,3.539827,0.6025761,-9.6493635,1.64228131409346149615,-0.4429273,-12.989741,2.0907366,0.49901423,-9.624007,1.81655361409346149618,-0.61171854,-13.8642235,-0.62249243,0.4221247,-9.618272,1.865761409346149648,-1.1965023,-14.284406,-4.569334,0.35633573,-9.6616745,1.64179371409346149649,-1.899799,-14.314932,-7.6590514,0.24258488,-9.7342005,1.16485851409346149652,-2.694674,-15.085266,-5.521628,0.08483568,-9.795918,0.450733961409346149658,-2.6120741,-15.470135,-0.24480712,-0.13703611,-9.805471,-0.0659689461409346149676,-2.3852234,-15.093047,3.2237926,-0.3385508,-9.799511,-0.159296621409346149678,-1.839944,-14.950592,6.117784,-0.50534683,-9.793495,0.049653521409346149690,-0.789488,-15.573085,7.839813,-0.60579085,-9.774479,0.51279881409346149732,-0.3184288,-15.907076,8.752005,-0.6144801,-9.732653,1.0335711409346149732,0.18674773,-14.293385,8.052897,-0.58649355,-9.665178,1.55265551409346149733,1.2485762,-12.592902,4.7866077,-0.57380366,-9.588792,1.97387961409346149734,1.1899183,-12.145785,1.3174095,-0.5071288,-9.547962,2.17936541409346149738,0.39324763,-12.178107,-1.690905,-0.42951348,-9.553236,2.17292171409346149764,1.1540052,-12.795811,-4.291008,-0.3742433,-9.6035185,1.95006241409346149765,1.5855601,-12.180501,-5.881955,-0.2641711,-9.68635,1.50838821409346149772,1.6795325,-12.574945,-5.5527525,-0.15122136,-9.758934,0.954314051409346149794,1.6663644,-13.743317,-5.2995653,-0.032770853,-9.795456,0.467279671409346149794,2.7748797,-14.611215,-4.88058,0.07474537,-9.806308,0.033453581409346149797,4.620809,-16.315886,-3.5936968,0.23685573,-9.798711,-0.31548131409346149818,7.141305,-18.584991,-1.3281834,0.48266205,-9.780791,-0.52300991409346149819,9.991602,-19.608511,2.1110873,0.85367113,-9.75452,-0.53941981409346149837,12.276868,-19.409794,2.7641058,0.5804559,-9.783165,-0.350938621409346149837,10.8385515,-15.834053,-0.64463884,0.33045596,-9.79994,-0.149537741409346149857,6.499659,-12.770073,-3.5745432,2.4144654,-9.504347,-0.0903713261409346149877,3.2213984,-11.784261,-5.213374,2.619064,-9.447112,-0.250925031409346149878,2.557606,-10.812814,-5.7263317,2.6555545,-9.424482,-0.545487761409346149878,3.1866825,-9.607931,-5.466561,2.6345446,-9.406523,-0.86423421409346149909,3.3991678,-9.086594,-5.5162406,2.6328409,-9.373078,-1.1763991409346149909,3.0753522,-8.901642,-5.6150017,2.6433954,-9.325356,-1.49016681409346149910,2.142212,-8.053496,-4.57113,2.6482253,-9.2682905,-1.80446931409346149918,1.8016368,-5.8681884,-4.042011,2.6158,-9.229538,-2.03558331409346149938,0.2896984,-4.2957964,-3.2411506,2.6033149,-9.184103,-2.24619581409346149940,0.84216046,-3.8325183,-3.2399535,2.5273588,-9.160489,-2.42246341409346149959,2.082357,-4.3424835,-2.544438,2.5293512,-9.120475,-2.5670431409346149959,3.0693667,-4.2718544,-0.86490536,2.6132216,-9.076731,-2.63713051409346149969,2.6018987,-4.0342298,-0.97982705,2.7536695,-9.041841,-2.6139581409346149996,2.1404164,-3.3596635,-1.7561469,2.8457744,-9.005571,-2.64038661409346149997,2.558803,-2.348712,-2.0991163,2.92836,-8.946294,-2.74935441409346149998,3.2674868,-1.8339585,-1.8070238,3.100023,-8.841505,-2.8962131409346150028,3.916914,-1.7884687,-1.8620903,3.3737195,-8.702534,-3.00903581409346150028,4.31495,-1.8896236,-2.2224178,3.7251382,-8.515989,-3.12597061409346150030,4.5525746,-2.0069396,-2.9580362,4.114523,-8.27985,-3.26882121409346150038,4.8919525,-2.1392193,-3.7511156,4.4983716,-7.9903045,-3.47708231409346150060,5.1050367,-2.208651,-4.235343,4.86831,-7.645068,-3.74471141409346150060,5.276222,-2.2744915,-4.5459905,5.202774,-7.2681065,-4.0343761409346150072,5.442619,-2.882619,-4.402937,5.4924603,-6.876144,-4.32688141409346150083,5.2929816,-4.3664255,-3.4596214,5.712999,-6.5558715,-4.53349921409346150109,5.0439844,-6.9731126,-0.6823475,5.8484793,-6.4201794,-4.55488441409346150110,3.8744168,-11.575965,10.354922,5.8953633,-6.6347127,-4.17080741409346150110,-2.4013844,-19.045874,19.608511,5.8237786,-7.5369587,-2.3341481409346150118,-9.910199,-19.608511,16.678009,5.8554387,-7.428302,-2.58931451409346150146,-16.596008,-19.608511,15.162479,5.869767,-7.3151298,-2.86445431409346150147,-12.304401,-19.608511,7.368156,5.8600273,-7.240349,-3.06722381409346150150,-7.575853,-19.17157,6.652888,5.8426657,-7.200372,-3.19190861409346150176,-4.039018,-14.417883,8.71669,-1.3929197,-9.138149,3.27481171409346150177,-0.7505822,-10.83077,7.429208,-1.5888214,-9.031199,3.4761281409346150178,0.8002619,-8.573636,5.2887917,-1.5364012,-8.949809,3.7028061409346150212,1.9428947,-6.6403184,3.3195608,-1.3391377,-8.898337,3.89829521409346150213,2.1529858,-5.631162,1.6885108,-1.0334193,-8.8923,4.00367641409346150214,3.6828809,-7.949348,-1.5999253,-0.72900003,-8.934408,3.97684361409346150218,6.042965,-12.890981,-4.9841294,-0.31509164,-9.117762,3.59687831409346150247,7.1514807,-14.785393,-5.651513,0.2633486,-9.3981285,2.78858421409346150247,6.403891,-12.760496,-4.569334,0.8655352,-9.567114,1.97270381409346150252,4.646547,-12.000338,-2.7090392,1.3201424,-9.618496,1.38281711409346150280,4.1096473,-12.907142,-1.264737,1.5763553,-9.626781,1.00528531409346150281,4.6842556,-12.865243,-0.7781156,1.761794,-9.617973,0.749041561409346150282,4.4167037,-12.269685,-0.6063316,1.9741371,-9.589557,0.55999231409346150315,3.8642416,-11.372458,-0.5518635,2.138253,-9.56125,0.42518271409346150317,3.9612067,-9.452907,-1.4089876,2.2530184,-9.539377,0.307560241409346150318,4.8267107,-7.9541364,-1.8237832,2.3946524,-9.508578,0.151651281409346150319,5.2085857,-7.740454,-2.0003555,2.6162672,-9.451176,-0.0281619731409346150347,5.1259856,-7.533954,-2.0961237,2.865305,-9.376999,-0.179716231409346150347,4.76925,-7.1089835,-1.8495208,3.1127925,-9.293376,-0.337790251409346150350,4.244321,-6.407482,-1.4862007,3.328443,-9.211876,-0.482922941409346150369,4.019266,-6.177639,-1.258153,3.505269,-9.139372,-0.59612991409346150372,3.7738605,-6.711546,-1.0007763,3.657477,-9.073335,-0.68401981409346150388,3.775656,-7.398083,-0.7613561,3.7643151,-9.024941,-0.742130641409346150409,3.8863878,-8.08881,-0.7433996,3.8355508,-8.993198,-0.76244721409346150409,3.6379895,-8.944737,-0.93014735,3.8963962,-8.966599,-0.767184141409346150410,3.2034419,-9.964069,-1.347337,3.9006906,-8.962481,-0.79306151409346150418,2.7114334,-11.089344,-1.6873137,3.8340456,-8.985779,-0.85221161409346150440,2.1003134,-12.239159,-1.5927427,3.6899154,-9.038067,-0.931802151409346150442,1.1821371,-12.9005575,-1.2695254,3.4673488,-9.120047,-0.986222861409346150450,0.78410107,-12.166136,-0.8170213,3.164074,-9.228125,-1.00037121409346150469,0.748188,-10.542868,-0.65301853,2.8849716,-9.3218975,-0.9744551409346150470,0.3405752,-9.424176,-1.4443022,2.6522524,-9.393857,-0.94414231409346150485,0.5895722,-8.653842,-1.9542671,2.4258676,-9.449579,-0.995484951409346150509,0.5590461,-8.820239,-1.447295,2.262593,-9.478844,-1.09661511409346150510,-2.15538,-9.080608,-0.8283938,2.1142855,-9.507956,-1.13972461409346150510,-4.2940006,-9.670779,-2.9951463,1.72717,-9.589542,-1.10813431409346150518,-3.752911,-10.758346,-3.4662056,1.1474332,-9.654767,-1.28033211409346150543,-1.6861166,-9.951499,-2.8508956,0.64133024,-9.674086,-1.47348031409346150543,-0.36391866,-9.221268,-2.1745336,0.41225028,-9.659516,-1.64140211409346150552,0.13108255,-9.606734,-1.7621324,0.30296472,-9.641515,-1.7662891409346150567,-0.24361002,-10.428544,-1.6717514,0.29129472,-9.63522,-1.80224791409346150571,-0.28670564,-10.810419,-1.685518,0.25515288,-9.638181,-1.79185711409346150590,0.04189853,-10.925341,-1.1563994,0.22530748,-9.641932,-1.7756091409346150590,0.37229836,-11.063606,-0.66379243,0.21866395,-9.65195,-1.7211761409346150598,0.4985925,-10.988788,-0.2705448,0.22817652,-9.666073,-1.63869751409346150618,0.44532153,-10.635044,0.09696517,0.24630204,-9.684623,-1.52243451409346150619,0.6015432,-10.362105,0.45190558,0.25737828,-9.701766,-1.40709231409346150634,1.1432313,-10.515334,0.842759,0.28260836,-9.719275,-1.27522341409346150640,1.6065093,-10.961254,1.091756,0.3563911,-9.736076,-1.11900761409346150661,1.1234791,-11.427525,0.7278373,0.46660894,-9.749719,-0.946393851409346150662,0.5793968,-11.6669445,0.3357868,0.5267122,-9.758422,-0.81617551409346150698,0.705691,-11.829152,0.64703304,0.5360203,-9.765226,-0.72349021409346150699,0.9780314,-11.920731,1.2689269,0.54816467,-9.772904,-0.60020351409346150699,1.4024036,-12.021885,2.1033063,0.57366073,-9.780125,-0.436392131409346150699,1.5951369,-11.945869,3.727772,0.62436694,-9.784516,-0.209287321409346150720,1.8620903,-11.553221,7.1664443,0.6896883,-9.781537,0.127450471409346150721,1.5987282,-12.140997,8.774151,0.77409774,-9.749095,0.72548731409346150741,0.8912416,-12.887988,6.6247563,0.81784594,-9.6729145,1.39149581409346150741,-0.6464345,-13.6170225,3.454833,0.7947786,-9.605669,1.808271409346150750,-2.1338322,-13.724163,1.2575544,0.6478831,-9.586871,1.96023631409346150772,-3.3889925,-13.656527,-1.1300632,0.4044863,-9.614184,1.89057351409346150773,-4.3424835,-13.897742,-3.9390604,0.10672575,-9.65908,1.69150251409346150779,-3.8869865,-13.736134,-4.2143936,-0.224832,-9.724397,1.24738071409346150815,-2.734777,-14.367006,0.12150574,-0.49774602,-9.762767,0.781695251409346150816,-2.5486276,-15.481506,2.8532898,-0.6645194,-9.762,0.657399061409346150817,-2.3139958,-15.51742,6.905476,-0.7929851,-9.746965,0.733646451409346150819,-1.965041,-15.626356,9.702502,-0.87955,-9.700145,1.14192191409346150857,-1.882441,-15.043966,9.326612,-0.94099504,-9.607949,1.72401481409346150858,-0.29568392,-13.190256,4.621408,-1.0048616,-9.50673,2.18694261409346150859,-0.1364695,-11.871051,0.08140286,-0.985927,-9.468645,2.35437541409346150861,0.12330139,-11.59871,-1.6609775,-0.98896694,-9.49463,2.24595551409346150870,1.1121067,-12.642582,-3.3704374,-0.9359263,-9.550922,2.01848941409346150902,1.4508862,-12.194268,-5.33907,-0.7780435,-9.638496,1.63229641409346150903,0.98940384,-11.669938,-5.625177,-0.61296785,-9.724505,1.10845181409346150906,1.2252327,-12.741941,-5.789778,-0.5068089,-9.774776,0.60603921409346150926,2.3780408,-13.826515,-6.2225304,-0.38931814,-9.798008,0.133774131409346150926,3.7870286,-15.368979,-5.459977,-0.21121958,-9.798985,-0.32507521409346150931,5.301361,-18.187553,-3.1376014,0.04096176,-9.783237,-0.675997141409346150963,7.2723875,-19.608511,1.4838065,0.36944312,-9.767033,-0.79934131409346150964,9.901221,-19.608511,3.4284968,0.7970662,-9.75686,-0.58200581409346150964,11.869255,-18.476055,1.3215994,0.5803594,-9.7817745,-0.387852521409346150997,9.8994255,-14.3735895,-2.0009542,1.9086814,-9.618103,-0.139383881409346150998,3.570952,-11.3551,-4.5675383,2.3499715,-9.518656,-0.207871691409346150998,3.3961751,-10.177752,-5.3761797,2.4145515,-9.495083,-0.42861471409346150999,3.3476925,-9.287108,-5.1002483,2.4910257,-9.456007,-0.74101761409346151026,3.0831332,-8.506598,-5.1505265,2.5385623,-9.417402,-1.01911821409346151026,3.2716765,-7.091027,-3.763685,2.5589411,-9.375296,-1.3137991409346151033,3.2824504,-5.543774,-2.2391772,2.6270204,-9.32394,-1.52750471409346151059,2.5210943,-4.653131,-2.4253263,2.730012,-9.274278,-1.64474441409346151059,2.1817162,-4.590882,-2.3756466,2.8072422,-9.226383,-1.77866631409346151062,2.7569232,-4.6399627,-2.9700072,2.8807232,-9.181027,-1.89223361409346151070,2.5779567,-4.595072,-0.8535329,2.9905117,-9.111599,-2.0508481409346151088,2.1452048,-4.5298295,-0.08319851,3.095992,-9.084688,-2.01336531409346151092,2.0817583,-4.332308,-0.92895025,3.1430755,-9.086543,-1.930341409346151099,1.9063832,-4.1635165,-1.673547,3.1725016,-9.067567,-1.97100881409346151113,1.7322049,-3.684078,-1.79206,3.1889253,-9.034528,-2.09248261409346151119,1.7561469,-2.8461072,-1.6172832,3.2243893,-8.993848,-2.21006851409346151131,2.7443538,-2.3415294,-1.8722657,3.3045375,-8.936828,-2.32024621409346151154,3.8486793,-2.3469162,-1.9764135,3.5089626,-8.819918,-2.46305541409346151155,4.3526587,-2.2625206,-2.3050177,3.8384857,-8.638793,-2.60915571409346151159,4.991312,-2.1242554,-2.7329812,4.2211304,-8.40397,-2.77952381409346151188,5.8029466,-2.3666685,-3.2507274,4.662054,-8.093948,-2.98724941409346151189,5.787384,-2.5905263,-3.6631286,5.1281314,-7.7151885,-3.21691271409346151190,4.945224,-3.1890767,-3.168726,5.509933,-7.3339844,-3.46752361409346151199,4.2275615,-4.134786,-2.0087352,5.733289,-7.076829,-3.63569121409346151221,3.3967736,-6.1327477,-0.18255788,5.83397,-7.002546,-3.6193281409346151222,2.078167,-9.783905,5.9106855,5.7597823,-7.2029815,-3.33351661409346151230,-3.3518825,-17.466898,19.409195,5.454054,-7.8633676,-2.14270421409346151261,-9.955689,-19.608511,15.835849,5.481671,-7.7757325,-2.37900231409346151261,-17.204134,-19.608511,12.708423,5.4978657,-7.6811557,-2.63509131409346151262,-14.3281,-19.600132,8.747814,5.484849,-7.6275816,-2.81191409346151294,-7.679402,-15.337256,5.9184666,5.4497223,-7.6153235,-2.91165851409346151295,-5.9747305,-11.6669445,6.84203,-1.9828005,-9.004997,3.3389961409346151295,-1.822586,-10.024523,6.537368,-2.29716,-8.88224,3.46399551409346151299,0.92775315,-9.2625675,4.1599255,-2.2378821,-8.814862,3.66885111409346151321,2.8868086,-8.632295,1.7609353,-1.9615321,-8.834094,3.7790971409346151323,5.101445,-9.634268,0.7350199,-1.5132874,-8.935584,3.74642471409346151333,7.2711906,-14.408306,-0.08619126,-0.8816997,-9.096423,3.5564161409346151357,6.067506,-16.148293,-1.1707647,-0.11773571,-9.294821,3.12455371409346151358,3.0202854,-13.517064,-1.4568717,0.4146489,-9.444754,2.60674241409346151359,1.3221979,-10.360908,-0.20649989,0.61761755,-9.534022,2.21163821409346151387,1.8590976,-8.208521,0.3357868,0.66238344,-9.57517,2.01190611409346151388,3.3686419,-7.466318,-0.10295067,0.7749489,-9.592712,1.88407581409346151393,4.3688197,-8.200739,-2.1242554,1.014819,-9.597449,1.74054611409346151399,4.8069587,-9.109938,-3.5063083,1.3325331,-9.607907,1.44321931409346151416,4.8662148,-9.235035,-3.5003228,1.6684202,-9.609776,1.01930581409346151419,5.593454,-8.689755,-2.7832594,1.9864392,-9.585916,0.578527751409346151434,6.0022635,-8.348581,-2.7473464,2.3436615,-9.519796,0.226157221409346151457,5.7245364,-8.391677,-2.8072014,2.7048995,-9.425967,-0.070943711409346151457,5.333683,-8.921992,-2.8383262,3.0092192,-9.327001,-0.349376351409346151459,5.106832,-9.346365,-2.6689363,3.2441971,-9.23466,-0.605491341409346151487,4.7614684,-9.03871,-2.195483,3.421129,-9.154555,-0.81262751409346151488,3.4662056,-7.711724,-1.30484,3.5526488,-9.09054,-0.954548841409346151491,3.169923,-7.4908586,-0.82899237,3.6027648,-9.064288,-1.01448481409346151499,3.0933087,-7.8505874,-0.59974754,3.633578,-9.050502,-1.02759441409346151520,3.004723,-8.955511,-0.7966706,3.6460721,-9.046929,-1.01468991409346151521,2.834735,-10.527904,-1.1258733,3.6093023,-9.061634,-1.01495221409346151531,2.360683,-12.127829,-1.4203602,3.521635,-9.095003,-1.02440211409346151564,1.6400281,-13.213599,-1.447295,3.356579,-9.154115,-1.05164641409346151565,1.0013748,-13.351266,-1.1552023,3.1192153,-9.236034,-1.06608931409346151566,0.28072014,-12.551003,-0.88405895,2.8507946,-9.324022,-1.05166511409346151594,-0.38845924,-11.0139265,-0.7254431,2.5623837,-9.410924,-1.01935631409346151595,-0.7751228,-9.530719,-0.6997054,2.2706034,-9.489454,-0.982337831409346151595,-0.88286185,-8.522759,-0.89064306,2.0024643,-9.551902,-0.96004741409346151599,-0.8583213,-8.149862,-1.2515689,1.7486392,-9.601589,-0.960274041409346151615,-0.6410475,-8.583213,-0.8846575,1.5142658,-9.636565,-1.00697281409346151631,-0.7080852,-9.266159,0.30526072,1.3119646,-9.665138,-1.01699971409346151636,-1.1252748,-9.508572,1.0552444,1.1199013,-9.700668,-0.901799561409346151657,-1.7681179,-9.35235,-0.19991584,0.9100186,-9.738035,-0.71616821409346151657,-1.5460558,-9.329007,-1.958457,0.6504963,-9.762621,-0.662166361409346151659,-1.3371617,-9.675568,-2.2571337,0.41950947,-9.765562,-0.792592641409346151685,-0.52073884,-9.349358,-1.7250223,0.23907135,-9.757582,-0.950182141409346151686,5.99E-04,-9.309255,-1.3718776,0.14207287,-9.745235,-1.08654561409346151705,0.26635495,-9.900622,-1.5544355,0.12787645,-9.735251,-1.17427161409346151706,0.6314707,-10.499771,-2.1242554,0.15055735,-9.726421,-1.24276751409346151711,1.0881647,-10.957663,-1.7328035,0.20950879,-9.712153,-1.34184421409346151737,1.1953052,-11.319187,-1.3569138,0.3015897,-9.702767,-1.39130031409346151738,1.0121487,-11.56579,-1.2096704,0.3921363,-9.697927,-1.4024461409346151740,0.78529817,-11.64001,-1.0911574,0.4552283,-9.69688,-1.39054661409346151771,0.57041854,-11.500547,-0.9588778,0.48545384,-9.697254,-1.3776661409346151771,0.41240123,-11.520899,-0.53211135,0.49399388,-9.699355,-1.35975051409346151772,0.38187516,-11.641207,0.14664486,0.48216626,-9.707961,-1.30131131409346151780,0.28550854,-11.797429,0.41359833,0.46829915,-9.723811,-1.18260921409346151806,0.17178397,-11.824963,0.47165772,0.44878885,-9.740818,-1.04183171409346151807,0.13467385,-11.735778,0.9756372,0.42438713,-9.755825,-0.902301671409346151814,-0.23343466,-11.7782755,1.9416976,0.39936057,-9.770901,-0.73512041409346151837,-0.46686932,-11.915343,4.2239704,0.33939913,-9.787322,-0.51333141409346151838,0.17298107,-11.803414,9.363723,0.25680515,-9.802314,-0.138220071409346151840,0.64942724,-11.686697,11.26412,0.2198315,-9.784196,0.62574951409346151851,0.7182605,-11.349713,8.212111,0.210318,-9.691923,1.48079541409346151871,0.7906851,-11.579556,3.1352072,0.2140491,-9.586914,2.05320981409346151874,0.42916065,-12.927492,-0.0676362,0.24001156,-9.543145,2.24525331409346151880,-0.79248077,-13.911509,-2.6384103,0.26767766,-9.560996,2.16473561409346151900,-2.1894975,-14.037205,-5.8334723,0.23559408,-9.642352,1.77199041409346151901,-2.3397336,-13.493122,-3.6421793,0.07671163,-9.7383,1.15326381409346151918,-2.243367,-13.666702,-1.7537527,-0.102826096,-9.780885,0.702908931409346151920,-3.265691,-15.378556,0.56443304,-0.2753842,-9.794035,0.414065961409346151934,-2.665345,-15.920244,3.779846,-0.5087971,-9.78725,0.34822831409346151966,-1.9590555,-15.614984,6.973711,-0.6638586,-9.767256,0.57481621409346151966,-1.8860323,-15.343841,8.483853,-0.7576712,-9.72132,1.04510581409346151967,-1.3676877,-14.403518,7.681796,-0.84083146,-9.643916,1.56789731409346151986,-0.46866497,-13.036428,2.4744074,-0.8885144,-9.568781,1.95431761409346151986,-1.22224,-11.03727,-1.4466964,-0.895004,-9.557384,2.0064291409346151993,-0.866701,-11.733384,-1.7471687,-0.96864015,-9.58787,1.81792811409346152000,0.092176765,-12.434885,-2.9418752,-0.9756312,-9.627071,1.59310631409346152013,0.47046062,-11.589133,-4.6776714,-0.89038277,-9.684929,1.25687791409346152034,0.4890157,-11.865065,-5.2026005,-0.8006848,-9.74036,0.809105931409346152036,1.2036849,-13.808558,-4.4424415,-0.7243062,-9.773329,0.357489351409346152068,2.6078842,-15.534179,-3.2076318,-0.5932806,-9.788687,0.0056056751409346152069,4.541202,-17.493235,-1.602918,-0.36672056,-9.797502,-0.211942781409346152070,6.395511,-19.429544,0.6853402,-0.04468553,-9.802307,-0.28839271409346152072,8.495825,-19.608511,2.6515784,0.348863,-9.798491,-0.195578581409346152080,11.211448,-19.608511,1.9692309,0.8248097,-9.771889,0.0156938471409346152100,11.513716,-17.640478,-1.1563994,0.55505806,-9.788744,0.20678441409346152101,7.9864583,-13.457808,-2.5971103,1.9263465,-9.615142,0.0929368661409346152118,4.4274774,-11.484387,-3.9228995,2.2632766,-9.541805,-0.0435824651409346152120,2.9640217,-10.482413,-5.6443305,2.3814657,-9.509782,-0.251174181409346152131,3.6523547,-8.821436,-4.7536874,2.4436545,-9.478114,-0.60356151409346152152,4.035427,-8.5060005,-4.3783965,2.531496,-9.434118,-0.871378661409346152152,2.8413188,-9.093178,-5.17387,2.613481,-9.387252,-1.1043581409346152160,2.7844565,-7.0186024,-3.9384618,2.6144211,-9.350037,-1.38274241409346152188,2.219425,-4.309563,-3.435081,2.6683004,-9.300466,-1.59745841409346152189,1.8782512,-3.221997,-3.6565444,2.7255151,-9.238816,-1.84016491409346152191,2.0153193,-3.8977604,-5.3318872,2.7863188,-9.163026,-2.10850291409346152200,2.160767,-4.404134,-1.797447,2.851011,-9.055411,-2.45797421409346152217,1.8794483,-4.5382094,0.5482722,2.9183068,-9.024907,-2.49096821409346152220,2.100912,-4.2281604,0.81881696,2.9536467,-9.056456,-2.3295871409346152253,2.2296004,-3.9953241,0.024540568,2.9971156,-9.074471,-2.20038251409346152254,1.9752164,-3.3506854,-1.276708,3.0709853,-9.064612,-2.13828161409346152254,2.741361,-2.741361,-1.6316484,3.162557,-9.020965,-2.18880181409346152260,3.4374752,-2.5809495,-1.9925743,3.3657858,-8.924724,-2.2784151409346152283,4.2580876,-2.3343468,-1.644218,3.6373832,-8.78006,-2.4187571409346152284,4.672883,-2.0177135,-1.875857,4.0169454,-8.58405,-2.51964881409346152299,4.821324,-2.0111294,-2.2373815,4.4484925,-8.328349,-2.6495161409346152300,5.031415,-1.9632454,-2.5875335,4.8715396,-8.034687,-2.8075361409346152314,4.936844,-2.0398598,-3.401562,5.284721,-7.7022533,-2.98620371409346152330,4.644751,-2.3900118,-3.957017,5.6212993,-7.3441753,-3.261051409346152331,4.5902834,-2.653374,-4.3077674,5.8429637,-7.0100813,-3.59011841409346152347,4.079121,-3.8786068,-4.349067,5.9923086,-6.696107,-3.9274391409346152361,3.103484,-6.9048777,-2.4199393,5.9739084,-6.5460386,-4.19906661409346152362,1.7782934,-12.285248,5.3438582,5.7556767,-6.789079,-4.11715561409346152379,-4.9661727,-19.393034,19.598934,5.3096223,-7.7205324,-2.89338761409346152380,-13.162124,-19.608511,13.825317,5.3630424,-7.5804157,-3.15364171409346152396,-19.585768,-19.608511,15.3767605,5.382865,-7.4599357,-3.3977211409346152412,-14.465767,-19.018341,8.648455,5.3552384,-7.4168544,-3.53300121409346152414,-9.583391,-13.08491,6.3709707,5.298643,-7.4096003,-3.63216761409346152429,-6.588843,-10.468048,7.5830355,-2.6826296,-8.899985,3.12476371409346152432,-2.8724434,-10.035895,6.5325794,-2.958345,-8.727507,3.35398551409346152463,-0.45130703,-9.120711,4.3341036,-2.9036872,-8.656721,3.577731409346152463,1.6747441,-8.60117,2.1511903,-2.6793742,-8.668221,3.72200041409346152464,3.9737763,-9.531916,1.4514848,-2.2792768,-8.782308,3.7210691409346152489,6.132149,-13.669695,-1.8614918,-1.6900384,-8.964235,3.59953381409346152490,6.8252707,-16.486473,-4.282628,-0.9441987,-9.260627,3.08539441409346152492,3.0951042,-11.351509,-2.9777884,-0.2354612,-9.51194,2.3744321409346152524,2.7730842,-10.919355,-0.81522566,0.04313655,-9.615689,1.92537271409346152525,3.7822402,-11.044453,-0.60812724,0.28285423,-9.655716,1.69042961409346152525,5.0984526,-11.13244,-1.1947067,0.58671474,-9.681731,1.44575821409346152555,5.2474914,-10.982801,-0.9504981,0.9789412,-9.688474,1.15998051409346152555,5.2103815,-9.117719,-0.41599256,1.3393255,-9.668863,0.943243561409346152556,5.816713,-7.776367,-0.30585927,1.6860651,-9.6268835,0.80665561409346152560,5.8532248,-8.121731,-1.01574,2.0809531,-9.558657,0.6871111409346152589,5.207389,-8.958505,-2.0721815,2.442323,-9.482614,0.53431091409346152589,4.526837,-9.07582,-2.706645,2.703423,-9.421896,0.299623581409346152594,3.7924154,-8.417415,-2.9322984,2.8934734,-9.370016,0.0314458161409346152622,3.3482912,-7.700351,-2.6880898,3.0216644,-9.326589,-0.233837991409346152622,3.2788591,-7.3938932,-1.9656396,3.1092024,-9.288696,-0.472611961409346152625,3.198055,-7.3364325,-1.3479356,3.1856744,-9.252774,-0.63877841409346152632,2.8724434,-7.638102,-0.9307459,3.2552867,-9.221037,-0.73892131409346152656,2.5300727,-8.448539,-0.8242039,3.2914116,-9.203873,-0.79104341409346152656,2.124854,-9.799467,-1.0827777,3.2620502,-9.211348,-0.824913861409346152660,1.5502456,-11.404779,-1.4173675,3.1746335,-9.239033,-0.855808141409346152685,1.0666169,-12.786833,-1.5861586,2.9936898,-9.293971,-0.911219061409346152686,0.8403648,-13.267468,-1.3784616,2.7520313,-9.363502,-0.959969941409346152692,0.66858083,-12.786234,-1.1773487,2.500006,-9.43284,-0.970492241409346152719,0.48482585,-11.335348,-1.0378864,2.2621033,-9.494023,-0.95749571409346152720,0.3549404,-10.287286,-1.2629414,2.0546255,-9.542379,-0.944397451409346152721,0.29807812,-9.553463,-1.5023615,1.8765137,-9.5769005,-0.965429961409346152732,0.15682021,-8.971672,-0.9223662,1.7312758,-9.598868,-1.01727451409346152754,0.08738836,-8.571242,0.272939,1.5997338,-9.621211,-1.0215571409346152755,-0.22146365,-8.64666,0.13706805,1.489884,-9.648517,-0.92562171409346152760,-0.58897364,-8.701726,-1.9081788,1.35503,-9.675739,-0.84520611409346152781,-0.13108255,-9.193136,-3.555988,1.1767373,-9.68845,-0.95896911409346152781,-0.89603,-10.069414,-3.9959226,1.0414114,-9.673533,-1.22824611409346152801,-0.5859809,-9.763555,-3.6272156,0.8450933,-9.65067,-1.5234181409346152801,0.035314474,-9.335591,-2.8125885,0.72524554,-9.62315,-1.74339091409346152812,0.5201403,-9.214684,-2.1410148,0.66053486,-9.600222,-1.88939961409346152834,0.9391256,-9.2308445,-1.4772224,0.6482266,-9.588721,-1.95105831409346152836,0.9528923,-9.333796,-0.9020155,0.67701226,-9.587945,-1.94508491409346152842,0.8415619,-9.399636,-0.43754035,0.7079326,-9.597347,-1.88684631409346152865,0.688333,-9.570822,-0.14844051,0.7293965,-9.6146,-1.78825761409346152865,0.43514615,-9.603143,-0.046686932,0.73444444,-9.635814,-1.66795911409346152880,0.18914193,-9.5732155,0.033518825,0.71243864,-9.657725,-1.54634191409346152880,-0.062249243,-9.7863,0.15682021,0.66800976,-9.680058,-1.42148391409346152895,-0.22445641,-10.176555,0.1340753,0.5970852,-9.7018,-1.29960021409346152911,-0.19033903,-10.552444,0.18255788,0.51477385,-9.721465,-1.18259131409346152912,-0.11971009,-10.933721,0.3878607,0.44181424,-9.739051,-1.06115441409346152926,-0.15083471,-11.462839,0.6051345,0.383778,-9.755059,-0.92840821409346152932,-0.32800564,-12.150574,0.789488,0.33047268,-9.769538,-0.785698531409346152944,-0.4369418,-12.896367,0.9427169,0.26650444,-9.781981,-0.642035371409346152960,-0.59855044,-13.20103,1.3509283,0.19644824,-9.791656,-0.50527641409346152960,-0.44711718,-12.58572,3.2722752,0.11208291,-9.799291,-0.362979741409346152977,-0.38307226,-12.346299,6.2345014,0.04017032,-9.8062525,-0.078662381409346152981,-0.3812766,-12.751518,7.339425,-0.02487879,-9.797025,0.433684741409346152995,-0.92416185,-13.438056,3.618836,-0.07511012,-9.754702,1.00526081409346153009,-1.3640964,-12.943054,0.53091425,-0.15190248,-9.726446,1.24239851409346153014,-2.1200657,-13.327922,-1.6932992,-0.25024053,-9.72245,1.25766741409346153027,-2.3654714,-14.067132,-3.0603883,-0.37722132,-9.738838,1.08772041409346153045,-1.6932992,-14.742895,-2.468422,-0.50283885,-9.76435,0.75828291409346153045,-0.92655605,-15.6473055,1.6843209,-0.56002593,-9.777869,0.50003861409346153060,-1.543063,-16.28596,4.31495,-0.5643635,-9.774462,0.558389661409346153061,-2.1505916,-16.492458,6.5259953,-0.6236158,-9.755249,0.7852321409346153079,-2.2260091,-16.402077,6.3338604,-0.7031446,-9.714282,1.14398991409346153081,-1.8183962,-14.465767,5.2409077,-0.77935123,-9.666173,1.45881261409346153093,-1.5658079,-12.613852,2.2786815,-0.8643957,-9.619027,1.70221141409346153110,-1.7764976,-11.029489,-1.4161704,-0.96932465,-9.604565,1.72717371409346153112,-1.2958617,-10.683527,-2.6258407,-1.0582457,-9.623192,1.56354781409346153126,0.16160862,-11.571775,-3.6697125,-1.118981,-9.6524105,1.32259061409346153145,0.84455466,-11.005547,-4.5256395,-1.0376271,-9.701726,0.984989641409346153145,0.9343372,-11.007941,-4.262876,-0.91132,-9.747659,0.56836751409346153161,0.9223662,-12.913726,-3.6535518,-0.7862476,-9.773227,0.190360951409346153161,1.8285716,-15.465346,-3.0172927,-0.66601586,-9.783525,-0.097187821409346153176,3.9665937,-17.73026,-1.7100586,-0.49444908,-9.789662,-0.297344181409346153181,6.153697,-19.373281,0.20829555,-0.18758036,-9.798016,-0.36619741409346153195,7.797915,-19.608511,2.345719,0.20912325,-9.800092,-0.29125321409346153213,8.707711,-19.608511,1.9093759,0.6594629,-9.784128,-0.079418071409346153213,8.4904375,-17.840992,-1.3988123,1.1181179,-9.742368,0.0803721251409346153227,6.435614,-14.2460985,-3.6619315,1.5208677,-9.687979,0.020704461409346153245,3.7786489,-12.180501,-5.029619,1.8022596,-9.638012,-0.175906461409346153245,1.7058687,-11.247959,-6.1117983,1.9301691,-9.603603,-0.464391261409346153260,2.172738,-9.811439,-5.3821654,1.9145031,-9.583684,-0.81121781409346153261,3.3836055,-8.297106,-4.1557355,1.921431,-9.55064,-1.12418261409346153273,3.6314054,-8.616134,-4.9302597,2.0007071,-9.503553,-1.36015741409346153294,3.120842,-8.660426,-5.2780175,2.0873318,-9.442724,-1.62739111409346153296,2.4672248,-5.9118824,-2.456451,2.1563694,-9.375754,-1.90149921409346153312,0.96546185,-4.128801,-1.8375498,2.238301,-9.334125,-2.00860571409346153330,1.4083891,-4.554969,-0.87448215,2.237395,-9.313599,-2.1027021409346153331,2.7371712,-4.8919525,-1.6591818,2.2744057,-9.312952,-2.06552741409346153347,2.878429,-4.923077,-1.204882,2.4082778,-9.275719,-2.08124921409346153347,2.743755,-4.711789,-0.9983821,2.5440238,-9.246736,-2.0484711409346153361,2.3026235,-4.71119,-1.1139023,2.654722,-9.211127,-2.06832671409346153361,1.9907787,-4.355053,-1.1456255,2.729132,-9.177486,-2.1203771409346153376,2.2571337,-3.490746,-1.6250644,2.7983015,-9.147632,-2.15886971409346153391,3.122039,-2.6539726,-2.2212207,2.9213183,-9.086526,-2.25196771409346153393,4.007295,-2.4103625,-2.4355016,3.160959,-8.960338,-2.42714481409346153409,4.533421,-2.4432828,-2.1859062,3.509795,-8.772951,-2.62433031409346153412,4.979341,-2.2900538,-2.1027076,3.9168432,-8.556343,-2.76001831409346153426,5.313332,-2.0111294,-2.629432,4.366778,-8.291778,-2.88930751409346153451,5.421071,-1.9590555,-3.1783028,4.8376265,-7.960926,-3.0645491409346153451,5.5497594,-1.9734207,-3.5535939,5.2666516,-7.588026,-3.294641409346153453,5.6826377,-1.9542671,-3.787627,5.651565,-7.1857944,-3.54888321409346153461,5.360019,-2.6402059,-3.7630866,5.99111,-6.767329,-3.80529431409346153483,4.787805,-4.3406878,-3.1358056,6.2058234,-6.4418025,-4.0201181409346153484,3.6511576,-7.7488337,-0.973243,6.2477717,-6.3599515,-4.0849441409346153496,-7.9888525,-19.608511,19.605518,6.068746,-6.700756,-3.80007861409346153519,-15.813703,-19.608511,10.739192,6.126756,-6.5186367,-4.01754141409346153520,-19.60911,-19.608511,13.02326,6.175915,-6.308561,-4.2697211409346153521,-15.210962,-18.460493,7.6321163,6.183971,-6.178261,-4.44499871409346153566,-8.814852,-12.035652,7.809886,6.15479,-6.1488023,-4.52561431409346153568,-6.283582,-10.570999,8.574833,-2.8826277,-8.976565,2.69854471409346153569,-1.8088194,-9.464279,6.171055,-3.115892,-8.773919,3.0789531409346153570,2.4959552,-9.48463,2.9358897,-3.0020952,-8.737874,3.2874591409346153573,5.530606,-14.721348,0.038307227,-2.5292714,-8.863629,3.3480221409346153618,7.851186,-19.31163,-3.0298622,-1.7332891,-9.151715,3.06793361409346153619,4.787206,-15.45936,-3.7247794,-0.77465284,-9.470342,2.4254731409346153620,1.9979613,-10.684125,-2.1290438,-0.260746,-9.626837,1.85105971409346153621,2.1739352,-8.483255,-1.9165585,-0.07168533,-9.683647,1.54668821409346153623,3.2501287,-7.3484035,-1.6555905,0.1162145,-9.719916,1.29618141409346153666,4.722563,-6.8085113,-2.654571,0.39429334,-9.740358,1.06788421409346153667,5.793968,-7.415441,-3.3985693,0.80998427,-9.744051,0.75351661409346153668,6.126762,-7.7823524,-2.8449101,1.3035896,-9.711618,0.394332351409346153668,6.18961,-7.421427,-2.5007436,1.7947508,-9.640492,0.1008567661409346153676,6.1884127,-7.7452426,-2.89459,2.26063,-9.540772,-0.183430281409346153703,5.8334723,-9.458893,-3.70383,2.675932,-9.421091,-0.502814231409346153703,5.9250507,-10.730213,-3.9468415,2.9754162,-9.307028,-0.834609571409346153704,5.891532,-10.761338,-3.5673606,3.2137341,-9.197762,-1.11511471409346153713,5.7628436,-9.646238,-2.7551277,3.3996203,-9.10294,-1.32267751409346153726,5.333683,-8.381501,-1.8872294,3.58388,-9.011296,-1.4569741409346153747,4.609437,-7.7488337,-1.1288661,3.7468445,-8.932326,-1.5313721409346153748,4.015076,-7.643489,-0.57999533,3.8665166,-8.8792095,-1.54275611409346153753,3.7684734,-7.901464,-0.18195933,3.9445314,-8.852561,-1.49773281409346153761,3.7086184,-8.764574,-0.016759412,3.9929974,-8.845723,-1.40697111409346153775,3.466804,-10.036493,-0.16879122,4.002869,-8.859325,-1.28832421409346153791,2.9161377,-11.359888,-0.45310268,3.9506438,-8.897948,-1.17869161409346153795,2.3056161,-12.430097,-0.76195467,3.8069694,-8.971006,-1.09471011409346153810,1.9267339,-12.633604,-0.9139865,3.602616,-9.061983,-1.03539431409346153825,1.9728222,-11.21085,-1.1593921,3.3757124,-9.15392,-0.99029151409346153826,1.6525977,-10.007165,-1.3413515,3.202066,-9.217662,-0.97563521409346153845,1.2946646,-9.539697,-1.7818847,3.04453,-9.270005,-0.98398911409346153846,1.1905168,-9.584588,-1.8441339,2.8908334,-9.312772,-1.04199391409346153857,0.8319851,-9.555259,-0.93014735,2.7411454,-9.349744,-1.11301831409346153861,0.504578,-9.711481,-0.25258827,2.5758185,-9.397697,-1.10399961409346153874,0.27114335,-9.5013895,-1.1354501,2.3946798,-9.453433,-1.03369071409346153890,-0.9708488,-9.645041,-3.9618053,2.2114494,-9.495401,-1.05700611409346153893,-2.1164744,-10.502166,-5.57849,1.9173552,-9.523327,-1.34178631409346153909,-1.8429368,-10.487202,-5.2355204,1.5283525,-9.52662,-1.75443331409346153925,-1.3569138,-10.037092,-5.2558713,1.2044499,-9.501655,-2.10671761409346153926,-1.5143325,-10.511144,-4.4801497,0.9585433,-9.455368,-2.4181871409346153941,-2.1068976,-10.973225,-3.3375173,0.7133909,-9.429514,-2.59725141409346153941,-2.4271219,-11.040861,-1.6903064,0.42634296,-9.433491,-2.64534851409346153957,-2.5671828,-10.977415,-0.504578,0.15308453,-9.468985,-2.54662471409346153961,-2.565387,-10.962451,0.19153613,-0.120368406,-9.515829,-2.36746531409346153976,-2.208651,-10.810419,0.66858083,-0.36054954,-9.561757,-2.147831409346153993,-1.6448165,-10.723031,2.0009542,-0.53814685,-9.603488,-1.91149271409346153993,-1.0498575,-11.001955,2.4636335,-0.6410364,-9.657115,-1.58101791409346154007,-0.4417302,-10.972028,3.027468,-0.67104435,-9.704714,-1.24040871409346154024,0.24241292,-10.998364,3.5972881,-0.63787735,-9.746923,-0.872345451409346154025,0.93613285,-11.257536,3.7576995,-0.5563926,-9.778144,-0.498711021409346154041,1.5346833,-11.505336,3.8367083,-0.4260861,-9.796115,-0.158031541409346154042,1.4939818,-11.577163,3.9246953,-0.2568948,-9.802187,0.146670671409346154057,1.5945383,-11.401189,4.5112743,-0.1088272,-9.796114,0.441254681409346154062,1.5933412,-11.445481,6.0357823,0.0274623,-9.775147,0.78495521409346154073,0.9307459,-11.482592,6.287772,0.13463333,-9.72495,1.25603951409346154091,0.014963761,-11.520899,2.7623103,0.16782993,-9.65403,1.71520821409346154097,-0.46866497,-11.6747265,-0.2681506,0.14206074,-9.639779,1.79578631409346154108,-0.95229375,-13.226768,0.37349546,0.09632402,-9.664974,1.6581261409346154123,-2.03567,-15.198991,0.01616086,0.01647263,-9.680271,1.56922861409346154123,-4.11264,-15.545551,-3.4488475,-0.11306049,-9.700833,1.4322851409346154142,-3.9576154,-13.543999,-2.3690627,-0.35563263,-9.745802,1.03114581409346154142,-3.064578,-13.177686,-0.21787235,-0.5903157,-9.760452,0.74531131409346154156,-2.7850552,-14.302362,1.9931729,-0.7781927,-9.757326,0.59948341409346154163,-2.27928,-14.791977,4.203021,-0.9108541,-9.74221,0.6557811409346154174,-2.6994624,-15.228918,7.455544,-0.99268866,-9.718036,0.86297771409346154189,-2.6521769,-15.230116,8.705916,-1.0960686,-9.653433,1.33426711409346154193,-1.3078327,-14.338874,3.9707835,-1.1940744,-9.555938,1.85165181409346154210,-0.5009867,-13.043611,-2.260725,-1.211872,-9.527588,1.98162731409346154228,-0.094570965,-12.360066,-4.3700166,-1.2019279,-9.58383,1.69586051409346154228,0.16101007,-12.443265,-3.481768,-1.1505271,-9.651158,1.30453351409346154243,0.439336,-12.485762,-3.3626564,-1.0509373,-9.7003565,0.984383171409346154243,0.6769605,-11.96622,-4.3766007,-0.9264318,-9.739016,0.680948731409346154259,0.9864111,-11.686098,-4.0797195,-0.82192403,-9.767387,0.304906871409346154272,1.5227122,-12.875419,-3.6152446,-0.71738344,-9.780364,-0.0143528991409346154275,2.473809,-14.873978,-2.8574798,-0.5824328,-9.785415,-0.277244061409346154289,3.8750155,-17.918205,-1.654992,-0.38637263,-9.788455,-0.45525441409346154293,6.1764417,-19.608511,0.8798691,-0.11126469,-9.792597,-0.51287921409346154306,8.556278,-19.608511,2.4594438,0.2787227,-9.795723,-0.369425831409346154323,10.672154,-19.608511,1.6567876,0.77067316,-9.7753105,-0.140492081409346154323,11.613075,-18.414404,-0.9780314,0.4772717,-9.794844,0.0601383151409346154344,8.995016,-14.231733,-3.1729157,1.8507152,-9.630424,-0.0127279651409346154345,4.9601874,-11.897985,-3.6152446,2.2418854,-9.545447,-0.169638111409346154360,3.139397,-10.270527,-4.2281604,2.4212692,-9.496323,-0.357389271409346154375,4.10845,-8.405443,-3.8019924,2.48111,-9.469011,-0.59352881409346154375,4.936844,-8.492832,-4.1395745,2.5757182,-9.428519,-0.799419051409346154392,5.193622,-8.302493,-4.465186,2.707651,-9.370116,-1.01978731409346154407,3.8061821,-7.9212165,-3.8630445,2.875032,-9.29069,-1.26001851409346154408,2.895787,-5.93343,-2.047641,2.963373,-9.231247,-1.47406981409346154425,1.7609353,-4.4999022,-3.0256724,3.0327744,-9.189717,-1.5879971409346154425,1.8369513,-4.578911,-2.885013,3.039062,-9.15007,-1.79184371409346154442,2.6270378,-5.4342394,-1.9021933,3.065223,-9.110695,-1.94166421409346154443,2.753332,-5.429451,-3.0891187,3.1449938,-9.078268,-1.96581881409346154456,1.9470845,-5.3863554,-3.292626,3.1995578,-9.018327,-2.14546781409346154474,1.5239093,-5.3396683,-1.7896658,3.1588762,-8.974345,-2.37761351409346154474,1.8183962,-4.671686,-1.2569559,3.0915725,-8.976259,-2.45750141409346154490,2.0266917,-3.913921,-1.661576,3.1024384,-8.967559,-2.4755181409346154494,2.9987376,-1.7447745,-1.6124948,3.1506934,-8.926022,-2.5631461409346154505,4.0336313,-1.1785458,-1.4802152,3.4009533,-8.8002615,-2.6756811409346154523,5.040992,-1.1468226,-2.3995886,3.799781,-8.606542,-2.76758031409346154523,5.468955,-1.0223241,-3.2770636,4.294041,-8.306235,-2.95601681409346154540,5.6922145,-1.1988965,-3.7828386,4.8089595,-7.9110036,-3.2342491409346154542,5.506664,-1.5556326,-4.000711,5.2850623,-7.4715295,-3.52345821409346154555,5.071518,-1.8052281,-4.096479,5.6634045,-7.0364304,-3.81901481409346154571,4.0839095,-2.8323407,-3.5631707,5.9368896,-6.643688,-4.09696441409346154576,3.2231941,-4.574721,-1.8818425,6.0283875,-6.4328566,-4.2950281409346154588,1.6627731,-8.170214,1.3317747,5.986878,-6.5088854,-4.23817541409346154594,-2.224812,-15.859791,13.27106,5.6822577,-7.0952497,-3.67964841409346154610,-11.166556,-19.608511,16.371552,4.6644244,-8.5237255,-1.32651161409346154623,-19.078794,-19.608511,13.995905,4.765972,-8.423114,-1.58337571409346154624,-19.18833,-19.608511,12.491149,4.8519363,-8.32245,-1.83464471409346154641,-9.404425,-16.8468,6.3512187,4.872319,-8.277515,-1.97828871409346154642,-6.0609217,-10.967239,7.5692687,-2.6085489,-8.943254,3.06334141409346154658,-3.2016463,-9.490616,8.223484,-2.852832,-8.7821865,3.302261409346154677,0.45190558,-8.291121,6.1465144,-2.8808827,-8.657869,3.59335661409346154678,3.4542346,-8.242638,4.004901,-2.6374063,-8.632763,3.83273941409346154682,5.5551467,-9.689334,1.8746599,-2.114329,-8.70198,3.99694321409346154709,7.9876556,-13.734937,-1.5634137,0.28193653,-9.471703,2.52542381409346154710,8.007407,-15.616779,-5.205593,0.28193653,-9.471703,2.52542381409346154722,5.367202,-12.683882,-4.976947,0.28193653,-9.471703,2.52542381409346154723,2.7868507,-10.153211,-2.9370868,0.7223171,-9.601875,1.85812561409346154739,1.9141643,-9.88506,0.038905777,0.9136375,-9.65427,1.45970281409346154742,2.508525,-10.210073,0.23702596,1.0143565,-9.66482,1.31632641409346154757,4.1054573,-9.989806,-0.91458505,1.15229,-9.666989,1.17978451409346154772,4.64535,-9.892841,-1.9081788,1.41044,-9.653926,0.99134961409346154774,3.810372,-9.651626,-1.8297687,1.6912513,-9.630436,0.751497151409346154788,3.750517,-8.885481,-1.7160441,1.8822955,-9.609386,0.53578431409346154803,4.623802,-8.406641,-2.184709,2.0785286,-9.578883,0.308375631409346154804,5.182848,-8.711303,-2.7694929,2.33927,-9.523436,0.049083471409346154821,5.1960163,-9.091382,-2.8628666,2.6140282,-9.449228,-0.22215691409346154822,4.7626657,-9.010578,-2.7114334,2.8649712,-9.366808,-0.47461161409346154837,4.3837833,-8.3150625,-2.3894134,3.0621147,-9.289892,-0.70123511409346154842,4.1000705,-7.5165963,-2.0123265,3.2144883,-9.22258,-0.8840091409346154855,3.714604,-7.3106947,-1.2372037,3.3567972,-9.157645,-1.01971751409346154874,3.417723,-7.4244194,-0.635062,3.45724,-9.113262,-1.07997971409346154890,3.2507274,-7.8248496,-0.33638534,3.528558,-9.086536,-1.07450741409346154890,3.1465795,-8.7053175,-0.21308395,3.5735652,-9.073391,-1.03616151409346154902,2.618658,-10.060435,-0.4950012,3.5815213,-9.076984,-0.975434661409346154902,1.6154876,-11.717822,-0.7745243,3.5024383,-9.112362,-0.93176381409346154921,0.6619968,-12.889784,-1.0109516,3.290527,-9.193982,-0.90193571409346154922,-0.14305355,-13.204621,-1.2563573,2.9773,-9.301418,-0.888650951409346154938,-0.6811504,-12.425907,-1.1587936,2.6163328,-9.409451,-0.887380541409346154942,-1.0869676,-10.627861,-1.2060791,2.2538095,-9.503959,-0.87494421409346154954,-1.3150153,-9.066243,-1.3988123,1.9170933,-9.577072,-0.880230671409346154969,-1.1749545,-8.3629465,-1.7770962,1.610734,-9.629132,-0.92506551409346154974,-1.0606314,-8.492233,-1.7729063,1.3486829,-9.659467,-1.022821409346154987,-1.7770962,-9.607931,-0.45370123,1.1215303,-9.677304,-1.123541409346155011,-1.9847932,-9.399636,-1.4293385,0.84406424,-9.712007,-1.06530981409346155012,-2.1170728,-9.269152,-2.4612393,0.5665771,-9.725944,-1.12043891409346155014,-2.0769699,-10.166978,-2.5372553,0.28633857,-9.716988,-1.29171861409346155023,-1.3257892,-10.15381,-1.7776948,0.040825933,-9.695813,-1.4696691409346155041,-0.58418524,-9.797672,-2.6282349,-0.07588512,-9.684133,-1.54344841409346155043,0.3441665,-10.035895,-2.944868,-0.111200325,-9.664598,-1.6593861409346155059,1.3000516,-10.65719,-2.5001452,-0.07250585,-9.644324,-1.77542531409346155063,1.5215151,-11.225215,-2.03567,0.056134414,-9.6318245,-1.84260671409346155074,1.2186487,-11.514315,-1.7004818,0.1963748,-9.627373,-1.85620861409346155090,1.003769,-11.470022,-0.9744401,0.30338207,-9.6239,-1.85981391409346155106,0.79726917,-11.535862,-0.4950012,0.38144583,-9.631793,-1.8037291409346155106,0.64703304,-11.660959,-0.1352724,0.42694035,-9.647646,-1.70617781409346155123,0.7224504,-11.647193,0.17896658,0.44347444,-9.668247,-1.58073561409346155123,1.0432734,-11.550227,0.62967503,0.4587724,-9.689458,-1.44025151409346155142,1.3814543,-11.465832,1.0139444,0.49755323,-9.711798,-1.26641071409346155143,1.3180081,-11.66515,1.2569559,0.56298524,-9.731635,-1.07176151409346155157,1.4425066,-11.71004,3.4195185,0.6202106,-9.748394,-0.868649961409346155170,1.3084313,-11.8022175,8.5538845,0.6850205,-9.770219,-0.49392221409346155190,0.86370826,-11.930905,11.663354,0.7213943,-9.776016,0.281920641409346155190,-0.15083471,-11.6825075,10.736199,0.68959254,-9.707482,1.20815011409346155205,-0.8822633,-11.298837,6.0728927,0.55416703,-9.597753,1.9355751409346155206,-0.49081135,-10.829573,0.5781997,0.35703292,-9.533936,2.26869441409346155220,-0.6344634,-12.499529,-2.1398177,0.2290383,-9.543697,2.24405031409346155223,-2.1170728,-14.568717,-2.4672248,0.16021354,-9.616386,1.91568451409346155237,-3.0454245,-14.607623,-3.2267854,0.001726312,-9.671935,1.61989581409346155255,-3.642778,-14.116812,-4.1437645,-0.15254754,-9.730237,1.21227531409346155255,-3.9516299,-13.632585,-2.9843724,-0.36872822,-9.771911,0.73768981409346155270,-3.9743748,-13.860632,-1.0193313,-0.63828814,-9.777572,0.402596681409346155274,-5.027225,-15.646707,2.5270798,-0.89663213,-9.76257,0.242215831409346155289,-3.821146,-15.749658,5.9926867,-1.181924,-9.728363,0.363850951409346155304,-2.7419596,-16.102802,8.485051,-1.3346086,-9.687243,0.73927281409346155305,-2.0284874,-15.460558,8.866327,-1.3902636,-9.626316,1.25363171409346155321,-0.46866497,-13.739725,5.33907,-1.4112989,-9.541991,1.76890541409346155323,0.09636662,-12.424709,0.5823896,-1.3771232,-9.500028,2.0058441409346155338,0.2669535,-12.030265,-1.8956091,-1.3289795,-9.519614,1.94451191409346155354,0.3196259,-13.031041,-3.2794578,-1.2401792,-9.5726595,1.73105621409346155357,0.21787235,-13.068151,-5.099051,-1.1087122,-9.644784,1.38538091409346155371,0.23283611,-12.303204,-5.305551,-0.9965408,-9.714458,0.898104371409346155374,0.41838676,-12.4468565,-4.481347,-0.90347546,-9.754808,0.444806641409346155384,1.0067618,-13.299191,-4.3179426,-0.82368284,-9.771708,0.075291681409346155405,2.3918076,-14.590265,-4.1437645,-0.70781946,-9.778173,-0.238193631409346155406,4.4179006,-16.8881,-2.8089972,-0.5096919,-9.780472,-0.50297171409346155421,6.349423,-19.348742,0.4357447,-0.19001156,-9.784486,-0.63093141409346155423,8.670003,-19.608511,3.1860838,0.22394696,-9.791434,-0.498035821409346155440,11.032481,-19.520525,1.6178818,0.74275434,-9.776461,-0.198868041409346155455,10.626065,-16.412851,-1.2749124,0.48311904,-9.794729,0.0156894271409346155456,7.2448545,-12.719196,-3.1872811,1.8339835,-9.633234,-0.0879137741409346155476,4.032434,-10.955867,-3.7792473,2.1654277,-9.560815,-0.268569831409346155477,3.2770636,-9.507974,-3.9965212,2.310076,-9.51875,-0.476780921409346155483,4.377199,-8.130709,-3.074155,2.3782902,-9.488254,-0.69797771409346155505,4.5872903,-8.240244,-4.016872,2.4998004,-9.444635,-0.848668631409346155505,3.5817258,-7.653664,-5.605425,2.6330235,-9.386607,-1.0626191409346155520,2.7443538,-5.2768207,-4.1958385,2.7224078,-9.315771,-1.4054461409346155523,1.3269863,-4.3424835,-4.5723267,2.7996,-9.25006,-1.66404091409346155539,0.700304,-5.205593,-4.2359414,2.7977126,-9.189234,-1.97514981409346155551,0.997185,-5.6203885,-2.9095535,2.7143111,-9.149608,-2.2555731409346155555,1.5568297,-5.3743844,-0.34356794,2.656285,-9.129786,-2.40032941409346155571,1.9782091,-5.070919,-0.22505496,2.6546264,-9.152634,-2.31358551409346155574,2.0452468,-5.076905,-0.41599256,2.673415,-9.162686,-2.2513131409346155585,2.1559787,-4.815338,-0.45549688,2.698669,-9.165253,-2.21036721409346155601,2.7156234,-4.1102457,-0.99419224,2.7699423,-9.158522,-2.1492661409346155603,3.3620577,-3.0735564,-1.3371617,2.9224923,-9.111307,-2.14791461409346155619,4.1916485,-2.19249,-1.2539631,3.1847591,-9.010081,-2.20139431409346155623,4.8823757,-1.7250223,-1.5807717,3.570659,-8.848928,-2.26213121409346155637,5.5377884,-1.4873978,-2.2296004,4.051266,-8.611951,-2.36472851409346155658,6.0387754,-1.4395138,-2.973,4.593723,-8.283687,-2.53941631409346155658,6.0040593,-1.7190368,-3.4955344,5.145697,-7.8693914,-2.78655671409346155663,5.6539073,-2.0512323,-3.4278982,5.6099315,-7.4337835,-3.07212621409346155687,5.2600613,-2.705448,-3.074155,5.9552584,-7.0531707,-3.31029731409346155688,4.696825,-4.148553,-2.3349452,6.196857,-6.7561603,-3.48190521409346155704,3.4123359,-6.8049197,-0.62129533,6.2888756,-6.654842,-3.5119141409346155704,1.0899603,-11.444882,5.2528787,6.136906,-6.912697,-3.27466421409346155722,-6.4817023,-18.544888,18.670584,5.6047196,-7.742114,-2.19480731409346155723,-13.069947,-19.608511,13.06456,5.6877193,-7.6076713,-2.43794271409346155743,-19.586964,-19.608511,10.242993,5.753405,-7.4721584,-2.6898961409346155744,-17.862541,-19.608511,9.530719,5.7728624,-7.4075623,-2.82356211409346155755,-7.9026613,-15.206772,6.6385226,5.7768564,-7.3792357,-2.88880831409346155771,-6.029797,-9.704897,8.059482,-2.630641,-8.941973,3.04815441409346155790,-2.2571337,-8.11395,7.240066,-2.8764536,-8.751042,3.3638731409346155791,1.6214731,-7.016208,4.3101616,-2.8568335,-8.642996,3.64794541409346155808,4.010288,-7.5572977,1.1420342,-2.5455894,-8.66098,3.8311611409346155809,7.3346367,-11.039664,-1.2904748,-1.9834539,-8.825442,3.78785731409346155815,9.815628,-16.168642,-4.381389,-1.0957292,-9.137829,3.3867161409346155823,8.046912,-14.929045,-5.105635,-0.06875176,-9.464066,2.5684871409346155837,4.5286326,-11.0378685,-3.127426,0.6415382,-9.616701,1.81049081409346155851,2.4929626,-9.598354,-0.62129533,0.98946667,-9.657133,1.38964561409346155855,2.3469162,-9.652225,1.5975311,1.135925,-9.664005,1.21945611409346155870,3.3488896,-9.068039,0.8583213,1.2484096,-9.650595,1.21568761409346155885,4.2730513,-9.172785,-0.5943606,1.4406606,-9.631616,1.15190531409346155886,4.7602715,-8.982447,-0.866701,1.694066,-9.606935,1.00366851409346155906,5.107431,-7.9667063,-1.4850036,1.976315,-9.567362,0.85451409346155906,5.2361193,-8.034941,-2.2601264,2.2934945,-9.512269,0.65347621409346155920,5.2486887,-8.668806,-2.944868,2.6042974,-9.446881,0.380082161409346155923,4.7620673,-9.4062195,-3.5691562,2.8806684,-9.373696,0.0771726741409346155936,4.2778397,-9.84795,-3.6762967,3.0723264,-9.309183,-0.265147331409346155951,3.74513,-9.637859,-3.1519666,3.1880767,-9.254756,-0.596713541409346155966,3.1794999,-9.200917,-2.2385786,3.2440856,-9.214928,-0.855204941409346155967,3.1148565,-8.804078,-1.3772645,3.253244,-9.1957445,-1.01247411409346155985,2.9843724,-8.627506,-0.52073884,3.2677057,-9.18321,-1.07755851409346155985,1.863886,-9.7641535,-0.4842273,3.273836,-9.1836,-1.05539051409346156002,1.2366052,-11.273099,-0.7990648,3.1666176,-9.226355,-1.00862821409346156003,0.8750807,-12.299613,-1.0426749,2.9747179,-9.2919655,-0.990358051409346156018,0.6679823,-12.519879,-0.9331401,2.7427852,-9.363638,-0.98480161409346156023,0.25438392,-12.0488205,-0.6889315,2.5067117,-9.431873,-0.96257111409346156035,-0.3573346,-10.947487,-0.5662287,2.2625606,-9.498002,-0.916064741409346156051,-0.98940384,-9.901819,-0.82360536,2.0105042,-9.559457,-0.86315881409346156055,-1.3676877,-9.297882,-1.2509704,1.7442616,-9.612523,-0.85283381409346156076,-1.4598645,-9.045893,-1.553837,1.467306,-9.657068,-0.87088271409346156077,-1.134253,-8.933365,-1.7190368,1.195729,-9.689254,-0.9268281409346156084,-0.84814596,-9.175778,-1.9746178,0.97071433,-9.706614,-1.00485351409346156100,-0.76554596,-9.542689,-1.9111716,0.78687227,-9.712278,-1.10582531409346156103,-1.1887212,-9.378687,-1.1318588,0.6289768,-9.7133875,-1.19368391409346156116,-2.3056161,-8.974067,-1.9680338,0.45127633,-9.722145,-1.20276681409346156134,-2.171541,-9.169792,-2.9735985,0.17464346,-9.719383,-1.29364511409346156137,-1.2814964,-9.9712515,-2.475006,-0.06639175,-9.695652,-1.46978821409346156148,-0.62967503,-10.435128,-2.0775685,-0.21079583,-9.6702795,-1.61605081409346156174,-0.044891283,-10.150817,-2.0991163,-0.25282735,-9.650071,-1.72701731409346156175,0.82360536,-10.120889,-2.0254946,-0.21093641,-9.638486,-1.79596961409346156176,1.1109096,-10.444106,-1.3874398,-0.09930121,-9.634651,-1.8259431409346156183,1.0474633,-10.547656,-0.9223662,0.019432139,-9.640813,-1.79575941409346156202,0.85173726,-10.420164,-0.7308301,0.12728198,-9.651563,-1.73248621409346156203,0.664391,-10.31063,-0.6099229,0.20284152,-9.66394,-1.65455171409346156218,0.581791,-10.247782,-0.62009823,0.26159927,-9.674845,-1.58092861409346156238,0.53570265,-10.3226,-0.36152446,0.29942763,-9.6838665,-1.51771581409346156239,0.39624038,-10.730213,-0.1316811,0.3216798,-9.695941,-1.4337441409346156250,0.521936,-11.13244,0.08020575,0.32294777,-9.710674,-1.3300051409346156269,0.6967127,-11.373655,0.32561144,0.33350393,-9.726219,-1.20823471409346156269,0.7422025,-11.465234,0.7026982,0.35932636,-9.741046,-1.07391541409346156286,0.4429273,-11.617864,1.2689269,0.391042,-9.755773,-0.917818841409346156286,0.2088941,-12.227188,3.466804,0.39397973,-9.771581,-0.72897871409346156302,-0.23044191,-13.463195,8.333617,0.37137386,-9.792614,-0.370362131409346156304,-0.8762778,-14.205398,12.039842,0.29188898,-9.795878,0.35486751409346156320,-2.023699,-14.382568,11.525687,0.13976532,-9.724747,1.25704431409346156334,-2.6420016,-14.350246,7.6189485,-0.10703781,-9.605643,1.97244951409346156335,-2.231396,-13.657125,2.1936872,-0.38611534,-9.509425,2.3647771409346156353,-2.4109612,-14.081497,-1.7310078,-0.58413374,-9.484038,2.42532161409346156355,-3.3063924,-15.081077,-2.9825768,-0.6957854,-9.549306,2.1206171409346156365,-2.747945,-15.070901,-0.81283146,-0.82998896,-9.609782,1.77019111409346156385,-1.7741034,-14.680646,2.3008277,-0.85877013,-9.647652,1.53483371409346156385,-2.2481554,-15.2809925,3.9624038,-0.8461301,-9.650968,1.52094151409346156409,-3.2620997,-16.16924,5.699397,-0.90132266,-9.629865,1.61979461409346156409,-4.44723,-16.866552,5.7987566,-1.0295825,-9.579669,1.82764391409346156415,-4.0372224,-14.966753,3.4596214,-1.2363566,-9.516312,2.0203051409346156438,-3.196858,-13.281834,-0.96546185,-1.4390643,-9.47568,2.0762831409346156439,-2.3983915,-12.600683,-2.304419,-1.5822517,-9.501802,1.83918451409346156457,-1.1665748,-12.275072,-2.2810757,-1.6624626,-9.53279,1.5913891409346156457,0.47405192,-12.140398,-4.2102036,-1.636586,-9.5772705,1.32961021409346156464,0.62368953,-11.924321,-6.257845,-1.4867773,-9.647756,0.938448671409346156490,0.60812724,-11.3167925,-6.1866174,-1.335608,-9.705437,0.437043581409346156491,1.0235212,-13.677476,-4.1156325,-1.2004794,-9.732859,-0.0261740681409346156497,2.3211784,-15.851411,-2.6940753,-1.034358,-9.747091,-0.307731781409346156504,3.9863458,-18.731636,-0.7284359,-0.7895164,-9.764614,-0.446505161409346156526,6.1010246,-19.608511,1.8668787,-0.44443363,-9.787036,-0.432192241409346156527,9.045893,-19.608511,2.3092074,-0.015333872,-9.803754,-0.237855791409346156535,11.150994,-18.586786,-0.62847793,0.54221046,-9.791559,-0.0415749961409346156555,9.141661,-14.346057,-2.8562827,1.1485826,-9.739012,-0.0527683721409346156572,5.921459,-11.310807,-4.605247,1.6078209,-9.672041,-0.192103921409346156572,3.0669725,-10.074203,-4.672883,1.9016839,-9.610257,-0.4437561409346156589,2.9221232,-8.734048,-4.8536453,2.025971,-9.568612,-0.71239441409346156590,3.8444893,-7.1820064,-4.3197384,2.1118681,-9.526664,-0.97627591409346156595,3.9264908,-7.1766195,-2.6569653,2.2481809,-9.465601,-1.23227041409346156604,2.9508536,-8.270171,-3.256713,2.3651803,-9.421735,-1.3443371409346156618,1.6519991,-7.704541,-5.5264163,2.4075885,-9.387164,-1.50168411409346156635,0.736217,-4.988918,-5.33069,2.3821995,-9.333165,-1.84053491409346156636,0.29568392,-4.1641154,-4.0922894,2.332293,-9.265985,-2.20734241409346156653,0.40282443,-4.644751,-1.83336,2.2507427,-9.210729,-2.50340031409346156670,0.14784196,-5.159505,-0.8283938,2.173024,-9.2104435,-2.57217981409346156670,0.53929394,-4.6501384,-1.06123,2.0567105,-9.2434845,-2.54919171409346156685,0.93852705,-4.208408,-0.997185,1.9960669,-9.2596655,-2.5386361409346156685,1.2749124,-4.259285,-1.122282,1.9702009,-9.265059,-2.53917121409346156705,1.9393034,-3.8612487,-1.1210849,1.992653,-9.258102,-2.54700971409346156705,2.7329812,-3.0466216,-1.7770962,2.1189792,-9.227123,-2.55744651409346156717,3.8163576,-2.3223755,-1.7830818,2.3608675,-9.138186,-2.66274981409346156733,4.644751,-1.9285295,-1.9740193,2.7596211,-8.99021,-2.78047251409346156738,5.1660886,-1.8794483,-2.4492683,3.2703674,-8.77313,-2.91672521409346156753,5.7454853,-1.7591397,-2.9939492,3.8247418,-8.478239,-3.1082461409346156768,6.1405287,-2.0015526,-3.7487214,4.419007,-8.093266,-3.33794161409346156768,6.123171,-2.3822308,-4.259285,4.972208,-7.6426387,-3.61076661409346156781,5.6215854,-2.9532478,-4.710592,5.4113955,-7.1917305,-3.89438181409346156784,5.04997,-3.5865142,-4.31495,5.675945,-6.807673,-4.1963821409346156800,4.1120415,-5.294777,-2.517503,5.811628,-6.550012,-4.41505861409346156804,2.6013002,-9.555858,2.473809,5.8054037,-6.5865955,-4.36857651409346156816,-2.8401217,-17.519571,17.513586,5.5608325,-7.2407265,-3.5804241409346156833,-9.768343,-19.608511,17.156849,5.604246,-7.0820346,-3.82199121409346156836,-19.016546,-19.608511,15.111004,5.638486,-6.9086313,-4.0802811409346156857,-17.712305,-19.608511,11.760918,5.6436696,-6.8195796,-4.2205111409346156858,-6.899491,-15.289372,6.253655,5.6096854,-6.806255,-4.28680661409346156864,-6.279991,-9.934141,7.538144,-2.1566162,-8.96784,3.33125351409346156885,-3.578733,-8.97646,7.2873516,-2.5323212,-8.793644,3.52555871409346156886,1.1019313,-7.3657618,4.8722005,-2.643279,-8.669072,3.74575281409346156909,3.8247373,-7.5644803,3.0011318,-2.3622427,-8.662229,3.94411091409346156910,5.0182467,-9.163807,1.1869255,-1.8162538,-8.753454,4.0309611409346156919,6.045958,-11.942278,-2.8221653,-1.1357176,-8.938775,3.87025281409346156944,5.753267,-14.720749,-5.3522377,-0.4188301,-9.239107,3.26096341409346156945,4.472967,-12.8448925,-5.3755813,0.16958602,-9.503004,2.41547781409346156945,3.0011318,-10.363302,-3.8684313,0.5645061,-9.6388855,1.7156961409346156971,2.2942438,-9.745,-2.0326772,0.7924457,-9.696666,1.23171171409346156971,2.2649148,-10.636241,-0.5243302,0.9359151,-9.716867,0.93644341409346156978,3.1334114,-10.59973,-0.7092823,1.0590905,-9.718856,0.76981409346156985,4.255095,-10.199299,-1.0259154,1.2391741,-9.709639,0.5981471409346157008,4.4184995,-8.988432,-0.6769605,1.4972417,-9.682725,0.416541131409346157009,4.768651,-8.000824,-0.5674258,1.7642195,-9.642579,0.280326341409346157016,4.9146976,-8.135497,-1.2635399,2.0644991,-9.585369,0.170139131409346157040,5.076905,-8.755595,-1.7304093,2.3582888,-9.518819,0.0309700161409346157042,4.800973,-9.084799,-2.0410569,2.6291277,-9.446715,-0.132895441409346157044,3.9636009,-8.896853,-2.1577742,2.8489256,-9.378653,-0.308088031409346157069,3.430891,-8.3408,-1.714847,2.983194,-9.329385,-0.483216081409346157070,3.21661,-8.049306,-1.0342951,3.0749738,-9.292387,-0.605384651409346157086,2.9526494,-7.9870567,-0.63087213,3.1429727,-9.266091,-0.657019851409346157087,2.4271219,-8.219893,-0.46567222,3.1822867,-9.251703,-0.670403661409346157100,1.934515,-8.933365,-0.5255273,3.1696582,-9.256213,-0.66794111409346157116,1.4053963,-10.042479,-0.7769185,3.0969486,-9.281005,-0.66503011409346157116,0.9804256,-11.170148,-1.1192893,2.939622,-9.3309145,-0.680483461409346157131,0.52253455,-11.911154,-1.5227122,2.7388227,-9.389513,-0.711532651409346157136,-0.18435353,-12.102091,-1.4359225,2.4927373,-9.453082,-0.77193771409346157156,-0.82599956,-11.461043,-1.3599066,2.2014158,-9.522096,-0.808590771409346157160,-1.2156559,-9.818023,-1.3575124,1.8922602,-9.586195,-0.83343941409346157165,-1.4341269,-8.817246,-1.3946224,1.597458,-9.636465,-0.87009421409346157189,-1.4059949,-8.619126,-1.5759833,1.3091639,-9.6749325,-0.92311191409346157190,-1.1677719,-8.764574,-1.7435774,1.0532906,-9.698872,-0.99642971409346157196,-0.90620536,-9.288904,-1.6106992,0.8319339,-9.710648,-1.0870151409346157214,-0.8678981,-10.01315,-0.54168814,0.65218496,-9.716196,-1.15784561409346157220,-2.0428526,-10.041282,-0.5243302,0.49840897,-9.731021,-1.10869071409346157234,-2.6497827,-9.858724,-2.789245,0.24989364,-9.746508,-1.05524791409346157236,-2.8766334,-10.535685,-3.9223008,-0.041982118,-9.729313,-1.22846541409346157259,-1.8291701,-10.59135,-3.9324763,-0.3360846,-9.682802,-1.5168251409346157259,-1.1001357,-10.175357,-2.895787,-0.47830302,-9.626674,-1.80798031409346157265,-0.43754035,-9.98442,-1.7950528,-0.5075861,-9.59852,-1.9445221409346157291,0.623091,-10.101735,-0.6859388,-0.49722824,-9.59537,-1.9626691409346157291,0.7398083,-10.487801,-0.4985925,-0.38735828,-9.620225,-1.8632241409346157296,0.31364042,-10.6715555,-0.7350199,-0.2781756,-9.646538,-1.74280081409346157318,-0.108337626,-10.575189,-0.44472298,-0.20917013,-9.663507,-1.65627171409346157319,-0.2621651,-10.362105,-0.21068975,-0.18401524,-9.680709,-1.55576781409346157335,-0.29987377,-10.385448,-0.092176765,-0.1859221,-9.696699,-1.45252721409346157348,-0.21068975,-10.654198,0.08379706,-0.201339,-9.712127,-1.3432981409346157349,-0.04189853,-10.99178,0.17058687,-0.20229974,-9.726866,-1.23189351409346157364,0.09696517,-11.30961,0.34955344,-0.19423516,-9.740969,-1.11631941409346157365,0.08678981,-11.616667,0.62249243,-0.16817513,-9.754683,-0.99410591409346157383,-0.107739076,-11.695077,0.7152678,-0.13868082,-9.768144,-0.85705931409346157385,-0.24480712,-11.674128,1.5753847,-0.12517588,-9.778648,-0.72988221409346157400,0.12749124,-11.874641,3.8564603,-0.12931031,-9.790616,-0.54544571409346157416,0.25498247,-12.58991,8.074445,-0.113981605,-9.804198,-0.187315611409346157416,-0.43155485,-13.029844,10.955269,-0.10394198,-9.793048,0.505754771409346157429,-1.3413515,-13.377602,9.836577,-0.1685751,-9.714602,1.32983151409346157436,-1.4700398,-13.520057,4.9386396,-0.3085396,-9.601262,1.97254461409346157449,-1.0672154,-13.231556,-1.7968484,-0.43900076,-9.540385,2.22681431409346157464,-1.5334862,-13.605051,-5.6670756,-0.48980016,-9.586372,2.00796911409346157465,-2.742558,-14.037205,-5.779603,-0.5137005,-9.682129,1.47067761409346157482,-3.0502129,-13.730148,-3.5595794,-0.602406,-9.748585,0.878976051409346157485,-2.7641058,-14.90211,0.9127894,-0.74350643,-9.767083,0.470811341409346157499,-3.8486793,-16.575657,3.0603883,-0.86354476,-9.756786,0.479347741409346157519,-3.9001546,-18.134283,6.31351,-1.0559902,-9.729968,0.618876161409346157520,-2.3529017,-18.14386,9.068039,-1.1925893,-9.683849,0.985483051409346157535,-1.0408791,-15.974712,10.84334,-1.2008097,-9.619933,1.47829061409346157537,-0.13108255,-13.211205,7.632715,-1.170295,-9.518611,2.04862431409346157553,0.42796355,-11.195287,1.9387048,-1.1399112,-9.437124,2.41074541409346157557,0.670975,-11.11149,-2.44448,-1.0943041,-9.436624,2.43372561409346157565,1.4933833,-11.89619,-5.1690817,-1.004453,-9.518931,2.13340831409346157581,1.1845313,-10.888829,-6.913856,-0.83631057,-9.626636,1.67297951409346157585,0.52373165,-10.313622,-6.6121864,-0.69231224,-9.72452,1.06055671409346157618,0.492607,-11.455058,-5.5737014,-0.61062646,-9.776224,0.47217611409346157618,1.6472107,-13.032837,-4.8656163,-0.5425183,-9.791629,0.006241891409346157618,3.441665,-15.661671,-3.3243492,-0.3957496,-9.792397,-0.350326781409346157642,5.3845596,-18.402433,-1.328782,-0.13621275,-9.790989,-0.53697511409346157642,7.337031,-19.608511,1.436521,0.22640616,-9.788984,-0.54305421409346157645,9.100361,-19.608511,1.8441339,0.6707082,-9.777321,-0.352856731409346157666,8.38629,-18.121712,-0.6171055,1.163455,-9.736035,-0.1624421409346157666,5.321113,-13.354857,-2.1865046,1.5536318,-9.681559,-0.154957921409346157683,2.7802668,-11.405378,-3.8977604,1.7797464,-9.640208,-0.263155131409346157685,2.3247697,-10.37228,-6.1243677,1.8583566,-9.616713,-0.485507041409346157700,3.5936968,-8.851962,-4.9278655,1.8897324,-9.585181,-0.850647571409346157714,4.5406036,-8.81605,-3.5230677,1.9884516,-9.537428,-1.1197831409346157717,4.4502225,-8.728661,-4.2898107,2.1565218,-9.481462,-1.27344991409346157730,2.0979192,-8.173804,-4.3957543,2.3054736,-9.414261,-1.49227051409346157746,2.321777,-5.084686,-4.0222588,2.3065178,-9.374549,-1.72284011409346157746,1.6801311,-4.1946416,-6.001665,2.3881664,-9.307327,-1.95977511409346157762,1.7842789,-4.5657425,-3.2585084,2.420991,-9.200244,-2.3800611409346157765,1.5975311,-5.181651,-0.060453594,2.4652238,-9.141379,-2.55504251409346157780,1.0851719,-5.3660045,-0.1412579,2.4830863,-9.165498,-2.44915681409346157785,0.80086046,-5.0038815,-0.23822308,2.4160206,-9.200654,-2.38352941409346157800,0.4285621,-4.4993033,-0.7308301,2.336559,-9.237354,-2.31995321409346157818,0.4369418,-3.6349967,-1.1432313,2.2605803,-9.263094,-2.29243761409346157833,1.4790181,-2.961029,-1.3730747,2.2111099,-9.267284,-2.32354121409346157834,2.6270378,-2.6132712,-2.071583,2.3000574,-9.228248,-2.39156841409346157848,3.4925418,-2.380435,-1.553837,2.5331917,-9.122483,-2.55609681409346157848,4.1066546,-2.1619642,-1.6633717,2.8961966,-8.98501,-2.65557121409346157864,4.594473,-2.0027497,-2.3660698,3.3486886,-8.794063,-2.76064731409346157865,5.101445,-1.7232267,-3.0765493,3.837708,-8.531194,-2.94297721409346157882,5.141548,-1.6567876,-3.481768,4.364961,-8.170536,-3.21867231409346157899,5.2301335,-1.9033904,-3.5170822,4.8492355,-7.7606974,-3.52518441409346157899,4.944625,-2.7287915,-3.2118216,5.2722898,-7.3455873,-3.79680591409346157914,4.1413703,-4.56694,-2.2379801,5.565681,-7.029446,-3.97246341409346157917,2.831742,-7.6189485,0.001795651,5.65247,-6.972916,-3.94948171409346157933,0.08319851,-13.31655,9.26197,5.464804,-7.327057,-3.55254131409346157950,-8.836999,-19.606716,19.53908,4.7891593,-8.372182,-1.77226041409346157950,-17.372328,-19.608511,17.870321,4.870123,-8.263109,-2.04286841409346157965,-19.285892,-19.608511,15.683218,4.92491,-8.165586,-2.2888541409346157965,-13.595474,-19.079393,7.7224975,4.921891,-8.105831,-2.49817871409346157980,-8.95611,-12.628217,6.9970546,4.870721,-8.078919,-2.6790921409346157996,-1.2749124,-8.724471,5.5443726,-3.0868878,-8.580452,3.60795641409346157999,1.6130934,-7.711724,3.9193082,-3.0100365,-8.552988,3.73583411409346158014,3.394978,-7.767389,2.730587,-2.654767,-8.602147,3.88917261409346158017,5.2002063,-11.335946,-0.6440403,-2.1095357,-8.726919,3.9447591409346158031,6.959346,-17.27656,-3.5075054,-1.4032663,-9.009516,3.60969071409346158053,7.460931,-18.152239,-5.465364,-0.5892171,-9.359991,2.86596731409346158053,5.1146135,-14.175469,-5.3043537,0.12368337,-9.588276,2.05427381409346158059,2.6743233,-11.743559,-1.9985598,0.5242504,-9.686505,1.43775581409346158069,2.0326772,-10.802039,1.0402806,0.6950772,-9.712902,1.16051721409346158082,3.1040826,-9.746197,0.6877344,0.815411,-9.709342,1.11093881409346158099,4.623802,-9.830592,0.024540568,1.0200415,-9.700207,1.017781409346158100,5.2367177,-9.6049385,0.66020113,1.3243157,-9.674255,0.9084791409346158119,4.836886,-7.892486,0.9900024,1.640924,-9.630315,0.85721071409346158120,4.845266,-6.9066734,0.45789108,1.9253378,-9.577193,0.860724571409346158126,4.707599,-7.355586,-1.0989386,2.2268577,-9.514459,0.82859941409346158155,4.5872903,-8.283937,-2.6138697,2.5003743,-9.458247,0.678294541409346158156,4.9027267,-8.204929,-3.2519245,2.7312262,-9.410084,0.40140391409346158157,4.8542438,-7.439383,-3.0897174,2.9739547,-9.344496,0.079955581409346158166,4.325125,-7.0605006,-2.5929205,3.2077556,-9.264708,-0.214135511409346158181,3.8379054,-7.2604165,-2.0374656,3.3835473,-9.192997,-0.45915981409346158196,3.4674027,-7.7009497,-1.6531962,3.5116074,-9.13454,-0.63182381409346158197,3.0921116,-8.111555,-1.2372037,3.5852427,-9.095787,-0.763605361409346158214,2.6354175,-8.695741,-0.9636662,3.6053123,-9.081228,-0.83869341409346158217,2.0003555,-9.458893,-0.82001406,3.5622456,-9.094789,-0.87500911409346158233,0.97743285,-10.841544,-0.85473,3.4408886,-9.140067,-0.888730471409346158251,-0.10354923,-12.340913,-0.93852705,3.1945279,-9.228812,-0.89130151409346158251,-0.8738836,-13.277045,-0.98461545,2.83012,-9.347928,-0.88150671409346158257,-1.3054385,-12.779052,-1.091756,2.417728,-9.4645405,-0.864556671409346158265,-1.5185224,-10.811616,-1.311424,2.0134447,-9.559916,-0.85116121409346158280,-1.5813702,-9.469068,-1.745373,1.6505266,-9.628328,-0.86106071409346158300,-1.411382,-9.157223,-2.27928,1.3268245,-9.673108,-0.916998271409346158300,-1.0408791,-9.311649,-2.3953989,1.050037,-9.695261,-1.0342871409346158314,-1.1857284,-9.309255,-1.5328877,0.8344911,-9.700333,-1.17370241409346158317,-1.8171991,-9.634866,-2.64679,0.6329507,-9.708122,-1.23373461409346158332,-2.332551,-10.0748005,-3.0909145,0.38625705,-9.701439,-1.37959531409346158346,-3.2261868,-11.265916,-3.5087025,0.10741803,-9.676762,-1.58717011409346158346,-2.5187001,-11.245565,-5.035006,-0.21104054,-9.631694,-1.83203141409346158363,-1.9351135,-10.299257,-4.5220485,-0.38459626,-9.555867,-2.16976141409346158366,-1.2336124,-9.7803135,-2.421735,-0.4957153,-9.498026,-2.39001181409346158379,-0.48841715,-10.352529,-1.5071499,-0.57174027,-9.49015,-2.40428191409346158395,0.108337626,-10.939706,-0.908001,-0.5769626,-9.50908,-2.32699751409346158398,-0.19033903,-11.180922,-0.6254852,-0.51783216,-9.545298,-2.1884991409346158411,-0.3645172,-11.017518,-0.22445641,-0.47970137,-9.579405,-2.0433581409346158428,-0.26036942,-10.7433815,0.3417723,-0.4616748,-9.612191,-1.88760081409346158428,-0.23403321,-10.660782,0.61650693,-0.4410774,-9.646916,-1.70669851409346158445,-0.22864626,-10.750565,0.80205756,-0.42432907,-9.679048,-1.51868021409346158446,-0.23163901,-10.833164,1.110311,-0.4067403,-9.707591,-1.32952421409346158462,0.108337626,-10.840945,1.3730747,-0.3911497,-9.733908,-1.12625351409346158466,0.45070848,-11.145009,1.2940661,-0.34659782,-9.757634,-0.91587441409346158480,0.6206968,-11.452065,4.1904516,-0.27017778,-9.775713,-0.729968251409346158496,0.8391677,-12.202647,7.8793178,-0.19206719,-9.800161,-0.30057611409346158497,-0.10235212,-13.289017,11.046248,-0.11109091,-9.797957,0.39757731409346158511,-1.0169371,-13.471575,12.489353,-0.1453722,-9.727986,1.23107951409346158528,-0.8936358,-12.146384,8.085219,-0.27351344,-9.59078,2.02792841409346158528,-0.29568392,-10.396821,0.18614918,-0.38674307,-9.489764,2.44237761409346158551,-0.24959552,-11.346122,-3.1124623,-0.4204651,-9.509288,2.35945871409346158551,-1.2671312,-13.894151,-3.8977604,-0.3919069,-9.598768,1.96988371409346158557,-2.4277205,-14.446613,-4.3436804,-0.4167992,-9.665615,1.60391261409346158566,-2.6629508,-13.684658,-2.532467,-0.46814927,-9.725018,1.17270871409346158581,-2.6629508,-13.441647,-2.2876596,-0.5519803,-9.7529125,0.86394081409346158597,-3.7301662,-14.572309,-0.12449849,-0.6860943,-9.766931,0.5538271409346158600,-3.9761705,-15.52939,1.5975311,-0.90896815,-9.754892,0.43154771409346158616,-3.5715504,-15.800534,5.786187,-1.1108402,-9.733001,0.452901961409346158630,-3.693056,-16.539145,11.349713,-1.2462758,-9.694081,0.80123161409346158630,-2.971803,-15.617377,11.3964,-1.3598349,-9.595277,1.50063591409346158645,-2.1200657,-13.915699,3.3806129,-1.4218081,-9.464157,2.13976451409346158646,-1.9351135,-12.4073515,-1.9961656,-1.4805726,-9.441112,2.20084381409346158663,-1.8525136,-11.562199,-3.86903,-1.5692083,-9.48245,1.94708471409346158666,-1.5077485,-12.23437,-3.3638535,-1.6359882,-9.537351,1.5914971409346158679,-0.75477207,-12.974777,-3.2626984,-1.619806,-9.589976,1.25657391409346158695,-0.08619126,-12.260108,-4.2221746,-1.530319,-9.642351,0.92388651409346158697,0.17417817,-11.955446,-3.8271315,-1.4222245,-9.68678,0.56031231409346158712,0.7823054,-12.814964,-3.4973302,-1.3096578,-9.7158,0.241629961409346158733,2.2703018,-14.347254,-3.347094,-1.1698549,-9.736555,-0.0360988681409346158734,4.0563765,-16.65706,-2.52289,-0.9217137,-9.759466,-0.271399021409346158737,6.332065,-19.359514,-0.24301147,-0.56467116,-9.781766,-0.410594551409346158746,9.179369,-19.608511,2.5971103,-0.096079096,-9.800059,-0.346392041409346158766,12.418126,-19.608511,3.1190462,0.49937814,-9.7935295,-0.088179191409346158766,11.897985,-18.179174,0.83378077,0.2442972,-9.802127,0.170338621409346158780,8.057087,-13.559562,-1.846528,1.7908924,-9.639105,0.225226731409346158795,4.219182,-11.241974,-5.6359506,2.162173,-9.564592,0.1181954441409346158797,2.4265234,-9.644443,-7.9355817,2.3222597,-9.525251,-0.217020121409346158812,2.2840683,-9.415796,-6.3548098,2.3534687,-9.494612,-0.69563281409346158828,2.2331917,-9.056666,-5.7945666,2.3367612,-9.463923,-1.06961891409346158828,2.621651,-6.779781,-4.2060137,2.3057823,-9.424256,-1.42727951409346158850,2.28347,-4.5860934,-5.2157683,2.3348749,-9.371537,-1.70089351409346158851,1.6502035,-3.6750996,-4.8542438,2.3838289,-9.285217,-2.0670041409346158858,1.3455414,-4.3299136,-3.1543608,2.4289641,-9.197688,-2.3818251409346158878,1.4957775,-5.4641666,-2.8287494,2.450969,-9.149116,-2.5410261409346158878,1.0989386,-6.4368114,-2.9059622,2.4696405,-9.119527,-2.62782811409346158896,0.62967503,-6.654085,-1.5328877,2.4071677,-9.107128,-2.72693681409346158912,1.2156559,-6.1411276,-0.6015432,2.2867522,-9.141184,-2.7165961409346158913,1.851915,-5.691616,0.30705637,2.2237165,-9.178103,-2.64345881409346158930,2.3421278,-5.167286,0.11252748,2.2506604,-9.215348,-2.48642231409346158930,2.8634653,-4.383185,-0.3693056,2.3624566,-9.226542,-2.33668071409346158949,3.4506433,-3.6260185,-1.2156559,2.564839,-9.194998,-2.2458781409346158949,4.10845,-2.7263973,-1.6178818,2.848121,-9.107371,-2.26149181409346158962,4.64116,-1.774702,-2.1140802,3.2297187,-8.959229,-2.3391281409346158976,5.1463366,-1.2198458,-2.7611132,3.6969862,-8.730911,-2.50476461409346158978,5.1223946,-0.8912416,-3.903746,4.229941,-8.404675,-2.7639521409346158995,5.2026005,-0.9684546,-3.7792473,4.732858,-7.9822626,-3.17079451409346158998,5.1259856,-1.6932992,-3.4488475,5.20292,-7.5271363,-3.5273571409346159011,4.477157,-3.2662897,-2.858677,5.5663166,-7.1374187,-3.77409321409346159027,3.1950622,-5.831677,-1.1713632,5.7483745,-6.9292264,-3.8874641409346159028,1.074398,-10.19451,3.5637693,5.672366,-7.085123,-3.71425321409346159045,-7.031172,-18.126501,17.438766,5.2196274,-7.8107204,-2.8139931409346159046,-16.236877,-19.608511,17.46211,5.2989717,-7.67344,-3.03473541409346159064,-19.60911,-19.608511,15.646707,5.364752,-7.5111127,-3.3125511409346159084,-17.626112,-19.573795,10.173561,5.3751564,-7.3866477,-3.56588531409346159085,-9.773131,-13.364434,6.1387334,5.3602285,-7.3054457,-3.7508411409346159086,-6.7845693,-8.886678,6.6271505,-3.2156882,-8.631331,3.3659861409346159098,-2.641403,-8.207323,5.7598505,-3.5134752,-8.446352,3.53341441409346159111,0.6500258,-7.9026613,3.4422636,-3.4680955,-8.402192,3.68047171409346159127,1.958457,-8.247426,0.82480246,-3.1733425,-8.480715,3.76533681409346159128,2.9909565,-8.638878,-0.54647654,-2.7313397,-8.6613,3.7002791409346159144,6.2704144,-12.627619,-1.3042414,-2.1953986,-8.906507,3.46767661409346159146,7.8248496,-15.248072,-3.3063924,-1.373738,-9.230888,3.01229931409346159159,6.5696893,-12.691663,-4.329315,-0.5087793,-9.509539,2.3409881409346159175,4.4993033,-10.22384,-3.1028855,0.136651,-9.650485,1.73777221409346159178,3.5541923,-11.296442,0.37349546,0.54688454,-9.697931,1.34960711409346159191,3.3758245,-13.479356,1.8656816,0.8300962,-9.69214,1.24248841409346159215,4.5447936,-13.183073,1.3329718,1.0444986,-9.677045,1.19758741409346159215,5.355231,-11.979987,1.2384008,1.3234947,-9.652883,1.11382531409346159234,5.3486466,-10.386645,0.52732295,1.628558,-9.60969,1.08261621409346159234,5.0864816,-8.546103,-0.31423897,1.9195614,-9.561315,1.03292321409346159238,4.699219,-8.069058,-1.3628993,2.1986592,-9.511191,0.93462741409346159247,4.292804,-8.379107,-2.379238,2.442955,-9.466177,0.770619031409346159265,3.7056258,-8.397064,-3.3446999,2.6413841,-9.429562,0.52616211409346159266,3.1381998,-7.560889,-4.0898952,2.7836654,-9.401244,0.19552931409346159278,2.7730842,-6.666056,-3.3722332,2.884695,-9.370611,-0.20149991409346159296,2.666542,-6.225523,-2.095525,2.9603634,-9.334522,-0.52279671409346159312,2.6168625,-6.261436,-1.1306617,3.0307415,-9.298765,-0.71969491409346159313,2.292448,-6.597223,-0.47225627,3.0881298,-9.271806,-0.81698981409346159329,1.9895816,-7.406463,-0.27593175,3.1196713,-9.260728,-0.822786451409346159330,1.620276,-9.137471,-0.52253455,3.098752,-9.269302,-0.80507751409346159346,1.174356,-11.613674,-1.0342951,2.9916024,-9.305342,-0.794570741409346159347,0.6500258,-13.776237,-1.7274165,2.7818382,-9.368424,-0.81511431409346159367,-0.18734628,-14.390349,-2.1631613,2.4912257,-9.444494,-0.875058531409346159367,-0.75118077,-13.423092,-2.0733786,2.1458378,-9.522312,-0.944116831409346159381,-0.75118077,-11.87524,-2.0374656,1.8053888,-9.586174,-1.00807931409346159397,-0.7757214,-10.313622,-2.088941,1.5321459,-9.628097,-1.05954711409346159416,-0.7356185,-9.050082,-1.8411411,1.2931381,-9.655134,-1.12986451409346159416,-0.79248077,-8.361151,-2.896984,1.0963316,-9.670198,-1.20653761409346159418,-1.4532804,-8.851962,-7.872135,0.9192238,-9.662514,-1.40043741409346159427,-4.267066,-10.519524,-6.821679,0.66447955,-9.565689,-2.05583431409346159449,-3.6577415,-9.986814,-3.4691982,0.18242578,-9.471324,-2.53597521409346159449,-2.5330653,-9.23683,-1.7926586,-0.15873832,-9.428824,-2.69118211409346159458,-1.697489,-9.36911,-0.207697,-0.3702955,-9.434594,-2.64984541409346159481,-1.429937,-9.702502,0.29568392,-0.52247196,-9.482016,-2.44720631409346159482,-0.58119243,-9.822212,-0.12090719,-0.62706894,-9.537606,-2.1934471409346159487,-0.3585317,-10.045472,-0.13826515,-0.62883097,-9.578259,-2.00796481409346159516,-0.35913026,-10.703877,-0.12509704,-0.60044396,-9.612231,-1.84793931409346159517,-0.3250129,-11.565191,0.073621705,-0.5656717,-9.641015,-1.70329071409346159519,-0.57281274,-12.012308,0.3693056,-0.5237988,-9.669235,-1.54980251409346159527,-0.8122329,-11.860875,0.6392518,-0.5106125,-9.694865,-1.38537111409346159552,-0.51116204,-11.541249,0.9008184,-0.52504915,-9.717719,-1.20858611409346159552,0.44232875,-11.429919,1.5735891,-0.5189219,-9.737351,-1.04170261409346159561,1.2779051,-11.591528,2.9670146,-0.43677098,-9.761489,-0.832423271409346159585,2.0147207,-11.51611,5.085284,-0.29366732,-9.788473,-0.519558131409346159586,2.9825768,-11.174936,8.432977,-0.09663988,-9.806067,-0.045734091409346159587,3.0101101,-11.134235,10.278308,0.16570012,-9.781957,0.675453841409346159616,2.2691047,-11.708245,10.530297,0.3840444,-9.688997,1.46499991409346159617,1.2240356,-12.004527,8.653842,0.47512922,-9.5525875,2.16627651409346159621,1.1647792,-10.9187565,3.4494462,0.47817734,-9.435248,2.63016921409346159627,0.87448215,-9.659407,-2.7964275,0.46341935,-9.4051285,2.73846581409346159648,0.31902736,-10.043676,-6.8641763,0.47537464,-9.485812,2.44208071409346159648,-1.0522517,-12.10269,-7.289147,0.5107346,-9.627765,1.79324091409346159658,-2.1936872,-13.631986,-3.8313212,0.46436688,-9.74061,1.03695121409346159678,-3.3315318,-14.250887,-2.0949266,0.31023726,-9.78387,0.59164681409346159694,-3.7295678,-13.702615,-3.177704,0.043174066,-9.8012705,0.321895421409346159695,-4.348469,-14.09287,-1.5406688,-0.26473698,-9.803051,0.0221052231409346159715,-2.6659436,-14.099454,-0.3866636,-0.59911555,-9.787214,-0.147913231409346159716,-1.6340426,-14.456788,1.9698294,-0.7648197,-9.7740135,-0.23262181409346159719,-0.9672575,-15.037382,5.3564277,-0.815919,-9.772253,-0.087875261409346159727,-0.8451532,-15.666459,8.687361,-0.8025067,-9.767861,0.339491781409346159751,-2.1817162,-16.729485,10.66138,-0.7823728,-9.728325,0.95811731409346159752,-2.7611132,-16.29733,7.3807254,-0.86104625,-9.63367,1.61907711409346159759,-2.4708161,-14.741698,1.4772224,-0.9803039,-9.560972,1.94864231409346159781,-3.1238346,-13.129802,-1.0648212,-1.0947298,-9.552984,1.92677591409346159782,-2.907758,-12.125435,-1.0923545,-1.2719638,-9.560758,1.7732551409346159787,-1.8297687,-12.266692,-1.5095441,-1.4036773,-9.571984,1.60535621409346159810,0.06584055,-12.413338,-2.35769,-1.4340014,-9.603673,1.37240151409346159810,0.5351041,-10.828376,-4.2622776,-1.3311964,-9.654943,1.08643031409346159828,0.44113165,-10.922348,-4.9775453,-1.2180402,-9.705268,0.70323931409346159828,0.8678981,-13.050195,-4.5926776,-1.1191452,-9.737863,0.303225461409346159845,2.156577,-15.441403,-3.544017,-0.97664636,-9.75781,-0.041171351409346159860,4.008492,-18.743607,-1.2808979,-0.75459206,-9.7737,-0.275254551409346159861,6.431424,-19.608511,2.6689363,-0.42621246,-9.792697,-0.302987661409346159877,9.616311,-19.608511,4.7016134,0.024390345,-9.806488,-0.0507359171409346159879,11.212047,-19.608511,2.1703439,-0.26417834,-9.800846,0.20974531409346159893,8.542512,-17.101185,-1.5005659,-0.5168455,-9.780773,0.489623251409346159907,4.0779243,-13.213,-5.2780175,1.6650808,-9.659384,0.306902951409346159907,2.3678656,-10.914567,-8.042722,1.7920035,-9.641531,-0.0043837681409346159923,2.9167361,-10.166379,-6.7426705,1.84803,-9.616902,-0.51992611409346159927,3.0352492,-10.496181,-6.964134,1.8980975,-9.577446,-0.916586161409346159942,4.0563765,-7.731476,-5.1409497,1.9297298,-9.523292,-1.32416331409346159965,2.9400797,-4.9733553,-4.3783965,2.065372,-9.447265,-1.62904321409346159965,2.119467,-3.1860838,-5.506664,2.1750565,-9.368222,-1.91726581409346159967,2.4432828,-2.110489,-4.461595,2.2740746,-9.259878,-2.29208281409346160004,1.2312182,-4.6980224,-1.7980455,2.437302,-9.141251,-2.58214241409346160005,0.688333,-4.7099934,-0.42556936,2.4388816,-9.132149,-2.6126751409346160005,0.7703344,-4.483143,0.2801216,2.4000869,-9.162648,-2.54083091409346160008,0.4297592,-4.1198225,-0.047884032,2.3394442,-9.20322,-2.44911531409346160037,0.17597382,-3.6774938,-1.3611037,2.2423131,-9.238717,-2.4059461409346160038,1.2360066,-2.823961,-1.151611,2.1476033,-9.241843,-2.479221409346160042,2.5169046,-2.4546554,-1.0995371,2.2205143,-9.213038,-2.5218321409346160097,3.8301241,-2.629432,-1.1145009,2.4639077,-9.140846,-2.55821851409346160098,4.8069587,-2.5240872,-1.3437457,2.8668928,-9.015517,-2.5829831409346160098,5.2235494,-2.2900538,-1.8579005,3.383931,-8.820729,-2.62948471409346160099,5.4282537,-2.030283,-2.7102363,3.9395752,-8.551568,-2.74241661409346160099,5.407903,-2.03567,-3.4608185,4.489466,-8.205497,-2.9470191409346160101,5.329493,-2.208651,-4.0174704,4.9695024,-7.813385,-3.22885271409346160108,5.3857565,-2.3660698,-4.225766,5.356274,-7.403221,-3.55991841409346160130,5.3420625,-2.8293478,-3.7666779,5.674314,-6.9946966,-3.87901541409346160130,4.7734394,-5.0643353,-2.147599,5.9220924,-6.663852,-4.085621409346160141,3.1848867,-10.239402,2.8981812,5.9910264,-6.662701,-3.98577761409346160169,-9.103952,-19.021334,18.751986,5.7455273,-7.312757,-3.11173321409346160169,-13.087305,-19.608511,12.809578,5.834264,-7.1477437,-3.32287261409346160170,-19.60911,-19.608511,15.217546,5.918414,-6.9517293,-3.57997561409346160180,-18.23364,-19.52711,8.751406,5.9510202,-6.8163414,-3.78063851409346160204,-11.405977,-14.296975,6.184223,5.9103956,-6.750564,-3.95821571409346160204,-7.4854717,-10.557233,7.6428905,-3.0772655,-8.814108,3.00205371409346160208,-2.107496,-8.764574,6.31351,-3.4246316,-8.61795,3.1895481409346160237,1.3868413,-7.8475947,3.9546227,-3.358368,-8.57268,3.37652181409346160237,3.7654808,-8.682572,2.5019407,-3.015282,-8.630117,3.54958181409346160239,7.1287355,-12.952631,1.7369933,-2.435722,-8.781476,3.62261371409346160261,9.235633,-18.40363,-2.204461,-1.5066724,-9.054983,3.4507431409346160261,6.6750345,-15.810111,-4.155137,-0.4917878,-9.388527,2.79000261409346160274,2.7461493,-11.271901,-1.79206,0.12540595,-9.569814,2.13853651409346160294,0.3333926,-10.1161,2.0350714,0.34832713,-9.628043,1.8302571409346160295,1.2120646,-10.131064,0.15981296,0.34878188,-9.62533,1.84438571409346160310,2.9813797,-9.949105,-2.2068555,0.43348902,-9.654317,1.66633051409346160310,4.0252514,-10.0903635,-2.823961,0.66294396,-9.692448,1.33691561409346160325,4.0880995,-10.468647,-2.3235726,0.95748925,-9.706276,1.02068951409346160327,3.6230257,-9.654618,-2.1152773,1.2342186,-9.70058,0.73881011409346160343,3.9390604,-8.58022,-2.5971103,1.4636765,-9.686699,0.4425941409346160360,4.1742907,-8.700529,-2.9095535,1.7115798,-9.655295,0.127272491409346160360,4.083311,-9.188348,-3.2860417,1.9590588,-9.607629,-0.161118491409346160374,4.0294414,-9.238626,-3.1860838,2.1692069,-9.552997,-0.453004481409346160391,4.213795,-8.494029,-2.566584,2.3634422,-9.491253,-0.70755911409346160391,4.0342298,-7.6650367,-1.632247,2.5642073,-9.422845,-0.897336361409346160410,3.5368345,-7.1131735,-0.8026561,2.7472308,-9.360842,-0.998889451409346160410,3.1603463,-6.881534,-0.36152446,2.891788,-9.314579,-1.02301321409346160425,2.846706,-7.053318,-0.30765492,3.0049467,-9.28112,-1.00073951409346160428,2.706645,-7.748235,-0.4417302,3.0826483,-9.259426,-0.9647351409346160441,2.5222914,-9.016563,-0.7314286,3.1154695,-9.251758,-0.932304561409346160457,1.8004397,-10.919355,-1.0247183,3.0985503,-9.258345,-0.923271661409346160463,0.8230068,-12.929886,-1.1444284,2.9620419,-9.302091,-0.93156281409346160478,-1.216853,-14.437634,-1.1294646,2.69946,-9.38112,-0.93695561409346160480,-1.6998832,-12.275671,-1.1552023,2.2451544,-9.501257,-0.925087751409346160488,-1.7178397,-9.7162695,-1.2826935,1.832607,-9.589371,-0.92516521409346160513,-1.5275006,-8.448539,-1.5406688,1.4818165,-9.647746,-0.946350341409346160514,-1.508347,-8.283937,-1.8034325,1.1859505,-9.683098,-1.00077191409346160522,-1.1408371,-8.681973,-1.1629834,0.9272756,-9.701522,-1.09134451409346160530,-1.1498153,-9.471462,-0.12389994,0.72093266,-9.716288,-1.11552821409346160551,-1.5807717,-9.620501,0.49919105,0.5353016,-9.736659,-1.03985921409346160552,-2.1134815,-9.118916,-1.2006922,0.33102497,-9.759193,-0.90496371409346160560,-2.2505496,-9.015965,-2.054225,0.086989716,-9.760614,-0.94511641409346160584,-2.2397757,-9.71986,-1.5424645,-0.1574851,-9.746399,-1.07389931409346160585,-1.6801311,-9.650429,-1.2934675,-0.37465456,-9.730361,-1.16193181409346160588,-1.2970588,-9.685743,-1.4945804,-0.4932216,-9.7188635,-1.21277611409346160615,-0.15143326,-9.924564,-1.1198878,-0.57800287,-9.705273,-1.2821731409346160616,0.40162733,-10.3692875,-0.9828198,-0.5329849,-9.705736,-1.29808721409346160620,0.29328972,-10.600328,-1.0181342,-0.4372367,-9.710982,-1.29461881409346160629,0.073023155,-10.38485,-0.7721301,-0.3538288,-9.7141905,-1.2960211409346160658,-0.037708677,-10.17835,-0.62129533,-0.29185632,-9.718813,-1.27666851409346160660,-0.051475335,-10.152014,-0.6805518,-0.24893881,-9.723476,-1.24996411409346160661,-0.25198972,-10.542868,-0.676362,-0.22093232,-9.72705,-1.22722971409346160684,-0.12868834,-11.054627,-0.6380547,-0.21862698,-9.730958,-1.19626891409346160684,0.1412579,-11.525088,-0.4369418,-0.20603856,-9.735418,-1.16170621409346160688,0.30526072,-11.95784,-0.15502456,-0.17337343,-9.742774,-1.1039451409346160719,0.33279404,-12.052411,0.17956513,-0.13042262,-9.752649,-1.01940981409346160720,0.32142156,-12.028469,0.65182143,-0.08501155,-9.763523,-0.9147491409346160721,0.24001873,-12.314576,2.5594015,-0.041666914,-9.775534,-0.77946991409346160752,0.020949265,-12.711415,7.678205,-0.013029286,-9.794108,-0.49560431409346160752,0.14664486,-12.751518,14.039598,-0.020234467,-9.804495,0.204576491409346160752,0.017357962,-12.789825,13.512276,-0.032530908,-9.714988,1.33729781409346160779,-0.80804306,-12.898163,5.4085016,-0.06929887,-9.544559,2.25099231409346160780,-1.2240356,-13.128605,-2.212841,-0.17760734,-9.490005,2.465491409346160780,-1.70946,-14.372992,-3.9737763,-0.2950058,-9.557616,2.17607621409346160788,-3.0891187,-14.979921,-4.8135424,-0.3816407,-9.635536,1.78358851409346160810,-3.7283707,-14.590864,-2.3481133,-0.49792555,-9.710795,1.27393231409346160812,-3.217807,-14.097658,0.36511576,-0.6581023,-9.740287,0.929584561409346160826,-3.004723,-14.311939,1.7525556,-0.80405915,-9.736949,0.845980761409346160845,-4.8500543,-15.814899,5.2319293,-0.9433193,-9.725099,0.83843921409346160845,-5.8825536,-15.831658,9.152434,-1.1845334,-9.672308,1.10169851409346160848,-5.267244,-14.671668,8.69155,-1.4573939,-9.563511,1.60799961409346160860,-4.028843,-13.567941,1.3844471,-1.7023722,-9.43701,2.05308911409346160878,-3.3740287,-12.964602,-4.3179426,-1.8955684,-9.407096,2.02083061409346160882,-3.5464113,-12.901754,-3.7948096,-2.0320446,-9.45494,1.62644431409346160888,-3.032855,-13.0202675,-1.733402,-2.1305397,-9.488832,1.26223721409346160906,-1.365892,-13.517064,-0.95468795,-2.1510632,-9.509362,1.05611231409346160908,-0.17956513,-12.910732,-2.0763714,-2.067718,-9.544797,0.88982111409346160922,0.32022446,-12.164939,-3.269881,-1.925308,-9.592218,0.67300841409346160940,0.99538934,-13.207614,-4.0378213,-1.7770032,-9.636049,0.398965921409346160942,1.9877859,-15.472528,-4.3777976,-1.580472,-9.678016,0.0921882541409346160956,3.9193082,-18.087595,-3.7816415,-1.3178517,-9.715392,-0.211680921409346160960,6.18542,-19.608511,-1.8130093,-0.9450823,-9.751492,-0.43079811409346160973,13.730747,-19.608511,2.497751,-0.46122965,-9.784291,-0.474652741409346160987,11.102511,-18.212093,0.19991584,-0.79822165,-9.771598,-0.22153481409346160988,5.5862713,-14.495095,-2.4779987,1.0744203,-9.746473,-0.149208021409346161009,2.6833014,-12.51928,-6.4032927,1.3703883,-9.706986,-0.258521021409346161009,2.5246856,-10.243592,-6.7199254,1.5121335,-9.668529,-0.6351351409346161020,3.525462,-9.850345,-6.2129536,1.6116955,-9.618902,-1.02448191409346161037,4.183269,-9.583989,-6.2512608,1.7079302,-9.56003,-1.36350681409346161040,3.788824,-6.9838862,-3.6816838,1.8353295,-9.481986,-1.70113351409346161062,2.5372553,-4.38917,-2.1392193,1.9771358,-9.420325,-1.87584871409346161063,2.7910407,-3.378817,-3.1358056,2.0850463,-9.376261,-1.97704491409346161068,2.9526494,-3.9384618,-4.8219223,2.231708,-9.298371,-2.17489771409346161096,1.673547,-4.778228,-5.9705405,2.3899431,-9.185796,-2.46571181409346161097,0.46088383,-5.675455,-2.03567,2.417648,-9.072643,-2.83063531409346161100,-0.2753332,-5.7478795,-1.2797008,2.317365,-9.084938,-2.87473751409346161109,0.2220622,-5.0062757,-1.0043676,2.1238623,-9.130578,-2.8796111409346161131,1.4748282,-4.0539823,-1.3198037,1.987127,-9.166086,-2.86437061409346161132,2.5845408,-2.534861,-1.8489223,2.0307448,-9.150382,-2.88391451409346161140,3.7104142,-1.4209588,-1.9201498,2.2388577,-9.064566,-2.9985991409346161169,4.015076,-1.0420763,-1.8626889,2.627396,-8.909985,-3.14314271409346161170,4.334702,-1.2587515,-1.9578584,3.078504,-8.710771,-3.28871941409346161170,4.742315,-1.1336545,-2.429516,3.5668926,-8.468182,-3.4260191409346161195,5.058948,-0.6931214,-2.96881,4.0952773,-8.148203,-3.60636851409346161195,5.1235914,-0.33039984,-3.4452562,4.6456356,-7.7290373,-3.85363251409346161200,4.8015714,-0.22864626,-4.160524,5.161944,-7.2361546,-4.14280221409346161208,4.653131,-0.41359833,-4.4125137,5.5700364,-6.6842384,-4.5239411409346161222,4.9440265,-0.6619968,-3.8905778,5.886575,-6.136975,-4.8842751409346161241,4.980538,-1.9147629,-3.353678,6.1914864,-5.6329865,-5.10933731409346161243,4.0946836,-4.8506527,-2.0775685,6.4062734,-5.32084,-5.17868041409346161261,1.3347675,-11.848306,7.504027,6.4112973,-5.485649,-4.9973281409346161261,-13.130401,-19.608511,19.369091,6.089736,-6.9217224,-3.34293991409346161268,-19.537884,-19.608511,16.315886,6.218972,-6.6919103,-3.56554961409346161291,-19.598337,-19.608511,12.188881,6.3442674,-6.4546065,-3.77606871409346161291,-14.181456,-18.441936,5.544971,6.3906126,-6.3222775,-3.91909361409346161305,-10.191518,-11.096526,6.4445925,6.3292255,-6.2926893,-4.06366541409346161309,-6.296152,-8.069656,7.392098,-3.725847,-8.560529,3.00096871409346161322,-1.6053122,-7.253234,5.6245785,-3.9481106,-8.358037,3.2750631409346161341,1.5837644,-6.67683,2.4307132,-3.7734025,-8.316673,3.57278281409346161341,4.892551,-8.311471,0.90740246,-3.3447516,-8.440746,3.70632391409346161357,8.785523,-14.716559,-2.9251158,-2.604495,-8.734831,3.61797481409346161372,8.992023,-18.530523,-6.0447607,-1.4468602,-9.236196,2.96136951409346161373,5.873575,-14.621389,-5.8203044,-0.39145884,-9.592196,2.0017331409346161388,2.658761,-10.876859,-0.65421563,0.19912031,-9.721514,1.27394151409346161389,0.31184477,-11.501146,3.3614593,0.42598933,-9.738312,1.07435951409346161403,2.2224178,-10.356119,1.192911,0.41538376,-9.725636,1.1873811409346161409,4.4017396,-9.054273,-1.395221,0.57844377,-9.721207,1.15496131409346161423,4.803367,-9.268554,-2.2278047,0.9127856,-9.717283,0.954791409346161443,4.3819876,-9.2787285,-1.5891514,1.2686472,-9.69709,0.7261961409346161444,4.9344497,-7.8224554,-0.842759,1.5681039,-9.666955,0.51129561409346161449,5.465364,-7.1730285,-0.7637503,1.9154701,-9.612106,0.329778341409346161480,5.3444567,-7.921815,-1.6543933,2.2899325,-9.5334635,0.199125131409346161481,4.3544545,-9.633669,-2.947861,2.6297855,-9.447425,0.0280307481409346161483,4.1102457,-9.037513,-2.3301568,2.8195205,-9.389434,-0.243356931409346161490,3.815759,-8.347384,-1.5999253,2.9734237,-9.335103,-0.43013651409346161516,3.304597,-7.989451,-1.1354501,3.0880456,-9.291379,-0.551944731409346161517,2.954445,-7.809886,-0.89782566,3.1596944,-9.263078,-0.61816991409346161521,2.6880898,-8.016386,-0.92535895,3.201745,-9.244829,-0.672578931409346161547,2.4349031,-8.9279785,-1.1354501,3.2171414,-9.235836,-0.72092071409346161548,1.7597382,-10.575189,-1.4167689,3.1832361,-9.242965,-0.7778181409346161549,0.81761986,-12.437878,-1.6753427,3.0455441,-9.283273,-0.84610711409346161576,-0.33159694,-13.841478,-1.7441759,2.7864125,-9.35794,-0.913927441409346161577,-1.3030443,-13.842077,-1.441908,2.4226046,-9.453608,-0.96471041409346161580,-1.6711528,-12.0967045,-1.2072762,2.0176208,-9.5475025,-0.971991541409346161589,-1.9297266,-9.695918,-1.2485762,1.6521156,-9.61915,-0.95542061409346161613,-1.9692309,-8.298902,-1.726818,1.3128265,-9.670959,-0.95886041409346161613,-1.8926164,-8.085219,-2.2930467,1.001317,-9.701861,-1.02059841409346161621,-1.6525977,-8.394072,-2.2601264,0.717861,-9.712702,-1.14826751409346161654,-2.143409,-9.227852,-1.8620903,0.47918814,-9.711493,-1.27580441409346161655,-2.735974,-9.935937,-2.4534583,0.21366468,-9.7106285,-1.35220351409346161655,-3.779846,-9.848549,-3.8414967,-0.084151864,-9.697615,-1.455881409346161681,-4.361637,-10.421362,-3.566762,-0.46159592,-9.645904,-1.70699811409346161682,-3.347094,-10.193314,-2.9753942,-0.841903,-9.577725,-1.93100871409346161682,-2.3265655,-9.8198185,-1.6017209,-1.0475446,-9.521644,-2.1003191409346161690,-1.2312182,-9.941922,-0.9983821,-1.146328,-9.511532,-2.09453961409346161731,-0.41958386,-10.429143,-1.0067618,-1.1648177,-9.529137,-2.00229291409346161732,-0.08259996,-10.996569,-0.9672575,-1.1048745,-9.554211,-1.91486331409346161733,-0.036511578,-11.3407345,-0.623091,-0.9996114,-9.582027,-1.83191321409346161734,-0.2813187,-11.112687,-0.037708677,-0.8912405,-9.613177,-1.72130541409346161742,-0.4914099,-10.474034,0.29568392,-0.80905354,-9.643994,-1.58404711409346161773,-0.5835867,-9.965266,0.21906945,-0.7626009,-9.669951,-1.44252881409346161774,-0.59615624,-10.165182,0.219668,-0.74196506,-9.688673,-1.32268791409346161777,-0.17477672,-10.757747,0.3465607,-0.73252213,-9.704423,-1.20745931409346161798,0.54647654,-11.225813,0.7811083,-0.6861912,-9.722246,-1.08511231409346161799,1.1629834,-11.613674,1.8459295,-0.5746872,-9.744999,-0.935472671409346161801,1.6837224,-11.551425,4.9781437,-0.4088723,-9.773241,-0.697828351409346161824,2.3439236,-11.348516,9.179968,-0.21542923,-9.80205,-0.209284531409346161824,2.2613235,-11.860875,11.514913,0.009680486,-9.7884245,0.597522261409346161839,1.3784616,-12.710218,11.315596,0.17625551,-9.691062,1.49084931409346161854,0.6901286,-12.269087,7.5549035,0.2112536,-9.544149,2.2438791409346161855,0.24361002,-10.551846,-0.15263036,0.15935293,-9.433685,2.67406341409346161869,-0.030526072,-10.478224,-5.5120506,0.11529315,-9.460025,2.58167271409346161870,-1.1558008,-13.2273655,-6.203975,0.14531215,-9.586455,2.06133961409346161887,-3.245939,-15.506047,-3.8426938,0.1203859,-9.7105055,1.36454431409346161889,-3.9641995,-14.918271,-1.0414777,-0.07817198,-9.763025,0.92065781409346161904,-3.9959226,-14.120403,-1.8489223,-0.31549782,-9.77554,0.71389181409346161919,-4.647744,-14.254478,-1.9566613,-0.58485734,-9.779147,0.443401661409346161921,-4.8297033,-15.096041,1.1779473,-0.90068525,-9.763278,0.193739821409346161937,-3.7223852,-15.351622,5.641338,-1.175734,-9.733598,0.212408831409346161941,-3.229778,-15.6790285,9.9790325,-1.3342749,-9.697721,0.586797651409346161955,-3.4811692,-16.418837,13.637972,-1.423623,-9.623779,1.23554131409346161970,-3.1304188,-16.451757,10.200497,-1.5162884,-9.466282,2.06416151409346161970,-2.6300306,-15.057733,-5.4539914,-1.6064615,-9.335717,2.53654771409346161984,-2.641403,-11.75553,-5.391742,-1.709733,-9.446966,2.00051071409346161989,-2.3654714,-12.438477,-3.8055837,-1.8084582,-9.513025,1.54991531409346162007,-1.6496049,-12.574945,-4.550779,-1.8206935,-9.561752,1.19513981409346162019,-0.8319851,-11.596316,-5.273229,-1.7661368,-9.613449,0.79544211409346162023,-0.32321724,-11.456854,-4.8841715,-1.696808,-9.651331,0.378230071409346162041,0.58418524,-12.532449,-4.899135,-1.6090672,-9.67372,0.0199479421409346162042,1.9680338,-14.551958,-4.896741,-1.467695,-9.6904335,-0.334363431409346162049,3.5033157,-17.770962,-3.5284548,-1.2155331,-9.709803,-0.642323141409346162074,5.4922986,-19.608511,-0.12030864,-0.86333865,-9.735909,-0.7981931409346162074,8.273763,-19.608511,3.2632968,-0.4176878,-9.773538,-0.688375061409346162091,10.984597,-19.608511,1.9542671,0.15480328,-9.798565,-0.366815951409346162093,9.57561,-16.930597,-1.5508442,-0.108587146,-9.805201,-0.128970971409346162108,5.383961,-12.925097,-3.9510314,1.3216724,-9.714504,-0.227945091409346162109,2.7647045,-11.062409,-6.7163343,1.5592855,-9.673082,-0.412933231409346162121,2.5995045,-9.89763,-6.7881603,1.6794846,-9.62829,-0.80358991409346162137,3.3303347,-9.7958765,-5.8622026,1.7746682,-9.573056,-1.17369321409346162166,4.004901,-8.880095,-5.267244,1.8590304,-9.515135,-1.47533951409346162166,4.128801,-7.0449386,-3.333926,1.976785,-9.444308,-1.75150141409346162167,3.2429461,-4.1814733,-3.7726634,2.1313987,-9.377157,-1.92261991409346162170,1.9554642,-2.5181017,-5.327099,2.284689,-9.287707,-2.16542081409346162197,1.423353,-3.25791,-5.0224366,2.383885,-9.16858,-2.53468751409346162197,1.7932571,-4.6884456,-1.9949685,2.4351442,-9.058895,-2.85952261409346162204,0.7942764,-5.9980736,-1.264737,2.5030253,-9.034594,-2.87773471409346162233,0.4201824,-6.017826,0.207697,2.4108,-9.065521,-2.85914971409346162234,0.29807812,-5.521628,0.15502456,2.2630563,-9.1445675,-2.72504451409346162235,0.55964464,-4.621408,-0.23822308,2.1213346,-9.217877,-2.58865331409346162273,1.4293385,-3.4165258,-1.2563573,2.0511272,-9.260196,-2.4923961409346162274,2.777274,-2.5270798,-1.8800468,2.1251664,-9.234642,-2.52496741409346162274,3.6248214,-2.156577,-1.8219875,2.3841183,-9.137353,-2.64483951409346162275,4.348469,-2.0721815,-1.8908207,2.7596538,-8.99284,-2.77191851409346162302,5.0146556,-2.0123265,-1.9548657,3.2325964,-8.792676,-2.8999261409346162303,5.497087,-2.0021513,-2.1613655,3.7815542,-8.531608,-3.01362181409346162304,5.667674,-2.0560207,-2.7473464,4.357908,-8.209776,-3.12708451409346162328,5.893926,-2.095525,-3.221997,4.889516,-7.8345914,-3.29882241409346162329,6.1183825,-2.123657,-3.6254199,5.37277,-7.417128,-3.50570271409346162330,6.0285997,-2.3600843,-3.4464533,5.788668,-6.9836917,-3.72689411409346162355,5.327099,-3.632004,-2.700061,6.1333694,-6.5868106,-3.89436671409346162355,3.7116113,-6.777985,-0.64823014,6.3096223,-6.3976,-3.92807321409346162368,1.204882,-12.8053875,7.2245035,6.195256,-6.6728435,-3.64175271409346162370,-9.242217,-19.607315,19.608511,5.645662,-7.7081785,-2.20927071409346162384,-18.95669,-19.608511,19.53848,5.738377,-7.55755,-2.474841409346162390,-19.308638,-19.608511,14.583681,5.785019,-7.444862,-2.69776961409346162403,-12.508507,-18.199524,6.4188547,5.7328243,-7.417475,-2.87857911409346162419,-10.187927,-11.717223,7.4986396,5.666146,-7.4236436,-2.99244171409346162422,-6.993463,-9.233239,8.150461,-3.0643694,-8.609796,3.5568911409346162436,-2.9753942,-8.37372,6.003461,-3.368146,-8.396151,3.78558471409346162453,0.7517793,-7.856573,2.11827,-3.3006437,-8.317825,4.0112261409346162453,4.56694,-10.666767,-3.989937,-2.9592526,-8.442502,4.0171341409346162468,6.537368,-17.42081,-9.421184,-2.303355,-8.886677,3.4484671409346162470,0.25677812,-17.075447,-0.1388637,-1.4290864,-9.438343,2.24628471409346162483,0.3764882,-11.032481,1.9476831,-1.1860497,-9.53957,1.93914341409346162509,2.3588872,-9.903017,-0.14784196,-1.0056896,-9.55534,1.96327281409346162510,3.7307649,-8.449737,-2.247557,-0.6964928,-9.610929,1.82080531409346162510,4.1102457,-7.8009076,-4.140772,-0.32110417,-9.682802,1.52007951409346162522,3.4494462,-8.5862055,-1.7070658,0.06066402,-9.747233,1.07616911409346162539,4.8937483,-6.4463882,0.45310268,0.37452304,-9.7647085,0.82497641409346162542,6.3619924,-4.6351743,1.6484078,0.8254466,-9.746869,0.69825131409346162550,6.7330937,-4.797382,0.85293436,1.4047803,-9.680853,0.691440171409346162583,6.681618,-6.791153,-0.9044097,2.015084,-9.571374,0.70611941409346162583,5.995081,-9.15842,-2.6240451,2.549837,-9.4530735,0.55508451409346162583,5.3462524,-10.312426,-3.2650926,2.9335802,-9.35442,0.243529071409346162611,4.4897265,-10.371083,-3.043629,3.1786692,-9.276768,-0.089526541409346162612,4.1533413,-9.7479925,-2.5594015,3.3034842,-9.226566,-0.357544751409346162613,3.846285,-9.41041,-2.0284874,3.3925726,-9.183586,-0.567937851409346162643,3.3716345,-9.404425,-1.6106992,3.4488683,-9.151928,-0.719644961409346162643,2.6180596,-10.126875,-1.5861586,3.449161,-9.142915,-0.825106441409346162644,1.8740613,-11.439496,-1.7932571,3.3755233,-9.163726,-0.895759641409346162650,1.1941081,-12.876017,-2.1021092,3.2080503,-9.214449,-0.986273171409346162672,0.6147113,-13.940838,-2.2583308,2.9610486,-9.286408,-1.07944661409346162673,0.260968,-13.687651,-1.9452889,2.6646514,-9.367043,-1.15262321409346162684,0.24600422,-12.248735,-1.5346833,2.373276,-9.442573,-1.17293821409346162711,0.051475335,-10.405201,-1.4323312,2.13113,-9.50275,-1.15169691409346162712,-0.45010993,-9.115923,-1.7058687,1.919579,-9.548616,-1.14433521409346162713,-0.89303726,-8.700529,-2.1589713,1.7107173,-9.581921,-1.19608521409346162722,-1.0761937,-8.627506,-2.4384944,1.4864159,-9.607792,-1.28500571409346162743,-1.0684125,-9.029133,-1.4359225,1.2611264,-9.621573,-1.4160771409346162745,-1.7136499,-9.664195,-0.58418524,1.0503747,-9.641841,-1.44982181409346162750,-2.0386627,-9.524135,-2.496554,0.78973,-9.675078,-1.39266851409346162771,-3.0538042,-10.095152,-3.6493618,0.5019798,-9.672686,-1.53543811409346162772,-3.7283707,-10.574591,-4.5124717,0.14531507,-9.640584,-1.79120951409346162794,-2.9412768,-9.743802,-3.9624038,-0.19675826,-9.584628,-2.06556561409346162794,-2.297835,-9.3104515,-3.2273839,-0.43304306,-9.526433,-2.28690031409346162806,-1.3215994,-9.172187,-1.7645266,-0.600572,-9.488931,-2.40206431409346162825,-0.06943185,-9.391256,-0.3357868,-0.69530547,-9.48945,-2.3743071409346162826,0.20949265,-10.176555,-0.3681085,-0.6606486,-9.530104,-2.21608471409346162830,-0.08798691,-10.764331,-0.3573346,-0.58269864,-9.569825,-2.0613721409346162859,-0.2885013,