time,acc_x,acc_y,acc_z,gravity_x,gravity_y,gravity_z1409346899574,0.31423897,-9.452309,-1.0103531,0.48993182,-9.741605,-1.01564071409346899575,0.3633201,-9.387665,-1.1031284,0.47701886,-9.740807,-1.02934251409346899587,0.57041854,-9.853337,-1.3030443,0.46736065,-9.73977,-1.04350021409346899609,0.80924016,-10.460866,-1.4939818,0.45944294,-9.7385435,-1.05833831409346899610,0.89184016,-10.748769,-1.3904326,0.45423555,-9.737246,-1.07242991409346899629,1.0348936,-10.620679,-1.1150994,0.45169887,-9.735871,-1.08589271409346899630,1.1791444,-10.237008,-0.7410054,0.45426193,-9.734181,-1.09989551409346899634,1.352724,-10.0987425,-0.5231331,0.4589035,-9.732364,-1.11396781409346899660,1.4460979,-9.964069,-0.45310268,0.46257752,-9.730642,-1.12738791409346899661,1.5011644,-9.961675,-0.47884035,0.46477327,-9.729284,-1.13817751409346899668,1.541866,-9.873089,-0.5566519,0.46757478,-9.728138,-1.14678111409346899674,1.6124948,-9.677363,-0.7751228,0.47135353,-9.727413,-1.15136211409346899690,1.5819688,-10.580576,-1.0971429,0.47616976,-9.726955,-1.15324651409346899713,1.3317747,-11.331757,-1.3144168,0.48116094,-9.72675,-1.15290511409346899713,1.1959038,-10.968436,-1.2521675,0.48660505,-9.726549,-1.15231941409346899715,1.2431892,-10.075998,-1.0007763,0.4936362,-9.7261915,-1.15235281409346899749,1.1791444,-9.67018,-0.88525605,0.49874213,-9.72631,-1.14915551409346899750,1.110311,-9.785701,-0.8206126,0.49821314,-9.727313,-1.14087511409346899750,1.151611,-9.964667,-0.7212533,0.49563983,-9.728653,-1.13050221409346899754,1.2862848,-10.09994,-0.79367787,0.49481106,-9.730214,-1.11736211409346899782,1.3084313,-10.19451,-1.1312603,0.4959229,-9.73173,-1.10357441409346899783,1.1976994,-10.166978,-1.3790601,0.49701306,-9.733233,-1.08973771409346899788,0.98341835,-9.917382,-1.4401124,0.49931654,-9.734744,-1.07509241409346899814,0.8218097,-9.988011,-1.4377182,0.5040395,-9.736102,-1.06050521409346899815,0.7188591,-10.238804,-1.3551182,0.5105817,-9.737198,-1.04722071409346899816,0.7254431,-10.320207,-1.2126632,0.51630145,-9.738343,-1.03369651409346899847,0.86610246,-10.554838,-1.0696096,0.52218145,-9.739635,-1.01845981409346899848,1.027711,-10.76852,-1.0127473,0.5273038,-9.741244,-1.00025731409346899849,1.0953473,-10.590752,-0.92416185,0.5298917,-9.743188,-0.979747531409346899855,1.1025299,-10.332177,-0.88286185,0.529559,-9.745324,-0.95843761409346899879,1.1528081,-10.104729,-0.9840169,0.52703685,-9.747438,-0.93811441409346899880,1.1761516,-9.909601,-1.151611,0.52194077,-9.7494135,-0.92027771409346899886,1.1324574,-9.897031,-1.3742718,0.51483613,-9.751137,-0.905910131409346899911,1.0223241,-9.797672,-1.5053543,0.50896543,-9.752562,-0.893811171409346899912,0.91817635,-9.636064,-1.5143325,0.5036138,-9.7534895,-0.886688771409346899915,0.7685388,-9.478644,-1.4167689,0.5016775,-9.753912,-0.883161409346899943,0.47165772,-9.6845455,-1.4574703,0.50278383,-9.75405,-0.880951641409346899944,0.3345897,-10.02572,-1.5442601,0.50487345,-9.754149,-0.87868551409346899961,0.25019407,-10.283695,-1.5292963,0.5086933,-9.754219,-0.87570091409346899962,0.12030864,-10.168175,-1.2707225,0.5148181,-9.754214,-0.872165741409346899968,0.1388637,-10.34355,-1.1085154,0.520432,-9.754378,-0.866983351409346899975,0.13467385,-10.55005,-1.0791864,0.5290049,-9.754436,-0.861114141409346899989,0.089184016,-10.567408,-1.1306617,0.53753394,-9.754381,-0.8564521409346900031,-0.029927522,-10.396821,-1.1216835,0.54439116,-9.754308,-0.85295891409346900033,-0.31304187,-10.308834,-1.0791864,0.5491015,-9.754234,-0.850778041409346900036,-0.5770026,-10.114903,-0.97982705,0.5509172,-9.75405,-0.851688741409346900038,-0.64583594,-10.085575,-0.9163807,0.5493615,-9.753656,-0.85717391409346900039,-0.7290344,-10.028113,-0.82719666,0.5424268,-9.753246,-0.86623691409346900065,-0.84575176,-9.993398,-0.7404069,0.53102154,-9.753035,-0.87564191409346900066,-0.8451532,-9.932345,-0.7164649,0.51137483,-9.753128,-0.88620591409346900066,-0.80325466,-10.081385,-0.712275,0.48739392,-9.753252,-0.89829851409346900074,-0.7302315,-10.429741,-0.6691794,0.4614924,-9.753384,-0.91044841409346900091,-0.45370123,-10.512939,-0.533907,0.4367185,-9.753529,-0.92106451409346900106,0.08798691,-10.335769,-0.40821138,0.4168824,-9.753572,-0.929770951409346900109,0.5105635,-10.079589,-0.33877954,0.40167305,-9.753464,-0.937556151409346900124,0.6488287,-9.915586,-0.38187516,0.38767496,-9.753258,-0.945546571409346900141,0.65780693,-9.855133,-0.52492875,0.37204427,-9.753102,-0.9534161409346900142,0.6404489,-9.731832,-0.6356605,0.3581057,-9.753053,-0.959230841409346900152,0.66858083,-9.952098,-0.7410054,0.34959555,-9.753209,-0.96077981409346900154,0.7320272,-10.339958,-0.8331822,0.34582943,-9.753575,-0.95842071409346900168,0.79607207,-10.523115,-0.9068039,0.34542936,-9.754124,-0.95297941409346900175,0.8870517,-10.5704,-0.9684546,0.34785238,-9.754785,-0.94530751409346900188,0.9780314,-10.488997,-0.94930094,0.35202992,-9.755496,-0.93635731409346900208,0.9840169,-10.264542,-0.85173726,0.35681534,-9.756194,-0.927225351409346900209,1.0031705,-9.978435,-0.6823475,0.36259246,-9.756946,-0.917035941409346900235,1.0408791,-9.836577,-0.56084174,0.369771,-9.757789,-0.90512341409346900239,1.0540473,-9.77792,-0.5279215,0.37793937,-9.7586975,-0.891854761409346900241,1.003769,-9.634268,-0.55725044,0.3856262,-9.759705,-0.87742291409346900272,0.94930094,-9.363124,-0.748188,0.392313,-9.760841,-0.86167121409346900274,0.7787141,-9.193734,-0.94570965,0.398283,-9.762013,-0.8454841409346900276,0.50757074,-9.27394,-1.1109096,0.40384617,-9.763124,-0.82985921409346900301,0.2896984,-9.464279,-1.2892777,0.40879115,-9.76411,-0.81573891409346900301,0.17956513,-9.500193,-1.4036007,0.41642854,-9.764763,-0.80400231409346900302,0.13587095,-9.734824,-1.5478514,0.42624184,-9.765158,-0.79398531409346900306,0.13946225,-10.314221,-1.8177977,0.43462607,-9.765422,-0.78616971409346900318,0.077213004,-10.717046,-2.0272903,0.4413595,-9.765398,-0.782699351409346900335,0.047884032,-10.761936,-2.0757728,0.44782734,-9.76493,-0.784856261409346900336,0.22325931,-10.710462,-1.8746599,0.4535732,-9.763942,-0.79378661409346900357,0.47465047,-10.632649,-1.5610195,0.45922896,-9.762751,-0.80512281409346900358,0.700304,-10.433332,-1.252766,0.4642395,-9.761076,-0.8223581409346900378,0.96905315,-10.653599,-1.0660183,0.46646717,-9.758938,-0.846126441409346900379,1.1821371,-10.532093,-0.8535329,0.4661124,-9.75639,-0.875210461409346900388,1.323395,-10.465654,-1.1192893,0.46593228,-9.753479,-0.907145861409346900428,1.2886791,-10.338761,-1.271321,0.4656698,-9.750102,-0.94289991409346900430,1.1504139,-10.239402,-1.1665748,0.46274072,-9.746792,-0.97792621409346900432,1.0067618,-10.095152,-0.95349085,0.458476,-9.74367,-1.01049051409346900434,0.85891986,-9.97185,-0.7799112,0.45469278,-9.7405205,-1.04208451409346900436,0.74639237,-10.00477,-0.5805939,0.45133722,-9.737073,-1.07521521409346900484,0.6979098,-10.110115,-0.4309563,0.447614,-9.7336,-1.1077281409346900486,0.7032967,-10.126875,-0.28431144,0.44279236,-9.730508,-1.13646661409346900488,0.74639237,-10.1382475,-0.22026655,0.4380253,-9.728067,-1.15898121409346900490,0.81163436,-10.114903,-0.19572599,0.4333382,-9.726264,-1.17575991409346900493,0.8074445,-10.108918,-0.23582886,0.42817554,-9.725048,-1.18764731409346900515,0.7918822,-10.156802,-0.29448682,0.42289698,-9.724052,-1.19765731409346900516,0.78769237,-10.175956,-0.3573346,0.41870564,-9.723504,-1.20355171409346900517,0.81163436,-10.308235,-0.47165772,0.41685733,-9.723424,-1.2048471409346900535,0.6967127,-10.110714,-0.59855044,0.41682914,-9.723897,-1.20103991409346900535,0.59256494,-10.005967,-0.705691,0.41767803,-9.724873,-1.19281921409346900552,0.5117606,-10.032304,-0.84335756,0.42065373,-9.726241,-1.18055251409346900555,0.43754035,-10.08737,-0.97503865,0.4252795,-9.727896,-1.1651481409346900570,0.33279404,-10.1226845,-1.0899603,0.43051267,-9.729789,-1.1472991409346900600,0.24720132,-10.132261,-1.1677719,0.43534845,-9.731697,-1.12912681409346900601,0.16639702,-10.079589,-1.1947067,0.44173008,-9.733684,-1.109361409346900602,0.09876082,-10.101137,-1.2240356,0.44859627,-9.735701,-1.08870951409346900608,0.002394202,-10.149619,-1.3263878,0.45435524,-9.737697,-1.06827281409346900643,-0.0688333,-10.189124,-1.4089876,0.45933735,-9.739523,-1.04931911409346900645,-0.10115502,-10.157401,-1.4820108,0.46401983,-9.741133,-1.03220431409346900647,-0.11611878,-10.151415,-1.5382746,0.46720177,-9.742518,-1.01755151409346900652,-0.12330139,-10.153211,-1.5424645,0.4691688,-9.743739,-1.00491541409346900655,-0.05746084,-10.13286,-1.5304934,0.46878442,-9.744679,-0.99589851409346900668,0.029927522,-10.108918,-1.5179238,0.46650642,-9.745238,-0.99151341409346900684,0.108337626,-10.195708,-1.5065514,0.4624711,-9.745376,-0.992055241409346900692,0.25617957,-9.989208,-1.4269443,0.45652333,-9.745121,-0.99728031409346900726,0.37229836,-9.935937,-1.3802572,0.45002332,-9.744531,-1.00597741409346900727,0.45729253,-9.881469,-1.389834,0.4424335,-9.743678,-1.01753041409346900728,0.52133745,-9.975441,-1.401805,0.43446812,-9.742587,-1.0313241409346900729,0.59615624,-10.03769,-1.3928268,0.42712122,-9.741377,-1.04572431409346900735,0.6314707,-9.986814,-1.3904326,0.41989043,-9.739957,-1.06176411409346900782,0.64942724,-9.939528,-1.3922282,0.41293034,-9.738345,-1.07914441409346900783,0.6631939,-9.858724,-1.3856442,0.40644372,-9.736648,-1.09674951409346900786,0.6194997,-9.737218,-1.3545196,0.4014243,-9.734899,-1.11400821409346900789,0.5410896,-9.578004,-1.3413515,0.39837644,-9.7331,-1.13069031409346900792,0.45310268,-9.431359,-1.3251907,0.3972804,-9.731317,-1.14632521409346900827,0.3477578,-9.311649,-1.2737153,0.39605588,-9.729621,-1.16104871409346900828,0.27234045,-9.167398,-1.246182,0.39639038,-9.728199,-1.17279651409346900829,-0.030526072,-9.1272955,-1.3515269,0.39800307,-9.727047,-1.181771409346900831,-0.16519992,-10.015544,-1.4987702,0.39760962,-9.7261505,-1.1892391409346900836,-0.3321955,-10.803237,-1.5915456,0.3956296,-9.725424,-1.19584241409346900858,-0.44831428,-11.192294,-1.5598224,0.39108074,-9.724793,-1.20243871409346900859,-0.58119243,-11.442489,-1.4383167,0.38348442,-9.724091,-1.21054321409346900870,-0.8242039,-11.136629,-1.0803835,0.37154353,-9.723044,-1.2226141409346900898,-1.0803835,-10.825383,-0.682946,0.3554569,-9.72203,-1.23539581409346900899,-1.2485762,-10.758346,-0.30346507,0.33571556,-9.72051,-1.25273981409346900900,-1.2629414,-10.796054,0.04070143,0.31416175,-9.718504,-1.27373171409346900931,-1.0468647,-10.7912655,0.28491,0.29057628,-9.7162895,-1.29602121409346900932,-0.65660983,-10.626065,0.14963761,0.2667359,-9.714038,-1.31785431409346900934,-0.207697,-10.410587,-0.2908955,0.24453525,-9.711769,-1.33871531409346900936,0.20350714,-10.246585,-0.7649474,0.22515498,-9.709796,-1.35630061409346900958,0.50996494,-10.071808,-1.1546037,0.21150099,-9.707816,-1.37258021409346900959,0.7026982,-9.960478,-1.4437037,0.20155762,-9.706696,-1.38197171409346900967,0.7697359,-9.93474,-1.6567876,0.1970633,-9.706245,-1.38578391409346900994,0.7954735,-9.859921,-1.8124107,0.19725196,-9.705999,-1.38747911409346900996,0.79248077,-9.753379,-1.8656816,0.20214653,-9.705725,-1.38869311409346900997,0.80445176,-9.661801,-1.8543092,0.2106931,-9.7054405,-1.38941561409346901037,0.8038532,-9.609129,-1.8130093,0.22266382,-9.7050905,-1.38997321409346901038,0.8062474,-9.616311,-1.7830818,0.23711598,-9.704622,-1.39085351409346901041,0.7757214,-9.69532,-1.8267759,0.2515012,-9.703967,-1.39290571409346901042,0.6787562,-9.745,-1.8537107,0.2676862,-9.702588,-1.39946941409346901059,0.56982,-9.58818,-1.822586,0.28488296,-9.700305,-1.41185191409346901060,0.45190558,-9.558251,-1.7836803,0.3038778,-9.697011,-1.43040691409346901071,0.3429694,-9.633669,-1.714847,0.3232547,-9.692611,-1.45573431409346901094,0.22026655,-9.76535,-1.5592239,0.3419535,-9.687057,-1.48810161409346901096,0.0688333,-10.105327,-1.5346833,0.35989246,-9.680427,-1.52650641409346901098,-0.08379706,-10.209475,-1.5125369,0.37690058,-9.673197,-1.56767831409346901143,-0.17657238,-10.434529,-1.4610616,0.3916844,-9.664865,-1.61473941409346901145,-0.26874915,-10.476428,-1.2838906,0.40505293,-9.655757,-1.66514041409346901147,-0.32441434,-10.428544,-1.0594343,0.4169413,-9.646052,-1.71761761409346901148,-0.37828386,-10.460267,-0.84216046,0.42684206,-9.635535,-1.77332431409346901149,-0.40462008,-10.565612,-0.6697779,0.43374923,-9.62432,-1.83159821409346901156,-0.40880993,-10.678739,-0.4842273,0.43765274,-9.6125965,-1.89125511409346901172,-0.4249708,-10.678739,-0.25797522,0.4382775,-9.601003,-1.94911341409346901176,-0.61291564,-10.653599,-0.022744916,0.4378516,-9.589674,-2.00420641409346901210,-0.7457938,-10.508151,0.1921347,0.43341336,-9.579172,-2.05475641409346901216,-0.7032967,-10.26095,0.25139117,0.42783642,-9.569922,-2.0985611409346901217,-0.66498953,-10.053851,0.20530279,0.42231065,-9.562344,-2.13391831409346901218,-0.7015011,-9.991004,0.20709845,0.41743428,-9.55662,-2.160361409346901241,-0.6991069,-9.995792,0.038307227,0.4149353,-9.553406,-2.17501881409346901242,-0.5590461,-9.917382,-0.25977087,0.41586995,-9.552969,-2.17675421409346901254,-0.43394905,-9.825205,-0.6135142,0.41964903,-9.553527,-2.17357641409346901270,-0.35314476,-9.842564,-0.95468795,0.4250522,-9.556488,-2.15946131409346901271,-0.31124622,-9.991004,-1.6903064,0.4324958,-9.5613575,-2.13630081409346901289,-0.16819267,-10.4488945,-2.1272483,0.44106516,-9.566957,-2.10931161409346901290,-0.25438392,-10.604518,-2.384625,0.44908714,-9.573298,-2.07862951409346901296,-0.39923313,-10.63684,-2.6030958,0.45411083,-9.579814,-2.04727461409346901323,-0.4321534,-10.541072,-2.5887306,0.45674747,-9.58555,-2.01965071409346901324,-0.29448682,-10.503962,-2.3989902,0.45859674,-9.589931,-1.99832791409346901328,-0.008978256,-10.434529,-2.2098482,0.46111456,-9.593355,-1.98123471409346901336,0.30166942,-10.33098,-2.1134815,0.46585533,-9.593807,-1.97793211409346901359,0.4177882,-10.216658,-2.0332758,0.47477704,-9.591219,-1.98834661409346901361,0.35075054,-10.226234,-1.9542671,0.48855245,-9.586673,-2.0068491409346901370,0.16938977,-10.258555,-1.8261774,0.50681263,-9.581018,-2.02919051409346901390,0.013766659,-10.2896805,-1.8064252,0.5284201,-9.574541,-2.05410171409346901391,-0.15442601,-10.308834,-1.7663223,0.5529821,-9.567365,-2.08089851409346901396,-0.2645593,-10.253767,-1.7968484,0.5796905,-9.559898,-2.10777661409346901421,-0.3345897,-10.272921,-1.7998412,0.6065004,-9.552119,-2.13531521409346901422,-0.350152,-10.329783,-1.7202339,0.6360095,-9.54393,-2.16316581409346901439,-0.30526072,-10.277111,-1.5466543,0.6675005,-9.535476,-2.19079641409346901440,-0.22685061,-10.15381,-1.3449428,0.7016186,-9.526429,-2.21929171409346901448,-0.19931729,-10.072407,-1.1599907,0.73722094,-9.516316,-2.2509121409346901471,-0.25857377,-10.157401,-1.1109096,0.77305347,-9.504931,-2.28671811409346901472,-0.3477578,-10.325593,-1.1252748,0.8096689,-9.492588,-2.3249981409346901486,-0.50397944,-10.566211,-1.216853,0.84651965,-9.479975,-2.3630281409346901503,-0.66738373,-10.752359,-1.2880806,0.88473463,-9.467568,-2.39849731409346901503,-0.90141696,-10.95048,-1.282095,0.92442584,-9.455756,-2.42992831409346901516,-1.1073183,-11.355699,-1.2617443,0.96451795,-9.444539,-2.45779661409346901517,-1.4885949,-11.992557,-1.2042835,1.0034561,-9.433522,-2.48438051409346901538,-2.1176715,-12.923303,-0.85772276,1.0370082,-9.422755,-2.5113171409346901539,-2.882619,-14.111424,-0.47225627,1.0608369,-9.413544,-2.53579161409346901548,-3.608062,-15.043367,-0.008978256,1.0674951,-9.40751,-2.55531361409346901572,-4.284424,-15.294759,1.1186907,1.0576392,-9.405475,-2.566871409346901573,-4.8003745,-14.911687,3.9881415,1.026633,-9.409334,-2.5653171409346901576,-5.2127757,-14.046782,8.145673,0.9794258,-9.42646,-2.52051521409346901601,-5.035605,-13.367427,15.622765,0.91514105,-9.461863,-2.4095781409346901602,-3.2495303,-12.404359,11.472416,0.84176445,-9.534889,-2.13253641409346901618,-2.8712463,-11.033679,5.312135,0.80866045,-9.587456,-1.8966141409346901618,-2.7934349,-10.609905,1.7363948,0.78527623,-9.63912,-1.62514151409346901633,-2.2948422,-12.25113,-1.1025299,0.75014323,-9.686723,-1.33231711409346901636,-2.1386206,-13.302783,-4.2281604,0.6843246,-9.730446,-1.0102141409346901650,-1.3599066,-12.579136,-5.542577,0.56961983,-9.761607,-0.74628951409346901664,-0.6667852,-13.831304,-4.5447936,0.43519235,-9.782313,-0.53602881409346901668,-0.14664486,-14.01446,-4.5364137,0.29331544,-9.795786,-0.356291831409346901682,0.5823896,-14.237719,-4.84766,0.14807782,-9.8035555,-0.196904971409346901704,1.6675615,-14.826693,-4.8045645,0.005200491,-9.806565,-0.040390461409346901705,2.72939,-14.808138,-4.759673,-0.12245354,-9.805159,0.1193032561409346901710,3.7750576,-14.438832,-4.196437,-0.22756022,-9.800034,0.279221451409346901716,3.900753,-13.962386,-1.6765398,-0.29686376,-9.7922945,0.439558121409346901740,1.6436194,-12.987946,-0.12689269,-0.3335969,-9.782009,0.609431861409346901741,1.3030443,-12.634202,0.50757074,-0.37054947,-9.7693405,0.77011581409346901748,1.5245079,-12.299613,-1.0833763,-0.40990883,-9.75539,0.91363581409346901774,2.0841527,-11.414955,-3.1998506,-0.47807723,-9.740358,1.03307761409346901778,2.178125,-10.201694,-3.8492777,-0.5774892,-9.723275,1.13790571409346901779,1.9129672,-9.512762,-3.2184057,-0.6937977,-9.70291,1.24200261409346901810,1.3922282,-9.425972,-2.906561,-0.8256129,-9.677918,1.35153331409346901811,0.56682724,-9.3978405,-1.9925743,-0.9593495,-9.651505,1.44860951409346901811,-0.5602432,-9.427768,-1.6597804,-1.0829986,-9.624169,1.54040981409346901816,-0.3172317,-8.766968,-0.52492875,-1.1933669,-9.595855,1.6327411409346901840,-0.39923313,-8.759187,-1.6232687,-1.2868658,-9.565077,1.73886731409346901841,0.22026655,-8.817844,-2.815581,-1.3828827,-9.533576,1.83547351409346901849,1.0708067,-8.6095495,-5.535993,-1.4911624,-9.502225,1.9116831409346901870,1.661576,-8.34499,-5.9280434,-1.6117332,-9.474639,1.9503621409346901870,1.6567876,-8.298303,-2.9496565,-1.7294799,-9.447603,1.98041931409346901886,1.4377182,-8.170812,-0.63087213,-1.8367075,-9.416047,2.03346161409346901908,1.1270704,-7.833828,-0.86610246,-1.9082336,-9.384403,2.11234641409346901909,1.1893197,-7.143699,-1.7435774,-1.9380143,-9.356858,2.20538121409346901910,1.9967642,-6.1806316,-1.8471266,-1.9493984,-9.331789,2.29955481409346901916,2.7461493,-5.409699,-1.5490485,-1.9656241,-9.306289,2.3874091409346901934,3.4410665,-4.455011,-1.988983,-1.9892095,-9.280638,2.46641831409346901936,4.2000284,-3.9019501,-2.2421699,-2.0174758,-9.258095,2.5274241409346901950,4.5681367,-3.6870706,-2.1523874,-2.0504375,-9.24131,2.56208351409346901971,4.56275,-3.309984,-1.9847932,-2.0909486,-9.230834,2.56710671409346901972,4.43885,-3.0232782,-1.8381484,-2.1331038,-9.226074,2.5494771409346901976,4.44304,-2.9191303,-1.7914615,-2.1634095,-9.227855,2.51728631409346902017,4.3927617,-3.0783448,-1.7950528,-2.174718,-9.238109,2.46948171409346902018,4.196437,-3.496133,-1.5251064,-2.1662903,-9.257405,2.40375691409346902019,3.7140055,-4.5142674,-0.81881696,-2.147441,-9.280597,2.33011051409346902021,2.7216089,-6.179435,0.40462008,-2.1051931,-9.311886,2.24217341409346902050,1.299453,-8.321647,2.4223335,-2.038325,-9.350023,2.1430571409346902051,-0.98341835,-11.286865,6.7869635,-1.9475318,-9.392465,2.03938981409346902052,-5.7257333,-16.33504,14.498089,-1.8431524,-9.429231,1.96540221409346902067,-12.427703,-19.608511,14.78659,-1.7451442,-9.472647,1.84223531409346902070,-16.536152,-19.608511,9.668385,-1.6540985,-9.5084095,1.73910991409346902082,-14.107235,-19.51035,7.702147,-1.5796511,-9.536925,1.6499061409346902101,-8.480861,-16.448166,5.647323,-1.5593845,-9.553422,1.57189451409346902102,-5.556942,-14.03481,5.5581393,-2.6555789,-8.97631,2.92303321409346902117,-2.7970262,-11.899781,4.6621094,-2.7965505,-8.922627,2.95573951409346902118,-0.6476316,-9.424176,3.2208,-2.7442942,-8.914738,3.02765631409346902137,-0.12808979,-7.5770497,2.4001873,-2.5796201,-8.939862,3.09754921409346902137,-0.770933,-6.1489086,1.6304513,-2.3934486,-8.974713,3.14584371409346902148,-0.87448215,-5.1666875,-0.8379706,-2.2837965,-9.005298,3.13995171409346902164,-0.19692309,-5.469554,-2.6324248,-2.2460687,-9.082379,2.9386991409346902168,1.632247,-8.670602,-4.944625,-2.1652298,-9.218098,2.55124881409346902180,4.220379,-15.172655,-4.300585,-1.8576351,-9.4481735,1.85784791409346902212,2.4396915,-14.979323,-2.295441,-1.2006016,-9.661686,1.17507021409346902213,-2.079364,-17.984047,4.8255134,-0.79697734,-9.741646,0.79720081409346902214,-3.6643257,-18.632277,10.300454,-0.8317634,-9.712512,1.07037251409346902217,1.501763,-14.137162,5.467758,-0.96613026,-9.615336,1.66802621409346902241,4.2461166,-12.974777,-0.11671733,-0.72251743,-9.599354,1.87103181409346902242,3.8774097,-11.99495,-2.349909,-0.3521106,-9.656765,1.6713171409346902250,4.32333,-8.553286,-2.1865046,-0.06901413,-9.7069025,1.39343941409346902271,5.331289,-5.5467668,-1.0654198,0.28084344,-9.735439,1.14575291409346902272,5.4168816,-4.337096,-0.47225627,0.73652637,-9.730727,0.969981971409346902277,4.5938745,-4.6980224,-0.6757634,1.1925998,-9.695482,0.86356621409346902309,2.971803,-5.9011087,-1.3551182,1.5839864,-9.648571,0.75262631409346902311,2.3092074,-6.451775,-2.396596,1.816567,-9.619974,0.57146371409346902312,2.585738,-6.877943,-2.6156654,1.9468079,-9.607085,0.290266571409346902317,3.1573534,-7.586028,-2.4624364,2.0882943,-9.58172,-0.0070510881409346902345,3.2315738,-8.509591,-2.0320787,2.2438846,-9.542927,-0.260663451409346902346,3.0148985,-9.993398,-1.7202339,2.3781133,-9.5033,-0.449737581409346902349,2.5103204,-11.534067,-1.6885108,2.4568121,-9.475797,-0.5862791409346902366,1.7441759,-12.810176,-1.8549078,2.4517443,-9.469893,-0.69315941409346902382,0.86011696,-13.661315,-2.0416555,2.3473353,-9.488793,-0.78945591409346902382,0.108337626,-13.631986,-2.1529858,2.1521966,-9.526549,-0.885033971409346902397,-0.2681506,-12.707824,-2.0895395,1.905281,-9.571209,-0.96552731409346902398,-0.34715924,-11.413159,-1.8136078,1.6681145,-9.609319,-1.02410521409346902414,-0.05566519,-9.852738,-1.8004397,1.4556068,-9.639875,-1.06039231409346902417,-0.1400608,-9.083601,-2.0392613,1.3058181,-9.65614,-1.10643681409346902431,-0.41718966,-9.335591,-2.2906525,1.172956,-9.664286,-1.18159641409346902448,-0.65780693,-9.529521,-2.0769699,1.0322239,-9.668234,-1.27678051409346902449,-0.7326257,-9.458893,-1.8309658,0.8819597,-9.672706,-1.35328341409346902465,-0.6572084,-9.379884,-1.5304934,0.7339768,-9.678264,-1.40103171409346902468,-1.2497733,-9.387066,-1.8567034,0.60775673,-9.68321,-1.42703711409346902482,-3.8893807,-10.133459,-3.0771477,0.43051448,-9.684678,-1.48056891409346902498,-5.922058,-11.027693,-3.2668881,0.007643647,-9.671455,-1.62273511409346902499,-3.9163153,-10.135853,-1.3221979,-0.5670976,-9.632266,-1.75164621409346902514,-2.1212628,-9.082404,0.35793316,-0.9166386,-9.604732,-1.75479151409346902517,-1.1701661,-8.931569,1.2898762,-1.075169,-9.606497,-1.6521671409346902533,-1.3964181,-9.422979,0.75836337,-1.0923449,-9.639976,-1.43109311409346902550,-1.5562311,-10.111911,-0.14305355,-1.1099126,-9.661214,-1.26469851409346902550,-1.472434,-10.598533,-0.7326257,-1.1235558,-9.671813,-1.16793671409346902562,-1.1528081,-10.6877165,-0.90740246,-1.1309543,-9.674455,-1.1385511409346902583,-0.6919243,-10.574591,-0.75237787,-1.1229525,-9.675862,-1.13449741409346902583,-0.49440265,-10.510546,-0.45190558,-1.079993,-9.682666,-1.11802431409346902598,-0.59256494,-10.451887,-0.065242,-1.020287,-9.694561,-1.06998661409346902598,-0.688333,-10.172963,0.18435353,-0.96888214,-9.708466,-0.988618851409346902613,-0.676362,-10.105926,0.1945289,-0.93602675,-9.721127,-0.89105161409346902617,-0.53929394,-10.466851,-0.10654198,-0.9022759,-9.731765,-0.80564241409346902630,-0.40761283,-11.508329,0.014963761,-0.860596,-9.739506,-0.756165561409346902643,-0.23942018,-11.553819,0.46746787,-0.80402505,-9.748392,-0.701985061409346902648,-0.21667525,-11.353305,1.0576386,-0.7388383,-9.759111,-0.61989311409346902661,-0.41180268,-11.122264,1.5891514,-0.6832757,-9.769812,-0.504267041409346902683,-0.44771573,-11.077373,2.360683,-0.65601504,-9.778148,-0.357583021409346902684,-0.22864626,-11.060614,3.5116954,-0.6350021,-9.784897,-0.151444941409346902697,0.24121583,-10.854114,6.7869635,-0.59794104,-9.787201,0.153601841409346902697,-0.20171149,-11.505336,8.494628,-0.5297493,-9.764066,0.743482051409346902714,-2.03148,-12.931084,3.7882257,-0.50746495,-9.687293,1.43848041409346902717,-3.321955,-13.478757,0.7906851,-0.62322193,-9.6467495,1.64991351409346902731,-4.573524,-13.60565,-0.91099375,-0.82021576,-9.637507,1.61744191409346902748,-5.7987566,-13.68825,-2.7503393,-1.0969182,-9.636013,1.45410351409346902749,-5.6161985,-13.323732,-2.9221232,-1.4312141,-9.635802,1.12842981409346902764,-4.297592,-13.406931,-2.753332,-1.7126273,-9.622776,0.79968211409346902779,-3.9025488,-14.574104,-1.9572599,-1.8675252,-9.614329,0.497384881409346902780,-4.620809,-15.597626,1.5646108,-1.9616169,-9.604473,0.276682261409346902800,-4.481347,-16.49186,9.953894,-2.0681396,-9.579825,0.346592251409346902801,-2.4199393,-16.335638,13.133992,-2.1144497,-9.523749,0.99884681409346902815,-1.4131776,-13.810952,0.45549688,-2.0285444,-9.432058,1.75831261409346902817,-0.80325466,-11.116279,-6.153697,-1.9975147,-9.458146,1.65039491409346902832,-0.9175778,-9.888053,-8.115147,-1.9667528,-9.532838,1.19468031409346902849,-1.3443443,-8.866327,-9.623494,-1.9037215,-9.603762,0.56034021409346902851,-0.62488663,-7.9248075,-8.70831,-1.874678,-9.624277,-0.170964481409346902868,-0.04309563,-8.835203,-7.1592617,-1.8168265,-9.600122,-0.84092711409346902869,0.024540568,-11.948862,-4.947618,-1.7140473,-9.559426,-1.36006321409346902877,0.16639702,-15.269021,-2.7910407,-1.5685424,-9.544616,-1.61566411409346902910,0.6027403,-18.939333,0.12270284,-1.3912411,-9.570973,-1.62213361409346902911,2.3744495,-19.608511,3.7469256,-1.1800287,-9.639194,-1.36523911409346902912,4.8021703,-19.608511,3.7116113,-0.8625027,-9.727579,-0.894804841409346902917,5.905897,-18.70949,-0.46986207,-0.43162063,-9.783407,-0.518696551409346902941,6.251859,-15.9262295,-3.3476925,0.010476386,-9.795502,-0.467355671409346902942,5.060744,-13.424888,-4.3915644,0.4405568,-9.779589,-0.57960431409346902949,3.4117374,-11.004948,-3.4278982,0.7677869,-9.746869,-0.76122111409346902967,2.088941,-10.25676,-1.2551602,0.9649685,-9.715624,-0.919739371409346902986,0.86370826,-10.661979,-0.7469909,1.0414509,-9.704789,-0.950184761409346902987,0.8283938,-10.286688,-1.4449008,1.0033549,-9.71084,-0.92911041409346902989,1.2270284,-9.589376,-2.955642,0.97165835,-9.712484,-0.945464731409346902997,1.3150153,-9.270947,-4.174889,0.96134037,-9.700574,-1.07008141409346903018,1.5125369,-9.093777,-3.8367083,0.9719679,-9.671612,-1.29829741409346903019,1.7794905,-8.63828,-3.245939,1.0161499,-9.636056,-1.51137261409346903031,1.8650831,-7.8469963,-2.694674,1.0874195,-9.600046,-1.68137841409346903059,1.7351977,-7.2963295,-2.9179332,1.1662772,-9.568755,-1.80253231409346903060,1.9794062,-6.332065,-3.116652,1.2342161,-9.534405,-1.93448871409346903061,2.6461914,-5.8604074,-2.2481554,1.330342,-9.490045,-2.08318041409346903088,3.4320881,-5.3085437,-3.3171666,1.4876261,-9.450608,-2.15485571409346903088,3.2190042,-4.7524905,-3.0226796,1.725093,-9.369931,-2.32353191409346903090,3.3997664,-4.332308,-0.9235633,1.9455172,-9.287081,-2.47698521409346903097,3.5446155,-3.7403417,-1.1450269,2.197134,-9.240735,-2.43963241409346903116,3.4931402,-3.288436,-2.1942859,2.461666,-9.166182,-2.46813961409346903132,3.5655649,-3.0735564,-3.016694,2.7165935,-9.047011,-2.6347841409346903132,3.911527,-2.6497827,-3.50152,2.9963045,-8.887418,-2.86467051409346903154,3.887585,-2.392406,-4.2718544,3.324495,-8.678833,-3.12985831409346903155,3.6290112,-2.9167361,-4.775235,3.6289542,-8.412056,-3.4983421409346903157,3.071761,-4.083311,-3.5877113,3.84801,-8.135847,-3.89502761409346903178,2.480393,-5.4623713,-0.98461545,3.9562695,-7.985417,-4.09285351409346903178,0.8038532,-7.6680293,3.1381998,3.982441,-8.05401,-3.92982361409346903198,-2.3523033,-11.503541,11.765706,3.7745917,-8.464304,-3.20599441409346903199,-10.611102,-18.675371,19.608511,3.0691442,-9.2304535,-1.24477851409346903221,-16.977283,-19.608511,14.883554,3.0934803,-9.1947975,-1.43404791409346903221,-19.214067,-19.608511,9.768942,3.1170619,-9.157535,-1.61054841409346903230,-15.993866,-18.133085,7.709928,3.1023734,-9.141814,-1.72421461409346903252,-9.541492,-14.082694,3.0986955,3.0480177,-9.146544,-1.79463541409346903253,-7.0569096,-12.995129,2.15538,-3.6511025,-8.658909,2.80412941409346903258,-4.777031,-12.002731,3.1148565,-3.7659416,-8.664776,2.62863761409346903288,-2.7455509,-10.007763,3.6104562,-3.75601,-8.681652,2.58683441409346903289,-1.276708,-7.517793,2.8089972,-3.6518648,-8.702975,2.66317771409346903290,-0.36511576,-4.701015,0.9768343,-3.4934912,-8.731421,2.77996281409346903298,1.5490485,-2.4636335,-0.062249243,-3.3680918,-8.768935,2.8164041409346903322,4.0001125,-3.2202013,-2.7623103,-3.1246061,-8.857012,2.82144521409346903323,5.9849057,-7.4986396,-3.8720226,-2.671783,-9.093226,2.51896551409346903332,7.5710645,-11.177331,-4.818331,-1.8875761,-9.417026,1.98168651409346903354,7.2849574,-13.88218,-6.6642604,-0.869064,-9.6819935,1.29387491409346903355,5.439626,-15.038579,-6.420052,0.035336174,-9.79607,0.454058381409346903358,4.8464627,-17.52376,-7.2729864,0.58859146,-9.786396,-0.224499661409346903390,4.5352163,-16.00464,0.8146271,0.9626633,-9.719632,-0.87890351409346903392,3.8295257,-12.260108,7.0527196,1.2025944,-9.699084,-0.8074271409346903393,3.9588125,-11.851897,7.2209125,1.3471317,-9.707822,-0.337367921409346903398,3.5224693,-11.666347,4.394557,1.5055041,-9.689098,0.158760831409346903425,3.769072,-9.845556,1.376666,1.6423937,-9.652289,0.553382641409346903426,4.231153,-8.845378,-0.427365,1.8169826,-9.607605,0.75027481409346903430,3.8067808,-8.163031,-1.4167689,2.0271888,-9.5648,0.7585961409346903455,2.9287071,-7.719505,-2.203264,2.204527,-9.535583,0.618946731409346903455,2.248754,-8.067263,-2.9897594,2.323209,-9.518978,0.40268941409346903458,2.112883,-8.980052,-3.406949,2.376678,-9.513702,0.1061047541409346903480,2.19668,-9.754577,-3.2363622,2.3920047,-9.507964,-0.217558471409346903480,1.9614497,-10.465654,-2.8101943,2.3929336,-9.497274,-0.496023541409346903498,1.4221559,-11.313202,-2.2068555,2.360026,-9.492249,-0.70559511409346903499,0.9780314,-11.920731,-1.8130093,2.268136,-9.504741,-0.82818221409346903513,0.54647654,-12.378621,-1.7435774,2.1292758,-9.529696,-0.90633331409346903533,-0.037708677,-12.680889,-1.851915,1.9482907,-9.564054,-0.950498641409346903534,-1.0271125,-11.8818245,-1.7381904,1.7392663,-9.5999775,-0.99286951409346903538,-1.2473791,-11.360487,-1.2629414,1.4752008,-9.639114,-1.04003051409346903566,-1.4065934,-10.849923,-0.8595184,1.2215036,-9.672965,-1.05455051409346903566,-1.3251907,-9.998785,-0.48841715,0.9778788,-9.701498,-1.04647081409346903572,-1.0444705,-8.954913,-0.22505496,0.76313704,-9.723494,-1.02062081409346903579,-0.9379285,-8.457518,0.25797522,0.59425044,-9.7391615,-0.98283271409346903610,-1.2024878,-8.669404,0.81043726,0.46135247,-9.755231,-0.89050041409346903611,-1.7070658,-9.114127,0.9139865,0.3104732,-9.772488,-0.756632031409346903612,-2.3930047,-9.426571,-0.47046062,0.13576457,-9.786789,-0.608870741409346903639,-3.3482912,-9.542689,-2.154183,-0.09029811,-9.788092,-0.596264961409346903640,-2.540248,-9.218874,-2.795829,-0.3992802,-9.770242,-0.743874851409346903641,-1.6316484,-8.917803,-2.5623944,-0.611746,-9.740067,-0.962946061409346903661,-1.163582,-8.805874,-2.018312,-0.725577,-9.709121,-1.17343071409346903662,-0.83976626,-8.752603,-1.6639702,-0.7738433,-9.6889305,-1.30238841409346903680,-1.0660183,-9.032724,-1.9117701,-0.7750556,-9.677715,-1.38258021409346903680,-1.3862427,-9.284116,-2.1110873,-0.79182374,-9.665566,-1.45609431409346903694,-1.3772645,-9.363723,-1.8938135,-0.8361881,-9.649092,-1.53825071409346903698,-0.9295488,-9.484032,-1.1288661,-0.8829817,-9.635277,-1.59755441409346903712,-0.54408234,-9.288904,-0.5386954,-0.89420134,-9.637473,-1.57793681409346903728,-0.5422867,-8.933964,-0.41000703,-0.8731223,-9.651097,-1.50478391409346903730,-0.81761986,-8.823831,-0.42916065,-0.84917706,-9.665396,-1.42456821409346903744,-1.1755531,-8.917204,-0.44951138,-0.85014415,-9.675774,-1.35169461409346903760,-1.5095441,-8.998607,-0.3824737,-0.87589115,-9.681862,-1.29025261409346903761,-1.7250223,-9.236232,-0.23582886,-0.9359721,-9.684102,-1.22985161409346903777,-1.95307,-10.011354,-0.061052144,-1.019251,-9.68439,-1.15936711409346903778,-2.1613655,-11.234193,0.1412579,-1.1160326,-9.683541,-1.07419511409346903796,-2.2762873,-12.471995,0.45489833,-1.2120558,-9.683117,-0.96879831409346903813,-2.2691047,-13.213,0.84814596,-1.2939047,-9.6843405,-0.84246851409346903814,-2.1697452,-13.457808,1.2533646,-1.3561411,-9.687282,-0.698469761409346903828,-2.296638,-13.746907,1.7938557,-1.3906893,-9.69271,-0.53644911409346903830,-2.724003,-14.548367,2.8179753,-1.4331303,-9.694891,-0.354437141409346903845,-3.0897174,-15.170859,4.0078936,-1.4922891,-9.691772,-0.114061851409346903862,-3.2752678,-14.894329,5.8604074,-1.5658836,-9.678991,0.188406021409346903863,-3.6493618,-14.29099,8.200739,-1.6521895,-9.647604,0.603659751409346903892,-4.0438066,-14.049774,7.5572977,-1.7627561,-9.575063,1.17527541409346903893,-4.7937903,-14.180857,2.8808231,-1.8818542,-9.480723,1.65677211409346903894,-5.1726727,-14.581885,0.6991069,-2.0301507,-9.4405575,1.71018951409346903922,-4.7255554,-14.982316,1.5334862,-2.1754692,-9.4185,1.65214591409346903923,-4.19524,-15.704766,3.4632127,-2.2498953,-9.401101,1.65156461409346903924,-5.2199583,-16.699556,6.9479733,-2.2574742,-9.380458,1.75533711409346903952,-5.151125,-16.043545,8.305486,-2.3081048,-9.308931,2.04617641409346903953,-4.4113164,-13.935451,4.021062,-2.371087,-9.210472,2.39071941409346903954,-3.8642416,-13.289615,-1.6867151,-2.4661684,-9.163585,2.4732791409346903959,-3.9815574,-12.561179,-7.247847,-2.5755236,-9.204451,2.19434331409346903990,-3.093907,-10.976816,-9.704897,-2.6724958,-9.310348,1.53152511409346903991,-2.0135236,-9.640852,-6.494272,-2.7188616,-9.393401,0.73633571409346903992,-1.2533646,-10.59135,-5.303157,-2.6965392,-9.426784,0.186639011409346904049,-0.6715736,-12.685678,-4.4753613,-2.5860486,-9.457297,-0.205633041409346904050,0.40043023,-15.621568,-3.0873232,-2.406254,-9.495177,-0.471128171409346904050,2.3900118,-19.111116,0.47105917,-2.1367157,-9.551897,-0.60506141409346904052,4.9901147,-19.608511,3.9019501,-1.7209315,-9.642825,-0.47404141409346904052,5.9843073,-19.608511,2.1613655,-1.1775515,-9.734745,-0.136078451409346904067,5.931036,-19.027918,-2.1164744,-0.6539172,-9.78476,0.0348258131409346904067,5.4863133,-15.05474,-4.036624,-0.2065373,-9.804193,-0.074191611409346904070,3.5087025,-12.56896,-4.185663,0.17550533,-9.801164,-0.277080921409346904078,2.304419,-11.35929,-3.6044707,0.40988442,-9.785608,-0.494218531409346904097,1.3096284,-10.338761,-3.9396589,0.55762964,-9.76579,-0.69912741409346904102,1.1641805,-9.639056,-4.2874165,0.6181258,-9.743378,-0.924618961409346904112,1.4933833,-9.103952,-3.1914709,0.64541966,-9.716577,-1.15844061409346904131,1.4790181,-8.591593,-2.2816741,0.6996705,-9.695478,-1.29559981409346904131,1.0001777,-8.348581,-1.9440918,0.73956066,-9.68155,-1.37514041409346904138,-0.581791,-8.393473,-3.7612908,0.75990593,-9.670523,-1.44011881409346904168,-0.39564183,-6.9587474,-4.1042604,0.6717904,-9.643847,-1.64782631409346904169,0.14544775,-5.649119,-3.071761,0.60956395,-9.604944,-1.88251531409346904172,1.9075803,-5.3259015,-5.9465985,0.5811227,-9.57112,-2.05579571409346904179,3.1280246,-5.027225,-6.3979053,0.7075994,-9.461267,-2.48075081409346904202,2.7521348,-4.8859673,-4.055179,0.9659824,-9.315064,-2.90978571409346904203,2.4133554,-4.5082817,-0.9660604,1.1826423,-9.223925,-3.11302331409346904210,2.0332758,-4.270657,-0.55605334,1.3518949,-9.215453,-3.0689131409346904229,2.6743233,-3.5021186,-1.0989386,1.4566711,-9.216193,-3.01833031409346904248,3.3363202,-2.8000188,-1.8668787,1.6609132,-9.175856,-3.03569821409346904249,4.2700586,-1.9351135,-2.292448,1.9819546,-9.079297,-3.13187481409346904251,4.8853683,-1.364695,-2.9484594,2.4539053,-8.905493,-3.29256271409346904258,5.461174,-1.2192472,-3.3255463,3.0160813,-8.6336155,-3.5403861409346904277,5.868787,-1.3587095,-3.3704374,3.6322918,-8.279684,-3.79785731409346904279,5.876568,-1.846528,-3.0472202,4.2494774,-7.8637524,-4.03407051409346904294,5.827487,-2.7156234,-2.8898015,4.799312,-7.46451,-4.1735031409346904313,5.716755,-3.775656,-2.236783,5.235089,-7.1285653,-4.23648551409346904315,4.7177744,-5.5324016,-1.0085574,5.5680356,-6.918557,-4.1594371409346904333,2.5767596,-8.358757,1.9129672,5.700264,-6.964673,-3.89495831409346904334,-1.1737574,-13.811551,10.055049,5.509114,-7.4383183,-3.23905681409346904339,-10.641628,-19.577387,19.608511,4.6755724,-8.4990015,-1.44096641409346904363,-18.666992,-19.608511,15.219341,4.7733335,-8.408445,-1.63822141409346904364,-19.60911,-19.608511,13.268067,4.83714,-8.337651,-1.80445591409346904371,-17.369335,-17.891869,7.587225,4.816208,-8.324466,-1.91776141409346904379,-7.1371155,-10.1065235,2.6922798,4.734064,-8.341772,-2.0430081409346904402,-7.3819222,-11.199477,2.5139117,-3.4126499,-8.652236,3.10854131409346904402,-4.297592,-10.078991,3.913921,-3.6373816,-8.618684,2.9424681409346904412,-1.1713632,-8.977059,4.225766,-3.6496055,-8.609454,2.95432931409346904427,0.13826515,-8.979453,3.4853592,-3.461152,-8.64423,3.07702681409346904445,4.6273932,-13.094487,2.771887,-3.1701505,-8.710675,3.20073271409346904446,6.87914,-16.203957,-0.6278794,-2.380617,-8.956605,3.20659661409346904459,5.732916,-15.279197,-4.5286326,-1.4805063,-9.276513,2.81510141409346904459,2.9825768,-11.861474,-4.5980644,-0.84472984,-9.529647,2.15468861409346904475,1.5394717,-9.987412,-2.1440077,-0.52574223,-9.658342,1.61566941409346904479,1.6484078,-9.861118,-0.7356185,-0.35042286,-9.713492,1.30218631409346904498,2.9299042,-10.365696,-1.6609775,-0.18028156,-9.742016,1.10951381409346904499,3.0268695,-11.397597,-1.9081788,0.095284246,-9.772451,0.812711061409346904510,2.5785553,-12.115858,-0.85413146,0.35386175,-9.784715,0.551857051409346904531,3.4751837,-9.93474,-0.6147113,0.5460928,-9.782061,0.428340581409346904532,4.4915223,-8.668207,-0.5518635,0.8131196,-9.767907,0.311750081409346904539,4.1838675,-8.713099,-1.1204864,1.139686,-9.737959,0.208922161409346904562,3.4356794,-9.063849,-1.8046296,1.4095509,-9.704367,0.093836811409346904564,2.9149406,-9.053075,-2.2140381,1.6141747,-9.672666,-0.066253221409346904578,2.789245,-8.277354,-2.5600002,1.7566189,-9.644618,-0.256985041409346904579,2.747945,-7.4974427,-2.4540567,1.8944323,-9.610311,-0.47271631409346904603,2.517503,-7.2227077,-1.9955671,2.0224385,-9.572185,-0.673358141409346904604,2.1206641,-7.5136037,-1.5765818,2.1253035,-9.537738,-0.82767131409346904613,1.7208325,-8.264186,-1.401805,2.187296,-9.514097,-0.9317321409346904626,1.401805,-9.303269,-1.287482,2.1978781,-9.504456,-1.0025241409346904644,1.0648212,-10.739192,-1.1737574,2.1523807,-9.510495,-1.04312671409346904644,0.4914099,-12.43728,-1.2826935,2.046205,-9.53255,-1.05542091409346904665,-0.19931729,-13.549985,-1.2659341,1.8583454,-9.570953,-1.05536651409346904666,-0.95947635,-13.564948,-0.80804306,1.6195103,-9.616253,-1.03693831409346904671,-1.2659341,-12.0967045,-0.49679685,1.3389398,-9.665985,-0.972811041409346904679,-1.567005,-10.125079,-0.61770403,1.0769653,-9.706669,-0.8894431409346904701,-2.1871033,-9.424775,-1.4862007,0.8247963,-9.736391,-0.83235741409346904701,-2.1703439,-8.839393,-1.9303252,0.54020566,-9.753225,-0.867839631409346904712,-2.1021092,-8.526949,-1.7609353,0.28033882,-9.755049,-0.96477621409346904725,-1.8543092,-8.72088,-1.3760674,0.05028934,-9.750316,-1.04843821409346904744,-1.9267339,-9.321226,-1.3389573,-0.14355668,-9.742865,-1.10741131409346904747,-2.7682958,-9.414001,-1.8531121,-0.32317325,-9.732552,-1.15905261409346904764,-4.608838,-9.383475,-2.333748,-0.5615644,-9.710315,-1.25092541409346904765,-4.267066,-9.411008,-1.1737574,-0.95674133,-9.661925,-1.37922261409346904773,-3.5230677,-9.52593,-1.1755531,-1.2903359,-9.616839,-1.42190911409346904795,-3.0585926,-9.86471,-1.738789,-1.5180705,-9.57412,-1.48395611409346904799,-2.4103625,-10.053851,-1.4838065,-1.6523709,-9.540349,-1.55621711409346904813,-1.4377182,-10.31901,-1.074398,-1.7041788,-9.528955,-1.57008081409346904813,-0.48841715,-10.4405155,-0.4973954,-1.6624984,-9.54338,-1.52656021409346904819,-0.29388827,-10.560823,-0.29269117,-1.538474,-9.57807,-1.43668171409346904843,-0.52852005,-10.6877165,-0.272939,-1.4023876,-9.613219,-1.33780231409346904843,-0.92296475,-10.809222,-0.3728969,-1.2918962,-9.640582,-1.2492491409346904863,-1.0714053,-10.716447,-0.42556936,-1.2303493,-9.657454,-1.17908121409346904864,-0.961272,-10.509947,-0.4441244,-1.2017449,-9.667388,-1.12597981409346904871,-0.7422025,-10.441712,0.19871874,-1.172617,-9.676342,-1.07877431409346904899,-0.2861071,-10.769718,0.9744401,-1.1382915,-9.690386,-0.985446631409346904900,-0.27473465,-10.977415,1.9973627,-1.062079,-9.713596,-0.829730031409346904901,-0.24420857,-10.943896,3.8283286,-0.9863497,-9.738598,-0.59767771409346904926,-0.010773907,-11.332953,5.849035,-0.9120792,-9.761633,-0.221423331409346904927,0.2825158,-11.689092,6.6720414,-0.82225806,-9.767558,0.29849371409346904944,-0.40162733,-11.8094,6.0357823,-0.72428226,-9.74455,0.83041421409346904945,-1.3802572,-12.049418,4.0821137,-0.7160265,-9.702444,1.23298411409346904958,-2.256535,-12.474389,1.7782934,-0.7975477,-9.671102,1.41566291409346904959,-2.926313,-13.294403,0.44771573,-0.928843,-9.657504,1.42837661409346904977,-3.767875,-13.80796,-1.8956091,-1.0836387,-9.647523,1.38615311409346904993,-4.607641,-13.469779,-3.6870706,-1.2520462,-9.652811,1.19416151409346904993,-5.2522798,-13.557167,-3.8163576,-1.4508681,-9.660699,0.858067041409346905005,-4.981735,-14.012066,-1.4065934,-1.6780995,-9.649812,0.485293451409346905024,-4.882974,-14.443022,0.6362591,-1.8567683,-9.624393,0.306395861409346905025,-5.377377,-15.295358,1.3760674,-2.00552,-9.593887,0.324939821409346905043,-5.6658783,-16.33504,3.494936,-2.1628947,-9.558031,0.369223771409346905043,-5.7383027,-17.138294,5.811326,-2.3010836,-9.515153,0.5807331409346905060,-4.803367,-16.373945,10.251971,-2.4075317,-9.4628,0.91081781409346905061,-2.5965118,-14.2939825,9.821614,-2.4567287,-9.37816,1.47816611409346905086,-1.2354081,-12.316372,1.8507179,-2.430713,-9.291902,1.98055521409346905086,-1.0636241,-11.370663,-2.6641479,-2.3236287,-9.357267,1.79239951409346905091,-1.7459716,-11.362283,-4.805163,-2.3236287,-9.357267,1.79239951409346905121,-1.299453,-11.812392,-6.042965,-2.269915,-9.440941,1.37349561409346905122,-0.5141548,-10.443508,-6.862979,-2.1817563,-9.52352,0.84430151409346905123,-0.089782566,-10.471041,-5.8532248,-2.0745065,-9.581644,0.242733821409346905153,-0.14425065,-12.02009,-4.9284644,-1.9424496,-9.609525,-0.233016731409346905153,0.17477672,-14.09287,-4.5112743,-1.7918895,-9.625163,-0.561920761409346905154,1.3796587,-17.286137,-3.0825348,-1.6160023,-9.638951,-0.80594581409346905159,3.0466216,-19.608511,1.4317327,-1.354479,-9.670437,-0.904657541409346905175,5.0703206,-19.608511,5.099051,-0.98640937,-9.734204,-0.665313961409346905189,6.716933,-19.595345,3.156755,-0.5325398,-9.789553,-0.226841841409346905193,6.4505777,-16.401478,-0.5255273,-0.035792906,-9.806532,0.0323696551409346905206,4.465186,-12.826936,-2.8054059,0.38102674,-9.799121,0.049141341409346905224,2.4887726,-11.190498,-5.2887917,0.65743166,-9.784152,-0.092431621409346905225,1.4030021,-9.680955,-6.8522053,0.80179363,-9.764798,-0.419832261409346905239,0.84216046,-8.448539,-6.6349316,0.85670805,-9.731323,-0.8589731409346905240,1.1043255,-7.869741,-4.570531,0.85381174,-9.684393,-1.28604881409346905266,1.6017209,-7.7063365,-2.7497406,0.87066144,-9.644711,-1.54656661409346905267,0.2088941,-8.291121,-4.045004,0.9227383,-9.618126,-1.6764861409346905272,0.98102415,-6.779182,-4.0581717,0.865508,-9.584513,-1.88636731409346905296,1.079785,-5.2008047,-4.4873323,0.8943999,-9.537156,-2.10073781409346905299,1.4796166,-4.8763905,-5.09127,0.9409641,-9.465741,-2.38426541409346905300,1.364695,-5.2606597,-4.9583917,1.0361551,-9.365169,-2.71853471409346905323,1.7345991,-5.1523223,-1.970428,1.1187296,-9.262048,-3.02213551409346905324,1.5149311,-4.811747,-0.6733692,1.2064725,-9.240095,-3.05539771409346905341,1.6741456,-3.8420951,-1.1725603,1.2791723,-9.251176,-2.99162981409346905342,2.1470003,-3.3327289,-1.0241197,1.3645611,-9.232783,-3.0106631409346905366,2.5330653,-2.947861,-2.0949266,1.5418409,-9.204886,-3.01052051409346905366,3.2585084,-2.3139958,-2.8520927,1.7821481,-9.120355,-3.13264471409346905373,4.0707417,-1.8315643,-3.0579941,2.1241984,-8.966134,-3.35657621409346905399,4.5902834,-1.6316484,-3.4320881,2.5818856,-8.743928,-3.61219861409346905400,5.228338,-1.5927427,-3.5793316,3.0996475,-8.4439335,-3.90673851409346905400,5.891532,-1.7884687,-3.8474822,3.666195,-8.080408,-4.175691409346905411,5.5407815,-2.6276364,-4.120421,4.2562175,-7.6445866,-4.42891741409346905424,5.01705,-4.052785,-3.6086605,4.690353,-7.2570996,-4.6374051409346905441,4.381389,-6.528988,-1.299453,4.9554467,-7.0374355,-4.69983151409346905442,2.610877,-11.742362,7.690176,5.0685606,-7.1561995,-4.38964031409346905466,-8.115746,-19.256565,19.608511,4.898496,-8.010596,-2.82939861409346905467,-17.641077,-19.608511,16.684593,4.9963055,-7.8669996,-3.05248141409346905472,-19.60911,-19.608511,13.2351465,5.0917587,-7.7109976,-3.28403931409346905500,-18.274343,-18.940529,10.102933,5.1570215,-7.604956,-3.42639661409346905501,-7.0144124,-10.316615,3.9456444,5.1221466,-7.5810485,-3.5301131409346905502,-6.7785835,-10.041881,2.9933507,-3.2004948,-8.716073,3.15551571409346905530,-4.3903675,-9.473258,4.7979803,-3.4995904,-8.650342,3.01576421409346905532,-0.98940384,-8.55987,3.9797618,-3.552495,-8.6094055,3.07055431409346905533,0.56982,-8.48984,2.3852234,-3.3821182,-8.647804,3.15390781409346905540,2.3427265,-8.696339,1.5442601,-3.080179,-8.742257,3.20247461409346905567,4.4717703,-10.99178,1.0755951,-2.5854814,-8.906607,3.18716531409346905568,5.3019595,-15.545551,-0.47285482,-1.8991976,-9.130079,3.03398731409346905572,4.372411,-16.054918,-2.6312277,-1.1450062,-9.381083,2.61813431409346905600,2.119467,-13.210607,-2.914342,-0.60055083,-9.56842,2.06277851409346905601,0.5746084,-11.228208,-1.2575544,-0.34154934,-9.665594,1.62173961409346905602,0.31184477,-11.653777,0.88286185,-0.25267896,-9.706994,1.37142461409346905623,0.9600749,-11.8022175,0.7517793,-0.19908556,-9.721059,1.2773991409346905624,2.4157495,-11.610083,-0.40043023,-0.09521471,-9.733589,1.19103591409346905640,2.870648,-11.868058,-0.12509704,0.12123815,-9.753857,1.00894211409346905641,2.7802668,-10.779893,0.109534726,0.34763855,-9.759966,0.89027011409346905655,3.3267434,-8.500613,0.26755205,0.546235,-9.757961,0.808832761409346905660,4.010886,-7.703344,0.272939,0.79218674,-9.744733,0.763549861409346905673,3.7241807,-8.08881,-0.091578215,1.0875014,-9.717359,0.74879481409346905694,2.60968,-8.645462,-0.9995792,1.3496348,-9.687938,0.70195121409346905695,1.9925743,-8.607155,-1.8321629,1.5026488,-9.6744375,0.563646851409346905713,1.8501194,-8.185776,-2.172738,1.57971,-9.672136,0.35312721409346905714,1.8543092,-7.9708962,-2.005144,1.6419705,-9.667482,0.1188508351409346905720,1.678934,-8.243835,-1.774702,1.6928778,-9.659035,-0.087290751409346905744,1.1857284,-8.921992,-1.483208,1.7249846,-9.650162,-0.26310441409346905745,0.5117606,-9.821614,-1.4203602,1.7080846,-9.648566,-0.397532171409346905753,-0.062249243,-10.839149,-1.5927427,1.6178939,-9.659076,-0.505045651409346905783,-0.31004912,-11.734581,-1.8728642,1.4612724,-9.678419,-0.60274141409346905784,-0.44232875,-12.270284,-2.1697452,1.2765723,-9.697155,-0.71131409346905786,-0.78050977,-11.562798,-2.4229321,1.090268,-9.711898,-0.81289051409346905812,-1.0773908,-10.741586,-2.5276785,0.90114176,-9.721866,-0.91853351409346905813,-1.0791864,-9.97185,-2.6833014,0.7085069,-9.726926,-1.0272891409346905814,-0.37229836,-9.134478,-3.1010897,0.5365834,-9.72412,-1.1506291409346905820,1.8369513,-7.721899,-5.575497,0.446281,-9.706884,-1.32198571409346905856,-0.061052144,-8.740632,-5.5826797,0.5646823,-9.631571,-1.75623991409346905857,-3.4440591,-10.684724,-2.7503393,0.48400968,-9.554623,-2.1552971409346905858,-2.873042,-9.913192,-1.0103531,0.10125556,-9.555722,-2.20188571409346905879,-1.763928,-8.807071,-0.024540568,-0.16869989,-9.559271,-2.18226221409346905880,-1.3317747,-9.085397,0.38486794,-0.3318493,-9.575183,-2.09191681409346905881,-1.2000936,-9.746795,-0.338181,-0.4542584,-9.610169,-1.89965941409346905896,-1.0103531,-10.05864,-1.0534488,-0.5307248,-9.636177,-1.74149581409346905929,-0.38965634,-10.214263,-1.5011644,-0.561945,-9.650009,-1.65284381409346905931,0.12509704,-10.105926,-1.6950948,-0.53177845,-9.656449,-1.62499491409346905933,0.32920274,-9.526528,-1.2575544,-0.45782152,-9.657298,-1.64237031409346905935,0.18794483,-8.841188,-0.6961141,-0.37287778,-9.66345,-1.62760531409346905941,-0.26515785,-8.680777,-0.51116204,-0.30554873,-9.672642,-1.58650881409346905966,-0.55964464,-9.178172,-0.52732295,-0.28690937,-9.681332,-1.53619251409346905967,-0.5686229,-9.631275,-0.46148238,-0.3029634,-9.689274,-1.4820881409346905974,-0.6811504,-9.92636,-0.39324763,-0.32742622,-9.698346,-1.4160781409346905995,-0.9175778,-10.10413,-0.23044191,-0.36832976,-9.706919,-1.34552791409346905996,-1.2749124,-10.317214,0.04189853,-0.42775488,-9.715784,-1.26132581409346906003,-1.6903064,-10.655993,0.4165911,-0.5087781,-9.725287,-1.15340841409346906038,-2.0135236,-11.35091,0.8463503,-0.62291855,-9.733671,-1.01884571409346906039,-2.0272903,-12.257115,1.4568717,-0.7523861,-9.740434,-0.853399041409346906042,-1.9949685,-13.071144,2.144606,-0.86398005,-9.747177,-0.645346641409346906043,-1.8620903,-12.943054,3.0023289,-0.9540511,-9.75194,-0.399824081409346906062,-1.7441759,-12.161946,4.358644,-1.0211791,-9.752715,-0.1101210041409346906063,-1.9285295,-11.950658,4.9781437,-1.0769515,-9.743938,0.25741061409346906098,-2.5462334,-12.741941,4.179079,-1.1470538,-9.719125,0.627104341409346906098,-3.582923,-13.600862,2.5031378,-1.257641,-9.687272,0.86340081409346906099,-4.707599,-13.662512,2.172738,-1.4278696,-9.658038,0.924051941409346906102,-4.522647,-12.921507,3.2309752,-1.676381,-9.614477,0.96019121409346906121,-4.2042184,-12.578537,2.3026235,-1.8925574,-9.554992,1.13611591409346906121,-3.9534256,-12.707226,0.3417723,-2.0486605,-9.506037,1.26832311409346906136,-3.678691,-13.512875,-0.5422867,-2.1356156,-9.490534,1.24069041409346906140,-4.1335893,-14.525621,0.53570265,-2.1598399,-9.501687,1.10608151409346906154,-4.445434,-15.081676,3.4272997,-2.2034426,-9.499551,1.03622981409346906169,-4.7758336,-16.086042,6.9467764,-2.2476919,-9.474989,1.15881991409346906172,-4.80636,-17.423204,8.996812,-2.295829,-9.41075,1.52883341409346906191,-4.4262805,-16.700754,7.7189064,-2.3244715,-9.319989,1.97611631409346906192,-4.036624,-14.106636,1.9949685,-2.3599732,-9.238074,2.29323361409346906211,-3.6583402,-12.17272,-3.0508115,-2.4484844,-9.21989,2.27353451409346906214,-4.3526587,-11.851897,-6.3985043,-2.545369,-9.26698,1.95308821409346906221,-4.631583,-11.265916,-3.9013517,-2.6693697,-9.33422,1.38463941409346906243,-2.4486697,-9.965266,-5.309142,-2.7854924,-9.348464,1.00877951409346906244,-1.6065093,-10.837953,-5.325303,-2.7853324,-9.387681,0.5326661409346906252,-0.5847838,-12.339117,-4.3622355,-2.7103648,-9.4241705,0.096512161409346906270,0.2220622,-14.656704,-3.6774938,-2.527717,-9.472859,-0.214481551409346906274,1.4622587,-17.765575,-2.831742,-2.262487,-9.532147,-0.43558571409346906292,3.153762,-19.608511,-0.41299978,-1.911025,-9.602454,-0.557872351409346906314,4.782418,-19.608511,3.1741128,-1.4789219,-9.681605,-0.49966221409346906314,6.0357823,-19.583971,2.32058,-0.9943679,-9.75378,-0.213006211409346906315,5.9543796,-17.142485,-1.726818,-0.4958441,-9.794069,-0.02668811409346906321,3.626617,-14.536994,-3.8426938,-0.06899536,-9.805988,-0.090548871409346906346,2.8634653,-12.32116,-4.7058034,0.17837037,-9.801641,-0.257630381409346906348,1.6938977,-11.043854,-4.8255134,0.3765238,-9.78593,-0.51394611409346906353,0.90500826,-10.170568,-4.607043,0.47779667,-9.761232,-0.8126691409346906373,1.5101427,-9.248801,-4.0120835,0.49608847,-9.733396,-1.08871351409346906374,1.2521675,-9.304466,-3.839701,0.5501036,-9.703912,-1.30456641409346906387,-0.23104046,-10.147225,-5.595249,0.58715963,-9.676198,-1.48216341409346906414,0.18435353,-7.980473,-5.5844755,0.50719094,-9.631746,-1.77275791409346906414,0.51475334,-5.3636103,-3.9001546,0.4862931,-9.570257,-2.08424781409346906415,0.7158663,-4.9362454,-4.0078936,0.5014411,-9.515393,-2.31868271409346906421,1.3796587,-5.623381,-5.17387,0.53969854,-9.451084,-2.56048351409346906444,1.9566613,-5.4102974,-4.0958805,0.6491129,-9.357614,-2.8607871409346906445,1.3210008,-4.8285065,-2.088941,0.8037972,-9.281476,-3.06243941409346906455,1.3072342,-4.336498,-0.34117374,0.8620532,-9.259185,-3.11363891409346906483,1.8836381,-3.8522706,-0.504578,0.93721527,-9.279664,-3.0298321409346906484,2.508525,-3.1771057,-1.5215151,1.0643249,-9.28347,-2.97569921409346906485,3.329736,-2.6922798,-2.1829133,1.2934922,-9.235093,-3.03485751409346906527,4.0120835,-2.2571337,-2.7665,1.6499478,-9.131624,-3.17198941409346906528,4.811148,-2.018312,-2.697667,2.103766,-8.961951,-3.38053041409346906529,5.522825,-1.963844,-2.3678656,2.6630702,-8.735918,-3.5724161409346906531,5.717354,-1.9877859,-2.4019828,3.3041995,-8.45849,-3.70224551409346906534,5.8065376,-2.1051018,-2.2266076,3.9236736,-8.143925,-3.80153871409346906541,6.0405707,-2.3014264,-2.2972364,4.512094,-7.8042617,-3.86069231409346906566,6.192004,-2.7395654,-2.7700913,5.063557,-7.4456143,-3.88505221409346906567,6.2650275,-3.6152446,-3.1310172,5.5232244,-7.0852857,-3.932321409346906601,6.2404866,-5.2061915,-2.4013844,5.86061,-6.7841716,-3.9747541409346906603,4.8542438,-8.986037,1.8986019,6.0786157,-6.65761,-3.85967231409346906604,-3.9863458,-17.74343,17.799093,6.047091,-7.0498495,-3.1468521409346906605,-13.045406,-19.608511,16.195578,6.170322,-6.8636484,-3.3147911409346906639,-19.364304,-19.608511,11.999739,6.3010473,-6.663129,-3.47417381409346906640,-19.60911,-19.608511,13.03164,6.3723106,-6.5454574,-3.56665851409346906641,-14.4933,-16.431406,6.633734,6.340027,-6.48973,-3.72261551409346906660,-8.900445,-9.688137,5.267244,6.241638,-6.4540157,-3.94436961409346906661,-6.145317,-8.368334,6.4284315,-3.4187074,-8.627877,3.16900351409346906661,-2.1763294,-8.924985,5.4420204,-3.6433117,-8.468715,3.34328461409346906672,0.34715924,-9.68275,0.85413146,-3.5149958,-8.442796,3.54039431409346906687,6.117185,-16.584036,0.24241292,-3.204477,-8.623467,3.39669251409346906712,5.3887496,-17.753605,-2.130241,-2.3167825,-9.019936,3.07305381409346906713,2.3558946,-13.64695,-1.2066777,-1.557173,-9.345304,2.53197771409346906714,-3.1160536,-11.738173,3.7349546,-1.1765343,-9.489519,2.17605041409346906721,-4.219182,-9.22426,0.12509704,-1.2819842,-9.452739,2.27434251409346906744,-1.2246342,-7.690176,-6.5625067,-1.508972,-9.457607,2.10881111409346906745,0.9247604,-7.3322425,-6.4427967,-1.5208569,-9.5831995,1.42116271409346906754,1.8926164,-7.4088573,-5.394735,-1.3531024,-9.682377,0.768832741409346906769,2.184709,-8.494029,-3.6924577,-1.0883826,-9.741968,0.282660751409346906773,2.0829554,-8.826224,-1.9063832,-0.78976625,-9.774712,-0.0410667551409346906786,2.3612814,-8.228272,-1.0175357,-0.50578105,-9.790844,-0.232255681409346906811,3.0418332,-8.000824,-0.7858967,-0.2087008,-9.797142,-0.377941341409346906812,3.5625722,-8.536526,-1.1324574,0.12944096,-9.793447,-0.49196871409346906815,3.6134489,-9.388264,-1.6705543,0.4923088,-9.775816,-0.60123631409346906821,3.6816838,-9.857527,-1.9327193,0.8317674,-9.743731,-0.73368371409346906846,3.603872,-9.741408,-1.7555484,1.1340159,-9.702635,-0.86214351409346906848,3.3913867,-9.4774475,-1.3108255,1.3975755,-9.65823,-0.96735981409346906853,3.345897,-9.32362,-0.8170213,1.6072671,-9.620391,-1.01742411409346906868,3.4033577,-9.747394,-0.427365,1.7890979,-9.588653,-1.01355461409346906884,3.0873232,-10.733805,-0.4842273,1.9505279,-9.562427,-0.96221131409346906885,2.681506,-11.736377,-0.5398925,2.0521986,-9.546524,-0.90706171409346906909,2.1057005,-12.423512,-0.61890113,2.0924232,-9.543235,-0.8478421409346906910,1.5717934,-12.249334,-0.97743285,2.0640295,-9.553312,-0.802749041409346906913,1.252766,-11.3802395,-1.2653356,1.9868038,-9.571423,-0.781582361409346906921,0.91937345,-10.649409,-1.6496049,1.9048089,-9.587602,-0.78738081409346906941,0.5446809,-10.243592,-1.8082209,1.8101102,-9.602343,-0.830014651409346906942,0.16460137,-9.837176,-1.7956513,1.6986517,-9.617497,-0.88810041409346906956,-0.2896984,-9.563639,-1.7896658,1.5648917,-9.634095,-0.951681141409346906978,-0.8218097,-9.51755,-2.171541,1.4012792,-9.65186,-1.02392861409346906979,-1.99437,-9.537901,-4.1922474,1.199405,-9.666431,-1.13663271409346906981,-3.4051533,-9.9233675,-3.5075054,0.8968583,-9.66087,-1.42605521409346907017,-3.7954082,-9.621698,-3.2674868,0.4841282,-9.655504,-1.64538591409346907018,-3.6248214,-9.030929,-4.497508,0.06415888,-9.625071,-1.87730671409346907018,-3.233968,-8.461707,-4.921282,-0.29323432,-9.550769,-2.2061841409346907022,-2.908955,-8.4347725,-4.214992,-0.567748,-9.464431,-2.50451681409346907053,-2.879626,-9.190144,-2.405574,-0.79462904,-9.39725,-2.68899181409346907054,-3.0771477,-9.658808,-0.8762778,-1.0039539,-9.381236,-2.67486051409346907055,-2.9191303,-9.854534,-0.092775315,-1.2169945,-9.40135,-2.51077341409346907069,-2.4594438,-10.147824,0.5434838,-1.3922424,-9.435927,-2.27932331409346907084,-1.9758149,-10.578181,0.7302315,-1.498801,-9.480033,-2.01319341409346907085,-1.5263035,-10.912771,0.82001406,-1.544596,-9.523862,-1.75519011409346907104,-1.1833342,-11.22282,1.0929531,-1.534028,-9.565867,-1.52030051409346907104,-0.9475053,-11.628637,1.5693992,-1.4845792,-9.607336,-1.29053661409346907117,-0.56563014,-11.943475,2.5103204,-1.4109219,-9.64806,-1.04623991409346907121,0.29269117,-11.971008,4.5034933,-1.3057323,-9.690145,-0.752694131409346907134,0.11671733,-11.250953,4.3927617,-1.1339716,-9.73613,-0.303797071409346907150,-0.38845924,-11.088146,3.608062,-1.013217,-9.753939,0.066543141409346907153,-0.98222125,-11.061212,2.8874073,-0.9540254,-9.754709,0.32538231409346907166,-1.6184803,-10.899603,2.9442697,-0.9487784,-9.747257,0.511060361409346907182,-1.9045875,-10.454282,3.738546,-1.0020654,-9.729263,0.71251641409346907183,-1.8166006,-10.366295,3.858256,-1.0893241,-9.695499,0.990464451409346907204,-2.3050177,-11.042058,1.9806033,-1.1697192,-9.65291,1.27415251409346907206,-3.1771057,-12.392986,-0.3549404,-1.272871,-9.626843,1.36897251409346907223,-4.4322658,-13.78701,-2.2104468,-1.4050112,-9.629879,1.20902071409346907225,-5.203199,-13.968969,-3.630807,-1.6062694,-9.628636,0.937893451409346907237,-5.345654,-13.512875,-4.780622,-1.8236332,-9.617055,0.597507661409346907271,-4.8039656,-13.548189,-3.2124202,-2.0282457,-9.592636,0.194741651409346907276,-4.4059296,-13.801375,-1.0019734,-2.1724353,-9.562709,-0.0740561409346907277,-4.2945995,-14.969747,-0.81402856,-2.2667997,-9.539473,-0.17459261409346907297,-5.445013,-16.586432,2.6318262,-2.3257241,-9.523738,-0.244547591409346907298,-5.522825,-18.063055,8.081029,-2.4248486,-9.502113,-0.0189186351409346907300,-4.871003,-18.351557,12.54442,-2.4818406,-9.47153,0.548609441409346907302,-3.4278982,-16.439188,10.685921,-2.499721,-9.467063,0.54454061409346907339,-1.441908,-13.489531,2.204461,-2.4547966,-9.307257,1.87599211409346907341,-0.4249708,-12.183494,-0.5410896,-2.4050806,-9.3106575,1.9229281409346907342,-0.52971715,-12.308591,-2.0266917,-2.3154716,-9.348419,1.848251409346907344,-0.57879823,-13.521255,-3.1800983,-2.193476,-9.414775,1.64956991409346907379,-0.09816227,-12.98615,-5.424064,-2.0359566,-9.504168,1.30232641409346907380,0.44651863,-10.95048,-6.4206505,-1.8692055,-9.591679,0.822300141409346907381,0.034117375,-11.083957,-5.7766104,-1.7260125,-9.6500225,0.261384161409346907382,-0.31603462,-12.067974,-5.09546,-1.6135195,-9.6713915,-0.176459571409346907409,0.2621651,-13.011888,-4.642956,-1.517278,-9.675095,-0.510712561409346907410,1.3640964,-15.331869,-2.8622682,-1.3903397,-9.676653,-0.77444651409346907415,2.405574,-18.486828,0.27353755,-1.1821291,-9.695779,-0.874543551409346907422,3.4715924,-19.608511,2.4654293,-0.8973735,-9.738493,-0.72584881409346907439,4.8997335,-19.608511,1.448492,-0.5675377,-9.780064,-0.445708481409346907442,5.7418942,-17.988235,-1.0265139,-0.19362712,-9.801034,-0.269530651409346907455,4.5154643,-13.885173,-4.2664676,0.18070728,-9.801357,-0.266713261409346907481,2.516306,-11.094132,-6.5457473,0.4591676,-9.784047,-0.48164841409346907482,1.2240356,-9.820416,-7.1514807,0.62448704,-9.748731,-0.861798051409346907483,-0.016759412,-9.485229,-5.861006,0.69646466,-9.696286,-1.29126261409346907510,0.024540568,-9.226655,-4.1120415,0.6553636,-9.647851,-1.63091551409346907511,1.5682021,-8.535329,-3.5930982,0.6008968,-9.615219,-1.83218561409346907513,1.7645266,-7.313688,-3.5170822,0.66313046,-9.58271,-1.9754281409346907522,1.0534488,-6.105813,-3.6619315,0.7468619,-9.542343,-2.13454941409346907536,1.0648212,-5.6245785,-4.175488,0.7987124,-9.494326,-2.32168651409346907550,1.6932992,-5.502474,-3.5063083,0.8538827,-9.432081,-2.54502061409346907554,1.8207904,-5.42167,-2.6072857,0.9422156,-9.377445,-2.7103791409346907567,1.4736311,-5.043386,-1.2138603,1.026026,-9.337334,-2.8163581409346907589,1.6921021,-4.2251673,-1.163582,1.0898751,-9.330961,-2.81349441409346907590,2.3529017,-3.472191,-1.9536686,1.1889166,-9.318584,-2.81440691409346907595,3.2315738,-3.09271,-2.2517467,1.3921366,-9.2619915,-2.9065211409346907602,4.0414124,-2.791639,-2.6809072,1.6959001,-9.1690645,-3.0368661409346907619,4.9308586,-2.4791958,-2.3092074,2.10309,-9.023451,-3.2132111409346907635,5.6976013,-2.1871033,-1.8650831,2.6258342,-8.836872,-3.34441731409346907636,6.003461,-1.774702,-1.9740193,3.2465901,-8.599413,-3.41762231409346907650,6.3248825,-1.6328455,-2.260725,3.8964765,-8.291814,-3.49766851409346907667,6.541558,-1.7543513,-2.885013,4.550131,-7.9138536,-3.58296321409346907668,6.3769565,-2.1110873,-3.4913447,5.14185,-7.4875755,-3.69702321409346907683,6.335656,-2.8072014,-3.5972881,5.6119995,-7.0506673,-3.86832981409346907683,5.3408656,-4.7602715,-3.210026,5.9755383,-6.6724086,-3.9927811409346907698,4.0342298,-8.744224,-1.7070658,6.096622,-6.546647,-4.0178351409346907702,-0.427365,-16.287754,11.080964,5.905337,-6.860983,-3.7715131409346907717,-16.139313,-19.608511,18.641254,5.13449,-8.142431,-1.87303091409346907735,-19.559431,-19.608511,14.327501,5.3062763,-7.9731803,-2.10765431409346907735,-19.60911,-19.608511,16.143503,5.439163,-7.817465,-2.33947751409346907781,-15.072697,-16.679207,6.7372837,5.521099,-7.7194433,-2.46942331409346907782,-9.188348,-9.360131,5.2516813,5.485657,-7.6801753,-2.66324071409346907783,-7.7350674,-8.285135,6.8408327,-3.4354944,-8.606032,3.20997451409346907784,-3.2603042,-8.482059,5.374983,-3.8284652,-8.383806,3.35037951409346907785,-0.90381116,-9.105149,2.4067712,-3.803536,-8.344824,3.4738171409346907810,2.6599581,-9.610924,0.2765303,-3.585411,-8.439471,3.47714191409346907810,6.0124393,-14.104841,-0.76315176,-3.060553,-8.694935,3.3468631409346907813,5.368997,-17.070059,-3.0454245,-2.1843834,-9.0816345,2.9871021409346907841,3.9043443,-13.307571,-3.7098155,-1.4226874,-9.413413,2.35244871409346907842,1.8010383,-10.073604,-2.618658,-0.9120424,-9.593288,1.81861831409346907842,1.0582372,-9.673173,-2.653374,-0.6652634,-9.670925,1.48358791409346907867,1.7220296,-9.7863,-2.11827,-0.50968045,-9.726333,1.14414141409346907868,2.111686,-9.797073,-1.9788077,-0.30639598,-9.764175,0.85871351409346907881,1.839944,-10.854114,-2.7365725,-0.078585856,-9.787182,0.612632751409346907882,0.7661445,-11.994352,-1.6591818,0.11445335,-9.800932,0.314716521409346907917,0.97264445,-10.896012,-0.4321534,0.18442762,-9.804114,0.125276491409346907917,2.7832594,-8.544906,0.25558102,0.2675935,-9.802988,0.0145633631409346907918,3.8738184,-8.15106,0.05267244,0.4855647,-9.794581,-0.028589551409346907933,3.7122097,-8.963891,-0.82480246,0.78482586,-9.775111,-0.0405289941409346907933,3.0825348,-9.247005,-1.7022774,1.0744117,-9.747013,-0.10847441409346907946,2.7329812,-8.990228,-2.0632033,1.2993625,-9.717013,-0.248452781409346907964,2.926313,-8.611345,-1.8914193,1.4681693,-9.687351,-0.4124411409346907964,3.0178912,-8.500014,-1.3700819,1.6330047,-9.653689,-0.55675711409346907979,2.5701754,-8.602366,-0.88405895,1.7939264,-9.619975,-0.638986471409346907982,2.1278467,-8.928576,-0.6721721,1.9044281,-9.596472,-0.67177641409346907997,1.7465701,-9.705495,-0.7870938,1.9655652,-9.583847,-0.675920671409346908002,1.3497312,-10.738593,-0.91937345,1.9711198,-9.582399,-0.680234431409346908016,0.830788,-11.670536,-0.92296475,1.915392,-9.593488,-0.68312661409346908031,-0.08200141,-11.362283,-0.89184016,1.7951667,-9.617257,-0.675377671409346908036,-0.46447513,-10.242993,-0.88765025,1.6004442,-9.652161,-0.66692081409346908049,-0.9684546,-9.395446,-1.4454993,1.4056903,-9.682001,-0.67328391409346908072,-1.0803835,-9.057863,-2.421735,1.1847214,-9.708048,-0.72156541409346908073,-0.12868834,-8.400057,-4.9536033,0.97216237,-9.720363,-0.86015731409346908076,0.010175358,-8.443152,-6.432023,0.86334383,-9.68822,-1.25035891409346908082,-3.1609447,-9.665392,-6.266823,0.7640004,-9.615194,-1.77051571409346908100,-3.846285,-9.91798,-6.5068417,0.3562191,-9.537629,-2.25324251409346908102,-3.311181,-9.046491,-4.554969,-0.053696226,-9.411209,-2.75620081409346908117,-2.9747956,-8.54311,-2.6449943,-0.33611843,-9.334075,-2.98872831409346908135,-2.6449943,-8.969876,-1.2066777,-0.60466117,-9.302983,-3.0429111409346908136,-2.1775265,-9.743204,-0.32441434,-0.82747155,-9.33459,-2.88982771409346908156,-1.887828,-10.811018,0.032920275,-0.9865035,-9.396054,-2.62894921409346908157,-1.5951369,-11.661558,0.1328782,-1.0819167,-9.459973,-2.34706881409346908162,-1.412579,-12.097302,0.20231004,-1.1182466,-9.517382,-2.08312441409346908189,-1.2036849,-12.096106,0.24241292,-1.120151,-9.566226,-1.84472311409346908190,-1.0121487,-11.647193,0.32561144,-1.0989219,-9.605806,-1.64050281409346908197,-0.8882488,-10.916363,0.6063316,-1.0665557,-9.63881,-1.45815421409346908202,-1.0540473,-10.584765,0.97862995,-1.0377575,-9.665913,-1.28979311409346908223,-1.1546037,-10.720636,1.4969746,-1.0301734,-9.688702,-1.11273971409346908224,-1.1294646,-10.9899845,2.259528,-1.0318068,-9.709865,-0.9079181409346908234,-0.8972271,-11.552622,3.779846,-1.0325187,-9.730198,-0.653866051409346908254,-0.18974048,-11.684303,5.5521536,-1.0114228,-9.749887,-0.295177131409346908256,-0.077213004,-11.594521,6.2315083,-0.9344544,-9.760615,0.165942271409346908262,-0.17298107,-11.361086,5.993285,-0.86014354,-9.748089,0.63664081409346908283,-0.37948096,-11.274895,5.8454432,-0.81167793,-9.719912,1.01729371409346908283,-0.7918822,-11.138425,5.127183,-0.7966399,-9.678398,1.36541691409346908299,-0.62847793,-10.189722,4.3897686,-0.8256711,-9.629477,1.66188691409346908304,-0.9139865,-9.725247,2.3888147,-0.8502017,-9.577125,1.93034531409346908321,-2.5743654,-11.362882,-0.4441244,-0.891995,-9.545341,2.06427031409346908322,-4.120421,-13.758879,-2.6701334,-1.0214531,-9.558342,1.94039081409346908335,-4.8416743,-14.641741,-4.534618,-1.2065911,-9.599796,1.59951781409346908355,-4.8165355,-13.837289,-6.2805896,-1.4167396,-9.642791,1.08619071409346908355,-4.2143936,-13.342886,-5.781399,-1.6184105,-9.660403,0.47721771409346908363,-3.4751837,-13.4661875,-2.0452468,-1.7639447,-9.646548,-0.0550052641409346908383,-2.9358897,-13.524247,0.65421563,-1.8396798,-9.629098,-0.25776071409346908384,-3.192668,-14.293385,0.5386954,-1.8652675,-9.625102,-0.220428471409346908401,-4.4005427,-15.558121,2.6839,-1.9038807,-9.618711,-0.161337391409346908403,-4.927267,-17.231668,5.756858,-2.0007582,-9.600174,0.06333471409346908415,-4.9278655,-17.733852,8.475474,-2.089208,-9.570755,0.454109221409346908434,-4.642357,-16.290148,8.246229,-2.1680455,-9.512174,0.99423081409346908436,-3.4691982,-14.114418,6.6403184,-2.2794373,-9.426272,1.45600521409346908450,-1.6089035,-11.96203,4.0815153,-2.3632967,-9.345733,1.80069081409346908466,-0.8583213,-11.086949,0.40043023,-2.3500514,-9.308675,1.99905471409346908466,-0.9504981,-12.0889225,-1.3030443,-2.266677,-9.338522,1.95565511409346908480,0.86370826,-11.201871,-6.6079965,-2.153273,-9.407301,1.74255161409346908483,1.1647792,-10.873865,-7.0527196,-1.9416567,-9.545993,1.1288791409346908501,1.0079589,-11.909956,-6.3661823,-1.71834,-9.640523,0.527259231409346908517,1.2389994,-13.376405,-5.141548,-1.516828,-9.688631,-0.0074988321409346908518,1.9063832,-16.021997,-3.0017304,-1.2916806,-9.713896,-0.37705581409346908532,2.6527755,-19.127876,0.60812724,-1.0374802,-9.737204,-0.52997081409346908534,3.6140475,-19.608511,4.1198225,-0.75149816,-9.769638,-0.399793681409346908551,4.550779,-19.595942,2.939481,-0.43115798,-9.796999,-0.057175011409346908567,4.618415,-17.106571,-0.39324763,-0.09817425,-9.804887,0.157937811409346908568,4.551976,-12.855666,-3.0083144,0.18319413,-9.804027,0.133689511409346908587,2.9215245,-10.484209,-4.8656163,0.4478459,-9.796348,-0.0371826071409346908588,1.1492168,-9.795278,-6.0663085,0.62166744,-9.781512,-0.325522571409346908594,1.2814964,-8.866926,-5.439626,0.69641197,-9.7567625,-0.700687471409346908620,2.1416135,-8.239047,-3.4967315,0.77683866,-9.721225,-1.03185191409346908620,2.3319526,-8.922591,-4.302979,0.8847013,-9.689673,-1.22389471409346908623,2.1978772,-8.429385,-5.3941364,0.9808627,-9.647319,-1.46204891409346908635,1.632247,-6.2740054,-6.0920463,1.0784881,-9.583396,-1.77927291409346908648,1.5765818,-4.6261964,-5.8837504,1.1472691,-9.4948225,-2.16853121409346908667,2.4899697,-4.073136,-3.25372,1.2334765,-9.378842,-2.58576821409346908668,2.4223335,-4.0426097,-1.411382,1.407418,-9.296278,-2.78725121409346908689,1.8106151,-3.9875429,-0.48722005,1.5702341,-9.257981,-2.82745981409346908690,1.5664065,-3.5529952,-0.16879122,1.6639718,-9.254792,-2.78395961409346908695,1.6921021,-3.0801406,-0.60453594,1.7470393,-9.262374,-2.70677781409346908726,2.208651,-2.72939,-1.3826514,1.8663951,-9.248285,-2.675111409346908727,2.7629087,-2.6102784,-2.0308816,2.0543668,-9.18981,-2.73813081409346908727,3.591901,-2.5133133,-2.1894975,2.3227644,-9.082911,-2.876791409346908754,4.7141833,-2.3768437,-2.1613655,2.7016146,-8.927509,-3.02840381409346908755,5.353435,-2.392406,-2.2296004,3.2231114,-8.705954,-3.16043571409346908756,5.5485625,-2.3038206,-3.0041246,3.7982826,-8.425746,-3.27875881409346908763,5.5976434,-2.4289176,-3.9677908,4.3455367,-8.072014,-3.48271541409346908786,5.3282957,-3.0334535,-4.5926776,4.813155,-7.6650467,-3.77505231409346908787,4.7177744,-4.14975,-4.1419687,5.1387606,-7.2851,-4.08544161409346908796,3.3632548,-6.3063273,-2.285864,5.2905593,-7.071984,-4.26232621409346908815,0.91219085,-10.506954,2.285864,5.2255926,-7.1769447,-4.1659351409346908816,-9.2787285,-18.104355,17.606361,4.786009,-7.845893,-3.42147251409346908837,-18.613722,-19.608511,16.349405,4.8854303,-7.6854095,-3.63832661409346908837,-19.60911,-19.608511,18.773535,4.9638457,-7.5345373,-3.84205721409346908843,-19.232023,-19.589357,13.903728,4.9473853,-7.4766016,-3.97419481409346908870,-8.92738,-11.506534,5.0020857,4.824726,-7.46746,-4.13877631409346908871,-5.3516393,-6.573281,2.7814639,-3.5307486,-8.470626,3.45726631409346908875,-6.8162923,-7.447763,6.10701,-3.8143725,-8.387136,3.358111409346908883,-1.9243397,-7.319673,4.0898952,-4.0405545,-8.220748,3.5019451409346908902,0.7649474,-8.462905,0.6147113,-3.9092422,-8.246792,3.58868461409346908904,3.5823243,-10.004171,-0.5955577,-3.5459714,-8.447369,3.49834781409346908916,5.3163247,-14.6172,-2.9418752,-2.8864753,-8.777913,3.28434251409346908936,3.9803603,-16.021997,-3.3423057,-2.031522,-9.20317,2.71015861409346908937,2.2278047,-13.105262,-2.1350293,-1.3841727,-9.478019,2.1027681409346908943,1.5406688,-12.133216,-1.074398,-1.0274466,-9.603094,1.70156071409346908968,1.395221,-10.961254,0.60932434,-0.77026755,-9.668178,1.45031871409346908969,1.5346833,-9.695918,-0.5398925,-0.57179976,-9.696195,1.35177121409346908976,1.7160441,-9.490017,-0.6937199,-0.3862869,-9.730198,1.15948751409346908983,2.168548,-9.141062,-0.2220622,-0.19672617,-9.756241,0.973373951409346909004,2.8999767,-7.6081743,0.011372458,0.007492621,-9.769494,0.852827371409346909005,3.5087025,-6.7725983,-0.130484,0.26385662,-9.772933,0.76846331409346909015,3.2411506,-7.2071457,-1.1994951,0.5777538,-9.764718,0.697773041409346909032,2.7670987,-8.10138,-2.3122003,0.8615157,-9.754218,0.53236441409346909047,2.6659436,-8.415619,-2.7682958,1.0846989,-9.742854,0.265749371409346909048,2.813187,-8.277952,-2.5582044,1.2859544,-9.721903,-0.036778121409346909066,2.7252002,-8.355764,-2.0530279,1.4820075,-9.689354,-0.30080081409346909068,2.657564,-8.879496,-1.5292963,1.645091,-9.654929,-0.49644091409346909078,2.48578,-9.631873,-1.0031705,1.7802768,-9.62363,-0.62188451409346909083,2.1511903,-10.468647,-0.79008657,1.8794817,-9.601246,-0.673840941409346909097,1.7184383,-11.386824,-0.81522566,1.9109745,-9.593948,-0.68900521409346909113,1.1875241,-12.476784,-1.2258313,1.8978441,-9.596837,-0.68506381409346909118,0.4890157,-13.18427,-1.7597382,1.8130344,-9.611628,-0.70705641409346909131,-0.12210429,-13.023859,-2.2122424,1.6587745,-9.635119,-0.76376261409346909150,-0.85652566,-12.36246,-2.8688521,1.46381,-9.659269,-0.85216751409346909151,-1.1055226,-11.598111,-3.068768,1.2265044,-9.678742,-0.99400111409346909166,-1.1935096,-10.724228,-2.9747956,0.9927985,-9.687246,-1.15843651409346909167,-1.4024036,-10.016742,-2.949058,0.77873677,-9.683881,-1.33655791409346909184,-1.4478935,-9.529521,-3.1783028,0.58525234,-9.674614,-1.49322781409346909184,-1.6340426,-9.23264,-3.371036,0.40520847,-9.652163,-1.6858121409346909202,-2.0087352,-8.970475,-3.0651767,0.22911428,-9.623074,-1.87467221409346909203,-2.7461493,-8.891466,-2.4899697,0.025358241,-9.596072,-2.0211851409346909216,-2.6204538,-8.39467,-2.1212628,-0.23749447,-9.575955,-2.10121181409346909231,-2.0398598,-8.167819,-1.347337,-0.47547612,-9.557459,-2.1445941409346909248,-1.6454151,-8.825626,-0.6075287,-0.6483289,-9.554925,-2.11032751409346909249,-1.2916719,-9.424176,0.06823475,-0.75693715,-9.572194,-1.99261761409346909264,-0.8062474,-9.5253315,0.16938977,-0.81990945,-9.603117,-1.81060341409346909265,-0.61890113,-9.892242,-0.05746084,-0.8268113,-9.634028,-1.63470721409346909283,-0.86969376,-10.796653,-0.24361002,-0.8077334,-9.658365,-1.49464481409346909284,-1.0247183,-11.25215,-0.39743748,-0.7991956,-9.676086,-1.38022281409346909297,-0.92057055,-11.115082,-0.3537433,-0.79833853,-9.688137,-1.29346511409346909313,-0.8858546,-10.324995,-0.020350715,-0.7899758,-9.698499,-1.21879021409346909315,-1.0145429,-9.752781,0.45190558,-0.7866227,-9.709655,-1.12882641409346909330,-1.1186907,-9.7324295,0.74519527,-0.80265963,-9.722339,-1.001131409346909344,-1.0690111,-10.035895,0.80086046,-0.827261,-9.733583,-0.86219851409346909345,-0.99658644,-10.304645,0.8511387,-0.84800655,-9.742847,-0.726796271409346909359,-0.94810385,-10.1699705,1.2300211,-0.8616522,-9.75041,-0.59789751409346909363,-0.825401,-10.075399,3.4410665,-0.86990595,-9.757561,-0.451294151409346909376,-0.75357497,-10.83077,3.9588125,-0.86615276,-9.76776,-0.105070731409346909393,-0.79607207,-11.795034,3.6284127,-0.85240096,-9.766292,0.251713841409346909396,-0.89184016,-12.206239,2.9735985,-0.83851886,-9.756421,0.528682531409346909411,-1.1432313,-11.829751,2.6659436,-0.84026307,-9.7453985,0.70111471409346909415,-2.2547395,-12.430097,2.2601264,-0.8749325,-9.732034,0.832111951409346909426,-3.4811692,-13.780426,2.484583,-0.9982477,-9.711944,0.92306591409346909444,-4.292804,-14.549563,2.2679076,-1.191699,-9.6784935,1.03780161409346909447,-5.1170077,-14.305954,-1.46585,-1.4089687,-9.637383,1.14280991409346909469,-5.346851,-13.447034,-3.0711622,-1.6518916,-9.619693,0.95032741409346909470,-4.9242744,-13.301586,-0.40581718,-1.8861318,-9.601942,0.64464931409346909476,-4.2784386,-14.058154,3.304597,-2.0600379,-9.571716,0.555780951409346909502,-4.4526167,-14.812926,5.4803276,-2.1470652,-9.541292,0.72404671409346909503,-4.920683,-15.890915,7.213131,-2.2076838,-9.49827,1.03894031409346909504,-5.0625396,-16.45894,8.2169,-2.2760544,-9.427363,1.45422671409346909535,-5.258864,-14.52622,5.993884,-2.349139,-9.334289,1.87695941409346909536,-4.6399627,-12.786833,-0.054468088,-2.484648,-9.251138,2.10080031409346909537,-4.5435963,-12.108675,-3.6314054,-2.6339867,-9.246623,1.93196261409346909544,-4.8985367,-11.893796,-5.4581814,-2.767526,-9.283817,1.52378951409346909566,-4.696825,-12.4707985,-5.6305637,-2.9141808,-9.300454,1.08603641409346909567,-2.956839,-12.977172,-5.044583,-3.0035594,-9.313963,0.631726151409346909577,-1.1306617,-11.558607,-5.3205147,-2.9596875,-9.346776,0.219976631409346909601,0.08140286,-11.494562,-4.9613843,-2.833275,-9.386501,-0.191181331409346909602,0.3716998,-13.213599,-3.822343,-2.6206264,-9.435539,-0.522760751409346909604,0.7152678,-16.013618,-3.1914709,-2.3679218,-9.489345,-0.7181051409346909615,1.8698715,-19.210476,-1.8166006,-2.0808287,-9.54698,-0.834081771409346909643,3.3854012,-19.608511,1.4335283,-1.7173134,-9.620267,-0.819542941409346909644,5.8747725,-19.608511,3.4745853,-1.3024665,-9.7016535,-0.59319391409346909644,7.7637978,-19.582176,1.0642227,-0.77917707,-9.7720375,-0.265629561409346909663,6.8893156,-16.152481,-1.0869676,-0.20576267,-9.803598,-0.132428691409346909664,4.6519337,-12.413338,-3.793014,0.26012555,-9.802045,-0.15037821409346909680,2.4193408,-10.849923,-6.974908,0.5837561,-9.782684,-0.358759081409346909694,1.3551182,-9.557653,-6.75943,0.7459391,-9.747829,-0.770581661409346909697,1.039682,-9.020754,-4.3538556,0.8055693,-9.704623,-1.15833251409346909720,1.5939398,-8.467094,-3.164536,0.8252553,-9.670842,-1.40147891409346909720,0.5434838,-8.642469,-6.5349736,0.8734863,-9.642147,-1.5608951409346909724,1.198298,-6.233304,-6.915053,0.83755714,-9.575545,-1.94365051409346909746,0.7308301,-4.031237,-5.9621606,0.8777535,-9.47346,-2.377711409346909747,0.7134721,-3.8504748,-3.4440591,0.8967423,-9.356833,-2.79569861409346909761,1.4993688,-4.478953,-1.3024458,0.92164606,-9.286869,-3.0124851409346909764,1.8387469,-4.696825,-2.047641,1.0092444,-9.2782545,-3.01094171409346909788,1.7848774,-4.408324,-1.5735891,1.1056756,-9.25149,-3.05905031409346909788,1.3329718,-4.0539823,-1.0749966,1.2221081,-9.236255,-3.06078981409346909795,1.1923125,-3.7193923,-1.039682,1.2862413,-9.233387,-3.043121409346909817,1.5209166,-3.4913447,-2.184709,1.3500603,-9.228965,-3.02885991409346909817,3.657143,-2.8868086,-2.4947581,1.4537466,-9.175411,-3.14146611409346909824,4.8494554,-2.4223335,-2.1260512,1.8377038,-9.049602,-3.30120781409346909849,5.7143607,-1.9123687,-2.3020248,2.394357,-8.873301,-3.42081381409346909850,6.3338604,-1.2000936,-3.3387144,3.0621667,-8.612507,-3.55221921409346909855,6.7971387,-1.0995371,-4.5280337,3.7886727,-8.198216,-3.8217271409346909864,7.0168066,-1.4131776,-5.258864,4.4930725,-7.6504736,-4.177671409346909880,6.929418,-1.7986441,-5.2810106,5.09496,-7.0504527,-4.528011409346909895,6.5164185,-2.5893292,-4.334702,5.567258,-6.4900155,-4.8016371409346909896,5.3396683,-4.747702,-2.5270798,5.9102025,-6.091164,-4.91300341409346909911,3.330933,-9.431957,2.955642,6.055205,-6.054919,-4.7794241409346909929,-10.707469,-18.810045,19.445705,5.941937,-6.735623,-3.93638731409346909930,-18.888456,-19.608511,18.850746,6.019227,-6.546133,-4.13369751409346909946,-19.60911,-19.608511,16.935984,6.1080165,-6.3127437,-4.3602511409346909947,-18.325819,-18.788498,8.362348,6.144858,-6.156736,-4.52832271409346909962,-9.882666,-10.532093,3.5404258,6.0529966,-6.1370234,-4.67638971409346909964,-8.037335,-6.5511346,4.871602,-3.4661775,-8.6552,3.04031521409346909979,-4.3837833,-6.2339025,5.1002483,-3.9413545,-8.434761,3.08073021409346910004,-0.6943185,-7.392098,3.0544028,-4.028211,-8.324351,3.26329351409346910005,1.8423382,-10.317214,1.0654198,-3.780237,-8.404723,3.35273341409346910005,6.547543,-18.41979,-0.8762778,-3.2758167,-8.654387,3.24668881409346910035,7.8104844,-19.608511,-1.6567876,-2.181183,-9.139428,2.80779241409346910035,4.541202,-17.780539,-1.8866309,-1.137192,-9.468994,2.28371071409346910036,-1.2126632,-12.639589,4.857237,-0.5822694,-9.615652,1.83591781409346910044,-2.8377275,-9.617508,2.1092918,-0.5977068,-9.569675,2.05777841409346910063,0.6655881,-8.15525,-5.17387,-0.7740277,-9.559888,2.044461409346910064,2.2200236,-7.678205,-6.508039,-0.68478686,-9.671905,1.46824481409346910084,3.110068,-8.31207,-4.5118732,-0.45962882,-9.761997,0.81398651409346910085,3.21661,-8.526351,-1.5526398,-0.14087579,-9.797825,0.391388861409346910096,3.7547069,-7.3729444,-0.16160862,0.18673165,-9.802725,0.205163671409346910116,4.204817,-7.079056,-0.29209262,0.5549721,-9.790316,0.110178871409346910117,4.173094,-8.007407,-1.5161282,0.93353534,-9.762029,0.0412397721409346910124,3.6541502,-9.178771,-2.4115596,1.2785684,-9.722467,-0.096458971409346910143,3.2800562,-9.291298,-2.5725696,1.5417297,-9.679832,-0.30708211409346910144,3.292626,-8.793304,-2.4983494,1.7372701,-9.637409,-0.52215691409346910163,3.5619736,-8.500014,-2.6330233,1.912332,-9.5913315,-0.720928851409346910166,3.4793737,-8.614936,-2.4193408,2.0969536,-9.535086,-0.924842831409346910178,3.1250317,-9.053075,-2.005144,2.2601867,-9.479739,-1.09383051409346910198,2.8006175,-9.679757,-1.6741456,2.3812723,-9.436924,-1.20183311409346910198,2.3588872,-10.825981,-1.6142905,2.4505951,-9.411281,-1.26205591409346910204,1.9123687,-12.209231,-1.714847,2.441858,-9.408657,-1.29803791409346910229,1.5077485,-13.041815,-1.9949685,2.3563921,-9.427738,-1.3174161409346910229,1.2174516,-12.940062,-2.3523033,2.2195492,-9.456895,-1.3457841409346910242,0.85891986,-12.050017,-2.666542,2.0726013,-9.483941,-1.38908651409346910244,0.46208093,-11.113286,-4.577115,1.9180465,-9.505994,-1.45861711409346910259,-0.06943185,-10.527305,-4.7680526,1.7488469,-9.4991255,-1.69662571409346910276,-1.6190789,-9.770737,-3.2453403,1.5549054,-9.482396,-1.95877851409346910277,-1.5879543,-9.320627,-2.8431146,1.2657845,-9.4929,-2.110221409346910290,-1.4137762,-8.896255,-2.5169046,1.0200069,-9.4964075,-2.22445651409346910298,-2.0841527,-8.610746,-2.1218612,0.80941397,-9.49827,-2.30176261409346910320,-2.1547816,-7.7374616,-1.4574703,0.55545366,-9.510586,-2.32607671409346910321,-1.6807296,-7.2831616,-0.9175778,0.30595994,-9.524383,-2.3158011409346910325,-1.5508442,-8.058285,-0.7356185,0.11930172,-9.54175,-2.26079441409346910353,-1.2491747,-8.850765,-0.74639237,-0.051312987,-9.564098,-2.16697171409346910354,-0.88166475,-9.511565,-0.7954735,-0.17672698,-9.586469,-2.05883651409346910357,-0.97623575,-10.422559,-0.9552865,-0.25046778,-9.606714,-1.95414091409346910377,-1.1899183,-11.083957,-1.0193313,-0.32338527,-9.622085,-1.86582081409346910378,-1.1563994,-11.252748,-0.9103952,-0.40194649,-9.635425,-1.77971961409346910397,-1.0666169,-11.277887,-0.5105635,-0.46605977,-9.646834,-1.70051561409346910398,-0.9804256,-11.194689,-0.020350715,-0.5130702,-9.662315,-1.59588041409346910404,-0.7428011,-11.125855,0.40701428,-0.5466536,-9.681404,-1.46356331409346910431,-0.85532856,-11.569381,0.6769605,-0.5539833,-9.703233,-1.3079591409346910432,-1.0761937,-12.163143,1.1234791,-0.5701713,-9.723522,-1.13947171409346910438,-1.2114661,-12.252926,1.7884687,-0.6015765,-9.742738,-0.94211081409346910444,-1.377863,-12.017695,3.5272577,-0.642019,-9.759679,-0.7119641409346910469,-1.6196774,-11.801021,6.1387334,-0.6936729,-9.775791,-0.350875051409346910470,-1.8974048,-12.028469,7.3310456,-0.76924604,-9.774525,0.19316521409346910479,-1.8746599,-12.665926,7.3609734,-0.85825294,-9.739404,0.76013451409346910499,-2.1906946,-13.123219,6.5152216,-0.93937606,-9.684353,1.22525971409346910500,-1.5191209,-11.455657,5.6269727,-1.0610572,-9.623727,1.55833921409346910505,-1.3389573,-9.944916,3.4847605,-1.1537583,-9.55917,1.86050371409346910532,-2.9897594,-10.988189,-0.66259533,-1.2292265,-9.506446,2.0704751409346910533,-4.771045,-13.624804,-3.9205053,-1.3634818,-9.52849,1.87594681409346910538,-5.6760535,-14.972739,-5.240309,-1.5745366,-9.566285,1.47560331409346910545,-5.5701103,-15.315708,-4.992509,-1.7811525,-9.5934,0.982116041409346910562,-5.057751,-14.911088,-3.364452,-1.9535009,-9.597216,0.49767831409346910578,-5.2379146,-14.28261,-2.9921536,-2.0882714,-9.580449,0.156568291409346910579,-6.603807,-14.201207,-0.80564886,-2.2422292,-9.546282,-0.106305241409346910592,-6.359598,-15.35222,3.4195185,-2.4754646,-9.487764,-0.157433961409346910610,-5.3384714,-17.176601,9.806051,-2.638783,-9.44455,0.087556121409346910611,-3.115455,-18.061857,14.239514,-2.669356,-9.408004,0.731027071409346910627,-0.4429273,-16.651073,7.6506715,-2.7081065,-9.395571,0.748191541409346910628,0.7104794,-13.833098,0.16160862,-2.3638983,-9.308877,1.98171751409346910643,-0.2908955,-12.6539545,-1.7040731,-2.1950366,-9.359085,1.93900411409346910645,-1.4065934,-12.88679,-4.039018,-2.0833724,-9.417913,1.76998781409346910660,-1.3521254,-12.85387,-6.950966,-2.0113962,-9.500414,1.36630711409346910674,-0.4369418,-11.058219,-8.186973,-1.9549329,-9.580914,0.744798961409346910677,-0.08200141,-10.21127,-7.5680714,-1.8543563,-9.629142,0.106860541409346910693,0.046686932,-11.061212,-5.8628016,-1.7425197,-9.639253,-0.467815671409346910709,0.5967548,-12.5504055,-4.8428717,-1.612614,-9.636335,-0.84315531409346910710,1.632247,-16.044743,-3.57993,-1.4542472,-9.636127,-1.09572661409346910722,4.832696,-19.608511,4.036624,-1.2141844,-9.656561,-1.20289581409346910725,6.761824,-19.608511,3.0897174,-0.747244,-9.749633,-0.746131661409346910746,6.488885,-16.992847,0.3309984,-0.21300475,-9.79465,-0.435733621409346910746,5.445013,-13.163321,-1.8531121,0.23392874,-9.79761,-0.349939821409346910759,4.185663,-11.058219,-3.317765,0.57427096,-9.780752,-0.421324551409346910774,2.7323828,-9.817424,-4.3622355,0.8384466,-9.753388,-0.58207511409346910778,2.0991163,-8.537125,-4.5579615,0.9982354,-9.721708,-0.81382111409346910790,2.284667,-7.5962033,-3.8935704,1.0989711,-9.686304,-1.06686531409346910807,2.3540988,-7.4310036,-3.4530375,1.2015266,-9.64803,-1.28151111409346910807,1.7328035,-8.146272,-4.161721,1.2942021,-9.610341,-1.46177821409346910827,1.774702,-8.298303,-5.911284,1.3290815,-9.568261,-1.68887381409346910827,1.4598645,-6.007052,-5.946,1.3657821,-9.495288,-2.03581791409346910841,0.7026982,-4.4322658,-5.2744265,1.4132795,-9.397042,-2.42252871409346910845,0.7272388,-4.373608,-4.4125137,1.4120145,-9.293843,-2.7930481409346910860,1.3389573,-4.56694,-3.2728736,1.4235121,-9.199211,-3.08520941409346910879,1.5915456,-4.2754455,-1.264737,1.4832959,-9.127972,-3.26349041409346910879,1.0181342,-3.9977183,-0.48722005,1.5504583,-9.115399,-3.26741671409346910885,1.1474211,-3.289633,0.044292733,1.5562952,-9.137518,-3.20220611409346910911,2.224812,-2.789245,-0.010773907,1.6068119,-9.16915,-3.08468221409346910912,3.1866825,-2.621651,-1.3664906,1.8107209,-9.167295,-2.9752941409346910924,4.260482,-2.2541409,-1.797447,2.1529126,-9.07809,-3.02054431409346910925,5.0014873,-1.9901801,-2.0350714,2.6495776,-8.912212,-3.11811451409346910941,5.740697,-1.7657237,-2.939481,3.2495327,-8.669381,-3.23307591409346910945,6.187216,-2.0949266,-3.7738605,3.9046075,-8.304246,-3.45889021409346910959,5.9250507,-2.742558,-4.0803185,4.5143995,-7.858507,-3.74626041409346910973,5.3318872,-3.6086605,-3.7870286,4.9754424,-7.4403315,-4.0070961409346910977,4.410718,-4.915296,-2.7485435,5.257591,-7.157787,-4.1586331409346910992,3.3836055,-7.2843585,-0.2705448,5.3697267,-7.075832,-4.15560531409346911008,0.9151836,-11.838729,7.8853035,5.2988615,-7.3336744,-3.78281711409346911008,-13.286024,-19.372084,19.608511,4.8570094,-8.210576,-2.27295331409346911026,-19.58038,-19.608511,15.613188,4.947577,-8.084622,-2.5160991409346911026,-19.60911,-19.608511,9.880871,5.0161886,-7.980352,-2.70596531409346911051,-18.236635,-18.858528,9.5492735,5.000412,-7.959843,-2.79412871409346911052,-4.7255554,-8.883087,4.1054573,4.937308,-7.9651012,-2.88973831409346911056,-7.217321,-8.900445,3.1094694,-3.4620366,-8.654782,3.0462161409346911077,-3.6709096,-7.144298,4.9135003,-3.7605824,-8.551062,2.98458741409346911078,-0.36272156,-6.873753,3.1334114,-3.80966,-8.482915,3.1140061409346911100,1.6861166,-8.6095495,0.8810662,-3.6190808,-8.532614,3.20423871409346911101,4.2221746,-13.959393,0.024540568,-3.1663353,-8.724412,3.1669141409346911105,6.455366,-19.592352,0.33039984,-2.3716402,-9.064714,2.89425131409346911126,6.4840965,-19.32839,-0.8038532,-1.422407,-9.378374,2.4886241409346911127,2.814384,-14.712968,0.90859956,-0.6794443,-9.565985,2.04955581409346911144,0.7727286,-12.265495,2.2451627,-0.3781096,-9.6138525,1.89769771409346911163,1.5251064,-9.996989,0.20470424,-0.2882743,-9.621229,1.87596111409346911163,3.7535098,-8.279149,-2.9921536,-0.14963643,-9.655135,1.7106671409346911165,4.2544966,-7.952341,-2.6569653,0.16370688,-9.710379,1.36094181409346911177,4.326921,-7.4375877,-2.598906,0.51238704,-9.733499,1.08021409346911193,4.2413282,-7.813477,-2.202067,0.8689398,-9.736766,0.78148181409346911217,3.810372,-8.915408,-3.283049,1.2071358,-9.718802,0.50802141409346911218,3.1112652,-10.201095,-4.529231,1.4711008,-9.694347,0.160993111409346911219,2.7156234,-10.740988,-5.1660886,1.6486373,-9.663187,-0.274208581409346911226,2.8311436,-10.231023,-4.662708,1.7645466,-9.619304,-0.725094141409346911246,3.0699651,-9.368511,-3.5553896,1.8701141,-9.564505,-1.09237611409346911247,2.980781,-8.767567,-2.3983915,1.9803863,-9.510049,-1.34440621409346911258,2.622848,-8.437167,-1.3341689,2.0786488,-9.467829,-1.48654961409346911273,2.2200236,-8.528147,-0.6063316,2.1594493,-9.443734,-1.52416251409346911277,2.131438,-9.027936,-0.35194764,2.2117698,-9.438638,-1.48006561409346911301,1.9261353,-10.036493,-0.30765492,2.2356143,-9.446062,-1.39440271409346911302,1.4065934,-11.440094,-0.6206968,2.2293425,-9.46262,-1.28812851409346911306,0.7769185,-12.569559,-1.0654198,2.1445014,-9.493832,-1.19945421409346911328,0.21906945,-12.70124,-1.2378023,1.990524,-9.534004,-1.14497091409346911328,-0.11851298,-11.555614,-1.0289081,1.8010132,-9.576139,-1.1064661409346911337,-0.581791,-10.408194,-1.2862848,1.6100428,-9.615644,-1.05715931409346911360,-0.9696517,-10.086772,-2.806603,1.4043645,-9.649325,-1.04339331409346911361,-0.4441244,-9.59177,-4.540005,1.1835002,-9.662568,-1.18511461409346911379,-0.20410569,-9.106346,-4.39336,1.0237309,-9.64235,-1.46542221409346911380,-0.30406362,-9.150639,-4.135385,0.89559436,-9.606008,-1.75866851409346911385,-1.0313023,-9.452907,-5.1301756,0.7876056,-9.555816,-2.05825541409346911411,-2.3241713,-9.238028,-5.2678423,0.64545816,-9.481938,-2.41798191409346911412,-2.0326772,-8.629301,-4.519056,0.40196094,-9.410156,-2.73089461409346911417,-1.9829975,-8.877101,-2.8886044,0.19032289,-9.354605,-2.93693141409346911425,-2.130241,-9.435549,-1.5993267,-0.025967238,-9.349749,-2.9583661409346911441,-1.9135658,-9.76116,-0.5614403,-0.24841566,-9.38155,-2.84521411409346911464,-2.4624364,-10.459669,-0.24600422,-0.42405543,-9.435273,-2.63935781409346911465,-2.7670987,-11.273099,-0.060453594,-0.6433261,-9.485135,-2.40597871409346911466,-2.4995465,-11.707646,0.08798691,-0.85396254,-9.526143,-2.1665151409346911478,-1.9913772,-11.7268,0.14784196,-1.0093523,-9.559398,-1.94151991409346911494,-1.3844471,-11.420342,0.45968673,-1.0987022,-9.586676,-1.74897021409346911499,-1.0103531,-11.168951,1.3204023,-1.1165715,-9.616587,-1.56362881409346911505,-1.1833342,-11.191696,2.813187,-1.0910814,-9.656217,-1.31810331409346911525,-1.3617022,-11.101913,4.097078,-1.0754466,-9.698598,-0.975205241409346911526,-1.2318168,-10.9822035,4.6896424,-1.0741637,-9.731693,-0.55743811409346911538,-0.79607207,-10.767922,4.8763905,-1.073383,-9.746748,-0.138320091409346911560,-0.62728083,-10.655395,4.8919525,-1.0530246,-9.746848,0.245992541409346911561,-0.7870938,-10.706271,4.4143095,-1.0306313,-9.733409,0.6073791409346911574,-1.316811,-11.191696,3.915717,-1.020086,-9.709967,0.91997961409346911578,-2.047641,-12.035053,3.4302924,-1.0463097,-9.678778,1.18188931409346911596,-2.2637177,-12.285846,3.7187939,-1.1299369,-9.64911,1.33727971409346911599,-1.6537948,-11.413159,3.5140896,-1.218908,-9.607507,1.54287061409346911606,-2.1703439,-11.760319,-2.1841104,-1.266317,-9.568001,1.73787771409346911626,-2.991555,-13.210607,-3.031658,-1.3159678,-9.6100645,1.44404391409346911626,-3.3734303,-14.061745,-3.3022027,-1.389365,-9.646758,1.0863241409346911639,-3.696049,-14.174273,-3.0304608,-1.4684888,-9.668429,0.73171621409346911659,-4.143166,-13.838486,-2.094328,-1.5732857,-9.669391,0.445067261409346911660,-4.767454,-13.318944,-1.435324,-1.7149259,-9.651792,0.269023271409346911677,-5.4366336,-12.517485,-2.930503,-1.8969226,-9.620679,0.120945181409346911679,-5.2582655,-12.710816,-1.3443443,-2.120318,-9.57378,-0.131852361409346911686,-5.109226,-14.290391,1.4993688,-2.3017747,-9.529969,-0.227767141409346911716,-4.8309007,-15.6790285,6.045359,-2.425905,-9.501303,-0.103000941409346911717,-4.4861355,-16.865953,9.883863,-2.4879365,-9.480192,0.32641341409346911717,-2.92751,-16.940174,12.467207,-2.5022316,-9.431673,0.97609781409346911726,-0.7278373,-14.807539,5.963358,-2.428975,-9.3454,1.71288061409346911739,-0.31663316,-12.723387,-0.64942724,-2.280382,-9.340589,1.92967931409346911756,-1.347337,-12.069769,-3.1124623,-2.1803606,-9.38975,1.8025131409346911758,-1.91596,-12.437878,-4.9655743,-2.1481152,-9.440933,1.55717561409346911775,-1.299453,-12.184691,-6.0968347,-2.102447,-9.508951,1.1532331409346911789,-0.52253455,-10.766127,-6.751649,-2.0268497,-9.575323,0.61274321409346911790,-0.33877954,-11.564592,-5.9346275,-1.9419477,-9.612397,0.032707511409346911806,-0.23762453,-12.78384,-5.0960584,-1.8215017,-9.627155,-0.412757221409346911806,0.50278234,-14.945206,-4.6363716,-1.688817,-9.633238,-0.72043321409346911823,2.0937295,-18.334198,-2.4660277,-1.4906969,-9.64466,-0.96370711409346911826,3.845088,-19.608511,1.851915,-1.1957012,-9.6828785,-0.991242771409346911839,5.6120086,-19.608511,4.174889,-0.8114453,-9.746215,-0.723337651409346911856,6.1662664,-19.253572,2.1051018,-0.35403207,-9.794125,-0.346671409346911859,5.183447,-15.537172,-0.6703765,0.081165835,-9.805246,-0.144629421409346911870,4.1982327,-12.410344,-3.0029275,0.41293287,-9.79712,-0.127750771409346911891,3.4500446,-10.726623,-3.928885,0.6663066,-9.780187,-0.27271981409346911891,2.2649148,-10.042479,-4.701015,0.8487129,-9.757666,-0.48787941409346911902,1.4143747,-9.304466,-5.2026005,0.9502394,-9.730826,-0.76056761409346911906,2.0362685,-8.56825,-2.996942,0.98962224,-9.698211,-1.0657121409346911922,1.8914193,-9.1512375,-3.6774938,1.0664034,-9.672525,-1.21466221409346911926,1.0534488,-10.0029745,-5.817312,1.1148945,-9.641255,-1.40484931409346911940,1.2617443,-7.089231,-5.7095723,1.0972743,-9.589475,-1.73446641409346911956,0.92535895,-4.619612,-5.183447,1.1280036,-9.514014,-2.09320931409346911957,0.56323594,-4.249708,-5.1289787,1.1571004,-9.429082,-2.43390941409346911973,1.0600328,-4.450821,-2.955642,1.1526072,-9.328356,-2.79708531409346911989,1.9422961,-4.289212,-0.18136078,1.1953993,-9.270921,-2.96503641409346911989,2.2134395,-3.912724,0.2885013,1.3166353,-9.282534,-2.8760121409346912008,2.504335,-3.5302503,-0.34596214,1.467874,-9.301698,-2.73754531409346912009,2.5929205,-2.8832173,-0.7266402,1.6684705,-9.290435,-2.65977621409346912024,2.7964275,-2.4678235,-1.6597804,1.9162773,-9.249197,-2.63640711409346912026,3.300407,-2.3133974,-2.552219,2.1973069,-9.157973,-2.7338241409346912040,4.098873,-2.2499511,-2.8401217,2.531002,-9.006899,-2.93941931409346912054,5.365406,-2.247557,-3.5613751,2.9614575,-8.793651,-3.17361781409346912058,5.6640825,-2.4911668,-3.7792473,3.5271564,-8.46713,-3.46948171409346912077,5.6305637,-2.8808231,-4.156334,4.066425,-8.098154,-3.74893521409346912078,5.433042,-3.5116954,-4.045004,4.515015,-7.7203403,-4.02260831409346912090,4.785411,-4.6830587,-3.2441432,4.856728,-7.400289,-4.22117331409346912107,3.6780925,-6.9479733,-0.6985083,5.049767,-7.2453527,-4.2632271409346912108,0.8319851,-11.781268,8.954913,5.056687,-7.430085,-3.92353531409346912126,-14.593857,-19.463663,19.608511,4.661484,-8.318801,-2.28876971409346912127,-19.60911,-19.608511,16.423027,4.7409854,-8.210817,-2.50519131409346912139,-19.60911,-19.608511,15.780782,4.827038,-8.084619,-2.74026081409346912166,-15.771804,-18.433558,9.411607,4.8489146,-8.020901,-2.88505741409346912167,-4.701015,-8.531139,3.6008794,4.759107,-8.027437,-3.01356581409346912167,-5.868787,-7.053318,3.0382419,-3.3338697,-8.584376,3.3710811409346912195,-4.1186256,-7.2472486,4.7896004,-3.6398115,-8.489053,3.29517081409346912196,-0.42916065,-8.237849,2.541445,-3.7457778,-8.410384,3.37712431409346912198,2.4582467,-12.339716,-0.5279215,-3.4944384,-8.527201,3.35352731409346912206,5.8023477,-19.355923,-1.8608932,-2.9297974,-8.843744,3.06183961409346912228,5.6640825,-19.608511,-0.76195467,-1.9675905,-9.261126,2.55549241409346912229,1.2264298,-18.324022,4.0252514,-1.1677598,-9.496394,2.15063431409346912239,-4.2957964,-12.121244,9.489418,-0.8715844,-9.523964,2.16906831409346912254,-0.8343793,-8.5299425,-2.0512323,-1.0802511,-9.376233,2.66265031409346912257,2.8820202,-7.299921,-7.3873096,-1.0881646,-9.465364,2.32231551409346912274,4.386776,-6.6588736,-5.861006,-0.82844335,-9.640697,1.5940621409346912288,4.420295,-7.1383123,-2.598906,-0.42411214,-9.740243,1.0574441409346912289,4.561553,-6.447585,0.2100912,0.001922483,-9.775467,0.781430361409346912305,4.871602,-5.5324016,0.6488287,0.45564592,-9.769972,0.71444831409346912306,4.7219644,-6.4338183,-0.55605334,0.92924035,-9.738708,0.68153271409346912321,4.197036,-8.145074,-2.2319946,1.3536712,-9.696003,0.570531961409346912338,3.5631707,-9.549872,-3.5625722,1.688464,-9.655088,0.314279881409346912339,3.2902317,-10.09156,-3.982156,1.9009129,-9.620451,-0.0618032551409346912354,3.4626143,-9.913791,-3.9438488,2.0608702,-9.576985,-0.4522821409346912358,3.8684313,-9.458893,-3.3967736,2.2049093,-9.521824,-0.802285551409346912376,3.8492777,-9.400234,-2.5396495,2.3657541,-9.455886,-1.07696881409346912378,3.3225534,-9.618107,-1.869273,2.5147033,-9.396037,-1.24946341409346912386,2.5725696,-10.264542,-1.5634137,2.6157496,-9.355447,-1.34307711409346912410,1.8046296,-11.474811,-1.4107834,2.6346903,-9.3433485,-1.38948111409346912410,1.1623849,-12.989741,-1.3239936,2.5535312,-9.365463,-1.39211951409346912418,0.7374141,-13.912107,-1.4526819,2.3742175,-9.417413,-1.3586161409346912433,0.84575176,-12.922704,-1.685518,2.1630363,-9.474447,-1.31396321409346912438,1.067814,-10.638037,-1.520318,1.9842497,-9.517087,-1.28770941409346912451,0.7870938,-8.535928,-1.4580688,1.8743411,-9.543817,-1.25410691409346912470,-0.50996494,-8.522161,-3.2986114,1.7934791,-9.56153,-1.23732191409346912471,-1.1150994,-9.513959,-5.711368,1.6055282,-9.572676,-1.39877261409346912487,-1.2779051,-9.806051,-5.3522377,1.3366534,-9.548155,-1.79345351409346912488,-1.234211,-9.809045,-3.6206315,1.0787402,-9.511346,-2.13096571409346912503,-1.4903905,-9.0429,-5.1541176,0.8514541,-9.479746,-2.36217331409346912506,-2.2026656,-8.948329,-3.804985,0.6510304,-9.403661,-2.70513181409346912529,-2.392406,-9.174581,-1.7178397,0.40684396,-9.37152,-2.85998441409346912529,-2.3756466,-9.414599,-0.60573304,0.15447672,-9.398333,-2.79605771409346912540,-2.0548236,-9.727043,-0.4866215,-0.09877163,-9.449899,-2.6191731409346912550,-1.4670471,-10.262147,-0.30585927,-0.31632587,-9.495938,-2.42846921409346912569,-1.5376761,-11.258734,-0.39923313,-0.45386955,-9.54013,-2.2249341409346912570,-1.6753427,-12.076353,-0.39983168,-0.55660015,-9.576601,-2.03698921409346912587,-1.6394296,-12.381016,-0.23642741,-0.65594345,-9.605954,-1.86165791409346912587,-1.2348095,-12.0967045,-0.015562311,-0.72902477,-9.630987,-1.69794551409346912609,-0.8050503,-11.42932,0.5518635,-0.75831926,-9.654011,-1.54772161409346912609,-0.76315176,-11.215039,1.6328455,-0.7519746,-9.6797285,-1.3812241409346912618,-0.92775315,-11.226412,3.0238767,-0.7416189,-9.7117195,-1.14145091409346912640,-0.9636662,-11.258734,4.4873323,-0.7451427,-9.744977,-0.80657591409346912643,-0.94211835,-11.257536,5.6179943,-0.75197077,-9.770978,-0.36459731409346912657,-1.1378443,-11.335348,6.563704,-0.76509476,-9.776154,0.108901691409346912672,-1.3808558,-11.402985,6.8653736,-0.8033073,-9.755004,0.604130271409346912673,-1.9632454,-12.094909,6.6624646,-0.86778444,-9.708918,1.07435721409346912688,-2.7485435,-12.761095,5.949591,-0.9759552,-9.643185,1.49226771409346912689,-2.2307975,-11.955446,5.3642087,-1.1360446,-9.57002,1.81507491409346912704,-0.78888947,-10.002377,3.110068,-1.2555878,-9.496277,2.10109851409346912707,-0.85173726,-9.890448,-2.0069396,-1.2664064,-9.457721,2.26232961409346912722,-1.7016789,-11.040262,-4.0318356,-1.2265579,-9.529662,1.96252061409346912741,-2.3660698,-12.728175,-3.3842041,-1.2272496,-9.609084,1.52635241409346912741,-2.6880898,-14.009671,-3.0651767,-1.2321886,-9.66398,1.12232231409346912747,-3.1986535,-14.294581,-2.3373394,-1.2629005,-9.694768,0.766121751409346912771,-4.2024226,-14.1425495,-2.765303,-1.353307,-9.6994095,0.510316851409346912772,-5.5976434,-13.574525,-3.7104142,-1.5274857,-9.684169,0.232490081409346912787,-5.6778493,-13.296798,-1.5101427,-1.8004134,-9.639483,-0.0962614041409346912788,-4.9667716,-13.6014595,0.34356794,-2.0423765,-9.58914,-0.217934891409346912803,-4.509479,-14.352641,3.78643,-2.203111,-9.553866,-0.200818341409346912808,-4.5633483,-15.621568,7.8493905,-2.2998571,-9.532731,0.090100541409346912825,-3.845088,-15.95915,12.963405,-2.3670347,-9.493379,0.665796761409346912827,-2.1284454,-15.98369,10.936115,-2.3764243,-9.393825,1.50965961409346912839,-1.3754689,-14.140754,1.8896236,-2.308198,-9.295959,2.10421751409346912858,-1.5921441,-12.756307,-1.3383588,-2.2638576,-9.302236,2.1245571409346912859,-2.2798786,-13.236942,-1.2042835,-2.22485,-9.34791,1.95883171409346912867,-1.9560628,-14.155119,-2.920926,-2.179772,-9.3996525,1.75086721409346912897,-0.95827925,-12.902951,-6.26383,-2.120901,-9.476225,1.36868611409346912898,0.12449849,-11.02889,-7.595605,-2.0356987,-9.561344,0.77911861409346912900,-0.044292733,-11.36348,-7.3819222,-1.903269,-9.61895,0.154164151409346912907,0.073023155,-12.654553,-7.028179,-1.7572149,-9.6405,-0.378646281409346912928,0.96067345,-15.650896,-6.041768,-1.6024396,-9.639986,-0.82053081409346912928,2.545635,-19.090168,-3.3028011,-1.3943969,-9.640572,-1.1337791409346912959,4.2664676,-19.608511,5.4246626,-1.0786972,-9.673934,-1.19238781409346912960,6.277597,-18.3336,2.1829133,-0.6741235,-9.76039,-0.6713691409346912961,5.0906715,-13.955203,-1.4197617,-0.19518998,-9.794812,-0.440385221409346912967,3.1172507,-11.77229,-4.1144357,0.15662074,-9.794774,-0.456384181409346912990,1.567005,-10.331579,-6.319495,0.37372446,-9.778079,-0.64799921409346912991,1.0923545,-9.289502,-5.8502316,0.49272054,-9.742694,-1.00376731409346913001,1.3066356,-8.707113,-4.805163,0.56524736,-9.6992445,-1.33250711409346913034,2.2756886,-8.3150625,-3.4608185,0.6189932,-9.656314,-1.59463361409346913035,1.7016789,-9.3343935,-5.077503,0.73495793,-9.621799,-1.74677361409346913036,1.6795325,-7.6249337,-4.9494133,0.787758,-9.566949,-2.00582031409346913038,1.3922282,-4.6297874,-6.323685,0.85629493,-9.503049,-2.26477861409346913055,1.6675615,-3.4195185,-6.487688,0.93139184,-9.383201,-2.69414571409346913076,2.1266496,-4.1000705,-5.798158,1.0496632,-9.223637,-3.16119741409346913076,1.9728222,-4.5082817,-2.2002714,1.2119621,-9.066716,-3.53499721409346913079,1.0235212,-4.297592,0.2717419,1.3451027,-9.024336,-3.594781409346913087,0.6775591,-3.503914,0.4854244,1.3507749,-9.083378,-3.4406451409346913105,0.5267244,-2.9586349,-0.39504328,1.361776,-9.139858,-3.2831281409346913121,1.3138182,-2.8173769,-0.985214,1.3345292,-9.1625,-3.23079161409346913122,2.497751,-2.6916811,-1.6711528,1.4345144,-9.147627,-3.23009371409346913135,3.3554738,-2.4720132,-2.5510218,1.70988,-9.075077,-3.2999511409346913139,4.5274353,-2.2008698,-2.8269536,2.0996847,-8.925893,-3.47709271409346913155,5.301361,-2.1996727,-3.448249,2.6463475,-8.694674,-3.6837291409346913170,5.8933277,-2.2918496,-3.9600096,3.2662446,-8.365135,-3.94037491409346913170,6.3242836,-2.433706,-4.380192,3.8872147,-7.9626007,-4.20201731409346913187,6.3578024,-2.8802247,-4.771644,4.4719977,-7.500066,-4.4632521409346913187,5.872977,-3.9947255,-4.3023806,4.9399533,-7.0510364,-4.69575831409346913202,5.1002483,-6.063316,-2.1416135,5.240648,-6.7615237,-4.79456231409346913218,3.2010477,-10.35193,3.651756,5.3898907,-6.798115,-4.57221361409346913219,-6.5960255,-18.333,19.119495,5.2582326,-7.4605603,-3.5862841409346913238,-15.286978,-19.608511,16.106993,5.3397694,-7.303765,-3.78315141409346913251,-19.55524,-19.608511,17.435774,5.3983035,-7.151692,-3.98522421409346913251,-19.00637,-19.608511,15.021221,5.4174,-7.065092,-4.11176971409346913271,-8.983045,-14.213777,6.3847375,5.3314266,-7.041659,-4.26161341409346913271,-6.9581485,-8.643068,5.253477,-2.8880455,-8.666804,3.56596181409346913289,-5.189432,-7.9068513,6.0381765,-3.2845404,-8.518794,3.57943061409346913290,-1.4838065,-7.280169,3.5769374,-3.5016842,-8.385929,3.68575671409346913301,0.6392518,-7.33344,0.55246204,-3.3888557,-8.394864,3.76991961409346913324,1.7914615,-7.901464,-0.5410896,-3.084255,-8.545903,3.6912481409346913325,3.6661212,-10.791864,-0.08499416,-2.6767356,-8.772949,3.46999381409346913327,5.097854,-17.237654,-1.0785879,-2.0591574,-9.049581,3.16786121409346913339,4.707599,-18.917187,-3.0148985,-1.2740792,-9.362992,2.62326121409346913355,2.9119477,-17.29691,-1.3706805,-0.65973455,-9.583367,1.97337751409346913370,-1.5999253,-15.02601,5.8424506,-0.3138212,-9.669105,1.6063481409346913371,-2.8862102,-12.7257805,5.0397944,-0.3814535,-9.61959,1.86772351409346913387,0.8888474,-10.332776,-3.2597055,-0.5515354,-9.575954,2.04139141409346913388,2.6120741,-9.920375,-2.6030958,-0.46070495,-9.6603985,1.62321961409346913407,2.7509377,-8.8806925,-0.38307226,-0.23678705,-9.712647,1.33371881409346913408,3.596091,-6.681618,0.49200845,0.001040449,-9.729601,1.22688981409346913421,4.341286,-5.632958,0.40162733,0.33249944,-9.733812,1.14574941409346913438,4.308366,-6.317101,-0.36750996,0.7208739,-9.720245,1.08054361409346913457,3.5775359,-7.6931686,-1.477821,1.0852126,-9.696293,0.987237631409346913459,3.2052376,-8.350976,-1.9734207,1.3720511,-9.678237,0.78714881409346913460,3.283049,-8.189367,-1.6352397,1.6079167,-9.658996,0.537401261409346913468,3.316568,-8.276156,-1.2791022,1.817291,-9.630867,0.337989271409346913490,3.098097,-8.592192,-1.2378023,2.0091922,-9.596863,0.183724581409346913491,2.7365725,-9.004593,-1.5065514,2.1463988,-9.568782,0.0420867471409346913500,2.2822728,-9.731832,-1.7633295,2.2299826,-9.548956,-0.122529821409346913517,1.5729905,-10.992378,-1.9626468,2.255495,-9.539038,-0.299828171409346913519,0.75956047,-12.64737,-2.1051018,2.191177,-9.5467825,-0.47760351409346913532,-0.16819267,-14.161104,-2.3732524,2.030754,-9.572712,-0.640011409346913551,-0.8972271,-14.589068,-2.731784,1.7800602,-9.611563,-0.78719491409346913552,-1.5951369,-12.958616,-2.9586349,1.4865657,-9.648588,-0.93020351409346913572,-2.271499,-10.697892,-3.1681273,1.1865618,-9.677663,-1.0513521409346913573,-2.5833437,-9.13388,-3.6828809,0.86037576,-9.698302,-1.17176941409346913579,-2.381632,-8.392874,-3.7906199,0.5233834,-9.697869,-1.35933081409346913590,-1.804031,-8.172607,-3.1944637,0.22790407,-9.671673,-1.60536841409346913611,-1.5304934,-7.945757,-2.48159,0.025195414,-9.63712,-1.81539761409346913612,-1.7363948,-7.6111674,-2.521693,-0.11758717,-9.608979,-1.95553331409346913620,-2.2870612,-7.5327573,-3.5236664,-0.2701051,-9.582134,-2.06885341409346913634,-2.7216089,-8.067263,-4.353257,-0.46940768,-9.525633,-2.28305361409346913651,-2.581548,-8.646061,-2.6928782,-0.6954029,-9.449667,-2.52796651409346913652,-2.336741,-9.403227,-0.90979666,-0.898937,-9.41907,-2.57748561409346913670,-1.745373,-10.059837,-0.18435353,-1.0731585,-9.434587,-2.45097281409346913671,-1.0468647,-10.556634,0.44472298,-1.166603,-9.472084,-2.2558921409346913685,-0.42197806,-10.92594,1.3545196,-1.1637506,-9.529021,-2.00346161409346913687,-0.36511576,-11.734581,0.3752911,-1.0806553,-9.599861,-1.68677941409346913707,-0.75836337,-12.016499,-0.2621651,-0.9827309,-9.643777,-1.48398541409346913708,-0.7074866,-11.823765,-0.01316811,-0.9250781,-9.667874,-1.35898891409346913721,-0.48841715,-11.620258,0.14305355,-0.8665514,-9.68912,-1.2411541409346913739,-0.25677812,-11.589732,-0.051475335,-0.80639035,-9.707014,-1.13755381409346913740,-0.078410104,-11.451467,-0.12330139,-0.7382687,-9.721198,-1.06003451409346913748,-0.3333926,-11.244369,-0.047285482,-0.6617358,-9.733307,-0.99761111409346913769,-0.5315128,-11.170148,0.16101007,-0.6176546,-9.742092,-0.93837391409346913770,-0.40402153,-11.343728,0.8391677,-0.5986486,-9.750237,-0.86304891409346913783,0.14604631,-11.35091,3.9983168,-0.5744336,-9.761449,-0.744645831409346913789,0.8972271,-10.9187565,8.389881,-0.51158583,-9.786546,-0.363545751409346913806,1.0013748,-11.188105,9.73662,-0.39392072,-9.791973,0.363949921409346913808,-0.3537433,-12.190078,8.995614,-0.28291738,-9.738212,1.12141311409346913819,-0.5243302,-11.655573,9.650429,-0.31943363,-9.64674,1.73458221409346913836,-0.59376204,-9.698911,-0.74519527,-0.41368544,-9.5001545,2.39714551409346913856,-3.7846344,-12.3834095,-4.293402,-0.47149202,-9.523275,2.29244881409346913856,-4.8482585,-14.759056,-5.719149,-0.7155588,-9.617951,1.77577831409346913860,-5.3648076,-14.690223,-7.092224,-0.99258894,-9.677415,1.238071409346913868,-5.145738,-14.013263,-6.0244102,-1.2527584,-9.708853,0.5823841409346913887,-4.964976,-13.7445135,-4.5860934,-1.4955349,-9.691901,0.0285492191409346913888,-6.4882865,-13.773843,-0.6973112,-1.72019,-9.64697,-0.38385321409346913906,-7.356185,-14.790779,2.4522612,-2.027808,-9.584417,-0.44417351409346913910,-7.8637557,-15.813703,6.994062,-2.3218048,-9.524712,-0.243851421409346913920,-8.152257,-16.956335,11.704654,-2.5786338,-9.457643,0.27204351409346913940,-5.899313,-17.124527,14.7955675,-2.5544913,-9.464805,0.24988721409346913940,-2.2481554,-15.358206,5.7365074,-2.5703611,-9.460918,0.23381111409346913948,-0.82599956,-13.132795,-1.4449008,-2.7755911,-9.170178,2.09148481409346913969,-1.1468226,-12.855666,-2.1775265,-2.6999052,-9.234659,1.89788831409346913970,-1.6903064,-13.78342,-4.6405616,-2.6143332,-9.295777,1.71002111409346913985,-0.92535895,-13.571532,-7.7949224,-2.4903517,-9.394605,1.30764831409346914010,-0.002394202,-11.381436,-8.783129,-2.3269236,-9.503261,0.66622931409346914011,0.26994625,-10.831368,-7.387908,-2.1598356,-9.565848,0.0060305131409346914011,0.25019407,-12.050615,-5.481525,-2.0037198,-9.583508,-0.558467451409346914043,0.6488287,-14.003686,-5.0385976,-1.8368065,-9.591506,-0.894157771409346914044,1.6118963,-17.820044,-4.1677065,-1.6460444,-9.601559,-1.1273651409346914044,3.1555579,-19.608511,-0.41359833,-1.3846406,-9.628932,-1.23968151409346914048,5.4803276,-19.608511,3.5703533,-1.0385312,-9.6917925,-1.077511409346914066,7.2370734,-19.582176,2.915539,-0.56913114,-9.766097,-0.68543081409346914068,6.247071,-15.838841,-1.1354501,-0.04952391,-9.798468,-0.39745561409346914082,3.3985693,-12.002133,-4.8261123,0.3659379,-9.791735,-0.398027271409346914099,1.5490485,-10.559627,-6.8905125,0.608364,-9.76615,-0.650083071409346914101,1.2372037,-9.461885,-7.069479,0.73313755,-9.723375,-1.04351591409346914122,2.3277626,-8.413823,-4.5860934,0.7989935,-9.664898,-1.45661221409346914123,3.804985,-7.7667904,-2.983774,0.89513767,-9.615693,-1.7051551409346914128,4.092888,-7.5327573,-4.3239284,1.0843294,-9.571747,-1.83746911409346914157,2.3157916,-6.5984197,-3.2393548,1.3066281,-9.498787,-2.05819271409346914158,0.97384155,-4.5723267,-4.983531,1.4050298,-9.453355,-2.19781761409346914160,1.6005238,-3.7086184,-5.7586536,1.4333323,-9.368176,-2.52055951409346914168,1.6106992,-4.2796354,-3.9360676,1.5063975,-9.241002,-2.91633461409346914191,0.10594343,-4.96737,-2.1511903,1.5837814,-9.15892,-3.12669181409346914191,-0.66618663,-4.9464207,-1.666963,1.5055054,-9.153607,-3.18045781409346914202,-0.6344634,-4.4274774,-1.1073183,1.3157109,-9.172527,-3.20999071409346914221,0.025737667,-3.6816838,-1.074398,1.1348646,-9.201177,-3.19700461409346914221,0.9708488,-3.0017304,-1.7561469,1.0676199,-9.213295,-3.1852471409346914228,2.1817162,-2.5234885,-2.047641,1.131465,-9.177299,-3.26608561409346914253,2.9604304,-2.207454,-2.6198552,1.3670211,-9.099193,-3.39209751409346914254,3.6709096,-1.9315223,-3.38181,1.7142581,-8.95983,-3.59905461409346914262,4.3544545,-2.0578163,-3.6978445,2.1559463,-8.733915,-3.90397791409346914268,5.168483,-2.172738,-3.2561142,2.6705782,-8.441407,-4.21675731409346914286,6.4164605,-2.9406781,-3.6032736,3.2731097,-8.116062,-4.4256851409346914301,6.2650275,-3.945046,-3.34051,3.9384813,-7.730644,-4.57120281409346914301,5.3259015,-5.4922986,-1.7621324,4.450036,-7.440737,-4.5829051409346914317,3.281852,-7.961918,2.332551,4.7611227,-7.384021,-4.35641671409346914334,-0.25498247,-12.6060705,11.385028,4.7928176,-7.7678,-3.58616571409346914335,-7.937377,-18.938734,19.608511,4.246422,-8.699962,-1.5649031409346914351,-18.384476,-19.608511,18.451513,4.327477,-8.615963,-1.79123641409346914352,-19.578585,-19.608511,16.238075,4.399725,-8.533021,-2.00009181409346914371,-14.065336,-19.213469,8.953117,4.425828,-8.482258,-2.15262651409346914371,-10.213066,-13.808558,6.010045,4.378796,-8.466891,-2.30397651409346914381,-8.09719,-11.130045,6.7887588,-3.1438408,-8.529249,3.6794781409346914399,-3.9498343,-10.584765,5.3318872,-3.5027492,-8.379775,3.69871541409346914401,-1.3150153,-9.36073,3.2082303,-3.5359535,-8.364976,3.700621409346914416,0.20649989,-7.2352777,1.5292963,-3.3700907,-8.427671,3.71311521409346914420,2.130241,-6.4427967,0.30765492,-3.1151724,-8.526722,3.70959641409346914435,3.3255463,-11.052833,-2.5677812,-2.7164457,-8.70286,3.61269141409346914448,3.4620156,-16.66963,-5.233725,-2.1587143,-9.043717,3.11793541409346914448,3.7116113,-17.66801,-4.853047,-1.5857763,-9.405104,2.28028661409346914467,1.9357121,-15.4845,-1.513734,-1.0384933,-9.623472,1.57502761409346914468,-0.5859809,-13.530232,0.20949265,-0.72196126,-9.696055,1.27893631409346914483,0.08259996,-12.997522,-0.5967548,-0.6568904,-9.71257,1.18527131409346914496,2.2703018,-11.868058,-3.0765493,-0.5522302,-9.735908,1.03804141409346914502,3.0681696,-11.489774,-3.3063924,-0.32240883,-9.776262,0.70082661409346914517,2.8263552,-10.760739,-1.347337,-0.07132767,-9.799555,0.366125231409346914532,3.846285,-7.577648,0.15502456,0.15367432,-9.803167,0.21142041409346914538,4.9775453,-5.369596,1.0630256,0.4692693,-9.794478,0.135690331409346914551,5.324106,-5.662287,0.760159,0.8709946,-9.766475,0.166493461409346914551,4.394557,-7.6285253,-0.52492875,1.305878,-9.716594,0.229894221409346914569,3.3411086,-8.762778,-2.03148,1.647916,-9.665544,0.179046661409346914569,3.0023289,-8.774749,-2.707842,1.8620616,-9.628237,-0.0131873981409346914581,3.1735144,-8.489241,-2.7509377,2.0087464,-9.595468,-0.249707761409346914596,3.4638114,-8.300697,-2.3852234,2.1479259,-9.556453,-0.480652931409346914600,3.2854433,-8.616732,-1.9273324,2.3048751,-9.508046,-0.674553451409346914616,2.7742813,-9.3583355,-1.7525556,2.4347682,-9.465194,-0.807718631409346914631,2.2062569,-10.453683,-1.7537527,2.501544,-9.437858,-0.916235741409346914632,1.6346412,-11.688493,-1.7340006,2.489805,-9.432296,-1.00153091409346914649,0.94331545,-12.600085,-1.6681601,2.3937707,-9.451227,-1.05572551409346914649,0.23822308,-12.8293295,-1.6633717,2.2193596,-9.490753,-1.08185241409346914665,-0.29388827,-12.465411,-1.5699978,1.9885164,-9.540135,-1.09636141409346914669,-0.6326678,-11.323377,-1.0175357,1.7369976,-9.587832,-1.10756371409346914682,-0.97144735,-9.640253,-0.48602295,1.5040838,-9.632565,-1.05915671409346914697,-1.6651673,-8.896255,-0.98820674,1.2818003,-9.6740265,-0.96983641409346914715,-2.2619221,-8.804078,-2.15538,1.0141063,-9.708309,-0.94377081409346914715,-2.1529858,-8.449737,-2.9095535,0.7059204,-9.725711,-1.04049461409346914733,-1.5245079,-8.787917,-5.9861026,0.41986427,-9.7201805,-1.22971311409346914733,-4.2185836,-9.689334,-5.6138043,0.20088264,-9.652574,-1.71984231409346914748,-3.7463272,-8.950723,-3.8145618,-0.24743265,-9.567603,-2.13778831409346914748,-2.6557682,-8.261193,-1.7411832,-0.57645726,-9.503786,-2.34865331409346914765,-2.6252422,-8.659827,-0.705691,-0.778895,-9.468593,-2.4309371409346914769,-2.4528596,-9.436148,-0.26515785,-0.95677817,-9.471972,-2.35302731409346914783,-2.1092918,-10.286688,-0.15682021,-1.1064517,-9.501982,-2.15835641409346914797,-1.2389994,-10.521918,-0.050278235,-1.2023282,-9.537473,-1.93944371409346914802,-0.6380547,-10.597335,0.079008654,-1.2061121,-9.574512,-1.7448331409346914817,-0.60932434,-10.703279,-0.11552023,-1.1500158,-9.611091,-1.57315591409346914832,-0.7128736,-10.891224,-0.3357868,-1.087966,-9.638371,-1.44517541409346914833,-0.8283938,-11.303625,-0.39444473,-1.0345392,-9.658189,-1.34888831409346914846,-0.96426475,-11.6669445,-0.2705448,-0.98642194,-9.67303,-1.27667071409346914849,-1.1959038,-11.92911,0.005386954,-0.9563456,-9.684965,-1.2071741409346914866,-1.3581109,-12.10269,0.5979519,-0.95859516,-9.694805,-1.12348381409346914882,-1.4891934,-12.325351,1.7525556,-0.9817007,-9.706129,-0.99885211409346914882,-1.2982559,-12.460024,4.27365,-1.0175459,-9.721967,-0.78636261409346914897,-0.4165911,-11.981184,7.307702,-1.0359081,-9.744268,-0.38279931409346914900,-0.16998832,-12.02428,8.628104,-0.97541565,-9.754907,0.246435311409346914919,-0.55126494,-12.652758,8.374918,-0.9119369,-9.723908,0.88564191409346914935,-1.3323733,-12.633005,7.3083005,-0.8948726,-9.664641,1.40153321409346914936,-1.970428,-11.680113,6.3709707,-0.9625571,-9.59427,1.7871381409346914941,-2.4540567,-11.428721,3.1711202,-1.1033511,-9.507921,2.13363651409346914949,-3.8229415,-12.770073,-2.183512,-1.2605995,-9.453507,2.28308491409346914968,-5.227141,-14.194025,-6.4404025,-1.4349227,-9.4848795,2.0367831409346914969,-5.559935,-14.331692,-5.9400144,-1.6236677,-9.564506,1.43328651409346914982,-4.4741645,-14.077308,-1.6699557,-1.8156896,-9.598914,0.857024251409346915003,-4.4478283,-13.6888485,1.0516531,-1.9120892,-9.600227,0.591541409346915004,-4.7548847,-13.815143,0.39444473,-2.0037978,-9.582829,0.5696751409346915009,-6.2075663,-14.800356,2.8281507,-2.1244285,-9.558204,0.54584851409346915042,-7.316082,-16.347012,8.517372,-2.3310785,-9.49866,0.71549431409346915043,-6.3422403,-16.247053,10.78528,-2.5495608,-9.389489,1.22785381409346915044,-3.5565867,-14.565126,4.976947,-2.6910145,-9.253741,1.81579591409346915049,-1.1587936,-12.435484,0.9552865,-2.702593,-9.221923,1.9551221409346915069,-0.75357497,-12.167932,0.2741361,-2.630734,-9.244419,1.94687441409346915070,-1.4431051,-13.106459,-2.3888147,-2.5368059,-9.283916,1.88251591409346915108,-1.283292,-14.452,-7.4136457,-2.1490593,-9.565561,0.227937241409346915109,-0.30286652,-12.805986,-8.798691,-2.1490593,-9.565561,0.227937241409346915110,0.16340427,-11.113286,-7.418434,-2.1490593,-9.565561,0.227937241409346915111,0.12330139,-11.739369,-5.5246205,-1.9881276,-9.597158,-0.335073081409346915148,0.5069722,-13.295002,-4.6273932,-1.8298657,-9.609476,-0.692781409346915149,1.5628152,-16.52538,-4.1575313,-1.6526409,-9.621468,-0.930876261409346915150,2.9269116,-19.535488,-2.010531,-1.3903788,-9.645059,-1.1000381409346915151,5.1984105,-19.608511,3.0005333,-1.0525314,-9.6908245,