time,acc_x,acc_y,acc_z,gravity_x,gravity_y,gravity_z1409522878204,-1.1091139,-10.2896805,-0.7978677,-0.2608163,-9.7678,-0.832125541409522878206,-1.1085154,-10.2178545,-0.8086416,-0.3397899,-9.766474,-0.81912491409522878207,-1.0911574,-10.195109,-0.8487445,-0.41072747,-9.764552,-0.80945471409522878248,-1.0301052,-10.245986,-0.90979666,-0.47220895,-9.762092,-0.80559581409522878249,-0.9044097,-10.240001,-0.91817635,-0.52096593,-9.759364,-0.80858261409522878250,-0.724246,-10.266935,-0.9163807,-0.5539412,-9.757122,-0.813691741409522878250,-0.49919105,-10.336368,-0.92895025,-0.5678107,-9.756026,-0.817275171409522878259,-0.30585927,-10.424355,-1.0289081,-0.5578356,-9.756157,-0.82257031409522878282,-0.14664486,-10.235811,-1.1504139,-0.5323469,-9.75646,-0.83575731409522878283,-0.002992752,-10.114903,-1.1815386,-0.49495998,-9.756262,-0.86066831409522878286,0.09816227,-10.188525,-1.2126632,-0.44627544,-9.756236,-0.88718911409522878315,0.14185645,-10.21546,-1.210269,-0.39170653,-9.756078,-0.914276541409522878316,0.2184709,-10.200497,-1.2162545,-0.33810177,-9.75569,-0.93946261409522878320,0.2717419,-10.211869,-1.2306197,-0.282768,-9.755163,-0.9629191409522878326,0.24899697,-10.298658,-1.2491747,-0.22807547,-9.754541,-0.9835041409522878353,0.2837129,-10.286089,-1.2569559,-0.18125878,-9.753558,-1.00280671409522878354,0.33039984,-10.186729,-1.2210429,-0.1363143,-9.752439,-1.02065421409522878358,0.3878607,-10.044873,-1.210269,-0.09242051,-9.751578,-1.0337151409522878380,0.48482585,-10.0903635,-1.1839328,-0.047853053,-9.750625,-1.04565541409522878381,0.46986207,-10.20289,-1.1713632,0.00154606,-9.74976,-1.05479571409522878386,0.5363012,-10.220847,-1.1480197,0.045251057,-9.748811,-1.06254631409522878416,0.6302736,-10.320805,-1.1468226,0.09084903,-9.747777,-1.06909231409522878416,0.6943185,-10.295067,-1.1097125,0.1410197,-9.746835,-1.07226281409522878418,0.75477207,-10.118495,-1.0223241,0.18979543,-9.745757,-1.07453251409522878426,0.8026561,-9.944916,-0.9864111,0.23983489,-9.745027,-1.07113781409522878454,0.83378077,-9.813234,-0.96546185,0.2898764,-9.744068,-1.06747961409522878454,0.8924387,-9.834184,-0.96067345,0.33975306,-9.742906,-1.06337111409522878458,0.96546185,-9.916783,-0.973243,0.39155048,-9.741459,-1.05879651409522878484,1.06123,-9.73662,-0.91219085,0.44538027,-9.739471,-1.05581691409522878485,1.1312603,-9.651626,-0.8391677,0.5046569,-9.737569,-1.04665951409522878486,1.1432313,-9.672575,-0.75836337,0.56501406,-9.735463,-1.03533391409522878517,1.1546037,-9.661801,-0.7248446,0.6214581,-9.733966,-1.01690331409522878518,1.1528081,-9.750386,-0.7553706,0.67446727,-9.73252,-0.99675921409522878524,1.1665748,-9.853935,-0.7493851,0.7211919,-9.730812,-0.980602441409522878527,1.2252327,-9.947908,-0.705691,0.7637822,-9.729078,-0.965443131409522878568,1.2946646,-10.26514,-0.6218939,0.8080822,-9.727288,-0.947248161409522878569,1.3467385,-10.497377,-0.5021838,0.8523437,-9.726035,-0.92096161409522878570,1.3784616,-10.442909,-0.31603462,0.89364165,-9.725895,-0.88249191409522878571,1.4251486,-10.18254,-0.11911154,0.93648183,-9.726264,-0.832574841409522878578,1.4431051,-9.85633,0.088585466,0.98289376,-9.726894,-0.76929861409522878610,1.477821,-9.594764,0.29747957,1.0312159,-9.727718,-0.69173321409522878610,1.5340848,-9.496002,0.5153519,1.0814947,-9.728344,-0.60007721409522878611,1.5765818,-9.5253315,0.7679402,1.1339736,-9.728333,-0.493991731409522878639,1.5634137,-9.540296,1.0127473,1.1851497,-9.727703,-0.370954251409522878640,1.5035586,-9.6845455,1.1408371,1.2297304,-9.726328,-0.23809741409522878641,1.4335283,-9.759365,1.0977415,1.2610092,-9.724765,-0.096056821409522878664,1.3198037,-9.891046,0.8822633,1.2819091,-9.72245,0.0328103831409522878665,1.1707647,-10.108918,0.59974754,1.2871064,-9.720924,0.131734281409522878666,1.0941502,-10.270527,0.3537433,1.2728362,-9.721799,0.192089381409522878693,1.0313023,-10.38485,-0.008379706,1.2483094,-9.724451,0.21720631409522878694,1.1330559,-10.45907,-0.13946225,1.2170892,-9.728799,0.198846891409522878717,1.1737574,-10.503962,-0.27234045,1.1964108,-9.731965,0.166897651409522878717,1.1534066,-10.542868,-0.40701428,1.2037389,-9.730984,0.171335351409522878718,1.1318588,-10.518327,-0.521936,1.2058421,-9.730744,0.17020491409522878726,1.09834,-10.487801,-0.6434417,1.2050997,-9.730898,0.166559221409522878754,1.0480618,-10.49199,-0.7637503,1.2023867,-9.731323,0.161301881409522878754,1.0181342,-10.462662,-0.84814596,1.1977909,-9.731997,0.154792071409522878758,0.9672575,-10.429143,-0.9020155,1.1930317,-9.732688,0.147833331409522878782,0.92176765,-10.225037,-0.91338795,1.1878732,-9.7334175,0.141179861409522878783,0.85652566,-10.123882,-0.89184016,1.1829393,-9.734095,0.135749071409522878786,0.83737206,-10.114903,-0.93134445,1.1777742,-9.734774,0.13200011409522878817,0.9343372,-10.064626,-0.98341835,1.1747613,-9.735183,0.128594231409522878817,1.0462662,-10.045472,-1.062427,1.1753373,-9.735151,0.125635531409522878818,1.0295067,-10.150817,-1.1150994,1.1776816,-9.734898,0.123447371409522878826,0.9911995,-10.291476,-1.2545617,1.1785843,-9.734785,0.123705151409522878851,0.9463082,-10.335769,-1.3503298,1.1800761,-9.734614,0.122946731409522878851,0.92296475,-10.365696,-1.3856442,1.1827482,-9.7343235,0.120204881409522878860,0.866701,-10.422559,-1.4036007,1.1853473,-9.734056,0.116188491409522878873,0.80564886,-10.405201,-1.335366,1.1866072,-9.733982,0.109303261409522878878,0.7152678,-10.398018,-1.2384008,1.1863462,-9.734127,0.098725311409522878892,0.61112,-10.381857,-1.0947487,1.1828043,-9.734704,0.083192961409522878919,0.55485624,-10.400413,-0.9564836,1.175466,-9.73574,0.063597011409522878920,0.48602295,-10.390237,-0.82719666,1.165505,-9.737062,0.0404091661409522878920,0.4357447,-10.29806,-0.7182605,1.1528862,-9.738636,0.0154772631409522878927,0.40581718,-10.211869,-0.6338649,1.1378078,-9.740417,-0.0098233291409522878953,0.39683893,-10.153211,-0.54049104,1.1217525,-9.742225,-0.0336691921409522878953,0.3489549,-10.094553,-0.47345337,1.1042858,-9.744114,-0.0562907761409522878958,0.30166942,-10.050261,-0.415394,1.0848031,-9.746153,-0.078097531409522878976,0.2669535,-9.990405,-0.36750996,1.0635831,-9.748299,-0.099276371409522878991,0.20949265,-9.943718,-0.30166942,1.0421029,-9.750389,-0.119581341409522878991,0.17357962,-9.956886,-0.26874915,1.020496,-9.752434,-0.137959151409522879008,0.1316811,-9.99639,-0.28491,0.9991373,-9.754414,-0.15348611409522879009,0.130484,-10.07121,-0.25079262,0.97772044,-9.756344,-0.168031051409522879022,0.12808979,-10.159795,-0.2633622,0.9578642,-9.758131,-0.178341581409522879027,0.15083471,-10.274716,-0.2693477,0.93989193,-9.759763,-0.184502871409522879041,0.15562311,-10.408194,-0.2801216,0.923549,-9.76128,-0.186726841409522879074,0.17477672,-10.405799,-0.2813187,0.9074212,-9.762809,-0.185919311409522879076,0.17717093,-10.346542,-0.25198972,0.8914766,-9.764344,-0.182408821409522879076,0.20590134,-10.257359,-0.22685061,0.87480074,-9.765956,-0.17663391409522879078,0.23582886,-10.12448,-0.24660277,0.857683,-9.767603,-0.169399711409522879100,0.2621651,-10.073604,-0.34715924,0.84096277,-9.769185,-0.161908911409522879101,0.32022446,-10.088568,-0.4405331,0.8240119,-9.770733,-0.155508551409522879107,0.42197806,-10.113707,-0.5081693,0.8082231,-9.772158,-0.148649771409522879137,0.4997896,-10.143634,-0.5883751,0.7938798,-9.773464,-0.13984921409522879138,0.64463884,-10.1621895,-0.6404489,0.7807415,-9.774662,-0.129684371409522879139,0.76075757,-10.157401,-0.7212533,0.77030516,-9.77563,-0.118589561409522879184,0.83497787,-10.084976,-0.7870938,0.7624624,-9.776367,-0.108175571409522879184,0.88765025,-9.982025,-0.82121116,0.7569898,-9.776887,-0.099158881409522879185,0.9283517,-9.87668,-0.83497787,0.75331575,-9.777238,-0.092443011409522879186,0.9451111,-9.8515415,-0.842759,0.75242317,-9.777333,-0.089633071409522879187,0.96426475,-9.902418,-0.8487445,0.7538497,-9.777206,-0.091364871409522879217,0.91817635,-9.961076,-0.8331822,0.7583114,-9.776805,-0.097139211409522879218,0.83617496,-9.99639,-0.84455466,0.7645348,-9.776231,-0.105922531409522879220,0.7218518,-10.025121,-0.88944596,0.771438,-9.775561,-0.116894591409522879229,0.5781997,-9.995792,-0.9139865,0.7785668,-9.774831,-0.130028221409522879251,0.29568392,-9.89344,-0.82480246,0.78456664,-9.774155,-0.144000041409522879252,0.24001873,-9.861717,-0.6991069,0.78823245,-9.773641,-0.158129541409522879258,0.22864626,-9.879075,-0.5506664,0.7922613,-9.773049,-0.173922731409522879275,0.18375498,-9.9790325,-0.44532153,0.7970012,-9.77232,-0.192205121409522879291,0.18195933,-10.125677,-0.36990416,0.8007184,-9.771566,-0.213795171409522879291,0.16938977,-10.257359,-0.36272156,0.80228376,-9.770856,-0.23900691409522879309,0.17956513,-10.4249525,-0.31543607,0.8015455,-9.770177,-0.267557141409522879310,0.20410569,-10.566211,-0.26396075,0.7998925,-9.769483,-0.29621541409522879325,0.21906945,-10.553042,-0.20470424,0.79800856,-9.768698,-0.325777441409522879328,0.22744916,-10.457274,-0.12449849,0.7951374,-9.7678795,-0.355931409522879356,0.25318682,-10.420164,-0.015562311,0.7903984,-9.76712,-0.386048081409522879356,0.24959552,-10.34774,0.10175357,0.77483493,-9.765924,-0.44358711409522879358,0.18495208,-10.152613,0.17238252,0.77483493,-9.765924,-0.44358711409522879372,0.05865794,-9.846753,0.2861071,0.76368517,-9.765426,-0.472907161409522879391,-0.11971009,-9.627085,0.4201824,0.7484446,-9.765092,-0.50323481409522879391,-0.25558102,-9.504382,0.59136784,0.73100483,-9.764818,-0.53323921409522879418,-0.19991584,-9.435549,0.7649474,0.7121762,-9.764394,-0.56553461409522879419,0.026934769,-9.420585,0.8595184,0.69337624,-9.763712,-0.5996331409522879420,0.23582886,-9.425373,0.8678981,0.67356944,-9.763078,-0.63165751409522879464,0.41838676,-9.432556,0.6817489,0.6524357,-9.762894,-0.656220261409522879465,0.6194997,-9.51336,0.3405752,0.63267946,-9.763117,-0.672037661409522879466,0.842759,-9.6845455,-0.12569559,0.61746675,-9.763546,-0.679921271409522879468,1.0630256,-9.755175,-0.5883751,0.6081366,-9.764045,-0.68115831409522879469,1.2072762,-9.677961,-0.90021986,0.60294986,-9.764291,-0.682252651409522879507,1.2174516,-9.574412,-1.0426749,0.60332215,-9.764643,-0.676871241409522879508,1.0995371,-9.561244,-1.1127052,0.6077318,-9.764998,-0.667715431409522879509,0.93134445,-9.57142,-1.1971009,0.61418056,-9.7652025,-0.65877121409522879509,0.7846996,-9.715671,-1.2413936,0.6220158,-9.765085,-0.65314451409522879531,0.7044938,-10.007763,-1.2312182,0.63066465,-9.764736,-0.6500741409522879532,0.6410475,-10.165182,-1.1845313,0.6393901,-9.764278,-0.64843451409522879539,0.61171854,-10.155605,-1.0971429,0.64650637,-9.763843,-0.64792471409522879567,0.635062,-10.06283,-1.0169371,0.6527698,-9.763328,-0.649410251409522879568,0.7188591,-9.992201,-0.95827925,0.6572589,-9.762577,-0.656141161409522879569,0.83856916,-9.937733,-0.95468795,0.6609987,-9.761452,-0.66900231409522879603,0.9175778,-9.99639,-1.01574,0.6663573,-9.759751,-0.688193141409522879603,0.93972415,-10.0664215,-1.0528502,0.67417294,-9.757394,-0.71352561409522879604,0.9864111,-10.020332,-1.039682,0.6851997,-9.754402,-0.74332141409522879608,1.0726024,-10.0664215,-1.0384849,0.70031303,-9.750857,-0.775079851409522879646,1.1186907,-10.316615,-1.1085154,0.71803343,-9.747007,-0.80665481409522879647,1.0965444,-10.512939,-1.1737574,0.7394401,-9.742707,-0.838599261409522879648,1.0528502,-10.559627,-1.1414356,0.76377434,-9.738037,-0.87044371409522879649,0.98581254,-10.5285015,-1.1372458,0.7918442,-9.733115,-0.899916771409522879659,0.86610246,-10.436325,-1.1174936,0.8235811,-9.728118,-0.925118571409522879678,0.59615624,-10.259154,-1.0803835,0.85861707,-9.723262,-0.94412461409522879679,0.19692309,-10.104729,-1.1288661,0.89644355,-9.718853,-0.9543141409522879687,-0.14544775,-10.128671,-1.2228385,0.93316555,-9.7148,-0.96033411409522879717,-0.44651863,-10.473435,-1.3988123,0.972102,-9.71125,-0.957609241409522879718,-0.65062433,-11.003153,-1.5759833,1.0088105,-9.708479,-0.947717371409522879719,-0.7966706,-11.296442,-1.5837644,1.0397344,-9.7068,-0.9313361409522879753,-0.86969376,-11.125855,-1.4323312,1.0641557,-9.706462,-0.906944451409522879754,-0.760159,-10.754754,-1.2413936,1.0809876,-9.707488,-0.875512541409522879755,-0.5291186,-10.410587,-1.2623428,1.0909014,-9.709336,-0.842084771409522879786,-0.49320555,-10.126875,-1.5514427,1.0954566,-9.711351,-0.8124211409522879788,-0.7918822,-10.157401,-1.9099745,1.0982497,-9.71311,-0.78725181409522879789,-1.1246762,-10.451289,-1.7531542,1.0930387,-9.715067,-0.770168361409522879790,-1.4682442,-10.845734,0.032920275,1.0815552,-9.717657,-0.75349491409522879812,-1.7842789,-10.306439,0.31364042,1.0596964,-9.722844,-0.71678431409522879813,-1.5753847,-9.78989,-0.13108255,1.0269456,-9.7291,-0.678510551409522879821,-1.1851299,-9.223063,-0.7326257,0.9863968,-9.735594,-0.64470911409522879846,-0.86610246,-8.859145,-1.1492168,0.93916243,-9.742454,-0.610717241409522879848,-1.2485762,-9.045294,-1.5634137,0.8873162,-9.749483,-0.575001961409522879849,-2.1332338,-9.727043,-2.202067,0.8311583,-9.756325,-0.54193671409522879860,-2.0254946,-9.715072,-2.4636335,0.7667817,-9.762428,-0.526700261409522879873,-1.1127052,-9.333796,-2.212841,0.7127654,-9.766204,-0.53258481409522879890,-0.2837129,-9.388862,-1.685518,0.6706331,-9.767309,-0.565968161409522879891,0.29328972,-9.55047,-1.4281414,0.6322963,-9.765849,-0.631501851409522879914,0.58418524,-9.604341,-1.5077485,0.60759413,-9.761048,-0.723283471409522879920,0.6781576,-9.630676,-1.7286136,0.6058485,-9.752561,-0.831200361409522879921,0.92176765,-9.572019,-1.8106151,0.6162322,-9.741592,-0.9444821409522879957,1.1599907,-9.519944,-1.875857,0.6459075,-9.72742,-1.06325341409522879957,1.3150153,-9.489418,-1.9853917,0.68805474,-9.71033,-1.18594661409522879958,1.4933833,-9.531317,-2.272696,0.7351549,-9.6905775,-1.3124931409522879971,1.8082209,-9.548675,-2.4187422,0.78314185,-9.668251,-1.44292661409522879971,1.9722236,-9.689933,-2.3768437,0.83076084,-9.643377,-1.5765541409522879986,1.9303252,-9.846154,-1.8321629,0.87612265,-9.61605,-1.7130031409522879987,1.6645688,-9.861118,-0.99778354,0.9210262,-9.586374,-1.85027661409522880011,1.5747862,-9.831789,-0.3657143,0.95806324,-9.555912,-1.98420081409522880011,1.697489,-10.064027,0.047884032,1.0017627,-9.52416,-2.11121181409522880019,1.6927006,-10.618284,0.14903906,1.0446783,-9.493628,-2.22488331409522880038,1.5759833,-11.240178,0.1448492,1.0840882,-9.466304,-2.32038861409522880039,1.3449428,-11.686697,0.15263036,1.1222166,-9.443172,-2.39531521409522880061,1.1420342,-11.953052,0.260968,1.159892,-9.424195,-2.451451409522880062,0.9307459,-11.976994,0.3477578,1.1951641,-9.40892,-2.49282571409522880067,0.17298107,-12.047623,0.7104794,1.2297791,-9.395044,-2.52808021409522880093,-1.1815386,-12.094909,1.5310919,1.2518139,-9.384831,-2.55505631409522880093,-2.6725276,-11.95784,2.3355439,1.263411,-9.379725,-2.56806331409522880113,-3.7325604,-12.076952,2.4229321,1.267807,-9.379551,-2.5665431409522880114,-4.4424415,-12.771869,2.087744,1.2661338,-9.382752,-2.55563431409522880121,-5.1840453,-13.937845,1.6873137,1.2561775,-9.391179,-2.52945951409522880138,-5.567716,-14.323312,0.35673606,1.2307489,-9.409503,-2.47324091409522880139,-5.795764,-13.942634,-2.2888567,1.1916832,-9.433295,-2.40067671409522880155,-5.333084,-13.141773,-2.7299886,1.150697,-9.450835,-2.35117221409522880171,-5.093664,-12.56896,-1.3820529,1.1049955,-9.467284,-2.30648971409522880171,-5.9412117,-12.509106,-0.5177461,1.063807,-9.480524,-2.27119731409522880187,-7.001843,-12.51569,0.8690952,1.0182248,-9.487042,-2.26487061409522880188,-7.5926123,-12.564172,5.5042696,0.967441,-9.491427,-2.26875471409522880205,-7.132327,-13.154942,10.521319,0.8949039,-9.511361,-2.21439341409522880207,-5.333683,-13.156138,8.501212,0.7831366,-9.5602,-2.03952811409522880222,-3.1621418,-13.06456,3.5332432,0.6845757,-9.599516,-1.88443081409522880237,-3.4596214,-12.5025215,0.35314476,0.5826506,-9.640319,-1.70151661409522880242,-4.022857,-13.101071,-3.376423,0.4498309,-9.685523,-1.46924081409522880257,-2.3133974,-12.521076,-5.00448,0.2932548,-9.719848,-1.26845421409522880269,-1.0019734,-12.410943,-5.0763063,0.13932014,-9.743767,-1.09998971409522880270,-0.40940848,-12.260108,-4.723161,-0.03153167,-9.76074,-0.947287441409522880286,-0.05805939,-12.376825,-3.8744168,-0.21452026,-9.771006,-0.80736451409522880287,0.4333505,-13.846267,-2.071583,-0.40022117,-9.77577,-0.666735771409522880312,2.0284874,-16.479889,0.19931729,-0.5810571,-9.776211,-0.508387271409522880313,5.185242,-19.082985,2.4241292,-0.74196994,-9.773102,-0.326094571409522880319,9.014768,-19.608511,2.493561,-0.84736454,-9.769413,-0.104515171409522880349,10.432136,-18.778921,1.377863,-0.87223893,-9.76684,0.135716631409522880350,8.374918,-16.621147,-0.6895301,-0.83892,-9.763262,0.381163151409522880350,6.3667808,-15.4880905,-5.549161,-0.79580116,-9.754893,0.61575051409522880389,1.4251486,-13.578116,-6.9264255,-0.73884165,-9.746701,0.79140991409522880390,0.004189853,-11.609484,-4.9853263,-0.744158,-9.73293,0.941642761409522880391,-1.3736732,-10.616488,-2.1308396,-0.7815497,-9.7134075,1.09967711409522880392,-1.6747441,-10.526707,-1.3982137,-0.8709986,-9.689204,1.2373751409522880416,-1.1192893,-10.429143,-3.1681273,-1.0070002,-9.662467,1.33905571409522880417,-0.50038815,-10.193314,-2.309806,-1.1614164,-9.633641,1.41932651409522880422,-0.16160862,-9.660006,-1.8740613,-1.3209072,-9.597692,1.5198461409522880445,1.407192,-8.345589,-1.757344,-1.4758809,-9.557943,1.62414971409522880446,2.3331497,-6.9605427,-3.217807,-1.6087989,-9.519721,1.71961331409522880448,2.8275523,-6.0597243,-4.272453,-1.7381262,-9.48187,1.80096131409522880472,3.0107086,-5.3887496,-5.705383,-1.8650599,-9.443783,1.87267771409522880472,2.9753942,-4.6926355,-7.019799,-1.995263,-9.404402,1.93559781409522880490,2.5761611,-4.3783965,-3.4314895,-2.1211812,-9.363677,1.99812921409522880490,1.7411832,-4.0078936,-0.83378077,-2.2401526,-9.313532,2.1000521409522880505,1.2030864,-3.9713821,-0.8379706,-2.3293638,-9.26233,2.2256871409522880520,1.5867572,-3.489549,-1.2228385,-2.3670022,-9.216609,2.37104081409522880521,2.5881321,-2.7694929,-1.4167689,-2.3685718,-9.176586,2.52002531409522880536,3.5805287,-2.5875335,-1.0642227,-2.3680449,-9.138555,2.65510491409522880553,4.4580035,-2.2547395,-1.5053543,-2.3689039,-9.104853,2.76772791409522880553,4.6680946,-2.1619642,-2.3900118,-2.3792768,-9.077038,2.84900381409522880568,4.853047,-2.0207062,-3.5583823,-2.3966594,-9.0570965,2.89748481409522880569,4.953005,-2.0697873,-4.4663835,-2.4155533,-9.048605,2.90830351409522880586,4.833295,-2.1386206,-5.085284,-2.431274,-9.053774,2.87897321409522880588,4.583101,-2.1511903,-4.899135,-2.4333987,-9.07388,2.8131281409522880603,4.1102457,-1.9662381,-4.015076,-2.4225085,-9.100283,2.73618671409522880616,3.6230257,-2.2936451,-3.1681273,-2.3847063,-9.138877,2.63903471409522880619,3.2692823,-3.602675,-2.6360161,-2.3088481,-9.189675,2.52774261409522880635,1.8746599,-6.9342065,-0.29987377,-2.19276,-9.252591,2.39828011409522880639,-3.0699651,-15.0302,12.873024,-2.046377,-9.324096,2.24588161409522880653,-13.266272,-19.608511,19.608511,-1.886755,-9.369215,2.19734741409522880670,-18.947712,-19.608511,14.408306,-1.741325,-9.44486,1.9831241409522880671,-19.60911,-19.608511,6.5708866,-1.661672,-9.482447,1.86881221409522880684,-16.637907,-17.698538,4.669292,-1.6521049,-9.496856,1.80296951409522880688,-8.364143,-10.951677,4.497508,-1.7487105,-9.497043,1.70838481409522880701,-7.293337,-10.228628,4.6004586,-4.092059,-8.602853,2.32731181409522880718,-2.8790276,-8.4826565,4.1383777,-4.2387915,-8.502689,2.4304971409522880721,0.717662,-8.1642275,2.48578,-4.1002655,-8.517278,2.61040021409522880735,4.4286747,-10.948086,1.3946224,-3.7761,-8.632938,2.71731881409522880739,8.367735,-18.090588,-1.1115081,-3.0484028,-8.913109,2.72655771409522880752,8.717887,-16.754025,-2.943671,-1.8891761,-9.336805,2.32926341409522880770,5.2480903,-14.551359,-0.22984336,-0.88756084,-9.599229,1.79929281409522880770,0.33518824,-12.689269,7.791331,-0.32048255,-9.67651,1.55975391409522880784,-0.94570965,-10.347141,3.8540661,-0.2287433,-9.5977335,2.0003961409522880788,0.6206968,-8.948329,-5.2905874,-0.27275252,-9.570618,2.12114641409522880802,1.816002,-7.804499,-7.633912,-0.21074207,-9.679451,1.56020151409522880818,2.4552538,-7.012018,-3.6750996,-0.040204,-9.771362,0.830212531409522880820,3.2052376,-7.530363,-0.5093664,0.20123716,-9.795127,0.43057811409522880834,4.0773253,-7.5602903,0.18674773,0.50151277,-9.788195,0.331850621409522880852,4.3394904,-7.441179,-0.16879122,0.86933196,-9.764204,0.273845881409522880853,3.9653966,-8.24563,-0.8936358,1.2358071,-9.726228,0.209006621409522880867,3.2968156,-9.6923275,-1.8608932,1.5417598,-9.68412,0.105682431409522880868,2.700061,-10.782886,-2.5510218,1.7492695,-9.649057,-0.078408351409522880883,2.4355016,-10.59554,-2.707842,1.8510636,-9.625281,-0.312960621409522880888,2.5234885,-9.28232,-2.1972785,1.8985809,-9.606142,-0.536495271409522880902,2.700061,-8.212111,-1.5945383,1.9562291,-9.583862,-0.70223531409522880918,2.1404164,-8.070255,-1.2779051,2.049663,-9.556564,-0.80085581409522880920,1.6717514,-8.919,-1.5466543,2.0937653,-9.541931,-0.859116261409522880934,0.8218097,-10.808623,-2.0518308,2.083832,-9.535801,-0.946847741409522880951,-0.3537433,-13.161526,-2.1577742,1.9596497,-9.550429,-1.05805891409522880951,-1.2659341,-14.266449,-1.9524715,1.6985657,-9.590819,-1.14082781409522880968,-1.7118542,-13.078925,-1.5693992,1.3706287,-9.638261,-1.18140471409522880969,-1.7280151,-11.076775,-0.94451255,1.0456401,-9.677793,-1.19053551409522880983,-1.9883845,-9.884461,-0.78888947,0.7752201,-9.707504,-1.1549031409522880988,-1.9033904,-9.45171,-1.0205284,0.4959037,-9.73144,-1.10614511409522881001,-1.5759833,-8.836999,-0.89423436,0.25285512,-9.744273,-1.07498551409522881017,-1.1749545,-8.231864,-0.24540567,0.06858049,-9.750705,-1.04374981409522881022,-1.0426749,-8.301894,0.3537433,-0.056689274,-9.75796,-0.974356531409522881036,-1.2018893,-8.597578,-0.30466217,-0.14946254,-9.767484,-0.862753151409522881051,-3.074155,-9.029732,-3.594894,-0.24155016,-9.769083,-0.822849041409522881051,-4.7399206,-9.904813,-6.0088477,-0.51467943,-9.730371,-1.10696641409522881065,-2.9813797,-9.13388,-4.6806645,-0.91594404,-9.633332,-1.59071091409522881068,-1.3461399,-8.900445,-3.958214,-1.1182401,-9.543652,-1.95925661409522881083,-0.75118077,-9.859323,-3.1256304,-1.1451854,-9.472162,-2.2665181409522881088,0.050278235,-10.1544075,-2.5677812,-1.0978508,-9.444877,-2.39987971409522881106,0.6805518,-10.243592,-2.2200236,-0.9691502,-9.455067,-2.41512871409522881109,0.74519527,-10.611102,-1.8746599,-0.7944836,-9.475626,-2.39827061409522881120,0.46806642,-11.13603,-1.4814123,-0.6282801,-9.498453,-2.35691051409522881146,0.20709845,-11.438298,-0.6607997,-0.5067282,-9.526655,-2.27079341409522881147,-0.05925649,-11.487978,0.02932897,-0.4172323,-9.564985,-2.1230631409522881149,-0.031124622,-11.298837,0.40282443,-0.3747297,-9.607856,-1.92849731409522881176,0.19033903,-10.93791,0.712275,-0.3483587,-9.648381,-1.71982881409522881177,0.13347675,-10.934917,0.6853402,-0.31156945,-9.685111,-1.50730111409522881180,-0.12509704,-10.971429,0.6332663,-0.27961716,-9.714003,-1.31542771409522881190,-0.5446809,-11.282676,0.47405192,-0.26165918,-9.73574,-1.1477291409522881207,-0.842759,-11.805809,0.5279215,-0.27425447,-9.750544,-1.01098941409522881209,-0.8242039,-11.7782755,1.2372037,-0.31502047,-9.761672,-0.883695241409522881220,-0.7433996,-10.930728,5.7466826,-0.3539242,-9.774532,-0.709645331409522881244,-0.9187749,-11.502343,12.472593,-0.39792043,-9.797298,-0.158154561409522881245,-1.951873,-12.978369,19.608511,-0.45565674,-9.754135,0.90534291409522881249,-2.516306,-12.245145,11.12406,-0.45153967,-9.782458,0.519643251409522881284,-2.8006175,-11.212646,-2.3319526,-0.7558422,-9.3264,2.93553451409522881284,-2.5384524,-11.0061455,-6.6606693,-0.9535935,-9.381128,2.69360351409522881291,-1.4089876,-11.808203,-9.375694,-1.057082,-9.533706,2.03995541409522881317,-2.5803509,-13.111247,-7.2939353,-1.0430228,-9.675505,1.21124081409522881318,-4.656722,-13.965379,-4.610634,-1.0926857,-9.732674,0.50149631409522881319,-5.0344076,-14.203602,-4.1820717,-1.2968299,-9.720515,0.0145693831409522881344,-5.3504424,-14.168287,-3.7062242,-1.529603,-9.677853,-0.412171131409522881345,-6.299743,-13.898341,0.641646,-1.7788092,-9.617216,-0.71788071409522881345,-7.60578,-14.385561,9.877279,-2.0664382,-9.566198,-0.6229631409522881349,-6.615179,-14.709376,17.838,-2.4008985,-9.506764,0.165864451409522881372,-4.43885,-14.39813,13.36623,-2.3777406,-9.513799,0.0661111409522881372,-4.027047,-13.780426,4.542998,-2.624412,-9.184236,2.22095921409522881382,-3.7666779,-12.98615,-1.5113398,-2.7187808,-9.111549,2.39964411409522881389,-3.6391866,-12.621035,-2.3930047,-2.8019574,-9.138877,2.19096731409522881407,-3.1872811,-13.178285,-1.5370775,-2.8178074,-9.197545,1.90670251409522881409,-2.319383,-12.778453,-3.9785647,-2.7722406,-9.257767,1.66698171409522881420,-2.0667946,-10.512939,-7.415441,-2.7061057,-9.341566,1.25798681409522881447,-1.5885528,-9.610326,-7.331644,-2.6881037,-9.4097395,0.6334731409522881448,-1.3090298,-10.032304,-7.295731,-2.633361,-9.44644,0.0233145321409522881449,-1.1558008,-12.310986,-7.08564,-2.545213,-9.454678,-0.54894381409522881472,3.080739,-19.608511,-2.432509,-2.4136834,-9.450291,-1.01812481409522881472,8.249821,-19.608511,4.325125,-1.9012706,-9.565601,-1.02705311409522881480,13.27106,-19.608511,5.9160724,-1.1104754,-9.726521,-0.57623021409522881507,9.102157,-18.804659,2.7090392,-1.3799239,-9.703218,-0.3373011409522881508,4.1401734,-14.830882,-3.020884,0.55890113,-9.789517,0.152969821409522881509,1.7986441,-12.91193,-6.88752,0.79397976,-9.774451,-0.0091194181409522881520,1.8309658,-10.706271,-6.7839704,0.9229563,-9.7543,-0.41493631409522881544,1.666963,-9.928156,-4.115034,1.0135399,-9.718059,-0.83813311409522881544,1.9033904,-10.052056,-2.1332338,1.029464,-9.690731,-1.09558171409522881549,2.871845,-9.433753,-2.4396915,1.0455662,-9.677285,-1.19470051409522881574,3.120842,-8.247426,-4.0743327,1.1541908,-9.651866,-1.29602851409522881575,1.7142484,-6.5744777,-4.777031,1.2984964,-9.602728,-1.50729611409522881580,1.2419921,-4.055179,-5.543774,1.360622,-9.54703,-1.78137841409522881612,0.9091981,-3.3093853,-5.7335143,1.413554,-9.46096,-2.15928051409522881613,0.29029694,-4.4741645,-5.880758,1.442126,-9.350118,-2.5818491409522881614,-0.14963761,-5.221754,-5.575497,1.4032965,-9.238959,-2.97367981409522881643,-0.42197806,-5.4091,-3.1268275,1.3113056,-9.140164,-3.3027661409522881644,1.0857705,-4.478953,-0.23463176,1.1612185,-9.113674,-3.42971371409522881645,2.1003134,-3.731962,-0.34237084,1.1732161,-9.146232,-3.33773041409522881650,2.4127567,-3.5302503,-1.6496049,1.3193215,-9.149693,-3.2730581409522881684,2.695871,-3.268684,-1.839944,1.5286411,-9.100449,-3.31895691409522881685,2.861071,-2.991555,-1.8166006,1.8007629,-9.027554,-3.38096361409522881687,3.0765493,-2.7659016,-2.030283,2.1064997,-8.940522,-3.435131409522881718,3.3411086,-2.5246856,-2.5145104,2.4222617,-8.820457,-3.53589681409522881719,3.6463692,-2.3265655,-3.2561142,2.7642004,-8.646917,-3.70950341409522881722,4.167108,-2.1811178,-4.032434,3.138457,-8.402605,-3.9644311409522881757,4.4981065,-2.1757307,-4.972757,3.5554745,-8.072065,-4.2861141409522881759,4.8021703,-2.268506,-5.157709,3.9503896,-7.6583953,-4.68121861409522881761,4.7668557,-2.8963854,-4.736928,4.3161383,-7.2318325,-5.02413651409522881762,4.7375264,-4.162918,-4.031237,4.6122494,-6.878883,-5.2515231409522881764,4.7979803,-6.453571,-1.9327193,4.8292727,-6.6877136,-5.30311061409522881770,3.66253,-11.975199,10.281899,4.984749,-6.8046513,-5.0019431409522881796,-5.275025,-19.425955,19.608511,5.029544,-7.857325,-3.02267151409522881797,-17.70931,-19.608511,19.608511,5.1111326,-7.7123923,-3.25048951409522881804,-19.60911,-19.608511,14.064738,5.1717253,-7.5937953,-3.42898371409522881836,-17.050308,-17.627909,3.8391025,5.1787076,-7.5159955,-3.58625221409522881838,-10.933122,-12.37084,3.855862,5.1244373,-7.509554,-3.6765691409522881839,-9.946711,-11.657967,4.957793,-3.3224277,-8.758723,2.90114161409522881864,-3.8283286,-8.746617,5.295376,-3.7968607,-8.6099205,2.76107031409522881866,-1.1354501,-8.771158,3.0478187,-3.8244047,-8.559216,2.87821821409522881868,1.0875661,-7.60578,0.6087258,-3.653578,-8.597271,2.98474071409522881870,3.8869865,-6.599617,0.024540568,-3.2777288,-8.741495,3.00219231409522881895,5.4563856,-9.367912,-1.7399861,-2.6755965,-8.963221,2.94487051409522881896,5.6736593,-12.876616,-3.9025488,-1.9246606,-9.261955,2.58500551409522881901,5.4126916,-12.178107,-3.9737763,-1.1520357,-9.544384,1.93595851409522881926,4.408922,-10.478224,-4.795586,-0.49674484,-9.6967125,1.3774691409522881928,4.0683475,-10.717046,-4.140772,-0.018595396,-9.771823,0.8255271409522881930,3.9306808,-13.211205,-3.50571,0.39016983,-9.792299,0.359220561409522881961,2.7766755,-14.783597,-2.504335,0.7289359,-9.779454,-0.0360749361409522881962,2.4732103,-13.707403,-1.0223241,0.8961288,-9.760605,-0.312921171409522881962,2.8772318,-11.472416,-0.32800564,0.9999881,-9.747275,-0.40129711409522881971,3.064578,-9.745,-0.4429273,1.1392595,-9.729991,-0.446903231409522881993,3.4278982,-8.841188,-0.6781576,1.2852888,-9.710975,-0.464093451409522881994,3.839701,-8.726865,-0.94930094,1.4852192,-9.681517,-0.482435141409522882002,3.7355533,-8.813655,-1.2114661,1.7277372,-9.639107,-0.52246261409522882025,2.9873652,-8.454525,-1.3120226,1.9497602,-9.592877,-0.58782911409522882026,1.963844,-7.41604,-0.97503865,2.0945697,-9.5574665,-0.66183371409522882030,2.0518308,-7.4764934,-1.0372878,2.1463897,-9.5428505,-0.705260161409522882063,2.2212207,-7.9625163,-1.1228806,2.1885395,-9.529367,-0.75622521409522882064,2.2002714,-8.653243,-1.3449428,2.229506,-9.516545,-0.796917861409522882065,2.0009542,-9.519944,-1.4772224,2.2487774,-9.5072565,-0.85174541409522882070,1.2952632,-10.939706,-1.6645688,2.2394907,-9.504197,-0.908462761409522882101,0.005985504,-12.795213,-1.7298107,2.1428084,-9.520412,-0.969796661409522882104,-1.0510546,-13.756484,-1.4269443,1.9058688,-9.565633,-1.01817751409522882133,-1.8794483,-13.459603,-1.1145009,1.5854347,-9.623148,-1.02557751409522882135,-2.368464,-11.999141,-0.89303726,1.2226009,-9.678247,-1.0035821409522882136,-2.380435,-10.483611,-0.5386954,0.87302756,-9.719333,-0.97096921409522882137,-1.8890251,-9.644443,-0.16639702,0.5428464,-9.748564,-0.91718211409522882163,-0.7302315,-9.212888,0.65660983,0.28269437,-9.7663765,-0.84164781409522882164,-0.30047232,-8.960898,1.620276,0.15887597,-9.780028,-0.7043881409522882164,-1.0947487,-9.0081835,1.1486182,0.10267916,-9.793785,-0.49156421409522882169,-2.4690206,-8.653842,-0.60932434,8.51E-04,-9.800862,-0.336899131409522882182,-3.1471782,-8.519767,-1.5879543,-0.203762,-9.797997,-0.357967051409522882196,-2.96881,-8.549096,-3.3237505,-0.47435093,-9.783174,-0.484661581409522882201,-2.5486276,-8.59698,-4.5884876,-0.7091966,-9.746341,-0.822349851409522882220,-2.4241292,-8.748413,-4.4047327,-0.8858596,-9.679026,-1.30466281409522882223,-2.7623103,-8.707711,-3.5464113,-1.0185773,-9.6052065,-1.69496561409522882230,-2.2140381,-8.832211,-3.21661,-1.1776053,-9.544412,-1.92037481409522882255,-1.3371617,-8.776545,-3.241749,-1.2776482,-9.500876,-2.06672981409522882255,-0.74519527,-8.74123,-2.380435,-1.2879499,-9.466754,-2.21182161409522882261,-0.641646,-9.013571,-1.4341269,-1.2394027,-9.45772,-2.2772341409522882288,-0.5943606,-9.31524,-0.86370826,-1.1842332,-9.475153,-2.23370961409522882289,-0.46088383,-9.762358,-0.6344634,-1.1170579,-9.5038805,-2.14448521409522882290,-0.5327099,-10.279505,-0.43275195,-1.043658,-9.539274,-2.02074431409522882301,-0.87448215,-10.998364,-0.39983168,-0.9830767,-9.575979,-1.87205771409522882323,-1.216853,-11.895591,-0.38067806,-0.9580904,-9.606168,-1.72452621409522882324,-1.2515689,-12.510901,-0.34356794,-0.9639506,-9.629969,-1.58268451409522882330,-1.168969,-12.829928,-0.22685061,-0.97076416,-9.649468,-1.45456311409522882362,-1.4449008,-13.265075,-0.061052144,-0.9621664,-9.668243,-1.33030781409522882363,-1.9674352,-14.281413,0.007781155,-0.9817728,-9.681897,-1.21135781409522882364,-1.9716251,-14.496891,3.3943794,-1.0289425,-9.690291,-1.0999641409522882401,-1.2868834,-13.037026,12.633005,-1.074518,-9.720867,-0.72150151409522882405,-2.255338,-13.42788,19.608511,-1.0912136,-9.738939,0.364240651409522882406,-4.619014,-14.037205,12.592902,-1.1090504,-9.743637,-0.0435925871409522882442,-4.525041,-12.363059,-8.647857,-1.4037676,-9.396693,2.42939831409522882442,-3.958214,-12.328343,-11.420342,-1.6559362,-9.506203,1.74939721409522882443,-4.003105,-12.947843,-7.144298,-1.7741004,-9.608322,0.83850821409522882444,-5.5748987,-14.169484,-4.073136,-1.8667895,-9.620747,0.356000871409522882444,-6.976105,-14.777612,-3.0783448,-2.0269668,-9.594883,0.0060976961409522882450,-7.0605006,-14.04319,1.1785458,-2.2751715,-9.534501,-0.295385631409522882477,-7.507618,-14.700398,13.503298,-2.535977,-9.469796,-0.249319371409522882478,-6.149507,-16.567278,17.55728,-2.775381,-9.378015,0.721458851409522882482,-3.4997244,-16.847998,9.783905,-2.765778,-9.381521,0.7126781409522882514,-2.2343888,-15.67005,2.6072857,-2.791971,-9.111321,2.31497931409522882515,-0.9888053,-13.968371,-0.3573346,-2.7009392,-9.121657,2.3813231409522882516,-0.825401,-12.497134,-2.6761189,-2.6076353,-9.187317,2.22796751409522882552,-1.6334441,-11.840525,-4.502895,-2.4783387,-9.294196,1.9094831409522882553,-2.0099323,-10.381259,-8.114548,-2.3921912,-9.395491,1.47396681409522882553,-2.078167,-8.968081,-9.296685,-2.3680644,-9.482572,0.80218191409522882554,-1.5957354,-8.182783,-7.939771,-2.382206,-9.512727,0.05944081409522882561,-1.2707225,-9.280524,-6.232107,-2.3697705,-9.499829,-0.55480391409522882587,-0.8726865,-12.144588,-4.6124296,-2.3156774,-9.479052,-0.977568151409522882588,3.4727895,-19.608511,-0.5638345,-2.1890807,-9.47979,-1.22959351409522882590,7.4603324,-19.608511,5.9202623,-1.6645638,-9.60468,-1.07225081409522882602,9.898229,-19.608511,3.4272997,-0.9265573,-9.750313,-0.49325051409522882627,6.341642,-16.655863,-0.21308395,-1.1468313,-9.735529,-0.27327571409522882628,3.0280666,-13.400347,-4.809353,0.34829468,-9.799192,-0.157808271409522882630,1.774702,-12.103288,-7.401076,0.57952744,-9.780481,-0.420407741409522882658,1.7735049,-10.650007,-5.228338,0.70444185,-9.743618,-0.857949441409522882662,1.5981296,-9.435549,-2.5582044,0.7889871,-9.708443,-1.13754921409522882662,1.6711528,-8.735844,-2.2930467,0.81798023,-9.6894245,-1.27135991409522882692,2.0278888,-8.458116,-3.233968,0.84736913,-9.671585,-1.38303841409522882693,2.2589293,-7.677606,-2.606687,0.9174574,-9.642857,-1.53099821409522882693,1.477821,-5.9250507,-4.5256395,1.0254793,-9.6183605,-1.61428341409522882723,0.32142156,-4.514866,-7.349601,1.0973004,-9.561449,-1.88283281409522882723,1.0289081,-4.537611,-5.8532248,1.0824893,-9.443092,-2.41383581409522882724,1.5221137,-5.3995233,-2.6431987,1.1320587,-9.32864,-2.80451921409522882730,1.3784616,-5.475539,-0.635062,1.2129648,-9.290454,-2.89595651409522882759,1.3215994,-4.9105077,-1.0809821,1.2580221,-9.306905,-2.82299231409522882760,1.283292,-4.485537,-2.0721815,1.2812188,-9.303815,-2.82275441409522882764,1.2557588,-4.3167458,-2.6701334,1.3239137,-9.269409,-2.91474491409522882784,1.2138603,-4.0958805,-2.7084408,1.3926494,-9.215938,-3.04916831409522882785,2.1188686,-3.6110547,-1.4915876,1.4629768,-9.15551,-3.19479511409522882800,3.1064768,-3.0561984,-1.163582,1.6516443,-9.112862,-3.22462961409522882819,3.976769,-2.8000188,-1.7280151,1.9728225,-9.047608,-3.22786551409522882820,4.3754034,-2.7257986,-2.8203697,2.417674,-8.911628,-3.30274751409522882824,4.724957,-2.4492683,-3.4021606,2.8958726,-8.6920595,-3.4974881409522882830,4.8698063,-2.1918917,-3.8097734,3.4050522,-8.400196,-3.74335771409522882854,4.905121,-2.2990322,-4.1701007,3.8954258,-8.048645,-4.0268341409522882855,4.701015,-2.6844985,-4.1581297,4.319596,-7.6670804,-4.32751271409522882862,4.542998,-3.2531216,-3.594894,4.6469536,-7.319653,-4.5824541409522882883,3.6469676,-4.9200845,-1.7286136,4.8959184,-7.0762177,-4.70398951409522882909,2.0171149,-8.115147,2.9125464,4.997318,-7.106838,-4.54863551409522882911,-3.2902317,-15.5838585,14.17128,4.8583198,-7.6666713,-3.71339271409522882912,-16.367361,-19.608511,19.608511,3.748342,-8.986796,-1.16525671409522882913,-19.60911,-19.608511,19.608511,3.8376517,-8.915268,-1.400291409522882932,-17.512388,-19.51454,14.02284,3.8778534,-8.86611,-1.5889381409522882932,-5.975329,-11.395203,4.695628,3.8216903,-8.863807,-1.73147611409522882955,-6.821679,-9.044696,4.256292,-2.9378643,-8.581823,3.72714921409522882956,-3.7421372,-6.275801,4.010886,-3.3139281,-8.486973,3.6276121409522882962,-0.29388827,-6.9144545,3.0759506,-3.4175406,-8.435899,3.6505351409522882989,1.9021933,-9.21229,2.4139538,-3.2337747,-8.495315,3.68004441409522882990,5.685032,-16.46253,1.1073183,-2.7684577,-8.65309,3.69189291409522882991,7.764396,-19.608511,-0.002394202,-1.8167242,-9.021938,3.38740921409522883022,6.007651,-18.600554,-0.10534488,-0.82982004,-9.331635,2.89868191409522883023,1.0660183,-14.177265,8.142081,-0.20405981,-9.481319,2.4966621409522883024,1.3724761,-10.02572,3.3782187,-0.08396511,-9.386113,2.8397571409522883031,2.7581203,-8.517971,-6.9090676,0.036065876,-9.377455,2.86921931409522883059,3.8271315,-7.438186,-7.7584105,0.26740563,-9.570378,2.12291241409522883060,4.4675803,-6.379949,-4.614824,0.5841034,-9.698604,1.32903241409522883064,4.296395,-5.837064,-2.5192988,0.9531436,-9.724053,0.839449171409522883086,4.2281604,-5.897517,-1.7399861,1.3142185,-9.702172,0.557722151409522883087,4.0252514,-6.895301,-1.7657237,1.6700004,-9.656967,0.352833781409522883091,3.733159,-8.743625,-2.505532,1.9801457,-9.603324,0.160006431409522883114,3.5003228,-10.524911,-3.3183637,2.1949449,-9.557409,-0.092442721409522883115,3.116652,-11.319786,-3.899556,2.338852,-9.515023,-0.405596821409522883135,2.7222073,-10.828975,-3.5913026,2.401249,-9.47953,-0.7368081409522883135,2.8580782,-9.677363,-1.9698294,2.4130156,-9.451409,-1.00926711409522883142,2.8089972,-8.236053,-1.5286977,2.4447503,-9.4310665,-1.11738851409522883153,2.5019407,-8.087015,-1.4520833,2.5021212,-9.406154,-1.19751821409522883179,1.9800048,-8.795698,-1.5628152,2.5456245,-9.3852005,-1.26815191409522883179,1.074398,-10.396821,-1.7896658,2.5341299,-9.380132,-1.3272921409522883196,-0.55246204,-12.600085,-2.0667946,2.3936834,-9.408188,-1.38806011409522883196,-2.0213048,-13.888764,-2.0021513,2.0859818,-9.473229,-1.44117151409522883220,-2.5181017,-13.182474,-1.353921,1.656075,-9.553788,-1.4672921409522883220,-1.6496049,-10.872668,-0.40701428,1.2311747,-9.622665,-1.43488261409522883222,-1.2695254,-8.908825,-0.30466217,0.9242177,-9.671719,-1.33195291409522883231,-1.4694413,-8.471883,-1.0366893,0.67377985,-9.705906,-1.22955241409522883255,-1.240795,-8.276156,-1.3437457,0.4361337,-9.724185,-1.19181261409522883256,-1.5041572,-8.420407,-1.7549498,0.26590312,-9.728733,-1.20474821409522883262,-2.8646624,-8.813056,-3.9234982,0.090479024,-9.726541,-1.24763631409522883281,-4.221576,-9.008782,-4.924873,-0.2001634,-9.688744,-1.50284851409522883282,-4.495114,-9.297284,-3.9133227,-0.5901006,-9.611954,-1.85270061409522883296,-4.220978,-9.434352,-3.6804867,-0.9597189,-9.523142,-2.13520721409522883311,-3.775656,-9.837775,-3.751714,-1.2440879,-9.427221,-2.3979521409522883312,-2.8790276,-10.368091,-2.4959552,-1.4459716,-9.350998,-2.57651281409522883327,-1.934515,-10.707469,-1.6298528,-1.5664508,-9.337734,-2.5540791409522883331,-1.1683705,-10.847529,-1.0199299,-1.5977322,-9.361418,-2.44571451409522883347,-0.4938041,-10.980408,-0.49559975,-1.5518984,-9.406096,-2.29942731409522883362,-0.39863458,-11.249755,-0.22804771,-1.4442314,-9.463009,-2.1298021409522883365,-0.84096336,-11.482592,-0.28431144,-1.3206457,-9.516874,-1.96352021409522883378,-1.3359646,-11.65677,-0.08439561,-1.2379756,-9.555913,-1.82272781409522883382,-1.6316484,-11.736377,0.1933318,-1.2072738,-9.58729,-1.67235371409522883394,-1.5658079,-11.613674,0.5189432,-1.2179694,-9.613117,-1.50828471409522883409,-1.5310919,-11.675324,0.6913257,-1.2312261,-9.638024,-1.32775751409522883411,-1.6364368,-12.228385,1.5490485,-1.2521701,-9.658443,-1.14757931409522883427,-1.1899183,-12.923901,7.382521,-1.2782992,-9.681075,-0.90173741409522883431,0.1316811,-12.33792,9.292496,-1.2518598,-9.724841,-0.175204921409522883444,0.6997054,-12.49055,8.759187,-1.12303,-9.72438,0.5879271409522883470,0.7410054,-13.198635,17.158646,-0.98701257,-9.694745,1.09914031409522883471,-1.4766239,-14.825496,18.218678,-0.9039182,-9.521933,2.164741409522883471,-3.2531216,-12.782643,0.3800795,-1.1027044,-9.605349,1.64064221409522883504,-3.8540661,-10.1226845,-11.178528,-1.2336348,-9.274689,2.93745781409522883505,-2.4319103,-10.179547,-11.992557,-1.4067541,-9.456069,2.18498871409522883505,-3.5649664,-13.30398,-9.627684,-1.431357,-9.618967,1.26375441409522883511,-3.9905357,-14.647726,-5.3115363,-1.4721823,-9.689298,0.34723791409522883529,-5.400122,-14.620791,-1.75076,-1.5428632,-9.68295,-0.17454151409522883531,-5.9531827,-14.696209,0.24600422,-1.7561072,-9.642264,-0.336468761409522883548,-5.4881086,-14.132374,4.466982,-2.0017896,-9.59497,-0.315862031409522883563,-5.140351,-14.273632,9.46847,-2.1825535,-9.560667,0.0215650781409522883563,-4.585495,-14.9386215,9.639056,-2.2969587,-9.50705,0.714398261409522883578,-4.011485,-15.361198,7.1849995,-2.3691509,-9.418953,1.35677681409522883583,-3.9612067,-15.425841,4.9308586,-2.4149256,-9.335212,1.78671661409522883611,-4.1341877,-14.788984,2.1643584,-2.4776015,-9.273809,2.00707481409522883612,-3.4213142,-13.403938,1.3150153,-2.5564604,-9.254763,1.99606791409522883613,-3.0502129,-13.175891,0.7422025,-2.5888002,-9.258479,1.93625081409522883642,-2.867655,-12.886192,-2.9550436,-2.5806808,-9.278785,1.8478751409522883643,-1.9315223,-11.602302,-6.7965403,-2.5580218,-9.34374,1.52362781409522883643,-1.276708,-9.408015,-9.363723,-2.5299215,-9.429147,0.92793921409522883679,-0.8643068,-8.671799,-8.580819,-2.4924877,-9.483244,0.161273941409522883680,-0.7870938,-9.287108,-6.7851677,-2.4082282,-9.49308,-0.50223741409522883680,0.110133275,-11.891401,-5.4527946,-2.3116229,-9.482041,-0.95796111409522883705,2.2960393,-18.245014,-2.112883,-2.1302662,-9.490954,-1.24665051409522883706,6.403891,-19.608511,7.092224,-1.7249632,-9.578971,-1.19924371409522883707,10.237008,-19.471443,2.8245595,-1.041003,-9.737477,-0.51791651409522883711,4.8698063,-15.020623,-2.677316,-1.2905078,-9.717736,-0.26568441409522883744,1.5825673,-12.237962,-8.485649,0.17498773,-9.7974,-0.388222071409522883745,0.84455466,-10.341754,-9.970055,0.33843175,-9.760008,-0.893366341409522883745,0.41120413,-9.709086,-6.31351,0.43197045,-9.682244,-1.49596311409522883764,0.8738836,-9.187749,-3.2800562,0.4320254,-9.621116,-1.84875481409522883766,1.70946,-8.449138,-4.4304705,0.43341246,-9.592228,-1.99292541409522883781,1.3814543,-6.509236,-4.8895583,0.4979282,-9.542601,-2.20482181409522883796,0.30406362,-3.9175124,-4.931457,0.54647624,-9.478043,-2.4573231409522883796,-0.26396075,-3.217807,-6.2045736,0.54562956,-9.396085,-2.754321409522883816,1.1617863,-3.5835214,-5.149928,0.51055443,-9.262635,-3.18015051409522883817,2.309806,-3.8630445,-4.820725,0.6277172,-9.145728,-3.48310881409522883831,3.176507,-3.752911,-2.532467,0.8363053,-9.019478,-3.75765871409522883833,2.7856536,-3.4368765,-0.9175778,1.1123086,-8.949522,-3.85217241409522883846,2.719813,-2.7808652,-0.6422446,1.3453616,-8.933766,-3.81421351409522883862,2.8431146,-2.380435,-1.6460136,1.5839438,-8.913625,-3.76945781409522883863,3.1711202,-1.9973627,-2.5803509,1.8495749,-8.834862,-3.83337241409522883878,3.6954503,-1.7106571,-2.7832594,2.1854649,-8.680269,-4.00588271409522883896,4.9428296,-1.2898762,-1.501763,2.5983474,-8.468085,-4.20838931409522883896,4.994903,-1.1438298,-2.1254525,3.2176888,-8.231757,-4.2491241409522883911,5.0344076,-1.1001357,-3.8696284,3.8169467,-7.912742,-4.35773471409522883911,5.241506,-1.050456,-4.9996915,4.335757,-7.4593763,-4.66147331409522883934,5.551555,-0.80205756,-5.007473,4.797237,-6.910282,-5.04033141409522883935,5.3875523,-1.1611878,-4.6920366,5.2399387,-6.3372803,-5.3434341409522883943,4.571728,-2.504335,-4.4861355,5.579771,-5.829713,-5.57234141409522883974,3.122039,-5.088876,-1.8309658,5.715633,-5.5467553,-5.72149371409522883975,-0.16639702,-12.093711,11.601105,5.685053,-5.781632,-5.51573371409522883976,-13.925874,-19.608511,19.608511,5.3806763,-7.4860034,-3.34342431409522884003,-19.604921,-19.608511,17.925987,5.4557104,-7.306635,-3.6081431409522884004,-19.60911,-19.608511,8.80767,5.4874215,-7.185208,-3.79886751409522884004,-12.25951,-16.304514,7.9744873,5.390789,-7.2147923,-3.88027951409522884011,-5.705383,-7.240066,3.590704,-3.3406065,-8.696916,3.06176231409522884058,-5.805341,-4.7884035,4.3101616,-3.6242728,-8.592627,3.0334491409522884058,-1.1773487,-3.390788,4.594473,-3.9077551,-8.425029,3.1493991409522884059,1.7932571,-4.068946,2.5833437,-3.8282719,-8.347028,3.44119881409522884060,3.6727054,-7.33763,0.12629414,-3.4760602,-8.4205,3.63078471409522884063,7.896077,-16.734272,-1.1935096,-2.7760494,-8.726526,3.50879961409522884089,8.190564,-19.608511,-1.127669,-1.4632026,-9.257564,2.88564781409522884091,3.5583823,-18.231846,0.94331545,-0.37048545,-9.539643,2.24240021409522884092,-1.364695,-12.417527,8.368334,0.026667643,-9.614278,1.93270481409522884125,0.6302736,-9.475053,-1.7040731,-0.09803163,-9.497749,2.43998481409522884126,2.9364884,-8.839393,-7.0820484,-0.046663843,-9.575975,2.11397671409522884126,3.4272997,-7.6452847,-5.0020857,0.22546998,-9.709711,1.3568661409522884157,2.9496565,-7.0251865,-2.6246436,0.5351488,-9.757223,0.82500741409522884158,3.1908724,-7.073669,-1.471237,0.79421824,-9.761399,0.50464581409522884158,4.282628,-7.1425023,-1.4173675,1.0628508,-9.744756,0.283692151409522884163,4.9440265,-8.045116,-2.235586,1.4220132,-9.70246,0.102675071409522884182,4.569334,-9.770139,-3.1250317,1.8079265,-9.637383,-0.15057111409522884183,3.7978024,-11.238382,-3.5655649,2.1109397,-9.566109,-0.45152971409522884191,2.96881,-11.655573,-3.352481,2.2899113,-9.50536,-0.758165241409522884220,2.5971103,-10.906187,-2.52289,2.3478997,-9.468289,-1.00461841409522884220,2.3918076,-9.688736,-1.7256209,2.3565836,-9.449439,-1.15108911409522884223,2.2996306,-8.771756,-1.2030864,2.354162,-9.441263,-1.2210021409522884257,2.2296004,-8.322245,-1.0259154,2.366186,-9.434854,-1.24703841409522884258,2.0883424,-8.4587145,-1.1330559,2.385848,-9.429143,-1.2527591409522884259,1.846528,-9.693524,-1.5125369,2.403827,-9.4236,-1.26005971409522884284,-0.41359833,-14.159308,-1.3263878,2.3727772,-9.426595,-1.29601361409522884285,-1.4131776,-14.089278,-1.1216835,2.052294,-9.50649,-1.25903391409522884286,-1.4664485,-12.270284,-0.89184016,1.6856232,-9.584872,-1.20801731409522884292,-1.2449849,-10.726623,-0.7272388,1.3659502,-9.642486,-1.15197921409522884334,-1.3880384,-9.981427,-0.9636662,1.0946424,-9.684506,-1.08741881409522884335,-1.7579426,-9.730635,-1.3186066,0.8538988,-9.7115135,-1.06194251409522884337,-1.7034745,-9.196129,-1.2826935,0.5876161,-9.731461,-1.06009011409522884337,-1.6693572,-8.513183,-1.673547,0.36127487,-9.741587,-1.06834591409522884344,-2.2816741,-7.992444,-1.9973627,0.16067396,-9.739187,-1.13702891409522884371,-3.5571852,-8.1756,-2.3050177,-0.08424012,-9.7239685,-1.26795361409522884371,-3.5482068,-8.555081,-1.9213469,-0.42812285,-9.689419,-1.44991531409522884372,-3.305794,-8.5299425,-1.8046296,-0.7266656,-9.649802,-1.58860961409522884403,-2.9538465,-8.264784,-2.2421699,-0.9803771,-9.6105175,-1.68736861409522884403,-2.5031378,-8.205527,-2.4355016,-1.1822438,-9.568111,-1.79553321409522884404,-2.429516,-8.937555,-2.0769699,-1.3322178,-9.529085,-1.89529591409522884412,-1.9434932,-9.634268,-1.5993267,-1.4450448,-9.50635,-1.92654441409522884428,-1.4101849,-9.907207,-1.3347675,-1.4898043,-9.504764,-1.90009891409522884446,-0.9564836,-9.929353,-1.0139444,-1.4794977,-9.514721,-1.85784091409522884446,-0.92176765,-9.830592,-0.44592008,-1.4282386,-9.534383,-1.796131409522884461,-1.0690111,-9.788693,-0.015562311,-1.3749992,-9.561078,-1.69279591409522884476,-1.2791022,-10.075399,-0.021547815,-1.341073,-9.590072,-1.5499781409522884476,-1.4263457,-10.277709,0.29029694,-1.3194891,-9.612292,-1.4259021409522884492,-1.3940239,-10.421362,0.29747957,-1.3163302,-9.633714,-1.2764141409522884493,-1.4437037,-10.8708725,0.23882163,-1.3143747,-9.651222,-1.13874151409522884508,-1.6328455,-11.592126,0.4225766,-1.3149443,-9.664739,-1.01692571409522884512,-1.9494787,-12.549209,0.90740246,-1.3237175,-9.676033,-0.890275241409522884527,-2.0805612,-13.613431,2.5570073,-1.3496822,-9.685539,-0.734232961409522884543,-1.6496049,-13.915699,5.7999535,-1.3747623,-9.699229,-0.453175781409522884544,-1.0755951,-13.707403,7.5070195,-1.3559605,-9.71216,0.075341051409522884558,0.142455,-13.229161,12.215816,-1.3041803,-9.698311,0.642101051409522884576,0.58119243,-12.975975,19.346346,-1.177041,-9.624181,1.46973321409522884576,-2.5767596,-13.106459,6.045958,-1.268049,-9.671842,1.00890531409522884591,-4.519056,-12.566566,-6.6804214,-1.2129374,-9.289577,2.89878441409522884592,-4.691438,-13.570933,-9.8754835,-1.4427953,-9.412735,2.34289031409522884609,-5.379771,-14.864401,-9.039907,-1.6075739,-9.549938,1.54427241409522884612,-4.955399,-14.648923,-5.8801594,-1.7770699,-9.615392,0.746087551409522884627,-5.7454853,-13.702615,-1.6675615,-1.916068,-9.615992,0.178257111409522884641,-6.4068837,-14.163499,1.7477672,-2.1122718,-9.576422,-0.028947791409522884644,-6.5164185,-15.461156,10.850522,-2.3275976,-9.52635,0.0365942871409522884660,-5.6281695,-16.59541,15.6233635,-2.4879081,-9.45448,0.77040731409522884676,-4.1862617,-15.761628,8.585608,-2.4631376,-9.463791,0.73485061409522884677,-3.1346085,-14.018649,2.7850552,-2.6002123,-9.194592,2.20652751409522884693,-3.3794158,-13.4422455,0.6691794,-2.647721,-9.16165,2.28563381409522884694,-2.8670566,-12.5743475,-0.7715315,-2.677334,-9.184377,2.15626261409522884710,-2.5552118,-11.791444,-2.1948843,-2.6741514,-9.227687,1.9669981409522884713,-2.7299886,-11.73518,-3.870227,-2.642206,-9.291025,1.69292411409522884756,-2.4343045,-10.808623,-6.14831,-2.6284103,-9.356186,1.31286571409522884757,-2.006341,-9.387066,-7.5800424,-2.6256166,-9.416353,0.78024981409522884758,-1.3700819,-9.469068,-7.0491285,-2.6150882,-9.450202,0.159276161409522884759,-0.81043726,-11.131841,-5.479729,-2.5496,-9.461323,-0.39155421409522884798,0.43155485,-14.696209,-4.581305,-2.4217134,-9.471494,-0.772356331409522884798,2.9466639,-19.393633,-2.4462755,-2.1597135,-9.51314,-1.00308631409522884799,6.508039,-19.608511,3.1106665,-1.6917765,-9.606011,-1.01626341409522884799,10.880449,-19.608511,5.627571,-1.0325757,-9.731155,-0.63935651409522884806,9.088389,-18.975246,2.6366146,-1.2594035,-9.717771,-0.38631841409522884813,1.6226702,-12.316971,-7.40347,0.530554,-9.792115,0.058335431409522884862,0.81402856,-10.607511,-7.721899,0.6546306,-9.776732,-0.396720051409522884864,0.5303157,-9.455301,-4.44723,0.6894579,-9.743013,-0.87676631409522884867,0.6781576,-9.276933,-2.6276364,0.6822496,-9.718195,-1.12320461409522884868,1.9554642,-8.830415,-3.3680432,0.6388909,-9.703054,-1.27002051409522884892,1.6765398,-7.3723454,-4.4059296,0.70617783,-9.673445,-1.44780781409522884893,-0.35913026,-5.1840453,-7.5704656,0.77251935,-9.629093,-1.68942551409522884893,-0.943914,-3.6242228,-7.6931686,0.70205843,-9.530067,-2.20347981409522884894,0.7529764,-3.779846,-4.793192,0.6145006,-9.393081,-2.75005631409522884934,1.4921862,-4.258686,-2.658761,0.6829022,-9.294829,-3.0512611409522884935,1.5765818,-4.123414,-2.0847511,0.7785972,-9.243287,-3.18211031409522884937,1.6633717,-3.8720226,-2.594716,0.86346745,-9.209519,-3.2572361409522884938,2.0404584,-3.8804023,-1.5873557,0.9754729,-9.150906,-3.38817761409522884944,2.6437972,-3.4476504,-0.9684546,1.1313887,-9.124647,-3.4104551409522884969,3.0867245,-2.8550856,-1.8142064,1.3824098,-9.102022,-3.37824851409522884970,3.738546,-2.055422,-1.8459295,1.6969398,-9.016903,-3.46211741409522884972,4.1132383,-1.6897079,-2.0530279,2.1203334,-8.882338,-3.5747251409522885004,4.344279,-1.7669208,-2.7611132,2.6175232,-8.692013,-3.71051571409522885004,4.778228,-2.1206641,-3.1908724,3.1159155,-8.436779,-3.90925311409522885005,4.984728,-2.2343888,-3.693056,3.6255207,-8.124266,-4.12580351409522885032,5.052963,-2.260725,-4.3119574,4.10755,-7.763697,-4.36159041409522885033,5.4498014,-2.295441,-4.5298295,4.5260468,-7.360945,-4.63700631409522885033,5.595848,-2.6372132,-4.8997335,4.925729,-6.9305243,-4.88625241409522885063,5.282806,-3.7936125,-4.853047,5.2498984,-6.517117,-5.11235481409522885064,4.9218802,-6.4936733,-2.7982233,5.4279013,-6.2535553,-5.2536981409522885064,1.01574,-14.979921,14.7877865,5.487554,-6.3698697,-5.0479631409522885072,-12.339117,-19.608511,19.608511,5.145011,-7.97694,-2.46326641409522885096,-19.535488,-19.608511,19.384655,5.2387033,-7.832814,-2.71541409522885096,-19.60911,-19.608511,11.918935,5.321695,-7.709701,-2.90008141409522885106,-12.230181,-15.10442,5.879561,5.317931,-7.671608,-3.00606351409522885131,-6.0387754,-9.0016,2.8413188,-2.7264698,-8.81924,3.31025271409522885132,-5.7059813,-7.314286,5.3863554,-3.1162865,-8.760062,3.11776571409522885133,-0.2621651,-6.015432,4.350863,-3.432346,-8.614556,3.19042871409522885144,2.9861681,-8.626308,0.16519992,-3.2838702,-8.616078,3.33912871409522885169,7.313688,-16.048334,-0.19632454,-2.7880883,-8.842148,3.1958391409522885170,9.314043,-19.608511,-0.032920275,-1.7074088,-9.21869,2.87591961409522885172,6.521207,-17.280748,1.5412674,-0.5655261,-9.479892,2.44586131409522885204,-0.57161564,-12.861651,10.562021,0.09615093,-9.549834,2.22751161409522885205,-2.3906105,-9.65821,-0.4225766,0.06436843,-9.390906,2.8243831409522885205,1.0313023,-8.290522,-10.463859,-0.12645167,-9.45882,2.58556221409522885226,3.1256304,-6.5002575,-6.0244102,-0.033039223,-9.6802435,1.56913131409522885226,3.508104,-4.5807066,-2.7994204,0.24212359,-9.757101,0.954331931409522885243,3.0663738,-4.557363,-2.0069396,0.56937927,-9.76776,0.66110221409522885244,3.1172507,-4.8638206,-1.6915035,0.86430156,-9.759222,0.425376741409522885259,3.383007,-5.8987145,-1.9973627,1.1682884,-9.734497,0.212198111409522885279,3.7780502,-7.6051817,-2.6120741,1.4746894,-9.695088,-0.0309872591409522885280,4.0222588,-9.369708,-2.7383683,1.7810832,-9.638339,-0.31707861409522885286,3.9456444,-10.403405,-3.1094694,2.0542147,-9.571444,-0.581442061409522885292,3.6337996,-11.294048,-3.1741128,2.2625732,-9.50482,-0.84235161409522885320,3.3488896,-11.30123,-2.8101943,2.3750353,-9.452893,-1.08277421409522885320,3.1310172,-10.589554,-2.2230163,2.4441423,-9.414309,-1.25195121409522885324,3.0651767,-9.919776,-1.8890251,2.4866078,-9.38889,-1.35495511409522885349,2.9735985,-9.865308,-1.8177977,2.5317874,-9.366714,-1.42307051409522885350,2.6731262,-10.674548,-1.9512744,2.5727067,-9.346442,-1.48175191409522885353,1.7411832,-12.298415,-2.2104468,2.5731218,-9.336669,-1.54143741409522885382,0.36391866,-14.287997,-1.9985598,2.4554338,-9.358317,-1.60098671409522885387,-0.7727286,-12.682086,-0.87208796,2.186346,-9.424949,-1.60018421409522885388,-0.7152678,-10.451887,-0.5009867,1.880314,-9.503716,-1.52124391409522885393,-0.66498953,-9.192537,-0.63087213,1.6178886,-9.567123,-1.42230731409522885420,-0.8182184,-8.652645,-0.8415619,1.3871002,-9.617009,-1.32645141409522885421,-0.98820674,-8.913613,-0.9020155,1.1736811,-9.655214,-1.25287071409522885424,-1.4053963,-9.197326,-0.45010993,0.9695187,-9.684395,-1.20122591409522885449,-2.7311857,-8.868722,-1.8674773,0.7503519,-9.712826,-1.12623051409522885449,-5.0882773,-8.900445,-3.245939,0.4200833,-9.723248,-1.20515061409522885453,-5.121796,-9.26556,-3.4835634,-0.12152824,-9.70507,-1.4025961409522885483,-3.5966895,-8.965687,-2.56419,-0.6205203,-9.647952,-1.64388311409522885484,-2.4839842,-8.444349,-2.2373815,-0.921504,-9.587458,-1.84441911409522885485,-1.5801731,-8.278551,-2.0757728,-1.088931,-9.538205,-2.00180981409522885493,-0.89303726,-9.039907,-1.13964,-1.1513106,-9.514596,-2.07781531409522885513,-0.6159084,-9.491813,-0.8750807,-1.1288103,-9.534257,-1.99852721409522885514,-0.55605334,-9.902418,-0.7068881,-1.068556,-9.564686,-1.8829141409522885526,-0.61052144,-10.408792,-0.59136784,-1.0136197,-9.592909,-1.76608121409522885550,-0.5770026,-10.54586,-0.5141548,-0.94977266,-9.620024,-1.65028681409522885551,-0.55126494,-10.199898,-0.5057751,-0.893115,-9.642354,-1.54847011409522885553,-0.7673417,-9.7641535,-0.37588966,-0.8458187,-9.659033,-1.46903971409522885580,-0.92895025,-9.85633,-0.039504327,-0.8317992,-9.671339,-1.3941671409522885581,-0.9487024,-10.341156,0.017956512,-0.8350429,-9.684729,-1.29582371409522885587,-0.919972,-10.741586,-0.003591303,-0.8386444,-9.6975355,-1.19369591409522885593,-0.99778354,-10.930728,0.09756372,-0.8380405,-9.709096,-1.0961421409522885625,-1.2419921,-11.244369,0.10594343,-0.8417509,-9.719833,-0.993316771409522885626,-1.4826094,-11.884218,0.40880993,-0.86389655,-9.726736,-0.90258521409522885629,-1.6346412,-12.889784,2.8724434,-0.900775,-9.732834,-0.79431091409522885656,-1.3754689,-13.187861,7.678205,-0.94650966,-9.74924,-0.476266151409522885657,-0.74878657,-12.7730665,11.634025,-0.9718527,-9.755952,0.217450441409522885658,-0.8870517,-12.964602,19.348742,-0.95009327,-9.696926,1.11236371409522885678,-2.955642,-13.815741,11.938088,-0.9913063,-9.733128,0.673721971409522885679,-4.630985,-13.27106,-6.4936733,-1.1689183,-9.273247,2.96831921409522885685,-4.305373,-12.689269,-10.36031,-1.4280618,-9.4317665,2.2743851409522885694,-4.0078936,-13.434464,-9.372103,-1.6240833,-9.555525,1.49153131409522885734,-5.1481323,-14.720151,-6.5265937,-1.7229062,-9.6243,0.758175851409522885736,-6.2249246,-14.63396,-5.192425,-1.8612957,-9.626632,0.184221031409522885737,-7.217321,-13.746907,-1.8249803,-2.0689409,-9.581905,-0.277451371409522885738,-8.01878,-13.961188,2.1039047,-2.3652892,-9.507125,-0.436304541409522885768,-7.867347,-15.747862,10.849325,-2.693848,-9.425279,-0.278752951409522885769,-5.130774,-16.61935,16.194979,-2.8996928,-9.354892,0.498173031409522885769,-2.472612,-16.150087,10.336966,-2.8914838,-9.359071,0.46638961409522885773,-1.0773908,-14.984112,4.6166196,-2.7535582,-9.173537,2.1058371409522885789,-0.52732295,-13.582905,0.45429978,-2.6402874,-9.160225,2.2998971409522885808,-0.83497787,-12.376227,-2.5611973,-2.5195293,-9.211734,2.2285181409522885808,-1.3838485,-11.62744,-2.8736405,-2.3893957,-9.311553,1.93808011409522885823,-1.8710686,-10.620679,-5.9890957,-2.2930415,-9.39774,1.61084651409522885826,-1.8525136,-9.376891,-7.587824,-2.2660642,-9.47873,1.09040871409522885842,-1.5089456,-8.560468,-7.7973166,-2.2638562,-9.530958,0.454068151409522885854,-0.8379706,-9.837775,-6.688801,-2.2471254,-9.543912,-0.185933931409522885854,0.060453594,-12.507908,-4.5423994,-2.1562638,-9.541236,-0.69691731409522885870,1.9153614,-17.039534,-2.759916,-1.9725531,-9.5566,-0.975086751409522885873,4.88896,-19.608511,1.1976994,-1.6212916,-9.615988,-1.03661641409522885892,9.333197,-19.608511,5.521029,-1.0728923,-9.716555,-0.7796331409522885907,10.945093,-19.608511,4.5645456,-1.2924227,-9.706459,-0.53359821409522885908,6.1686606,-17.290327,0.84455466,-1.4745822,-9.691644,-0.260849451409522885924,2.4642322,-13.669096,-5.1140146,0.9282615,-9.760994,0.178075911409522885925,1.1994951,-11.836933,-8.590994,1.0543187,-9.748932,-0.130877081409522885939,1.3210008,-8.8364,-3.0777464,1.0376573,-9.727744,-0.681662741409522885956,0.96187055,-7.893683,-3.0466216,1.0225693,-9.713198,-0.882337871409522885957,1.525705,-7.506421,-3.7241807,0.9928359,-9.69614,-1.08145021409522885971,0.35673606,-6.9132576,-7.467515,1.0304639,-9.666378,-1.2921591409522885973,-2.7635074,-6.0166287,-10.163984,0.99903125,-9.593674,-1.77024331409522885990,-2.8054059,-4.554969,-6.173449,0.72152066,-9.462292,-2.47281981409522886012,-0.7433996,-4.338892,-2.7341783,0.46520725,-9.367224,-2.86514161409522886013,0.53450555,-4.0934863,-1.4478935,0.38578796,-9.329247,-2.99778321409522886013,1.2892777,-3.7044287,-2.2062569,0.3882795,-9.315859,-3.0388241409522886025,1.7477672,-3.709217,-2.7551277,0.45513886,-9.276131,-3.14907481409522886051,2.5312698,-3.2866404,-2.6677392,0.5926143,-9.214529,-3.30327771409522886051,3.0496144,-3.095703,-2.3828292,0.84938544,-9.137365,-3.45796371409522886053,3.4105403,-2.9376855,-1.7082629,1.1676757,-9.054721,-3.58035451409522886080,3.719991,-2.5025394,-1.4682442,1.5464897,-8.975501,-3.635811409522886081,4.3119574,-2.0745757,-2.1721394,1.9707477,-8.875214,-3.6765691409522886085,4.589086,-2.071583,-2.6210523,2.4771514,-8.691305,-3.80727051409522886116,4.6058455,-2.212841,-3.2237926,3.0059993,-8.446427,-3.97394511409522886117,4.56275,-2.2499511,-4.132392,3.5010154,-8.148118,-4.185861409522886118,4.5166616,-2.4851813,-4.920683,3.9274085,-7.7868104,-4.48457961409522886159,4.2640734,-2.9484594,-5.1367598,4.2663875,-7.3942285,-4.8263541409522886160,4.27365,-3.5763388,-4.7907977,4.489356,-7.056314,-5.1209861409522886160,4.084508,-4.8883615,-2.8532898,4.662142,-6.790521,-5.32199531409522886161,2.3505075,-9.326612,5.6766524,4.797873,-6.765895,-5.23196841409522886165,-2.9753942,-18.425179,19.273323,4.7688556,-7.5938735,-3.97007561409522886173,-14.95179,-19.608511,19.608511,4.8233457,-7.439803,-4.18987851409522886201,-19.60911,-19.608511,19.608511,4.8776455,-7.2844954,-4.39489751409522886201,-14.342465,-19.217659,13.871407,4.8729043,-7.2026477,-4.53288561409522886205,-6.658275,-11.825561,6.2099605,4.757263,-7.172889,-4.69983961409522886220,-7.1167645,-8.526351,5.662287,-2.5055184,-8.615878,3.95719841409522886226,-5.2923827,-8.264784,5.6802435,-2.9419384,-8.476401,3.95803141409522886246,-1.9363106,-8.450933,3.6343982,-3.189995,-8.373337,3.98516821409522886249,-0.4201824,-9.412206,1.2797008,-3.1159244,-8.397195,3.993561409522886254,2.2152352,-13.297995,1.1899183,-2.8707829,-8.53991,3.87284761409522886278,5.333084,-19.473839,2.5133133,-2.3072634,-8.816232,3.6222891409522886279,4.209605,-19.51873,-0.47285482,-1.471428,-9.12213,3.2851211409522886285,0.10115502,-16.382324,0.51954174,-0.9121264,-9.362717,2.7709121409522886316,-3.0538042,-11.566987,6.10282,-0.773041,-9.452064,2.49625561409522886317,1.4317327,-8.710106,-1.6759412,-0.9198405,-9.368365,2.74918441409522886318,4.8309007,-7.455544,-5.1900306,-0.7523396,-9.466825,2.4461431409522886354,5.08289,-6.4763155,-5.061941,-0.32817602,-9.6105,1.92379281409522886355,4.0306387,-7.2430587,-4.1515455,0.12487609,-9.7008915,1.4309111409522886356,3.8845923,-7.050924,-2.3139958,0.50993836,-9.745671,0.96551151409522886356,5.099051,-6.202778,-1.1917139,0.8668211,-9.745343,0.66882251409522886380,4.9374423,-6.5643024,-0.8607155,1.3169688,-9.707521,0.447272361409522886382,4.0120835,-8.025364,-1.4502877,1.7178824,-9.650493,0.29542061409522886386,3.6314054,-9.48044,-2.2134395,2.0008318,-9.599564,0.12436961409522886409,3.5051112,-10.063428,-2.6779146,2.2016835,-9.555706,-0.1071858261409522886410,3.436278,-9.726444,-2.565387,2.341496,-9.516158,-0.36130291409522886414,3.37762,-9.157223,-2.1092918,2.4513192,-9.477615,-0.579866771409522886450,3.157952,-8.933964,-1.6466122,2.5500264,-9.440275,-0.740917741409522886452,3.0304608,-8.700529,-1.4053963,2.62505,-9.410582,-0.84878541409522886453,2.6605566,-8.859145,-1.5628152,2.6993773,-9.382932,-0.9188791409522886455,1.9865888,-9.889849,-1.9620483,2.7351139,-9.363314,-1.00892511409522886480,0.8230068,-12.182297,-2.3888147,2.6808228,-9.365978,-1.12338911409522886481,-0.7074866,-14.99309,-2.3145945,2.4662368,-9.409375,-1.24567581409522886488,-1.6292542,-15.629948,-1.881244,2.0752888,-9.494397,-1.31148541409522886509,-1.4490906,-11.477204,-1.54845,1.6351746,-9.580679,-1.3065931409522886509,-1.0642227,-10.247782,-1.578976,1.2995842,-9.634109,-1.29052031409522886514,-1.0151415,-9.411008,-1.4646529,1.0580224,-9.6629305,-1.29566471409522886568,-1.555034,-8.884883,-1.407192,0.8392586,-9.687111,-1.27511751409522886569,-2.8167782,-8.400655,-2.3648727,0.60547906,-9.704132,-1.27813371409522886571,-4.5160627,-8.726267,-3.590704,0.28417468,-9.7023735,-1.39769121409522886572,-4.355053,-8.969278,-3.6086605,-0.1712655,-9.665128,-1.65118031409522886574,-2.983774,-8.219893,-2.5258827,-0.5567428,-9.600488,-1.92120841409522886578,-2.1511903,-8.063671,-2.8281507,-0.77183545,-9.550636,-2.0880591409522886615,-1.1803415,-8.546701,-2.7150247,-0.8910528,-9.507586,-2.2321011409522886616,-0.006584055,-8.684967,-1.9656396,-0.93064535,-9.482122,-2.32242251409522886617,0.3645172,-9.166202,-1.5400703,-0.843103,-9.493728,-2.3083981409522886618,0.10115502,-9.745,-1.4574703,-0.7272002,-9.516057,-2.25525981409522886663,0.024540568,-9.709086,-1.3838485,-0.6394336,-9.534265,-2.20438531409522886663,0.022146367,-9.446322,-1.3066356,-0.5531553,-9.55109,-2.15431741409522886663,-0.19871874,-9.383475,-0.90261406,-0.47868192,-9.566486,-2.1032291409522886664,-0.4985925,-9.527127,-0.44232875,-0.44283146,-9.586111,-2.0200921409522886667,-0.4333505,-9.753379,-0.11192893,-0.4455115,-9.612164,-1.89161341409522886676,-0.6123171,-10.162787,-0.026934769,-0.44079527,-9.640583,-1.74220231409522886700,-0.9115923,-10.885837,-0.09995792,-0.45881754,-9.666241,-1.58860521409522886701,-0.9840169,-11.732785,-0.17417817,-0.50058484,-9.686106,-1.44884811409522886705,-1.2437878,-12.76708,-0.26036942,-0.5395374,-9.702027,-1.32285521409522886741,-1.6903064,-13.777433,-0.018555064,-0.5945703,-9.712969,-1.21454571409522886742,-1.9554642,-13.952809,3.1603463,-0.67611474,-9.721494,-1.09808331409522886743,-1.8249803,-13.178285,10.001778,-0.76746464,-9.750206,-0.7175531409522886746,-2.31639,-13.589489,12.729372,-0.85137045,-9.767796,0.189065251409522886754,-2.582745,-14.895526,19.58038,-0.95844334,-9.691814,1.14913711409522886780,-3.5045128,-14.554951,14.60882,-0.97503513,-9.733064,0.69797071409522886781,-5.077503,-11.577163,-6.746262,-1.2825135,-9.232972,3.0459461409522886787,-3.5122938,-9.825804,-12.9005575,-1.6535485,-9.353679,2.43821361409522886803,-2.3989902,-11.426328,-11.442489,-1.8242832,-9.514982,1.51903531409522886805,-3.804985,-14.355035,-8.498219,-1.7858734,-9.625803,0.570050841409522886824,-6.117784,-15.625159,-3.53863,-1.8288989,-9.633887,-0.117130231409522886825,-7.8984714,-15.489886,0.415394,-2.0048463,-9.590134,-0.424681631409522886834,-8.395268,-14.705786,8.924985,-2.3052335,-9.5246,-0.3718651409522886865,-6.976105,-14.073117,14.50946,-2.6108284,-9.448678,0.276463061409522886866,-5.2887917,-14.896723,13.878589,-2.7892804,-9.317389,1.25560031409522886867,-4.1162314,-15.561114,8.709507,-2.8483772,-9.142976,2.1126151409522886892,-2.7060466,-15.10442,2.5552118,-2.8693087,-9.022745,2.5549081409522886893,-2.255338,-14.640543,-0.97743285,-2.8452604,-9.046334,2.49774341409522886894,-2.8215668,-14.769232,-0.6075287,-2.764614,-9.131555,2.26759361409522886919,-3.9205053,-14.200609,-3.8696284,-2.7187254,-9.200988,2.02996091409522886919,-4.586692,-12.229582,-8.733449,-2.730344,-9.278174,1.62206241409522886938,-3.2836475,-11.089344,-8.640674,-2.8312194,-9.341707,0.941879751409522886938,-1.9973627,-10.308235,-6.3111157,-2.8794703,-9.37026,0.277983131409522886953,-1.2797008,-9.743204,-5.221155,-2.8410156,-9.383977,-0.199957641409522886954,-0.8690952,-10.834361,-5.4605756,-2.7483099,-9.397865,-0.54527391409522886969,0.3417723,-14.932636,-5.8478374,-2.6146202,-9.411315,-0.872511151409522886984,2.697667,-19.544468,-3.7337575,-2.340532,-9.448866,-1.18793561409522886986,7.41604,-19.608511,3.6978445,-1.8856328,-9.538544,-1.2770891409522887003,13.608643,-19.608511,6.452972,-1.171993,-9.698085,-0.862542451409522887006,10.186729,-19.037495,3.6421793,-1.4501427,-9.679568,-0.61106891409522887018,5.281609,-14.928446,-3.0226796,0.6356886,-9.786025,-4.58E-041409522887038,2.8149827,-12.720393,-9.820416,1.0099492,-9.753802,-0.1171462241409522887038,2.3223755,-10.612299,-8.356362,1.1285774,-9.715711,-0.70827981409522887051,2.6084828,-9.218874,-1.9147629,1.1978271,-9.659094,-1.1989571409522887054,4.092888,-7.6291237,-4.43885,1.2381469,-9.638894,-1.31495271409522887066,0.8194155,-5.7023897,-10.239402,1.4185219,-9.574804,-1.57521521409522887084,-1.7788919,-3.4278982,-10.856507,1.3875276,-9.448538,-2.2294151409522887087,-1.7142484,-3.8271315,-4.146757,1.1974431,-9.272531,-2.95917531409522887104,-1.0773908,-4.7548847,-1.988983,1.0267521,-9.212574,-3.2007241409522887106,-0.7086837,-5.027225,-2.007538,0.8697265,-9.204597,-3.2694591409522887120,-0.28072014,-4.624999,-3.1358056,0.70671356,-9.202326,-3.3148341409522887136,0.49919105,-4.4023385,-2.8658595,0.60576546,-9.153756,-3.46586661409522887137,1.7369933,-4.1036615,-1.0690111,0.60194594,-9.111952,-3.57496931409522887155,2.3415294,-3.5230677,-2.0386627,0.75832367,-9.12483,-3.51180861409522887157,3.3608606,-2.7072437,-2.3008277,0.9777722,-9.078727,-3.57646161409522887172,4.14975,-1.893215,-2.148796,1.3283088,-8.981942,-3.70549941409522887184,4.461595,-1.4454993,-2.171541,1.8125942,-8.837762,-3.84432821409522887186,5.1080294,-1.1629834,-2.5941176,2.3624258,-8.638293,-3.99615241409522887209,5.242703,-0.90859956,-3.6056678,2.9859784,-8.352857,-4.1814031409522887209,5.353435,-0.7308301,-4.226963,3.5976336,-7.9462094,-4.4816451409522887214,5.195418,-0.7146692,-4.1826706,4.1745324,-7.447253,-4.8251541409522887245,5.016451,-0.79367787,-3.9905357,4.687324,-6.9288864,-5.11761331409522887245,4.784812,-1.1384429,-3.9677908,5.1285315,-6.429534,-5.34131771409522887246,4.595072,-2.0458453,-3.3566709,5.4685564,-5.985433,-5.51723151409522887254,4.3299136,-4.0581717,-2.1140802,5.723301,-5.701764,-5.5591491409522887275,4.0222588,-8.200141,2.2732944,5.861414,-5.755398,-5.35627131409522887276,0.7721301,-17.390284,16.651073,5.908999,-6.432322,-4.4586291409522887286,-12.681488,-19.608511,19.608511,5.9940495,-6.2282124,-4.6315391409522887317,-19.60911,-19.608511,18.740015,6.0979033,-5.983884,-4.81446841409522887318,-19.442116,-19.608511,9.470264,6.1821947,-5.796451,-4.9347761409522887320,-12.700043,-15.781381,5.663484,6.1537538,-5.745999,-5.0284411409522887357,-8.315661,-9.153033,6.2392898,-2.932466,-8.715991,3.40624931409522887358,-4.5202527,-7.0485296,6.0244102,-3.3857694,-8.535975,3.44152241409522887359,0.15682021,-7.393295,3.5182793,-3.5383193,-8.4111,3.59222651409522887360,2.473809,-8.435371,2.2110453,-3.2958527,-8.469845,3.68367481409522887395,3.9474401,-10.894217,3.6715083,-2.8194652,-8.620408,3.72955541409522887396,6.547543,-18.022354,5.2139726,-2.0994387,-8.799362,3.78602391409522887397,6.8091097,-19.53848,2.5558102,-1.1257547,-9.02986,3.65577531409522887400,4.031237,-14.626777,-1.2366052,-0.36078504,-9.238483,3.26965571409522887418,1.352724,-10.533889,0.4961983,-0.013508009,-9.39412,2.81437351409522887418,1.6717514,-10.817003,-0.86131406,0.062340137,-9.447196,2.63001541409522887434,3.1435869,-9.96347,-3.8391025,0.18103725,-9.519584,2.34843061409522887434,3.7936125,-9.481637,-3.9468415,0.44417673,-9.620849,1.84725921409522887453,3.8738184,-9.26556,-4.0054994,0.7503642,-9.679185,1.38589821409522887455,3.626617,-8.622119,-3.321955,1.0448338,-9.704473,0.949697551409522887473,3.3033998,-8.061277,-3.359065,1.3045509,-9.702288,0.578042751409522887474,3.301604,-8.157643,-3.5356374,1.527772,-9.684819,0.20150371409522887486,3.3925838,-8.944139,-3.3201592,1.7358149,-9.650426,-0.163149421409522887503,3.0304608,-10.107721,-3.0867245,1.917157,-9.60616,-0.4653941409522887524,2.5330653,-10.268731,-2.8191724,2.037174,-9.565638,-0.720323261409522887525,2.1697452,-9.640253,-2.469619,2.0946436,-9.5349,-0.931963441409522887527,2.180519,-8.665813,-2.0404584,2.1137898,-9.513354,-1.09469621409522887535,2.304419,-7.94037,-1.6867151,2.139433,-9.494012,-1.20704881409522887561,2.384625,-7.8793178,-1.4203602,2.1862419,-9.473329,-1.28328161409522887562,2.095525,-8.395866,-1.2605472,2.2492332,-9.452129,-1.3298781409522887568,1.6741456,-9.353547,-1.6519991,2.2803366,-9.441732,-1.35060621409522887589,1.2354081,-10.764331,-1.6310499,2.2413375,-9.444769,-1.39397191409522887590,0.12389994,-12.726977,-1.2952632,2.144814,-9.464088,-1.4146331409522887595,-1.2204443,-14.094666,-1.1450269,1.9187355,-9.516763,-1.38565951409522887620,-2.1212628,-13.824719,-1.1821371,1.5757858,-9.588373,-1.3230281409522887621,-2.1930888,-12.0571995,-0.8535329,1.1870675,-9.652466,-1.26141991409522887641,-2.0919337,-9.428367,-1.0061632,0.83823156,-9.698489,-1.18619841409522887642,-1.839944,-8.553286,-1.2611457,0.543757,-9.723404,-1.15332661409522887647,-1.9644425,-7.701548,-1.9566613,0.3163304,-9.732025,-1.16533451409522887667,-2.0290859,-7.147889,-2.753332,0.08592092,-9.726119,-1.25123231409522887668,-2.4241292,-7.3220673,-3.9103298,-0.12604982,-9.69998,-1.43695771409522887686,-2.967613,-8.100183,-3.8187518,-0.35065177,-9.643934,-1.74412681409522887701,-2.8281507,-8.987833,-2.698864,-0.5967419,-9.577937,-2.01926021409522887702,-2.0518308,-9.233837,-1.5041572,-0.8000147,-9.535665,-2.14511011409522887716,-1.2378023,-9.849746,-1.0001777,-0.92319477,-9.527947,-2.1298681409522887716,-1.1558008,-10.569203,-1.0857705,-0.9656226,-9.542488,-2.04423141409522887735,-1.2916719,-10.452486,-1.0115502,-0.98296416,-9.560371,-1.95025321409522887736,-1.3611037,-9.903615,-0.9247604,-1.0087819,-9.575497,-1.86081031409522887751,-1.2054806,-9.52174,-0.3776853,-1.0345383,-9.587664,-1.78237211409522887767,-1.3437457,-9.390059,0.29029694,-1.0434303,-9.606049,-1.67495571409522887767,-1.371279,-9.36492,0.6183026,-1.0695372,-9.629422,-1.51681151409522887783,-1.472434,-9.248202,0.65182143,-1.0993366,-9.652365,-1.33930481409522887787,-1.7926586,-9.399636,0.59136784,-1.1401436,-9.669627,-1.1699381409522887798,-2.179322,-9.976639,0.46986207,-1.2068872,-9.6787615,-1.01755571409522887816,-2.404377,-10.615292,0.42317516,-1.2971843,-9.680093,-0.885173741409522887816,-2.6192567,-11.282077,0.5374983,-1.3900287,-9.677112,-0.76923261409522887834,-2.8532898,-12.004527,0.8798691,-1.4865236,-9.671262,-0.6537231409522887835,-2.9179332,-12.657546,2.441487,-1.5873201,-9.663158,-0.523623761409522887849,-2.719813,-13.038822,4.909311,-1.6755934,-9.658693,-0.269091641409522887867,-2.7162218,-13.428479,4.935048,-1.7318101,-9.651135,0.163736981409522887869,-2.3600843,-13.567941,4.5196543,-1.7747582,-9.632294,0.48940641409522887882,-1.2797008,-12.901754,11.030087,-1.7834036,-9.616781,0.712289041409522887887,-1.6256629,-13.311762,18.302475,-1.729516,-9.549318,1.41056611409522887901,-4.0013094,-13.939641,2.681506,-1.8346696,-9.591889,0.894439641409522887916,-5.4043117,-14.542381,-6.593033,-1.8614638,-9.287734,2.5383751409522887916,-6.0998273,-14.800356,-8.747216,-2.0340102,-9.383058,1.99785091409522887936,-5.101445,-14.71237,-4.6740804,-2.2171276,-9.461485,1.31720861409522887936,-4.2066126,-14.507067,-1.1587936,-2.3044012,-9.493171,0.86012951409522887950,-5.0302176,-14.92665,3.916914,-2.3257017,-9.50148,0.69524831409522887966,-5.466561,-16.49186,13.281834,-2.393756,-9.473906,0.82791521409522887967,-4.6166196,-17.55668,16.64808,-2.418875,-9.367735,1.60155521409522887983,-3.6888664,-17.3005,8.618527,-2.376334,-9.377739,1.6066851409522888002,-3.0681696,-15.434221,1.0827777,-2.394564,-9.090061,2.79414561409522888003,-3.5895069,-13.884574,-2.6970682,-2.4564617,-9.101856,2.70044421409522888018,-4.2024226,-12.590508,-2.6330233,-2.544117,-9.171892,2.36098671409522888018,-4.3873744,-11.257536,-4.981735,-2.6281385,-9.230508,2.0151951409522888034,-4.548983,-10.946889,-8.259995,-2.7178462,-9.292993,1.55692121409522888035,-3.7187939,-10.475829,-8.314464,-2.8479967,-9.344369,0.86143191409522888051,-2.835932,-9.871294,-7.079056,-2.9220352,-9.358884,0.208341291409522888068,-2.284667,-9.584588,-6.0064535,-2.939165,-9.350474,-0.316700551409522888068,-1.6292542,-10.977415,-5.21517,-2.9177332,-9.335854,-0.70646591409522888082,-0.3878607,-15.252262,-4.561553,-2.830078,-9.336757,-0.99297431409522888099,1.5646108,-19.548656,-0.57640404,-2.5827382,-9.386838,-1.17777111409522888100,4.987122,-19.608511,4.731541,-2.1575522,-9.511074,-1.02703921409522888118,9.457097,-19.608511,3.1555579,-1.5497826,-9.667442,-0.555969661409522888126,8.527548,-18.85015,0.006584055,-0.71303326,-9.776735,-0.27820051409522888141,4.8877625,-14.137761,-3.8025908,-0.037117142,-9.803868,-0.230579931409522888150,2.9011738,-11.955446,-7.864354,0.3515265,-9.791277,-0.42153571409522888151,2.2152352,-10.275913,-7.5201874,0.55741996,-9.751434,-0.87702661409522888172,1.9267339,-9.186552,-4.1503487,0.6586182,-9.694125,-1.32685531409522888173,2.4785974,-8.385692,-1.7417817,0.71689594,-9.656125,-1.55425191409522888175,2.1918917,-8.2115135,-7.8888946,0.8317665,-9.641971,-1.58460761409522888198,-1.2150574,-4.301183,-8.162432,0.92038614,-9.544803,-2.0542561409522888199,-0.42317516,-4.091092,-3.8935704,0.78400606,-9.4264555,-2.58798121409522888218,0.8050503,-4.4597993,-2.1164744,0.736127,-9.366754,-2.8093521409522888218,1.3221979,-4.184466,-1.7471687,0.7840157,-9.337317,-2.89312551409522888234,1.7280151,-3.9043443,-1.5245079,0.8440622,-9.312615,-2.95519141409522888235,1.9069817,-3.7373488,-2.5779567,0.94245416,-9.293361,-2.98590091409522888250,1.5023615,-3.366846,-4.234744,1.0808862,-9.2376995,-3.10917951409522888265,1.8525136,-2.9646204,-3.3452983,1.1679624,-9.117013,-3.4185251409522888267,2.3529017,-2.77069,-1.8052281,1.3250161,-9.004862,-3.6506491409522888284,3.436278,-2.2218192,-1.258153,1.5498885,-8.934544,-3.7339191409522888302,4.392163,-1.816002,-1.6693572,1.9300268,-8.843268,-3.77385691409522888302,5.254674,-2.1529858,-2.3989902,2.4478874,-8.677138,-3.8581721409522888316,6.1285577,-2.420538,-3.0071173,3.0632174,-8.424253,-3.97731381409522888317,6.2542534,-2.1272483,-3.7989995,3.7456417,-8.07936,-4.10664031409522888334,6.045958,-1.6747441,-4.209605,4.3692455,-7.6565356,-4.29622171409522888336,5.9531827,-1.6454151,-4.285621,4.8978024,-7.1763277,-4.54777571409522888351,6.051345,-1.4610616,-4.313154,5.353966,-6.6941724,-4.7637721409522888366,5.925649,-2.404377,-4.010288,5.7587996,-6.2016644,-4.95439051409522888367,5.5006785,-5.2061915,-1.6645688,6.0445824,-5.846147,-5.0453941409522888383,3.0573955,-13.703812,14.193426,6.2043667,-5.9157534,-4.762361409522888401,-8.608951,-19.608511,19.608511,6.0776267,-7.357486,-2.25837281409522888401,-19.073408,-19.608511,19.542671,6.1901064,-7.191096,-2.47812561409522888415,-19.60911,-19.608511,14.751874,6.291368,-7.026674,-2.686061409522888416,-14.544775,-16.910845,6.325481,6.3447976,-6.9339447,-2.79898431409522888433,-7.827842,-9.144054,3.2872388,6.280629,-6.8873725,-3.04764341409522888436,-7.0449386,-7.1622543,5.367202,-2.8689272,-8.704968,3.48757171409522888448,-1.8884265,-6.054936,4.8584337,-3.3678575,-8.518298,3.50236081409522888466,2.1883004,-7.145495,2.6940753,-3.3667436,-8.458012,3.6465711409522888469,5.300164,-10.995371,3.5093012,-2.9463847,-8.563636,3.76209331409522888482,8.199542,-18.644247,2.0859482,-2.0798864,-8.790984,3.81615831409522888498,6.5337763,-18.641254,-2.0578163,-0.9852454,-9.131002,3.43867281409522888499,2.6270378,-12.545617,-1.4957775,-0.23429362,-9.408062,2.7575111409522888514,-0.47165772,-9.703699,0.6967127,0.029430093,-9.515616,2.3711961409522888516,0.6937199,-9.49301,-4.413112,-0.008943769,-9.541214,2.2661711409522888530,2.2541409,-9.618107,-5.604826,0.065629534,-9.654896,1.71728591409522888548,2.847903,-8.905831,-4.1341877,0.27778614,-9.740426,1.10333861409522888548,2.779668,-8.708909,-2.8377275,0.5305834,-9.769238,0.67146341409522888564,2.2098482,-9.020754,-2.1859062,0.75848526,-9.77045,0.365208421409522888567,2.4199393,-8.838196,-1.7998412,0.91941965,-9.762746,0.117625681409522888580,3.323152,-8.955511,-1.8297687,1.0803242,-9.746487,-0.0962593561409522888598,3.9833531,-10.231023,-2.2529438,1.3020351,-9.715523,-0.289324021409522888599,4.404134,-11.295245,-2.6180596,1.556809,-9.669773,-0.492166851409522888614,4.110844,-11.327567,-2.4768016,1.8197737,-9.610806,-0.70087271409522888616,3.3494883,-10.362703,-2.0368671,2.0294611,-9.55458,-0.87276021409522888628,2.9137435,-9.256582,-1.4718355,2.1610768,-9.513742,-0.99441441409522888645,2.9215245,-8.353969,-0.8487445,2.2465081,-9.487182,-1.05686351409522888651,3.0017304,-7.8344264,-0.5315128,2.3416982,-9.464101,-1.05718561409522888688,2.7335799,-7.9325886,-0.7721301,2.441448,-9.441422,-1.03406011409522888689,2.540248,-8.54311,-0.98940384,2.5147438,-9.422151,-1.03417891409522888690,2.1212628,-9.457097,-1.0654198,2.5612223,-9.408168,-1.04735281409522888692,1.2192472,-10.603919,-1.1540052,2.5459132,-9.411182,-1.05753051409522888696,0.44352585,-11.581951,-1.0881647,2.4185686,-9.443514,-1.06817521409522888724,-0.29448682,-11.648989,-1.1079168,2.204686,-9.496529,-1.06098381409522888725,-0.7140707,-10.854712,-1.2635399,1.9379499,-9.5559845,-1.04780281409522888728,-0.5542577,-10.051457,-1.9901801,1.6584847,-9.608816,-1.04427711409522888756,-0.12569559,-9.241618,-2.7539306,1.4209747,-9.639937,-1.10579791409522888757,-0.6907272,-8.689755,-5.964555,1.2497636,-9.646817,-1.24394441409522888757,-2.6402059,-10.180145,-4.96318,1.0401438,-9.600272,-1.70975051409522888786,-3.0502129,-10.481815,-4.681263,0.6790131,-9.562934,-2.0638891409522888786,-2.8592753,-9.640253,-3.9468415,0.35332274,-9.511105,-2.36314251409522888787,-2.3666685,-9.011177,-2.8281507,0.08606091,-9.473641,-2.53240661409522888796,-2.0757728,-9.703699,-1.9500773,-0.14968349,-9.456913,-2.5912961409522888821,-2.328361,-10.538677,-1.0139444,-0.34630644,-9.466179,-2.53809051409522888822,-2.5737667,-11.048044,-0.3573346,-0.5447288,-9.497683,-2.3806941409522888830,-2.7246015,-11.2371855,-0.08678981,-0.7345482,-9.537164,-2.16179181409522888853,-2.3199813,-10.67395,0.15861586,-0.911699,-9.56907,-1.94218741409522888854,-1.8728642,-9.821015,0.19692309,-1.0390683,-9.594444,-1.74280491409522888856,-1.690905,-9.25359,0.30107087,-1.1167781,-9.614564,-1.57587721409522888871,-1.6124948,-9.256582,0.38726214,-1.1837527,-9.629756,-1.42720851409522888892,-1.8914193,-9.892242,0.49200845,-1.2298101,-9.643547,-1.28840711409522888892,-2.2511482,-10.650007,0.6464345,-1.2840917,-9.653943,-1.15016871409522888896,-2.4648306,-11.296442,1.6262615,-1.354995,-9.65981,-1.01116811409522888923,-2.3523033,-11.366472,3.8432922,-1.4327567,-9.669021,-0.79224391409522888923,-2.023699,-11.329363,4.617218,-1.4994086,-9.683382,-0.392791121409522888928,-2.2972364,-12.4289,3.7684734,-1.5406501,-9.684868,0.0101209281409522888955,-2.8191724,-13.312959,3.7702692,-1.5846056,-9.674072,0.267872271409522888955,-3.1423898,-13.36204,4.006098,-1.6724238,-9.654027,0.416058481409522888956,-2.2260091,-13.0998745,13.680469,-1.7754549,-9.628476,0.557303851409522888968,-1.4862007,-13.804368,19.226637,-1.8091197,-9.512285,1.55366561409522888992,-3.4380736,-13.518261,3.46022,-1.9184314,-9.559051,1.0557231409522888993,-5.681441,-13.834894,-10.53329,-1.8304936,-9.190764,2.88955431409522888996,-5.3642087,-14.7824,-11.572374,-2.056031,-9.372252,2.02583671409522889024,-3.7457285,-15.052346,-5.763442,-2.1915922,-9.505249,1.00874831409522889024,-4.2461166,-15.05055,-2.747945,-2.1919274,-9.545162,0.505681931409522889028,-5.919664,-14.067731,0.47764325,-2.2280455,-9.547492,0.22715911409522889055,-6.425439,-13.792996,5.233725,-2.3863323,-9.508838,0.240348831409522889055,-5.3678,-14.177864,9.752781,-2.5509799,-9.45109,0.582908451409522889056,-4.0276456,-15.1618805,10.988788,-2.624563,-9.375189,1.17809831409522889084,-3.3560722,-15.238495,5.755661,-2.620785,-9.2739935,1.81519251409522889084,-2.9299042,-14.153323,1.4275428,-2.6200647,-9.217231,2.085261409522889099,-3.804985,-14.018051,-0.3274071,-2.6076567,-9.236136,2.01600861409522889100,-4.3676224,-13.275848,-2.4426842,-2.6577117,-9.249382,1.8857081409522889114,-4.4544125,-11.891401,-4.313753,-2.737298,-9.28399,1.57643061409522889116,-3.5380316,-11.476007,-4.654927,-2.832931,-9.315568,1.16837611409522889133,-2.4791958,-11.394006,-5.061941,-2.878619,-9.34389,0.7587171409522889150,-1.1659763,-10.438121,-5.365406,-2.8564668,-9.3752575,0.339939681409522889150,-0.39923313,-9.898827,-5.4563856,-2.7545648,-9.411592,-0.068718881409522889165,0.3172317,-11.324574,-5.2786164,-2.607331,-9.442662,-0.45648721409522889199,1.5400703,-15.962143,-4.723161,-2.3879395,-9.478246,-0.79437711409522889200,3.9013517,-19.608511,-1.252766,-2.0319922,-9.538056,-1.03289631409522889201,8.680179,-19.608511,3.7343562,-1.5185024,-9.641419,-0.952645241409522889202,12.163143,-19.608511,4.4861355,-0.7370882,-9.763029,-0.557064651409522889224,8.407239,-18.116924,0.5446809,-0.9611628,-9.754535,-0.309235131409522889225,3.6499605,-13.818135,-3.632004,0.7758818,-9.775528,-0.086336881409522889228,1.1875241,-11.670536,-6.8958993,1.0096313,-9.7508,-0.270010681409522889256,0.3788824,-9.959281,-7.0102224,1.0232164,-9.730143,-0.669147971409522889256,0.58657944,-9.574412,-4.279037,0.95326287,-9.697604,-1.10369681409522889257,1.003769,-9.042301,-3.7140055,0.8859587,-9.675155,-1.33299341409522889281,1.4987702,-8.039729,-5.581483,0.86265993,-9.649929,-1.51826181409522889281,1.3628993,-6.5750766,-4.8775873,0.89579207,-9.590868,-1.83934661409522889297,0.05566519,-4.8548427,-4.976947,0.9435598,-9.526513,-2.1273611409522889298,-1.2216414,-3.9881415,-7.778163,0.92163265,-9.453804,-2.438561409522889314,0.11671733,-4.031237,-2.8844144,0.7883029,-9.314213,-2.96553971409522889329,3.2848446,-3.9444473,-1.4640543,0.75921416,-9.277244,-3.0865381409522889329,3.1370027,-3.7576995,-1.389834,1.0222183,-9.249531,-3.09380961409522889352,2.6779146,-3.5619736,-2.405574,1.2616186,-9.207944,-3.129291409522889362,2.7443538,-3.2812533,-2.556409,1.9865205,-8.92781,-3.5381271409522889362,3.1358056,-3.1471782,-2.396596,1.9865205,-8.92781,-3.5381271409522889394,3.6302083,-2.9550436,-2.8335378,1.9865205,-8.92781,-3.5381271409522889395,4.52145,-2.858677,-2.7443538,2.3228848,-8.776459,-3.70787841409522889396,5.2726307,-2.5510218,-2.3493104,2.7621436,-8.588002,-3.84541061409522889398,5.6000376,-2.5647886,-2.556409,3.3004315,-8.355726,-3.93184691409522889438,5.940613,-2.4426842,-2.9634233,3.853848,-8.074829,-4.0143981409522889439,5.781997,-2.2882583,-3.6828809,4.409559,-7.7341394,-4.11208871409522889440,5.7065797,-1.9710265,-4.359243,4.884528,-7.3500714,-4.27647451409522889441,5.719748,-1.7998412,-4.587889,5.2873755,-6.9156704,-4.5152571409522889448,5.8813562,-2.0506337,-4.6100354,5.634823,-6.465947,-4.75506641409522889474,6.6534867,-2.5121162,-5.027225,5.928437,-6.0479097,-4.94437271409522889475,6.5505357,-7.9331875,2.5689783,6.185453,-5.6559834,-5.0912141409522889477,-11.80521,-19.608511,19.608511,6.4379907,-6.089008,-4.2007891409522889507,-19.60911,-19.608511,19.608511,6.53442,-5.8610387,-4.37263631409522889508,-19.60911,-19.608511,13.132795,6.627856,-5.5992827,-4.57055431409522889516,-15.500062,-17.541718,5.4671597,6.6116433,-5.4715624,-4.74537661409522889517,-8.519767,-8.839393,3.643975,6.4409337,-5.4166617,-5.0343361409522889540,-7.7470384,-5.791574,5.366603,-3.1987035,-8.893145,2.61737661409522889540,-2.0961237,-4.019266,4.609437,-3.76535,-8.630203,2.7408241409522889568,1.7052702,-5.240309,2.0679917,-3.7911885,-8.520518,3.03282981409522889569,5.5701103,-11.434109,-0.36272156,-3.4405088,-8.6124115,3.18742161409522889570,7.5692687,-19.166183,-3.2393548,-2.4809456,-9.00704,2.98136471409522889577,6.491279,-18.923172,-3.7187939,-1.2658433,-9.464526,2.23400261409522889606,3.6355953,-12.339117,-1.0564415,-0.41388214,-9.676429,1.53811761409522889607,2.2080526,-9.793482,1.6519991,-0.021714112,-9.720636,1.29582851409522889610,2.7269957,-10.1460285,-0.65242,0.17165829,-9.711622,1.35104871409522889637,3.4979286,-9.857527,-2.7389667,0.40809244,-9.72804,1.17006911409522889638,3.3728316,-9.473856,-4.1934443,0.707631,-9.746594,0.82068691409522889639,2.7898436,-9.205706,-3.3087866,0.9743621,-9.750404,0.38809681409522889648,2.7252002,-8.347384,-2.5725696,1.1583544,-9.737767,0.067041451409522889667,3.3991678,-7.542334,-1.7567455,1.3236195,-9.714794,-0.203026091409522889671,4.063559,-8.120534,-1.4981717,1.5480866,-9.675457,-0.399165331409522889677,4.0156746,-9.865308,-1.7663223,1.8245953,-9.620495,-0.53601181409522889698,3.5116954,-11.004948,-1.7166426,2.0596993,-9.564679,-0.6670641409522889699,2.8766334,-10.930129,-1.4377182,2.1903942,-9.528309,-0.76413261409522889714,2.468422,-9.9928,-1.0528502,2.261366,-9.505993,-0.83228551409522889733,2.618658,-8.850765,-0.96187055,2.2914147,-9.496351,-0.859734651409522889734,2.8526914,-8.296508,-0.96426475,2.3382416,-9.483325,-0.87725981409522889737,2.823961,-8.147469,-0.79487497,2.4117978,-9.463418,-0.89295251409522889750,2.6617537,-8.358158,-0.6865373,2.4939327,-9.441847,-0.895667551409522889765,2.2589293,-9.336788,-0.7080852,2.565477,-9.422867,-0.89346571409522889777,1.1252748,-11.347918,-0.64583594,2.563206,-9.424198,-0.8859161409522889778,-0.35254622,-13.019669,-0.7649474,2.4237826,-9.463695,-0.856826661409522889794,-1.115698,-12.65575,-1.7441759,2.1233633,-9.538255,-0.82668231409522889797,-0.9504981,-11.179725,-2.806603,1.7741879,-9.604206,-0.884243131409522889809,-0.6913257,-9.501988,-3.1148565,1.4719214,-9.639694,-1.0393081409522889828,-0.46746787,-8.174403,-3.2788591,1.2379277,-9.649781,-1.23276081409522889829,-0.7224504,-7.8332295,-3.8498764,1.0727623,-9.639885,-1.44643751409522889845,-0.6404489,-7.5746555,-5.686229,0.91410255,-9.613353,-1.70828971409522889861,-1.086369,-7.382521,-7.515399,0.7838,-9.540058,-2.13151531409522889861,-2.1523874,-7.6961613,-6.6600704,0.62034285,-9.40423,-2.71035741409522889881,-1.9847932,-7.884106,-3.079542,0.3687211,-9.277862,-3.1552781409522889881,-1.8620903,-8.9842415,-2.1505916,0.13904169,-9.259171,-3.2278211409522889898,-1.6950948,-9.948506,-1.620276,-0.08262743,-9.280183,-3.16887781409522889898,-1.7238252,-10.875661,-0.7086837,-0.2720023,-9.320575,-3.03698521409522889911,-1.6795325,-11.886613,0.078410104,-0.43404377,-9.3863125,-2.80698751409522889928,-2.0530279,-12.600683,-0.05925649,-0.5495862,-9.4674225,-2.49725581409522889929,-2.3535004,-12.603676,-0.21906945,-0.68028384,-9.525812,-2.22856971409522889945,-2.1021092,-11.996746,-0.19033903,-0.81130147,-9.56493,-2.00607441409522889961,-1.5520413,-11.467628,-0.020949265,-0.89926153,-9.593814,-1.8222191409522889961,-1.4221559,-11.309011,0.11851298,-0.9332994,-9.619703,-1.66152391409522889975,-1.6472107,-11.448474,0.3369839,-0.9601839,-9.641727,-1.51180021409522889977,-2.083554,-11.756727,0.4818331,-1.0019635,-9.660093,-1.35979391409522889994,-2.3888147,-11.954847,0.736217,-1.0717192,-9.67276,-1.20811551409522889997,-2.4265234,-12.012308,2.7880478,-1.1606394,-9.681471,-1.04518951409522890012,-1.8794483,-11.876437,7.780557,-1.250978,-9.699441,-0.72544371409522890025,-1.4000094,-12.302606,9.110536,-1.2959294,-9.720641,-0.007868351409522890030,-0.6404489,-13.045406,14.469358,-1.2954966,-9.695041,0.705893041409522890044,0.43873745,-13.674483,19.608511,-1.2361258,-9.585421,1.66194581409522890061,-1.9147629,-12.824541,6.5625067,-1.3417399,-9.653661,1.08488191409522890062,-3.9845502,-10.510546,-10.877457,-1.2754291,-9.253733,2.98531031409522890077,-3.1597476,-10.83496,-12.4869585,-1.4735476,-9.484465,2.01096081409522890077,-3.3859997,-13.9755535,-9.043498,-1.5437503,-9.612221,1.18001681409522890100,-4.0426097,-15.626954,-6.1626754,-1.5686805,-9.668255,0.484257251409522890102,-7.009624,-15.705963,-4.119224,-1.6300285,-9.670082,-0.053778791409522890109,-8.938153,-14.8195095,-2.4821887,-1.9283441,-9.607194,-0.392010631409522890128,-7.776367,-13.409924,0.29328972,-2.3520904,-9.502942,-0.576311351409522890128,-6.508039,-14.103643,11.56998,-2.6663098,-9.420563,-0.560521841409522890142,-5.6239796,-16.685192,18.219875,-2.8349624,-9.383451,0.29019381409522890166,-3.369839,-17.006014,10.550649,-2.820395,-9.389922,0.212404071409522890167,-1.8968062,-15.907076,4.3161473,-2.733457,-9.191144,2.05462151409522890170,-1.8327614,-14.821305,1.2144588,-2.6488776,-9.177769,2.21864631409522890186,-2.1428106,-14.265252,0.46387658,-2.6131916,-9.19585,2.18585011409522890210,-2.078167,-13.36623,-0.11731588,-2.5462844,-9.238968,2.0804591409522890210,-2.4139538,-12.569559,-3.3955765,-2.4532242,-9.296219,1.9319381409522890211,-2.1733365,-11.313202,-7.2262993,-2.4171097,-9.374214,1.56589441409522890225,-1.371279,-10.33098,-9.139266,-2.4186966,-9.454461,0.96616721409522890229,-0.6805518,-9.885659,-8.7538,-2.3683755,-9.513669,0.226411571409522890242,-0.009576807,-10.864887,-7.3831196,-2.2706718,-9.529811,-0.444002841409522890260,1.0247183,-14.642339,-6.0483522,-2.1093502,-9.530336,-0.945374551409522890260,3.5637693,-19.445705,-1.287482,-1.8511376,-9.54776,-1.25856181409522890278,8.222886,-19.608511,6.0639143,-1.3980651,-9.637923,-1.15164891409522890278,11.608886,-19.608511,6.575675,-1.6813837,-9.620285,-0.89074241409522890292,7.9266033,-18.30846,1.3970166,-1.9136282,-9.600396,-0.583775341409522890297,3.6391866,-13.435661,-3.3393128,0.72886664,-9.779292,0.067511991409522890309,1.8590976,-11.629835,-6.7881603,0.95969146,-9.758934,-0.112161571409522890326,1.6502035,-9.969456,-8.066066,1.0336303,-9.738476,-0.513878351409522890341,2.0632033,-8.930971,-5.7909756,1.0525656,-9.697003,-1.0151951409522890342,2.2870612,-8.883087,-4.220978,1.0900401,-9.650781,-1.35816761409522890368,2.3439236,-8.608951,-4.07134,1.1512299,-9.609287,-1.58323371409522890369,2.1146786,-6.645705,-3.436278,1.2282261,-9.564309,-1.78489661409522890369,1.4586674,-4.0252514,-4.7022123,1.3149147,-9.51812,-1.96132291409522890377,0.24839842,-2.9005754,-7.763199,1.3891692,-9.440776,-2.26105521409522890396,0.8595184,-3.8624458,-7.700351,1.377636,-9.290841,-2.82006221409522890412,1.7280151,-4.336498,-3.7475243,1.414389,-9.117203,-3.32362841409522890412,1.7340006,-3.8486793,-1.8866309,1.5001225,-9.029032,-3.520881409522890428,1.590947,-3.0789435,-1.4838065,1.5590614,-8.982036,-3.61424731409522890429,1.7088615,-2.6120741,-0.6386533,1.6257529,-8.941911,-3.68368861409522890446,2.1033063,-2.244564,-3.0621839,1.75391,-8.929223,-3.65557241409522890464,2.7988217,-1.8351556,-3.2740707,1.926092,-8.799484,-3.87681221409522890465,3.5990837,-2.0506337,-2.8042088,2.2001243,-8.618946,-4.12839651409522890469,4.526837,-2.319383,-2.5420437,2.587368,-8.426095,-4.29846761409522890477,4.907515,-2.3253684,-2.8395233,3.0828242,-8.204872,-4.39848661409522890491,4.9123034,-2.2385786,-3.764882,3.588431,-7.9312453,-4.51540951409522890523,4.8255134,-1.9063832,-5.044583,4.0418935,-7.583988,-4.72404531409522890524,4.64116,-1.9393034,-5.557541,4.427134,-7.140891,-5.0575231409522890525,4.143166,-2.654571,-4.8045645,4.7221737,-6.687433,-5.39905071409522890529,3.882198,-3.8947675,-3.8067808,4.894184,-6.3966737,-5.5946321409522890554,2.9592333,-8.868123,6.232107,4.998725,-6.287362,-5.6260341409522890554,-8.734647,-19.4894,19.608511,5.1071243,-7.18365,-4.2991661409522890557,-18.914791,-19.608511,19.608511,5.1751046,-7.0141535,-4.4933671409522890578,-19.60911,-19.608511,16.488867,5.2380695,-6.8379908,-4.68774271409522890578,-13.497313,-19.166782,7.7530236,5.2142262,-6.782023,-4.79440981409522890591,-6.041768,-12.09012,4.608838,5.030672,-6.784715,-4.9830131409522890618,-4.3209357,-6.827066,6.5247984,-2.9642947,-8.777081,3.21655561409522890619,-0.11911154,-5.1439424,5.8604074,-3.1393456,-8.643856,3.4056811409522890619,2.5210943,-5.0134583,3.1310172,-3.0658355,-8.5748625,3.63906381409522890653,5.4258595,-8.088212,2.9191303,-2.7213871,-8.615959,3.81177971409522890654,9.300277,-17.535732,0.9876082,-1.9209387,-8.7753105,3.93373821409522890654,7.49026,-19.608511,-1.5999253,-0.68069446,-9.145855,3.47280721409522890658,2.521693,-18.061258,3.7906199,0.1292755,-9.41672,2.734791409522890676,-3.526659,-13.387178,9.148245,0.33318245,-9.451297,2.59467981409522890678,-0.84216046,-9.486425,-8.446744,-0.004853285,-9.336295,3.0006591409522890692,2.2331917,-8.491635,-7.60578,-0.088761695,-9.571517,2.13273951409522890716,3.3117795,-6.141726,-5.2199583,0.12085546,-9.7037325,1.41186261409522890717,3.128623,-4.903325,-4.3777976,0.42299336,-9.752246,0.94084121409522890718,2.9670146,-4.297592,-3.5913026,0.7024571,-9.76874,0.498707351409522890730,3.58412,-4.5196543,-2.705448,0.9816341,-9.757118,0.0737026561409522890758,3.6284127,-6.663662,-3.2016463,1.3304496,-9.7120285,-0.27715691409522890759,3.8217444,-9.146449,-3.8486793,1.6490921,-9.647294,-0.61694651409522890759,3.9211037,-10.717644,-3.9073372,1.9104561,-9.568302,-0.983949661409522890777,3.839701,-10.767922,-3.918111,2.1219594,-9.487807,-1.28420631409522890778,3.6373909,-10.096349,-3.2034419,2.2795553,-9.412857,-1.54017781409522890792,3.5817258,-9.606734,-2.2888567,2.397176,-9.355366,-1.7032461409522890807,3.4380736,-9.652225,-1.6382325,2.5048335,-9.314487,-1.77102771409522890811,3.0418332,-10.036493,-1.4981717,2.5962174,-9.289381,-1.77129021409522890823,2.6270378,-10.437522,-1.6071079,2.6449473,-9.278681,-1.7551931409522890842,2.2014685,-11.098921,-1.441908,2.6339338,-9.284157,-1.74276261409522890842,1.5939398,-12.164939,-1.1139023,2.5916295,-9.303285,-1.70374331409522890857,0.504578,-13.866618,-0.7356185,2.47562,-9.348792,-1.62535371409522890858,-0.7727286,-14.560338,-0.57041854,2.244097,-9.428584,-1.49540341409522890875,-1.4329298,-13.01129,-0.54288524,1.9134299,-9.522633,-1.35227921409522890895,-1.590947,-10.726623,-0.46627077,1.5737361,-9.601091,-1.22996091409522890895,-1.6645688,-9.475053,-0.5069722,1.2647239,-9.659441,-1.12520751409522890913,-2.2876596,-9.141661,-1.2425907,0.98404145,-9.701107,-1.04430971409522890914,-2.6282349,-8.60117,-1.6927006,0.6832023,-9.725912,-1.05368021409522890918,-2.2798786,-8.075643,-1.7830818,0.3645701,-9.737065,-1.10772631409522890944,-2.4833858,-8.026561,-2.0290859,0.097887255,-9.733411,-1.19227851409522890945,-3.7600937,-8.482059,-1.6795325,-0.16821605,-9.71565,-1.3222091409522890966,-4.619612,-8.666411,-1.127669,-0.518859,-9.686632,-1.43887381409522890967,-4.061165,-8.376713,-1.596334,-0.9097569,-9.646885,-1.51007081409522890970,-3.2842462,-8.423999,-2.1158757,-1.2254115,-9.596532,-1.60478441409522890978,-2.641403,-8.492832,-1.2844892,-1.4374262,-9.54956,-1.70591021409522890997,-2.9269116,-9.030929,-0.56922144,-1.5821149,-9.528156,-1.69751821409522890998,-3.2507274,-9.822811,-0.29448682,-1.724313,-9.519877,-1.60282951409522891009,-1.7753005,-10.604518,-0.30466217,-1.8626828,-9.514279,-1.47625041409522891029,-0.96665895,-10.855909,-0.2896984,-1.8334152,-9.536546,-1.36502411409522891029,-0.9959879,-11.114483,-0.05207389,-1.7370694,-9.568307,-1.26510561409522891038,-1.3970166,-11.352107,-0.032920275,-1.6472731,-9.598361,-1.1525461409522891072,-1.7136499,-11.568184,-0.007781155,-1.5882521,-9.619808,-1.05220821409522891073,-1.775899,-11.467628,0.2208651,-1.5639974,-9.633527,-0.95887971409522891073,-1.5233108,-11.077373,0.57640404,-1.5469536,-9.645828,-0.8575181409522891078,-1.2210429,-10.967239,2.4372973,-1.5246563,-9.65912,-0.73976241409522891095,-0.7410054,-11.399393,5.0308166,-1.4907898,-9.681348,-0.468462381409522891113,-0.3693056,-12.092514,5.614403,-1.415141,-9.704008,0.0038981741409522891114,0.130484,-12.737153,8.399458,-1.3099238,-9.709153,0.43222451409522891118,0.3309984,-13.579912,19.317019,-1.1870242,-9.686031,0.970629041409522891149,-2.510919,-13.494918,12.534843,-1.2677948,-9.712911,0.471632751409522891150,-3.8654387,-11.407174,-6.0884547,-1.2227676,-9.285831,2.90664151409522891151,-4.9625816,-12.744335,-10.978013,-1.423135,-9.432068,2.27622321409522891158,-6.247071,-15.819688,-8.735844,-1.6299025,-9.558978,1.46280011409522891197,-6.4368114,-16.21114,-5.523423,-1.850939,-9.598686,0.780778771409522891198,-8.103176,-15.270817,-2.914342,-2.0440762,-9.587166,0.279992221409522891199,-8.553286,-14.799758,-0.093373865,-2.3641415,-9.517397,-0.0188719841409522891200,-8.049905,-15.029002,10.424355,-2.6884725,-9.430527,-0.087631521409522891210,-6.8186865,-16.204556,17.682377,-2.9044604,-9.346721,0.61098661409522891241,-4.959589,-16.081255,9.753379,-2.8529153,-9.366294,0.55118931409522891242,-2.4959552,-14.759655,4.161721,-2.9884887,-9.086047,2.1640411409522891243,-1.6980876,-14.469956,1.8680758,-2.9283147,-9.06245,2.33823661409522891327,-1.982399,-14.261063,1.977012,-2.8423855,-9.085771,2.35372421409522891330,-2.4540567,-14.055759,-0.9744401,-2.7299278,-9.124955,2.3351781409522891331,-3.4823663,-13.308768,-6.461352,-2.6341724,-9.208288,2.10688331409522891332,-2.8640637,-11.086949,-9.002797,-2.6604345,-9.313535,1.53314321409522891333,-2.144606,-9.359533,-8.659229,-2.689768,-9.396868,0.796481409522891333,-1.2904748,-8.713697,-7.74225,-2.709394,-9.424433,0.0981506561409522891334,-0.6961141,-9.643246,-6.481104,-2.6529186,-9.428409,-0.487344261409522891337,0.33159694,-13.09329,-5.531803,-2.53349,-9.429507,-0.91444141409522891361,2.3038206,-18.678364,-4.0294414,-2.294855,-9.457322,-1.20957851409522891362,6.2793927,-19.608511,2.3744495,-1.8695751,-9.537531,-1.30788721409522891363,11.829152,-19.608511,6.6295447,-1.2104661,-9.685274,-0.94901971409522891364,9.462483,-18.993801,4.7896004,-1.4775778,-9.670878,-0.679155471409522891382,4.299388,-14.688427,-0.109534726,0.44484776,-9.79651,-0.0296886711409522891383,2.4714148,-12.771271,-5.522825,0.76459295,-9.776777,-0.019513681409522891390,2.8634653,-10.889428,-6.6882024,0.91811174,-9.758072,-0.327896621409522891410,3.0496144,-8.907029,-5.1421466,1.022852,-9.727014,-0.71370711409522891423,3.3716345,-8.311471,-4.1521444,1.1139102,-9.689206,-1.02414311409522891423,4.4113164,-7.909844,-2.6856956,1.2412313,-9.644005,-1.27394031409522891448,4.0982747,-7.615956,-2.9975405,1.4702895,-9.594107,-1.40062521409522891449,1.8842367,-6.05733,-5.7215433,1.6816084,-9.538415,-1.53662681409522891450,0.3429694,-4.6351743,-10.21127,1.755042,-9.459291,-1.90053781409522891458,-0.107739076,-4.51726,-6.081871,1.7103759,-9.289158,-2.637531409522891472,-0.065242,-5.221155,-3.4931402,1.6353327,-9.185788,-3.0194981409522891491,0.30885202,-5.199009,-2.0925324,1.5218515,-9.142619,-3.20421409522891491,1.4526819,-4.55856,-0.85293436,1.4183091,-9.131734,-3.28180171409522891516,2.2463598,-4.0797195,-1.2114661,1.4649875,-9.142187,-3.23181181409522891517,2.4420857,-3.532046,-2.8473043,1.62044,-9.124552,-3.20735291409522891519,2.1948843,-2.8054059,-4.074931,1.8114856,-9.032952,-3.36075141409522891552,2.285864,-1.8662802,-3.0609868,1.9793595,-8.8746395,-3.67332551409522891552,3.3261447,-1.210269,-1.1318588,2.186304,-8.717835,-3.92298131409522891553,4.545392,-1.1067197,-0.93613285,2.5682592,-8.585911,-3.98203091409522891559,5.140351,-1.2988545,-3.7002387,3.131823,-8.392179,-3.99167321409522891594,5.45878,-0.87448215,-4.8099513,3.713166,-7.99841,-4.29047731409522891595,5.1277814,-0.76434886,-5.4982843,4.2979054,-7.467242,-4.6838771409522891595,4.496909,-1.1420342,-5.7263317,4.743839,-6.8949885,-5.11131431409522891600,3.8402996,-2.308609,-5.0092683,5.0121665,-6.3607726,-5.5307461409522891612,2.8622682,-5.245696,-1.6944963,5.1269045,-6.0300593,-5.7899621409522891632,-1.4395138,-14.562133,14.043789,5.112454,-6.244826,-5.57094051409522891633,-16.020802,-19.608511,19.608511,4.546644,-8.162526,-2.97852251409522891639,-19.60911,-19.608511,19.608511,4.6580715,-7.989629,-3.26168821409522891664,-19.60911,-19.608511,15.500062,4.7537746,-7.843511,-3.47150831409522891664,-8.195353,-11.875839,6.9168487,4.7351847,-7.772057,-3.65288261409522891670,-3.911527,-5.227141,4.7285485,-3.0689468,-8.509479,3.78691551409522891696,-4.3460746,-5.397728,5.5461683,-3.3024292,-8.3833475,3.87089421409522891696,-0.20231004,-6.0184245,4.848857,-3.6314616,-8.234879,3.8948251409522891699,1.95307,-7.3669586,1.5759833,-3.468401,-8.266462,3.97569821409522891730,5.5096564,-9.490616,1.0079589,-3.0499854,-8.459711,3.91168021409522891730,8.002021,-14.698004,-1.7806876,-2.160053,-8.769644,3.82072191409522891731,7.5549035,-16.67741,-3.606865,-0.99895567,-9.204167,3.23354171409522891738,5.1810527,-13.11424,-6.179435,-0.09518413,-9.499483,2.43334151409522891761,3.7600937,-10.184336,-6.245275,0.43175593,-9.659723,1.63515911409522891762,2.3570917,-11.893197,-0.95229375,0.7657807,-9.729623,0.958339451409522891772,2.690484,-13.32912,2.0691888,0.91211396,-9.734002,0.76656981409522891791,3.714604,-12.281656,1.8860323,1.0556284,-9.71853,0.7786081409522891791,3.9294837,-10.26933,0.7769185,1.2670728,-9.693899,0.77024031409522891814,3.7044287,-9.135675,-0.108337626,1.4723175,-9.665536,0.76163061409522891815,3.767875,-9.391854,-0.57999533,1.6640888,-9.638336,0.709717451409522891819,3.9510314,-10.550649,-1.4227544,1.8563644,-9.607885,0.642530441409522891841,4.146757,-11.074979,-2.291251,2.0446959,-9.579329,0.47546651409522891841,4.19524,-10.21965,-3.116652,2.2199738,-9.549045,0.240583381409522891856,3.9851487,-8.692748,-3.0783448,2.396828,-9.509099,-0.0512771831409522891859,3.691859,-7.867945,-2.405574,2.5713816,-9.458216,-0.317053141409522891872,3.2603042,-8.100183,-1.8303672,2.7269435,-9.40626,-0.506420431409522891887,2.719813,-8.619724,-1.5400703,2.8285599,-9.368192,-0.637680651409522891892,2.2523453,-9.003395,-1.2916719,2.8502538,-9.353668,-0.74521461409522891906,1.83336,-9.330803,-1.2868834,2.833793,-9.353557,-0.8068361409522891922,1.1941081,-9.937733,-1.4532804,2.7693949,-9.3665285,-0.87691551409522891922,-0.090979666,-11.4837885,-1.6807296,2.639348,-9.396856,-0.95044551409522891939,-1.5394717,-12.90774,-1.9428947,2.3718324,-9.460785,-1.01900231409522891940,-2.3056161,-12.641984,-1.8118122,1.9727602,-9.545377,-1.07907831409522891958,-2.8496985,-10.870275,-2.1817162,1.5384146,-9.62233,-1.10202171409522891959,-2.8921957,-9.060258,-2.4271219,1.0976155,-9.676468,-1.15396231409522891973,-1.9183542,-8.592192,-2.6360161,0.7092197,-9.699603,-1.25900721409522891989,-1.2276269,-8.361151,-3.2255883,0.4293886,-9.69938,-1.38130771409522891990,-0.44592008,-8.21271,-3.5326445,0.24209933,-9.672952,-1.59555691409522892004,-0.79966336,-8.334216,-5.7478795,0.17869829,-9.629516,-1.84686241409522892022,-2.8000188,-8.949526,-7.719505,0.11430939,-9.535247,-2.28832551409522892022,-3.371036,-8.98484,-6.6744356,-0.12263591,-9.383077,-2.84837341409522892039,-2.9107506,-9.027936,-4.8458643,-0.39845836,-9.24662,-3.24216251409522892040,-2.8101943,-9.1829605,-3.7666779,-0.6345044,-9.173216,-3.40880731409522892056,-2.4462755,-9.451111,-2.336741,-0.85749215,-9.135134,-3.46185421409522892059,-2.355296,-9.990405,-1.0749966,-1.0453973,-9.152158,-3.3638581409522892073,-2.15957,-10.190321,-0.31064767,-1.1982021,-9.208481,-3.15255281409522892088,-1.733402,-10.418368,0.14963761,-1.298971,-9.278372,-2.89739041409522892090,-1.447295,-10.755353,0.19572599,-1.3309023,-9.354499,-2.6253411409522892104,-1.2449849,-10.763134,0.28072014,-1.320705,-9.4244585,-2.36764571409522892119,-1.1959038,-10.742185,0.60453594,-1.2945213,-9.486101,-2.12332371409522892119,-1.5286977,-10.937312,0.66498953,-1.2704008,-9.542302,-1.87107861409522892138,-2.4756045,-12.178705,0.717662,-1.2783087,-9.584092,-1.63753641409522892147,-2.6001031,-12.586917,1.0468647,-1.3592612,-9.608999,-1.41064791409522892188,-2.3882163,-13.050794,4.821324,-1.4428345,-9.627833,-1.18043921409522892188,-1.4460979,-13.079524,8.455722,-1.502098,-9.669562,-0.643152361409522892188,-0.7386112,-13.493721,7.418434,-1.4766877,-9.693899,0.134645251409522892189,-0.8475474,-13.698425,7.530363,-1.3955036,-9.684372,0.66022261409522892192,-1.1348516,-13.210607,14.769232,-1.3467978,-9.652049,1.09292941409522892215,-2.2888567,-13.928867,18.353352,-1.3261265,-9.514921,1.96927381409522892216,-4.5567646,-13.47337,1.4796166,-1.5004526,-9.590147,1.39575271409522892219,-6.4463882,-12.937668,-10.915166,-1.6829993,-9.246609,2.79966521409522892237,-6.782175,-14.498089,-13.6014595,-1.9862999,-9.4060545,1.9367871409522892239,-4.2874165,-15.329475,-8.119336,-2.230467,-9.504695,0.925304531409522892260,-3.663727,-14.9063,-1.5819688,-2.2444792,-9.5419035,0.291107681409522892261,-4.64116,-14.133572,3.6876693,-2.231702,-9.5487585,0.1054394251409522892270,-3.9163153,-14.71237,9.307459,-2.299775,-9.525587,0.38027671409522892286,-3.4099417,-15.555727,11.140221,-2.257888,-9.498084,0.926674841409522892290,-3.4500446,-16.92102,9.470264,-2.1820934,-9.43125,1.5685581409522892305,-3.7086184,-17.070059,6.4020953,-2.1630177,-9.344749,2.04142481409522892322,-3.9552212,-15.2253275,2.665345,-2.204647,-9.271849,2.31143831409522892323,-4.5621514,-13.362638,0.08020575,-2.3040671,-9.239091,2.34539341409522892344,-4.458602,-11.917139,0.23163901,-2.4544036,-9.239435,2.18612721409522892345,-4.338892,-10.703279,-0.060453594,-2.5854084,-9.238156,2.03532171409522892351,-3.481768,-10.3639,-4.5543704,-2.6886976,-9.238573,1.89474091409522892382,-2.2200236,-10.792462,-7.311892,-2.7569122,-9.297084,1.46084311409522892383,-1.2731167,-9.77792,-7.9427643,-2.7358265,-9.378859,0.85008481409522892383,-0.5255273,-8.353969,-6.871359,-2.6718554,-9.433786,0.187688741409522892391,-0.6290765,-8.754398,-5.781997,-2.562739,-9.458726,-0.367733841409522892405,-0.44352585,-12.117055,-4.602853,-2.4570532,-9.461694,-0.78077131409522892421,1.055843,-18.288109,-1.9566613,-2.2921977,-9.478819,-1.03354281409522892422,3.774459,-19.608511,3.4500446,-1.9442569,-9.559721,-1.00099481409522892440,9.370307,-19.608511,4.0898952,-1.4276568,-9.684194,-0.59041791409522892440,8.980052,-19.457678,0.973243,-1.6780347,-9.656344,-0.331040921409522892454,4.220978,-14.724939,-3.1735144,0.11044235,-9.80547,-0.104585621409522892468,1.6543933,-11.48319,-6.4284315,0.4396572,-9.793076,-0.269746181409522892471,0.9139865,-10.281899,-7.053318,0.58410776,-9.767335,-0.65450941409522892486,0.50517654,-9.7240505,-5.5521536,0.6157287,-9.725868,-1.09488331409522892509,1.3533225,-9.163208,-3.7840357,0.5767951,-9.68502,-1.42760531409522892509,1.9865888,-8.517971,-3.5859156,0.614595,-9.655151,-1.60334621409522892511,2.0560207,-7.1604586,-2.6204538,0.6850787,-9.620759,-1.77259621409522892519,1.5873557,-5.254674,-4.56275,0.78529,-9.593685,-1.87481491409522892548,1.3670892,-4.136582,-6.251859,0.8797765,-9.525096,-2.16077111409522892549,1.9985598,-3.8522706,-5.228338,0.9791604,-9.40742,-2.59077121409522892553,2.2768857,-4.313154,-4.3777976,1.135917,-9.287967,-2.93492081409522892592,2.3582888,-4.6495395,-3.2345665,1.2853782,-9.177184,-3.20896551409522892593,2.337938,-4.406528,-1.364695,1.415805,-9.1016445,-3.36540581409522892594,2.7808652,-3.82773,-0.516549,1.5731544,-9.079898,-3.35425451409522892595,3.2728736,-3.6768951,-1.2539631,1.7842938,-9.070032,-3.27433041409522892623,3.7373488,-3.6583402,-2.0817583,2.0640268,-9.014667,-3.26281361409522892624,3.639785,-3.347094,-3.0095115,2.4050624,-8.905151,-3.32931641409522892624,3.8827965,-2.795829,-2.5007436,2.728968,-8.742206,-3.50670241409522892652,4.702811,-2.445677,-2.1547816,3.0958474,-8.566389,-3.63360791409522892652,5.5922565,-1.9536686,-2.9682117,3.5640385,-8.348623,-3.71059871409522892653,6.1100025,-1.4490906,-4.1144357,4.114584,-8.016566,-3.86978861409522892672,6.302736,-1.0348936,-4.687847,4.6811666,-7.5456696,-4.16172361409522892673,6.311714,-1.0319009,-4.5016975,5.223469,-6.986173,-4.480981409522892686,5.645528,-1.7848774,-3.7576995,5.693668,-6.428843,-4.73524051409522892702,-0.16400282,-9.583989,12.834717,6.0083942,-6.0275674,-4.8721631409522892703,-9.500193,-19.16738,19.578585,5.83064,-7.3963985,-2.7326441409522892722,-18.44134,-19.608511,14.34905,5.9310083,-7.247425,-2.910041409522892722,-19.60911,-19.608511,19.227236,6.0291433,-7.0878806,-3.09543971409522892740,-17.402254,-19.545065,10.339958,6.1070614,-6.9728518,-3.2021191409522892740,-7.2023573,-12.034455,4.3688197,6.0885887,-6.915668,-3.35753231409522892754,-5.324106,-5.5910597,4.3275194,-2.9920616,-8.570975,3.7089561409522892770,-3.9348705,-5.4025164,5.016451,-3.3718767,-8.419073,3.73095631409522892771,-0.51475334,-6.177639,2.944868,-3.6299942,-8.276291,3.80742931409522892788,2.4660277,-8.057686,-0.27712885,-3.4681928,-8.329621,3.84180331409522892806,5.641338,-13.710396,-0.20530279,-2.974608,-8.6006975,3.65377741409522892806,8.254609,-19.153015,0.7942764,-2.060189,-9.007137,3.28595541409522892820,7.677606,-17.493235,-1.0097545,-0.9649273,-9.338097,2.83535391409522892821,4.332308,-12.187684,-0.19632454,-0.14442572,-9.5265465,2.32259681409522892836,2.078167,-9.844957,1.2725182,0.24972354,-9.578782,2.0868551409522892839,3.1693244,-10.755951,-1.6897079,0.41647097,-9.579615,2.05619261409522892853,3.684078,-11.766903,-3.3488896,0.6652815,-9.629704,1.73106221409522892868,2.7257986,-11.949461,-3.245939,0.9279469,-9.678073,1.28227211409522892871,2.6282349,-10.817602,-2.1745336,1.0843334,-9.7059355,0.88849871409522892885,3.3901896,-9.043498,-1.3215994,1.222882,-9.710301,0.62050481409522892908,3.3452983,-8.377312,-1.3563153,1.4307401,-9.691881,0.436849451409522892908,3.1651347,-9.187749,-1.757344,1.6139582,-9.669204,0.268392861409522892913,3.2255883,-10.231621,-2.2661119,1.7646556,-9.646205,0.084494981409522892920,2.790442,-10.162787,-2.5755625,1.9050533,-9.618937,-0.131323671409522892950,2.195483,-8.726267,-2.5719712,1.995682,-9.594553,-0.36356621409522892951,1.8842367,-7.4561424,-1.9853917,2.0466144,-9.572735,-0.586954651409522892952,1.9608512,-6.7223196,-1.2689269,2.0803368,-9.554602,-0.74308341409522892980,2.1571758,-6.7103486,-0.8074445,2.135481,-9.536017,-0.821259141409522892981,2.2008698,-7.4112515,-0.6278794,2.208106,-9.516865,-0.8508471409522892982,2.2936451,-8.294712,-0.5363012,2.2736475,-9.500898,-0.856660661409522893009,2.3080103,-9.307459,-0.49200845,2.330444,-9.488291,-0.84364631409522893010,1.5113398,-11.361086,-0.5781997,2.3650844,-9.481953,-0.818123761409522893011,-0.10354923,-13.774441,-0.95827925,2.2773302,-9.505948,-0.78811671409522893020,-1.6597804,-14.449007,-1.4628572,2.0034306,-9.568407,-0.77604521409522893046,-2.380435,-12.832322,-1.6795325,1.6075224,-9.640764,-0.80120181409522893048,-2.428319,-10.893618,-1.650802,1.2081047,-9.695913,-0.8367531409522893052,-2.195483,-10.014946,-1.9458874,0.83930504,-9.732457,-0.863270461409522893082,-2.1470003,-9.671976,-3.063381,0.51860887,-9.749404,-0.92225631409522893083,-1.7896658,-9.003395,-4.55856,0.23213644,-9.742457,-1.09591081409522893084,-4.2419267,-9.210494,-7.0012445,0.013629589,-9.703174,-1.42079851409522893131,-8.069656,-10.446501,-6.7199254,-0.40467474,-9.5982,-1.97007731409522893132,-6.1183825,-8.923788,-4.771644,-1.0991435,-9.44694,-2.3911541409522893132,-3.6822822,-7.3083005,-3.0017304,-1.5437772,-9.298016,-2.70814971409522893133,-1.8441339,-6.6606693,-1.4909891,-1.7499089,-9.207373,-2.8866061409522893134,-1.3102269,-7.510012,-1.0618285,-1.8068746,-9.201235,-2.87104771409522893168,-1.4850036,-9.036914,-0.97025025,-1.7938632,-9.238502,-2.7572671409522893168,-1.6585833,-10.357915,-0.78050977,-1.7564172,-9.289908,-2.6044251409522893169,-1.5957354,-11.416152,-0.801459,-1.7134857,-9.345708,-2.42735981409522893172,-1.2605472,-11.686697,-0.22146365,-1.6594119,-9.398932,-2.25317811409522893191,-0.9744401,-11.331757,0.24600422,-1.5832875,-9.459731,-2.04378491409522893192,-1.2826935,-11.303625,0.22325931,-1.4962147,-9.517988,-1.82747881409522893200,-1.608305,-11.683704,0.14305355,-1.4467237,-9.559905,-1.63877651409522893230,-1.6298528,-11.97041,0.076015905,-1.4300573,-9.58947,-1.47221121409522893230,-1.3982137,-11.844116,0.1376666,-1.4250422,-9.610817,-1.33110941409522893232,-1.1534066,-11.431116,1.0636241,-1.4142963,-9.628738,-1.20729771409522893272,-0.7236475,-11.249157,5.492897,-1.3915093,-9.652821,-1.02817021409522893274,-0.38965634,-11.840525,8.180987,-1.3261286,-9.705329,-0.46729231409522893276,-0.65242,-15.181034,19.608511,-1.2367454,-9.725829,0.221569081409522893307,-2.3493104,-14.853627,12.856863,-1.2739322,-9.719927,-0.265557261409522893307,-3.787627,-12.374432,-7.507618,-1.2704861,-9.451131,2.28744031409522893308,-3.9971197,-11.055825,-12.68867,-1.4789008,-9.56718,1.5659861409522893308,-2.891597,-11.711238,-10.303447,-1.6369367,-9.64329,0.70554061409522893312,-3.5757403,-14.144345,-7.7087307,-1.6621851,-9.664757,-0.0061824151409522893320,-5.1439424,-15.775993,-4.8626237,-1.7086427,-9.638845,-0.586155831409522893334,-6.3248825,-15.729306,-1.0576386,-1.8890675,-9.5871525,-0.82964641409522893358,-6.3871317,-14.799758,5.5521536,-2.0913217,-9.5446205,-0.834847451409522893358,-6.1704564,-16.090832,17.489044,-2.3018856,-9.52593,-0.35828161409522893361,-4.455011,-16.57805,19.239206,-2.2719226,-9.532702,-0.36923591409522893372,-3.4129345,-15.628152,11.125855,-2.263701,-9.531195,-0.44987181409522893390,-2.8209682,-13.328521,-0.85054016,-2.3673303,-9.174796,2.52770071409522893394,-3.9318779,-13.191453,-6.160281,-2.4551845,-9.187401,2.39460781409522893400,-5.3833623,-13.300987,-3.721188,-2.5951064,-9.279304,1.82492911409522893426,-6.5164185,-11.871051,-4.4993033,-2.735236,-9.299836,1.4838841409522893427,-6.4386067,-10.256162,-7.3190746,-2.9604602,-9.29448,1.00929841409522893432,-4.56694,-10.257359,-8.732851,-3.1831882,-9.266041,0.422125941409522893470,-3.181894,-9.633669,-8.041525,-3.2899494,-9.235916,-0.210821121409522893472,-2.2583308,-8.628104,-6.6624646,-3.3109827,-9.197536,-0.78300011409522893474,-1.8309658,-10.00896,-5.479729,-3.2756872,-9.162406,-1.22088651409522893475,-1.0384849,-13.918093,-4.9655743,-3.1812997,-9.1530075,-1.50738261409522893498,0.55246204,-19.17636,-4.2491093,-2.9633577,-9.197288,-1.67294591409522893499,3.915717,-19.608511,2.7934349,-2.5638604,-9.307995,-1.71994961409522893501,10.5362835,-19.608511,4.5675383,-1.9979619,-9.516003,-1.27444711409522893533,7.771579,-19.315222,1.2814964,-2.2899618,-9.482807,-1.00140881409522893534,3.1232362,-15.295956,-2.212841,-0.3615759,-9.782741,-0.581075131409522893535,1.9548657,-12.856863,-5.715558,-0.01963789,-9.787066,-0.61912821409522893581,3.2680852,-10.418368,-8.223484,0.19597091,-9.761546,-0.918795651409522893581,3.6768951,-9.330204,-4.405331,0.38867608,-9.696948,-1.41015031409522893582,4.3760023,-8.653842,-0.92416185,0.600541,-9.6539955,-1.61558181409522893582,5.4641666,-8.359954,-0.32920274,0.8133637,-9.639985,-1.60608911409522893583,5.1601033,-7.2221093,-2.7353754,1.1361221,-9.619665,-1.53024611409522893614,2.8550856,-4.9601874,-10.243592,1.4474624,-9.560839,-1.63265971409522893621,1.903989,-3.1142578,-9.445126,1.5934278,-9.386609,-2.3500891409522893623,2.6324248,-2.5025394,-2.5917234,1.7010949,-9.171074,-3.02788021409522893624,2.006341,-3.5763388,-1.5634137,1.8937136,-9.077114,-3.1922121409522893649,1.4478935,-4.2796354,-2.9299042,1.9670656,-9.038657,-3.25633881409522893651,1.5310919,-4.477157,-3.9857473,1.9805232,-8.974204,-3.42222141409522893656,1.8154035,-4.538808,-3.5302503,2.0032015,-8.8821535,-3.6421011409522893671,2.6659436,-4.1742907,-0.98341835,2.074007,-8.801907,-3.79411651409522893685,3.6044707,-4.0581717,0.2208651,2.2660122,-8.790847,-3.70899371409522893685,5.0092683,-3.5488055,-0.31483752,2.57882,-8.792431,-3.4947431409522893706,5.9807158,-3.228581,-1.2419921,3.0663922,-8.696663,-3.33701851409522893706,6.588843,-3.1860838,-1.4221559,3.6546235,-8.492217,-3.27052621409522893712,6.735488,-2.7563248,-2.1751323,4.270548,-8.23274,-3.18665311409522893720,6.6630635,-2.2373815,-3.4542346,4.8428764,-7.896287,-3.2195631409522893736,6.55712,-2.255338,-4.51307,5.347045,-7.4811335,-3.40766221409522893756,6.2626333,-2.473809,-4.8099513,5.749515,-7.030885,-3.69866061409522893757,6.0704985,-2.973,-4.272453,6.051464,-6.6082177,-3.98517971409522893776,6.576872,-4.2742486,-2.2960393,6.2782645,-6.2711987,-4.17442461409522893776,6.600814,-8.523956,10.468048,6.5038166,-6.109893,-4.06693741409522893781,-1.3958195,-17.307684,19.608511,6.7919908,-6.689576,-2.2997471409522893817,-14.717158,-19.608511,17.002424,6.897654,-6.5269856,-2.4476931409522893818,-19.60911,-19.608511,18.520947,6.9920163,-6.3750787,-2.57691221409522893819,-19.60911,-19.608511,13.986328,7.014513,-6.285683,-2.7307811409522893823,-2.4241292,-13.961188,1.6364368,6.9504313,-6.242204,-2.98274761409522893844,