time,acc_x,acc_y,acc_z,gravity_x,gravity_y,gravity_z1409346821919,-1.3856442,-10.03769,0.37948096,-0.5152283,-9.758463,-0.82300951409346821931,-1.7393875,-9.964667,0.29448682,-0.5924457,-9.763636,-0.700573271409346821956,-1.9153614,-9.902418,0.15143326,-0.69892454,-9.763797,-0.59172861409346821957,-1.9554642,-9.776723,0.007781155,-0.81448394,-9.759355,-0.5118561409346821959,-1.9422961,-9.710882,-0.1388637,-0.92640656,-9.752811,-0.441384731409346821987,-1.882441,-9.725846,-0.30705637,-1.0280206,-9.744812,-0.390179281409346821988,-1.8315643,-9.784504,-0.4878186,-1.1124802,-9.736684,-0.360197541409346821991,-1.7956513,-9.92636,-0.6290765,-1.1802552,-9.728925,-0.354098561409346822003,-1.8590976,-10.172364,-0.7404069,-1.2338105,-9.72183,-0.366222051409346822024,-1.7782934,-10.352529,-0.8655039,-1.2823585,-9.714536,-0.392122181409346822025,-1.5304934,-10.392631,-1.0187328,-1.3161045,-9.708345,-0.431635261409346822033,-1.1773487,-10.3226,-1.1336545,-1.3259978,-9.704604,-0.48248831409346822054,-0.91219085,-10.214263,-1.1875241,-1.3060261,-9.703893,-0.546939971409346822054,-0.7679402,-10.179547,-1.2216414,-1.2653877,-9.705099,-0.61661891409346822059,-0.6769605,-10.187927,-1.264737,-1.2125752,-9.707167,-0.68627781409346822082,-0.5919664,-10.152014,-1.2916719,-1.1545519,-9.7091465,-0.75491631409346822083,-0.52133745,-10.032304,-1.258153,-1.0937282,-9.711104,-0.81767921409346822103,-0.46208093,-9.974244,-1.2683283,-1.0339199,-9.713281,-0.86810071409346822104,-0.40462008,-9.979631,-1.3078327,-0.9754823,-9.715527,-0.90958411409346822111,-0.37708676,-9.939528,-1.3754689,-0.9171081,-9.717539,-0.94802971409346822131,-0.39683893,-9.938332,-1.4030021,-0.8612109,-9.719099,-0.983766261409346822133,-0.46986207,-9.909601,-1.4161704,-0.812126,-9.720207,-1.01409181409346822147,-0.5009867,-9.84795,-1.4047978,-0.7751301,-9.720465,-1.04026271409346822163,-0.55844754,-9.841366,-1.4377182,-0.74663144,-9.720209,-1.06324361409346822164,-0.7745243,-10.044873,-1.5011644,-0.72740185,-9.718874,-1.08847631409346822181,-0.88525605,-9.994595,-1.5388732,-0.7288155,-9.715517,-1.1171191409346822181,-0.93493575,-9.967062,-1.5945383,-0.741184,-9.71067,-1.15061311409346822197,-0.985214,-9.962872,-1.638831,-0.7577844,-9.704788,-1.188811409346822199,-1.0163386,-9.946113,-1.6885108,-0.77706254,-9.698002,-1.2309971409346822215,-1.0480618,-9.832987,-1.6579847,-0.79784286,-9.69038,-1.276871409346822228,-1.0588357,-9.713276,-1.5969325,-0.82060474,-9.682971,-1.31798671409346822231,-1.0564415,-9.66659,-1.5251064,-0.84308547,-9.676454,-1.35124421409346822245,-1.1043255,-9.69113,-1.4891934,-0.86428696,-9.671411,-1.37377261409346822263,-1.1420342,-9.746197,-1.4682442,-0.88763946,-9.667431,-1.38682731409346822263,-1.1833342,-9.913192,-1.4562732,-0.91227883,-9.663831,-1.39589251409346822280,-1.2419921,-10.072407,-1.483208,-0.93639505,-9.661199,-1.39813841409346822282,-1.3341689,-10.165182,-1.4921862,-0.962446,-9.658539,-1.39883581409346822300,-1.4562732,-10.199299,-1.4550761,-0.99434364,-9.655294,-1.39893191409346822309,-1.5400703,-10.19092,-1.4173675,-1.0350871,-9.651464,-1.39578891409346822336,-1.5885528,-10.065224,-1.3359646,-1.0794301,-9.647373,-1.39047361409346822337,-1.5939398,-9.794679,-1.2641385,-1.1247183,-9.643771,-1.3795241409346822339,-1.5999253,-9.77373,-1.2012907,-1.1693516,-9.64044,-1.36563311409346822340,-1.602918,-9.883265,-1.2282255,-1.2099746,-9.637855,-1.34837151409346822356,-1.5340848,-9.961675,-1.2330139,-1.2459394,-9.635311,-1.33370711409346822368,-1.4664485,-10.117298,-1.2078748,-1.2700667,-9.633936,-1.32083391409346822373,-1.3802572,-10.293272,-1.2012907,-1.2832372,-9.634092,-1.30689281409346822380,-1.198298,-10.355521,-1.1540052,-1.2846429,-9.635596,-1.29435711409346822401,-1.0540473,-10.469844,-1.1055226,-1.2684972,-9.639656,-1.2799841409346822402,-0.9367314,-10.525509,-0.97862995,-1.2388322,-9.646212,-1.25947751409346822411,-0.770933,-10.402806,-0.88286185,-1.2017007,-9.654655,-1.23042121409346822443,-0.5422867,-10.308235,-0.8230068,-1.1546181,-9.66469,-1.19625341409346822444,-0.34356794,-10.342353,-0.91219085,-1.0921546,-9.676442,-1.1593441409346822445,-0.17537527,-10.25257,-1.1324574,-1.0165809,-9.68789,-1.13212981409346822463,-0.11252748,-9.929952,-1.4514848,-0.9319056,-9.696927,-1.12762241409346822463,-0.3393781,-9.703101,-1.7495629,-0.84994626,-9.700983,-1.15712331409346822480,-0.76075757,-9.789292,-1.79206,-0.79643536,-9.698656,-1.21333241409346822481,-0.9355343,-9.764751,-1.423353,-0.7893366,-9.692334,-1.26727831409346822496,-1.0043676,-9.64564,-1.3640964,-0.80143124,-9.690077,-1.27691381409346822500,-1.1348516,-9.61691,-1.412579,-0.8255112,-9.687195,-1.28342451409346822514,-1.2659341,-9.639654,-1.2737153,-0.8634382,-9.681837,-1.29881351409346822531,-1.377863,-9.686341,-1.1737574,-0.9085154,-9.676687,-1.30642151409346822531,-1.5310919,-9.789292,-1.0163386,-0.956917,-9.671642,-1.30922631409346822545,-1.4772224,-9.567828,-0.7918822,-1.0113422,-9.667657,-1.2976941409346822562,-1.3174095,-9.519346,-0.56922144,-1.0576606,-9.667384,-1.26230591409346822563,-1.2138603,-9.625289,-0.44232875,-1.0876652,-9.670302,-1.213521409346822578,-1.2695254,-9.7803135,-0.46686932,-1.1028897,-9.676172,-1.1513991409346822580,-1.3138182,-9.993398,-0.45010993,-1.1172549,-9.681505,-1.09113351409346822595,-1.4083891,-10.213066,-0.42317516,-1.1306998,-9.686693,-1.02951871409346822600,-1.4718355,-10.149619,-0.37588966,-1.1503011,-9.69064,-0.968846741409346822613,-1.6729485,-10.096947,-0.2621651,-1.1757641,-9.6932,-0.91096931409346822627,-1.6340426,-9.881469,-0.23104046,-1.2186648,-9.69348,-0.84954051409346822633,-1.5275006,-9.709086,-0.2693477,-1.2565424,-9.693405,-0.7933461409346822648,-1.3970166,-9.636064,-0.35314476,-1.2815771,-9.693814,-0.74695371409346822676,-1.1887212,-9.679159,-0.45669398,-1.2928473,-9.694991,-0.7113941409346822677,-0.9427169,-9.709685,-0.6027403,-1.2811397,-9.69829,-0.68721381409346822678,-0.7188591,-9.721656,-0.7697359,-1.2449797,-9.703662,-0.67778421409346822680,-0.4225766,-9.667787,-0.9600749,-1.1888946,-9.71018,-0.68508461409346822704,-0.12330139,-9.688736,-1.0534488,-1.1092526,-9.71781,-0.710018341409346822705,0.30226797,-9.695918,-1.0911574,-1.0656644,-9.719723,-0.749491451409346822711,0.7410054,-9.569026,-1.1438298,-1.0108234,-9.722932,-0.78310071409346822732,0.94570965,-9.55047,-1.198298,-0.94363725,-9.727246,-0.8128011409346822733,0.9235633,-9.612122,-1.3138182,-0.8683511,-9.7317915,-0.841779771409346822746,0.74758947,-9.774927,-1.5610195,-0.7868509,-9.735891,-0.873874551409346822760,0.44831428,-9.931747,-2.0045455,-0.70030105,-9.739056,-0.91146121409346822761,0.077213004,-9.855133,-2.5121162,-0.6141405,-9.740673,-0.95525611409346822778,-0.427365,-9.867104,-3.040636,-0.5372256,-9.740575,-1.0014821409346822780,-0.94570965,-10.143036,-3.78643,-0.47377604,-9.738409,-1.05325561409346822796,-1.6897079,-10.639234,-3.8552632,-0.4259537,-9.734162,-1.11131311409346822800,-2.8173769,-11.4377,-3.0292637,-0.39755058,-9.7291975,-1.16406581409346822812,-3.3452983,-11.991958,-2.8072014,-0.40013477,-9.724466,-1.2020941409346822828,-3.5511997,-12.45344,-2.6737247,-0.42073214,-9.71711,-1.25346971409346822831,-3.6834793,-13.013683,-2.3110032,-0.45486093,-9.70828,-1.30875241409346822845,-3.8115692,-13.2985935,-2.1039047,-0.50431204,-9.700133,-1.35035571409346822861,-3.8947675,-13.282433,-1.9237411,-0.5666735,-9.692026,-1.38342961409346822862,-3.9474401,-13.051392,-1.7878702,-0.63254035,-9.684224,-1.4092851409346822877,-4.175488,-12.927492,-1.7304093,-0.70168316,-9.676001,-1.43285551409346822880,-4.431069,-13.065757,-1.560421,-0.7752999,-9.665989,-1.46216551409346822893,-4.7979803,-13.332112,-1.1019313,-0.84774995,-9.654338,-1.4985021409346822921,-5.099051,-13.4608,-0.46387658,-0.9191356,-9.641758,-1.5369071409346822922,-5.2355204,-13.400347,0.27114335,-0.9900641,-9.628306,-1.57665431409346822923,-5.1182046,-13.178285,1.340753,-1.0593506,-9.613662,-1.62038471409346822932,-5.036802,-13.0759325,3.1956608,-1.1207383,-9.600933,-1.65420871409346822955,-5.137358,-13.241731,5.177461,-1.1813785,-9.591649,-1.66582641409346822956,-5.3025584,-13.29141,6.506243,-1.2461941,-9.588237,-1.63803351409346822960,-5.2558713,-12.914324,7.627328,-1.3158964,-9.59058,-1.56830641409346822980,-4.4262805,-12.265495,8.774151,-1.3889563,-9.59943,-1.44641761409346822981,-3.8367083,-11.845313,6.2099605,-1.456529,-9.616278,-1.25542691409346822995,-3.8241386,-10.985794,3.4865563,-1.51872,-9.630488,-1.05714731409346823017,-2.9227216,-10.664971,2.0440497,-1.5890085,-9.641355,-0.83049591409346823018,-2.72939,-11.729793,1.9015948,-1.6596348,-9.647026,-0.592383151409346823020,-2.89459,-11.856686,0.22685061,-1.7436519,-9.644815,-0.328038721409346823051,-2.2409728,-11.401189,-3.815759,-1.8403718,-9.632105,-0.0772857441409346823052,-1.5352819,-11.212646,-6.4338183,-1.9373964,-9.612754,0.1088007241409346823053,-0.866701,-10.885238,-7.460931,-2.0376208,-9.590068,0.22154791409346823060,0.52612585,-11.5316725,-6.5708866,-2.1398606,-9.565998,0.28821921409346823087,2.3439236,-11.760918,-5.609016,-2.2263224,-9.543648,0.364255341409346823088,1.9309237,-12.873024,-2.0697873,-2.2842174,-9.524999,0.476604131409346823094,0.919972,-15.017032,1.204882,-2.330823,-9.502942,0.65706411409346823120,-0.635062,-16.511612,2.1254525,-2.3324866,-9.482458,0.90160231409346823122,-1.8632874,-16.1866,0.9127894,-2.3010437,-9.462009,1.16015631409346823123,-2.160767,-14.450204,-2.408567,-2.2743163,-9.438197,1.3850331409346823132,-2.5821466,-12.944251,-5.6664767,-2.293255,-9.411987,1.52508471409346823151,-2.6779146,-11.52449,-6.5391636,-2.3902082,-9.380204,1.57133331409346823154,-1.6879122,-10.268731,-5.0038815,-2.5460496,-9.339426,1.56944531409346823160,-0.25139117,-9.668385,-2.955642,-2.706385,-9.291449,1.58583321409346823179,0.6787562,-9.526528,-2.2296004,-2.8614337,-9.240608,1.61051061409346823180,0.80445176,-9.41041,-2.3463178,-2.9873304,-9.192809,1.65484011409346823197,0.7793127,-8.97646,-2.4366987,-3.0715253,-9.151587,1.7275991409346823219,0.7553706,-8.164826,-3.0969,-3.1228118,-9.116339,1.81955461409346823220,1.2324153,-6.542156,-3.5703533,-3.1696603,-9.081718,1.90946271409346823221,1.4700398,-5.6203885,-4.200627,-3.232773,-9.040496,1.99725341409346823251,1.2437878,-5.2103815,-4.1677065,-3.306215,-8.996516,2.07413961409346823252,1.1677719,-4.7884035,-2.8616695,-3.3856866,-8.949949,2.14614061409346823253,1.1881226,-4.5322237,-1.8650831,-3.454352,-8.903823,2.2270531409346823260,1.4748282,-4.522647,-1.6328455,-3.5027268,-8.862061,2.31628631409346823280,1.9871874,-4.3927617,-2.4498668,-3.5318704,-8.825856,2.40843151409346823280,2.7341783,-4.2293572,-2.2679076,-3.5490952,-8.793635,2.49925371409346823297,3.1609447,-4.255095,-2.2421699,-3.56043,-8.763313,2.58806441409346823326,3.6242228,-4.553173,-2.529474,-3.56784,-8.737551,2.6638521409346823328,3.5733461,-5.060744,-2.556409,-3.5674515,-8.718043,2.72752641409346823329,3.040636,-5.450999,-2.404377,-3.5592139,-8.707905,2.77033951409346823351,2.432509,-5.6407394,-1.9877859,-3.545112,-8.70722,2.79050471409346823352,1.7052702,-5.6179943,-1.5777789,-3.5236237,-8.714625,2.7945981409346823353,0.7404069,-5.6126075,-0.6326678,-3.4960086,-8.728064,2.787331409346823360,-0.19393034,-5.7466826,1.0354922,-3.4661753,-8.745639,2.76944111409346823378,-1.7651252,-6.619968,5.005079,-3.4351022,-8.767452,2.73902321409346823380,-4.857237,-9.085397,10.4171715,-3.403652,-8.784071,2.7250051409346823395,-8.962095,-12.564771,12.395381,-3.382787,-8.778497,2.7685961409346823422,-11.376648,-14.58428,9.094376,-3.4089978,-8.7466345,2.83646561409346823424,-10.96664,-14.326304,3.9264908,-3.486676,-8.723311,2.81377221409346823425,-10.293272,-14.231733,1.3880384,-3.5886807,-8.725497,2.67534541409346823451,-10.420763,-14.501081,1.0432734,-3.6948066,-8.742016,2.46899941409346823452,-9.007586,-13.880384,1.7124528,-3.7795527,-8.766619,2.2431631409346823454,-6.7785835,-12.034455,3.0304608,-3.823885,-8.794001,2.05276661409346823461,-4.666898,-10.092757,3.763685,-3.8377168,-8.818506,1.91736131409346823480,-3.0681696,-9.039907,3.3476925,-3.8458414,-8.8329935,1.83251771409346823482,-1.6220716,-8.656835,1.8501194,-3.8373902,-8.841138,1.81083921409346823507,0.587178,-10.3932295,0.6781576,-3.8011885,-8.850678,1.84034321409346823508,3.144784,-14.783597,-0.91099375,-3.7159195,-8.875071,1.8961721409346823514,4.2293572,-18.340183,-3.1352072,-3.5456033,-8.937313,1.92964211409346823541,-2.1080947,-17.555485,2.52289,-3.307313,-9.031713,1.91318251409346823544,-7.2723875,-15.938201,16.027983,-3.164812,-9.070589,1.96946231409346823545,-0.14963761,-11.2844715,7.48607,-3.076593,-9.0880165,2.02803521409346823572,6.3548098,-9.132084,-2.3732524,-1.8407477,-9.294181,2.52986961409346823572,4.8985367,-8.697536,-4.4993033,-1.2608365,-9.480791,2.16685721409346823574,5.1762643,-7.563882,-2.7569232,-0.8494725,-9.611087,1.75378861409346823582,5.9250507,-6.1758432,-0.9708488,-0.37268355,-9.692113,1.44721831409346823595,5.9160724,-5.8651958,-0.47165772,0.18742548,-9.726117,1.24012371409346823610,4.8787847,-6.417059,-1.4676456,0.7278677,-9.7185545,1.09099641409346823612,3.09271,-7.5345526,-2.8101943,1.1638471,-9.69838,0.87021021409346823630,2.0799627,-8.062474,-3.3961751,1.4073893,-9.690922,0.52507021409346823644,2.0685902,-7.908048,-3.2423477,1.5370901,-9.684385,0.142854231409346823644,2.1458032,-7.788338,-2.813187,1.643927,-9.665723,-0.2041771409346823659,1.7657237,-8.286931,-2.2505496,1.7339802,-9.639884,-0.48611211409346823661,1.3395559,-9.445126,-1.8321629,1.7691038,-9.621338,-0.68594261409346823677,0.8738836,-10.96664,-1.7172412,1.7483801,-9.615163,-0.81376321409346823681,-0.05925649,-12.836513,-2.0697873,1.6645374,-9.621886,-0.90500941409346823698,-1.0486604,-14.077906,-2.5061307,1.4600074,-9.646575,-0.991144241409346823701,-1.7046716,-13.805566,-2.4690206,1.1912054,-9.674241,-1.07726361409346823713,-1.460463,-12.287642,-2.0326772,0.8949624,-9.699226,-1.13772431409346823724,-1.1965023,-10.884041,-1.7938557,0.6598767,-9.716734,-1.14894561409346823742,-1.7621324,-10.435128,-2.224812,0.47152972,-9.72786,-1.14751471409346823743,-2.3373394,-10.328587,-2.7940333,0.25442865,-9.730059,-1.19651161409346823765,-2.529474,-10.186729,-2.8389246,0.014210604,-9.719446,-1.30481121409346823766,-2.0901382,-9.48044,-2.180519,-0.22192484,-9.701585,-1.41435381409346823773,-1.0366893,-8.484452,-1.3006501,-0.40226302,-9.685283,-1.48454331409346823802,-1.7699136,-8.946533,-1.5388732,-0.48884618,-9.678615,-1.50193831409346823803,-3.7858315,-9.870695,-1.5981296,-0.63328505,-9.664774,-1.53670111409346823804,-6.4906807,-10.097546,-0.60812724,-0.93027973,-9.638758,-1.54898771409346823838,-5.271434,-9.157822,0.8535329,-1.4434143,-9.589878,-1.45642141409346823840,-3.83192,-8.732252,1.0630256,-1.8289251,-9.547134,-1.29524591409346823841,-2.8634653,-8.751406,0.8182184,-2.062405,-9.51605,-1.16690441409346823842,-2.259528,-9.015965,0.54767364,-2.153313,-9.5098095,-1.04745361409346823885,-1.9728222,-9.408614,0.3453636,-2.177467,-9.516553,-0.92965751409346823887,-1.7633295,-9.689933,-0.28431144,-2.1415927,-9.533589,-0.83345111409346823888,-1.5269021,-9.856929,-0.6859388,-2.0807724,-9.550247,-0.79597091409346823890,-1.1988965,-9.880272,-0.7350199,-2.008019,-9.56543,-0.80051881409346823894,-0.92296475,-9.969456,-0.7134721,-1.9177758,-9.582613,-0.81611091409346823915,-0.6967127,-10.065823,-0.6997054,-1.8093677,-9.602154,-0.83379331409346823916,-0.74399817,-10.075998,-0.59615624,-1.690473,-9.623182,-0.84084731409346823921,-0.9355343,-10.060435,-0.4830302,-1.584489,-9.640803,-0.845415651409346823943,-0.93972415,-10.25257,-0.29807812,-1.5093607,-9.653618,-0.83660061409346823944,-0.89543146,-10.586561,-0.089782566,-1.4447119,-9.665921,-0.80819681409346823966,-0.8523358,-10.907983,0.110133275,-1.3825244,-9.679112,-0.75750721409346823967,-0.9127894,-11.243171,0.25977087,-1.3180782,-9.692972,-0.69235541409346823973,-1.0372878,-11.7148285,0.44711718,-1.258869,-9.705878,-0.61774341409346824010,-1.620276,-12.616844,0.65242,-1.209294,-9.717104,-0.53466341409346824011,-2.1799207,-12.569559,1.1779473,-1.2094024,-9.721826,-0.440262351409346824012,-2.5737667,-11.860276,2.6431987,-1.2571977,-9.720751,-0.311172131409346824016,-3.0705638,-11.173141,4.1515455,-1.3434789,-9.713969,-0.065200531409346824022,-4.4819455,-11.892598,5.218761,-1.4774103,-9.690438,0.288188251409346824052,-6.2099605,-13.049597,6.2422824,-1.7090237,-9.632447,0.68236141409346824053,-8.304289,-13.792996,7.4441714,-2.0266037,-9.5334015,1.08513121409346824056,-9.650429,-13.78701,6.1943984,-2.443295,-9.376018,1.5135991409346824062,-8.880095,-12.727576,1.6178818,-2.8935442,-9.20272,1.7628821409346824093,-6.8067155,-12.291233,-1.5867572,-3.2591984,-9.087966,1.7195611409346824095,-5.297171,-12.572552,-2.6426,-3.462449,-9.051776,1.49905171409346824099,-6.751649,-13.274053,-2.4881742,-3.5185523,-9.069024,1.24216721409346824121,-7.3645644,-13.105262,1.335366,-3.6144187,-9.062051,0.9927781409346824123,-6.6971807,-14.339473,6.5283895,-3.7241619,-9.015295,1.01266281409346824124,-5.0583496,-13.530831,4.537611,-3.7448144,-8.962626,1.34836131409346824162,-3.0550013,-12.209231,-0.4213795,-3.717503,-8.947921,1.51171051409346824163,-2.5552118,-12.410943,-1.3628993,-3.6261854,-9.011162,1.34912431409346824164,-2.380435,-12.768876,-3.8217444,-3.5109787,-9.074281,1.22508451409346824166,-1.5191209,-11.98657,-6.739079,-3.3801954,-9.159273,0.923249841409346824188,-0.825401,-10.78109,-7.350199,-3.2197676,-9.254574,0.395396441409346824189,-0.3645172,-10.88823,-6.7067575,-3.056565,-9.316248,-0.187955981409346824194,0.2861071,-12.060791,-5.713164,-2.855101,-9.355354,-0.704358161409346824210,0.78290397,-14.510059,-4.3568487,-2.590984,-9.396512,-1.0783011409346824215,1.8369513,-17.97447,-2.565387,-2.276201,-9.454077,-1.26876061409346824230,3.6768951,-19.608511,0.9163807,-1.8777095,-9.53908,-1.28473291409346824235,5.3408656,-19.608511,2.570774,-1.3943167,-9.6515,-1.03673521409346824246,5.775413,-18.131289,1.3383588,-0.86078185,-9.743062,-0.7086341409346824285,3.643975,-12.901754,-0.01436521,-0.35723844,-9.787625,-0.495149081409346824286,1.6136919,-11.183316,-2.8419175,-0.03634323,-9.798261,-0.40394821409346824288,-0.30645782,-10.478224,-6.2207346,0.12040713,-9.791239,-0.536220671409346824290,-1.4981717,-9.701305,-6.7043633,0.109508425,-9.763261,-0.914950971409346824296,-1.6813282,-9.239823,-5.6748567,0.005844927,-9.717171,-1.32173261409346824319,-1.0869676,-8.635287,-5.345654,-0.13148148,-9.664692,-1.65735361409346824320,-0.54288524,-7.9170265,-4.282628,-0.23067105,-9.605588,-1.96210651409346824322,-0.013766659,-7.1580644,-3.4051533,-0.29835224,-9.557622,-2.17561151409346824353,-0.57400984,-6.7761893,-3.008913,-0.30503276,-9.5215645,-2.3274821409346824355,-1.762731,-6.5008564,-2.6940753,-0.33501258,-9.490258,-2.44809821409346824356,-2.0350714,-5.9759274,-2.3654714,-0.45355743,-9.460235,-2.54336241409346824362,-0.5710171,-5.571307,-2.3774424,-0.6020926,-9.433251,-2.61182981409346824382,0.98461545,-5.379173,-3.1794999,-0.6229244,-9.410951,-2.6863271409346824383,2.1086931,-5.0332108,-3.8953662,-0.49244916,-9.3773365,-2.82726811409346824393,2.7647045,-4.4921207,-4.832696,-0.24824704,-9.319591,-3.04204131409346824413,3.2788591,-4.0677485,-4.022857,0.058532268,-9.210677,-3.36606811409346824416,3.8385038,-3.8618474,-2.48159,0.4085779,-9.102809,-3.62523941409346824422,4.260482,-3.927688,-2.2481554,0.8154551,-9.031085,-3.73428941409346824452,4.9787426,-4.5082817,-3.3716345,1.2671056,-8.947606,-3.80856471409346824453,5.183447,-4.7177744,-3.2513258,1.7767987,-8.798172,-3.95038561409346824454,5.026028,-4.8219223,-1.4814123,2.283161,-8.634527,-4.05000161409346824462,3.9803603,-5.591658,0.533907,2.7633333,-8.546355,-3.93626761409346824477,2.3295584,-6.8611836,3.7738605,3.08946,-8.592014,-3.5781141409346824492,0.79367787,-7.9691005,6.131551,3.1798444,-8.839503,-2.81463431409346824494,-1.8195933,-9.589975,8.792706,3.0300522,-9.161841,-1.74637541409346824508,-7.103596,-13.119028,11.201273,2.4755802,-9.482222,-0.359685541409346824525,-10.362703,-16.068087,13.224373,1.2011273,-9.66642,1.13490051409346824526,-11.618463,-16.391304,8.301296,1.2286761,-9.674671,1.03027211409346824543,-10.257957,-14.547768,4.099472,-1.3517247,-9.315113,2.75171181409346824544,-8.849568,-12.805986,3.1262288,-2.1797109,-9.187697,2.64678861409346824556,-8.366538,-11.414356,1.6525977,-2.7515545,-9.074074,2.5020981409346824562,-6.8683662,-9.694122,0.47524905,-3.16447,-8.992699,2.29954171409346824574,-7.837419,-9.514558,1.4670471,-3.4206047,-8.946247,2.10583161409346824591,-6.259042,-8.924387,3.3075895,-3.733746,-8.841252,2.01538731409346824595,-4.9506106,-7.872135,2.9933507,-3.904114,-8.745234,2.1093081409346824608,-3.8612487,-6.7103486,1.6124948,-3.9972699,-8.679143,2.2056061409346824624,-1.8004397,-6.7570357,-0.3609259,-4.0328665,-8.64905,2.25839141409346824625,1.7830818,-10.600926,-1.7106571,-3.9094815,-8.73159,2.15538021409346824641,4.675277,-16.985664,-4.642956,-3.3870022,-9.016226,1.84561251409346824642,5.501277,-19.608511,-6.5044475,-2.4978337,-9.409748,1.1780791409346824659,2.3756466,-19.568409,-2.759916,-1.6074215,-9.664072,0.438530531409346824662,-4.1491513,-19.608511,11.009138,-1.1183406,-9.741496,0.15160891409346824674,-2.4486697,-18.305468,11.966819,-1.0132933,-9.752372,0.186724931409346824689,4.146757,-13.889961,4.533421,-0.8863918,-9.765834,0.1146937161409346824693,7.091625,-10.415975,-0.44352585,-0.7736346,-9.623837,1.71861451409346824707,5.1744685,-7.680599,-1.8441339,-0.2570245,-9.666038,1.6346431409346824725,4.301183,-5.959168,-0.7721301,0.10927579,-9.700694,1.43351891409346824726,4.426879,-5.533599,-0.53809685,0.44310412,-9.711391,1.28954151409346824742,4.134786,-5.683236,-1.6490064,0.8006027,-9.702715,1.17761031409346824743,2.634819,-6.523601,-3.2782607,1.1376734,-9.691573,0.974418161409346824755,1.6448165,-7.143699,-4.144363,1.3402148,-9.695353,0.61186351409346824762,1.5316905,-7.4148426,-4.086902,1.43454,-9.699634,0.171963421409346824775,1.7824832,-7.7063365,-3.6116533,1.4960014,-9.6888,-0.243978861409346824789,1.8710686,-8.375516,-2.903568,1.5655805,-9.663108,-0.58623921409346824794,1.726818,-9.442133,-2.195483,1.6319369,-9.634249,-0.829727351409346824815,1.282095,-10.621277,-1.8632874,1.6701921,-9.614697,-0.96872411409346824816,0.3585317,-12.428301,-2.0907366,1.6486647,-9.609532,-1.05317341409346824822,-1.2084733,-14.569915,-2.765303,1.5006249,-9.626109,-1.12095171409346824850,-2.3786395,-15.157691,-3.1669302,1.2202497,-9.655581,-1.20462831409346824851,-2.7910407,-13.822924,-3.2118216,0.8620351,-9.683283,-1.28891351409346824854,-2.7790697,-11.959038,-2.7611132,0.5053335,-9.6980505,-1.36485541409346824874,-2.5342624,-10.301651,-2.3361423,0.17897125,-9.701952,-1.41792011409346824875,-2.167351,-9.485827,-2.64679,-0.09962416,-9.696058,-1.46524041409346824889,-0.7110779,-8.851364,-2.956839,-0.3203896,-9.676722,-1.55845931409346824913,-0.46567222,-8.228272,-3.7367504,-0.3799521,-9.652853,-1.68773221409346824914,-4.841076,-9.512163,-2.8281507,-0.4132552,-9.609297,-1.9133811409346824916,-4.646547,-8.42759,-1.4550761,-0.81189305,-9.561122,-2.0238961409346824922,-3.887585,-7.559692,-0.40222588,-1.1406518,-9.513294,-2.08962731409346824950,-3.4171243,-7.8068933,-0.12808979,-1.3970506,-9.47617,-2.1025751409346824951,-3.052607,-8.824429,-0.33159694,-1.6094118,-9.459419,-2.02472951409346824955,-2.3702598,-9.446322,-0.38606504,-1.7612399,-9.4617,-1.88272191409346824976,-1.7579426,-9.511565,-0.97982705,-1.8211154,-9.481234,-1.72051191409346824977,-1.2808979,-9.620501,-1.4562732,-1.8121641,-9.495703,-1.64865521409346824989,-0.6835446,-9.667787,-1.2539631,-1.7521672,-9.51119,-1.62405371409346825007,-0.5979519,-9.837775,-0.8774749,-1.4552929,-9.583821,-1.48421011409346825008,-1.0450691,-9.967062,-0.53809685,-1.4552929,-9.583821,-1.48421011409346825025,-1.5717934,-9.934141,-0.5117606,-1.4552929,-9.583821,-1.48421011409346825026,-1.5562311,-9.746795,-0.58119243,-1.452149,-9.5938425,-1.42122381409346825037,-1.5502456,-9.766547,-0.51116204,-1.4612033,-9.599995,-1.36943421409346825042,-1.7579426,-9.973047,-0.37110126,-1.471151,-9.606911,-1.30896011409346825054,-2.1272483,-10.159196,-0.16220717,-1.5066476,-9.610268,-1.24224271409346825070,-2.4378958,-10.444106,0.16340427,-1.5669135,-9.611083,-1.15856181409346825076,-2.5875335,-10.989386,0.6254852,-1.6410589,-9.611645,-1.04576541409346825092,-3.056797,-12.0727625,0.9756372,-1.711946,-9.614458,-0.89545031409346825113,-3.6403837,-13.514071,2.2499511,-1.8012787,-9.612634,-0.72323061409346825114,-3.615843,-13.929465,5.8125234,-1.9080789,-9.608291,-0.458656461409346825116,-3.3889925,-13.327922,7.104195,-1.9989253,-9.600504,0.070688081409346825122,-3.8774097,-13.216592,5.7107697,-2.065501,-9.566689,0.61852331409346825147,-4.84766,-13.115437,8.769362,-2.1718132,-9.518735,0.9205041409346825148,-7.3472066,-13.164518,13.741521,-2.3418012,-9.42338,1.37341671409346825156,-8.276755,-12.7814455,2.653374,-2.6725385,-9.18693,2.15133241409346825184,-6.5427547,-12.983756,-1.1049241,-3.016102,-9.075324,2.17071461409346825186,-4.0001125,-13.745112,-4.1078515,-3.1642597,-9.0404825,2.10416461409346825188,-4.785411,-15.08347,-3.7684734,-3.0851831,-9.136569,1.78188961409346825224,-5.2899885,-14.876372,-0.2088941,-3.0472617,-9.21843,1.38026641409346825225,-6.7067575,-15.308526,3.341707,-3.0486596,-9.248347,1.15936481409346825226,-8.880095,-14.411897,10.556634,-3.1373692,-9.212947,1.20370831409346825229,-8.5862055,-13.893553,13.22138,-3.3691084,-9.039111,1.76463991409346825251,-5.86759,-12.234969,1.2096704,-3.5575826,-8.805399,2.44519261409346825252,-4.8386817,-11.500547,-4.605247,-3.6947343,-8.767398,2.37740611409346825256,-5.2624555,-12.644977,-4.6142254,-3.8005154,-8.822127,1.97396431409346825276,-5.4049106,-13.387178,-7.294534,-3.847063,-8.890721,1.52497881409346825277,-4.301782,-12.285846,-9.642049,-3.853462,-8.971752,0.91044021409346825293,-2.9029696,-11.011532,-8.681973,-3.8287892,-9.027406,0.129204741409346825294,-1.8884265,-10.721834,-7.587225,-3.7378955,-9.05165,-0.515928751409346825303,-1.146224,-11.950059,-6.667253,-3.5881941,-9.070618,-1.00952771409346825329,-0.19752164,-14.656106,-5.4922986,-3.3865983,-9.102966,-1.35549321409346825330,0.87089086,-18.897434,-2.328361,-3.0895245,-9.175496,-1.56061221409346825335,2.7132292,-19.608511,3.9677908,-2.6718583,-9.317236,-1.49019531409346825343,7.2747817,-18.625093,0.676362,-2.1708653,-9.50946,-1.01385121409346825365,4.3819876,-13.825317,-3.2968156,-1.4364383,-9.6641655,-0.84317231409346825366,1.2467805,-12.06139,-6.0483522,-0.98846567,-9.710276,-0.95071641409346825377,-0.52073884,-10.88464,-6.385336,-0.74247664,-9.698004,-1.25212251409346825398,-0.30945057,-9.507974,-4.2413282,-0.630095,-9.656876,-1.58685181409346825400,0.061650693,-8.579621,-3.503914,-0.5822344,-9.625046,-1.78601921409346825403,0.61770403,-8.082825,-3.8361096,-0.58031976,-9.59549,-1.93911761409346825425,1.0899603,-7.730279,-3.6433764,-0.5485291,-9.5623255,-2.10509751409346825427,0.75836337,-6.9557543,-3.383007,-0.4477546,-9.535649,-2.2452821409346825444,0.10594343,-6.10701,-3.2303767,-0.36191344,-9.505167,-2.38563041409346825445,0.3274071,-5.4563856,-3.570952,-0.3107669,-9.469339,-2.53089981409346825455,0.7565677,-5.0625396,-6.1985884,-0.23781858,-9.421937,-2.70941731409346825470,0.7170634,-5.298967,-8.202535,-0.13690263,-9.299258,-3.11053681409346825474,0.85473,-5.209783,-5.8226986,-0.04805647,-9.101696,-3.65064431409346825487,1.0223241,-4.875193,-3.1860838,0.03581512,-8.964981,-3.9746941409346825512,1.6017209,-4.3676224,-1.9788077,0.096230716,-8.918118,-4.07778641409346825513,2.1739352,-3.940856,-2.0709844,0.23269174,-8.89516,-4.1221831409346825515,2.7156234,-3.5745432,-1.5041572,0.42429656,-8.865442,-4.17064951409346825523,3.3357215,-3.2692823,-1.4131776,0.7209797,-8.85813,-4.14537331409346825548,4.056975,-2.9975405,-2.100912,1.116284,-8.831932,-4.11354351409346825550,4.900931,-2.8628666,-2.569577,1.5980479,-8.730197,-4.1713641409346825557,5.747281,-2.5528176,-3.7672763,2.1798105,-8.55356,-4.2726391409346825582,6.452972,-2.533664,-4.2239704,2.8401406,-8.241983,-4.4915151409346825583,6.4098763,-3.305794,-3.4009635,3.5218027,-7.8538876,-4.6993341409346825585,5.7005944,-4.6842556,-2.368464,4.109213,-7.534084,-4.7457721409346825611,4.68665,-6.1285577,0.85652566,4.5088816,-7.385183,-4.61513761409346825612,2.1877017,-8.1343,3.8055837,4.765579,-7.529756,-4.09419731409346825616,-4.701015,-12.438477,12.1044855,4.6714683,-8.001267,-3.213641409346825623,-16.736069,-18.941727,19.608511,3.5817509,-9.052202,-1.18283091409346825643,-19.60911,-19.608511,19.005173,3.6533418,-8.995294,-1.38136031409346825644,-17.170616,-19.608511,10.760141,3.6745384,-8.951337,-1.59428171409346825654,-11.966819,-16.453552,4.969166,3.661767,-8.924781,-1.76355641409346825671,-8.861539,-10.986992,3.1836896,-3.3003976,-8.65806,3.21181631409346825676,-7.280169,-8.885481,2.345719,-3.7770386,-8.546953,2.97556161409346825690,-5.039196,-8.076241,2.0308816,-4.040608,-8.471666,2.84160421409346825716,-2.8880057,-7.9906483,1.1941081,-4.0857167,-8.457751,2.81846761409346825717,-1.8070238,-8.420407,0.45609543,-3.9933918,-8.520594,2.7609211409346825718,0.35913026,-9.209895,-0.18016368,-3.8169122,-8.636959,2.64661071409346825723,2.480393,-15.118187,-1.5478514,-3.4651706,-8.834175,2.47393731409346825751,2.6312277,-19.433136,-4.8428717,-2.8267684,-9.163196,2.0531971409346825752,1.6693572,-19.025524,-5.2887917,-2.1731124,-9.465963,1.35775471409346825755,-2.594716,-16.878523,-0.54527944,-1.7008871,-9.627326,0.769393741409346825771,-9.5732155,-16.320076,11.41735,-1.6372669,-9.646389,0.66098611409346825774,-2.5061307,-11.45865,3.9097314,-1.521796,-9.662244,0.70395111409346825790,4.4885297,-9.764751,-3.8845923,-2.075242,-9.463726,1.51711611409346825805,5.009867,-10.469246,-3.8863878,-1.6695348,-9.59356,1.1604591409346825806,5.8634,-6.261436,-0.08379706,-1.1765157,-9.703924,0.78743521409346825824,5.9890957,-3.6804867,1.4790181,-0.63693684,-9.757369,0.74730161409346825826,5.989694,-3.7576995,0.75118077,-0.090944886,-9.775494,0.77579561409346825845,4.817134,-5.2121773,-0.7128736,0.46482086,-9.76684,0.75046041409346825846,3.1651347,-6.9437833,-1.9716251,0.93555474,-9.741341,0.633560361409346825856,2.6473885,-7.5004354,-3.1693244,1.2390515,-9.71984,0.399790471409346825877,3.0897174,-7.6345105,-3.6152446,1.460426,-9.697186,0.0463248231409346825878,3.4045548,-8.271967,-3.4344823,1.683822,-9.655401,-0.329216751409346825883,3.2716765,-9.215881,-2.9340942,1.8918066,-9.600244,-0.653288251409346825910,2.9580362,-10.418368,-2.3948002,2.0444784,-9.54999,-0.887803441409346825911,2.3517046,-12.085332,-2.1697452,2.1404295,-9.513333,-1.04184421409346825917,0.97025025,-14.568119,-2.119467,2.1430824,-9.501653,-1.13850491409346825923,-0.7990648,-16.167446,-2.5270798,1.9761972,-9.531881,-1.18670051409346825949,-2.1547816,-15.420455,-2.8526914,1.6570051,-9.586293,-1.23600111409346825950,-2.6623523,-13.311163,-2.847903,1.2749077,-9.637772,-1.28777241409346825955,-2.2930467,-11.39221,-2.4911668,0.90740216,-9.669647,-1.35829771409346825974,-2.1769278,-10.13286,-2.3469162,0.61241937,-9.691689,-1.36619341409346825991,-2.4917655,-9.1255,-2.3570917,0.3413573,-9.702812,-1.38178151409346825992,-2.7114334,-8.805874,-1.9111716,0.07033055,-9.70213,-1.42622671409346826008,-2.6515784,-8.6334915,-1.2826935,-0.1897215,-9.69656,-1.45295981409346826009,-2.4474726,-8.532336,-0.39085343,-0.42425272,-9.690876,-1.44129361409346826015,-2.191293,-8.491036,0.0712275,-0.6282748,-9.691084,-1.36327491409346826023,-3.46022,-8.541314,-2.949058,-0.78495795,-9.696694,-1.23624681409346826042,-8.334216,-9.946711,-3.1040826,-1.063291,-9.646235,-1.41066441409346826043,-8.236053,-9.900622,-1.0887632,-1.7367733,-9.527463,-1.54319051409346826056,-6.7827735,-9.39365,-0.38307226,-2.305216,-9.401914,-1.5685681409346826099,-5.1361613,-8.842984,-1.1246762,-2.7011204,-9.286418,-1.62381761409346826100,-4.1276035,-8.876503,-1.6903064,-2.93011,-9.1995945,-1.71822641409346826102,-3.3446999,-8.996812,-1.8992004,-3.040916,-9.149585,-1.79118731409346826103,-2.2810757,-8.91062,-1.4802152,-3.0587077,-9.134539,-1.83708161409346826104,-1.6047137,-9.100959,-0.61530983,-2.9935257,-9.15779,-1.8286871409346826134,-1.6047137,-9.603143,-0.035913024,-2.863718,-9.218521,-1.72868451409346826135,-2.183512,-10.46745,0.038307227,-2.7337701,-9.285486,-1.57373561409346826143,-2.8431146,-11.405378,0.06823475,-2.6412873,-9.337393,-1.41671041409346826167,-2.9406781,-11.982381,0.29448682,-2.5947673,-9.372217,-1.26455391409346826168,-2.6922798,-12.12723,0.46327803,-2.5592139,-9.402558,-1.10123741409346826169,-2.3864205,-11.934497,0.88645315,-2.5164065,-9.431304,-0.94264911409346826203,-1.7776948,-11.675923,4.039018,-2.4561613,-9.462742,-0.7708281409346826203,-0.43394905,-10.704475,7.8027034,-2.3652387,-9.510824,-0.346770761409346826204,-0.31364042,-10.3932295,7.1664443,-2.186405,-9.553431,0.349233571409346826205,-1.1695676,-10.847529,5.2181625,-2.029111,-9.555855,0.859502261409346826221,-2.6898856,-11.53706,4.3981485,-1.9672394,-9.544218,1.09919971409346826223,-5.125387,-12.167932,10.032304,-2.0210323,-9.512971,1.26063251409346826238,-7.747637,-13.107058,7.7590094,-2.2460175,-9.349004,1.92923381409346826261,-7.571663,-13.591285,-1.917157,-2.6023471,-9.146015,2.39762281409346826262,-7.4088573,-13.651139,-3.2758665,-2.8582873,-9.148747,2.07388521409346826264,-6.037578,-13.64276,-2.5001452,-3.0989158,-9.13757,1.75269141409346826293,-6.4547677,-13.694834,-2.146402,-3.1845553,-9.158205,1.46842911409346826295,-6.417658,-12.964602,-0.10654198,-3.295728,-9.164111,1.15222371409346826296,-7.24665,-13.578116,4.292804,-3.4047034,-9.142436,0.99713151409346826303,-9.020754,-13.734338,15.616779,-3.5363722,-9.0726385,1.16261741409346826319,-7.064092,-12.955026,9.713276,-3.534861,-9.071086,1.17921691409346826323,-4.587889,-11.418547,-3.7870286,-3.8132145,-8.688398,2.47820831409346826340,-4.4244847,-10.849325,-7.884106,-3.867882,-8.77521,2.05074621409346826343,-5.0876784,-11.511322,-6.944382,-3.9556158,-8.860416,1.42005041409346826356,-4.9099092,-12.624027,-5.6904187,-4.014169,-8.905945,0.86078611409346826377,-4.3700166,-12.582129,-6.642114,-3.9969351,-8.947094,0.380008641409346826378,-3.5685577,-12.394782,-6.145317,-3.9499638,-8.975052,-0.128926461409346826384,-2.5306711,-13.210008,-5.4671597,-3.8611646,-8.999263,-0.524454831409346826413,-1.3449428,-14.709975,-5.1146135,-3.6917024,-9.047258,-0.829986161409346826414,-0.6027403,-18.01098,-4.5435963,-3.428652,-9.124587,-1.07547751409346826416,0.42197806,-19.608511,-0.6488287,-3.0856545,-9.22497,-1.24460551409346826425,3.157952,-19.608511,5.651513,-2.6987398,-9.362804,-1.10682241409346826449,5.9465985,-19.608511,3.9264908,-2.1770713,-9.544111,-0.58369091409346826450,6.208165,-18.128296,-0.31004912,-1.5336443,-9.683049,-0.23844141409346826459,4.7506948,-13.822325,-3.0986955,-0.9508397,-9.758847,-0.176619431409346826480,2.9167361,-11.578958,-5.266645,-0.51918316,-9.788093,-0.306779031409346826481,1.9147629,-10.3932295,-5.061941,-0.24014878,-9.784493,-0.613526171409346826484,1.8429368,-9.089587,-5.410896,-0.08023761,-9.764176,-0.908201461409346826517,1.4736311,-8.179192,-5.415086,0.058412734,-9.727319,-1.24346891409346826518,1.0582372,-7.699753,-4.061165,0.1407669,-9.678465,-1.57413731409346826519,0.8571242,-7.7171106,-3.4332852,0.19257951,-9.639974,-1.79002341409346826524,0.1933318,-7.237672,-3.7780502,0.23901276,-9.608423,-1.94717451409346826546,-0.25019407,-5.6868277,-4.2754455,0.23885114,-9.5694685,-2.13039761409346826547,0.03232172,-4.247314,-6.019622,0.2101663,-9.514215,-2.367681409346826556,-0.12150574,-4.541202,-8.039131,0.21266778,-9.402775,-2.77722671409346826577,0.14963761,-4.9733553,-6.0980315,0.1976362,-9.218509,-3.33922621409346826579,0.54887074,-5.101445,-2.4432828,0.21407735,-9.0731945,-3.71506621409346826584,1.1671734,-4.92607,-2.6928782,0.2313228,-9.042059,-3.78920651409346826613,1.9422961,-4.4957123,-3.1142578,0.28168812,-8.99494,-3.89642481409346826614,2.2852654,-4.357447,-3.3147724,0.4442229,-8.931665,-4.0247261409346826616,2.4947581,-4.31495,-2.8173769,0.6732485,-8.858439,-4.15273431409346826651,2.9149406,-4.011485,-2.066196,0.9259441,-8.801159,-4.2252371409346826652,3.9995139,-3.4153287,-1.6819267,1.214635,-8.764241,-4.228851409346826652,5.3199162,-2.6503813,-2.2601264,1.6632199,-8.697967,-4.2130161409346826657,6.5008564,-1.8662802,-4.176685,2.281521,-8.5208845,-4.2848081409346826676,7.5321584,-1.5717934,-4.9135003,3.0342245,-8.135033,-4.5590711409346826676,9.135675,-1.2844892,-4.720767,3.8544633,-7.6083035,-4.84016751409346826684,9.626487,-2.059612,-3.918111,4.7607965,-6.9650173,-4.9993751409346826712,8.562862,-4.068946,-2.2140381,5.5460825,-6.3798904,-4.97075221409346826714,2.2631192,-12.046426,9.79827,6.0530577,-6.1268415,-4.68963961409346826717,-9.3260145,-19.065626,19.605518,5.908062,-7.2250805,-3.01054861409346826747,-18.338388,-19.608511,19.608511,6.0311904,-7.051995,-3.17246461409346826748,-19.60911,-19.608511,15.20797,6.160277,-6.859432,-3.34208821409346826749,-19.60911,-19.608511,7.4016747,6.2294555,-6.711733,-3.50954561409346826784,-14.72853,-13.230957,2.7856536,6.1787157,-6.6228633,-3.75919131409346826786,-4.5699325,-4.547188,1.4137762,-3.4923036,-8.694886,2.8936441409346826787,-8.271368,-6.4900823,1.3850456,-3.8874805,-8.580491,2.72636561409346826789,-4.50888,-7.3442135,1.9063832,-4.3221965,-8.416508,2.5790331409346826819,-1.6932992,-9.036914,-0.20949265,-4.316695,-8.421596,2.57162481409346826820,0.9044097,-12.160749,-3.6092591,-4.0717955,-8.597655,2.38142941409346826821,3.8013937,-16.856377,-5.559336,-3.6075966,-8.92192,1.88546281409346826851,4.997896,-17.600973,-6.163274,-2.7962165,-9.317563,1.23877611409346826851,4.0533834,-14.237719,-3.6014779,-1.9761548,-9.585852,0.613724471409346826852,-1.0642227,-13.228563,8.987833,-1.3815608,-9.704543,0.288986741409346826859,-1.5735891,-12.065579,9.290101,-1.2763039,-9.669329,1.02249781409346826895,3.4614172,-10.96664,-0.10295067,-1.2121826,-9.594535,1.62661971409346826898,4.6579194,-11.702858,-4.593276,-0.79371643,-9.672334,1.40937971409346826899,3.6535518,-12.302007,-4.8320975,-0.3433543,-9.757769,0.91566691409346826901,3.582923,-9.403227,-2.7976246,-0.016776362,-9.79493,0.47903061409346826904,4.1276035,-6.0525417,-0.13826515,0.29165596,-9.8001375,0.206538191409346826937,4.5022964,-5.072715,0.4405331,0.6263672,-9.78567,0.136772871409346826938,4.1138372,-6.035184,-0.55485624,0.9943752,-9.755076,0.141671451409346826941,3.193865,-7.4525514,-1.9482816,1.3336545,-9.715258,0.074379241409346826959,2.9358897,-7.697957,-3.0101101,1.5700761,-9.679278,-0.129783441409346826960,3.180697,-7.03596,-3.389591,1.7699525,-9.636025,-0.4297181409346826964,2.7940333,-7.2023573,-3.1836896,1.9775218,-9.575756,-0.7514761409346826985,2.3385365,-7.669825,-2.565387,2.1177003,-9.51992,-1.02801911409346826986,2.0488381,-8.364742,-2.1039047,2.1967595,-9.479932,-1.21471771409346827004,1.7118542,-9.259575,-1.903989,2.2261622,-9.457825,-1.32821081409346827007,1.2144588,-10.450092,-1.7010803,2.187631,-9.455713,-1.40504861409346827029,0.30466217,-11.874641,-1.7729063,2.0952363,-9.474777,-1.41738261409346827030,-1.2425907,-13.508684,-2.2577322,1.8954247,-9.516136,-1.42158821409346827036,-2.6120741,-14.041394,-2.5432408,1.5465596,-9.575498,-1.44512691409346827057,-2.9376855,-12.723985,-2.4384944,1.1107991,-9.632022,-1.46992611409346827058,-2.630629,-10.7912655,-2.3529017,0.7013877,-9.668671,-1.48164141409346827064,-2.6833014,-9.358934,-2.349909,0.35873657,-9.684377,-1.50151781409346827090,-2.8054059,-9.540296,-2.1392193,0.041115854,-9.684381,-1.54319861409346827091,-2.710835,-9.794081,-1.6226702,-0.24692455,-9.677098,-1.56945541409346827096,-2.3702598,-9.518148,-0.7152678,-0.49745092,-9.670547,-1.55030811409346827104,-1.8698715,-9.077616,0.5566519,-0.6959931,-9.670995,-1.46896781409346827143,-2.3253684,-8.461707,-1.5011644,-0.8202768,-9.686485,-1.29210961409346827144,-6.3302693,-9.08001,-0.7182605,-0.9741148,-9.66649,-1.33433721409346827146,-6.393716,-8.793902,-0.81163436,-1.4718484,-9.605795,-1.31633691409346827147,-5.5341973,-8.747814,-1.009156,-1.9334784,-9.5119705,-1.39802591409346827177,-3.1477766,-8.570643,-1.3922282,-2.2611227,-9.428016,-1.47317031409346827179,-2.273893,-8.632893,-1.5795746,-2.3842242,-9.384217,-1.55638341409346827180,-1.6801311,-8.901043,-1.3156139,-2.3952098,-9.369245,-1.62807381409346827184,-1.6759412,-9.281123,-0.83976626,-2.332662,-9.382518,-1.64239571409346827210,-2.2002714,-9.7162695,-0.63087213,-2.2563844,-9.409904,-1.59148191409346827211,-2.8215668,-10.545261,-0.65660983,-2.2204776,-9.431049,-1.51497921409346827216,-3.1172507,-11.499351,-0.62728083,-2.229108,-9.442022,-1.4316731409346827243,-3.292626,-12.4151325,-0.80924016,-2.2534387,-9.449713,-1.33991409346827244,-3.3093853,-12.884995,-0.47465047,-2.2811453,-9.453176,-1.26657991409346827245,-2.96881,-12.582727,0.3357868,-2.3043964,-9.459997,-1.16988541409346827268,-2.4809916,-12.060192,1.8543092,-2.315129,-9.475069,-1.01668061409346827268,-1.7411832,-11.565191,7.6560583,-2.3006554,-9.502211,-0.76508451409346827286,-0.50278234,-10.910975,11.0695915,-2.2335315,-9.548835,-0.03840721409346827287,-0.5542577,-11.447875,8.380304,-2.0623386,-9.545233,0.897590161409346827301,-1.6310499,-12.130821,4.1455603,-1.9167844,-9.50953,1.43706671409346827304,-3.5757403,-12.240356,3.2321723,-1.9062288,-9.498992,1.51850131409346827318,-5.892729,-11.243171,7.1431007,-2.0353088,-9.473425,1.51067631409346827337,-6.5283895,-11.415554,0.80445176,-2.3698382,-9.333708,1.8536911409346827338,-6.63553,-12.926295,-2.1511903,-2.6616337,-9.266805,1.79231691409346827350,-6.6349316,-13.673884,-5.005677,-2.8586369,-9.236931,1.63636031409346827367,-5.988497,-13.905523,-5.4324436,-2.9991386,-9.252496,1.2517551409346827367,-5.97892,-14.203602,-2.80361,-3.0823514,-9.279596,0.74738531409346827383,-5.7879825,-13.661315,0.2136825,-3.1561425,-9.275602,0.41515041409346827384,-6.6882024,-14.586674,3.2734723,-3.224688,-9.253825,0.372147261409346827401,-7.763199,-15.43482,10.003573,-3.320739,-9.212758,0.51785561409346827414,-7.2382703,-16.331448,13.96059,-3.439926,-9.112774,1.13782491409346827418,-4.7494974,-14.710574,4.6279917,-3.4411938,-9.112906,1.13293141409346827434,-3.4859576,-12.136807,-0.91937345,-3.482968,-8.927849,2.08154681409346827436,-3.323152,-12.299014,-0.16819267,-3.5008738,-8.948854,1.95761311409346827450,-4.4753613,-13.068151,-1.6370354,-3.460336,-8.982999,1.87141341409346827465,-5.032612,-13.338098,-6.1423244,-3.4431467,-9.034238,1.64246241409346827466,-3.7726634,-11.107899,-9.619903,-3.4733467,-9.108996,1.06415551409346827485,-2.4732103,-9.85633,-9.223063,-3.4864092,-9.161421,0.289336321409346827486,-1.6065093,-10.614095,-7.7865424,-3.435892,-9.175467,-0.41933591409346827500,-1.033098,-12.035053,-6.825869,-3.2936306,-9.187825,-0.95196741409346827515,-0.16639702,-14.762049,-5.9160724,-3.0988169,-9.207467,-1.33799551409346827516,0.90620536,-18.941128,-1.846528,-2.8165123,-9.256978,-1.59560781409346827534,2.5001452,-19.608511,6.0291986,-2.4274173,-9.382547,-1.49860121409346827550,6.099229,-19.608511,6.005256,-1.9634,-9.567721,-0.879879241409346827551,6.467337,-18.36233,1.608305,-1.304096,-9.71321,-0.35111781409346827566,3.8660371,-13.523049,-3.205836,-0.7065043,-9.780012,-0.150473251409346827566,1.5436616,-11.492168,-7.380127,-0.3388722,-9.796307,-0.296551641409346827583,0.6805518,-10.075399,-7.9152308,-0.15511136,-9.776674,-0.750314531409346827584,0.5686229,-8.394072,-6.1285577,-0.07851999,-9.725612,-1.25567641409346827600,0.5710171,-7.554305,-4.245518,-0.05407266,-9.666611,-1.65048591409346827613,0.61650693,-7.280169,-2.4211364,-0.043658525,-9.621284,-1.89721111409346827617,0.050278235,-6.533178,-3.3357215,-0.014216449,-9.605402,-1.97647351409346827632,0.08559271,-5.2486887,-4.485537,-0.011789222,-9.571358,-2.13526561409346827636,0.4213795,-4.960786,-6.0956373,0.007566928,-9.510221,-2.3929181409346827650,0.14305355,-4.991312,-5.8867435,0.05905045,-9.405718,-2.77477571409346827665,0.28670564,-5.0242324,-5.2103815,0.075899586,-9.293946,-3.1284491409346827666,-0.12928689,-5.105635,-3.0998926,0.093370944,-9.181268,-3.44471261409346827684,0.4794389,-4.606444,-1.3257892,0.05457155,-9.126071,-3.58918241409346827685,1.3910311,-4.03004,-1.9339164,0.0691618,-9.136991,-3.56104351409346827701,2.156577,-3.7140055,-2.2391772,0.19689474,-9.109603,-3.62584831409346827715,2.77069,-3.2626984,-2.034473,0.40924454,-9.065583,-3.71727181409346827718,3.3243492,-3.0280666,-1.7483658,0.7372133,-9.016152,-3.78627511409346827739,3.918111,-2.7072437,-1.8836381,1.147652,-8.95436,-3.83050061409346827740,4.654328,-2.19249,-2.9813797,1.6326168,-8.848084,-3.9008151409346827746,5.5341973,-1.8962077,-4.1144357,2.209949,-8.626037,-4.10828161409346827780,6.3362546,-2.0769699,-4.933253,2.8788562,-8.263423,-4.42701151409346827781,6.6469026,-2.8933928,-4.815338,3.5736854,-7.7973104,-4.7540611409346827782,6.6666546,-3.912724,-2.754529,4.1807685,-7.3493457,-4.96776341409346827785,5.4144874,-6.017826,2.2331917,4.7296214,-7.0874424,-4.8548181409346827823,2.855684,-9.646837,6.827066,5.119563,-7.2817936,-4.1153321409346827829,-5.2642508,-16.089634,15.725117,5.054762,-7.9409976,-2.74961021409346827832,-18.32941,-19.608511,19.608511,5.135328,-7.8243437,-2.92890551409346827833,-19.60911,-19.608511,19.495985,5.2018957,-7.711582,-3.10517861409346827871,-19.1183,-19.605518,10.144233,5.2067747,-7.6119585,-3.3343651409346827872,-12.949638,-14.642938,3.555988,5.1271825,-7.553702,-3.58105351409346827873,-7.0425444,-7.8332295,2.3391352,-3.4458206,-8.52311,3.41369321409346827873,-5.825691,-5.8412538,1.8531121,-3.8955286,-8.419789,3.17842461409346827877,-3.1741128,-7.313688,1.1887212,-4.1573505,-8.334888,3.06862691409346827885,-1.4119805,-9.457695,0.47644615,-4.086665,-8.391188,3.0095731409346827910,-0.108337626,-11.246762,0.11851298,-3.8273923,-8.560044,2.87177541409346827911,3.0669725,-16.90486,-0.724246,-3.429215,-8.7903385,2.6722321409346827918,4.4238863,-19.125483,-3.2620997,-2.6912234,-9.147319,2.29222561409346827944,3.1639376,-16.134525,-3.934272,-1.9440365,-9.459706,1.70442661409346827946,-1.0510546,-13.379996,1.3096284,-1.447852,-9.623795,1.20693151409346827948,-2.336741,-11.467029,5.2522798,-1.3443509,-9.639093,1.20457261409346827970,2.0015526,-10.117298,-1.073201,-1.3638296,-9.596835,1.4869761409346827970,4.0863037,-10.29806,-4.003105,-1.0937682,-9.66249,1.26898691409346827977,3.7427359,-11.349114,-3.4003649,-0.6901912,-9.744539,0.85906631409346827986,3.3997664,-10.663176,-1.2306197,-0.31584495,-9.788621,0.5035181409346828011,4.289212,-7.313089,-0.107140526,0.00482932,-9.800949,0.3342721409346828012,5.21936,-6.4685345,0.22924481,0.37477878,-9.796427,0.244914961409346828019,5.139154,-6.906075,-1.110311,0.8058494,-9.770757,0.230885861409346828043,3.6613328,-7.5806413,-2.5187001,1.2432088,-9.726671,0.129311741409346828044,2.2397757,-7.5686703,-3.5206735,1.5440047,-9.6837015,-0.111171391409346828051,1.8567034,-7.012018,-3.9881415,1.6870188,-9.650028,-0.448688361409346828086,2.0949266,-7.666234,-3.0250738,1.7679154,-9.610783,-0.82323541409346828087,1.970428,-8.564658,-2.319383,1.8420054,-9.572489,-1.06997791409346828088,1.5011644,-9.784504,-1.845331,1.8798984,-9.548266,-1.21120151409346828088,0.88525605,-11.303625,-1.7872716,1.8541476,-9.543671,-1.28488031409346828098,-0.092176765,-13.102867,-2.110489,1.756955,-9.556349,-1.32653531409346828121,-1.4185646,-14.619595,-2.5007436,1.5590295,-9.585278,-1.36464181409346828123,-2.260725,-14.380773,-2.7688942,1.2468975,-9.625614,-1.40113761409346828126,-2.492364,-12.565369,-2.5264814,0.90208566,-9.6589985,-1.43540371409346828161,-2.6084828,-10.644621,-2.12246,0.5835726,-9.678576,-1.46799661409346828162,-2.717419,-9.751583,-2.2146366,0.2870213,-9.694932,-1.44786111409346828163,-2.2732944,-9.19972,-1.6172832,-0.012070085,-9.697983,-1.45580431409346828166,-1.5065514,-8.555081,-0.8535329,-0.24630438,-9.6972,-1.4401481409346828192,-0.64823014,-8.233061,-3.0388405,-0.38892713,-9.698856,-1.39689081409346828193,-4.383185,-9.4535055,-5.883152,-0.44492462,-9.667569,-1.58446441409346828199,-6.5864487,-9.546879,-2.2014685,-0.837678,-9.567098,-1.98477041409346828218,-5.4713492,-8.602965,-0.27712885,-1.3594986,-9.49099,-2.05991131409346828219,-4.748899,-8.140884,-0.57999533,-1.7156323,-9.448175,-1.98972311409346828234,-4.036624,-7.989451,-0.9744401,-2.0258694,-9.38315,-2.00567911409346828248,-3.276465,-8.317456,-1.1204864,-2.2370243,-9.335582,-2.0032591409346828248,-2.594716,-8.813655,-0.9911995,-2.3602102,-9.314864,-1.95782511409346828263,-1.8130093,-8.93935,-0.88286185,-2.3989596,-9.320513,-1.88240611409346828265,-1.2156559,-9.157223,-0.51834464,-2.3553426,-9.347772,-1.80052471409346828282,-1.240795,-9.768942,-0.2645593,-2.250076,-9.394086,-1.69076071409346828297,-1.7878702,-10.589554,-0.20949265,-2.1451433,-9.440608,-1.56322191409346828298,-2.2397757,-11.209054,-0.31124622,-2.073471,-9.476426,-1.43821351409346828314,-2.4355016,-11.554418,-0.58657944,-2.041282,-9.498786,-1.33290831409346828332,-2.2535424,-11.704654,-0.4770447,-2.0336561,-9.509634,-1.26550341409346828333,-2.0775685,-11.68131,0.12629414,-2.0220625,-9.520681,-1.19929181409346828347,-1.8842367,-11.453262,0.87089086,-2.005817,-9.537211,-1.09027641409346828348,-1.8698715,-11.236588,1.513734,-1.9774609,-9.559637,-0.934559051409346828365,-2.079364,-11.195287,3.769072,-1.9468654,-9.582894,-0.740456941409346828366,-1.6729485,-11.537658,7.5590935,-1.9344988,-9.607243,-0.359190021409346828382,-0.99179804,-12.152967,8.282741,-1.8803726,-9.619297,0.322038651409346828400,-1.0821792,-12.680291,5.959168,-1.7729363,-9.5974,0.957623541409346828400,-1.9913772,-12.528259,3.7014358,-1.7045095,-9.572826,1.27514841409346828414,-3.716998,-11.667543,3.46022,-1.7349955,-9.554002,1.37157871409346828417,-5.66947,-11.714231,0.9115923,-1.902052,-9.498916,1.52419721409346828431,-6.3578024,-13.240534,0.23822308,-2.1704671,-9.435164,1.56113221409346828448,-7.0706763,-14.387357,-2.896984,-2.398536,-9.387744,1.51250371409346828448,-7.6201453,-14.199411,-5.521628,-2.619145,-9.3618,1.29119481409346828463,-6.6103907,-13.404537,-3.9893386,-2.8784726,-9.344137,0.756239351409346828466,-5.989694,-12.800599,-2.5486276,-3.0498278,-9.313556,0.355817471409346828479,-6.3524156,-12.854469,-0.74998367,-3.1762161,-9.277657,0.08435591409346828493,-6.781576,-13.815741,1.8531121,-3.3010268,-9.234361,-0.0136003631409346828500,-7.6973586,-14.542979,6.479907,-3.4120483,-9.193527,0.085869851409346828513,-5.6569,-15.045762,10.965444,-3.5591617,-9.12343,0.51553471409346828530,-3.1998506,-12.846089,1.9416976,-3.5436726,-9.064456,1.20349861409346828531,-2.847903,-12.179304,-2.0386627,-3.481848,-9.0802355,1.26351441409346828549,-3.7140055,-12.989741,-1.9656396,-3.4440594,-9.114761,1.10904471409346828550,-3.7684734,-13.016676,-3.8522706,-3.410189,-9.140453,0.996541441409346828565,-2.9191303,-11.466431,-7.2741833,-3.3554306,-9.187691,0.705562351409346828565,-1.6364368,-10.233417,-8.380903,-3.3064995,-9.231471,0.131853061409346828581,-0.91219085,-10.9103775,-7.518392,-3.2082183,-9.252421,-0.519991461409346828596,-0.56982,-12.634202,-5.9717374,-3.0311058,-9.268962,-1.03398611409346828597,0.29448682,-15.08347,-5.2618566,-2.8076057,-9.296158,-1.36718181409346828612,1.6106992,-18.871098,-2.6982653,-2.5041988,-9.346991,-1.59158841409346828630,3.3441012,-19.608511,4.0037036,-2.1129496,-9.450685,-1.54608861409346828631,5.5856724,-19.608511,5.881955,-1.6455241,-9.609542,-1.05799091409346828646,5.2558713,-18.93634,2.8095956,-1.0660671,-9.734616,-0.52073841409346828647,3.2208,-14.24131,-2.8898015,-0.5791668,-9.787036,-0.22102571409346828662,0.63087213,-11.969213,-7.5405383,-0.28276247,-9.7973,-0.321497141409346828665,-1.2378023,-10.62846,-7.8637557,-0.19628479,-9.774749,-0.76558791409346828679,-1.2898762,-9.446921,-6.341043,-0.22931467,-9.727014,-1.22597411409346828694,-0.219668,-8.757391,-4.311359,-0.2826105,-9.668958,-1.61299991409346828698,0.85891986,-8.343194,-3.277662,-0.30437458,-9.624305,-1.85754721409346828711,1.216853,-7.813477,-3.181894,-0.25932342,-9.597036,-2.0000151409346828717,-1.484405,-7.707534,-4.5178585,-0.16205198,-9.57419,-2.11636731409346828728,-1.7369933,-5.961562,-5.0014873,-0.2578747,-9.526159,-2.31434731409346828743,0.053869538,-4.868609,-5.3582234,-0.36968848,-9.455949,-2.57269551409346828746,1.5269021,-5.13257,-5.381567,-0.33319473,-9.364724,-2.89159771409346828763,1.6525977,-5.4420204,-4.7016134,-0.1857669,-9.266631,-3.20397381409346828766,1.7286136,-4.975151,-2.658761,-0.006719371,-9.175968,-3.4600571409346828779,1.8626889,-4.228759,-1.3329718,0.15727264,-9.138432,-3.5545391409346828794,2.0548236,-3.2064347,-1.1438298,0.30627778,-9.136765,-3.54910181409346828799,2.211644,-2.5169046,-1.673547,0.48323244,-9.125552,-3.5582561409346828813,2.7611132,-2.2655134,-1.8130093,0.71604866,-9.078046,-3.6396091409346828831,3.526659,-2.0769699,-2.15538,1.0453014,-9.006852,-3.73555661409346828831,3.9725792,-1.9494787,-3.1501708,1.4794512,-8.884422,-3.87925621409346828846,4.6662993,-1.9506758,-4.0497923,1.9711916,-8.6708765,-4.1353021409346828847,5.3863554,-1.9237411,-4.308366,2.5382388,-8.352847,-4.46740631409346828863,5.9202623,-1.7040731,-4.124611,3.1714144,-7.9559064,-4.77661941409346828866,6.1704564,-1.7501614,-3.7175968,3.8296537,-7.5040703,-5.01926851409346828878,5.720945,-2.5552118,-2.4007857,4.455832,-7.050363,-5.1583311409346828903,4.52145,-4.501099,-0.50158525,4.9694867,-6.7584076,-5.0792231409346828904,2.5779567,-7.6614456,4.326921,5.2484117,-6.821878,-4.69963461409346828906,-0.7170634,-13.071144,13.469779,5.2447495,-7.442741,-3.64261081409346828940,-12.096106,-19.576788,19.608511,4.535154,-8.618309,-1.15216981409346828941,-19.603125,-19.608511,19.608511,4.6514173,-8.534348,-1.30370251409346828942,-19.60911,-19.608511,16.742054,4.73409,-8.4771,-1.3775271409346828946,-14.845247,-17.695545,7.211934,4.70498,-8.4710245,-1.50841081409346828972,-6.1327477,-5.2786164,4.192846,4.5850167,-8.508067,-1.6615731409346828973,-4.5842977,-4.996699,4.5005007,-3.6431315,-8.219046,3.9173041409346828980,-0.56323594,-5.6922145,1.7711107,-3.8356888,-8.101868,3.97713541409346829018,1.09834,-8.261193,-1.0019734,-3.6509247,-8.211485,3.92589571409346829019,3.9522285,-12.497134,-2.914342,-3.2760837,-8.493699,3.64619641409346829019,4.9440265,-17.64407,-3.7541082,-2.5428648,-8.951825,3.0933871409346829020,3.9414546,-15.941194,-3.259107,-1.6743572,-9.376242,2.3351731409346829026,2.4145525,-11.77229,-2.4785974,-1.0592858,-9.591242,1.74825491409346829052,1.2521675,-10.7912655,-2.7030537,-0.7011302,-9.681654,1.3944081409346829053,0.5315128,-11.763311,-1.484405,-0.5065756,-9.736897,1.05195161409346829058,-1.6693572,-13.677476,1.6837224,-0.38574266,-9.761141,0.86124961409346829066,-1.9440918,-14.322115,2.5510218,-0.45866176,-9.753731,0.908158541409346829084,0.11671733,-13.511079,2.6833014,-0.52738166,-9.7467,0.945562061409346829086,3.1585505,-10.231621,1.5562311,-0.44018766,-9.748373,0.97254551409346829100,4.609437,-7.7213006,0.729633,-0.19462767,-9.754487,0.991195261409346829122,4.6722846,-7.1155677,0.1945289,0.14483517,-9.753282,1.0113981409346829123,3.9713821,-7.2729864,-0.50996494,0.5365242,-9.742437,0.983600141409346829126,2.891597,-7.73387,-1.2761095,0.87659436,-9.7252445,0.90641991409346829153,2.2062569,-7.6530657,-1.8728642,1.121644,-9.714099,0.740676051409346829154,2.070386,-7.2981253,-2.1332338,1.2876723,-9.708337,0.51039021409346829160,2.0817583,-7.545925,-1.9626468,1.4180832,-9.699989,0.26390871409346829168,1.9147629,-8.545505,-1.7328035,1.5220609,-9.687675,0.0514724141409346829185,1.4443022,-9.7402115,-1.6681601,1.5856493,-9.676821,-0.1233744551409346829187,0.7230489,-11.006743,-1.6166847,1.5887604,-9.6731,-0.278132771409346829198,-0.20350714,-12.406155,-1.8710686,1.4977932,-9.682891,-0.410663461409346829221,-1.2731167,-13.447034,-2.348712,1.3215678,-9.702308,-0.537677471409346829223,-2.030283,-13.347075,-3.1004913,1.0561734,-9.725715,-0.682179451409346829227,-2.428319,-12.4312935,-3.6032736,0.7565274,-9.739624,-0.85894151409346829260,-2.9777884,-11.521497,-4.68665,0.45481855,-9.739904,-1.04776751409346829261,-3.0358477,-10.495582,-5.348048,0.13019963,-9.717707,-1.31134651409346829262,-3.4320881,-9.566033,-4.0707417,-0.17549686,-9.668112,-1.6331611409346829286,-3.3632548,-8.675988,-3.6589386,-0.48938102,-9.619251,-1.8441551409346829287,-3.2136173,-7.863157,-3.3608606,-0.75966626,-9.553382,-2.07994941409346829288,-3.2225955,-7.245453,-3.2746694,-0.98896545,-9.485512,-2.28416421409346829300,-3.6553473,-6.9090676,-3.8468835,-1.2109668,-9.417626,-2.45198921409346829317,-4.020463,-7.2089415,-4.10845,-1.4676336,-9.326708,-2.651221409346829319,-3.9564183,-8.200141,-2.0260932,-1.7372208,-9.224848,-2.8380691409346829326,-3.549404,-8.961497,-0.07062895,-1.9831855,-9.189926,-2.78973841409346829351,-3.3135753,-9.566631,1.0791864,-2.1795485,-9.2155695,-2.54818581409346829352,-3.0119057,-9.909601,1.2036849,-2.312489,-9.273549,-2.19636851409346829359,-2.3828292,-10.333375,0.8834604,-2.3952582,-9.323075,-1.87440541409346829385,-1.5939398,-10.708666,0.7224504,-2.3915071,-9.372047,-1.61734761409346829387,-1.009156,-11.001955,0.46267948,-2.296423,-9.429561,-1.40719061409346829388,-0.7553706,-11.055226,-0.02873042,-2.1394413,-9.488528,-1.24940651409346829418,-1.0223241,-10.913968,-0.30406362,-1.9622468,-9.537793,-1.16211691409346829419,-1.5711949,-10.614095,-0.42556936,-1.8251615,-9.570195,-1.11828711409346829420,-2.147599,-11.071387,-0.3226187,-1.7646176,-9.585795,-1.08121731409346829427,-2.0721815,-11.808802,0.4165911,-1.7698268,-9.589203,-1.04179431409346829455,-1.7717092,-12.153566,2.1637597,-1.7686753,-9.601132,-0.927583931409346829456,-1.1228806,-11.964424,5.917868,-1.7492508,-9.626628,-0.662229541409346829460,0.25617957,-11.254543,10.598533,-1.6801492,-9.66124,-0.0890375151409346829485,1.3521254,-11.020511,10.638636,-1.4920408,-9.6568165,0.83072641409346829486,0.75237787,-11.793239,6.475717,-1.2299013,-9.593541,1.61916291409346829487,-0.65182143,-12.077551,3.2680852,-1.07762,-9.55612,1.92085351409346829501,-1.5179238,-10.420164,2.178125,-1.0914032,-9.554226,1.92249441409346829523,-2.095525,-9.350554,2.1260512,-1.1462858,-9.546667,1.92809991409346829527,-4.098873,-10.483012,-0.63206923,-1.277112,-9.515714,1.997641409346829528,-5.585074,-12.729372,-3.0053217,-1.5217597,-9.509148,1.85222051409346829552,-6.6121864,-14.369999,-4.8823757,-1.7959425,-9.521295,1.51324581409346829553,-6.9892735,-14.589666,-6.0250087,-2.0707707,-9.53097,1.02122131409346829558,-6.0800753,-14.446613,-2.6018987,-2.3347576,-9.514354,0.443127841409346829581,-5.592855,-14.143148,0.39205053,-2.5123897,-9.476965,0.213068531409346829584,-6.892308,-13.500305,1.8938135,-2.643779,-9.441619,0.191433241409346829600,-7.6285253,-14.377181,4.869208,-2.8606458,-9.37568,0.289318031409346829600,-8.169615,-15.951967,10.226832,-3.060141,-9.296463,0.617800951409346829606,-7.021595,-17.236456,17.714699,-3.2213182,-9.178995,1.24078581409346829632,-4.080917,-15.491083,8.526351,-3.2351477,-9.174384,1.23889971409346829633,-2.2613235,-12.573749,-0.8535329,-3.2410862,-8.896898,2.55165981409346829650,-3.1675289,-11.98298,-4.8398786,-3.222897,-8.945595,2.3999251409346829652,-4.634576,-11.821969,-7.811083,-3.2117102,-9.0549555,1.96547261409346829659,-4.6782703,-10.483611,-9.176975,-3.2724645,-9.146369,1.34361771409346829686,-3.3871968,-8.771158,-8.929773,-3.3491416,-9.1981535,0.589584231409346829687,-2.2080526,-9.093777,-7.0263834,-3.3974721,-9.198179,-0.145193411409346829689,-1.7555484,-11.006743,-5.5629277,-3.3464189,-9.193058,-0.677916351409346829717,-1.453879,-13.029245,-5.1559134,-3.2074523,-9.210878,-1.02096131409346829718,-0.6338649,-15.837046,-4.2185836,-3.023694,-9.240849,-1.27842121409346829719,0.076015905,-19.375675,-0.89423436,-2.7579517,-9.303052,-1.42031241409346829727,2.007538,-19.608511,5.133767,-2.4195635,-9.418429,-1.26858071409346829754,4.373009,-19.608511,4.1395745,-1.9892949,-9.574136,-0.74092971409346829755,4.569334,-17.954718,0.40581718,-1.4474685,-9.693283,-0.33987261409346829761,2.9670146,-13.254301,-2.4187422,-0.9533169,-9.757751,-0.218802481409346829788,1.7986441,-11.222222,-5.617396,-0.6183093,-9.781786,-0.323613521409346829789,1.2773066,-10.207679,-6.969521,-0.4025988,-9.775215,-0.67340681409346829790,0.5141548,-9.140464,-5.1319714,-0.26932138,-9.739225,-1.11594941409346829814,0.43993455,-8.400655,-2.030283,-0.21365824,-9.701994,-1.41283561409346829815,0.7032967,-8.449737,-1.5454572,-0.1873945,-9.688934,-1.50326471409346829836,0.75237787,-8.440758,-4.0503907,-0.144687,-9.685005,-1.53301451409346829837,-0.3429694,-7.820061,-5.449203,-0.085209265,-9.652962,-1.7272711409346829839,-0.66738373,-6.488885,-5.3701944,-0.09751228,-9.594484,-2.02651241409346829847,0.7380127,-5.663484,-5.6904187,-0.140095,-9.519737,-2.35061051409346829870,2.331354,-5.6179943,-4.0785227,-0.07803689,-9.417228,-2.73497561409346829871,1.7244238,-4.565144,-2.3451207,0.12690789,-9.345785,-2.96826531409346829882,1.4622587,-4.1892543,-1.7615339,0.2576485,-9.314447,-3.05697011409346829903,1.4574703,-3.7714663,-1.1360487,0.38845718,-9.292127,-3.11060521409346829904,2.1499932,-3.0585926,-1.5448587,0.5074714,-9.286043,-3.11163331409346829907,3.4033577,-2.4851813,-1.7782934,0.72520113,-9.250835,-3.17277381409346829932,4.309563,-2.3014264,-1.6472107,1.1131413,-9.174688,-3.27969981409346829940,4.983531,-2.303222,-1.9859903,1.632646,-9.062713,-3.3722571409346829941,5.453393,-2.2511482,-2.9873652,2.2494168,-8.887506,-3.48177721409346829951,5.744887,-2.3127987,-3.4099417,2.8935397,-8.614686,-3.68578891409346829983,5.6904187,-2.472612,-4.180875,3.526471,-8.269427,-3.91803571409346829985,5.762245,-2.304419,-4.4597993,4.08039,-7.868017,-4.1970361409346829987,5.7508726,-2.4450784,-4.0737343,4.581802,-7.429208,-4.47038651409346830013,4.882974,-4.0545807,-3.2746694,5.0187016,-7.0242186,-4.6522451409346830014,3.084929,-7.9289975,1.7926586,5.2431865,-6.84266,-4.6751931409346830014,-3.2519245,-16.329054,16.192585,5.205384,-7.292505,-3.98669771409346830028,-14.016255,-19.608511,19.608511,5.3191023,-7.108911,-4.16424471409346830029,-19.60911,-19.608511,19.608511,5.432992,-6.905898,-4.3544871409346830043,-19.60911,-19.608511,17.360954,5.5340347,-6.735371,-4.49217651409346830066,-16.40926,-17.234062,7.1700354,5.510167,-6.6562166,-4.6371561409346830067,-6.223129,-6.0920463,3.7822402,5.3294315,-6.629388,-4.8804461409346830068,-8.728661,-5.3725886,4.1419687,-3.625869,-8.255695,3.8557661409346830079,-3.54282,-4.3400893,2.1080947,-4.212967,-8.022154,3.75051451409346830103,0.7134721,-5.704784,-0.350152,-4.3038373,-7.9905615,3.71460681409346830104,3.719991,-10.50875,-1.5693992,-4.0234733,-8.195224,3.5805511409346830108,6.0651116,-16.902466,-2.6390088,-3.3501189,-8.628601,3.23949931409346830158,6.2243257,-18.573618,-2.8856115,-2.2882843,-9.161343,2.6464961409346830160,5.237316,-14.595653,-3.2986114,-1.3438559,-9.499098,2.0326351409346830162,4.0821137,-12.227188,-3.4638114,-0.6960981,-9.658537,1.54870841409346830165,3.3955765,-11.793239,-2.813187,-0.25492665,-9.737299,1.13595461409346830166,1.6490064,-11.847707,-1.632247,0.07357231,-9.775227,0.780985831409346830193,0.5919664,-11.135432,0.12090719,0.21335839,-9.790386,0.52266371409346830195,1.412579,-9.6288805,0.8218097,0.24893473,-9.792988,0.45364951409346830198,2.9059622,-8.295909,0.12030864,0.34508243,-9.79186,0.41327861409346830222,3.5164838,-8.377312,-0.82719666,0.54516983,-9.785091,0.35383741409346830223,3.352481,-8.985439,-1.869273,0.79517514,-9.770718,0.266813221409346830226,2.9149406,-9.211691,-2.429516,1.0445266,-9.7502775,0.107101951409346830228,2.4307132,-8.598776,-2.3307555,1.2515128,-9.725813,-0.112682381409346830251,2.134431,-7.8835077,-2.1990743,1.404204,-9.700143,-0.3253561409346830252,2.1027076,-7.8649526,-2.0332758,1.5220146,-9.674165,-0.51420071409346830259,2.2068555,-8.473679,-1.5969325,1.6180384,-9.648419,-0.67849961409346830275,2.0512323,-9.561244,-1.1504139,1.7137226,-9.624667,-0.77414671409346830279,1.3796587,-10.621876,-1.0235212,1.7707083,-9.61147,-0.80908291409346830292,0.41000703,-11.815984,-1.2126632,1.7489222,-9.614348,-0.822168051409346830317,-0.75836337,-13.265075,-1.4598645,1.6218481,-9.635119,-0.839320841409346830318,-1.8567034,-14.1186075,-1.6376339,1.3775767,-9.671668,-0.855284451409346830320,-2.7162218,-13.251906,-1.9949685,1.0476985,-9.712278,-0.862764241409346830327,-3.2980127,-10.605715,-1.9434932,0.6886045,-9.739802,-0.912403051409346830350,-3.493739,-9.680955,-2.2152352,0.3174442,-9.755999,-0.94344641409346830351,-2.8772318,-8.441956,-3.799598,-0.0471867,-9.75487,-1.0053121409346830361,-1.4024036,-7.0383544,-5.1942205,-0.3359151,-9.72291,-1.23391341409346830386,-1.5370775,-7.1365166,-5.060744,-0.48220018,-9.658761,-1.62670281409346830387,-3.8025908,-8.713697,-5.067328,-0.6220502,-9.571905,-2.04010531409346830388,-4.7285485,-8.231265,-5.837662,-0.9113617,-9.453926,-2.4419381409346830417,-4.060566,-7.144298,-5.121197,-1.2196012,-9.306653,-2.84063151409346830418,-3.1663318,-6.8282633,-3.2094274,-1.4682913,-9.157656,-3.18619971409346830421,-3.0561984,-7.7985134,-1.6472107,-1.66454,-9.088642,-3.28577421409346830428,-2.6952724,-8.945934,-0.26874915,-1.8514042,-9.093222,-3.1711231409346830452,-2.7323828,-9.7719345,0.2753332,-1.9820561,-9.15869,-2.89141131409346830453,-2.3331497,-10.642226,0.19393034,-2.0804703,-9.231276,-2.57402591409346830460,-1.9237411,-11.211448,0.17178397,-2.0965683,-9.301497,-2.2928061409346830503,-1.5849615,-11.228806,0.037110128,-2.0482557,-9.370701,-2.04082851409346830505,-1.5275006,-10.906786,-0.1921347,-1.9659015,-9.430702,-1.83507231409346830508,-1.6986861,-10.22384,-0.46208093,-1.8956548,-9.474312,-1.67759661409346830509,-1.917157,-10.102334,-0.6015432,-1.8523116,-9.498808,-1.58491681409346830511,-2.2284033,-10.681731,-0.36870706,-1.8346988,-9.512202,-1.52389661409346830541,-2.5276785,-11.41735,-0.08080431,-1.8443767,-9.52311,-1.44188211409346830542,-2.6593595,-11.94168,0.24899697,-1.8755121,-9.532573,-1.33524631409346830543,-2.7036524,-12.304401,1.186327,-1.9134134,-9.542439,-1.20461191409346830570,-2.4600422,-12.496535,5.5060654,-1.949889,-9.558155,-1.00498881409346830571,-1.3928268,-12.058397,11.589732,-1.9541417,-9.600117,-0.43527361409346830573,-0.6242881,-12.002731,11.432912,-1.8720176,-9.608326,0.5882151409346830603,-1.2449849,-12.579734,7.1425023,-1.7298683,-9.546094,1.43178441409346830604,-2.0165164,-12.273875,6.5487404,-1.680309,-9.500378,1.7577671409346830605,-2.7940333,-10.326192,7.6267295,-1.7352905,-9.437852,2.02141551409346830608,-4.947019,-10.969634,-0.93732995,-1.881022,-9.302884,2.46748611409346830639,-6.361394,-13.682862,-2.939481,-2.1076064,-9.288567,2.33472081409346830640,-6.6564794,-14.834474,-4.89315,-2.313988,-9.323206,1.97324541409346830641,-6.558317,-14.4933,-7.317279,-2.5208097,-9.356264,1.50871431409346830664,-5.644929,-14.146739,-3.7499185,-2.6960678,-9.392756,0.823265851409346830664,-5.5683146,-13.439253,0.27353755,-2.8078256,-9.38749,0.401906881409346830668,-6.0860605,-12.580333,1.5580268,-2.9076517,-9.360326,0.316647471409346830697,-6.682217,-13.891757,3.2620997,-3.0425222,-9.315075,0.377921021409346830698,-7.4226236,-14.982316,8.86932,-3.176224,-9.261303,0.55700821409346830722,-6.375759,-15.485098,15.1379385,-3.3233244,-9.161352,1.09340241409346830723,-4.131195,-15.731701,8.937555,-3.3451235,-9.157977,1.05450641409346830724,-2.202067,-13.476363,-0.48961425,-3.289556,-8.923092,2.3932441409346830728,-2.0338743,-12.720393,-3.5033157,-3.2284355,-8.978568,2.26559191409346830752,-3.2998085,-12.761694,-5.6521115,-3.1492145,-9.078846,1.95637361409346830752,-3.4392707,-11.940482,-8.076241,-3.1103969,-9.188031,1.44079511409346830759,-2.6180596,-10.5123415,-8.531139,-3.1057591,-9.272311,0.7408721409346830776,-1.8064252,-10.277111,-5.480926,-3.0809734,-9.31,0.0435175081409346830794,-1.0175357,-13.116634,-4.71538,-2.9910111,-9.332879,-0.348770771409346830795,-0.24660277,-16.14051,-3.8361096,-2.7893608,-9.377955,-0.66618061409346830810,0.76075757,-19.44391,-0.43275195,-2.5123549,-9.441104,-0.85089871409346830810,2.7353754,-19.608511,4.583699,-2.163104,-9.535419,-0.75308731409346830829,5.1038394,-19.608511,3.904943,-1.7265829,-9.647628,-0.335484031409346830830,4.8578353,-17.585411,1.3796587,-1.1908671,-9.734059,-0.0177095161409346830842,2.8293478,-13.028647,-2.7503393,-0.73983943,-9.777912,0.1243119541409346830881,0.8487445,-11.501146,-6.271013,-0.46142128,-9.795785,-0.0102442581409346830882,0.08259996,-10.146626,-6.779182,-0.35182667,-9.791819,-0.408530381409346830885,0.088585466,-8.727464,-4.747702,-0.28161153,-9.76732,-0.83101031409346830887,0.36391866,-8.064868,-3.1004913,-0.2417606,-9.737645,-1.13586161409346830897,1.163582,-7.6746135,-2.533664,-0.21910249,-9.713263,-1.33225691409346830938,1.4395138,-7.32925,-3.5763388,-0.1420622,-9.695395,-1.46611861409346830940,0.74878657,-6.775591,-5.2241483,-0.030806934,-9.666588,-1.65121451409346830942,-0.40282443,-6.215946,-5.749077,0.040513214,-9.609121,-1.95793441409346830943,-0.7026982,-5.2343235,-6.261436,0.013958091,-9.529097,-2.31657431409346830945,-0.107739076,-5.41329,-4.158728,-0.03622107,-9.417312,-2.7355691409346830964,1.3718776,-5.463568,-2.2655134,-0.05192337,-9.346326,-2.96881531409346830965,1.6214731,-5.3079453,-2.2122424,0.05888006,-9.321547,-3.04560521409346830968,1.3856442,-4.96318,-2.3780408,0.1966738,-9.295406,-3.11883931409346830994,1.5987282,-4.1138372,-1.9991584,0.31715837,-9.265068,-3.19816781409346830995,1.9021933,-3.417723,-2.2511482,0.46988577,-9.236951,-3.26011781409346831015,2.368464,-2.7880478,-2.3971944,0.6552523,-9.181672,-3.3821409346831016,2.8389246,-2.516306,-2.618658,0.9060148,-9.100061,-3.54096651409346831021,3.8486793,-2.2415714,-2.1637597,1.2361375,-8.980355,-3.74107051409346831028,4.944625,-1.8513165,-2.2212207,1.7231326,-8.839735,-3.88076261409346831044,5.81791,-1.8602947,-2.7473464,2.3722737,-8.62449,-4.02006241409346831049,6.341642,-1.9877859,-3.4877534,3.113699,-8.303493,-4.18656251409346831059,6.303933,-2.2176294,-3.6601357,3.8590705,-7.8784657,-4.38266471409346831076,5.7377043,-2.8526914,-3.4572272,4.5074496,-7.432661,-4.53969571409346831102,4.9583917,-4.087501,-2.4384944,4.963716,-7.089408,-4.6121811409346831102,3.7205894,-6.519411,-0.32680854,5.2434597,-6.937157,-4.5334761409346831103,0.57041854,-11.45027,5.6084175,5.285152,-7.15333,-4.13127571409346831108,-7.5375457,-18.868704,18.179174,4.80545,-8.05053,-2.8752441409346831128,-18.678963,-19.608511,19.608511,4.9350038,-7.89764,-3.07301521409346831129,-19.60911,-19.608511,19.598934,5.0476527,-7.762846,-3.22952681409346831141,-19.472641,-19.607914,12.799402,5.0572863,-7.6967297,-3.36965781409346831166,-9.64983,-12.37503,6.0525417,4.9335895,-7.676808,-3.5911941409346831168,-4.4717703,-6.0250087,4.1317935,-3.4340506,-8.32748,3.87695431409346831169,-6.443395,-7.0766616,3.1597476,-3.6829185,-8.222223,3.87318351409346831203,-1.0432734,-7.3885064,1.0384849,-3.9817982,-8.142659,3.74336481409346831205,2.1655555,-13.881581,-1.4395138,-3.8084257,-8.283282,3.6129651409346831206,4.699818,-19.608511,-3.0352492,-3.2202706,-8.69319,3.19823121409346831209,4.6351743,-19.608511,-2.381632,-2.319234,-9.176915,2.56432771409346831242,1.5209166,-16.230892,4.675876,-1.5655446,-9.463552,2.03976541409346831244,0.4914099,-7.1347213,-1.30484,-1.2074661,-9.490412,2.15510771409346831246,3.2369606,-6.8641763,-7.639299,-1.091518,-9.547383,1.95613971409346831268,4.209007,-5.3582234,-6.7845693,-0.773136,-9.697225,1.23953831409346831269,4.1078515,-4.531027,-5.604826,-0.38581544,-9.779033,0.626144951409346831269,3.2543187,-5.257068,-3.007716,0.025744682,-9.806149,0.09595191409346831292,4.156334,-5.107431,-0.8595184,0.37058893,-9.797332,-0.212884921409346831293,4.7261543,-6.136339,-0.65660983,0.8046099,-9.767519,-0.34430531409346831321,4.7279496,-7.8835077,-2.006341,1.261201,-9.714018,-0.466542871409346831323,4.1299977,-9.266159,-2.9891608,1.6631436,-9.641981,-0.660728041409346831324,3.2279825,-9.837176,-3.3901896,1.9472108,-9.566474,-0.92809631409346831350,2.815581,-9.574412,-3.5009215,2.1172957,-9.502171,-1.18161271409346831351,2.7353754,-9.138069,-3.1429882,2.224523,-9.44465,-1.42143691409346831352,2.7018566,-9.259575,-2.6372132,2.2965596,-9.397191,-1.60903981409346831360,2.248754,-9.758766,-2.4109612,2.3400128,-9.3649845,-1.7296781409346831377,1.869273,-10.879851,-2.3014264,2.3328714,-9.350156,-1.8173261409346831392,1.0390835,-12.210428,-1.9428947,2.2802837,-9.353581,-1.8657941409346831395,0.08439561,-13.624205,-1.6484078,2.123019,-9.392496,-1.85584941409346831415,-0.6853402,-14.389153,-1.5783775,1.8937569,-9.454879,-1.78587691409346831416,-1.1749545,-13.557766,-1.2940661,1.6062893,-9.524845,-1.69337571409346831420,-1.2611457,-11.552622,-0.75716627,1.3132132,-9.590843,-1.56894951409346831449,-1.8549078,-10.097546,-0.76554596,1.0602018,-9.64642,-1.41172621409346831450,-2.9813797,-9.291298,-1.34195,0.7895181,-9.69047,-1.28134131409346831451,-3.5314474,-9.22426,-1.6047137,0.4468252,-9.718632,-1.23243751409346831480,-3.2261868,-8.741829,-1.4047978,0.07929829,-9.728161,-1.23571971409346831481,-2.7072437,-8.471883,-1.5622166,-0.24288756,-9.725417,-1.23598531409346831482,-1.6747441,-8.281544,-3.3117795,-0.51287997,-9.709652,-1.27670721409346831488,-4.006098,-9.11293,-2.9694088,-0.67006844,-9.668485,-1.49726551409346831512,-5.2905874,-9.470264,-2.9430726,-1.0130241,-9.606513,-1.69087521409346831513,-5.4803276,-8.907029,-2.8245595,-1.4024642,-9.509416,-1.94280371409346831523,-5.2103815,-8.48146,-2.532467,-1.7488784,-9.399482,-2.18209931409346831550,-4.5633483,-8.659229,-1.5777789,-2.0641224,-9.30318,-2.31530431409346831551,-4.056975,-9.849746,-0.90021986,-2.3128316,-9.252452,-2.28326941409346831552,-3.2620997,-10.679337,-0.7966706,-2.4781237,-9.24328,-2.14268611409346831577,-2.5791538,-10.659584,-0.16699557,-2.5304918,-9.26782,-1.96837561409346831578,-2.0590134,-10.478823,0.13587095,-2.5152297,-9.314204,-1.75771941409346831582,-1.8142064,-10.261548,0.1400608,-2.4553754,-9.364462,-1.56472411409346831588,-1.7513585,-10.092757,-0.049679685,-2.3785174,-9.4084015,-1.41245891409346831615,-2.0219033,-9.988011,-0.39025488,-2.304177,-9.44236,-1.30499511409346831615,-2.2331917,-10.049063,-0.41000703,-2.2634337,-9.460854,-1.24076181409346831622,-2.4229321,-10.242993,-0.20470424,-2.2459688,-9.471756,-1.1882231409346831643,-2.5270798,-10.606314,0.2100912,-2.2493868,-9.478836,-1.12352921409346831644,-2.654571,-11.262923,1.939902,-2.261524,-9.487319,-1.02305911409346831649,-2.3690627,-11.834539,6.205771,-2.2764347,-9.507655,-0.76990031409346831660,-1.2539631,-11.789049,8.8884735,-2.2560143,-9.542341,-0.156574881409346831673,-0.82001406,-11.921329,8.02297,-2.141392,-9.551881,0.58855851409346831690,-1.9195513,-12.303204,3.727772,-2.0172057,-9.53183,1.11600731409346831691,-2.6437972,-11.690289,4.401141,-2.0122674,-9.522814,1.19881531409346831708,-3.643975,-12.218808,6.530185,-2.052279,-9.486415,1.40230041409346831711,-5.3624134,-14.316129,2.7856536,-2.1718042,-9.392656,1.797691409346831731,-7.4441714,-15.023616,-3.9935284,-2.3425379,-9.332037,1.89631211409346831732,-7.669825,-14.10963,-6.0944405,-2.5915463,-9.336516,1.51121271409346831742,-6.4026937,-13.611036,-1.5705963,-2.8340464,-9.335272,0.995637541409346831760,-6.0890536,-13.464991,1.033098,-2.9824843,-9.308789,0.788435941409346831761,-6.82946,-13.491326,1.2419921,-3.093759,-9.271631,0.79745081409346831768,-7.480085,-14.389153,4.147356,-3.2370894,-9.225392,0.764048461409346831787,-7.792528,-15.088858,7.5614877,-3.3658144,-9.157406,0.991765441409346831789,-6.205172,-14.622587,7.351396,-3.4909658,-9.057035,1.3977291409346831812,-3.4931402,-13.23395,2.0021513,-3.5462918,-8.978122,1.72844211409346831813,-2.2720973,-12.723985,-0.29448682,-3.5051107,-8.993972,1.73004771409346831821,-2.268506,-13.288418,-4.021062,-3.4104059,-9.046642,1.64249031409346831855,-2.693477,-13.005303,-7.5124063,-3.2823892,-9.147649,1.31028831409346831856,-2.5833437,-11.125257,-7.9691005,-3.1752257,-9.250206,0.72248631409346831857,-2.331354,-10.854114,-6.570288,-3.1225872,-9.295872,0.081186951409346831879,-2.0482395,-11.605893,-5.182848,-3.06329,-9.306441,-0.420477721409346831880,-1.6118963,-12.843097,-4.5992613,-2.970305,-9.315533,-0.753998641409346831881,-0.6206968,-15.045163,-4.5160627,-2.834298,-9.335384,-0.993865671409346831889,0.33997664,-18.809446,-1.733402,-2.60901,-9.3778515,-1.19137111409346831907,1.7543513,-19.608511,3.6050692,-2.2843926,-9.468131,-1.14299011409346831913,4.1880574,-19.608511,3.7415388,-1.8927777,-9.594022,-0.736564931409346831929,4.827309,-18.689138,0.32022446,-1.3914026,-9.69984,-0.383981651409346831930,4.031237,-14.443621,-3.550601,-0.9202136,-9.759386,-0.279217331409346831941,2.8281507,-11.6669445,-5.253477,-0.55421764,-9.781165,-0.438228641409346831963,2.0111294,-10.415975,-3.3997664,-0.28559506,-9.775778,-0.723173141409346831964,1.5717934,-9.569624,-2.9777884,-0.100875035,-9.764939,-0.89785981409346831969,1.3940239,-8.767567,-3.2208,0.014957039,-9.749806,-1.05423641409346832005,1.5149311,-8.104373,-3.268684,0.09619214,-9.729858,-1.22106241409346832006,1.5771804,-7.7470384,-3.7942111,0.19308892,-9.70719,-1.3797061409346832007,1.7794905,-7.4387846,-3.3782187,0.28933075,-9.674076,-1.58080821409346832010,1.0229226,-7.129933,-3.193865,0.41294688,-9.640527,-1.7493181409346832027,-0.37110126,-6.7893577,-3.6242228,0.48626083,-9.605785,-1.91386211409346832029,-0.66738373,-6.353613,-3.9067385,0.44433454,-9.564272,-2.12077121409346832064,-0.54527944,-6.060323,-5.040992,0.36342883,-9.51472,-2.3470041409346832066,0.02813187,-5.6604915,-6.953959,0.27234074,-9.433898,-2.66416481409346832068,0.8714894,-5.3462524,-3.5697548,0.24090953,-9.28542,-3.1453651409346832069,1.5795746,-4.8464627,-1.7369933,0.29597706,-9.220645,-3.32603431409346832096,2.058415,-4.64535,-3.031658,0.4248396,-9.20734,-3.34884981409346832098,2.4145525,-4.0384197,-3.3572693,0.5914035,-9.143377,-3.49561211409346832103,2.7281928,-3.306991,-3.2507274,0.81912065,-9.053413,-3.67901831409346832124,3.608062,-2.468422,-2.5049336,1.1018921,-8.941591,-3.87352371409346832125,4.289212,-2.160767,-2.3983915,1.5042262,-8.815379,-4.02452661409346832142,4.832696,-2.1086931,-3.1423898,2.006315,-8.647385,-4.16747861409346832143,5.6060233,-2.4528596,-4.27365,2.568535,-8.400031,-4.36033441409346832149,5.221754,-3.2345665,-3.09271,3.1721997,-8.041198,-4.63105771409346832174,4.5819035,-4.277241,-1.0073603,3.6815803,-7.784823,-4.6917911409346832174,2.9855695,-6.485294,2.005144,4.0745497,-7.719637,-4.4694111409346832189,0.4357447,-10.778097,9.081805,4.201964,-7.99275,-3.82490091409346832190,-9.651027,-18.52753,19.328989,3.8716383,-8.755413,-2.1268691409346832215,-18.858528,-19.608511,18.72984,3.9757543,-8.658378,-2.32298541409346832216,-19.60911,-19.608511,15.574881,4.087281,-8.550491,-2.52064131409346832224,-18.52753,-19.537884,9.444528,4.1778374,-8.462712,-2.66431521409346832254,-8.470087,-12.791621,4.3646297,4.17956,-8.412671,-2.81579161409346832255,-3.6727054,-6.704962,4.4394484,-3.506054,-8.472332,3.4781551409346832255,-3.1010897,-5.8586116,4.2293572,-3.673038,-8.389053,3.50755831409346832275,0.58418524,-6.505046,3.4081461,-3.7592056,-8.322313,3.57461521409346832275,2.1817162,-8.37013,1.7100586,-3.4776762,-8.406059,3.66255831409346832284,3.6912606,-12.724584,1.1031284,-3.0220265,-8.601287,3.61325481409346832290,5.617396,-17.436373,-1.0301052,-2.350942,-8.899028,3.38390061409346832304,5.7395,-16.527174,-5.2037973,-1.5293963,-9.256902,2.85326391409346832319,3.2722752,-13.157335,-4.2131963,-0.8502865,-9.547681,2.07104061409346832320,-0.5351041,-12.029068,2.8473043,-0.48710373,-9.674055,1.53159691409346832338,-2.4510639,-13.001114,8.037933,-0.46333793,-9.660656,1.62094311409346832363,1.9841946,-11.688493,0.44532153,-0.58713853,-9.573263,2.04409431409346832364,3.0621839,-11.163564,-4.0904937,-0.35940644,-9.623671,1.85099231409346832365,2.9981391,-10.2657385,-3.514688,-0.087634444,-9.708559,1.38079441409346832369,2.8844144,-9.070433,-2.3702598,0.16337357,-9.754732,0.99444541409346832397,3.277662,-8.352771,-1.5993267,0.3979168,-9.770594,0.73998631409346832398,3.6685154,-8.429984,-1.5987282,0.6655036,-9.769406,0.534969331409346832403,3.0484173,-8.84059,-2.1416135,0.9581609,-9.753894,0.337464661409346832433,2.1458032,-8.6813755,-2.7485435,1.1785221,-9.734976,0.108290281409346832434,1.5915456,-7.8182654,-3.09271,1.312733,-9.717037,-0.162121241409346832436,1.6118963,-7.1909847,-2.7635074,1.3917338,-9.696927,-0.45062081409346832441,1.6035166,-7.3819222,-2.144606,1.4598647,-9.672674,-0.69179161409346832474,1.508347,-7.9942393,-1.7537527,1.5162703,-9.650793,-0.85644091409346832475,1.1911154,-8.935161,-1.6956934,1.5529938,-9.634203,-0.96992351409346832476,0.7044938,-10.261548,-1.934515,1.5519731,-9.624838,-1.06031921409346832496,-0.014963761,-11.997345,-2.1769278,1.4915125,-9.624175,-1.14936651409346832499,-1.0803835,-13.572131,-2.0506337,1.3470606,-9.636025,-1.22589271409346832501,-2.034473,-14.094666,-1.7597382,1.0982199,-9.664175,-1.25220141409346832521,-2.460641,-13.321937,-1.5227122,0.78469753,-9.698148,-1.22497321409346832523,-3.0065188,-11.971607,-1.4706384,0.4745289,-9.722605,-1.19002761409346832542,-3.5338416,-10.5704,-1.638831,0.14869419,-9.738667,-1.1430991409346832543,-3.5422213,-9.561843,-1.4143747,-0.20245822,-9.738554,-1.13577281409346832550,-2.9047651,-8.785523,-0.9576807,-0.5289444,-9.726787,-1.13147221409346832584,-2.1990743,-8.218098,-0.8912416,-0.7792238,-9.71221,-1.1118461409346832585,-1.192911,-7.8583684,-2.6007016,-0.94497466,-9.698106,-1.10641111409346832586,-4.24492,-8.74123,-3.66253,-0.9920868,-9.671033,-1.28733911409346832590,-5.9507885,-8.93935,-2.2798786,-1.3034023,-9.597783,-1.53430391409346832609,-4.3999443,-8.029554,-1.1605892,-1.7258822,-9.50271,-1.70006731409346832610,-3.70383,-8.614338,-1.1133038,-1.9811884,-9.433861,-1.80209851409346832621,-3.1004913,-9.541492,-0.90021986,-2.1555572,-9.390637,-1.82754521409346832639,-2.5258827,-10.254366,-0.9020155,-2.2453005,-9.3825865,-1.75957131409346832655,-1.9752164,-10.454881,-0.8463503,-2.2549493,-9.396921,-1.66837051409346832656,-1.7711107,-10.482413,-0.62368953,-2.2047338,-9.424232,-1.57906341409346832670,-1.8309658,-10.276512,-0.40880993,-2.1380267,-9.454703,-1.48587541409346832671,-1.910573,-9.93893,-0.25617957,-2.0894063,-9.479778,-1.39232891409346832686,-1.9183542,-9.7240505,-0.16101007,-2.0524182,-9.500304,-1.30468031409346832689,-2.0925324,-9.722255,-0.15143326,-2.0269294,-9.517063,-1.21961211409346832703,-2.3600843,-9.917382,-0.19033903,-2.0260572,-9.526931,-1.14152541409346832715,-2.469619,-9.968858,-0.060453594,-2.0495727,-9.529556,-1.07575171409346832722,-2.5139117,-10.047267,0.38307226,-2.08171,-9.530223,-1.00585011409346832735,-2.428319,-10.268132,1.033098,-2.115641,-9.533029,-0.90322921409346832751,-2.594716,-10.626065,2.7102363,-2.1320968,-9.54326,-0.74210971409346832752,-2.498948,-11.031883,6.691794,-2.1601238,-9.55565,-0.44022291409346832771,-2.0805612,-11.638214,7.7745714,-2.166569,-9.5621,0.206448421409346832772,-1.7729063,-11.6908865,5.5180364,-2.1206257,-9.536243,0.85639761409346832785,-2.148796,-11.787253,3.0490158,-2.0715292,-9.51174,1.18572971409346832796,-2.9873652,-12.257115,1.2156559,-2.081388,-9.503451,1.23395661409346832824,-3.6110547,-13.190256,1.4317327,-2.139753,-9.5005245,1.15407661409346832825,-4.1880574,-15.027207,3.481768,-2.197428,-9.483023,1.18910811409346832826,-5.626374,-15.3193,1.1168951,-2.243758,-9.445903,1.3823471409346832830,-6.3787518,-14.242507,-2.6372132,-2.3818626,-9.405521,1.42593671409346832857,-6.0716953,-13.181876,-2.7940333,-2.5645838,-9.392199,1.17469931409346832858,-5.5880666,-13.277045,0.6159084,-2.748961,-9.373684,0.864696261409346832862,-5.9801173,-14.159907,2.4366987,-2.876541,-9.342231,0.78652711409346832870,-7.0820484,-15.157092,4.1802764,-2.9808455,-9.303771,0.85134041409346832892,-7.475296,-16.094423,7.351995,-3.1173623,-9.239261,1.04330491409346832893,-6.8366427,-15.143326,10.678739,-3.240073,-9.14823,1.40792051409346832902,-4.483143,-13.213,4.274847,-3.3207088,-9.015644,1.96506111409346832922,-3.5625722,-11.7268,-2.8119898,-3.3429646,-8.9825945,2.07556841409346832923,-4.372411,-12.061988,-4.414908,-3.3727915,-9.03243,1.79161391409346832945,-5.180454,-12.838308,-6.0609217,-3.414477,-9.08137,1.42844551409346832946,-4.471172,-11.903373,-7.9756846,-3.4633858,-9.128451,0.92018621409346832950,-3.0083144,-10.567408,-7.751228,-3.5031126,-9.155341,0.279911251409346832970,-1.8884265,-10.666168,-6.6187706,-3.4761136,-9.164538,-0.31349211409346832971,-1.1162965,-11.778873,-5.547964,-3.3565583,-9.18383,-0.74911821409346832988,-0.5494693,-14.345458,-5.0840874,-3.1668935,-9.217879,-1.08253881409346833008,0.16400282,-18.089392,-4.0360255,-2.912668,-9.272995,-1.3031911409346833009,1.287482,-19.608511,0.908001,-2.5732334,-9.359628,-1.39507191409346833010,4.3143516,-19.608511,6.531981,-2.1826875,-9.493461,-1.13159741409346833022,6.4224463,-19.528904,4.7321396,-1.6287357,-9.655809,-0.531972651409346833036,4.255095,-15.412075,0.24959552,-0.98685884,-9.756248,-0.109993291409346833053,1.9500773,-12.020688,-5.5725045,-0.59162736,-9.788625,-0.056532181409346833053,0.57041854,-9.606135,-6.743269,-0.36096156,-9.79274,-0.377273831409346833070,0.74399817,-8.375516,-4.2437224,-0.262398,-9.770218,-0.80273431409346833070,1.2988545,-7.9691005,-2.8377275,-0.20150691,-9.744404,-1.08460281409346833083,1.9818004,-8.063671,-2.384625,-0.12717004,-9.723064,-1.27131881409346833102,1.8130093,-7.5453267,-4.0976763,0.003300795,-9.70747,-1.39118411409346833102,-0.61171854,-6.681618,-5.6736593,0.14266571,-9.670227,-1.62380891409346833118,-0.3321955,-4.768651,-4.8644195,0.10020868,-9.60521,-1.97491781409346833136,0.7062895,-4.4364557,-5.931036,0.082374625,-9.534631,-2.29225181409346833137,1.4826094,-4.7405195,-5.607819,0.1456313,-9.42042,-2.72118781409346833150,1.1450269,-4.911106,-2.861071,0.2650202,-9.296947,-3.10916731409346833151,0.56323594,-4.84766,-1.0576386,0.35241732,-9.252884,-3.22960451409346833167,0.7751228,-4.343082,-2.1428106,0.3680556,-9.266449,-3.18870661409346833170,1.2216414,-3.582923,-2.734777,0.39459875,-9.238375,-3.26605531409346833191,2.2481554,-2.9370868,-2.871845,0.4875307,-9.177676,-3.42095881409346833192,3.064578,-2.5474305,-3.2603042,0.7360326,-9.087798,-3.61117461409346833202,3.8947675,-2.332551,-2.722806,1.09469,-8.947163,-3.86268851409346833231,4.9224787,-2.3295584,-2.789245,1.5689453,-8.788774,-4.0578691409346833232,5.6586957,-2.3002293,-3.5410242,2.183167,-8.572308,-4.23317241409346833233,6.4206505,-2.160767,-4.2395325,2.8637905,-8.254747,-4.4528881409346833261,6.83365,-2.1613655,-4.596867,3.5835934,-7.825579,-4.6998441409346833262,6.591836,-2.3870192,-4.084508,4.2666187,-7.3315964,-4.920781409346833263,5.9322333,-2.9993362,-2.7844565,4.835605,-6.889531,-5.03206351409346833270,4.2622776,-4.807557,-0.94570965,5.2564287,-6.6284447,-4.96025041409346833285,1.9219455,-8.176797,1.8507179,5.436693,-6.6896887,-4.67555331409346833302,-4.437054,-15.238495,10.244789,5.246577,-7.253878,-4.00313331409346833304,-17.629704,-19.608511,19.608511,4.0398903,-8.684647,-2.10394981409346833318,-19.60911,-19.608511,19.608511,4.174756,-8.560679,-2.33592651409346833339,-19.55584,-19.608511,11.652579,4.2470994,-8.46458,-2.54626151409346833340,-13.048399,-14.483125,4.642956,4.1719966,-8.442473,-2.73669651409346833342,-7.8625584,-6.541558,4.619612,-3.6434824,-8.5704,3.07305551409346833351,-8.488044,-4.648941,4.494515,-4.1330113,-8.367473,3.01230571409346833376,-5.1702785,-5.4899044,2.3588872,-4.5538363,-8.111132,3.10523961409346833377,-1.857302,-8.734048,-0.5177461,-4.6542816,-8.042584,3.13446951409346833383,1.4544775,-15.301343,-1.3617022,-4.437044,-8.24176,2.92513591409346833421,3.4374752,-19.608511,-2.3756466,-3.7292254,-8.704077,2.54996631409346833427,2.4199393,-18.726248,-2.8060043,-2.8214831,-9.167663,2.04048781409346833429,0.6452374,-13.324929,-1.4838065,-2.1822443,-9.428726,1.58345761409346833456,0.18674773,-9.770737,-0.9463082,-1.8883971,-9.530956,1.32860981409346833456,1.7950528,-9.207501,-1.7794905,-1.7106221,-9.58233,1.19295111409346833457,3.469797,-8.719683,-3.2363622,-1.4297216,-9.654679,0.95573481409346833458,3.394978,-8.53892,-4.4993033,-1.0243474,-9.734709,0.59712961409346833462,2.7012582,-9.6528225,-2.606687,-0.6356135,-9.785034,0.139617151409346833470,3.1627405,-7.887099,-0.12569559,-0.32062167,-9.800084,-0.160972071409346833489,4.5232453,-5.100847,1.2054806,-0.013545126,-9.803156,-0.261432381409346833513,5.437232,-4.851251,0.76554596,0.38886255,-9.797122,-0.18865591409346833514,5.3265004,-6.482301,-2.4211364,0.92020756,-9.762894,-0.097469611409346833515,3.5164838,-8.728063,-3.2770636,1.4322236,-9.695937,-0.328560051409346833548,2.858677,-8.743625,-3.7469256,1.7109827,-9.635738,-0.62886551409346833549,2.6581624,-8.8884735,-3.5087025,1.8922085,-9.5747,-0.95660691409346833550,2.5462334,-9.306861,-2.954445,2.0104604,-9.519701,-1.22626151409346833551,2.1996727,-10.141838,-2.582745,2.080882,-9.478904,-1.41092781409346833565,1.4377182,-11.145009,-2.3918076,2.0926719,-9.456622,-1.53734871409346833570,0.4189853,-12.009914,-2.2703018,2.0048938,-9.461851,-1.6199271409346833582,-0.56323594,-12.571355,-2.2870612,1.8412256,-9.489348,-1.65304491409346833607,-1.2761095,-12.686276,-2.3708582,1.5972522,-9.532144,-1.66055721409346833608,-1.7489643,-12.253524,-2.3122003,1.307897,-9.578298,-1.64803551409346833611,-2.3780408,-11.814188,-2.2828712,1.0028099,-9.620141,-1.61791621409346833647,-3.027468,-10.818799,-2.4528596,0.669151,-9.654783,-1.5836011409346833648,-3.4584243,-10.071808,-2.2936451,0.31035337,-9.672724,-1.58507171409346833649,-3.0065188,-9.281123,-1.5807717,-0.060515553,-9.674917,-1.60084391409346833651,-2.2996306,-8.360553,-1.6304513,-0.3507608,-9.6728945,-1.57558871409346833676,-1.5993267,-8.177396,-1.2431892,-0.57498074,-9.658827,-1.5958861409346833677,-2.4265234,-8.38629,-0.8798691,-0.7225164,-9.649012,-1.59527841409346833683,-4.8141413,-8.798691,0.046088383,-0.920107,-9.63547,-1.57528131409346833706,-5.029021,-8.627506,0.47405192,-1.3015155,-9.601734,-1.51100751409346833707,-4.6884456,-8.143877,-0.14903906,-1.6401831,-9.554425,-1.48091921409346833711,-3.958214,-8.049905,-0.91817635,-1.9237902,-9.497842,-1.50347421409346833745,-3.3925838,-8.870518,-1.1522095,-2.1286278,-9.4489975,-1.53486041409346833751,-2.9113493,-9.692925,-1.8920178,-2.2731588,-9.416295,-1.52857891409346833752,-2.2278047,-10.220248,-1.9309237,-2.324943,-9.396113,-1.57420281409346833753,-1.359308,-10.7356,-1.3072342,-2.286814,-9.400829,-1.60165891409346833789,-1.316811,-11.209652,-1.1629834,-2.1591482,-9.43761,-1.56205061409346833790,-1.757344,-11.618463,-1.3186066,-2.0298984,-9.473111,-1.51988831409346833791,-2.1865046,-11.704055,-1.4556746,-1.9453064,-9.494275,-1.49830851409346833792,-2.297835,-11.4837885,-1.5149311,-1.9112308,-9.5015135,-1.4962731409346833803,-2.2655134,-11.146206,-1.049259,-1.9054728,-9.502624,-1.49655591409346833816,-2.3948002,-11.018116,-0.25677812,-1.915262,-9.505103,-1.46805211409346833833,-2.6126726,-11.304223,0.8846575,-1.9520761,-9.5118885,-1.37249721409346833834,-2.8634653,-11.988366,3.2890346,-2.0016963,-9.526451,-1.18757681409346833852,-2.6659436,-12.087128,10.931925,-2.0542095,-9.555371,-0.80342651409346833853,-2.5198972,-12.0170965,13.245921,-2.0774527,-9.581708,0.213177841409346833866,-2.8191724,-12.364256,7.5136037,-2.0706563,-9.500891,1.27116471409346833871,-3.7074213,-12.496535,7.0826473,-2.1113863,-9.431586,1.6606121409346833888,-4.24073,-11.461642,5.3701944,-2.2211807,-9.347972,1.96269331409346833891,-5.7281275,-11.958439,-3.6086605,-2.425775,-9.254825,2.15272051409346833906,-6.249465,-13.350667,-6.201581,-2.645926,-9.270587,1.7960261409346833931,-5.728726,-13.818135,-5.2199583,-2.7826161,-9.309087,1.32979111409346833932,-5.0463786,-13.637373,-3.894169,-2.8551097,-9.341567,0.868251409346833933,-5.3199162,-13.29979,-2.0135236,-2.9012985,-9.356396,0.45903191409346833955,-5.5647235,-13.8163395,-0.8738836,-2.972747,-9.342517,0.224895941409346833955,-5.7281275,-14.315531,0.95349085,-3.0473945,-9.320408,0.117313511409346833964,-6.3063273,-14.768633,11.636418,-3.1137593,-9.297878,0.156119811409346833988,-5.389348,-16.126743,10.31901,-3.192095,-9.22175,0.969667551409346833988,-3.004723,-14.380773,3.4805708,-3.1874487,-9.139172,1.57673951409346834008,-2.0931308,-12.710816,0.98700964,-3.1201193,-9.140081,1.70121931409346834009,-2.7114334,-12.609063,0.53929394,-3.0574589,-9.157966,1.7187211409346834011,-4.0019083,-12.819753,-3.1118636,-3.008868,-9.17623,1.7070131409346834041,-4.3514614,-11.926117,-7.3968863,-3.0096035,-9.228764,1.39378211409346834042,-2.8550856,-9.928755,-8.54311,-3.0628743,-9.284586,0.765297951409346834043,-1.7860745,-9.088389,-7.747637,-3.0679772,-9.314077,0.076489581409346834051,-1.091756,-9.85633,-6.8587894,-3.0177302,-9.314879,-0.54468781409346834080,-0.736217,-11.9135475,-5.966949,-2.882129,-9.315429,-1.04236331409346834081,0.25079262,-15.620371,-5.1702785,-2.6877332,-9.329089,-1.38368491409346834085,1.7860745,-19.503166,-1.2605472,-2.3893607,-9.378438,-1.58311631409346834106,4.3760023,-19.608511,5.9489927,-1.9789033,-9.496582,-1.43848871409346834106,7.275979,-19.608511,5.9998693,-1.4379796,-9.665332,-0.82700271409346834111,5.0984526,-17.620726,2.5887306,-0.7644468,-9.771942,-0.308507141409346834138,2.7210102,-12.998121,-3.2112231,-0.32308865,-9.801202,-0.0496829751409346834139,0.95109665,-11.381436,-7.8050976,-0.07551175,-9.804368,-0.19757571409346834144,-0.19632454,-10.283096,-8.087015,0.035485446,-9.783315,-0.675173341409346834151,-0.4189853,-9.157223,-5.6700683,0.03747779,-9.734441,-1.18729021409346834176,0.59017074,-8.182783,-3.2040405,-0.0036556,-9.682496,-1.55551281409346834177,1.2521675,-7.7189064,-2.0949266,0.009256489,-9.656016,-1.71220581409346834183,0.7625532,-7.221511,-3.582923,0.081160575,-9.640439,-1.79603831409346834205,-0.7637503,-6.3769565,-5.6670756,0.13606443,-9.606217,-1.96785881409346834205,-0.6619968,-5.060744,-8.623915,0.08826193,-9.533499,-2.29673741409346834211,-0.07182605,-4.8500543,-6.6744356,0.05753069,-9.3752165,-2.87617681409346834237,0.5255273,-5.3061495,-4.095282,0.054163843,-9.238124,-3.2900651409346834237,0.7182605,-5.1439424,-1.654992,0.0810235,-9.159696,-3.50197241409346834243,0.83378077,-4.630386,-1.5993267,0.11046646,-9.152972,-3.51870441409346834251,1.0247183,-4.1078515,-2.042254,0.14574528,-9.153169,-3.51691581409346834279,1.3443443,-3.4967315,-2.0069396,0.2275231,-9.127753,-3.57809881409346834280,1.8644845,-2.9059622,-2.7162218,0.35545743,-9.09601,-3.64782761409346834284,2.445677,-2.4378958,-2.7269957,0.56448126,-9.016067,-3.81605821409346834308,3.240552,-1.9955671,-2.1787236,0.85202277,-8.908489,-4.01039551409346834309,4.1760864,-1.8956091,-2.2266076,1.2677871,-8.789354,-4.16057061409346834311,4.9524064,-1.834557,-3.0376434,1.8267741,-8.621305,-4.30190321409346834336,5.505467,-1.9075803,-3.9683893,2.482865,-8.349225,-4.5051321409346834337,5.5407815,-1.8848352,-4.5645456,3.1589034,-7.9617276,-4.7752071409346834343,5.820903,-1.8818425,-4.657321,3.7596886,-7.5014877,-5.0757091409346834351,5.7909756,-2.5839422,-3.9773676,4.3312593,-7.009339,-5.3178681409346834370,5.0721164,-4.3939586,-1.6998832,4.8101983,-6.6244545,-5.3989811409346834372,3.472191,-8.368932,4.4101195,5.144292,-6.5794387,-5.13981341409346834387,-1.0283096,-15.841834,15.2809925,5.2476044,-7.247577,-4.01318841409346834409,-13.356054,-19.608511,19.608511,5.3617744,-7.063837,-4.18616251409346834410,-19.60911,-19.608511,19.608511,5.4570165,-6.8834057,-4.36005741409346834411,-19.60911,-19.608511,15.412075,5.5061746,-6.765515,-4.4810981409346834436,-5.6461263,-17.183784,3.8630445,5.390572,-6.709812,-4.70006231409346834437,-4.5142674,-5.081693,4.2796354,-2.4666808,-8.751201,3.67455771409346834446,-1.9213469,-5.7748146,2.5390508,-2.8886588,-8.615307,3.68816041409346834451,1.4634558,-7.4190326,0.83976626,-2.9431098,-8.61488,3.6458671409346834476,2.6030958,-10.879252,0.84335756,-2.5832717,-8.77399,3.53754021409346834477,4.8614264,-17.57404,0.93493575,-2.048891,-8.991798,3.33466581409346834483,5.0224366,-19.455881,-1.7711107,-1.260902,-9.268498,2.94541431409346834506,2.5983074,-15.266627,-2.9885623,-0.61188745,-9.50702,2.32649061409346834507,-1.0001777,-11.6855,-0.55725044,-0.30561435,-9.633814,1.80738381409346834511,-3.086126,-10.905589,2.1493945,-0.3467755,-9.663934,1.63048831409346834533,0.24779987,-10.64043,-0.9247604,-0.5601228,-9.644328,1.68628991409346834534,1.8375498,-9.4217825,-4.2395325,-0.48312634,-9.687149,1.44780681409346834549,2.2900538,-8.467094,-4.0360255,-0.29574266,-9.753864,0.97215181409346834551,2.0290859,-8.866926,-3.0059202,-0.075933486,-9.790561,0.556359951409346834565,2.759916,-8.325836,-1.7124528,0.115843475,-9.802538,0.259295371409346834581,4.144363,-7.633912,-0.4213795,0.36772507,-9.799591,0.0564089941409346834583,4.595072,-7.9313917,-0.682946,0.7308812,-9.779328,-0.0308119021409346834600,4.073136,-8.755595,-1.4251486,1.1142796,-9.742502,-0.111334761409346834617,3.0699651,-9.017162,-2.1894975,1.4330767,-9.698494,-0.236473891409346834618,2.2134395,-8.817844,-2.7407625,1.6432596,-9.658625,-0.42549921409346834636,2.1769278,-8.451532,-3.091513,1.7514205,-9.626643,-0.65623721409346834637,2.5611973,-8.3629465,-2.8413188,1.8326474,-9.591265,-0.905247331409346834643,2.4013844,-8.5778265,-2.35769,1.9317669,-9.550233,-1.10981681409346834651,1.5831659,-9.185953,-1.7178397,1.9959342,-9.519111,-1.25426891409346834664,0.9056068,-10.01734,-1.376666,1.9802971,-9.513079,-1.32292851409346834678,0.43155485,-11.044453,-1.532289,1.8992779,-9.52734,-1.33901311409346834685,-0.24600422,-12.150574,-1.845331,1.7606331,-9.552717,-1.34764971409346834702,-0.98940384,-12.69705,-2.1170728,1.5514657,-9.5876665,-1.35647771409346834704,-1.3928268,-11.899182,-1.970428,1.2844965,-9.623234,-1.38341721409346834712,-1.489792,-10.379463,-1.4826094,1.0256717,-9.656055,-1.37075911409346834745,-1.7178397,-9.536105,-1.6915035,0.7836636,-9.68521,-1.32398891409346834746,-1.9165585,-9.8916445,-2.248754,0.54112643,-9.703938,-1.30811041409346834747,-1.4119805,-9.7162695,-2.6563668,0.2984896,-9.708803,-1.34923551409346834774,-0.362123,-9.040505,-3.8337154,0.12374767,-9.6979685,-1.45068631409346834775,-1.6280571,-9.11712,-6.3224883,0.058044776,-9.6589365,-1.69468271409346834776,-5.769428,-10.497976,-6.281188,-0.12392098,-9.563278,-2.16765211409346834783,-6.675633,-10.123882,-4.2461166,-0.6605439,-9.451761,-2.52948361409346834799,-6.3889275,-9.028535,-2.4091654,-1.2164508,-9.331702,-2.75862241409346834821,-5.315128,-8.1642275,-0.48482585,-1.6951039,-9.236494,-2.82563351409346834821,-4.8656163,-8.980052,0.682946,-2.069776,-9.2045965,-2.67616081409346834824,-4.4861355,-10.014946,0.504578,-2.3669493,-9.218749,-2.36275671409346834832,-3.7726634,-9.833585,0.7882909,-2.5620847,-9.239394,-2.0590581409346834847,-3.108871,-9.896433,0.7942764,-2.670415,-9.266752,-1.77948431409346834860,-2.6928782,-10.282497,0.6135142,-2.701781,-9.299107,-1.54834781409346834865,-2.4552538,-10.527904,0.52373165,-2.6826518,-9.335201,-1.35195661409346834877,-2.336741,-10.733805,0.44113165,-2.6325645,-9.371837,-1.18686321409346834903,-2.7485435,-11.431715,0.6847417,-2.5708215,-9.405425,-1.04844051409346834904,-2.6677392,-11.556811,1.7471687,-2.5355048,-9.429931,-0.90445551409346834905,-1.8495208,-11.498154,4.964976,-2.498819,-9.458389,-0.682028831409346834912,-0.40102878,-11.320384,8.130709,-2.4059427,-9.504922,-0.195648831409346834944,0.17537527,-11.2210245,8.1480665,-2.2055888,-9.541541,0.514543241409346834945,-0.42437226,-11.377845,5.7999535,-1.9746897,-9.538276,1.13678161409346834946,-1.2072762,-11.240178,2.9861681,-1.8444327,-9.524015,1.43583211409346834964,-1.9099745,-10.717046,0.8355764,-1.8173229,-9.529091,1.43671991409346834965,-2.3624785,-10.277111,0.7846996,-1.8370258,-9.544971,1.29970821409346834980,-2.2140381,-9.88506,2.8502972,-1.8729502,-9.546713,1.23397621409346835004,-2.4516625,-11.257536,3.6403837,-1.9001113,-9.516144,1.41527181409346835005,-4.6244006,-13.544598,-0.08080431,-1.9179245,-9.469594,1.67891131409346835018,-6.344036,-14.305355,-4.192846,-2.5211868,-9.454087,0.65896731409346835019,-6.773795,-13.989321,-4.9943047,-2.5211868,-9.454087,0.65896731409346835035,-5.811326,-13.480553,-1.5592239,-2.5211868,-9.454087,0.65896731409346835036,-5.310938,-13.369821,-0.2208651,-2.6827073,-9.420173,0.483541041409346835057,-5.3995233,-13.507487,-1.2850877,-2.789484,-9.393086,0.398883281409346835058,-6.945579,-14.80694,1.8776526,-2.8818116,-9.37038,0.248037341409346835064,-8.758589,-16.093824,8.016984,-3.0381422,-9.317683,0.34766531409346835081,-8.60117,-15.83106,11.386824,-3.2575312,-9.21137,0.84233261409346835085,-5.8041434,-14.6124115,8.682572,-3.4318604,-9.066282,1.48164281409346835101,-3.2076318,-12.789825,0.19692309,-3.469774,-8.968991,1.9204841409346835105,-2.541445,-12.61864,-2.135628,-3.4625168,-8.993155,1.81784741409346835112,-3.2136173,-13.074137,-3.4003649,-3.4081802,-9.050908,1.62349751409346835134,-3.5595794,-13.036428,-6.901885,-3.3376293,-9.123474,1.33897241409346835135,-2.3642743,-11.283274,-8.395268,-3.2883794,-9.207225,0.764174641409346835143,-1.2000936,-10.432734,-7.675811,-3.221147,-9.2622175,0.077007181409346835165,-0.65182143,-10.889428,-6.5265937,-3.0886385,-9.294738,-0.48841161409346835167,-0.504578,-12.567164,-5.111022,-2.9074945,-9.319647,-0.9279211409346835187,0.1448492,-15.088259,-4.4077253,-2.6973412,-9.349763,-1.21516991409346835187,0.76434886,-18.910004,-1.5346833,-2.431634,-9.399918,-1.37808471409346835192,2.208651,-19.608511,3.3865983,-2.1033938,-9.492979,-1.2764931409346835216,4.4448357,-19.608511,3.9564183,-1.7013385,-9.62012,-0.853881661409346835217,4.654328,-18.632277,1.2695254,-1.1919187,-9.723671,-0.44710431409346835225,3.0202854,-13.695433,-3.8953662,-0.7239492,-9.776327,-0.26405531409346835232,1.7244238,-11.300632,-6.6522894,-0.44763798,-9.784927,-0.474590931409346835251,1.2952632,-9.800066,-6.489484,-0.25712535,-9.76579,-0.85650391409346835252,0.82779527,-8.835801,-3.9755719,-0.11948767,-9.726566,-1.2449931409346835263,1.3335704,-8.707711,-2.2798786,-0.05226327,-9.695437,-1.47178521409346835279,2.2331917,-8.397662,-2.617461,0.030321198,-9.681277,-1.56280311409346835296,2.8401217,-7.909844,-4.0198646,0.18287411,-9.664687,-1.6525011409346835297,2.1721394,-7.439383,-4.5543704,0.39548108,-9.625446,-1.83433141409346835310,0.8846575,-6.7360864,-3.4003649,0.5568194,-9.568742,-2.07353161409346835312,0.9271546,-5.9962783,-5.6000376,0.5996359,-9.529913,-2.23418071409346835328,2.0177135,-5.369596,-5.131373,0.6323714,-9.432744,-2.60651181409346835332,0.9684546,-5.397728,-1.4460979,0.76198477,-9.330826,-2.91984131409346835346,0.62728083,-4.9015293,-1.0833763,0.7867717,-9.330076,-2.9156591409346835363,0.5734113,-4.1742907,-1.9321208,0.77784723,-9.336587,-2.89714771409346835364,1.584363,-3.3147724,-1.9668367,0.7800278,-9.314218,-2.96771361409346835382,2.8000188,-2.8748376,-2.0093338,0.9202885,-9.271344,-3.0603281409346835401,3.875614,-2.5552118,-2.32058,1.2154385,-9.20023,-3.17000371409346835402,5.073912,-2.3660698,-2.15957,1.6504046,-9.07601,-3.32755281409346835405,5.849633,-2.1511903,-2.7611132,2.2465463,-8.89746,-3.45812561409346835412,6.273407,-2.0685902,-3.477578,2.9319444,-8.621038,-3.64030311409346835439,6.4990606,-2.0973208,-3.9791632,3.6287646,-8.245581,-3.87464481409346835439,6.199785,-2.082357,-4.2317514,4.282014,-7.800086,-4.1223091409346835444,5.7963624,-2.1170728,-4.132392,4.8243065,-7.3392663,-4.3625291409346835464,4.8548427,-3.2632968,-4.155137,5.252462,-6.9084587,-4.5667571409346835466,3.4075475,-5.7125654,-3.2752678,5.444593,-6.650461,-4.7220951409346835485,0.30286652,-11.42932,5.2061915,5.379036,-6.7061634,-4.7184451409346835486,-15.078682,-19.603724,19.608511,4.9367995,-7.6855288,-3.56806541409346835492,-19.60911,-19.608511,19.608511,5.081023,-7.4848847,-3.78551461409346835526,-19.60911,-19.608511,15.625159,5.219871,-7.277762,-3.9946861409346835527,-18.125902,-18.426374,4.4119153,5.2476926,-7.179494,-4.13363841409346835528,-5.675455,-6.7330937,3.6583402,5.122046,-7.180979,-4.285861409346835532,-8.084022,-5.7945666,4.581305,-3.7637184,-8.572543,2.91827181409346835552,-4.355053,-5.1726727,3.321955,-4.261014,-8.331055,2.93388061409346835553,0.60812724,-5.6185927,0.7978677,-4.3867054,-8.25525,2.96278051409346835564,2.8604724,-8.694544,-0.75357497,-4.0837636,-8.410084,2.96036481409346835582,6.3829417,-13.320141,-1.9476831,-3.5069509,-8.724106,2.7859731409346835600,7.762002,-18.079216,-3.9414546,-2.4476986,-9.190301,2.39113241409346835600,7.1820064,-15.609596,-4.313154,-1.3112159,-9.568963,1.69883971409346835604,5.8508306,-11.902774,-2.8790276,-0.45227295,-9.7333975,1.10760621409346835612,4.267066,-12.008119,-1.0456676,0.1420663,-9.777455,0.742678051409346835630,2.0919337,-12.4707985,2.0332758,0.5307093,-9.775715,0.56935471409346835643,0.93373865,-11.575965,2.0602105,0.6562427,-9.76281,0.653658871409346835646,1.4574703,-10.563816,-0.56922144,0.66861355,-9.757623,0.71564481409346835675,1.8166006,-9.689334,-3.2172086,0.74101096,-9.761787,0.573425951409346835676,1.9009962,-8.642469,-4.619612,0.8342986,-9.7673235,0.271563621409346835677,1.8046296,-8.074445,-4.7925935,0.93896693,-9.760792,-0.125133281409346835695,1.6633717,-7.9445596,-3.8983588,1.0442594,-9.735441,-0.54872781409346835696,1.6011224,-7.9726915,-3.0310593,1.135565,-9.700321,-0.8858071409346835712,1.7950528,-8.009203,-2.4654293,1.2116139,-9.664439,-1.1406291409346835713,1.9710265,-7.9062524,-1.7411832,1.2958149,-9.630356,-1.32192781409346835729,2.005144,-8.089409,-0.9331401,1.3898586,-9.604888,-1.40883161409346835743,1.9512744,-8.58022,-0.57999533,1.482397,-9.593846,-1.38960211409346835744,1.6047137,-9.390657,-0.48362875,1.5636841,-9.591512,-1.31461021409346835758,0.96785605,-10.325593,-0.70509243,1.6006662,-9.598483,-1.21547651409346835779,0.18435353,-11.3084135,-1.1031284,1.5496721,-9.615423,-1.14565711409346835780,-0.62608373,-12.177508,-1.3808558,1.4273618,-9.639701,-1.09964821409346835793,-1.1372458,-12.5025215,-1.733402,1.2256515,-9.669537,-1.08084761409346835793,-1.9027919,-12.309788,-2.168548,0.9898545,-9.694768,-1.09640061409346835817,-1.5245079,-10.682928,-3.378817,0.7024442,-9.713172,-1.15379571409346835818,-1.6124948,-9.767146,-3.5458126,0.48276657,-9.70303,-1.33736561409346835827,-1.9734207,-9.357738,-3.0472202,0.27183044,-9.681131,-1.54018891409346835853,-1.8136078,-9.063251,-2.6378117,0.049203884,-9.659873,-1.6896261409346835854,-1.9524715,-8.842385,-1.8357542,-0.12624826,-9.632647,-1.83482651409346835855,-2.1996727,-8.788516,-1.292869,-0.29354426,-9.61595,-1.9020291409346835864,-3.0544028,-8.817844,-1.4161704,-0.4709186,-9.610739,-1.89269591409346835886,-3.602675,-8.656237,-1.963844,-0.72045714,-9.598156,-1.87796011409346835887,-3.244742,-8.476072,-2.3361423,-1.0049367,-9.567075,-1.90568461409346835893,-2.7880478,-8.778939,-1.7890673,-1.2379405,-9.527491,-1.96591461409346835915,-2.995745,-9.764751,-0.84455466,-1.4138249,-9.503101,-1.96534321409346835916,-3.3273418,-10.527305,-0.20649989,-1.5743183,-9.500087,-1.85481171409346835924,-3.3482912,-10.760141,0.26515785,-1.7368335,-9.502735,-1.68873051409346835953,-3.4685998,-10.78947,0.66379243,-1.8774086,-9.508986,-1.49161981409346835954,-3.4979286,-10.699089,0.7374141,-2.016128,-9.51149,-1.27951611409346835955,-3.0376434,-10.606314,0.62608373,-2.1467836,-9.506255,-1.09217021409346836017,-2.4522612,-10.33517,0.61890113,-2.2242303,-9.504105,-0.946164971409346836020,-2.0991163,-9.999383,0.6440403,-2.2440085,-9.510427,-0.82861421409346836022,-2.0685902,-9.892841,0.6859388,-2.2276905,-9.523369,-0.7163961409346836024,-2.1517887,-10.134057,1.1366472,-2.2063427,-9.5351305,-0.619453671409346836026,-2.3343468,-10.745177,2.5210943,-2.1804104,-9.5488,-0.486417531409346836028,-1.9333179,-11.003153,5.143344,-2.1594145,-9.563138,-0.231815251409346836060,-0.9516952,-10.786477,6.623559,-2.1035516,-9.57532,0.242318361409346836061,-0.3645172,-10.478224,5.767632,-1.9866947,-9.571322,0.783082841409346836061,-0.60214174,-10.556035,4.313154,-1.8616477,-9.558803,1.15497161409346836062,-1.3850456,-10.644621,2.570774,-1.7760879,-9.550442,1.34348381409346836078,-2.1122844,-10.662578,1.0259154,-1.7591345,-9.549232,1.374041409346836079,-2.8616695,-11.054627,0.9828198,-1.7618731,-9.555514,1.3260261409346836113,-3.6792896,-12.20145,1.7729063,-1.8261291,-9.546876,1.30107631409346836116,-4.84347,-13.726557,0.5201403,-1.9404023,-9.516979,1.35363191409346836117,-5.473145,-14.056358,-1.0217255,-2.1089463,-9.49042,1.28633651409346836118,-5.2355204,-13.202227,-2.520496,-2.29805,-9.470209,1.09748961409346836145,-5.2235494,-13.1794815,-1.1150994,-2.4561098,-9.459831,0.805910171409346836146,-5.3983264,-14.107834,1.3706805,-2.5787942,-9.438907,0.653659641409346836148,-5.309741,-14.358626,2.4510639,-2.672631,-9.410078,0.6912731409346836172,-5.7377043,-14.53041,4.2916064,-2.7314267,-9.386018,0.78253841409346836174,-7.091625,-14.764443,6.9012866,-2.8215263,-9.335995,1.02400911409346836175,-8.335413,-14.399327,6.5403605,-2.9930105,-9.230698,1.41650241409346836201,-7.7889366,-12.726977,3.0753522,-3.2369344,-9.09377,1.73089311409346836202,-6.283582,-11.628637,0.32621,-3.487536,-8.986605,1.80233931409346836205,-4.9559975,-11.428123,-1.6759412,-3.6680193,-8.932935,1.70841611409346836216,-4.3879733,-11.793838,-2.4941597,-3.7274163,-8.949277,1.47891061409346836253,-3.5410242,-13.003508,-4.378995,-3.7386181,-8.981146,1.237791409346836255,-1.5993267,-11.71004,-7.153276,-3.6605632,-9.058536,0.84472981409346836257,-0.6488287,-10.829573,-7.6147585,-3.508447,-9.154231,0.247470071409346836259,-0.5033809,-13.751696,-5.499481,-3.3145604,-9.223283,-0.33926661409346836300,-0.712275,-17.035343,-5.197812,-3.0489984,-9.295609,-0.68235261409346836301,0.39564183,-19.608511,-2.1625626,-2.7704706,-9.361329,-0.927575471409346836302,3.5446155,-19.608511,3.7235823,-2.4215343,-9.459313,-0.90992861409346836303,7.6488757,-19.608511,6.471527,-1.9078258,-9.605498,-0.51475941409346836306,5.7454853,-17.935564,2.6342204,-2.1808057,-9.558727,-0.212617011409346836313,3.2028434,-13.3225355,-3.3848026,-0.6727561,-9.781069,0.220154611409346836334,1.4532804,-11.840525,-6.4368114,-0.3544044,-9.800243,0.0034302671409346836335,0.99060094,-11.149797,-6.0166287,-0.16335458,-9.796581,-0.41317021409346836345,2.156577,-10.4405155,-4.780622,-0.053375326,-9.773578,-0.80292851409346836364,3.0603883,-9.495404,-4.2401314,0.085144676,-9.743408,-1.10866941409346836367,3.4386723,-7.475895,-3.5110967,0.27649465,-9.711115,-1.33721481409346836373,1.6005238,-5.8771667,-2.5516205,0.4885209,-9.674325,-1.52943191409346836398,0.9331401,-4.3424835,-6.554127,0.57554394,-9.647188,-1.66461151409346836399,1.453879,-4.076727,-6.6283474,0.62989074,-9.546548,-2.15337751409346836405,1.2078748,-4.1515455,-5.023035,0.7368805,-9.419561,-2.62664561409346836415,0.53809685,-4.553173,-5.2840033,0.83289784,-9.320684,-2.93283461409346836439,-0.8158242,-5.0541596,-4.2239704,0.8393924,-9.207163,-3.27016621409346836440,-1.1456255,-5.3103395,-1.1773487,0.6699094,-9.132706,-3.50931931409346836446,0.37828386,-4.8177323,-0.30885202,0.46832976,-9.171226,-3.4408911409346836468,1.9452889,-4.305373,-1.5227122,0.4691858,-9.222134,-3.30189181409346836469,2.7898436,-3.5500026,-2.8892028,0.6317302,-9.207841,-3.31466531409346836473,3.304597,-2.9011738,-3.095703,0.92491674,-9.1155615,-3.49591611409346836502,4.06715,-2.6246436,-2.3660698,1.3132027,-8.9818125,-3.71119571409346836504,4.9099092,-2.5540147,-1.3688848,1.803716,-8.839202,-3.84519551409346836506,5.522825,-2.3493104,-1.9997569,2.4035769,-8.693068,-3.85016871409346836527,6.1938,-2.1823149,-3.70802,3.0611308,-8.458878,-3.90478161409346836527,6.554127,-2.328361,-4.8362875,3.7378392,-8.060261,-4.1510421409346836544,6.38354,-2.4271219,-4.722563,4.366235,-7.568197,-4.45295431409346836547,6.845621,-2.0901382,-4.335301,4.892733,-7.0926795,-4.68246271409346836563,7.077859,-2.622848,-4.1078515,5.4166265,-6.5963955,-4.8288851409346836574,7.2687964,-5.257667,-3.0178912,5.8576007,-6.1658516,-4.8827441409346836575,2.6844985,-13.05618,7.418434,6.1522202,-6.026928,-4.69006631409346836597,-13.18846,-19.608511,19.608511,5.904032,-7.13304,-3.22994641409346836598,-19.425356,-19.608511,19.608511,6.073155,-6.903628,-3.40985631409346836607,-19.60911,-19.608511,14.010868,6.224883,-6.706782,-3.52708221409346836654,-19.288885,-18.695723,3.389591,6.2225885,-6.6027184,-3.72208291409346836655,-9.432556,-8.90643,2.0608091,6.105912,-6.520273,-4.0465131409346836655,-9.683349,-8.527548,1.5298948,-3.6066785,-8.760967,2.53134681409346836656,-5.305551,-7.524976,0.8858546,-4.1771097,-8.578408,2.26562671409346836665,0.12629414,-9.703699,1.1115081,-4.2960815,-8.550777,2.14436271409346836789,3.4650085,-17.22269,-0.84096336,-3.9352052,-8.732017,2.10628751409346836789,5.230732,-19.608511,-1.963844,-3.1359663,-9.110971,1.82381061409346836790,4.860828,-17.143084,-2.4690206,-2.1971073,-9.43851,1.50254321409346836790,1.5867572,-11.56579,1.9267339,-1.4795647,-9.620273,1.19651651409346836791,-0.7906851,-9.705495,3.5757403,-1.1895354,-9.649992,1.27790031409346836792,2.3397336,-7.7320743,-4.010886,-1.1495149,-9.629477,1.45677581409346836792,2.7922378,-6.2859764,-3.6302083,-0.8923934,-9.712729,1.01829581409346836793,3.1040826,-6.419453,-2.778471,-0.602953,-9.767071,0.64124831409346836793,3.5972881,-6.895301,-2.2415714,-0.28029287,-9.796743,0.340035971409346836794,3.5649664,-7.97748,-2.1763294,0.08473463,-9.805925,0.083751471409346836794,3.2483332,-9.409811,-2.6671407,0.43824148,-9.79529,-0.17496641409346836795,2.5145104,-10.224439,-3.2734723,0.74305534,-9.768049,-0.451098921409346836796,1.9662381,-9.897031,-3.8031895,0.9531515,-9.732003,-0.74163731409346836797,2.143409,-8.854357,-3.5727475,1.0903139,-9.688658,-1.0542871409346836840,2.259528,-8.251018,-2.867655,1.2239901,-9.63987,-1.32104471409346836841,2.078167,-8.098986,-1.9524715,1.3467473,-9.597342,-1.49923431409346836842,1.666963,-8.201937,-1.3186066,1.4421108,-9.57151,-1.57382691409346836842,1.2096704,-8.765771,-1.0540473,1.4921976,-9.561935,-1.58529071409346836877,0.75716627,-9.868899,-1.0348936,1.4969842,-9.565823,-1.55706751409346836878,0.17058687,-11.230601,-1.1851299,1.4486227,-9.581627,-1.50475991409346836880,-0.57400984,-12.368446,-1.1976994,1.3298454,-9.608073,-1.44458631409346836880,-1.1504139,-12.789227,-0.9576807,1.139972,-9.64353,-1.36865221409346836894,-1.2372037,-12.068572,-0.82001406,0.9130311,-9.681862,-1.26424191409346836894,-1.435324,-11.051635,-1.1869255,0.7070435,-9.710054,-1.17698741409346836908,-1.34195,-10.067019,-2.4887726,0.50286216,-9.728999,-1.12433491409346836923,-0.18914193,-9.066842,-4.6082397,0.31609017,-9.726611,-1.20976161409346836931,-1.0905589,-8.972271,-3.289633,0.24470542,-9.68609,-1.51331961409346836942,-1.9919758,-9.7007065,-2.1068976,0.098505095,-9.656067,-1.70910871409346836946,-2.3110032,-9.861717,-2.171541,-0.100306295,-9.63393,-1.82967931409346836955,-2.4193408,-9.448118,-2.554613,-0.28816578,-9.607796,-1.9436091409346836973,-2.622848,-8.913613,-2.4390929,-0.47305796,-9.58109,-2.03698921409346836973,-2.40318,-8.755595,-1.905186,-0.6746362,-9.55222,-2.11432391409346836989,-2.405574,-9.143456,-1.18094,-0.84561235,-9.535508,-2.12824941409346836993,-2.6491842,-9.793482,-0.82899237,-1.003974,-9.535778,-2.05703541409346837009,-2.5091233,-10.201694,-0.51954174,-1.1680291,-9.542916,-1.93360781409346837023,-2.4744074,-10.511743,-0.12389994,-1.3021374,-9.554484,-1.78511641409346837027,-2.5893292,-10.649409,-0.12389994,-1.4192268,-9.567473,-1.61853351409346837039,-2.5300727,-10.587758,0.025737667,-1.5275326,-9.573922,-1.47549341409346837054,-2.4851813,-10.42196,0.17178397,-1.6116102,-9.58093,-1.33375941409346837055,-2.5701754,-10.181343,0.43634325,-1.6818484,-9.585824,-1.20571581409346837073,-2.7820623,-10.218452,0.504578,-1.7505264,-9.58917,-1.07417951409346837073,-2.847903,-10.534488,0.61770403,-1.8266263,-9.587699,-0.953865951409346837088,-2.9029696,-10.763134,0.76195467,-1.8970749,-9.585289,-0.832915661409346837093,-2.7659016,-10.803835,1.1402385,-1.9658246,-9.5813465,-0.70974281409346837106,-2.4486697,-10.54167,2.546832,-2.0184946,-9.580174,-0.56242031409346837120,-1.7884687,-10.220847,5.1361613,-2.0459461,-9.586133,-0.300880281409346837125,-1.5029601,-10.240001,6.0363812,-2.0166159,-9.595728,0.160207961409346837139,-1.8836381,-10.735002,4.286818,-1.9697989,-9.58559,0.637784061409346837154,-2.4361002,-11.389816,2.391209,-1.9635963,-9.568388,0.87214321409346837155,-2.521693,-11.4598465,2.1709423,-1.998322,-9.558191,0.904464841409346837171,-2.3421278,-10.66976,5.9448028,-2.0263596,-9.547509,0.95358091409346837174,-4.706402,-13.778032,4.1545386,-2.0493448,-9.486567,1.40557031409346837188,-6.199785,-15.159487,-0.6655881,-2.1811466,-9.414509,1.66734651409346837194,-6.199187,-15.014039,-3.8738184,-2.3637967,-9.404164,1.46442511409346837207,-5.7646394,-15.087661,-2.7281928,-2.5319884,-9.410559,1.09582111409346837220,-5.727529,-14.635157,-1.4634558,-2.6526458,-9.404066,0.8351031409346837226,-5.6239796,-14.265851,0.047884032,-2.7723231,-9.3860035,0.62255261409346837239,-7.417835,-15.085865,4.6244006,-2.862584,-9.36424,0.535749851409346837256,-8.950723,-15.305532,9.476251,-3.032285,-9.290976,0.80832441409346837256,-7.037756,-14.111424,9.507375,-3.2596729,-9.147774,1.3649811409346837271,-4.695628,-12.5025215,0.0676362,-3.381945,-9.016702,1.85255611409346837274,-3.2992098,-11.425729,-5.0637364,-3.4377449,-9.031053,1.67104821409346837287,-2.9903579,-11.703457,-4.583699,-3.4569356,-9.090358,1.2591121409346837294,-3.2734723,-12.48217,-5.3528366,-3.4244525,-9.144233,0.909130161409346837306,-2.533664,-12.097901,-6.8103065,-3.352827,-9.201785,0.50605581409346837322,-1.4239515,-10.655395,-7.2125325,-3.2463896,-9.2537155,-0.0078487591409346837329,-0.60693014,-10.284293,-6.5744777,-3.1224546,-9.280293,-0.544810061409346837342,-0.3309984,-11.499949,-5.5946507,-2.9567654,-9.298324,-0.98442061409346837354,-0.6386533,-14.2868,-5.0643353,-2.7516,-9.324948,-1.28236841409346837355,-0.5021838,-18.528727,-3.329736,-2.537461,-9.3536625,-1.496891409346837370,0.88166475,-19.608511,1.1881226,-2.2837222,-9.41771,-1.5039081409346837374,4.3664255,-19.608511,3.7720647,-1.9652257,-9.53221,-1.2021851409346837387,7.2227077,-19.535488,2.1984756,-1.4617735,-9.665241,-0.785335541409346837395,5.587468,-15.737088,2.1984756,-0.8313348,-9.757655,-0.51711291409346837406,2.9939492,-12.543222,-2.9233203,-0.34687516,-9.796373,-0.284867471409346837423,1.9165585,-11.054029,-6.519411,-0.053351652,-9.797285,-0.425124821409346837425,1.6693572,-9.843162,-7.656657,0.11341128,-9.772387,-0.81117171409346837438,1.6956934,-8.7053175,-4.8817773,0.24334699,-9.721691,-1.26487271409346837456,2.1757307,-8.338406,-2.7335799,0.34638008,-9.679024,-1.53848271409346837458,2.8341362,-8.134899,-2.433706,0.4649033,-9.652086,-1.67078281409346837475,1.6017209,-8.14687,-3.3159695,0.63584703,-9.62481,-1.76892861409346837475,0.55964464,-6.9569516,-2.9287071,0.7211843,-9.591902,-1.90937351409346837489,0.66020113,-5.9400144,-3.3806129,0.73837477,-9.564286,-2.0370561409346837494,1.7471687,-5.271434,-6.293758,0.7617487,-9.522131,-2.21791631409346837507,1.6657659,-5.1648917,-6.367978,0.86055183,-9.395193,-2.6758531409346837520,0.9295488,-5.1104236,-5.0344076,0.9649311,-9.253456,-3.10045841409346837526,0.40701428,-5.1601033,-3.3865983,0.9934593,