time,acc_x,acc_y,acc_z,gravity_x,gravity_y,gravity_z1409522630486,0.38845924,-10.232818,-1.0935516,0.10802724,-9.805155,0.133020241409522630487,0.4189853,-10.129868,-1.1414356,0.100775085,-9.805596,0.102532741409522630488,0.51954174,-10.102334,-1.2150574,0.095092945,-9.805908,0.07411271409522630488,0.705691,-10.05445,-1.2401965,0.092743166,-9.806092,0.048520581409522630512,1.0660183,-9.967062,-1.151611,0.09461685,-9.806163,0.0251531471409522630512,1.198298,-9.785102,-1.0528502,0.10336948,-9.806106,0.0031599251409522630513,1.3000516,-9.715072,-1.0336965,0.11494155,-9.805959,-0.0195469971409522630531,1.3545196,-9.712079,-1.1013328,0.12800825,-9.805707,-0.0460714331409522630533,1.3617022,-9.795278,-1.1599907,0.14093496,-9.805332,-0.077678871409522630549,1.3030443,-9.872491,-1.2018893,0.15338293,-9.804817,-0.11156361409522630567,1.2174516,-9.921572,-1.210269,0.16417116,-9.804142,-0.149220261409522630567,1.146224,-9.988609,-1.2072762,0.17391631,-9.80329,-0.188890591409522630580,1.0354922,-10.160394,-1.2300211,0.1826707,-9.802295,-0.228150011409522630585,0.94092125,-10.301053,-1.2270284,0.19031361,-9.801198,-0.265836481409522630597,0.86011696,-10.304645,-1.192911,0.19824879,-9.800041,-0.300541881409522630614,0.76075757,-10.26933,-1.1109096,0.20651977,-9.798884,-0.331115871409522630615,0.66020113,-10.242993,-0.99898064,0.21496464,-9.797736,-0.35858081409522630633,0.53330845,-10.238205,-0.8882488,0.22260699,-9.796604,-0.3839281409522630633,0.40102878,-10.277111,-0.79367787,0.22968759,-9.795504,-0.40713121409522630655,0.29568392,-10.3226,-0.7314286,0.23515871,-9.794463,-0.42846391409522630656,0.16639702,-10.356718,-0.7254431,0.23917964,-9.793531,-0.447162181409522630665,0.035913024,-10.333375,-0.694917,0.24156654,-9.79272,-0.463302581409522630689,-0.06823475,-10.240001,-0.64463884,0.24184477,-9.792056,-0.47703711409522630690,-0.095768064,-10.204686,-0.59855044,0.24036446,-9.791557,-0.487889921409522630693,-0.095169514,-10.222643,-0.56802434,0.23816258,-9.791144,-0.49715461409522630720,-0.079008654,-10.229825,-0.52732295,0.23477294,-9.790818,-0.505101141409522630721,-0.019752163,-10.284892,-0.5057751,0.23049745,-9.790486,-0.513455751409522630725,0.1316811,-10.284892,-0.47524905,0.22565556,-9.79008,-0.523273351409522630734,0.29807812,-10.235212,-0.46028528,0.2206199,-9.789599,-0.53428811409522630774,0.45908818,-10.153211,-0.49320555,0.2159069,-9.789048,-0.54622111409522630775,0.62249243,-10.069414,-0.5542577,0.211371,-9.7884245,-0.55898881409522630776,0.7613561,-10.050261,-0.6667852,0.20774668,-9.787787,-0.57135031409522630776,0.85473,-10.068815,-0.7799112,0.20599458,-9.787098,-0.58364981409522630808,0.90620536,-10.069414,-0.8571242,0.20541064,-9.786439,-0.594811261409522630809,0.91578215,-10.103531,-0.92895025,0.2059978,-9.78582,-0.60472471409522630809,0.88405895,-10.09575,-0.94211835,0.20756315,-9.785254,-0.61328621409522630814,0.84335756,-10.084377,-0.9103952,0.20982465,-9.7847805,-0.620038031409522630858,0.7870938,-10.0748005,-0.89902276,0.21236207,-9.784423,-0.624783161409522630858,0.7278373,-10.031705,-0.88645315,0.21487346,-9.784208,-0.627272671409522630859,0.65421563,-10.026319,-0.87687635,0.21827422,-9.784034,-0.6288381409522630860,0.59855044,-10.099341,-0.8948329,0.22152913,-9.783983,-0.62847911409522630868,0.5482722,-10.122087,-0.9331401,0.22497049,-9.784056,-0.626148051409522630897,0.45310268,-10.140641,-0.98222125,0.22899084,-9.784158,-0.62309391409522630898,0.3788824,-10.132261,-0.9840169,0.23264001,-9.784248,-0.620296961409522630899,0.33877954,-10.09994,-1.0031705,0.2359525,-9.7843275,-0.61776541409522630919,0.32321724,-10.094553,-1.0193313,0.23934126,-9.7843275,-0.61649761409522630920,0.35314476,-10.105327,-1.0378864,0.24196956,-9.784241,-0.616831361409522630927,0.38726214,-10.087969,-1.0498575,0.24460137,-9.7840805,-0.61831661409522630934,0.45968673,-10.123882,-1.0737995,0.24679975,-9.783792,-0.62202191409522630949,0.52492875,-10.09994,-1.0809821,0.24901363,-9.783387,-0.627500651409522630968,0.57041854,-10.073604,-1.1091139,0.25148207,-9.782847,-0.63486621409522630969,0.5805939,-10.065823,-1.1426327,0.25458354,-9.782147,-0.64434481409522630974,0.59256494,-9.994595,-1.1438298,0.25803572,-9.7813225,-0.655396941409522631004,0.5967548,-9.96766,-1.1647792,0.26134968,-9.780408,-0.667624531409522631004,0.58897364,-9.97185,-1.1641805,0.26501143,-9.779388,-0.68097681409522631005,0.6254852,-9.995792,-1.1605892,0.26876757,-9.778338,-0.694426661409522631014,0.6326678,-10.031107,-1.1563994,0.27297816,-9.777248,-0.70800391409522631035,0.5422867,-10.102933,-1.1492168,0.27724224,-9.776137,-0.721601071409522631035,0.4914099,-10.248381,-1.1444284,0.2800693,-9.775009,-0.73564361409522631047,0.46866497,-10.271125,-1.1091139,0.2828747,-9.773786,-0.75068511409522631073,0.4441244,-10.189722,-1.0265139,0.2860802,-9.77243,-0.76691551409522631074,0.39324763,-10.144233,-0.96306765,0.28918666,-9.770989,-0.7839381409522631075,0.34715924,-10.128072,-0.8888474,0.2915712,-9.769529,-0.801057461409522631104,0.30107087,-10.152613,-0.81761986,0.29368746,-9.767987,-0.818878351409522631105,0.25198972,-10.193314,-0.74998367,0.29538113,-9.766368,-0.83737851409522631107,0.2100912,-10.199898,-0.6985083,0.2962734,-9.764731,-0.855934141409522631114,0.23463176,-10.198701,-0.66738373,0.29605743,-9.763183,-0.87350371409522631132,0.2896984,-10.189124,-0.7086837,0.29527912,-9.761838,-0.88867261409522631149,0.37469256,-10.224439,-0.75716627,0.29425797,-9.760733,-0.90107561409522631150,0.46327803,-10.231023,-0.80924016,0.29387042,-9.75981,-0.91113231409522631167,0.5303157,-10.1699705,-0.7781156,0.29445174,-9.758883,-0.92081491409522631181,0.5859809,-10.151415,-0.7811083,0.2956319,-9.758017,-0.92956051409522631182,0.6356605,-10.189124,-0.7811083,0.29736647,-9.757069,-0.938925151409522631194,0.65541273,-10.181343,-0.777517,0.29816198,-9.756015,-0.949574531409522631195,0.6841431,-10.128072,-0.7793127,0.2978703,-9.754849,-0.96154261409522631213,0.75477207,-10.056845,-0.7918822,0.2975354,-9.753583,-0.974417271409522631215,0.8415619,-10.017939,-0.79966336,0.2973837,-9.752281,-0.98739311409522631228,0.91697925,-10.010756,-0.79128367,0.2980439,-9.751001,-0.99978321409522631244,0.9624691,-10.063428,-0.8379706,0.29943946,-9.749867,-1.01035831409522631245,0.98341835,-10.019135,-0.8331822,0.3018404,-9.748829,-1.01961371409522631260,0.9864111,-9.948506,-0.8379706,0.3055375,-9.747901,-1.02736621409522631265,0.9528923,-9.895834,-0.85532856,0.3105451,-9.747056,-1.03387081409522631276,0.90740246,-9.937733,-0.90381116,0.31607,-9.7463045,-1.03927471409522631295,0.85293436,-10.039486,-0.9540894,0.32224196,-9.74553,-1.04461721409522631295,0.81283146,-10.126875,-0.97862995,0.32929713,-9.744703,-1.05010531409522631319,0.7589619,-10.115502,-0.97144735,0.33663404,-9.743848,-1.05569161409522631319,0.6991069,-10.061633,-0.9247604,0.34382835,-9.742926,-1.06188511409522631326,0.62249243,-10.000581,-0.86011696,0.35016546,-9.742013,-1.06815831409522631354,0.5746084,-9.910199,-0.8086416,0.3563339,-9.741085,-1.07457041409522631354,0.52492875,-9.902418,-0.78529817,0.36225745,-9.740131,-1.08122351409522631355,0.4794389,-9.993997,-0.79248077,0.36690527,-9.739233,-1.08771171409522631365,0.46387658,-10.131663,-0.8146271,0.37002662,-9.738426,-1.09385321409522631377,0.51714754,-10.190321,-0.85413146,0.37244624,-9.737704,-1.09945421409522631395,0.63087213,-10.257957,-0.8810662,0.37495267,-9.7371025,-1.10392811409522631395,0.7428011,-10.311827,-0.88166475,0.3771835,-9.73654,-1.10811091409522631417,0.8230068,-10.367492,-0.8631097,0.3798156,-9.735927,-1.11259411409522631418,0.87567925,-10.352529,-0.8762778,0.38329,-9.735202,-1.11774971409522631426,0.9564836,-10.260351,-0.9068039,0.3867039,-9.7343645,-1.1238311409522631448,0.9804256,-10.0903635,-0.8762778,0.3898498,-9.733405,-1.13104061409522631448,0.95109665,-9.847352,-0.8439561,0.3917036,-9.732429,-1.13877791409522631471,0.9367314,-9.531317,-0.8487445,0.3934376,-9.731412,-1.14682151409522631472,0.9271546,-9.183559,-0.83737206,0.39386693,-9.730166,-1.1572231409522631474,0.9223662,-8.959103,-0.7769185,0.393418,-9.728711,-1.16953241409522631504,0.91458505,-8.86932,-0.6871359,0.3912956,-9.727161,-1.18304781409522631505,0.8924387,-8.934562,-0.6290765,0.38699996,-9.725524,-1.19782631409522631506,0.83258367,-9.056666,-0.59017074,0.379853,-9.723818,-1.2138861409522631514,0.83258367,-9.002198,-0.5979519,0.36871406,-9.722091,-1.23101831409522631537,0.80445176,-9.002198,-0.6805518,0.35328153,-9.720422,-1.24860131409522631537,0.65421563,-9.31943,-0.8295909,0.33676997,-9.718598,-1.26721721409522631546,0.53211135,-9.753978,-1.1641805,0.3162237,-9.716909,-1.28533031409522631571,0.6099229,-10.329783,-1.2593501,0.29580784,-9.714987,-1.30458271409522631572,0.7356185,-10.527305,-1.3072342,0.27794775,-9.713025,-1.32298051409522631574,0.97862995,-10.536881,-1.2431892,0.26125908,-9.710878,-1.34200911409522631607,1.2880806,-10.448297,-1.1935096,0.24766894,-9.708374,-1.3625441409522631608,1.5496471,-10.5123415,-1.1761516,0.23942514,-9.705419,-1.38489141409522631609,1.7070658,-10.662578,-1.2120646,0.23450814,-9.70225,-1.40774381409522631615,1.7603368,-10.575189,-1.1959038,0.2384753,-9.698703,-1.43133511409522631639,1.6927006,-10.246585,-1.0803835,0.25057256,-9.694809,-1.4554421409522631640,1.46585,-9.934141,-0.92895025,0.2688631,-9.690581,-1.48011761409522631648,1.0199299,-9.727043,-0.8050503,0.2924661,-9.6860285,-1.50521871409522631675,0.45250413,-9.783905,-0.7721301,0.32210663,-9.681307,-1.52936531409522631676,-0.1388637,-10.205285,-0.8463503,0.3577879,-9.676751,-1.55012991409522631676,-0.74758947,-10.787076,-1.0127473,0.39893034,-9.673128,-1.56265031409522631703,-1.2006922,-11.133636,-1.1905168,0.4375091,-9.670415,-1.56910231409522631704,-1.3521254,-10.969634,-1.2437878,0.4764371,-9.669895,-1.56094411409522631708,-1.6741456,-10.775703,-1.6280571,0.5129279,-9.67212,-1.53537191409522631715,-2.3391352,-10.888829,-2.4528596,0.5398472,-9.67701,-1.49481531409522631738,-2.5354595,-11.067198,-2.5049336,0.551983,-9.683661,-1.44651461409522631739,-2.6390088,-11.253945,-2.3642743,0.55616647,-9.693555,-1.37698511409522631746,-2.8742392,-11.256938,-1.9057846,0.54766047,-9.707082,-1.28181091409522631777,-3.0496144,-10.857106,-1.1384429,0.52562606,-9.721214,-1.17985921409522631778,-3.4213142,-10.323798,-1.3976152,0.4938652,-9.734269,-1.08188511409522631778,-3.5553896,-9.8515415,-2.0266917,0.44604427,-9.743489,-1.01776081409522631807,-2.859874,-9.409213,-1.4101849,0.38417557,-9.748324,-0.99647951409522631807,-2.0578163,-9.291298,-0.56922144,0.31888914,-9.749698,-1.00601831409522631807,-1.6406267,-9.370906,0.11432313,0.25188276,-9.747175,-1.04858731409522631815,-1.2240356,-9.36492,0.6835446,0.1884709,-9.740595,-1.12056711409522631841,-0.47465047,-9.129689,0.557849,0.13754034,-9.73105,-1.20755731409522631842,0.374094,-8.857349,0.109534726,0.09958763,-9.719674,-1.29938921409522631846,1.0342951,-8.774151,-0.4417302,0.06879443,-9.707014,-1.39269131409522631881,1.4951789,-8.886678,-1.0187328,0.048109073,-9.693632,-1.48376621409522631882,1.7705121,-9.118318,-1.5298948,0.04700842,-9.679358,-1.57423441409522631883,1.8357542,-9.268554,-2.0015526,0.07095716,-9.6634865,-1.66804661409522631916,1.9285295,-9.502586,-2.32058,0.11924422,-9.644509,-1.77189341409522631917,1.9548657,-9.861118,-2.3600843,0.18842618,-9.620567,-1.89197871409522631917,1.6759412,-9.993398,-1.9794062,0.26881403,-9.593105,-2.01753691409522631918,1.1348516,-9.900622,-1.3000516,0.3505334,-9.560262,-2.15614221409522631926,0.7038953,-9.93893,-0.76075757,0.42709145,-9.522768,-2.3032221409522631957,0.4950012,-9.948506,-0.9415198,0.49577612,-9.48192,-2.45312621409522631958,0.5363012,-9.7324295,-0.84335756,0.55481285,-9.439569,-2.5994491409522631958,0.4890157,-9.753978,-0.55006784,0.6041943,-9.400281,-2.72764161409522631993,0.16998832,-10.253767,-0.037708677,0.64147043,-9.368035,-2.82821681409522631993,-0.33638534,-10.9343195,0.52492875,0.66507035,-9.345562,-2.89629961409522631994,-0.96306765,-11.341333,1.0965444,0.67109805,-9.3301735,-2.94413571409522631995,-1.6543933,-11.4041815,1.9381063,0.6673317,-9.325505,-2.9597361409522632020,-2.2403743,-11.265318,2.4390929,0.6496772,-9.329745,-2.95027661409522632021,-2.433706,-10.970831,1.9297266,0.6270941,-9.337366,-2.93099981409522632026,-1.7699136,-10.463859,0.79966336,0.6138073,-9.342667,-2.91688751409522632053,-0.8355764,-10.078991,-0.34835634,0.6208571,-9.347329,-2.90040831409522632054,-0.09696517,-10.027515,-1.2856863,0.6439783,-9.358157,-2.86017731409522632073,0.3776853,-10.0269165,-2.315193,0.6756829,-9.371943,-2.80722551409522632073,0.13227965,-10.1621895,-4.307169,0.70740026,-9.39263,-2.72921409522632075,0.15861586,-10.718243,-5.4420204,0.74172014,-9.414002,-2.64515451409522632109,-1.2060791,-10.9899845,-4.573524,0.7773459,-9.432901,-2.56642061409522632110,-2.280477,-11.7064495,-2.942474,0.79196024,-9.449763,-2.49903751409522632110,-2.0727801,-12.313379,-2.730587,0.78156567,-9.458598,-2.46870021409522632134,-1.2497733,-12.728773,-3.459023,0.76718235,-9.450745,-2.503051409522632135,-0.90141696,-13.251906,-5.129577,0.76359606,-9.427489,-2.5903251409522632136,-0.8774749,-13.860034,-7.7129207,0.7811361,-9.393817,-2.70488741409522632146,-0.37708676,-14.265851,-7.041347,0.8111098,-9.340642,-2.87487051409522632170,-0.5955577,-14.392743,-4.4723687,0.8949618,-9.280191,-3.04096871409522632170,-1.3563153,-14.689625,-0.9247604,1.0081619,-9.225388,-3.1695761409522632175,-3.2004492,-15.053543,7.5764513,1.0952684,-9.184737,-3.25751661409522632203,-7.5704656,-16.14051,18.143261,1.0964241,-9.187454,-3.24945141409522632203,-10.825383,-16.701353,18.77533,1.0997578,-9.111585,-3.455421409522632207,-6.625953,-13.357251,4.408922,1.0849992,-8.999994,-3.7407591409522632251,-5.4899044,-13.208811,-1.4251486,-2.1312373,-9.492744,1.23125851409522632251,-6.209362,-13.367427,2.9813797,-2.3571312,-9.447227,1.1680061409522632252,-5.9370217,-13.078327,3.9594111,-2.6087987,-9.342844,1.44076811409522632253,-4.485537,-13.062764,0.9463082,-2.7519066,-9.268699,1.63970581409522632255,-2.0608091,-12.812571,-2.753332,-2.8009593,-9.266266,1.56886791409522632296,-0.53929394,-14.466365,-3.7259765,-2.7430272,-9.330304,1.26158761409522632297,0.53091425,-15.676036,-3.4225113,-2.5530334,-9.4245,0.911717951409522632298,1.2976574,-16.922815,-3.205836,-2.2614405,-9.522946,0.60808981409522632298,2.7311857,-17.6728,-2.9125464,-1.9318037,-9.608038,0.352355061409522632319,4.630386,-17.575834,-2.3421278,-1.5456203,-9.683072,0.139753341409522632319,5.1439424,-16.23987,-2.0219033,-1.0855244,-9.746364,-0.0205780941409522632327,4.551976,-15.073894,-2.8125885,-0.63851124,-9.784753,-0.14603171409522632353,3.8642416,-14.195222,-4.383185,-0.26434126,-9.798414,-0.3026591409522632354,1.6651673,-14.970943,-3.1118636,0.023977673,-9.7918825,-0.53744861409522632355,-0.31483752,-14.987104,-2.6360161,0.122167416,-9.783822,-0.657499431409522632379,-2.1721394,-14.380773,-2.0560207,0.074907064,-9.778076,-0.74431031409522632379,-3.4901476,-14.144943,-2.2984335,-0.09233049,-9.7737055,-0.79784671409522632393,-1.5191209,-13.946823,-2.7491422,-0.3397814,-9.762034,-0.870418551409522632395,2.2457612,-12.247539,-1.7585411,-0.44400516,-9.748362,-0.970940531409522632417,3.9869444,-10.627861,-3.0855274,-0.30025983,-9.75072,-1.00183891409522632418,4.277241,-9.864111,-4.329315,-0.031575434,-9.744047,-1.10586571409522632428,3.7750576,-8.647258,-4.746505,0.27365884,-9.718534,-1.28279171409522632456,4.630386,-6.2183404,-5.187038,0.5310745,-9.674355,-1.51499491409522632457,5.313332,-3.8379054,-5.2606597,0.8657421,-9.59746,-1.81924261409522632458,4.124611,-2.705448,-7.8128786,1.259338,-9.479151,-2.17489151409522632490,2.0494366,-2.6767175,-7.2909427,1.5583813,-9.280673,-2.7587921409522632491,0.88166475,-3.2208,-4.993706,1.6687273,-9.084262,-3.2957491409522632492,-0.074220255,-3.0220811,-3.4380736,1.6485718,-8.958179,-3.63367991409522632495,0.16819267,-3.1884782,-1.5490485,1.5199354,-8.882001,-3.86913921409522632517,1.4838065,-3.6601357,-0.032920275,1.4464531,-8.871944,-3.9200431409522632518,3.5811272,-3.5110967,0.0724246,1.5576804,-8.918046,-3.7699411409522632527,4.8159366,-3.4680011,-0.9828198,1.9327061,-8.912523,-3.60582971409522632550,5.7502737,-3.2549171,-1.7298107,2.4639804,-8.816474,-3.51695131409522632551,5.4857144,-2.9203274,-2.8670566,3.0947573,-8.628546,-3.4844111409522632555,5.331289,-2.2188265,-3.9091327,3.643473,-8.364525,-3.59585951409522632578,5.269638,-1.7232267,-4.9045224,4.132275,-8.010889,-3.86268781409522632578,5.1756654,-1.2497733,-5.3887496,4.5551834,-7.5715795,-4.25345851409522632594,4.5382094,-0.9804256,-5.5204306,4.9150767,-7.0789566,-4.67982861409522632595,4.072537,-1.1127052,-4.8680105,5.1575513,-6.589564,-5.11348871409522632618,4.18686,-1.5478514,-3.9510314,5.328563,-6.169064,-5.45155531409522632619,2.5875335,-3.317765,9.48044,5.5030546,-5.8392076,-5.63830471409522632627,-12.130821,-19.459473,19.608511,6.0615606,-6.4870095,-4.1649211409522632650,-19.60911,-19.608511,17.92898,6.0812693,-6.3209743,-4.385641409522632651,-19.266142,-19.608511,8.309675,6.0823565,-6.148476,-4.6229381409522632655,-13.544598,-18.528128,3.5182793,5.984765,-6.0966015,-4.81502681409522632686,-8.802282,-12.2319765,4.349067,5.8507485,-6.1078176,-4.9632371409522632687,-5.1158104,-8.455722,4.8919525,-3.6786842,-8.784964,2.33710671409522632687,-1.1976994,-7.0365586,4.293402,-3.77791,-8.709833,2.45694421409522632696,1.6585833,-6.091448,2.4438813,-3.5777936,-8.711004,2.73645851409522632722,3.1441853,-5.1475334,0.6392518,-3.1901875,-8.795001,2.93956541409522632723,4.9344497,-5.443816,0.40402153,-2.683106,-8.955449,2.9616311409522632731,7.6363063,-8.463503,-3.8498764,-1.9647588,-9.166303,2.87906071409522632756,7.2753806,-9.909002,-5.928642,-0.9316604,-9.510531,2.20276551409522632756,5.33488,-10.307637,-5.0876784,-0.009605595,-9.7258415,1.2563131409522632757,3.99293,-11.133038,-3.958214,0.61851215,-9.772203,0.540260141409522632785,4.2161894,-14.344261,-3.5206735,1.0311655,-9.751977,0.0777571951409522632786,2.2571337,-18.877682,-1.6011224,1.3577535,-9.708246,-0.27723641409522632789,0.6596026,-19.437326,-0.013766659,1.3560133,-9.704028,-0.404296851409522632837,1.7262194,-15.843031,1.5520413,1.2195778,-9.72161,-0.416324561409522632838,3.945046,-10.824784,1.5825673,1.2096975,-9.726388,-0.32312661409522632839,4.644751,-8.049905,0.7212533,1.4091291,-9.703024,-0.18997781409522632840,4.168904,-7.3059063,-0.50517654,1.6388469,-9.668249,-0.097772981409522632840,3.539827,-7.433398,-1.4933833,1.866614,-9.627009,-0.0829132651409522632870,2.938284,-7.6009917,-2.0219033,2.0744565,-9.5833645,-0.161713821409522632871,2.4109612,-7.6428905,-2.1829133,2.2253208,-9.546069,-0.301495821409522632871,2.3211784,-7.8116817,-2.0620062,2.3099694,-9.519383,-0.464523641409522632875,2.4809916,-8.3629465,-1.7938557,2.3661957,-9.496896,-0.616842451409522632893,2.569577,-9.2625675,-1.6693572,2.4128013,-9.476704,-0.73542911409522632925,2.0494366,-10.432136,-1.721431,2.4395509,-9.4616585,-0.83427761409522632926,1.0061632,-12.443863,-2.078167,2.3998058,-9.464905,-0.90934191409522632927,0.14185645,-14.225149,-2.5157075,2.2305322,-9.496709,-1.00379881409522632927,0.023343466,-14.137162,-2.8880057,1.970643,-9.542367,-1.10914031409522632958,0.41000703,-12.543222,-2.8502972,1.7215729,-9.575479,-1.23158761409522632958,0.842759,-10.99178,-2.5605986,1.5386142,-9.590787,-1.34902221409522632960,1.3227965,-9.817424,-1.6250644,1.4277266,-9.59381,-1.44596281409522633003,1.7292122,-8.805275,-1.1348516,1.4019072,-9.594166,-1.46868611409522633004,1.567005,-8.316858,-1.0187328,1.4374318,-9.5901375,-1.46063441409522633005,1.0570401,-8.341997,-0.9427169,1.4760402,-9.585122,-1.45502351409522633005,0.3764882,-8.033145,-1.5879543,1.4797915,-9.586437,-1.44250191409522633007,-1.0821792,-7.98586,-3.484162,1.423175,-9.587195,-1.49354521409522633050,-2.9484594,-8.573636,-5.499481,1.2127347,-9.578768,-1.7166451409522633050,-2.468422,-8.546701,-4.920683,0.8090338,-9.543475,-2.10664321409522633051,-1.9219455,-8.409035,-3.5164838,0.47556716,-9.489078,-2.42933031409522633053,-1.9800048,-8.831013,-2.0123265,0.24054158,-9.456983,-2.58418541409522633056,-1.4389153,-9.355343,-0.92176765,0.007654168,-9.45928,-2.58695481409522633075,-0.62608373,-9.803059,-0.24660277,-0.13687457,-9.492104,-2.46000651409522633076,-0.37828386,-10.146626,0.11252748,-0.19010727,-9.538782,-2.2684571409522633096,-0.46567222,-10.5841675,0.01316811,-0.20853929,-9.586717,-2.05469271409522633097,-0.65541273,-10.78109,0.078410104,-0.22202364,-9.624869,-1.86628141409522633107,-0.6206968,-10.378265,0.33877954,-0.2498647,-9.657195,-1.68717681409522633129,-1.0570401,-9.407417,0.51954174,-0.27659371,-9.686563,-1.50480261409522633130,-1.2617443,-8.861539,0.55605334,-0.35227352,-9.70897,-1.33499131409522633136,-1.091756,-9.156625,0.37349546,-0.445337,-9.725568,-1.17702781409522633176,-0.94331545,-9.802461,0.24600422,-0.5166767,-9.737486,-1.04151631409522633177,-1.376666,-10.523713,0.013766659,-0.5646011,-9.746489,-0.92606681409522633179,-1.6819267,-11.458051,-0.025139118,-0.6434344,-9.748892,-0.845870441409522633180,-1.7411832,-12.74673,0.10594343,-0.73564625,-9.747509,-0.78440791409522633203,-1.6519991,-13.917495,0.878672,-0.8175091,-9.745892,-0.72086161409522633204,-1.3724761,-14.350246,4.2503066,-0.8708704,-9.750178,-0.58822191409522633210,-1.3605051,-13.746907,9.213487,-0.90546507,-9.762876,-0.1917151409522633232,-3.330933,-13.931261,16.78934,-0.9406296,-9.745637,0.5551451409522633233,-6.281787,-14.5884695,14.552556,-0.9809259,-9.755915,0.174086991409522633236,-6.206968,-13.323133,-0.6835446,-1.4685224,-9.359105,2.5339671409522633264,-4.7285485,-13.4422455,-5.971139,-1.8009833,-9.374465,2.24638561409522633264,-2.777274,-14.282012,-5.269638,-1.998347,-9.435886,1.77229961409522633269,-3.3560722,-14.820108,-1.258153,-1.985506,-9.514558,1.30436411409522633276,-3.2513258,-14.698004,5.7802014,-1.9726807,-9.533307,1.18109021409522633297,-3.6613328,-15.482704,12.856264,-1.9371375,-9.507865,1.42070391409522633298,-3.232771,-13.592482,12.30081,-1.8968203,-9.390497,2.09547351409522633308,-3.276465,-11.991359,3.6846764,-1.9132773,-9.232496,2.69643931409522633346,-5.1642933,-11.677719,-5.392939,-2.0326884,-9.179817,2.78738451409522633348,-6.314707,-12.081141,-9.173983,-2.3109083,-9.247891,2.30360841409522633349,-5.829881,-13.041217,-6.2458735,-2.6214414,-9.328619,1.5084121409522633367,-4.160524,-13.501502,-3.306991,-2.8041868,-9.351651,0.923871341409522633368,-2.7269957,-12.029667,-3.4691982,-2.8672283,-9.36025,0.57887661409522633368,-1.9428947,-10.45907,-4.577115,-2.8426464,-9.381356,0.282639151409522633376,-1.1569979,-10.281301,-4.7177744,-2.781081,-9.403917,-0.04843291409522633399,-1.09834,-12.843695,-3.50571,-2.6579971,-9.43196,-0.37891341409522633400,-0.54647654,-17.439964,-1.9961656,-2.4968438,-9.465201,-0.588303741409522633407,2.0494366,-19.608511,-0.2220622,-2.2515454,-9.523703,-0.63247321409522633424,7.413047,-19.608511,2.3517046,-1.8511946,-9.615681,-0.531199461409522633441,12.747329,-19.608511,1.3192052,-1.1419863,-9.735771,-0.284654561409522633441,9.7719345,-19.167978,-0.6691794,-1.3928783,-9.707138,-0.0417377871409522633458,3.8851907,-15.622166,-2.333748,0.47705287,-9.7940235,-0.141045141409522633458,1.4335283,-13.891757,-5.0798974,0.76278585,-9.774233,-0.230055541409522633477,1.4556746,-11.303625,-6.3242836,0.85625386,-9.755722,-0.512922641409522633478,1.335366,-9.048885,-4.872799,0.8704421,-9.727762,-0.885076641409522633488,1.2503718,-8.521563,-4.413112,0.8512027,-9.69891,-1.17345051409522633505,1.4730326,-8.942942,-3.8522706,0.8610548,-9.666357,-1.41084651409522633509,1.1109096,-9.108741,-3.2213984,0.8812337,-9.635757,-1.59562211409522633523,-0.28311434,-8.677784,-3.6996403,0.891473,-9.614831,-1.71193371409522633539,0.13587095,-6.6600704,-4.246715,0.81126136,-9.593253,-1.86595121409522633540,0.46627077,-5.119402,-5.934029,0.77263457,-9.550301,-2.08930521409522633564,0.14664486,-5.297171,-6.5469446,0.7624706,-9.459525,-2.47112541409522633564,0.8996213,-5.157709,-5.2319293,0.74074596,-9.3431,-2.8858561409522633571,1.8974048,-4.793192,-3.6936548,0.7854852,-9.236227,-3.200861409522633577,1.7723078,-4.5860934,-3.7966053,0.89111996,-9.159621,-3.38787321409522633600,1.804031,-4.4915223,-2.1200657,0.98985475,-9.068155,-3.5998811409522633600,2.1739352,-3.697246,-1.4065934,1.0927697,-9.03794,-3.64580351409522633608,2.6156654,-2.5713725,-1.9931729,1.2629406,-9.017162,-3.6422711409522633632,2.8778305,-1.5514427,-3.4183214,1.5005366,-8.939746,-3.74161891409522633632,3.3680432,-1.0749966,-3.5889084,1.7956886,-8.756534,-4.03349071409522633636,4.2610803,-0.9588778,-2.64679,2.1849947,-8.509819,-4.3565061409522633667,4.83509,-1.1091139,-2.8778305,2.7095265,-8.257141,-4.544061409522633668,5.134964,-1.1845313,-3.0053217,3.2847722,-7.935768,-4.7333151409522633668,5.1182046,-1.1318588,-3.0579941,3.8709793,-7.56528,-4.8941281409522633676,4.845266,-1.2761095,-3.3333273,4.4248075,-7.162185,-5.0293731409522633699,4.607641,-2.0207062,-3.019687,4.87257,-6.7558217,-5.17564871409522633700,2.6036944,-3.3824084,1.8387469,5.208285,-6.4513664,-5.23679351409522633708,1.086369,-10.069414,8.8884735,5.417988,-6.6926537,-4.69299271409522633726,-2.3056161,-16.688185,17.226282,5.1622515,-7.8626523,-2.77493121409522633740,-13.319543,-19.608511,19.397821,5.208081,-7.75622,-2.98116351409522633741,-16.897676,-19.608511,19.592352,5.251975,-7.640888,-3.19436671409522633759,-11.398794,-19.608511,12.949638,5.2655473,-7.5480714,-3.38689061409522633759,-8.500014,-18.066048,7.418434,5.203105,-7.4983044,-3.58796951409522633775,-7.650073,-13.019669,8.146272,-2.135087,-8.613286,4.17409851409522633776,-4.300585,-10.24419,8.486847,-2.5382664,-8.506503,4.16737131409522633789,-2.3361423,-9.440936,6.9198413,-2.6977868,-8.381939,4.3168761409522633805,-0.3824737,-8.097789,6.002862,-2.6674995,-8.316651,4.45961141409522633821,2.0871453,-8.245032,5.5862713,-2.4317908,-8.255354,4.70169261409522633821,6.0902505,-14.97214,0.9576807,-2.0217645,-8.26812,4.87042671409522633838,8.071452,-18.551472,-6.109404,-1.2322525,-8.638872,4.47457741409522633839,5.907693,-18.306067,-7.5584946,-0.41344723,-9.160827,3.47544381409522633855,1.9806033,-16.871939,-2.5408466,0.09351853,-9.489225,2.47310041409522633856,1.3383588,-15.294759,1.857302,0.23878275,-9.600164,1.98751351409522633874,3.7074213,-12.333132,-1.2348095,0.32620063,-9.620416,1.873921409522633890,4.3329067,-10.383054,-2.011728,0.58985156,-9.658109,1.59480251409522633891,4.258686,-9.210494,-0.9487024,0.87005544,-9.678497,1.31912681409522633906,5.109825,-7.6470804,-0.5650316,1.1416206,-9.66945,1.16997491409522633908,5.6946087,-6.517616,-1.0947487,1.487757,-9.637469,1.03738781409522633921,5.182848,-7.0844426,-2.5432408,1.8721519,-9.58745,0.863860251409522633942,4.19524,-8.744822,-4.1742907,2.1986125,-9.538443,0.595506851409522633944,3.6888664,-9.727641,-4.8763905,2.422351,-9.50062,0.20216041409522633960,3.4943373,-9.495404,-4.2880154,2.5684524,-9.461451,-0.233223071409522633961,3.281852,-8.411429,-3.3105824,2.6666026,-9.418425,-0.594052551409522633968,3.09271,-7.608773,-2.4139538,2.7552361,-9.3730755,-0.851190151409522634002,3.235165,-7.323863,-1.8650831,2.8264434,-9.334255,-1.02631991409522634003,3.3614593,-7.414244,-1.7537527,2.9135687,-9.293791,-1.1432291409522634003,3.0663738,-8.225879,-1.9913772,3.0130975,-9.24872,-1.246121409522634009,2.0488381,-9.847352,-2.336741,3.067429,-9.214635,-1.3608021409522634027,0.7763199,-12.266094,-2.484583,2.993581,-9.219917,-1.48390471409522634028,-0.8738836,-15.030798,-2.3373394,2.7411366,-9.2851715,-1.56273161409522634037,-1.8237832,-15.039178,-2.3127987,2.324948,-9.391154,-1.60350551409522634063,-1.6154876,-12.41633,-1.9871874,1.8664578,-9.487074,-1.63772991409522634063,-1.1366472,-9.707291,-1.7274165,1.4884784,-9.550126,-1.65829921409522634068,-0.034715924,-8.265383,-0.7691373,1.1980743,-9.590197,-1.66226281409522634094,-0.050278235,-7.375937,0.31124622,1.0519474,-9.619796,-1.58849851409522634095,-1.4293385,-7.173627,-0.30765492,0.95407826,-9.653482,-1.4388931409522634097,-2.171541,-7.1155677,-1.9231426,0.7636292,-9.679972,-1.37308931409522634130,-3.0304608,-8.233061,-4.0462008,0.51495314,-9.682249,-1.46945121409522634131,-3.2632968,-9.472659,-6.535572,0.19287498,-9.641903,-1.77957871409522634131,-2.136825,-9.062054,-8.180388,-0.093235046,-9.542315,-2.25963431409522634137,-1.4443022,-8.413823,-7.809886,-0.23829833,-9.38964,-2.81927131409522634166,-1.388637,-8.653842,-6.831256,-0.34061217,-9.227178,-3.30356761409522634167,-1.3461399,-9.681553,-5.3821654,-0.4551837,-9.083889,-3.66689751409522634171,-0.9403227,-10.792462,-3.6565444,-0.5669623,-9.001591,-3.84971381409522634204,-0.7673417,-11.314399,-1.9907787,-0.62783587,-9.013647,-3.81187651409522634204,-0.66139823,-11.993155,-1.1013328,-0.64924425,-9.077808,-3.65270421409522634205,-0.43754035,-12.485164,-0.3274071,-0.6634847,-9.17198,-3.40660641409522634208,-0.39863458,-12.707226,0.11971009,-0.6400211,-9.280593,-3.10344081409522634224,-0.7356185,-12.668919,0.55485624,-0.6075436,-9.3819,-2.78949121409522634242,-1.0959458,-12.607866,1.1426327,-0.6076205,-9.470886,-2.47053431409522634242,-1.2593501,-12.869432,7.6865845,-0.64201725,-9.549883,-2.1349441409522634249,0.5033809,-13.808558,15.269021,-0.6858236,-9.701057,-1.26077281409522634257,2.5851393,-12.636597,13.872603,-0.5468652,-9.789864,0.172901571409522634278,4.0467997,-12.762891,16.888699,-0.26920244,-9.719774,1.2743251409522634278,3.0238767,-14.000693,15.877748,0.048081018,-9.52061,2.3507581409522634290,-0.688333,-13.794791,2.6671407,0.13033348,-9.291938,3.13261491409522634309,-3.7241807,-12.01171,-8.77834,-0.06650076,-9.319234,3.05251571409522634310,-4.156334,-10.59135,-10.702082,-0.31698507,-9.5123005,2.36348651409522634317,-3.4320881,-10.727819,-7.704541,-0.56425333,-9.669215,1.53568051409522634348,-3.05141,-11.892598,-4.5232453,-0.7329387,-9.745721,0.808783051409522634349,-4.532822,-13.773843,-1.8782512,-0.86452746,-9.763831,0.300955121409522634351,-7.043143,-15.22413,-0.08798691,-1.0769362,-9.747144,0.0613777231409522634357,-5.7041855,-15.431229,1.0390835,-1.4500831,-9.69876,0.0414566321409522634383,-3.6403837,-14.848241,4.224569,-1.6782784,-9.661509,0.0950643051409522634383,-1.3293805,-14.876372,6.4751186,-1.7650484,-9.639411,0.369718881409522634389,-0.6823475,-15.080478,5.620987,-1.7025138,-9.625027,0.79417061409522634412,-1.3652935,-14.882358,5.597045,-1.5978154,-9.607039,1.14986321409522634412,-2.3959973,-14.157514,5.4922986,-1.5383453,-9.575795,1.45191411409522634417,-3.4967315,-13.158532,3.46022,-1.5686475,-9.5189085,1.7607081409522634440,-5.108628,-13.055582,0.9660604,-1.6913173,-9.475032,1.87978971409522634441,-5.5383873,-12.379818,-0.59615624,-1.9144822,-9.446685,1.80701151409522634456,-4.494515,-11.4915695,-2.5288756,-2.1540341,-9.426693,1.63339091409522634457,-3.3967736,-11.3640785,-5.345055,-2.324347,-9.431991,1.34363881409522634474,-2.7096379,-11.423933,-6.931214,-2.4128914,-9.465067,0.87227621409522634491,-2.2493525,-10.6398325,-6.59004,-2.4385076,-9.493468,0.313269261409522634491,-1.5556326,-10.248381,-5.7185507,-2.4261155,-9.499876,-0.19154491409522634505,-0.83617496,-11.073781,-5.253477,-2.3777406,-9.493829,-0.619631231409522634522,0.46926352,-13.721768,-4.493318,-2.263518,-9.493313,-0.961185461409522634522,2.1990743,-18.528128,-2.3439236,-2.0273225,-9.522379,-1.17672791409522634539,5.000889,-19.608511,1.7310078,-1.642226,-9.598391,-1.15948271409522634540,8.39048,-19.608511,3.1812954,-1.105848,-9.706431,-0.855964541409522634555,11.277288,-19.608511,0.23762453,-0.4091104,-9.7853565,-0.499796031409522634557,8.939949,-18.091785,-2.9885623,-0.6645491,-9.780716,-0.25763681409522634571,4.9494133,-13.712192,-5.0864816,0.884353,-9.753762,-0.50244451409522634588,2.4720132,-11.4119625,-6.0507464,1.1629947,-9.707726,-0.76021751409522634591,1.8836381,-10.760141,-4.172495,1.28148,-9.660242,-1.09907531409522634604,1.5759833,-10.872668,-3.6104562,1.3179694,-9.629737,-1.30442671409522634621,0.59615624,-11.222222,-6.4745197,1.30264,-9.610517,-1.45309221409522634621,1.38325,-9.219472,-5.6401405,1.2171463,-9.567682,-1.77437171409522634635,2.2146366,-5.394735,-4.2179847,1.2154216,-9.512547,-2.05050921409522634637,1.0384849,-3.6128504,-5.2037973,1.3205382,-9.448291,-2.27077221409522634653,0.22864626,-4.449624,-8.684368,1.3483834,-9.356167,-2.61044551409522634657,1.3940239,-5.094861,-7.873931,1.314181,-9.188666,-3.16413451409522634670,1.8291701,-4.799776,-3.7966053,1.3783075,-9.017249,-3.59998081409522634687,2.0219033,-4.4568067,-0.47764325,1.4464048,-8.939904,-3.7624991409522634689,2.2284033,-4.362834,0.52971715,1.509401,-8.958152,-3.69372731409522634704,3.1735144,-3.2770636,0.04309563,1.6164528,-9.012115,-3.51272651409522634743,3.9971197,-2.3253684,-1.002572,1.8770949,-9.011458,-3.3823851409522634744,4.7614684,-1.7058687,-1.4688427,2.2707875,-8.925815,-3.3680521409522634744,5.217564,-1.234211,-2.156577,2.785123,-8.763246,-3.40866571409522634745,5.409699,-1.0881647,-2.0626047,3.3611052,-8.505684,-3.53931161409522634780,5.109226,-1.0480618,-2.7024553,3.9511776,-8.195559,-3.6594291409522634781,5.3342814,-1.0594343,-3.0460231,4.4676256,-7.8360186,-3.84805321409522634782,5.8095303,-1.0576386,-3.0855274,4.966134,-7.425394,-4.04615931409522634782,5.9717374,-1.3257892,-3.335123,5.4683437,-6.968664,-4.207771409522634791,5.7395,-2.5145104,-1.8243817,5.8957343,-6.5199594,-4.34750841409522634821,3.5930982,-6.1967926,0.99179804,6.24439,-6.25921,-4.24266961409522634821,1.4730326,-9.9473095,7.0994067,6.234586,-6.597556,-3.71114471409522634826,-2.373851,-17.212515,16.01242,5.8919907,-7.499267,-2.28382591409522634852,-15.329475,-19.608511,18.942326,5.957728,-7.391358,-2.45839211409522634853,-19.48102,-19.608511,18.777723,6.016141,-7.273619,-2.65912271409522634853,-16.132132,-19.608511,9.276335,6.031221,-7.176484,-2.87972661409522634876,-12.501923,-15.923237,5.4019175,5.991662,-7.1033936,-3.13243531409522634876,-9.190742,-11.30961,6.8522053,-2.787583,-8.672443,3.63159661409522634877,-5.2115784,-10.02572,5.93762,-3.2891166,-8.488913,3.64560751409522634911,-2.5372553,-9.108142,4.4873323,-3.4379485,-8.40754,3.69650531409522634912,-0.49799395,-7.8410106,3.8857894,-3.3290603,-8.397135,3.81783581409522634912,2.6264393,-9.009979,3.1465795,-3.0681312,-8.428862,3.96374421409522634918,6.1387334,-14.826693,-0.4261679,-2.5565288,-8.58991,3.98095661409522634944,4.927267,-17.976864,-4.7279496,-1.7215611,-8.987461,3.5259261409522634944,2.7712884,-16.255432,-4.6902413,-1.0915841,-9.370479,2.67823671409522634952,1.894412,-12.427104,-2.3558946,-0.71325964,-9.5758095,1.99136441409522634985,3.4063504,-10.824186,-2.7371712,-0.47387978,-9.656088,1.64492821409522634985,4.947019,-10.113707,-4.238934,-0.15008754,-9.719044,1.29925721409522634986,4.941034,-9.5492735,-5.1062336,0.280477,-9.765501,0.85247081409522634990,3.4494462,-9.714474,-3.3476925,0.6934701,-9.774422,0.387507621409522635013,3.1501708,-8.607155,-1.0468647,0.9604887,-9.759101,0.088285021409522635014,4.783615,-6.510433,0.05267244,1.1913129,-9.733993,-0.0236129311409522635018,5.6467247,-6.2512608,-0.33638534,1.5603727,-9.681157,-0.104032041409522635050,5.1421466,-7.492056,-1.4215573,1.975393,-9.60365,-0.19526481409522635051,4.3035774,-8.784326,-2.4384944,2.3116314,-9.52465,-0.328387321409522635051,3.4793737,-9.275137,-2.8269536,2.5463758,-9.455515,-0.528771341409522635082,3.1878796,-8.973468,-2.545635,2.674468,-9.404829,-0.752874141409522635082,3.441665,-8.64666,-2.212841,2.7559242,-9.364412,-0.93970251409522635083,3.7140055,-8.722076,-1.8052281,2.8474798,-9.321391,-1.0834781409522635090,3.5326445,-9.03452,-1.6142905,2.9473584,-9.278811,-1.17776071409522635109,2.8395233,-9.812037,-1.5849615,3.0219333,-9.247359,-1.23476041409522635110,1.6561891,-11.389816,-1.4891934,3.0125105,-9.242983,-1.28936181409522635118,0.1400608,-13.302185,-1.3557167,2.8648539,-9.286566,-1.31252571409522635147,-0.943914,-13.84088,-1.4377182,2.5518713,-9.380084,-1.29322141409522635148,-1.2485762,-12.625823,-1.1599907,2.1572888,-9.482768,-1.26237741409522635150,-1.0618285,-10.6877165,-0.97264445,1.7831653,-9.56895,-1.19412621409522635180,-1.1049241,-9.302073,-1.42455,1.4828207,-9.629877,-1.11227271409522635180,-1.0319009,-8.847174,-1.9075803,1.2360855,-9.663904,-1.11869431409522635181,-0.6380547,-8.897452,-2.1338322,1.0142703,-9.686606,-1.14512461409522635210,-0.5895722,-9.275736,-2.2972364,0.84792984,-9.69349,-1.21969381409522635210,-0.48003745,-9.503185,-1.5197195,0.70306194,-9.691371,-1.32418061409522635211,-1.4748282,-9.033921,-1.3102269,0.59257907,-9.693599,-1.36138491409522635218,-5.2624555,-9.464878,-3.0023289,0.40439767,-9.6995735,-1.38747971409522635246,-6.221333,-9.801862,-2.492364,-0.14570816,-9.677073,-1.58221261409522635246,-5.21936,-9.326612,-2.6629508,-0.7181027,-9.630722,-1.704091409522635251,-3.074155,-8.467094,-3.469797,-1.1620991,-9.544596,-1.92889191409522635280,-1.8028339,-8.5299425,-3.2866404,-1.3349159,-9.461068,-2.20829271409522635280,-1.0941502,-9.254189,-2.5318682,-1.3712925,-9.416364,-2.37107851409522635281,-0.29867667,-9.359533,-1.899799,-1.3284999,-9.416149,-2.39616631409522635316,0.054468088,-9.347562,-1.2443863,-1.2167826,-9.442167,-2.3527231409522635316,-0.21308395,-9.737218,-0.7529764,-1.086447,-9.479123,-2.2663271409522635317,-0.587178,-10.396222,-0.52971715,-0.9876728,-9.518645,-2.1424951409522635318,-0.9600749,-11.177331,-0.3776853,-0.9345608,-9.555989,-1.9950171409522635340,-1.1192893,-11.828553,-0.142455,-0.91558284,-9.590132,-1.83343591409522635340,-1.1552023,-12.190677,0.26156655,-0.9224866,-9.62148,-1.65726461409522635356,-1.0827777,-11.766304,0.3657143,-0.9388842,-9.65125,-1.46364931409522635358,-1.0714053,-11.538257,0.7266402,-0.9526591,-9.674254,-1.29290281409522635372,-0.89303726,-11.624448,2.795829,-0.9635379,-9.695186,-1.11596051409522635385,-0.5351041,-11.377247,8.130709,-0.9530852,-9.729032,-0.77970951409522635402,-0.39205053,-12.285248,11.018715,-0.91202575,-9.764145,0.0083902271409522635402,0.34596214,-13.234549,18.661007,-0.85662854,-9.724697,0.93105281409522635422,-1.5981296,-14.314333,12.7575035,-0.8881147,-9.750024,0.564513151409522635423,-4.267066,-13.165116,-5.813122,-0.8299174,-9.342175,2.86450581409522635432,-3.876811,-12.055404,-9.948506,-1.1261542,-9.503039,2.1434631409522635438,-3.7960067,-13.135189,-7.8039002,-1.3200369,-9.621794,1.3597681409522635468,-4.484938,-14.55555,-3.845088,-1.4518162,-9.668258,0.76641871409522635470,-4.920683,-14.479533,-1.3239936,-1.5953128,-9.667069,0.416083161409522635470,-6.4164605,-14.619595,0.53570265,-1.7634654,-9.642027,0.30316641409522635500,-6.679823,-15.000272,3.690662,-2.0128012,-9.594702,0.246465411409522635501,-5.497087,-15.495872,9.735423,-2.2414138,-9.536752,0.443654451409522635501,-4.0982747,-16.121956,10.899005,-2.3503237,-9.462331,1.05388431409522635525,-2.690484,-15.711948,7.80809,-2.3694806,-9.364205,1.69339941409522635525,-2.3014264,-14.889541,2.2780828,-2.3288355,-9.292177,2.09818151409522635530,-2.966416,-13.208212,-1.5304934,-2.3201916,-9.288431,2.12418061409522635540,-2.385822,-11.871051,-1.6932992,-2.386539,-9.328712,1.85739961409522635563,-2.859874,-11.887212,-3.8139634,-2.3827174,-9.370563,1.63878311409522635563,-3.0699651,-11.18571,-6.807314,-2.4166477,-9.422877,1.24080491409522635570,-2.2523453,-10.259753,-7.697957,-2.4522643,-9.47104,0.675405141409522635603,-1.3210008,-10.029909,-6.8127007,-2.4457145,-9.496401,0.084873751409522635604,-0.85293436,-11.01273,-5.879561,-2.381728,-9.5032015,-0.432344561409522635605,-0.17776948,-13.851055,-5.4474072,-2.2676373,-9.503901,-0.839096371409522635641,2.0242975,-18.585588,-3.590704,-2.0744855,-9.517472,-1.13339961409522635642,5.529409,-19.608511,4.595072,-1.6964436,-9.583384,-1.20467751409522635643,9.424775,-19.608511,6.283582,-1.1139772,-9.717457,-0.70744861409522635644,10.381259,-19.608511,0.1352724,-1.3705343,-9.6988325,-0.474005761409522635650,7.215525,-16.919823,-3.490746,-1.5934856,-9.674384,-0.193645671409522635677,3.6170402,-13.180679,-5.2684407,0.82565415,-9.767596,-0.28770811409522635677,1.2419921,-12.198458,-6.923433,1.0440844,-9.73343,-0.58362641409522635678,1.6244658,-10.519524,-5.1900306,1.0670913,-9.697806,-0.99211021409522635711,2.4959552,-8.768764,-3.2872388,1.0716107,-9.66407,-1.27586521409522635712,3.2668881,-8.09719,-2.2122424,1.1473577,-9.635225,-1.4199961409522635713,3.039439,-7.571663,-3.7618895,1.269309,-9.608732,-1.49383991409522635718,2.4678235,-5.258864,-5.3761797,1.4072875,-9.56084,-1.66742061409522635747,0.6075287,-3.8259344,-8.144476,1.5425245,-9.480361,-1.9783291409522635748,0.37469256,-4.506486,-7.9714947,1.5396866,-9.344503,-2.54559351409522635750,1.3706805,-4.969166,-5.286996,1.5126635,-9.183812,-3.08866211409522635772,2.071583,-4.538808,-3.8373067,1.5500154,-9.070374,-3.39061409522635772,2.5474305,-4.2634745,-1.3934253,1.613793,-8.983615,-3.5861811409522635778,2.337938,-4.5795093,-1.2551602,1.7540377,-8.95856,-3.58300521409522635809,1.8596961,-4.8380833,-1.9482816,1.8671896,-8.945475,-3.5584331409522635810,2.255338,-4.3520603,-0.8002619,1.9423572,-8.924158,-3.57169771409522635810,3.58412,-3.465607,-0.24660277,2.097482,-8.929511,-3.46912461409522635818,4.859032,-2.7030537,-0.8110358,2.4300895,-8.8982115,-3.32969571409522635843,5.4647655,-2.0159178,-2.1763294,2.932267,-8.769833,-3.26530481409522635844,6.0746884,-1.5101427,-3.1010897,3.5158348,-8.515902,-3.3598741409522635852,6.363788,-1.371279,-4.138976,4.1462846,-8.147719,-3.54871491409522635874,6.344036,-1.1767502,-4.9422307,4.731183,-7.6756377,-3.8562751409522635875,6.1650696,-1.0247183,-5.885546,5.234849,-7.1344557,-4.2268591409522635879,6.160281,-0.80804306,-6.271013,5.612999,-6.5420246,-4.67616751409522635909,5.1666875,-0.9295488,-4.8057613,5.911748,-5.9271603,-5.10787631409522635910,3.769072,-6.4272346,1.963844,6.1260734,-5.4646235,-5.36465361409522635912,-4.4436383,-17.083826,18.921375,6.223732,-5.9370446,-4.71031051409522635918,-18.556261,-19.608511,19.603724,6.262729,-5.7573047,-4.87873841409522635944,-19.60911,-19.608511,15.539566,6.301693,-5.522697,-5.09498261409522635944,-17.869722,-19.285892,7.092224,6.2911267,-5.331768,-5.3070141409522635950,-10.67395,-10.81461,3.0472202,6.152866,-5.315102,-5.4829131409522635985,-8.874707,-6.209362,5.2289367,-3.3730588,-8.788869,2.74748441409522635986,-5.989694,-5.4234653,5.519832,-3.9489145,-8.524921,2.81107931409522635986,-0.54527944,-4.6621094,4.156933,-4.1712403,-8.33715,3.0435331409522636010,1.8854338,-5.875371,2.4570496,-3.9591796,-8.323799,3.34807941409522636011,3.8642416,-9.424775,0.3345897,-3.505708,-8.464514,3.49748331409522636011,7.1610575,-16.39729,-3.4524388,-2.7853272,-8.794399,3.32729271409522636019,6.823475,-16.163855,-5.3474493,-1.5984443,-9.326962,2.57354931409522636033,5.2157683,-12.897565,-4.5418005,-0.670961,-9.634242,1.70341071409522636052,4.771045,-12.12304,-3.9510314,-0.075924136,-9.743346,1.10988381409522636052,4.9506106,-13.7684555,-4.5645456,0.4067381,-9.77584,0.66175131409522636068,4.0934863,-14.386758,-4.3406878,0.83742744,-9.769253,0.175473481409522636105,3.1310172,-13.827712,-3.0017304,1.1243387,-9.739374,-0.225447181409522636106,2.6437972,-12.454638,-1.1013328,1.2815499,-9.711497,-0.463553341409522636106,3.0992942,-10.053253,0.076614454,1.3931655,-9.692382,-0.53591951409522636107,3.816956,-8.083424,0.31184477,1.5286262,-9.671806,-0.53836981409522636111,4.2676644,-7.7799582,-0.12030864,1.7178515,-9.6405945,-0.527545031409522636120,4.2850223,-8.051102,-0.7164649,1.9490582,-9.596472,-0.52847151409522636153,3.6750996,-8.323442,-0.9504981,2.19095,-9.542179,-0.56298811409522636154,2.6581624,-8.241441,-1.0061632,2.3749812,-9.494982,-0.612509971409522636154,2.2296004,-7.748235,-0.90859956,2.4481661,-9.473144,-0.66064421409522636181,2.3062148,-7.5291657,-0.7254431,2.493131,-9.45842,-0.702126561409522636182,2.5611973,-8.023568,-0.6787562,2.5320072,-9.447544,-0.70938981409522636183,2.6599581,-8.698733,-0.93493575,2.5718827,-9.437301,-0.702269731409522636207,2.247557,-9.534309,-1.2401965,2.607229,-9.426254,-0.7200691409522636207,1.3078327,-10.778696,-1.489792,2.5905187,-9.427189,-0.76661571409522636212,0.039504327,-12.191275,-1.6903064,2.464947,-9.455566,-0.8286751409522636228,-0.92535895,-12.648567,-1.6950948,2.2060008,-9.513642,-0.891383051409522636247,-1.417966,-11.966819,-1.4293385,1.8713374,-9.58008,-0.9437031409522636247,-1.2120646,-10.295666,-1.0217255,1.5357019,-9.638708,-0.9525411409522636252,-0.5895722,-8.991425,-1.1791444,1.2575878,-9.681439,-0.926605171409522636278,-0.20350714,-8.636484,-1.8710686,1.0665286,-9.704449,-0.925529661409522636279,-0.090381116,-8.881291,-2.1547816,0.93235904,-9.710706,-1.00165671409522636280,-0.040102877,-9.293094,-2.315193,0.8307827,-9.708334,-1.10834471409522636305,-0.79248077,-9.022549,-2.4157495,0.749566,-9.700039,-1.23198871409522636305,-3.3638535,-8.495825,-3.9336734,0.6001301,-9.693931,-1.35571151409522636310,-4.923077,-8.406042,-3.5248635,0.20857729,-9.667043,-1.63558111409522636319,-4.0426097,-8.258201,-3.084929,-0.3171347,-9.616078,-1.89761409522636335,-3.8600516,-8.74123,-4.59567,-0.70111793,-9.539637,-2.16198641409522636354,-2.8508956,-8.892664,-4.086902,-0.98708415,-9.429603,-2.50572161409522636355,-1.5023615,-8.948928,-2.9879637,-1.1397688,-9.358957,-2.6983841409522636359,-1.0588357,-9.730036,-2.297835,-1.1725157,-9.339266,-2.75203251409522636387,-0.7020996,-10.590153,-1.8028339,-1.1547958,-9.35103,-2.719391409522636387,-0.54408234,-10.996569,-1.2970588,-1.0960928,-9.384839,-2.62560271409522636392,-0.58119243,-11.384429,-0.90859956,-1.01446,-9.428898,-2.49742651409522636399,-0.623091,-11.795034,-0.6344634,-0.9497405,-9.476253,-2.33859091409522636422,-0.8870517,-12.136209,-0.480636,-0.896345,-9.523719,-2.1600311409522636423,-1.1552023,-12.178107,-0.52073884,-0.87313044,-9.564886,-1.98015391409522636430,-1.1821371,-11.484985,-0.37349546,-0.87937635,-9.5955715,-1.82266681409522636453,-1.7052702,-11.30961,0.2184709,-0.89774203,-9.6191635,-1.6840861409522636454,-2.0045455,-11.824963,0.6667852,-0.9639716,-9.640951,-1.51432971409522636459,-1.7657237,-12.316372,4.173692,-1.0391203,-9.661836,-1.31892571409522636498,-0.7918822,-12.136807,11.001357,-1.0856024,-9.710474,-0.83578621409522636499,0.092775315,-12.254123,14.459183,-1.0512934,-9.748332,0.187618671409522636499,0.39025488,-13.610438,19.608511,-0.94912475,-9.668225,1.33976921409522636500,-2.6611552,-14.438233,6.045958,-1.0005671,-9.712152,0.918354631409522636521,-4.7668557,-13.406931,-10.784681,-1.0267571,-9.385413,2.65144751409522636521,-4.945224,-13.274053,-12.385205,-1.3166896,-9.568287,1.69841131409522636531,-4.6178164,-14.07611,-7.08145,-1.5132719,-9.666611,0.66107851409522636559,-5.2325277,-14.503475,-1.4083891,-1.6758406,-9.659543,0.234873761409522636559,-7.3178773,-14.996681,2.1230583,-1.8678449,-9.626252,0.12967211409522636560,-7.7039423,-16.348806,8.776545,-2.149502,-9.565506,0.226153271409522636595,-6.284181,-16.777369,12.099697,-2.3628044,-9.4855585,0.782125951409522636595,-4.887164,-16.666637,7.941567,-2.467974,-9.372855,1.49301221409522636596,-3.5619736,-14.623784,2.9161377,-2.5412846,-9.282106,1.88541161409522636599,-2.9652188,-12.731766,0.75596917,-2.5963829,-9.261301,1.91246151409522636627,-2.8353333,-12.480375,-0.78170687,-2.6108375,-9.255795,1.91942791409522636627,-3.1848867,-12.637196,-1.8860323,-2.6474266,-9.279135,1.74904971409522636633,-3.0879216,-12.491747,-3.9348705,-2.6707246,-9.318886,1.48189451409522636657,-2.5791538,-11.265916,-5.762245,-2.6720915,-9.370784,1.10395491409522636658,-1.8866309,-10.538677,-6.157887,-2.6611679,-9.417701,0.62886961409522636659,-1.1252748,-10.82658,-6.142923,-2.6183553,-9.449578,0.141748311409522636684,-0.5710171,-12.338518,-5.755062,-2.513553,-9.473724,-0.317772981409522636684,1.0289081,-16.26441,-4.6950297,-2.3512957,-9.495546,-0.69021281409522636702,4.3676224,-19.607315,0.1436521,-2.0390084,-9.547077,-0.930677531409522636703,8.552089,-19.608511,5.474941,-1.5089476,-9.659121,-0.771290061409522636711,11.460445,-19.608511,3.1735144,-1.7860496,-9.627801,-0.53466511409522636733,8.476072,-18.706497,-1.2090719,-2.0378866,-9.5890465,-0.26001931409522636733,4.6830587,-14.49749,-3.7193923,0.6419778,-9.785419,-0.061679921409522636747,1.9363106,-12.446258,-6.630143,0.93392456,-9.758762,-0.25447921409522636769,0.91338795,-10.694301,-7.313688,1.0154271,-9.733012,-0.63857031409522636770,0.712275,-9.448118,-4.4238863,1.0022843,-9.695633,-1.07728271409522636771,1.590947,-8.996213,-2.6527755,0.95697445,-9.669139,-1.32753981409522636779,1.7004818,-8.684967,-4.935048,0.97269213,-9.650831,-1.44419991409522636808,1.0127473,-7.2622123,-6.76362,1.0062984,-9.605169,-1.70249491409522636808,0.7164649,-5.221155,-6.681618,1.0163834,-9.528448,-2.08471781409522636813,0.5470751,-5.4091,-5.7478795,1.0325187,-9.425866,-2.50146561409522636840,1.5466543,-5.403713,-4.2742486,1.0435249,-9.329151,-2.83696821409522636841,2.1392193,-4.9494133,-2.8287494,1.1300479,-9.256889,-3.03370791409522636841,3.0520086,-4.3999443,-1.4808137,1.2504823,-9.210191,-3.1271531409522636851,3.3093853,-4.2521024,-1.7645266,1.4376717,-9.180135,-3.13506341409522636880,3.0484173,-4.10845,-1.8471266,1.6640286,-9.128852,-3.17261361409522636881,2.7084408,-3.9546227,-1.8267759,1.8828402,-9.068797,-3.22214481409522636881,3.6697125,-3.043629,-1.3323733,2.0818868,-9.009932,-3.26454621409522636906,4.923676,-1.887828,-1.163582,2.4151428,-8.923054,-3.2736261409522636907,5.5168395,-1.38325,-1.845331,2.929363,-8.759125,-3.29650711409522636911,6.279991,-1.2144588,-2.4366987,3.525323,-8.500868,-3.38788651409522636930,6.401497,-1.0953473,-3.0855274,4.198733,-8.128006,-3.53222081409522636932,5.917868,-1.0462662,-4.4442368,4.8372974,-7.6764617,-3.7206031409522636948,5.693412,-0.7589619,-5.282806,5.319691,-7.166476,-4.0636091409522636973,5.686229,-0.43634325,-5.122993,5.6986833,-6.6000123,-4.48723551409522636974,5.382764,-0.44711718,-4.823119,6.0338817,-6.013365,-4.85820341409522636974,4.981137,-1.7549498,-4.6058455,6.291486,-5.4682894,-5.16579251409522636980,3.8983588,-6.4421983,4.1796775,6.4071865,-5.138769,-5.3583021409522637005,-6.015432,-18.930952,17.091608,6.6121325,-5.7478986,-4.4058751409522637006,-19.60911,-19.608511,18.982428,6.6851606,-5.496781,-4.61133581409522637011,-17.47887,-19.470846,10.931925,6.7166867,-5.3006577,-4.7916131409522637030,-7.6482773,-9.998186,4.4161053,6.600601,-5.234862,-5.0198281409522637031,-8.412027,-5.9448028,5.961562,-1.763319,-9.27954,2.6365211409522637047,-5.0134583,-3.7852328,5.4659624,-2.6206937,-8.96861,2.97764871409522637072,0.39624038,-3.8139634,-0.6548142,-3.058908,-8.717932,3.288031409522637072,4.3263226,-6.4828997,-2.665345,-2.9002588,-8.853105,3.06291061409522637073,7.9278,-12.160749,-2.1386206,-2.1792521,-9.194417,2.62372471409522637080,10.005369,-17.228077,-3.417723,-0.8952958,-9.539774,2.08843421409522637107,8.706514,-15.640122,-5.871181,0.43205902,-9.704892,1.34119021409522637107,6.3464303,-12.1128645,-5.744887,1.2968867,-9.702943,0.58426411409522637114,3.8271315,-12.864644,0.18614918,1.8002579,-9.6399765,0.0187543851409522637129,3.5410242,-13.598467,2.6617537,1.9684839,-9.60702,0.02539281409522637131,5.137358,-13.731944,1.7776948,2.0451477,-9.588569,0.21709611409522637147,5.4964886,-12.53185,0.56802434,2.2386746,-9.545449,0.207661931409522637169,4.4017396,-10.936115,-0.58418524,2.449698,-9.494014,0.18186991409522637170,3.6589386,-9.633669,-1.0755951,2.5797098,-9.459613,0.176625561409522637173,3.2854433,-9.283517,-1.4742297,2.6793654,-9.43243,0.143840911409522637180,2.8802247,-8.930372,-1.6292542,2.7558541,-9.411325,0.0511070861409522637202,2.5270798,-8.261791,-1.6053122,2.7996254,-9.39823,-0.07590661409522637202,2.2822728,-7.45315,-1.4036007,2.822623,-9.389327,-0.209179341409522637211,2.2092497,-6.8186865,-1.246182,2.8360124,-9.382079,-0.322548541409522637233,2.2505496,-6.645705,-1.377863,2.856301,-9.371772,-0.426440861409522637234,2.4271219,-7.1748238,-1.8555063,2.8806539,-9.358236,-0.543729841409522637248,2.4199393,-8.057686,-2.2936451,2.909052,-9.33915,-0.69860951409522637272,2.1338322,-8.955511,-2.327164,2.9155116,-9.321517,-0.88289521409522637273,0.85473,-10.901399,-2.4660277,2.8768187,-9.315883,-1.05294251409522637273,-0.8355764,-13.018472,-2.345719,2.6714008,-9.357886,-1.20993641409522637280,-1.7465701,-13.36204,-1.8890251,2.2800858,-9.447809,-1.30785831409522637306,-1.8303672,-11.581951,-1.264737,1.8410517,-9.537147,-1.35046541409522637306,-1.453879,-9.205706,-1.0229226,1.4609666,-9.605968,-1.32715581409522637312,-0.96785605,-8.669404,-1.7950528,1.1547511,-9.65333,-1.28459321409522637340,-0.45789108,-8.529344,-3.2549171,0.91909856,-9.675248,-1.3096571409522637340,-0.40521863,-7.8637557,-5.386954,0.76188046,-9.663549,-1.48518131409522637341,-1.5574282,-7.728483,-8.696339,0.6420858,-9.600601,-1.89382111409522637374,-3.259107,-8.69993,-9.679757,0.43178692,-9.439973,-2.62123541409522637375,-2.0033484,-8.070255,-7.375937,0.091881,-9.230373,-3.3109211409522637375,-1.6262615,-8.271368,-6.1866174,-0.08289105,-9.051439,-3.77292631409522637380,-1.9500773,-9.065644,-4.721366,-0.1936505,-8.925559,-4.0579921409522637405,-1.6250644,-9.519346,-2.883816,-0.36418226,-8.887201,-4.1298191409522637406,-0.87567925,-10.045472,-1.3922282,-0.52174014,-8.925971,-4.02805331409522637414,-0.55485624,-10.911574,-0.46088383,-0.59898835,-9.019007,-3.80383351409522637439,-0.46746787,-11.892,-0.14724341,-0.6135446,-9.143895,-3.49043681409522637440,-0.34715924,-12.4702,-0.130484,-0.5858108,-9.270282,-3.14469051409522637440,-0.5919664,-12.629414,-0.033518825,-0.5388266,-9.376843,-2.82044031409522637477,-0.961272,-12.4785795,0.25318682,-0.51659405,-9.4621315,-2.52420351409522637477,-1.4903905,-12.220005,0.581791,-0.5333134,-9.530834,-2.24703551409522637478,-1.8890251,-12.028469,0.7505822,-0.60493606,-9.58568,-1.97969851409522637480,-1.8968062,-12.160151,1.0408791,-0.71465456,-9.62608,-1.73154911409522637510,-1.7286136,-12.4468565,2.36188,-0.82028383,-9.658871,-1.48450451409522637512,-1.2072762,-12.741941,8.207323,-0.89968294,-9.697325,-1.15015671409522637512,0.16819267,-12.51569,10.484808,-0.910622,-9.758169,-0.345362421409522637541,0.86969376,-12.74673,9.226655,-0.81207776,-9.759304,0.5166461409522637542,2.308609,-12.005724,14.778809,-0.6895514,-9.722901,1.07706521409522637542,2.5157075,-12.91193,4.465186,-0.51948124,-9.582232,2.02023221409522637571,-3.7732618,-10.972627,-8.756793,-0.32771719,-9.558329,2.16826151409522637572,-4.0336313,-10.509348,-10.593744,-0.54497343,-9.676838,1.49406221409522637572,-4.0940847,-12.717401,-9.537901,-0.7613243,-9.746898,0.76729431409522637580,-4.6016555,-15.234305,-5.8382607,-0.9614687,-9.759363,-0.0284901821409522637619,-4.711789,-15.499463,-3.1824925,-1.1980858,-9.721577,-0.475298141409522637619,-6.475717,-15.090653,-0.30945057,-1.4020792,-9.678734,-0.72574411409522637619,-6.356007,-14.890738,1.8423382,-1.7339114,-9.627761,-0.68566231409522637620,-5.7107697,-14.64593,7.839813,-1.995227,-9.587724,-0.514791971409522637632,-5.2863975,-15.305532,11.332953,-2.1492999,-9.568084,0.052077981409522637653,-5.1158104,-15.556924,7.3986816,-2.2583635,-9.506324,0.836653651409522637655,-5.057751,-14.453795,3.5895069,-2.376127,-9.423813,1.3100271409522637660,-4.6244006,-13.232753,1.1378443,-2.5035958,-9.370701,1.44650291409522637688,-4.12102,-12.887988,1.4167689,-2.6381536,-9.325601,1.49790451409522637689,-3.3375173,-12.977172,0.05267244,-2.7408137,-9.293838,1.51093011409522637692,-2.4181437,-13.102269,-2.2535424,-2.7626164,-9.304647,1.40066991409522637731,-1.1013328,-12.576143,-5.3247046,-2.7094004,-9.354671,1.14877021409522637731,-0.4902128,-11.187506,-7.247847,-2.5819385,-9.43389,0.711135751409522637734,-0.077213004,-10.629657,-7.8188643,-2.4478405,-9.495109,0.146264331409522637734,0.5662287,-11.479,-7.0808516,-2.2873008,-9.525951,-0.441468361409522637757,1.2174516,-14.784196,-5.4857144,-2.0739899,-9.541841,-0.90676941409522637757,3.2632968,-19.264944,-1.7543513,-1.7900416,-9.567579,-1.19481241409522637761,7.057508,-19.608511,5.401319,-1.3697841,-9.645158,-1.12472361409522637791,11.243171,-19.608511,4.8524485,-0.7358064,-9.761495,-0.58499481409522637791,10.434529,-19.296667,-1.4215573,-1.0032508,-9.74996,-0.319601951409522637792,6.1249666,-15.125369,-3.3464954,0.75062376,-9.7755375,-0.21407531409522637824,3.1082723,-12.681488,-5.2241483,1.1101434,-9.736134,-0.381644871409522637824,1.347337,-10.937312,-7.225102,1.2745517,-9.701356,-0.655430851409522637825,1.1749545,-9.165004,-6.4020953,1.2856457,-9.662449,-1.07451321409522637853,2.308609,-8.718486,-4.1240125,1.2681341,-9.617734,-1.43575881409522637854,2.7012582,-8.395866,-3.551798,1.3151886,-9.580269,-1.6306911409522637854,2.9993362,-6.8773446,-2.4546554,1.3935486,-9.540833,-1.78911281409522637861,1.9800048,-4.7405195,-5.159505,1.526869,-9.504047,-1.87407081409522637887,1.3335704,-3.067571,-8.119935,1.6192968,-9.419595,-2.19533441409522637887,1.168969,-3.469797,-6.573281,1.6878355,-9.256276,-2.76458531409522637894,1.2431892,-4.122815,-4.0336313,1.742197,-9.108002,-3.19052271409522637926,1.763928,-3.7972038,-3.144784,1.775945,-9.0264635,-3.39696721409522637927,1.8890251,-3.602675,-1.9195513,1.834754,-8.946959,-3.5715521409522637927,1.6915035,-3.4201171,-1.0289081,1.9042938,-8.900015,-3.65154811409522637933,2.0500352,-2.9622262,-0.99299514,1.9893354,-8.888341,-3.63460681409522637974,2.2768857,-2.2577322,-2.5480292,2.1360474,-8.86186,-3.61595771409522637975,2.5635915,-1.4478935,-3.66672,2.316864,-8.745606,-3.7837741409522637977,3.4165258,-0.88765025,-3.3602622,2.553075,-8.531628,-4.10652831409522637978,4.1958385,-0.6793547,-3.4518404,2.9234135,-8.261015,-4.40223651409522637985,5.0541596,-0.6452374,-3.5930982,3.396381,-7.905688,-4.70479441409522638021,5.4551888,-0.6242881,-4.731541,3.9592159,-7.4658546,-4.9755461409522638021,5.6485205,-0.75836337,-5.866991,4.491621,-6.90895,-5.31621841409522638022,5.6826377,-0.87328506,-6.249465,4.923146,-6.281174,-5.69911241409522638022,5.4982843,-1.7806876,-5.2181625,5.2552342,-5.6640224,-6.0391881409522638067,4.815338,-3.681085,-3.0723593,5.5102816,-5.246197,-6.1874591409522638068,4.1742907,-7.047931,2.0949266,5.673655,-5.232439,-6.0499321409522638068,0.56682724,-16.839617,18.398243,5.861299,-5.83407,-5.2706011409522638069,-17.487848,-19.608511,19.608511,5.8730345,-5.6191115,-5.486661409522638076,-19.60911,-19.608511,18.40722,5.863707,-5.423557,-5.6896751409522638081,-15.465944,-19.608511,8.74123,5.71789,-5.377506,-5.8786541409522638104,-9.941324,-12.836513,6.169858,5.469212,-5.388509,-6.1009911409522638105,-4.7417164,-3.8600516,6.1638722,-2.9380152,-8.817168,3.12985941409522638112,-0.59615624,-4.2119994,3.0005333,-3.2392626,-8.592075,3.4429371409522638133,0.5374983,-6.282984,-0.338181,-3.0978076,-8.5718975,3.61891371409522638135,3.0334535,-9.460688,1.2964603,-2.822007,-8.729118,3.46542331409522638141,6.3338604,-15.97172,0.034117375,-2.1690125,-8.949981,3.3709951409522638169,6.6480994,-18.062456,-2.9412768,-1.1349907,-9.301505,2.89209271409522638170,4.5256395,-14.651318,-4.5142674,-0.2780299,-9.564986,2.14572381409522638173,3.3363202,-12.336124,-5.6120086,0.19663668,-9.68614,1.52001481409522638183,4.019266,-12.512098,-4.656722,0.4901048,-9.749304,0.93876551409522638208,4.259285,-13.345879,-3.2812533,0.80326766,-9.763129,0.454374581409522638208,4.177882,-13.813945,-2.168548,1.084462,-9.745844,0.113503051409522638212,4.305373,-12.409147,-1.4161704,1.3143554,-9.717135,-0.141930681409522638232,4.7339354,-9.425373,-0.29688102,1.5340419,-9.680459,-0.325265971409522638251,4.665102,-7.9272017,0.61052144,1.7873312,-9.634636,-0.38684011409522638251,4.3161473,-7.8332295,0.39624038,2.0419822,-9.586334,-0.320765171409522638254,4.035427,-8.191761,-0.076614454,2.2800465,-9.534839,-0.242147551409522638261,3.4931402,-8.732252,-0.41060558,2.4880507,-9.483615,-0.202550871409522638278,2.9670146,-8.469488,-0.6374562,2.6104426,-9.450649,-0.203062331409522638282,2.553416,-7.8188643,-0.59974754,2.6930814,-9.426901,-0.226429761409522638298,2.4762032,-7.4842744,-0.7278373,2.741692,-9.4123335,-0.247993351409522638301,2.5779567,-7.730279,-1.3964181,2.7774847,-9.400739,-0.286505161409522638326,2.5498247,-8.24563,-2.0135236,2.808263,-9.387632,-0.395481681409522638326,2.0021513,-9.388862,-2.0817583,2.8240006,-9.374246,-0.564742271409522638343,0.8110358,-11.495759,-2.1817162,2.7668333,-9.379984,-0.72866911409522638344,-0.7092823,-13.086706,-2.1984756,2.5616188,-9.426027,-0.87092651409522638358,-1.780089,-12.789227,-2.1865046,2.199361,-9.504953,-0.99450851409522638361,-1.7872716,-10.757747,-2.2451627,1.7900609,-9.579007,-1.09941431409522638375,-1.1713632,-9.339182,-2.36188,1.4308357,-9.62861,-1.18870371409522638401,-0.39205053,-8.579621,-2.7138276,1.1544429,-9.655927,-1.26520471409522638401,0.049679685,-8.182783,-3.6727054,0.97288984,-9.660096,-1.38073541409522638402,0.3369839,-7.6931686,-4.863222,0.86519176,-9.633685,-1.61677941409522638412,-0.94690675,-7.6045833,-6.467936,0.8262964,-9.567082,-1.98962021409522638426,-3.3051953,-8.579023,-7.301717,0.6746937,-9.464189,-2.47877671409522638445,-3.2231941,-8.507197,-8.046912,0.3077657,-9.326471,-3.01540111409522638445,-2.0536265,-8.040926,-8.606557,0.006710604,-9.1418915,-3.54910661409522638460,-1.1055226,-8.60117,-5.242703,-0.1688865,-8.933525,-4.04153631409522638461,-1.1480197,-9.591172,-2.697667,-0.27401364,-8.87139,-4.17058371409522638476,-0.7314286,-10.280702,-1.3599066,-0.38837796,-8.915387,-4.0663791409522638492,-0.050876785,-10.878056,-0.31603462,-0.44449282,-9.014573,-3.83540181409522638495,0.22864626,-11.432912,-0.27473465,-0.41692764,-9.149906,-3.50368331409522638508,-0.04309563,-11.590929,-0.42556936,-0.34618223,-9.270822,-3.17843481409522638512,-0.4285621,-11.279084,-0.37349546,-0.29923153,-9.364893,-2.89476061409522638524,-0.7787141,-10.819996,-0.055066638,-0.28319824,-9.436989,-2.6520631409522638541,-1.1629834,-10.774507,0.2088941,-0.30840603,-9.497565,-2.42312341409522638542,-1.6011224,-11.295245,0.5021838,-0.3814926,-9.550124,-2.19545081409522638561,-1.9985598,-11.891401,0.866701,-0.49703476,-9.597562,-1.95195591409522638562,-2.4372973,-12.395381,1.3874398,-0.63845927,-9.638223,-1.69335061409522638575,-2.7922378,-12.768876,4.0677485,-0.7914868,-9.6728325,-1.40721771409522638592,-2.6270378,-12.518084,12.087726,-0.9702245,-9.71541,-0.916419861409522638593,-1.9967642,-12.660539,11.721413,-1.1120903,-9.740926,0.219164151409522638608,-2.131438,-13.671491,9.870695,-1.1708426,-9.67358,1.10514561409522638626,-1.122282,-14.554352,18.500595,-1.2432009,-9.592805,1.61335381409522638626,-2.268506,-14.332889,9.248202,-1.3606241,-9.652761,1.06923441409522638641,-4.209007,-11.865664,-8.941745,-1.4532897,-9.174917,3.14312531409522638642,-4.4621935,-12.16853,-9.181165,-1.6424174,-9.342298,2.4888421409522638656,-3.606865,-15.650896,-5.104438,-1.7565753,-9.500247,1.68230841409522638661,-4.5681367,-14.790181,2.0254946,-1.7670685,-9.577799,1.14612011409522638676,-4.7644615,-14.820108,6.899491,-1.8188369,-9.568307,1.14442491409522638690,-3.3279405,-15.400702,8.598177,-1.868509,-9.51676,1.45270291409522638693,-2.070386,-15.611991,7.633912,-1.8271021,-9.461651,1.81914031409522638708,-2.3247697,-15.594633,7.0712748,-1.7697935,-9.408231,2.12683341409522638714,-4.000711,-14.699202,4.1317935,-1.7778946,-9.3321905,2.43304751409522638725,-5.197213,-13.045406,0.32621,-1.8983269,-9.293675,2.48884771409522638744,-5.8268886,-13.143569,-1.6897079,-2.1263902,-9.270661,2.38823821409522638744,-6.1979895,-12.692861,-3.6900635,-2.3847084,-9.276837,2.10329681409522638762,-5.607819,-10.975619,-3.7984009,-2.6486807,-9.293761,1.66759781409522638762,-4.1623197,-10.906786,-3.7642837,-2.8633833,-9.291717,1.27883861409522638775,-2.971803,-11.645996,-4.7644615,-2.9548628,-9.304034,0.934950351409522638793,-1.3251907,-10.9343195,-5.474941,-2.9485362,-9.337694,0.532885251409522638795,0.26635495,-10.660183,-5.5419784,-2.8409004,-9.385589,0.101970431409522638816,1.6555905,-11.917738,-5.1475334,-2.6223452,-9.444784,-0.29953651409522638816,3.0855274,-16.642096,-3.5703533,-2.2933753,-9.511703,-0.662095551409522638821,5.4432178,-19.608511,-0.027533319,-1.8268937,-9.599651,-0.824347731409522638844,9.822212,-19.608511,4.2479124,-1.2231717,-9.705898,-0.6853941409522638844,13.567343,-19.608511,2.961029,-1.48117,-9.684769,-0.42638771409522638858,8.91481,-19.261951,-0.4309563,-1.6980618,-9.657872,-0.111751821409522638866,3.690662,-15.931617,-2.6551697,1.1053511,-9.744143,-0.0164016841409522638876,1.8938135,-13.186066,-6.145317,1.2932111,-9.719927,-0.144905311409522638891,1.1971009,-10.732608,-6.877943,1.3201181,-9.704643,-0.497582441409522638893,0.8583213,-10.472239,-3.7642837,1.2842579,-9.6783285,-0.922522251409522638906,1.6370354,-10.178948,-3.6577415,1.2126445,-9.667736,-1.11121121409522638924,1.3401544,-8.405443,-5.7987566,1.2145501,-9.644718,-1.29407661409522638924,1.2677298,-5.3606176,-6.9108634,1.2194318,-9.594632,-1.6206221409522638941,-0.7356185,-4.0294414,-9.625888,1.2609307,-9.508131,-2.0434911409522638951,-1.5915456,-4.4460325,-7.3148847,1.1696486,-9.355067,-2.6990761409522638971,-0.99179804,-5.000889,-5.445013,0.99490744,-9.2281475,-3.16572981409522638971,0.18435353,-5.023035,-3.1190462,0.85152954,-9.1327505,-3.46960741409522638975,1.3557167,-4.932654,-0.78170687,0.7728902,-9.0894375,-3.59933041409522638992,1.596334,-4.8536453,-0.9151836,0.8113097,-9.11383,-3.52850151409522638993,1.8992004,-4.4921207,-1.1390414,0.90367144,-9.135512,-3.44908671409522639008,2.4779987,-3.4039562,-1.7250223,1.0456263,-9.141745,-3.3919861409522639024,3.210026,-2.3870192,-2.3774424,1.275837,-9.099021,-3.42789651409522639025,4.2413282,-1.395221,-2.0524294,1.6073254,-8.991132,-3.57021761409522639043,5.0092683,-0.623091,-2.0787656,2.0939698,-8.83226,-3.7117241409522639043,5.369596,-0.2172738,-2.9706059,2.7198763,-8.585644,-3.88065271409522639057,5.78918,0.065242,-3.6326025,3.3945165,-8.207383,-4.15770671409522639063,5.981913,0.1400608,-4.334702,4.098182,-7.695465,-4.48944331409522639075,5.9729347,0.19632454,-4.881179,4.7536893,-7.073457,-4.8517071409522639090,5.626374,0.56443304,-5.5982423,5.3032966,-6.386191,-5.22130251409522639096,5.8520274,1.3395559,-5.813122,5.703708,-5.6389976,-5.64267971409522639107,5.158906,0.076614454,-5.5461683,6.060422,-4.8192744,-6.0179971409522639123,4.988918,-2.712032,-3.0011318,6.237013,-4.2260084,-6.277811409522639124,-0.6877344,-13.283031,15.175049,6.410966,-4.151998,-6.15067341409522639140,-17.880497,-19.608511,19.608511,6.3793316,-6.5166197,-3.6066891409522639141,-19.60911,-19.608511,16.801908,6.4406147,-6.2908645,-3.88766381409522639157,-17.014395,-19.608511,7.595605,6.3891907,-6.190924,-4.12566471409522639163,-8.14687,-15.121778,5.7179523,6.2272005,-6.193547,-4.36260751409522639173,-6.237494,-5.5820813,5.629367,-3.086655,-8.921977,2.65353821409522639189,-4.7135844,-2.9682117,5.2846017,-3.5101893,-8.684897,2.9019871409522639193,1.7735049,-2.0979192,0.23582886,-3.7569642,-8.439155,3.29184911409522639207,3.3901896,-4.2275615,1.198298,-3.4721763,-8.538201,3.3486541409522639226,7.0371575,-9.995792,-2.718616,-2.880827,-8.713886,3.45534561409522639226,8.161834,-16.150087,-4.1419687,-1.6768907,-9.233435,2.84642121409522639242,6.0866594,-16.59481,-6.215946,-0.40510905,-9.612786,1.89753521409522639242,3.8480806,-15.780782,-7.1191587,0.36340502,-9.751909,0.96880411409522639254,3.4985273,-17.47887,-6.7324953,0.72870874,-9.778281,0.156716171409522639276,3.196858,-18.074427,-2.633622,1.0072918,-9.745518,-0.425021081409522639276,4.559159,-15.777789,0.3226187,1.1553048,-9.720815,-0.58433191409522639291,6.3368535,-12.712014,0.997185,1.3670183,-9.693908,-0.57429631409522639294,6.0291986,-10.056246,0.42796355,1.6959916,-9.642617,-0.56030811409522639309,4.459201,-8.531139,-0.22984336,1.9891753,-9.588225,-0.52867961409522639323,3.6391866,-7.6369047,-0.7404069,2.1998856,-9.544667,-0.479838131409522639323,3.1705215,-6.7743936,-0.9271546,2.389819,-9.500297,-0.45114221409522639340,2.6737247,-6.2362967,-0.9983821,2.5346296,-9.461868,-0.46806351409522639342,2.1990743,-5.9005103,-0.99898064,2.6436265,-9.43071,-0.49329731409522639354,1.9746178,-5.989694,-0.92655605,2.7054574,-9.410664,-0.53877191409522639372,2.231396,-6.621763,-1.0528502,2.7383091,-9.398066,-0.59027011409522639373,2.8927941,-7.730279,-1.4191631,2.7711518,-9.384314,-0.652489541409522639387,3.0520086,-9.270349,-1.9009962,2.8328326,-9.359196,-0.74224461409522639406,2.1152773,-11.481993,-2.4462755,2.8659143,-9.338251,-0.868330661409522639406,0.5710171,-14.2862015,-2.6408045,2.7492561,-9.358446,-1.01560091409522639422,-0.7170634,-15.784972,-2.2828712,2.4567716,-9.424013,-1.15005621409522639423,-1.2431892,-14.484322,-2.0284874,2.071754,-9.507524,-1.21871411409522639438,-0.90141696,-11.745355,-1.7729063,1.7022587,-9.575663,-1.25674021409522639442,-0.29328972,-9.873089,-1.6418238,1.4153495,-9.620625,-1.26915491409522639456,0.521936,-8.505402,-1.2755109,1.2168782,-9.648135,-1.26615151409522639474,0.50517654,-7.644686,-1.8411411,1.1337014,-9.660688,-1.24748251409522639474,0.19692309,-7.33763,-3.104681,1.0863829,-9.657868,-1.30986981409522639491,-1.5436616,-7.6285253,-4.803367,1.0204567,-9.636305,-1.50687991409522639493,-4.8255134,-9.303867,-7.1832037,0.7999252,-9.593407,-1.87004041409522639507,-5.157709,-9.384672,-7.2149267,0.26182652,-9.495203,-2.43781761409522639522,-4.0198646,-8.143877,-5.3085437,-0.229151,-9.349015,-2.95191261409522639522,-2.8389246,-7.504027,-3.4626143,-0.5731585,-9.236527,-3.24475361409522639540,-2.0231004,-7.347805,-1.2689269,-0.826037,-9.184571,-3.33642581409522639542,-1.9165585,-8.051102,-0.06284779,-0.99519354,-9.211621,-3.21341441409522639557,-1.8291701,-8.9279785,0.053869538,-1.1182777,-9.281482,-2.96207881409522639574,-1.5741876,-9.986814,-0.5231331,-1.1979202,-9.3499,-2.70457981409522639576,-1.2755109,-10.426748,-0.44831428,-1.2197466,-9.402978,-2.5033251409522639588,-1.1444284,-10.392033,-0.035314474,-1.1994395,-9.453087,-2.31751471409522639595,-1.0929531,-10.274716,0.23403321,-1.1771137,-9.502688,-2.11747621409522639605,-1.1426327,-10.398617,0.42078096,-1.162766,-9.547835,-1.91238741409522639621,-1.4053963,-10.555437,0.49559975,-1.1548729,-9.58854,-1.70192911409522639622,-1.6897079,-10.882245,0.45489833,-1.1689801,-9.620203,-1.50185781409522639638,-1.7818847,-11.33894,0.5734113,-1.204508,-9.642338,-1.32092481409522639642,-1.7741034,-11.983578,0.9588778,-1.2415576,-9.659444,-1.15068461409522639656,-1.9746178,-13.025056,2.1906946,-1.2703499,-9.676207,-0.963131371409522639671,-1.6106992,-13.8402815,5.81372,-1.3063351,-9.695125,-0.684423151409522639673,-0.5327099,-13.543999,6.9485717,-1.3015336,-9.719105,-0.1240069051409522639690,0.1340753,-13.066356,7.171831,-1.2214131,-9.722276,0.394814731409522639708,-0.3776853,-13.087305,14.8237,-1.1171193,-9.71056,0.79213761409522639708,-3.8504748,-15.410279,17.757195,-1.0836936,-9.581482,1.78638681409522639723,-5.5647235,-14.889541,0.019153614,-1.2163807,-9.652647,1.23174191409522639723,-6.4026937,-14.510059,-9.437345,-1.5826606,-9.306598,2.65571451409522639736,-7.006033,-14.665084,-11.816583,-1.866502,-9.421609,1.97985641409522639742,-6.183026,-14.393342,-0.41958386,-2.1153932,-9.522046,1.01298761409522639770,-7.888296,-16.101006,9.242816,-2.3802462,-9.428442,1.26856571409522639770,-7.9206176,-17.673998,15.63294,-2.3802462,-9.428442,1.26856571409522639774,-5.6844335,-16.448765,11.016919,-2.3802462,-9.428442,1.26856571409522639790,-4.9919105,-15.042769,4.162918,-2.6204305,-9.104242,2.53308321409522639807,-4.501099,-13.412318,-0.1364695,-2.7184403,-9.057681,2.59593771409522639807,-4.417302,-12.983157,-2.154183,-2.8787694,-9.04479,2.46471831409522639824,-4.1461587,-12.777855,-3.6086605,-3.0071352,-9.070856,2.20160941409522639824,-3.7140055,-12.630611,-5.422867,-3.0797167,-9.134692,1.80085711409522639838,-2.8981812,-11.997345,-7.3388267,-3.1026511,-9.214114,1.28221251409522639842,-1.8686744,-10.8229885,-7.6829934,-3.0744212,-9.286591,0.6910371409522639856,-0.80086046,-10.86369,-7.132327,-3.0010269,-9.335433,0.117766551409522639873,-0.56922144,-12.690466,-6.925827,-2.8506725,-9.375598,-0.377144041409522639877,0.64942724,-16.926407,-6.692991,-2.6559503,-9.402868,-0.83807991409522639890,4.5046906,-19.608511,-1.2563573,-2.3332267,-9.45241,-1.17405661409522639906,9.776124,-19.608511,10.494983,-1.7686067,-9.585051,-1.08131411409522639907,12.535441,-19.608511,6.251859,-2.0640254,-9.551755,-0.82106621409522639924,8.807071,-19.00637,-1.5316905,-2.321078,-9.513929,-0.51782271409522639924,4.8937483,-15.569493,-5.1116204,0.63753134,-9.785237,0.11433191409522639942,3.1435869,-13.487736,-7.431602,0.90179276,-9.763629,-0.169382171409522639944,3.074155,-10.396821,-7.683592,1.0747683,-9.7293625,-0.595614971409522639958,2.7647045,-7.551312,-4.5220485,1.2042058,-9.675348,-1.05259181409522639977,3.210026,-6.5840545,-2.1374235,1.2855812,-9.6319895,-1.32001591409522639977,4.0761285,-6.7624226,-1.7998412,1.4090232,-9.600129,-1.4221641409522639982,3.3506854,-6.673837,-4.1575313,1.6123595,-9.560777,-1.47045961409522640053,1.0480618,-5.8203044,-8.428787,1.7741612,-9.497706,-1.67818221409522640054,-0.29328972,-4.1904516,-9.282919,1.7625641,-9.386109,-2.22816061409522640054,0.50637364,-3.447052,-5.4617724,1.6633433,-9.226276,-2.8774171409522640054,0.7918822,-3.9773676,-3.8067808,1.6442863,-9.106225,-3.24705721409522640054,1.1444284,-3.9067385,-3.5224693,1.6376778,-9.027413,-3.463271409522640069,1.8818425,-3.6290112,-1.9626468,1.632136,-8.951412,-3.6576961409522640069,2.1505916,-3.6715083,-2.130241,1.7187542,-8.9121,-3.71358871409522640069,2.505532,-3.2184057,-2.7335799,1.8497427,-8.858264,-3.77888851409522640074,3.2519245,-2.415151,-1.9243397,2.035323,-8.757446,-3.91599461409522640110,3.679888,-1.7405846,-1.7753005,2.3492503,-8.64861,-3.98157741409522640110,4.003105,-1.2761095,-2.309806,2.7319324,-8.499508,-4.05774161409522640111,4.9883194,-0.62368953,-2.8844144,3.170399,-8.2715025,-4.20728451409522640116,5.391144,-0.3309984,-4.6124296,3.7458253,-7.9110613,-4.42202761409522640122,5.261258,-0.22565351,-6.615179,4.3097825,-7.37628,-4.81525751409522640144,5.3881507,0.5327099,-7.28376,4.7332993,-6.693923,-5.3812341409522640145,5.6156,1.3162124,-6.6971807,5.101651,-5.893173,-5.95097061409522640154,5.6150017,0.4333505,-5.66528,5.4580154,-5.0440645,-6.3982691409522640176,5.412093,-2.1583729,-4.2622776,5.7375145,-4.4134126,-6.61612271409522640177,4.84766,-6.9222355,2.9622262,5.9450665,-4.1921716,-6.5766441409522640183,-7.8942814,-18.652029,19.608511,6.286868,-4.9084234,-5.7055281409522640210,-19.58876,-19.608511,19.608511,6.321025,-4.6231995,-5.90262561409522640210,-19.60911,-19.608511,14.52622,6.301251,-4.4027276,-6.0893861409522640214,-15.80233,-19.126678,6.962937,6.1202106,-4.390897,-6.27960061409522640223,-5.722142,-8.193557,3.809175,5.9236026,-4.4115033,-6.4513541409522640248,-6.975507,-4.420295,3.4153287,-3.3590493,-8.833653,2.61796671409522640248,-4.548983,-2.92751,3.5775359,-3.8384135,-8.611401,2.6982871409522640255,0.6374562,-5.0266266,2.682703,-4.040025,-8.442528,2.92785261409522640291,6.1106014,-16.45894,-1.4281414,-3.7303028,-8.517788,3.1148851409522640291,8.465299,-19.608511,-3.335123,-2.521023,-9.107747,2.61988161409522640292,4.6860514,-19.608511,6.630143,-1.1749089,-9.549567,1.89625451409522640320,-1.6537948,-11.135432,-5.3618145,-0.46739042,-9.551265,2.1737751409522640320,2.6431987,-8.684967,-11.623849,-0.5749769,-9.669849,1.52767491409522640320,5.527613,-6.14412,-6.3901243,-0.31403586,-9.795482,0.3468741409522640323,5.6359506,-5.2277393,-3.0232782,0.21386969,-9.800737,-0.26496731409522640340,4.9895163,-4.8219223,-1.3934253,0.78203493,-9.7609625,-0.53144851409522640361,4.8374844,-4.0641575,-1.1953052,1.2914836,-9.700064,-0.64128191409522640362,4.6621094,-4.6764746,-1.6843209,1.7927784,-9.610752,-0.7679631409522640363,4.445434,-6.5367694,-2.211644,2.2439547,-9.50028,-0.93795131409522640374,4.3514614,-8.124125,-2.296638,2.5973856,-9.39188,-1.10297421409522640416,4.4196963,-8.3408,-2.7389667,2.8572805,-9.301142,-1.22274731409522640418,3.9803603,-7.6746135,-3.417723,3.0676334,-9.211651,-1.38038931409522640418,3.6804867,-7.189189,-3.1172507,3.2129965,-9.123317,-1.61621531409522640419,3.887585,-7.4351935,-2.6198552,3.3141723,-9.048514,-1.81962251409522640424,3.9564183,-8.335413,-2.2331917,3.422418,-8.979623,-1.9554631409522640459,3.5140896,-9.529521,-2.0033484,3.5031273,-8.931986,-2.02931281409522640460,2.2762873,-11.518504,-2.0177135,3.5034704,-8.925681,-2.05628011409522640461,0.5446809,-14.264055,-2.2619221,3.33157,-8.992576,-2.0505221409522640463,-0.6979098,-15.707759,-2.4157495,2.9334261,-9.1379795,-2.01562671409522640487,-1.0151415,-14.440029,-1.9698294,2.4678545,-9.282312,-1.9795881409522640488,-0.492607,-11.30961,-1.2659341,2.0517254,-9.3951845,-1.92128091409522640517,0.0700304,-9.150639,-1.2395979,1.7585694,-9.474419,-1.82022231409522640518,0.037110128,-8.531737,-1.8776526,1.560334,-9.525857,-1.73026611409522640518,-1.1677719,-8.243835,-3.0825348,1.3893144,-9.554083,-1.72037361409522640523,-2.3864205,-8.222287,-4.365228,1.1360174,-9.564044,-1.84632351409522640546,-3.632004,-8.504803,-2.8107927,0.78598994,-9.544356,-2.11137441409522640546,-3.946243,-9.14585,-1.6274586,0.34623075,-9.547166,-2.21408651409522640555,-4.033033,-9.378687,-1.6693572,-0.08186872,-9.53587,-2.28711151409522640579,-3.5936968,-8.482059,-2.7748797,-0.4369579,-9.508965,-2.3577591409522640580,-2.8455088,-7.4723034,-3.6116533,-0.7039473,-9.465419,-2.46590971409522640583,-2.4361002,-7.7069354,-2.806603,-0.9073915,-9.407106,-2.61790751409522640606,-1.6316484,-8.173804,-1.5729905,-1.0782132,-9.373424,-2.67334531409522640606,-1.234211,-9.172187,-1.5275006,-1.1639222,-9.379828,-2.61428481409522640631,-1.1019313,-10.293272,-1.6166847,-1.1962054,-9.397905,-2.533551409522640631,-0.5746084,-11.466431,-0.80684596,-1.1856773,-9.419355,-2.45769551409522640635,-0.30406362,-12.879009,-0.39803603,-1.1019901,-9.470681,-2.29394671409522640666,-0.51116204,-13.731944,-0.011971008,-0.98179543,-9.530464,-2.09205411409522640667,-1.1306617,-13.790003,0.39085343,-0.88657856,-9.58649,-1.86644451409522640667,-1.6130934,-13.019669,0.705691,-0.8600009,-9.63111,-1.63477441409522640721,-1.5167267,-11.829152,1.0420763,-0.89574885,-9.663093,-1.41162441409522640722,-1.3784616,-11.217434,1.7202339,-0.9463456,-9.687382,-1.19559451409522640723,-0.9307459,-11.131841,6.707356,-0.9822923,-9.711206,-0.94761871409522640723,0.38067806,-11.56579,12.672509,-0.9889491,-9.752616,-0.28083591409522640726,1.0606314,-12.565369,12.73835,-0.8677286,-9.733298,0.82482121409522640727,2.0153193,-13.330317,18.980633,-0.70054305,-9.633113,1.6978731409522640755,-0.47764325,-14.436438,11.80521,-0.787726,-9.698573,1.21965991409522640755,-3.4727895,-11.896789,-7.7985134,-0.66367525,-9.182267,3.37873861409522640756,-3.5392287,-10.044274,-11.438298,-0.896858,-9.370066,2.75098441409522640783,-3.3812113,-11.425729,-9.581595,-1.0401229,-9.5722685,1.86016261409522640784,-5.141548,-14.436438,-6.951565,-1.129557,-9.693242,0.967231409522640784,-6.8647747,-15.306131,-3.846285,-1.3632317,-9.7077675,0.266940621409522640811,-7.3298483,-14.905103,0.6099229,-1.6929791,-9.658831,-0.105858671409522640811,-6.967127,-15.2492695,2.767697,-2.0321584,-9.592927,-0.12842941409522640815,-5.005079,-15.507843,8.862138,-2.2996776,-9.53319,0.0128448691409522640823,-3.6894648,-16.181211,12.712612,-2.3874736,-9.490752,0.62927821409522640841,-3.7134068,-16.40088,10.644621,-2.3773808,-9.397605,1.48441151409522640843,-3.663727,-14.757859,1.3066356,-2.3725383,-9.292501,2.04715871409522640855,-3.5739446,-14.003686,-0.4429273,-2.4322968,-9.277517,2.04499031409522640878,-3.558981,-13.250111,-1.4598645,-2.5121005,-9.288433,1.89333431409522640878,-3.2944214,-11.731588,-4.377199,-2.5665143,-9.319405,1.65290871409522640884,-2.7114334,-11.077373,-7.548918,-2.5942876,-9.37438,1.24943481409522640912,-1.9369092,-10.192716,-8.066066,-2.5940597,-9.4344425,0.65766721409522640913,-0.8074445,-9.629479,-6.6744356,-2.5681746,-9.464305,0.0425648841409522640915,-0.15502456,-10.226832,-5.8107276,-2.4689684,-9.479662,-0.458908141409522640925,0.712275,-12.281057,-5.17387,-2.3112051,-9.492926,-0.84443951409522640942,2.2996306,-17.372927,-3.1040826,-2.0692997,-9.516019,-1.15490131409522640944,5.09127,-19.608511,3.0226796,-1.6834371,-9.584225,-1.21618661409522640980,9.545682,-19.608511,6.8486137,-1.1307362,-9.7064705,-0.822322371409522640981,12.299014,-19.608511,2.7988217,-1.3991368,-9.688021,-0.59589091409522640981,8.439561,-17.183186,-1.5047557,-1.635617,-9.663784,-0.326263161409522640984,4.377199,-13.348273,-5.663484,1.0391533,-9.751259,-0.059003981409522641010,2.9628246,-11.607688,-6.591836,1.2460371,-9.719676,-0.381716761409522641011,1.4915876,-9.414001,-4.920683,1.3933078,-9.676774,-0.76753981409522641018,0.7284359,-9.010578,-1.958457,1.4146531,-9.646738,-1.05338161409522641062,1.1384429,-8.579621,-2.333748,1.3524872,-9.645926,-1.13899991409522641064,1.1115081,-7.421427,-5.847239,1.3230379,-9.637444,-1.24082421409522641065,0.98940384,-5.139154,-8.802881,1.3109257,-9.588232,-1.58672331409522641066,0.31423897,-4.3161473,-6.825869,1.3277204,-9.470151,-2.1734331409522641067,-0.092775315,-4.7285485,-6.2524576,1.31936,-9.357452,-2.62064431409522641111,0.45070848,-4.8548427,-3.763685,1.2583585,-9.245322,-3.01842781409522641111,0.5650316,-4.5358152,-1.7908629,1.2342635,-9.181978,-3.21531651409522641112,1.4598645,-4.0545807,-0.9935937,1.1788688,-9.166413,-3.27986651409522641112,3.2076318,-3.716998,-0.85173726,1.2254287,-9.165007,-3.26671051409522641115,3.8367083,-3.739743,-1.8088194,1.4882654,-9.142482,-3.22032761409522641151,2.996942,-3.5045128,-3.9839516,1.8426783,-9.065046,-3.25574611409522641151,2.331354,-2.902371,-4.2904096,2.1006007,-8.905711,-3.5279171409522641151,2.3882163,-2.1242554,-3.5404258,2.2790632,-8.725961,-3.85147671409522641155,3.103484,-1.5699978,-2.8568811,2.4736748,-8.545507,-4.1262171409522641180,4.122815,-1.6466122,-2.6569653,2.77336,-8.338304,-4.35334251409522641181,4.5136685,-1.7489643,-4.0426097,3.2057958,-8.087231,-4.52658941409522641184,4.224569,-1.6101006,-5.6323595,3.6474705,-7.7236814,-4.8177911409522641215,3.7457285,-1.7004818,-5.9202623,3.982799,-7.2552075,-5.26019671409522641215,3.247136,-2.3624785,-4.702811,4.206213,-6.7933617,-5.68580871409522641216,3.1190462,-3.6332011,-3.3201592,4.3503885,-6.494796,-5.9213311409522641238,3.7553053,-5.771223,-0.9900024,4.4408937,-6.435335,-5.9190621409522641238,1.2030864,-14.038402,15.568895,4.6051083,-6.661499,-5.53062631409522641254,-12.222999,-19.608511,19.608511,4.436788,-8.325264,-2.67866971409522641270,-19.58038,-19.608511,19.608511,4.5020094,-8.202577,-2.93598341409522641270,-16.427814,-19.608511,13.906122,4.508658,-8.119073,-3.15009071409522641292,-10.6398325,-18.589779,5.5766945,4.416628,-8.060001,-3.42054961409522641293,-9.148843,-11.573571,5.9543796,4.346091,-7.9761705,-3.69629141409522641295,-6.005256,-6.7372837,6.0363812,-3.2437832,-8.707735,3.13426381409522641304,-0.78529817,-6.95336,2.9071593,-3.5660808,-8.522584,3.2892251409522641348,3.863643,-12.087726,-1.0588357,-3.425422,-8.54831,3.3709431409522641349,7.429806,-18.893244,-3.064578,-2.74625,-8.89549,3.08200741409522641350,7.5321584,-19.45648,-3.70802,-1.6841321,-9.340056,2.46929811409522641350,4.343082,-14.64593,-3.9372647,-0.78857934,-9.591476,1.8847091409522641356,1.1953052,-11.744757,1.4730326,-0.32480216,-9.695727,1.43450091409522641390,2.190096,-10.696096,5.33907,-0.17571956,-9.702777,1.41267371409522641390,4.4568067,-9.117719,1.7699136,0.036067925,-9.659237,1.69359031409522641391,5.1678843,-9.642648,-1.412579,0.41785717,-9.654562,1.66889831409522641396,5.6150017,-9.357139,-1.0995371,0.8143721,-9.6698675,1.41452251409522641404,5.4641666,-7.460931,-0.6619968,1.2049191,-9.655357,1.22174191409522641428,5.0559554,-7.8966756,-0.8882488,1.5853608,-9.616359,1.08750411409522641429,4.3299136,-8.34499,-0.62009823,1.9256383,-9.569591,0.94088151409522641438,3.7325604,-8.355764,-0.5243302,2.1860676,-9.523348,0.835080741409522641459,3.7660792,-7.7530236,-0.9307459,2.3759573,-9.485449,0.74262751409522641460,4.104859,-7.1395097,-1.2449849,2.5564919,-9.44757,0.614964961409522641464,4.382586,-7.2071457,-2.195483,2.7683578,-9.396318,0.46452481409522641497,3.9653966,-8.292916,-3.3482912,2.9826052,-9.339249,0.230028661409522641499,3.1794999,-9.662399,-4.0414124,3.124169,-9.295029,-0.1113391441409522641499,2.1362264,-10.942101,-3.5224693,3.1603203,-9.270113,-0.497745541409522641504,0.75836337,-12.596494,-2.9364884,3.068891,-9.280108,-0.794913531409522641520,-0.8194155,-13.73733,-2.8520927,2.8112295,-9.340914,-1.00731771409522641536,-1.9422961,-13.248914,-2.416348,2.400903,-9.435162,-1.17633971409522641537,-2.5671828,-11.372458,-2.2709002,1.9586414,-9.5232525,-1.28131471409522641554,-2.235586,-9.572617,-2.4971523,1.5083046,-9.591793,-1.37584411409522641571,-1.1593921,-8.636484,-3.705027,1.1199508,-9.629717,-1.47806181409522641571,-0.25139117,-8.104971,-4.8500543,0.84743947,-9.622176,-1.69291931409522641587,-0.3657143,-7.843405,-6.92044,0.69033605,-9.5703,-2.02562551409522641588,-4.995502,-8.627506,-9.642648,0.56825465,-9.452596,-2.54870321409522641599,-5.5150437,-8.635885,-6.82946,0.04859978,-9.255423,-3.2411681409522641604,-2.409764,-6.823475,-5.009867,-0.44149318,-9.119741,-3.57852321409522641618,-1.8608932,-7.149685,-4.313753,-0.6115613,-9.017771,-3.804761409522641631,-1.4239515,-8.196549,-2.4660277,-0.7519005,-8.948895,-3.9398321409522641636,-1.7357962,-9.736021,-1.3317747,-0.84743315,-8.974643,-3.8610951409522641648,-1.7256209,-11.013328,-0.46387658,-0.93671256,-9.054735,-3.64756871409522641667,-1.2653356,-11.9135475,-0.09696517,-0.99403226,-9.165322,-3.34352731409522641668,-0.801459,-12.607267,-0.31423897,-0.98761433,-9.281306,-3.00871371409522641687,-0.7445967,-13.051392,-0.46387658,-0.9344164,-9.378175,-2.71055151409522641687,-0.85772276,-13.023859,-0.2741361,-0.8800375,-9.454416,-2.45152041409522641714,-1.3623008,-12.675503,0.12030864,-0.839564,-9.516963,-2.2121409522641749,-1.917157,-12.430097,0.25198972,-0.856732,-9.566342,-1.98026671409522641750,-1.9458874,-12.198458,0.44592008,-0.93293786,-9.60012,-1.77135621409522641751,-1.5693992,-12.139201,1.3329718,-1.0185218,-9.624978,-1.5788511409522641752,-0.9283517,-12.728175,7.326257,-1.0754625,-9.654816,-1.34100431409522641753,0.89543146,-12.889185,12.884995,-1.0667764,-9.728834,-0.61820261409522641790,2.3870192,-12.925696,15.202582,-0.88351506,-9.754277,0.49383451409522641791,3.5895069,-13.651139,19.608511,-0.6123215,-9.662281,1.5606911409522641792,-0.14664486,-15.242685,12.21402,-0.7272741,-9.72674,1.01586541409522641792,-3.6284127,-12.219407,-9.416395,-0.4512661,-9.248344,3.23030351409522641798,-3.383007,-9.838972,-12.480973,-0.6877631,-9.439031,2.56945231409522641804,-2.5480292,-10.399215,-11.046846,-0.84265494,-9.620692,1.70370241409522641829,-3.6655228,-13.412916,-7.8972745,-0.8851424,-9.74169,0.697423461409522641829,-6.099229,-15.383943,-4.7919946,-1.0191712,-9.753541,-0.0090752871409522641836,-7.583634,-15.361198,0.34237084,-1.3647718,-9.702208,-0.41824941409522641857,-7.285556,-15.017032,1.388637,-1.7474058,-9.640912,-0.412009631409522641858,-5.195418,-13.906122,4.0013094,-2.071174,-9.579556,-0.335731831409522641864,-3.3614593,-14.36102,10.469844,-2.2219446,-9.551416,-0.061792731409522641887,-3.4404678,-15.7747965,11.705252,-2.2249954,-9.5257015,0.69339671409522641887,-3.9695864,-15.894506,7.077859,-2.2295349,-9.43312,1.48856811409522641901,-4.0563765,-13.968371,1.3210008,-2.2976458,-9.34129,1.90565011409522641915,-3.5643678,-12.805986,-1.5885528,-2.3929107,-9.328513,1.85018341409522641918,-4.0096893,-13.20941,-2.1984756,-2.4766366,-9.343224,1.65554891409522641935,-4.7896004,-13.191453,-3.5350387,-2.553808,-9.367102,1.38053081409522641936,-4.2317514,-12.088325,-7.057508,-2.6562595,-9.383454,1.03220731409522641959,-2.570774,-10.526108,-8.310274,-2.7466702,-9.402124,0.475651409522641960,-1.423353,-9.874885,-7.114969,-2.7512846,-9.411631,-0.148413031409522641965,-0.016759412,-11.720216,-5.418677,-2.672751,-9.412625,-0.65519291409522641998,1.0348936,-16.632519,-2.3116016,-2.467937,-9.440446,-0.978587871409522641998,3.2740707,-19.608511,3.678691,-2.1383512,-9.518917,-0.994026841409522641999,7.727885,-19.608511,6.4781113,-1.6565324,-9.647605,-0.591623841409522642021,11.479,-19.608511,1.1791444,-1.9122604,-9.611723,-0.358344081409522642022,9.284116,-18.751389,-2.5971103,-2.1570153,-9.566037,-0.0927963551409522642024,5.445013,-14.67885,-3.7708676,0.5089251,-9.792863,-0.1060924751409522642052,3.1962593,-12.382213,-5.465364,0.85530984,-9.765112,-0.285325021409522642052,2.1799207,-10.114903,-5.8651958,1.0550085,-9.731225,-0.600505651409522642066,1.5927427,-8.245032,-4.2155905,1.1422373,-9.694504,-0.93929341409522642066,1.4305356,-7.642292,-2.7204118,1.1745297,-9.662975,-1.19070511409522642084,1.8070238,-7.0700774,-2.7060466,1.18392,-9.643647,-1.32995151409522642084,1.5406688,-6.411672,-4.006098,1.2312258,-9.618297,-1.46384041409522642101,1.3251907,-4.3502645,-6.0285997,1.2753184,-9.575732,-1.68798231409522642117,0.8170213,-3.8402996,-6.7923503,1.3278154,-9.487564,-2.09605051409522642117,1.003769,-4.5938745,-5.5647235,1.3501258,-9.3637085,-2.58234641409522642132,0.82240826,-5.1768627,-4.621408,1.390332,-9.252794,-2.93652581409522642136,1.287482,-5.048773,-2.3750482,1.3777391,-9.168256,-3.19613531409522642148,1.9835961,-4.7261543,-0.94092125,1.4040099,-9.1384735,-3.2691651409522642166,2.4594438,-4.5675383,-1.340753,1.4887801,-9.1407795,-3.2249091409522642166,2.3002293,-4.622605,-2.706645,1.6374394,-9.11975,-3.21237231409522642183,2.5013423,-4.2640734,-2.428319,1.7781276,-9.051939,-3.327321409522642184,3.1992521,-3.417723,-1.661576,1.9677149,-8.981829,-3.40958361409522642199,3.9324763,-2.6898856,-2.0494366,2.2640514,-8.903067,-3.43217921409522642215,4.7949877,-2.4983494,-2.3882163,2.6511774,-8.759549,-3.52306321409522642218,5.6987987,-2.4349031,-2.7629087,3.1377552,-8.545854,-3.645991409522642236,6.165668,-2.0931308,-3.550601,3.7223535,-8.24708,-3.78155451409522642236,6.063316,-1.7429788,-4.5884876,4.319648,-7.849068,-3.98787781409522642250,5.769428,-1.2294226,-5.3169236,4.828476,-7.3717904,-4.302671409522642267,5.6760535,-0.40821138,-5.3965306,5.245418,-6.8311234,-4.68953371409522642268,5.475539,-0.45370123,-4.6285906,5.629986,-6.221877,-5.07561831409522642286,4.6034513,-2.3463178,-3.301604,5.962056,-5.6734614,-5.33255431409522642286,4.0821137,-6.5966244,1.8950106,6.122089,-5.4709888,-5.3627171409522642302,-6.8121023,-18.312052,19.597738,6.2447248,-5.9553447,-4.65915161409522642316,-19.417574,-19.608511,19.608511,6.331575,-5.7100096,-4.84533931409522642316,-19.60911,-19.608511,18.007988,6.405178,-5.458787,-5.03445671409522642330,-18.504786,-19.490597,6.815694,6.368752,-5.330808,-5.21458341409522642347,-7.062895,-8.986037,1.7513585,6.2181263,-5.271364,-5.45141941409522642347,-9.737218,-7.78355,4.268263,-3.32191,-8.761548,2.89319921409522642366,-6.1782374,-6.0740895,4.64535,-3.969148,-8.513144,2.81826761409522642367,-0.22924481,-9.894038,1.2090719,-4.1990824,-8.348474,2.97339921409522642383,5.752668,-18.764555,-3.590704,-3.8330307,-8.562397,2.8572021409522642385,8.055291,-19.608511,-1.7902644,-2.7812386,-9.132311,2.2441071409522642400,4.0880995,-17.480066,2.6659436,-1.6345103,-9.493737,1.83513931409522642413,0.016759412,-12.13561,5.708974,-1.0170708,-9.574288,1.8625131409522642416,2.520496,-9.0716305,-3.0226796,-0.8556097,-9.521049,2.1881461409522642432,4.3861775,-7.968502,-5.9759274,-0.5697957,-9.622697,1.8026241409522642450,4.751293,-6.4032927,-4.396353,-0.1623796,-9.73466,1.17490831409522642450,4.4155064,-6.168062,-3.1950622,0.28971127,-9.775193,0.72943891409522642463,3.7696705,-6.6307416,-2.0572178,0.7206214,-9.772362,0.38994511409522642465,3.6050692,-6.63134,-1.1486182,1.0762099,-9.746248,0.151162621409522642479,4.096479,-6.9425864,-0.97025025,1.3810868,-9.708913,0.0020534251409522642485,4.5801077,-7.920019,-1.2737153,1.6992917,-9.657634,-0.1136310551409522642497,4.817134,-8.89805,-1.4065934,2.0271978,-9.5917635,-0.242718621409522642513,4.4807487,-8.991425,-1.9333179,2.3349364,-9.517459,-0.369372251409522642518,4.023456,-8.704121,-2.1517887,2.5717316,-9.448533,-0.53086571409522642526,4.1545386,-9.1350765,-2.0093338,2.7474773,-9.386888,-0.71281341409522642547,3.8971617,-9.96766,-1.8285716,2.901273,-9.327788,-0.863342341409522642547,3.074155,-11.009736,-1.6927006,2.993539,-9.287403,-0.97634911409522642565,1.8315643,-12.48217,-1.6525977,2.9800954,-9.282871,-1.05721711409522642565,0.6183026,-13.175292,-1.6938977,2.825679,-9.324106,-1.11668351409522642583,-0.48003745,-12.798205,-1.7980455,2.564829,-9.392847,-1.16896081409522642585,-0.61171854,-11.337742,-1.1845313,2.2373772,-9.469754,-1.2199581409522642599,-0.17058687,-9.254189,-0.427365,1.9498242,-9.534582,-1.20843121409522642614,-0.078410104,-7.9547353,-0.6721721,1.740596,-9.585734,-1.12000181409522642616,-0.29149407,-8.236652,-1.4449008,1.5626527,-9.624136,-1.05096631409522642630,-1.0187328,-8.472482,-3.5380316,1.377632,-9.65164,-1.0575271409522642649,-1.3144168,-8.343194,-5.241506,1.1346381,-9.656763,-1.27668241409522642650,-2.553416,-8.128315,-5.204396,0.87496215,-9.623094,-1.67358671409522642665,-3.3889925,-8.515577,-5.107431,0.51215327,-9.562783,-2.112171409522642666,-2.8377275,-8.398261,-4.8404775,0.13264292,-9.486537,-2.48161981409522642682,-2.143409,-7.773973,-5.825093,-0.1484196,-9.376036,-2.87024571409522642685,-2.0602105,-7.7757688,-5.5264163,-0.28785452,-9.242924,-3.26433921409522642699,-2.3259668,-8.917803,-3.127426,-0.4344424,-9.137209,-3.5345531409522642719,-2.28347,-9.836577,-1.2509704,-0.6182884,-9.137187,-3.50712251409522642720,-1.7597382,-10.433931,-0.4878186,-0.7971081,-9.205633,-3.28501131409522642731,-1.1587936,-11.122863,-0.18854338,-0.91826755,-9.291187,-3.00017211409522642749,-0.8571242,-12.005126,-0.040102877,-0.9478756,-9.378689,-2.70410011409522642749,-0.8900445,-12.934674,0.05805939,-0.93522686,-9.458686,-2.4143331409522642771,-1.3371617,-13.573927,0.11671733,-0.90384066,-9.528064,-2.13763331409522642772,-1.9297266,-13.603854,0.13347675,-0.9009347,-9.581292,-1.88614341409522642777,-2.079364,-13.031041,0.39983168,-0.9515257,-9.616802,-1.66796891409522642804,-2.0482395,-12.564771,0.9044097,-1.022688,-9.642469,-1.46535131409522642805,-1.8034325,-12.339117,5.3324857,-1.0994109,-9.664087,-1.25184541409522642805,-0.7757214,-11.923723,10.237008,-1.1542093,-9.714161,-0.687948941409522642838,-0.34596214,-12.759299,8.622119,-1.1043092,-9.741462,0.234157131409522642838,-0.12389994,-13.074736,9.36073,-1.0275939,-9.71684,0.83513191409522642838,0.3585317,-13.254899,19.14703,-0.9669988,-9.670079,1.31333971409522642845,-2.3331497,-14.159308,12.491149,-1.0763644,-9.72093,0.717870061409522642873,-4.296395,-11.262923,-7.234679,-1.1201807,-9.241883,3.082721409522642873,-4.8021703,-10.972627,-12.215816,-1.3519317,-9.369804,2.5591881409522642879,-5.142745,-13.556568,-12.210428,-1.5573914,-9.534732,1.68339181409522642887,-4.5005007,-15.367783,-5.456984,-1.7035718,-9.637022,0.62930391409522642914,-4.882974,-15.102624,-0.05566519,-1.8091742,-9.637329,0.138491941409522642915,-6.199187,-14.23293,3.2812533,-1.9419445,-9.612434,0.0189770891409522642917,-5.9382186,-14.704588,8.595184,-2.1577208,-9.5642395,0.199824061409522642942,-4.7830167,-15.571888,11.683105,-2.2953894,-9.505176,0.74378921409522642942,-4.4143095,-16.060904,9.840169,-2.3509283,-9.408233,1.45900291409522642946,-4.8279076,-15.355811,6.6067996,-2.4168022,-9.286395,2.0229521409522642981,-5.1624975,-13.632585,1.8177977,-2.5432293,-9.176196,2.34516261409522642982,-4.3263226,-12.674305,-0.8912416,-2.6949358,-9.151397,2.27148341409522642983,-3.4859576,-13.217789,-1.6968905,-2.8058019,-9.166862,2.06555491409522643015,-3.526659,-14.203602,-1.3994108,-2.8293622,-9.220746,1.77283741409522643016,-3.4715924,-13.56016,-6.047155,-2.8059916,-9.271321,1.52951261409522643016,-2.1410148,-11.987169,-9.094376,-2.7954836,-9.344448,1.0183051409522643017,-0.93613285,-10.845135,-8.479065,-2.746879,-9.408614,0.320969161409522643035,0.037708677,-11.192294,-6.573281,-2.6289132,-9.442713,-0.307163331409522643053,0.7092823,-12.46601,-5.047576,-2.436742,-9.470653,-0.73444071409522643053,1.9434932,-15.998654,-3.3931823,-2.2021198,-9.504408,-0.993603051409522643060,4.1880574,-19.598934,1.6980876,-1.8518434,-9.567827,-1.09441611409522643066,7.8727336,-19.608511,6.025607,-1.3493898,-9.680658,-0.796492341409522643105,11.343728,-19.608511,-2.135628,-0.64747024,-9.781617,-0.266712671409522643105,5.3396683,-13.727754,-4.84347,-0.85890204,-9.768932,0.0249625931409522643105,2.3660698,-12.11107,-7.6584525,0.5411507,-9.772987,-0.605203451409522643106,0.8146271,-10.392631,-6.10282,0.71891505,-9.724005,-1.04751991409522643141,0.9576807,-8.928576,-3.2914288,0.75066364,-9.681867,-1.36688521409522643142,1.95307,-8.1163435,-2.2307975,0.76827776,-9.657811,-1.51882641409522643142,2.4061728,-7.1885905,-4.357447,0.8339061,-9.638804,-1.60264041409522643146,2.0129251,-4.8458643,-7.889493,0.9361846,-9.58611,-1.84402631409522643166,0.79726917,-3.300407,-9.176376,1.0489055,-9.458995,-2.36592651409522643167,0.51355624,-3.4554317,-6.123171,1.0988994,-9.270568,-3.00322441409522643188,0.32142156,-4.0916905,-3.8815994,1.1402187,-9.131131,-3.39008861409522643189,0.38486794,-4.2664676,-2.552219,1.1162157,-9.053227,-3.60048771409522643197,1.5251064,-4.164714,-0.9888053,1.0441755,-9.020962,-3.70166731409522643225,2.7084408,-4.1102457,-1.4598645,1.1109221,-9.0280075,-3.66487861409522643226,2.6569653,-3.9486372,-3.0873232,1.3108039,-9.00539,-3.6544731409522643226,2.3295584,-3.2872388,-3.2172086,1.518381,-8.912028,-3.80008631409522643272,2.695871,-2.337938,-2.8874073,1.7132696,-8.798474,-3.9776811409522643273,3.494936,-1.483208,-2.8431146,1.9775497,-8.6592655,-4.15653941409522643274,4.345476,-1.2479776,-3.1028855,2.349994,-8.458549,-4.3704521409522643275,5.1397524,-1.091756,-3.6230257,2.8276978,-8.186091,-4.6002621409522643277,5.4342394,-0.91937345,-4.845266,3.4074302,-7.8065243,-4.8598361409522643310,5.2121773,-0.64703304,-5.502474,3.9640558,-7.2966046,-5.21691751409522643311,5.222951,-0.50278234,-4.883573,4.4241133,-6.7186656,-5.60866641409522643311,5.3660045,-1.0420763,-3.413533,4.8560176,-6.1604314,-5.8854541409522643319,5.1762643,-2.3678656,-2.0787656,5.2876368,-5.741151,-5.9372141409522643343,3.8534677,-5.774216,0.25318682,5.651691,-5.557994,-5.7738591409522643343,1.9548657,-13.282433,13.961787,5.782581,-5.933764,-5.24619671409522643346,-14.602835,-19.608511,19.608511,5.6396613,-7.5966473,-2.57984191409522643374,-19.60911,-19.608511,18.37071,5.7230225,-7.443597,-2.8302451409522643375,-17.744028,-19.608511,9.097966,5.780398,-7.3127236,-3.04654261409522643377,-10.404602,-17.182587,4.994903,5.720036,-7.2680354,-3.25994591409522643407,-6.8210807,-7.5447283,5.511452,-2.7742655,-8.919637,2.98561861409522643408,-3.8624458,-3.2788591,5.9118824,-3.254888,-8.733614,3.04960161409522643408,0.26276365,-3.5110967,4.3424835,-3.493955,-8.507334,3.40410831409522643432,3.5541923,-7.0449386,1.685518,-3.2817082,-8.455051,3.72999671409522643432,6.455366,-16.566679,-1.8183962,-2.653054,-8.661675,3.75594021409522643447,7.479486,-19.608511,-2.9646204,-1.5994598,-9.173495,3.07556751409522643448,4.2521024,-18.626888,-1.7836803,-0.58617115,-9.520093,2.27917311409522643467,-0.6314707,-14.688427,4.8644195,-0.09375439,-9.642243,1.7857081409522643468,0.17956513,-12.211027,2.1140802,-0.11679244,-9.594616,2.0248721409522643493,3.6182373,-10.250774,-4.092888,-0.07628011,-9.596462,2.01804141409522643493,4.768651,-9.020754,-4.955399,0.24085867,-9.685371,1.51853761409522643497,4.167108,-8.825027,-3.6212301,0.6381274,-9.735811,0.988531409522643526,3.58412,-7.885902,-1.6717514,0.968403,-9.739533,0.611613331409522643527,4.131195,-5.761048,-0.24241292,1.2320814,-9.72081,0.39778761409522643527,4.5160627,-5.3821654,0.046686932,1.5475262,-9.678915,0.306814371409522643556,4.159327,-6.4643445,-0.8026561,1.8971869,-9.617425,0.276050421409522643556,3.470994,-7.669825,-1.5592239,2.203767,-9.554086,0.182416421409522643557,3.072958,-8.005612,-1.9075803,2.4083924,-9.506299,0.0181055671409522643566,3.0125043,-7.587824,-1.5837644,2.539318,-9.470618,-0.172155141409522643579,3.0867245,-7.574057,-1.4640543,2.64891,-9.436756,-0.318283861409522643593,3.4626143,-8.187572,-1.5987282,2.7524595,-9.402144,-0.44050271409522643599,3.654749,-9.007586,-1.6376339,2.8690763,-9.360231,-0.56994451409522643616,3.17531,-10.160992,-1.6903064,2.9805055,-9.317029,-0.692802851409522643632,1.7555484,-12.747927,-1.8046296,3.0117185,-9.297734,-0.80752461409522643632,-0.33039984,-15.659276,-2.2816741,2.840997,-9.3422785,-0.90609371409522643649,-1.9674352,-13.5457945,-2.3181858,2.4288442,-9.447067,-1.01194421409522643650,-1.0935516,-10.787674,-1.9261353,1.946635,-9.547863,-1.10423671409522643661,-0.51355624,-9.297882,-1.7723078,1.6337814,-9.59883,-1.16771921409522643666,-1.1534066,-8.729858,-3.1441853,1.3873502,-9.635643,-1.18323721409522643678,-1.5490485,-8.176199,-5.122993,1.1012007,-9.652532,-1.33655671409522643695,-2.0901382,-7.9750857,-4.9308586,0.8173722,-9.626314,-1.68415731409522643697,-4.4897265,-8.610147,-5.441422,0.51698416,-9.580583,-2.02868081409522643719,-6.057929,-9.132683,-5.6443305,0.009546996,-9.493854,-2.45703031409522643720,-5.337274,-8.47308,-5.490503,-0.5558664,-9.357076,-2.88211041409522643726,-3.3261447,-7.167641,-4.247314,-0.95756173,-9.221204,-3.1973221409522643744,-1.7579426,-6.6085954,-2.110489,-1.1921171,-9.125784,-3.3866451409522643746,-0.99299514,-7.282563,-0.40940848,-1.2929943,-9.123577,-3.35543271409522643777,-1.4275428,-8.150461,0.09876082,-1.3276812,-9.193707,-3.14378211409522643777,-1.4311341,-9.235633,-0.25857377,-1.3790747,-9.273878,-2.87466811409522643779,-1.2198458,-10.195109,-0.4405331,-1.3880016,-9.341688,-2.6413511409522643819,-0.908001,-11.259332,-0.3561375,-1.3458865,-9.404601,-2.43155261409522643819,-0.8062474,-12.252926,-0.089782566,-1.2615496,-9.4697485,-2.2142171409522643819,-1.252766,-12.576143,0.078410104,-1.1732457,-9.533702,-1.97544431409522643820,-1.6861166,-12.276269,0.130484,-1.1322721,-9.58204,-1.75295951409522643826,-1.8537107,-11.625047,0.23163901,-1.1408333,-9.614014,-1.56192611409522643843,-1.846528,-11.234193,0.38845924,-1.1800258,-9.635544,-1.39076521409522643846,-1.5233108,-11.186908,0.7248446,-1.2352655,-9.650664,-1.22850131409522643869,-1.18094,-11.829751,2.3642743,-1.2698516,-9.666848,-1.05352471409522643870,-0.6751649,-12.908339,7.439982,-1.2665815,-9.695586,-0.74952541409522643878,0.19871874,-13.371616,8.7609825,-1.1900395,-9.734153,-0.0215671041409522643909,0.56802434,-13.728353,9.980828,-1.0487366,-9.726262,0.68581721409522643910,1.7286136,-13.202227,18.76336,-0.9039257,-9.677476,1.30374631409522643911,-0.75357497,-14.053366,14.539987,-1.0074767,-9.722474,0.7930081409522643939,-3.8588545,-13.354259,-4.75668,-0.8143229,-9.230149,3.21116761409522643940,-4.674679,-13.140576,-10.7769,-1.0466435,-9.3596115,2.73360781409522643940,-6.0531406,-14.576498,-11.906963,-1.26584,-9.530155,1.93499111409522643946,-7.1861963,-15.809512,-6.508039,-1.5172836,-9.646545,0.90132431409522643974,-6.3709707,-15.661671,-0.18375498,-1.8305119,-9.627761,0.354758621409522643974,-6.5427547,-15.136143,6.601413,-2.0537858,-9.586884,0.209774971409522643978,-6.739079,-17.101185,16.795324,-2.2495737,-9.5268545,0.590648831409522644008,-4.933253,-17.739239,17.349583,-2.2096398,-9.538934,0.54463821409522644009,-4.11264,-15.74846,6.27221,-2.1993582,-9.544024,0.494791061409522644009,-4.0037036,-13.866019,-2.4779987,-2.44737,-9.097138,2.72449251409522644037,-3.958214,-13.019071,-2.4600422,-2.5979803,-9.130715,2.45986271409522644038,-3.957017,-12.673707,-1.7244238,-2.6812851,-9.188842,2.13220761409522644038,-4.378995,-12.092514,-4.4645877,-2.7570195,-9.226073,1.85709331409522644046,-3.8133647,-12.386402,-7.6093717,-2.8393245,-9.280045,1.41046271409522644078,-2.7629087,-11.030087,-8.707711,-2.8790228,-9.341064,0.791278961409522644079,-1.287482,-9.688137,-7.3298483,-2.8779218,-9.373979,0.12825521409522644080,-0.46088383,-10.465055,-6.14831,-2.7878907,-9.39356,-0.398874221409522644109,0.14065935,-13.06037,-4.729147,-2.6297038,-9.414128,-0.793252941409522644109,1.6795325,-17.568054,-2.285864,-2.4004102,-9.451412,-1.03885151409522644109,3.7654808,-19.608511,3.1621418,-2.0228758,-9.538397,-1.04753461409522644130,7.049727,-19.608511,5.6820393,-1.5237828,-9.663935,-0.67587041409522644130,9.6923275,-19.608511,1.6172832,-0.85920656,-9.767205,-0.183955481409522644146,7.3867106,-17.745823,-2.7712884,-0.10296266,-9.80608,-0.0246422741409522644146,3.4033577,-13.451223,-5.9477954,0.42194298,-9.7962055,-0.163355171409522644163,2.2577322,-11.286865,-6.5283895,0.66056937,-9.770371,-0.52334231409522644179,1.6286557,-9.512163,-3.9785647,0.77378833,-9.731792,-0.9294291409522644179,1.2455834,-7.7386584,-1.8914193,0.82569593,-9.705027,-1.14065181409522644195,1.6813282,-7.195773,-1.4347254,0.8374929,-9.693278,-1.22856151409522644211,2.5923219,-6.818088,-8.368932,0.897924,-9.6852045,-1.24938571409522644211,-0.7589619,-4.8039656,-9.798869,1.0404079,-9.588288,-1.77558351409522644226,-0.86610246,-3.9414546,-7.651869,0.9486778,-9.452866,-2.43181561409522644227,-0.16400282,-4.1515455,-4.0581717,0.8740231,-9.315014,-2.93887621409522644243,0.6691794,-4.4358573,-1.1001357,0.8215879,-9.232756,-3.20181511409522644246,1.0073603,-4.2179847,-0.88166475,0.7880212,-9.222543,-3.2394591409522644260,1.3293805,-4.204817,-2.36188,0.7993208,-9.229842,-3.2158151409522644279,1.650802,-4.168904,-3.757101,0.8591234,-9.186906,-3.32160521409522644279,2.8413188,-3.6792896,-2.52289,0.9656777,-9.093708,-3.54151821409522644293,3.436278,-3.2824504,-2.8772318,1.2463255,-9.0197115,-3.64168831409522644307,4.1916485,-2.9903579,-2.517503,1.597409,-8.89892,-3.79840731409522644307,5.0637364,-2.8161798,-2.321777,2.035958,-8.75522,-3.92063451409522644326,5.719149,-2.8299465,-2.7970262,2.5858936,-8.57014,-4.0045331409522644326,6.136339,-2.7204118,-3.0903158,3.178892,-8.318665,-4.10668951409522644341,6.133346,-2.2170308,-4.3448777,3.7884095,-8.000092,-4.2210091409522644346,5.9364233,-1.5586253,-5.016451,4.334002,-7.5750856,-4.4726781409522644368,5.807735,-1.2719196,-4.2862196,4.8073907,-7.0749683,-4.7962721409522644369,5.4264584,-2.2720973,-1.7884687,5.2490873,-6.593472,-5.01434141409522644380,4.1395745,-5.3223104,1.541866,5.651404,-6.344052,-4.89745661409522644399,3.2160115,-11.687894,11.730989,5.8485518,-6.5865893,-4.31064651409522644400,-10.298658,-19.608511,19.608511,5.761167,-7.6329083,-2.17211371409522644407,-19.211075,-19.608511,19.566015,5.876422,-7.4737344,-2.40444091409522644434,-19.60911,-19.608511,11.756727,6.006545,-7.3008113,-2.6057591409522644438,-14.486117,-16.827646,3.787627,6.08434,-7.1915407,-2.72635031409522644441,-7.1047935,-9.529521,5.5826797,6.049315,-7.129707,-2.95693971409522644447,-8.889072,-6.821679,7.5890207,-2.9496074,-8.730453,3.35401151409522644473,-3.080739,-4.009091,5.9029045,-3.555129,-8.429897,3.5310451409522644474,0.6901286,-5.619191,0.736217,-3.6753936,-8.2693,3.77895931409522644478,4.1042604,-7.8930845,0.47285482,-3.4596648,-8.399499,3.69452741409522644505,6.318897,-12.710816,-3.888782,-2.8210182,-8.66844,3.61530141409522644506,7.994838,-15.689203,-5.856816,-1.8623116,-9.169544,2.93626171409522644507,7.447763,-14.697406,-7.702147,-0.81974113,-9.558031,2.0353041409522644542,5.9567738,-14.106038,-6.393117,0.003357202,-9.741135,1.13167481409522644543,3.9510314,-15.686211,1.6154876,0.5745359,-9.780191,0.433772531409522644544,4.413711,-13.640366,3.5523968,0.85779715,-9.759372,0.434990671409522644547,5.011064,-12.0093155,1.8489223,1.1323562,-9.726115,0.539305031409522644579,4.4125137,-10.159196,-0.40701428,1.4369328,-9.683222,0.583819871409522644580,3.3464954,-9.091981,-2.0177135,1.6767489,-9.647682,0.53024731409522644580,2.4265234,-9.32362,-2.574964,1.83551,-9.625013,0.40054011409522644604,2.086547,-9.896433,-2.7090392,1.9166815,-9.615402,0.201895031409522644605,2.3265655,-9.629479,-2.5540147,1.9552319,-9.6097145,-0.029667411409522644607,2.4349031,-8.766968,-2.156577,2.0008197,-9.596966,-0.255602061409522644626,2.2637177,-7.647679,-1.8722657,2.0558646,-9.5783825,-0.4454391409522644627,2.0829554,-7.0395517,-1.435324,2.113923,-9.557067,-0.60347911409522644645,2.1266496,-6.9545574,-1.0839748,2.1650836,-9.5384245,-0.708001551409522644670,2.2870612,-7.4058642,-0.85054016,2.2296453,-9.518678,-0.77061671409522644670,2.4025815,-8.056489,-0.91338795,2.301823,-9.498278,-0.809147831409522644671,1.6047137,-9.576208,-1.0163386,2.3727806,-9.477233,-0.84990361409522644700,0.23104046,-11.909956,-0.94331545,2.3335474,-9.483582,-0.8869191409522644701,-1.0618285,-13.52724,-0.93493575,2.1204245,-9.532834,-0.89401161409522644703,-1.9913772,-13.306973,-1.1767502,1.7738292,-9.604732,-0.87922381409522644707,-2.1206641,-11.521497,-1.3156139,1.3835477,-9.668501,-0.881050471409522644727,-1.8435353,-10.09575,-1.5735891,1.0290369,-9.712782,-0.879393341409522644728,-1.7723078,-9.0794115,-2.100912,0.7296755,-9.738498,-0.894226131409522644744,-1.863886,-8.451532,-3.3560722,0.46382776,-9.747488,-0.970427931409522644766,-1.3299791,-8.073248,-3.7223852,0.21531025,-9.731884,-1.18932261409522644767,-1.365892,-7.7374616,-3.6379895,0.043819267,-9.69192,-1.49503761409522644767,-3.6541502,-8.717887,-6.1064115,-0.08973084,-9.631298,-1.84402231409522644779,-2.5767596,-8.378509,-5.8891377,-0.38993528,-9.508203,-2.36905671409522644799,-1.9267339,-7.475895,-5.0781016,-0.5419534,-9.392125,-2.76851371409522644801,-1.7226281,-7.6560583,-3.6535518,-0.66468793,-9.296795,-3.04929761409522644807,-1.5065514,-8.396465,-2.7192147,-0.78612703,-9.251662,-3.15581321409522644825,-1.264737,-8.993818,-2.0937295,-0.8851636,-9.244268,-3.15124941409522644827,-1.062427,-9.576208,-1.4850036,-0.94764066,-9.262031,-3.080121409522644844,-0.51116204,-10.063428,-0.7248446,-0.97812593,-9.302423,-2.94594721409522644866,-0.29747957,-11.145009,-0.3196259,-0.9368989,-9.366403,-2.75011231409522644866,-0.7649474,-12.354081,0.094570965,-0.85887545,-9.44184,-2.50686961409522644867,-1.3425486,-12.739547,0.14065935,-0.8185975,-9.512826,-2.23750951409522644879,-1.7770962,-12.474389,0.10295067,-0.8271441,-9.567137,-1.9891409522644896,-2.0638018,-12.126632,0.10175357,-0.8782179,-9.603977,-1.77841841409522644912,-2.1787236,-12.039842,0.2220622,-0.9640569,-9.628181,-1.5934611409522644912,-2.2816741,-12.706028,0.866701,-1.0642382,-9.644519,-1.42164671409522644926,-2.3762453,-14.04319,5.221155,-1.1630814,-9.661758,-1.21162861409522644927,-1.1749545,-14.655507,14.31134,-1.2449782,-9.705733,-0.64741471409522644945,0.2621651,-13.945626,13.912706,-1.1877999,-9.71551,0.60693891409522644961,0.6865373,-13.465589,15.20797,-1.0328385,-9.620688,1.59560981409522644962,-1.2802993,-14.756662,17.20174,-0.90003365,-9.455927,2.4383981409522644975,-4.4801497,-14.126389,-1.0115502,-1.0723627,-9.553689,1.93583071409522644992,-5.9442043,-12.580333,-12.164939,-1.3633295,-9.2895355,2.83129671409522644992,-6.692991,-12.988544,-12.135012,-1.6660452,-9.467372,1.93999251409522645008,-6.3045316,-13.719375,-6.615778,-1.9463863,-9.553641,1.05351041409522645009,-4.9464207,-13.5535755,-0.3693056,-2.1484168,-9.553186,0.53973761409522645051,-5.9226565,-13.856442,4.2299557,-2.26327,-9.533448,0.401695731409522645052,-6.021417,-15.754446,12.020688,-2.392119,-9.490627,0.61330381409522645052,-4.697424,-17.045519,15.169064,-2.4406738,-9.403822,1.3347821409522645053,-4.027047,-16.597204,9.657013,-2.3791246,-9.427275,1.2793221409522645059,-4.283227,-15.9340105,4.598663,-2.443671,-9.145946,2.55940581409522645077,-3.8492777,-13.883976,-0.15203181,-2.5499341,-9.078456,2.6925561409522645079,-3.0603883,-12.423512,-2.742558,-2.6585622,-9.096527,2.52103881409522645096,-3.1836896,-11.39221,-1.5939398,-2.6831121,-9.181817,2.15998221409522645101,-3.5889084,-11.6029,-4.281431,-2.731894,-9.229476,1.87720431409522645107,-3.2932243,-11.448474,-9.093777,-2.7669616,-9.297999,1.43580151409522645133,-2.321777,-10.289082,-9.448118,-2.7869184,-9.374868,0.71785951409522645134,-1.0690111,-9.647436,-7.0186024,-2.7790487,-9.404628,0.0156540811409522645139,-0.22744916,-10.703279,-5.4659624,-2.6860943,-9.41898,-0.48793961409522645174,0.415394,-13.719375,-4.3424835,-2.5123222,-9.442261,-0.838049531409522645175,2.180519,-18.602947,-1.6412252,-2.2526603,-9.485561,-1.05831191409522645176,4.633379,-19.608511,3.8043866,-1.8312885,-9.580267,-1.01747321409522645179,8.20433,-19.608511,4.481347,-1.2763234,-9.70367,-0.61659461409522645207,9.580399,-19.608511,1.0534488,-0.5517533,-9.788517,-0.225616681409522645207,5.81791,-16.295536,-2.44448,0.16697247,-9.804709,-0.1008539941409522645207,2.7874494,-13.133992,-6.96593,0.57502675,-9.787487,-0.211682861409522645223,1.8177977,-11.320384,-8.2115135,0.75605804,-9.757601,-0.6228941409522645227,1.2755109,-9.41879,-4.9146976,0.8268307,-9.707591,-1.1177831409522645244,0.84814596,-7.892486,-1.9333179,0.85680974,-9.671106,-1.38056651409522645270,1.8776526,-6.7690067,-1.459266,0.84163123,-9.658669,-1.47382931409522645271,3.0711622,-5.8639984,-3.6601357,0.9141862,-9.646626,-1.50906541409522645271,1.6915035,-4.9398365,-8.831013,1.0925324,-9.598872,-1.68476051409522645302,-0.10474633,-4.1419687,-9.3583355,1.1928134,-9.46451,-2.27390241409522645304,0.5686229,-3.78643,-4.055179,1.1637845,-9.282809,-2.9403171409522645304,0.52133745,-4.0761285,-1.3910311,1.15798,-9.1908865,-3.21824031409522645308,0.22565351,-3.9025488,-1.3347675,1.0916415,-9.178624,-3.27590921409522645335,0.95827925,-3.6110547,-1.1414356,1.017158,-9.180058,-3.29580451409522645336,1.8375498,-3.328539,-2.1470003,1.0663985,-9.178316,-3.2850721409522645341,2.8353333,-2.5486276,-2.4594438,1.2259482,-9.124574,-3.377811409522645382,3.0639796,-2.208651,-2.9700072,1.5181915,-9.019411,-3.53776141409522645383,4.0934863,-1.8183962,-2.3110032,1.8494258,-8.862221,-3.76975461409522645384,5.1367598,-1.6382325,-1.8046296,2.3342848,-8.678527,-3.92488341409522645385,5.7245364,-1.5951369,-2.694674,2.9618165,-8.449558,-4.0003791409522645388,5.961562,-1.5969325,-4.1078515,3.6190221,-8.112932,-4.15372751409522645430,6.357204,-1.471237,-5.0571527,4.228562,-7.6486998,-4.44826171409522645431,5.9968767,-1.7357962,-5.6239796,4.7955375,-7.087906,-4.7890331409522645432,5.0583496,-2.7994204,-5.09546,5.204628,-6.54458,-5.1235461409522645433,3.376423,-5.559336,-0.038905777,5.409165,-6.1952467,-5.34137061409522645440,-0.16460137,-12.943653,15.152304,5.4799256,-6.463687,-4.9357411409522645471,-10.828975,-19.608511,19.608511,5.1120677,-8.045872,-2.30241061409522645471,-19.579184,-19.608511,19.608511,5.193066,-7.912205,-2.56893871409522645472,-19.48521,-19.608511,16.599,5.2556415,-7.777442,-2.83901171409522645514,-9.680955,-16.296133,5.674258,5.2685547,-7.704164,-3.0097491409522645515,-2.4791958,-6.121375,2.542642,-2.4991386,-8.699634,3.77373391409522645516,-8.393473,-6.417059,5.1864395,-2.6752954,-8.687166,3.68053271409522645516,-2.8892028,-4.461595,6.2793927,-3.3500144,-8.449426,3.68171261409522645521,-0.08379706,-5.6563015,2.379238,-3.414297,-8.304229,3.94369531409522645528,1.9901801,-7.256227,0.8230068,-3.2212312,-8.364898,3.9777561409522645564,4.9524064,-12.46601,0.7505822,-2.7629132,-8.573113,3.87794181409522645564,6.799533,-18.353352,-2.7982233,-1.8887293,-8.923927,3.60091851409522645565,6.695385,-17.98225,-5.0062757,-0.9173393,-9.355361,2.7939411409522645568,4.529231,-15.316307,-6.6870055,-0.14377631,-9.605076,1.97287831409522645607,3.2231941,-14.701595,-3.821146,0.2900793,-9.726848,1.21437061409522645607,2.7922378,-14.586075,-0.33279404,0.55661166,-9.760602,0.768926261409522645608,4.56694,-12.452842,-0.08619126,0.74717927,-9.760634,0.584910041409522645608,5.461174,-10.635044,-0.47644615,1.0515267,-9.740309,0.437122431409522645630,4.473566,-8.675988,-0.8319851,1.4008213,-9.70001,0.343387341409522645630,3.4781766,-6.8905125,-0.9504981,1.6445005,-9.663862,0.275270641409522645641,2.9311013,-6.455965,-1.4221559,1.8450658,-9.629255,0.208729851409522645661,2.7323828,-7.1472907,-2.2212207,2.0157614,-9.596862,0.085782681409522645662,2.666542,-7.78355,-2.9041667,2.1451256,-9.568358,-0.1240022261409522645668,2.7269957,-7.319673,-3.2225955,2.241088,-9.538782,-0.399455851409522645697,2.9951463,-6.64391,-2.622848,2.3333144,-9.499365,-0.698633431409522645698,3.043629,-6.6145806,-1.7357962,2.4543245,-9.449754,-0.921343271409522645702,2.885013,-7.3472066,-1.316811,2.5795622,-9.402345,-1.05461781409522645708,2.8407204,-8.542512,-1.3724761,2.6767612,-9.367222,-1.12270821409522645730,2.7778726,-10.002377,-1.6460136,2.7384555,-9.341526,-1.18622471409522645731,1.8405426,-12.667721,-2.0177135,2.7556694,-9.327924,-1.25161681409522645741,0.074818805,-15.649101,-2.023699,2.622568,-9.357719,-1.31361771409522645773,-1.5825673,-16.473904,-2.043451,2.292371,-9.4419775,-1.32835471409522645774,-2.1296425,-14.242507,-1.6328455,1.8494335,-9.540518,-1.31472651409522645774,-1.8106151,-11.110891,-1.0223241,1.4462144,-9.61347,-1.28843711409522645830,-1.7513585,-8.804677,-0.65301853,1.1304126,-9.667478,-1.19685011409522645831,-2.1374235,-8.103774,-1.0905589,0.85204995,-9.707276,-1.10144271409522645832,-2.0817583,-7.7494326,-1.988983,0.56521064,-9.731015,-1.07624161409522645842,-1.3515269,-7.833828,-2.0560207,0.30330798,-9.732884,-1.16163211409522645843,-1.2521675,-7.9786773,-2.5450363,0.12813276,-9.721917,-1.27995561409522645844,-2.570774,-8.27496,-3.1992521,-0.013645518,-9.69318,-1.48742881409522645845,-3.9917328,-8.7532015,-4.1916485,-0.24402781,-9.641701,-1.77438931409522645897,-3.9246953,-8.618527,-5.681441,-0.56594825,-9.566233,-2.08261541409522645898,-3.591901,-8.594585,-4.71957,-0.8705963,-9.438012,-2.51722031409522645900,-3.0903158,-8.813056,-3.0256724,-1.1182836,-9.336997,-2.7821431409522645901,-2.582745,-8.930372,-1.3210008,-1.3302602,-9.295821,-2.82639361409522645902,-2.308609,-9.144653,-0.38486794,-1.4939163,-9.309502,-2.69662571409522645904,-1.2425907,-10.229227,0.3441665,-1.6075408,-9.347787,-2.49100331409522645908,-1.1827357,-10.836157,0.338181,-1.5734202,-9.4207945,-2.22336341409522645928,-1.489792,-11.094132,0.15382746,-1.5182558,-9.485453,-1.97268491409522645929,-1.9482816,-11.11568,0.29209262,-1.4902713,-9.53127,-1.76193311409522645942,-2.1559787,-11.034876,0.581791,-1.5029631,-9.564118,-1.56177071409522645970,-2.0159178,-10.986992,0.8535329,-1.5369521,-9.589356,-1.36102771409522645970,-1.8387469,-11.086949,1.0809821,-1.563357,-9.611837,-1.15710781409522645971,-1.5352819,-11.498154,1.8525136,-1.5782948,-9.631518,-0.95564071409522646005,-1.2030864,-12.460623,5.0200424,-1.5635788,-9.655403,-0.70625151409522646005,-0.15861586,-12.867039,6.5325794,-1.5073102,-9.6881075,-0.197492421409522646006,0.06344634,-13.224373,6.353014,-1.3526146,-9.705634,0.376169651409522646009,-0.095169514,-12.940062,6.749853,-1.2090268,-9.6987915,0.801285451409522646031,-0.25917232,-12.497134,13.228563,-1.1259882,-9.675755,1.13238321409522646032,-2.1440077,-13.51048,13.271659,-1.0914236,-9.546032,1.96277021409522646041,-4.8416743,-14.396335,-1.9812019,-1.200299,-9.3477745,2.7108651409522646066,-6.976105,-15.872959,-8.082227,-1.425141,-9.410002,2.36457661409522646067,-7.908048,-15.976508,-6.603208,-1.7232796,-9.499397,1.7210951409522646069,-6.38354,-14.66688,-1.1270704,-2.0381904,-9.523314,1.15006551409522646101,-6.723517,-14.895526,2.8395233,-2.2606459,-9.492702,