time,acc_x,acc_y,acc_z,gravity_x,gravity_y,gravity_z1409346976683,-0.21308395,-10.02153,-0.17717093,0.24694881,-9.667958,-1.62479841409346976703,-0.18794483,-10.141838,-0.33039984,0.2416507,-9.669755,-1.61487821409346976703,-0.18794483,-10.304645,-0.5374983,0.23558658,-9.673384,-1.59391461409346976708,-0.22744916,-10.450092,-0.7565677,0.22875966,-9.678627,-1.56276951409346976732,-0.19572599,-10.382456,-0.8774749,0.2230214,-9.684626,-1.5260111409346976733,-5.99E-04,-10.216658,-0.9540894,0.21953562,-9.69043,-1.4892231409346976743,0.2825158,-10.1382475,-0.98102415,0.21684945,-9.695126,-1.45874231409346976749,0.5129577,-10.147225,-0.99538934,0.2131465,-9.69817,-1.43890581409346976767,0.65421563,-10.149021,-1.0761937,0.21140608,-9.700261,-1.42501271409346976784,0.7080852,-10.099341,-1.1815386,0.20869623,-9.700556,-1.42339271409346976785,0.7882909,-10.02572,-1.4694413,0.20792028,-9.69949,-1.43075121409346976804,0.7715315,-10.029311,-1.532289,0.20925942,-9.697756,-1.44228031409346976805,0.7541735,-10.043676,-1.5879543,0.21192485,-9.696442,-1.45068841409346976809,0.74998367,-10.051457,-1.685518,0.21624184,-9.695926,-1.45350111409346976828,0.7392098,-10.03769,-1.7399861,0.22266543,-9.696171,-1.45089441409346976829,0.7086837,-10.037092,-1.7417817,0.22968583,-9.697044,-1.44393241409346976854,0.6488287,-10.0508585,-1.6867151,0.2331462,-9.698147,-1.4359661409346976855,0.53330845,-10.078392,-1.5951369,0.239279,-9.69932,-1.42700871409346976863,0.43873745,-10.084976,-1.4706384,0.24470279,-9.700304,-1.41936391409346976886,0.3184288,-10.107721,-1.3670892,0.24959084,-9.700954,-1.41406711409346976887,0.19572599,-10.157999,-1.311424,0.25296617,-9.701252,-1.41142691409346976889,0.12330139,-10.224439,-1.2449849,0.25437808,-9.701272,-1.41103471409346976918,0.12030864,-10.231023,-1.1959038,0.25456074,-9.701034,-1.41263041409346976919,0.142455,-10.183737,-1.1252748,0.2535466,-9.700676,-1.41527251409346976923,0.17118542,-10.081984,-1.06123,0.25175038,-9.69996,-1.42048931409346976929,0.22625206,-10.035296,-0.99898064,0.24885611,-9.698824,-1.42873781409346976950,0.28431144,-10.010158,-0.9648633,0.24557519,-9.697267,-1.43982911409346976951,0.31423897,-10.011354,-0.9103952,0.24195144,-9.695329,-1.4534281409346976970,0.3172317,-10.024523,-0.85413146,0.2381047,-9.69325,-1.46785581409346976971,0.31543607,-10.014946,-0.83378077,0.23415713,-9.691217,-1.48184221409346976983,0.32680854,-10.044274,-0.80564886,0.23038785,-9.689358,-1.49455321409346977000,0.30047232,-10.063428,-0.7625532,0.22660072,-9.687629,-1.50628661409346977010,0.31902736,-10.064626,-0.7517793,0.22256489,-9.686207,-1.51599991409346977011,0.3298013,-10.10413,-0.7314286,0.21890637,-9.685074,-1.52375511409346977029,0.3369839,-10.137649,-0.7170634,0.21550125,-9.684225,-1.52961371409346977030,0.35673606,-10.200497,-0.7044938,0.21152094,-9.683613,-1.53404361409346977044,0.34356794,-10.187328,-0.688333,0.20673692,-9.683215,-1.53719881409346977049,0.29747957,-10.205285,-0.6793547,0.20060705,-9.682986,-1.53945091409346977061,0.24899697,-10.214263,-0.6865373,0.19297348,-9.682842,-1.54132781409346977078,0.17956513,-10.143036,-0.6823475,0.18452159,-9.682672,-1.54344091409346977084,0.14784196,-10.201694,-0.6961141,0.17518209,-9.682527,-1.54543651409346977109,0.16280572,-10.21127,-0.7152678,0.1654799,-9.682466,-1.54688811409346977111,0.28191724,-10.210073,-0.7553706,0.15574352,-9.682649,-1.54675571409346977112,0.48362875,-10.197504,-0.79248077,0.14680414,-9.683083,-1.5449131409346977143,0.61112,-10.1304655,-0.8086416,0.13965836,-9.683525,-1.54280441409346977144,0.6548142,-10.023924,-0.7882909,0.13477029,-9.683668,-1.54234351409346977146,0.7290344,-10.007165,-0.7954735,0.13172376,-9.683576,-1.54317321409346977151,0.8206126,-10.042479,-0.8714894,0.13183014,-9.683015,-1.54669811409346977169,0.82719666,-10.02153,-0.99658644,0.13402152,-9.682269,-1.55117031409346977170,0.7565677,-9.977237,-1.1402385,0.13691285,-9.681782,-1.55393341409346977180,0.66379243,-10.02572,-1.2773066,0.14157121,-9.681884,-1.55289051409346977198,0.59495914,-10.126875,-1.3347675,0.14883476,-9.682632,-1.54752931409346977212,0.60214174,-10.118495,-1.359308,0.15787235,-9.683851,-1.53899121409346977213,0.7110779,-10.113108,-1.3599066,0.16798341,-9.685115,-1.52994551409346977228,0.8002619,-10.107721,-1.3425486,0.17741905,-9.6863,-1.52134941409346977229,0.7685388,-10.046669,-1.2264298,0.18648499,-9.686967,-1.51600781409346977246,0.6931214,-9.920375,-1.1528081,0.19416122,-9.686963,-1.51507581409346977249,0.58119243,-9.821614,-1.0995371,0.20057665,-9.686337,-1.51823871409346977264,0.4165911,-9.750985,-1.1121067,0.20500089,-9.68534,-1.52399241409346977276,0.25438392,-9.790489,-1.1282675,0.20705724,-9.684271,-1.53049081409346977284,0.13587095,-9.850345,-1.1647792,0.20649639,-9.683446,-1.53578511409346977296,0.08439561,-9.898827,-1.1755531,0.20517011,-9.682732,-1.54045081409346977313,-0.001197101,-9.90601,-1.1959038,0.2025953,-9.682198,-1.544141409346977314,-0.065242,-9.92636,-1.18094,0.19731939,-9.681783,-1.54742561409346977327,-0.13946225,-9.968858,-1.1007342,0.18889731,-9.681419,-1.55075591409346977329,-0.18555063,-9.998785,-1.0049661,0.1778855,-9.680881,-1.55540991409346977344,-0.18974048,-10.020931,-0.90021986,0.16448855,-9.680064,-1.56195561409346977349,-0.21068975,-10.110714,-0.79966336,0.14887218,-9.679009,-1.57003161409346977361,-0.2172738,-10.183139,-0.7422025,0.13070728,-9.678027,-1.57768111409346977377,-0.20051439,-10.324396,-0.74519527,0.11123481,-9.677074,-1.58500831409346977382,-0.19512744,-10.419566,-0.80684596,0.08967326,-9.676343,-1.59082811409346977393,-0.15203181,-10.357915,-0.83737206,0.066688396,-9.675802,-1.59524211409346977410,-0.046088383,-10.201694,-0.8415619,0.043931495,-9.675341,-1.59881851409346977411,0.12868834,-10.063428,-0.80804306,0.022153087,-9.674632,-1.60356331409346977427,0.30945057,-9.877279,-0.7697359,0.001041326,-9.673348,-1.61142491409346977429,0.5231331,-9.752182,-0.75118077,-0.019536767,-9.671208,-1.6241091409346977445,0.7206547,-9.712678,-0.7649474,-0.037377544,-9.668567,-1.63944481409346977449,0.9115923,-9.67856,-0.7942764,-0.052988663,-9.665115,-1.65926281409346977481,1.043872,-9.615114,-0.86251116,-0.06482027,-9.661327,-1.68076411409346977482,1.1653777,-9.639056,-0.9498995,-0.07237375,-9.657526,-1.70216431409346977484,1.210269,-9.798869,-1.1013328,-0.07392974,-9.654073,-1.72156491409346977496,1.1683705,-10.053851,-1.2491747,-0.06922902,-9.651109,-1.73830641409346977515,1.033098,-10.209475,-1.3150153,-0.058401044,-9.6486845,-1.75210261409346977516,0.7811083,-10.107721,-1.3239936,-0.04251374,-9.646902,-1.7623441409346977527,0.29688102,-9.927557,-1.2575544,-0.027382514,-9.645549,-1.77004161409346977529,-0.15083471,-9.909601,-1.1761516,-0.011615327,-9.645563,-1.77013741409346977543,-0.42556936,-10.098145,-1.1306617,0.004788988,-9.647755,-1.75818661409346977549,-0.66498953,-10.326791,-1.1133038,0.021355508,-9.652697,-1.73071611409346977565,-0.9504981,-10.6158905,-1.1994951,0.034802727,-9.660342,-1.6873021409346977569,-1.2395979,-11.043256,-1.472434,0.042355333,-9.670273,-1.6292471409346977583,-1.407192,-11.304822,-1.8321629,0.04315613,-9.681701,-1.55987821409346977595,-1.8201919,-11.254543,-2.143409,0.038373277,-9.693094,-1.48755971409346977611,-2.8179753,-11.394006,-2.558803,0.026891222,-9.704923,-1.40860431409346977611,-3.3596635,-11.280281,-2.658761,8.19E-04,-9.716308,-1.3280651409346977627,-3.117849,-10.781689,-2.203264,-0.038316287,-9.726672,-1.24931741409346977629,-2.6922798,-10.178948,-1.5693992,-0.0914201,-9.735506,-1.17558241409346977643,-3.445855,-10.052056,-1.70946,-0.15975013,-9.741726,-1.11519281409346977659,-2.8904,-9.561244,-0.8822633,-0.24551469,-9.743949,-1.07962671409346977661,-1.7184383,-8.859145,-0.17657238,-0.32952306,-9.742139,-1.07355631409346977678,-1.0995371,-8.719683,0.37948096,-0.40134647,-9.738077,-1.08591471409346977694,-0.65182143,-8.845977,0.004189853,-0.466988,-9.729796,-1.13286021409346977694,0.022146367,-9.260772,-0.40821138,-0.5100278,-9.718626,-1.20772221409346977710,0.2220622,-9.474455,-0.79966336,-0.5279437,-9.705914,-1.29882311409346977711,0.35254622,-9.679159,-1.0965444,-0.52972734,-9.691274,-1.40321341409346977725,0.44951138,-9.942521,-1.4083891,-0.5191916,-9.673982,-1.52148851409346977729,0.5129577,-10.232818,-1.638831,-0.49787092,-9.652742,-1.65743941409346977743,0.6985083,-10.476428,-1.8477252,-0.46605596,-9.628275,-1.80263161409346977762,0.94570965,-10.512939,-2.0207062,-0.42586923,-9.598742,-1.96294461409346977764,1.2485762,-10.356119,-2.2882583,-0.37401307,-9.565211,-2.13008071409346977784,1.5879543,-10.156203,-2.0679917,-0.31290072,-9.529118,-2.29529241409346977785,1.8100165,-9.974244,-1.6472107,-0.24832653,-9.493274,-2.44671961409346977790,1.6968905,-10.040085,-1.0570401,-0.18545039,-9.457658,-2.5862561409346977813,1.513734,-10.150218,-0.89303726,-0.12737522,-9.422017,-2.71657351409346977814,1.3180081,-10.170568,-0.5201403,-0.07395693,-9.3861685,-2.83984851409346977829,0.8086416,-10.195708,-0.093373865,-0.031013856,-9.351352,-2.95324641409346977830,0.1945289,-10.28549,0.25797522,0.009809739,-9.320587,-3.04908561409346977843,-0.374094,-10.390836,0.66738373,0.041720543,-9.296071,-3.12277051409346977864,-0.89423436,-10.370484,1.1330559,0.06530892,-9.28046,-3.16846941409346977865,-1.5508442,-10.342353,1.5239093,0.078297295,-9.275638,-3.18226121409346977879,-2.110489,-10.465654,1.6448165,0.078953125,-9.281943,-3.16381721409346977882,-2.223615,-10.452486,1.5107412,0.07231647,-9.298713,-3.1143351409346977894,-2.0961237,-10.539276,1.0354922,0.06797259,-9.319234,-3.0524851409346977910,-2.0458453,-10.8469305,0.11851298,0.06803659,-9.345829,-2.97006231409346977911,-2.0614076,-11.1414175,-1.3126211,0.07743366,-9.37592,-2.8734161409346977929,-1.8201919,-11.358093,-3.3620577,0.09992752,-9.406738,-2.77014261409346977930,-1.8064252,-11.807006,-5.4007206,0.1354311,-9.435707,-2.668241409346977945,-2.0685902,-12.295423,-5.7975593,0.17281477,-9.460105,-2.5781711409346977959,-1.6053122,-12.148179,-4.3239284,0.20155571,-9.479232,-2.50478241409346977961,-1.9351135,-12.211027,-2.5258827,0.22202596,-9.4924135,-2.45259361409346977977,-2.6629508,-12.246941,-1.4784195,0.21935295,-9.503874,-2.40803581409346977994,-2.8580782,-11.9297085,-1.163582,0.19744098,-9.505196,-2.40471581409346977995,-2.7748797,-11.595717,-1.0606314,0.16881548,-9.497476,-2.43718311409346978010,-2.5276785,-11.327567,-1.0342951,0.141205,-9.485894,-2.4835991409346978011,-2.404377,-11.273099,-0.99538934,0.1142223,-9.472563,-2.53532931409346978027,-2.5558102,-11.480197,-0.90500826,0.09243746,-9.4582405,-2.58912371409346978029,-2.8933928,-11.733982,-0.57999533,0.08087796,-9.44422,-2.6401851409346978047,-3.4171243,-11.9746,0.25857377,0.076057404,-9.431621,-2.6849851409346978063,-4.0677485,-11.996147,2.4534583,0.07097031,-9.422489,-2.71699981409346978064,-4.593276,-12.056602,4.136582,0.058210783,-9.42086,-2.7229351409346978079,-5.1140146,-12.436681,3.5033157,0.03121873,-9.422731,-2.71690581409346978081,-6.0968347,-13.459603,6.409278,-4.87E-04,-9.41444,-2.74566861409346978096,-6.0441623,-15.387534,19.258959,-0.028563248,-9.409574,-2.76215361409346978113,-3.918111,-14.458584,9.743204,0.045616966,-9.3704815,-2.8917781409346978114,-1.8866309,-11.893197,-2.6007016,-2.7494373,-9.129752,2.29315921409346978128,-0.30286652,-11.770494,-1.9596541,-2.6949537,-9.215993,1.99326291409346978130,-0.7098808,-12.843097,-1.1965023,-2.5195658,-9.2963705,1.84382341409346978150,-1.8525136,-13.369223,-3.4985273,-2.284322,-9.396077,1.63279041409346978150,-1.6903064,-13.050794,-3.8510735,-2.1465385,-9.48994,1.22630291409346978164,-1.7405846,-13.145365,-3.8001966,-2.0696018,-9.549142,0.83728991409346978188,-0.97982705,-13.4608,-3.6092591,-2.0191352,-9.584121,0.48797381409346978189,-0.094570965,-13.882778,-3.645172,-1.9049176,-9.618051,0.186541681409346978190,1.2605472,-14.437634,-3.447052,-1.7386694,-9.650936,-0.082835151409346978222,3.3081882,-15.898696,-2.698864,-1.4847265,-9.688477,-0.315307861409346978223,6.452972,-17.68537,-2.3558946,-1.1157081,-9.731941,-0.463597241409346978224,8.66701,-18.287512,-1.882441,-0.5594975,-9.7747555,-0.558145941409346978232,6.9102645,-16.81747,-1.6328455,0.080660224,-9.788602,-0.589174571409346978253,3.5356374,-14.676456,-2.1254525,0.54877895,-9.772978,-0.5984211409346978253,0.79846627,-13.681067,-3.0496144,0.78612876,-9.752985,-0.657033741409346978261,-1.0007763,-12.898163,-5.3887496,0.81613433,-9.740773,-0.78847171409346978285,-2.8909986,-12.14399,-5.4342394,0.6858491,-9.72461,-1.0639361409346978285,-4.3795934,-11.642405,-2.183512,0.40779024,-9.705886,-1.34159611409346978290,-4.1240125,-10.4249525,-1.8297687,0.033699147,-9.706424,-1.39806851409346978321,-0.31603462,-8.356362,-2.3529017,-0.30159956,-9.6917095,-1.46635881409346978322,1.2569559,-7.703344,-3.067571,-0.34123453,-9.674554,-1.56746591409346978323,2.3187842,-7.2364745,-4.3143516,-0.23681612,-9.65512,-1.70087741409346978333,2.6844985,-6.2183404,-5.671864,-0.018002981,-9.614367,-1.9323631409346978371,2.7281928,-5.303157,-4.8626237,0.22457215,-9.536432,-2.2751691409346978372,2.0153193,-5.1810527,-3.8911762,0.43750003,-9.458074,-2.55417541409346978373,1.5005659,-5.1182046,-3.6661212,0.58603144,-9.392498,-2.75825241409346978374,1.0001777,-4.9320555,-3.132813,0.6612278,-9.3239975,-2.96583961409346978412,1.1845313,-4.7285485,-1.9231426,0.6963886,-9.268641,-3.1269391409346978413,1.3700819,-4.4657845,-2.059612,0.76692575,-9.249016,-3.1682691409346978415,2.0081367,-3.9857473,-2.417545,0.85914546,-9.218258,-3.2335671409346978424,3.1681273,-3.4985273,-0.98222125,1.0314322,-9.159894,-3.34706761409346978466,4.245518,-3.044826,-0.26276365,1.3714044,-9.129836,-3.30692221409346978466,4.767454,-2.678513,-1.0456676,1.8620877,-9.082957,-3.19420361409346978467,5.0146556,-2.5103204,-2.0769699,2.4258735,-8.956336,-3.17325951409346978468,4.895544,-2.597709,-2.5061307,3.001469,-8.744524,-3.27030591409346978469,4.613028,-2.8089972,-2.5151088,3.525852,-8.494676,-3.4028271409346978470,4.257489,-3.1381998,-2.469619,3.9627273,-8.24772,-3.52736881409346978500,3.8738184,-3.9641995,-1.763928,4.295599,-8.030181,-3.63791941409346978501,3.6284127,-5.393538,-0.6290765,4.5214944,-7.9178696,-3.61023761409346978502,3.0753522,-7.1867948,0.748188,4.6359987,-7.9535847,-3.3791131409346978511,1.0079589,-9.905411,4.407127,4.6055217,-8.151738,-2.91697761409346978557,-3.6314054,-14.23293,11.419145,4.2214723,-8.636117,-1.94089211409346978560,-10.344747,-19.066824,14.900314,3.1013403,-9.303048,-0.073294951409346978562,-15.275605,-19.608511,12.870629,3.1694582,-9.27757,-0.227170351409346978566,-14.176068,-19.29906,9.344569,3.2118127,-9.258284,-0.37260641409346978569,-11.914146,-17.364546,4.131195,3.210422,-9.25245,-0.505727771409346978626,-9.202713,-15.743671,3.0352492,-2.5745933,-9.064488,2.71604591409346978628,-6.081272,-14.583082,2.3582888,-2.960674,-9.002936,2.52030941409346978631,-2.4007857,-10.901998,3.0280666,-3.075924,-9.003346,2.3767291409346978633,-1.8980033,-8.428787,3.6379895,-2.984232,-9.014788,2.44915631409346978635,-0.8972271,-5.9849057,2.3732524,-2.8952496,-8.995664,2.62030051409346978637,0.6171055,-5.6886234,-0.24660277,-2.7838204,-9.000212,2.72340461409346978663,3.1196449,-10.250176,-2.2110453,-2.5802326,-9.095019,2.60641771409346978664,4.406528,-14.677055,-4.176685,-2.0879953,-9.324324,2.2062731409346978665,3.4290953,-16.45475,-4.370615,-1.4628099,-9.570017,1.56376281409346978665,-0.39205053,-16.21533,1.1522095,-0.95568013,-9.71186,0.967916371409346978670,-5.395334,-16.892889,12.826936,-0.8348738,-9.727244,0.92416991409346978697,1.6777369,-12.587516,3.1651347,-1.1205204,-9.581774,1.76194371409346978698,4.507085,-11.286267,-5.804742,-0.87134707,-9.601909,1.79290811409346978704,3.2603042,-11.378444,-4.9045224,-0.4648951,-9.719397,1.21967471409346978710,3.4099417,-10.378864,-2.0398598,-0.17647623,-9.773909,0.78099391409346978731,4.6339774,-7.5309615,0.032920275,0.12577012,-9.790166,0.554278431409346978732,5.4192758,-5.4761376,0.61770403,0.52621675,-9.7810755,0.47332921409346978742,5.5377884,-5.217564,-0.08140286,0.9753309,-9.747438,0.454486221409346978768,4.423288,-6.1303535,-1.4173675,1.4263536,-9.693659,0.41092181409346978769,2.6839,-7.4872675,-2.7760768,1.7760218,-9.640857,0.264587341409346978776,2.0290859,-8.193557,-4.1677065,1.9468393,-9.611464,-0.0054673251409346978803,2.2894554,-8.552089,-4.8560395,2.026835,-9.586473,-0.402363841409346978804,2.8772318,-8.66282,-4.2078094,2.0942216,-9.543695,-0.838157651409346978804,3.086126,-8.803479,-2.8981812,2.1918485,-9.485666,-1.17827171409346978810,3.0148985,-9.52174,-2.079364,2.294848,-9.438858,-1.34612241409346978824,2.6791117,-10.700885,-1.7914615,2.366366,-9.408079,-1.43484061409346978845,2.1757307,-11.99495,-1.785476,2.3822415,-9.397088,-1.47989081409346978846,1.3335704,-13.315951,-1.6741456,2.3269606,-9.408708,-1.49394861409346978850,0.20171149,-14.112622,-1.5819688,2.1775656,-9.448225,-1.46957861409346978862,-0.39085343,-13.454815,-1.6496049,1.9308764,-9.508302,-1.42627911409346978881,-0.3549404,-11.703457,-1.5610195,1.6743282,-9.560855,-1.39894561409346978883,-0.39444473,-10.505757,-1.4748282,1.4562808,-9.59869,-1.38375571409346978890,-0.6380547,-10.086173,-1.5855601,1.263037,-9.627549,-1.37311031409346978910,-0.7170634,-9.546281,-1.6927006,1.0752839,-9.649329,-1.38005971409346978910,-0.89303726,-9.089587,-1.553837,0.9099095,-9.6617155,-1.41197571409346978925,-1.5316905,-8.823232,-1.5861586,0.75022507,-9.669436,-1.45242941409346978941,-2.4277205,-8.8806925,-2.0883424,0.5523028,-9.673522,-1.51271321409346978944,-3.2231941,-9.399037,-1.3575124,0.2907172,-9.668726,-1.61294781409346978960,-3.3716345,-9.503185,-1.5263035,-0.026514499,-9.67389,-1.60796311409346978977,-2.7263973,-9.200318,-2.2601264,-0.35035425,-9.666555,-1.61410811409346978978,-1.9626468,-9.1590185,-3.2136173,-0.5942714,-9.642742,-1.68368051409346978993,-2.1691468,-9.428367,-3.1675289,-0.74134535,-9.6036625,-1.8413291409346978994,-1.9937714,-8.966286,-2.4289176,-0.8794892,-9.564166,-1.98080681409346979011,-1.596334,-8.841787,-1.1097125,-0.99627376,-9.538019,-2.0503781409346979012,-1.4993688,-9.463681,-0.109534726,-1.0808873,-9.539903,-1.99808081409346979028,-1.2575544,-10.043676,0.5650316,-1.1382918,-9.565956,-1.83498311409346979048,-0.8888474,-10.257957,1.0187328,-1.1596053,-9.601588,-1.62333861409346979049,-1.0289081,-10.685921,1.1917139,-1.1372288,-9.642629,-1.37724551409346979051,-1.1019313,-10.699089,1.3120226,-1.1197511,-9.676254,-1.13430571409346979077,-1.0468647,-10.700286,1.2683283,-1.10719,-9.701532,-0.90819261409346979078,-0.9552865,-10.721235,1.1234791,-1.093094,-9.71947,-0.712353771409346979093,-0.86849666,-11.096526,1.0468647,-1.0757725,-9.731929,-0.55013831409346979093,-0.8062474,-11.819575,0.9935937,-1.0490967,-9.741584,-0.413902881409346979115,-0.7212533,-12.29662,1.1611878,-1.0093136,-9.750016,-0.29811911409346979116,-0.5093664,-12.254123,1.7830818,-0.9621628,-9.757606,-0.183789461409346979124,-0.19153613,-11.955446,2.3780408,-0.90395087,-9.764837,-0.0354384671409346979152,-0.01316811,-11.5155115,2.5139117,-0.8347408,-9.770071,0.139004781409346979153,-0.11611878,-10.922348,2.1110873,-0.7701804,-9.771966,0.293037061409346979154,-0.56982,-10.42615,1.7154455,-0.7261498,-9.771962,0.38971409346979179,-1.6071079,-11.090541,1.70946,-0.7194354,-9.769212,0.464029761409346979180,-2.694674,-12.752715,3.3081882,-0.7989678,-9.759219,0.53821841409346979184,-3.5924997,-13.841478,5.746084,-0.9451767,-9.731185,0.762289641409346979191,-4.4861355,-13.690045,4.945224,-1.1424336,-9.668122,1.18008881409346979210,-5.499481,-12.813169,0.25917232,-1.3772478,-9.590848,1.51301991409346979211,-6.0046577,-12.358271,-3.882198,-1.6607211,-9.554094,1.46002351409346979225,-4.8722005,-12.464214,-3.5236664,-1.9583539,-9.550086,1.06353311409346979255,-4.470573,-12.762891,-2.1027076,-2.1375048,-9.545892,0.690948071409346979255,-5.317522,-13.946823,-0.5710171,-2.262938,-9.531645,0.44413861409346979256,-6.9892735,-16.276382,6.6774287,-2.412588,-9.498287,0.363822071409346979278,-5.549161,-18.588581,18.268358,-2.6047978,-9.419982,0.80581931409346979278,-2.790442,-16.07467,9.032724,-2.6112864,-9.415529,0.83628821409346979282,-1.0133458,-12.832322,0.17298107,-2.477586,-9.197327,2.33262441409346979291,-1.3138182,-12.930485,-0.97623575,-2.4061513,-9.23615,2.25263381409346979311,-1.9075803,-13.296798,-3.7600937,-2.3494873,-9.285306,2.10556481409346979312,-1.6106992,-12.639589,-6.6732388,-2.2874057,-9.382384,1.70558521409346979323,-0.5674258,-11.684303,-7.409456,-2.2168043,-9.487171,1.11792931409346979343,-0.87089086,-11.033679,-7.1263413,-2.0974755,-9.568467,0.464121761409346979343,-1.1025299,-10.875661,-6.9090676,-2.027505,-9.593817,-0.135128291409346979368,-1.0869676,-12.671911,-6.0208187,-1.9601787,-9.5882635,-0.62712091409346979369,-0.026934769,-15.75684,-4.69084,-1.87884,-9.575639,-0.973397141409346979371,2.2062569,-19.24998,-2.2691047,-1.7107682,-9.586228,-1.1609791409346979397,5.1223946,-19.608511,1.9357121,-1.3808287,-9.643158,-1.12836611409346979398,9.81084,-19.608511,4.0701427,-0.8835978,-9.732632,-0.81578541409346979402,7.669825,-17.735048,2.0811598,-1.1362334,-9.725523,-0.54180311409346979411,4.231153,-13.854048,-2.0560207,0.41707012,-9.794901,-0.237427831409346979427,1.7675194,-12.62702,-5.2780175,0.72922003,-9.773581,-0.340242151409346979443,1.2635399,-11.020511,-7.8009076,0.83752316,-9.75022,-0.634163861409346979443,1.6196774,-9.173983,-7.2580223,0.8581635,-9.707813,-1.09191261409346979462,2.8526914,-7.9128366,-4.0958805,0.87619776,-9.648159,-1.52173531409346979463,3.781043,-7.1305313,-2.3289597,0.98231095,-9.59947,-1.74803581409346979471,3.78643,-6.631939,-2.1470003,1.1814512,-9.561566,-1.83057441409346979497,0.82360536,-6.666056,-5.595848,1.3979034,-9.519452,-1.89638661409346979497,0.7870938,-4.9745526,-4.8823757,1.3911422,-9.45212,-2.2119151409346979503,1.0307038,-4.8494554,-5.0200424,1.3945769,-9.378909,-2.502331409346979527,1.0468647,-4.8464627,-4.656722,1.4072517,-9.285386,-2.82341551409346979528,0.9624691,-4.7536874,-1.7124528,1.4230776,-9.189636,-3.11380551409346979531,1.1210849,-4.3646297,-0.12090719,1.4376205,-9.177365,-3.1431811409346979544,1.553837,-3.8660371,-0.39743748,1.4759148,-9.207803,-3.03454541409346979559,2.0937295,-3.268684,-1.9297266,1.555389,-9.219299,-2.95899771409346979577,2.6689363,-2.6036944,-2.9801826,1.7245687,-9.15884,-3.05154161409346979578,3.3441012,-1.8956091,-3.0508115,1.9686599,-9.030879,-3.2768931409346979594,4.3981485,-1.3922282,-2.373851,2.3285272,-8.850037,-3.524941409346979594,5.1301756,-1.352724,-2.7096379,2.8459496,-8.623022,-3.7033011409346979604,5.786187,-1.2785037,-3.940856,3.4343362,-8.312719,-3.90824481409346979625,6.045958,-1.8537107,-4.1706996,4.044028,-7.867432,-4.23317671409346979626,5.691616,-3.217807,-3.1543608,4.5967464,-7.4104733,-4.48611161409346979639,4.7022123,-5.0212393,-0.4842273,5.002555,-7.119658,-4.52276041409346979642,2.8078,-7.778163,3.743933,5.244596,-7.152199,-4.18457131409346979660,-0.46567222,-12.252926,10.30225,5.2052436,-7.6427197,-3.26568171409346979664,-12.469003,-19.169775,19.479824,4.5554924,-8.571785,-1.39369551409346979671,-19.328989,-19.608511,18.285715,4.6256886,-8.502223,-1.57658061409346979695,-19.331982,-19.608511,13.791201,4.669368,-8.446099,-1.74091431409346979695,-12.997522,-17.235859,7.257424,4.6209626,-8.440067,-1.89271241409346979703,-5.643732,-9.567828,3.0819361,4.5419717,-8.457684,-2.00211381409346979729,-5.7760115,-9.270947,2.622848,-3.2506216,-8.576139,3.4718391409346979729,-3.5966895,-9.294889,3.3728316,-3.5075724,-8.553296,3.27237461409346979731,-0.9876082,-9.188348,3.7834373,-3.4849565,-8.580013,3.2262731409346979762,0.061650693,-8.558074,2.870648,-3.252651,-8.646903,3.2896381409346979763,0.7284359,-6.3524156,3.2513258,-2.9733696,-8.724603,3.34824511409346979764,2.379238,-6.1542954,2.5390508,-2.646385,-8.763269,3.51740841409346979771,4.4562078,-11.173141,-2.7443538,-2.1985686,-8.852299,3.60187361409346979796,6.667852,-16.254833,-5.5030727,-1.5722628,-9.1935625,3.02932241409346979797,6.0764837,-16.402676,-7.821857,-0.7410738,-9.538096,2.1554421409346979803,3.6433764,-14.158112,-5.8119245,-0.08392273,-9.732326,1.20216561409346979850,1.8543092,-16.25663,-1.3108255,0.27424335,-9.787509,0.54759181409346979851,1.608305,-16.94975,1.4041992,0.41022682,-9.79377,0.290180921409346979851,2.134431,-15.277401,2.8634653,0.48813453,-9.791034,0.260290831409346979852,2.6150668,-12.33792,1.9434932,0.5814353,-9.781289,0.39840751409346979853,3.0466216,-9.446921,0.41599256,0.7157512,-9.767664,0.500816051409346979879,4.07134,-8.487445,-0.5279215,0.88152623,-9.753521,0.511984771409346979880,4.618415,-8.220491,-1.436521,1.1480285,-9.727722,0.473117861409346979883,4.0306387,-7.581838,-1.9045875,1.4626362,-9.690136,0.363786251409346979891,2.7162218,-7.1305313,-2.40318,1.7283138,-9.651084,0.199827281409346979918,1.9937714,-6.541558,-2.731784,1.8821614,-9.624305,-0.0247784691409346979918,2.054225,-6.3949127,-2.6647465,1.9696205,-9.60265,-0.283076641409346979924,2.4331074,-7.1622543,-2.2122424,2.049453,-9.575593,-0.52742021409346979950,2.2589293,-9.966463,-1.4053963,2.140261,-9.543581,-0.713961061409346979950,1.702876,-11.486781,-1.411382,2.1623528,-9.533835,-0.77499421409346979951,0.6488287,-13.594277,-1.905186,2.1087523,-9.54179,-0.823293271409346979979,-0.6667852,-15.596429,-2.195483,1.9316028,-9.573405,-0.888366041409346979980,-1.726818,-15.722723,-2.2972364,1.634567,-9.623205,-0.94473851409346979983,-2.1272483,-13.748105,-2.0961237,1.2855791,-9.671444,-0.990374451409346979991,-2.0015526,-11.625645,-1.441908,0.95374453,-9.7063265,-1.0237081409346980012,-1.721431,-10.550649,-0.94451255,0.6809496,-9.729021,-1.02609631409346980013,-1.5041572,-9.986814,-0.81881696,0.44201985,-9.745893,-0.996284251409346980026,-1.3916297,-9.300277,-1.1025299,0.24091391,-9.754921,-0.97666651409346980048,-1.6160861,-8.139688,-1.0139444,0.077147834,-9.7555275,-0.997029541409346980049,-1.8992004,-7.1395097,-0.96665895,-0.08097002,-9.751582,-1.03463631409346980051,-2.285864,-6.981492,-1.5951369,-0.24235359,-9.740378,-1.11208151409346980073,-2.5821466,-7.149685,-2.046444,-0.42179742,-9.7158,-1.26321791409346980074,-2.4384944,-7.1155677,-1.7896658,-0.6186378,-9.682925,-1.42430011409346980090,-1.6316484,-7.1592617,-1.7938557,-0.8008409,-9.65485,-1.52082781409346980092,-0.8643068,-7.715315,-1.8608932,-0.9096038,-9.632523,-1.59922891409346980106,-0.56682724,-8.550293,-1.5682021,-0.9353721,-9.620131,-1.65788971409346980121,-0.18076223,-8.793902,-1.1641805,-0.91678137,-9.6208105,-1.66429981409346980123,-0.018555064,-8.675988,-0.86131406,-0.84535253,-9.633077,-1.6308291409346980139,-0.37229836,-8.86932,-0.6997054,-0.7564742,-9.648513,-1.58252061409346980155,-1.0001777,-9.546281,-0.75836337,-0.7065955,-9.661079,-1.5279631409346980156,-1.1833342,-10.259154,-0.7493851,-0.72631025,-9.668228,-1.47249251409346980172,-1.0342951,-10.696694,-0.66259533,-0.7567668,-9.67347,-1.42187291409346980173,-1.0342951,-10.928333,-0.56084174,-0.77611005,-9.680034,-1.36564821409346980187,-1.1887212,-11.149199,-0.4854244,-0.7994541,-9.686668,-1.30373491409346980192,-1.3808558,-11.288661,-0.54288524,-0.82897156,-9.692251,-1.2423571409346980206,-1.5891514,-11.332953,-0.5770026,-0.8648685,-9.695265,-1.19340731409346980219,-1.7896658,-11.62744,-0.5446809,-0.91276896,-9.695513,-1.1550971409346980224,-2.1452048,-12.231378,-0.3878607,-0.9721233,-9.694389,-1.11544551409346980235,-2.5923219,-12.707824,-0.22864626,-1.0522255,-9.692472,-1.05792831409346980258,-2.818574,-12.754511,0.0688333,-1.1594385,-9.687013,-0.99389561409346980259,-2.9520507,-12.640786,0.3705027,-1.2774228,-9.680101,-0.91333491409346980281,-2.943671,-12.518084,0.6913257,-1.4031603,-9.671303,-0.816976251409346980282,-3.402759,-13.117232,3.4051533,-1.5213407,-9.662141,-0.70636731409346980288,-4.724957,-14.1904335,10.320805,-1.6570991,-9.658507,-0.37098531409346980294,-6.8462195,-15.462353,13.706206,-1.856233,-9.616809,0.49168831409346980314,-7.690176,-15.307328,9.531317,-2.1393042,-9.459457,1.45342471409346980315,-7.363966,-13.323133,-0.6925228,-2.4214375,-9.303395,1.93749571409346980326,-5.0918684,-12.180501,-2.8341362,-2.7327328,-9.260328,1.71723471409346980340,-5.271434,-13.769652,-0.075417355,-2.885751,-9.257941,1.46060531409346980362,-5.7520695,-15.06312,2.971803,-2.946783,-9.247577,1.40327311409346980364,-5.723339,-17.06587,7.141305,-3.000609,-9.2277565,1.4195911409346980365,-5.497087,-17.624916,11.230601,-2.9407074,-9.176798,1.81906681409346980372,-2.6617537,-16.63671,1.1683705,-2.918237,-9.064042,2.34466031409346980400,-1.1121067,-12.710218,-0.6775591,-2.8093455,-9.13939,2.17934321409346980401,-1.376666,-12.216414,-0.26755205,-2.7037375,-9.202233,2.04428121409346980404,-2.3127987,-12.208633,-2.8712463,-2.6293433,-9.249009,1.92684971409346980422,-2.4133554,-11.620856,-7.2370734,-2.585055,-9.321075,1.61414031409346980423,-1.7890673,-10.149619,-8.504205,-2.5527956,-9.414853,1.00704231409346980438,-1.1988965,-10.469246,-7.712322,-2.5292873,-9.469302,0.32465091409346980458,-1.2270284,-12.039244,-6.777985,-2.4611995,-9.488466,-0.28614991409346980458,-0.78529817,-14.274829,-5.7640405,-2.3607044,-9.488949,-0.74652181409346980474,0.60094464,-17.925388,-4.7177744,-2.200255,-9.496266,-1.07247381409346980474,3.4919431,-19.608511,-0.9780314,-1.9185739,-9.535813,-1.24810221409346980489,8.822633,-19.608511,4.210802,-1.4772561,-9.628998,-1.12716661409346980492,7.7769656,-19.322405,5.100847,-0.73323774,-9.75443,-0.695622151409346980508,3.709217,-14.896125,-0.25797522,-0.1269754,-9.802356,-0.260935841409346980512,1.1300632,-13.028647,-5.819107,0.1887845,-9.802059,-0.233198521409346980524,0.6979098,-11.453861,-8.020576,0.31890288,-9.784722,-0.57263111409346980535,0.62728083,-9.114726,-7.4322004,0.37142888,-9.74439,-1.03889441409346980555,0.92775315,-8.083424,-4.0456023,0.37901658,-9.685959,-1.48624281409346980555,1.8501194,-7.751827,-2.1972785,0.3840604,-9.64932,-1.70691421409346980573,2.4678235,-7.380127,-3.265691,0.44983256,-9.630977,-1.79229121409346980573,1.371279,-6.9491706,-5.4432178,0.5916066,-9.596225,-1.93205881409346980588,0.7326257,-5.7263317,-5.6060233,0.67312956,-9.530294,-2.2115141409346980602,0.557849,-5.2744265,-6.6534867,0.7198042,-9.44855,-2.52531651409346980604,1.8249803,-5.1529207,-4.3640313,0.7375199,-9.323623,-2.9489861409346980620,2.071583,-5.048773,-2.4558525,0.8638217,-9.233374,-3.18888781409346980637,1.4742297,-5.277419,-2.5677812,0.991476,-9.1945,-3.2632071409346980637,1.0600328,-5.3899465,-2.670732,1.0306013,-9.158651,-3.3507281409346980652,1.3120226,-5.04159,-2.195483,1.0325357,-9.12693,-3.43560741409346980653,2.007538,-4.38498,-1.3000516,1.0909023,-9.107152,-3.46988151409346980671,2.9951463,-3.6750996,-1.3515269,1.2460835,-9.100222,-3.4356481409346980672,3.90614,-2.9813797,-2.2152352,1.5330031,-9.057778,-3.43175391409346980686,4.4681787,-2.2888567,-2.813187,1.9411303,-8.93889,-3.53534751409346980703,4.815338,-1.988983,-3.0753522,2.4283617,-8.738397,-3.7301271409346980704,5.3265004,-1.7615339,-3.0921116,2.9649186,-8.474979,-3.94390731409346980726,5.675455,-1.5155296,-3.5224693,3.5511441,-8.150197,-4.13933041409346980727,5.5288105,-1.471237,-3.9905357,4.140529,-7.7437553,-4.3658521409346980732,5.4527946,-1.6490064,-3.9618053,4.649582,-7.294883,-4.6191421409346980757,5.6185927,-2.4372973,-3.3423057,5.0923305,-6.856839,-4.81895641409346980757,5.509058,-4.5238442,-1.2761095,5.4804893,-6.512562,-4.8704361409346980784,4.6818614,-8.38629,4.5358152,5.7619143,-6.4898214,-4.56650971409346980784,-1.6382325,-16.247652,15.728708,5.89278,-7.039713,-3.44789121409346980785,-13.300987,-19.608511,16.95454,6.000332,-6.871014,-3.59938651409346980816,-19.600132,-19.608511,18.917187,6.101364,-6.7047086,-3.7403991409346980816,-19.562424,-19.608511,17.18977,6.121274,-6.5981297,-3.8942341409346980817,-12.820352,-16.495451,7.2831616,6.006005,-6.5480065,-4.1499291409346980850,-6.4541693,-8.045116,4.8722005,5.8631563,-6.5456886,-4.35290581409346980850,-3.3614593,-8.668207,3.301604,-3.2777934,-8.421831,3.80778431409346980851,-0.7751228,-8.765172,1.5173253,-3.3062148,-8.436267,3.75082871409346980852,0.6811504,-8.696339,0.20530279,-3.1067474,-8.5636835,3.63068061409346980867,3.4201171,-10.8152075,-0.076015905,-2.792727,-8.741936,3.45682221409346980872,5.4761376,-15.292963,-2.3529017,-2.1847613,-9.003612,3.21437071409346980886,4.51307,-15.714343,-4.208408,-1.3894296,-9.337586,2.6550611409346980902,2.0799627,-12.975975,-3.5476084,-0.80658907,-9.570372,1.98186431409346980904,0.3657143,-11.218631,-1.7872716,-0.52147627,-9.677892,1.49561821409346980918,-0.23403321,-12.7970085,-1.0253168,-0.43343934,-9.7221775,1.20903981409346980934,1.7435774,-13.645753,-2.7407625,-0.38645667,-9.748993,0.98902011409346980934,3.0005333,-12.950835,-2.866458,-0.18812545,-9.784892,0.625210171409346980952,2.7455509,-12.710218,-1.0708067,0.07844488,-9.801379,0.311818481409346980953,3.4650085,-10.169372,-0.2765303,0.28820378,-9.800677,0.184531521409346980971,5.2744265,-7.1963716,0.61291564,0.5547306,-9.790398,0.1036892161409346980972,6.130952,-6.510433,0.60453594,0.96435213,-9.758457,0.1136491751409346980986,5.3103395,-7.4693108,-0.56443304,1.4433725,-9.698506,0.161365171409346981000,4.24492,-8.316858,-2.0859482,1.8212098,-9.635475,0.105796711409346981005,3.4039562,-7.941567,-2.6473885,2.1008482,-9.578575,-0.08800271409346981024,2.8939912,-7.0712748,-2.6276364,2.2971146,-9.528704,-0.31219081409346981026,2.6503813,-6.5762734,-2.1709423,2.432544,-9.485764,-0.52285691409346981033,2.5953147,-6.7725983,-1.62686,2.5317435,-9.448924,-0.69173111409346981055,2.493561,-7.3484035,-1.3108255,2.6134946,-9.417366,-0.80825061409346981056,2.1823149,-8.434174,-1.270124,2.6752336,-9.39325,-0.88338591409346981070,1.6597804,-9.957485,-1.7369933,2.6684742,-9.389488,-0.941896861409346981073,1.0630256,-11.413758,-2.2373815,2.5866675,-9.404871,-1.01386581409346981088,0.33159694,-12.3594675,-2.5528176,2.414646,-9.438694,-1.11844671409346981105,-0.46627077,-12.85387,-2.5151088,2.1648726,-9.485528,-1.22819711409346981108,-0.9708488,-12.134413,-2.195483,1.8508196,-9.540759,-1.31101451409346981122,-0.9900024,-10.350134,-1.7675194,1.5287589,-9.591602,-1.35441971409346981138,-0.7870938,-9.018958,-1.6747441,1.2522359,-9.630244,-1.36408011409346981138,-0.35314476,-8.835203,-1.8261774,1.0449054,-9.651293,-1.3896471409346981152,-0.10295067,-9.039907,-1.946486,0.8955498,-9.662155,-1.41815691409346981153,0.16639702,-9.387665,-1.8872294,0.7908502,-9.66297,-1.47375561409346981168,-1.0097545,-9.312846,-5.7263317,0.7400655,-9.65754,-1.53448081409346981173,-7.9810715,-11.64839,-9.67856,0.5767986,-9.591018,-1.96215181409346981185,-7.669825,-11.566987,-4.919486,-0.24965954,-9.444047,-2.63021831409346981198,-6.0956373,-10.474632,-3.1310172,-0.92322314,-9.341395,-2.83837871409346981204,-4.5801077,-9.843162,-3.2136173,-1.4030557,-9.257242,-2.91638421409346981217,-2.6090813,-9.19134,-1.9057846,-1.679591,-9.197942,-2.95757631409346981239,-1.6298528,-9.15423,-0.6206968,-1.794602,-9.196272,-2.89454361409346981249,-1.5251064,-9.961675,0.07062895,-1.7863387,-9.246183,-2.73633051409346981250,-1.8614918,-10.907384,0.08200141,-1.7360332,-9.320794,-2.50586581409346981254,-2.2439656,-11.637616,-0.16220717,-1.6993624,-9.388251,-2.26788191409346981277,-2.355296,-11.849503,-0.025737667,-1.7031971,-9.435071,-2.06129461409346981277,-1.7471687,-10.777499,-0.007781155,-1.7327948,-9.469601,-1.8693491409346981286,-1.3575124,-10.726024,0.31603462,-1.7367893,-9.49874,-1.71111131409346981301,-1.1025299,-11.428123,0.6655881,-1.6999372,-9.534126,-1.54307171409346981305,-0.94570965,-12.665327,2.4378958,-1.6400784,-9.573673,-1.35104911409346981317,-0.23822308,-13.337499,6.6870055,-1.5476736,-9.63053,-1.01388041409346981334,0.8738836,-12.750321,8.109161,-1.3900571,-9.701543,-0.34379211409346981335,1.520318,-12.130223,8.107366,-1.164984,-9.731234,0.340986761409346981352,1.9919758,-11.959636,15.28997,-0.9418524,-9.720708,0.889472541409346981353,0.076614454,-13.172897,15.61618,-0.73965824,-9.584344,1.940021409346981376,-2.8161798,-12.58153,0.6356605,-0.75311893,-9.353662,2.84819561409346981376,-4.3807907,-10.881048,-5.2768207,-0.90180135,-9.397737,2.65324431409346981384,-4.9398365,-10.085575,-6.657676,-1.1610225,-9.479211,2.2286691409346981403,-5.9801173,-11.886613,-6.811504,-1.4446328,-9.547417,1.71180071409346981415,-6.303933,-13.727156,-6.129156,-1.7419305,-9.594441,1.04055151409346981416,-5.0667295,-14.08449,-4.7722425,-1.9972742,-9.592302,0.411116841409346981432,-5.2127757,-13.86542,-4.4807487,-2.146638,-9.568769,-0.0317948941409346981433,-5.0463786,-13.2429285,-3.132813,-2.3139782,-9.523277,-0.35081571409346981453,-4.2778397,-13.504495,-0.7751228,-2.462788,-9.474858,-0.57629091409346981454,-4.6166196,-14.176068,3.894169,-2.5178301,-9.457805,-0.61711981409346981475,-4.6160207,-15.941194,13.09329,-2.5684652,-9.459288,-0.308648821409346981476,-3.169923,-17.519571,13.992313,-2.5768213,-9.438148,0.67213181409346981485,-1.8872294,-17.140688,6.681618,-2.5918713,-9.434627,0.66362681409346981512,-1.555034,-15.738285,1.6879122,-2.3396585,-9.327733,1.92087841409346981513,-1.0169371,-13.682862,-0.533907,-2.273769,-9.340085,1.93988441409346981514,-0.6410475,-12.665327,0.035314474,-2.1783164,-9.39537,1.77548911409346981539,-0.86729956,-11.86686,-1.7232267,-2.063066,-9.436853,1.69113081409346981540,-0.62967503,-11.156382,-5.04997,-1.9658705,-9.497297,1.45157921409346981547,-0.5105635,-10.4488945,-6.872556,-1.8710308,-9.576374,0.981165951409346981553,-0.04369418,-10.824186,-6.5625067,-1.7954695,-9.632704,0.397122681409346981576,0.24361002,-11.834539,-5.916671,-1.6844012,-9.660008,-0.13192161409346981577,0.87927055,-13.32912,-5.1355624,-1.5496676,-9.667654,-0.55262841409346981587,1.5933412,-17.391481,-3.9947255,-1.3675535,-9.67329,-0.853039441409346981610,3.5996823,-19.608511,1.4425066,-1.1184208,-9.690052,-1.01115641409346981611,6.879739,-19.608511,7.435792,-0.75125957,-9.748956,-0.750878751409346981613,7.996035,-19.309835,4.3754034,-1.0171964,-9.739619,-0.52492231409346981643,5.058948,-14.469956,-1.7687165,0.3416139,-9.798589,0.203353271409346981644,2.5899277,-11.9297085,-5.9268465,0.6605685,-9.783808,0.105558371409346981647,0.2693477,-11.289858,-8.752603,0.81626844,-9.76908,-0.263005761409346981653,0.07062895,-10.33098,-7.3537903,0.7930592,-9.739447,-0.82742291409346981692,0.8343793,-9.263765,-4.505289,0.7427885,-9.695113,-1.27413761409346981693,1.2731167,-9.073426,-4.541202,0.7205767,-9.658635,-1.53685591409346981695,1.697489,-8.531139,-4.3520603,0.7290295,-9.615998,-1.78086051409346981696,1.359308,-7.1844006,-2.8335378,0.788046,-9.57115,-1.98556751409346981726,1.2689269,-5.331289,-4.308366,0.84376585,-9.542429,-2.09773141409346981727,2.2918496,-4.8895583,-5.3342814,0.91288465,-9.481039,-2.3338681409346981727,1.8854338,-4.845266,-3.8552632,1.0848271,-9.386611,-2.62394331409346981734,1.7351977,-4.5016975,-0.93732995,1.2063006,-9.316314,-2.81452321409346981758,1.376666,-4.0144777,-0.5722142,1.2836481,-9.312685,-2.7922261409346981759,1.8537107,-3.0131028,-0.8571242,1.3573402,-9.31209,-2.7591691409346981767,2.3971944,-2.3540988,-1.4209588,1.477672,-9.284859,-2.78895571409346981796,2.7844565,-1.9428947,-2.8125885,1.6919209,-9.219077,-2.88382051409346981797,3.41892,-1.5735891,-3.6152446,1.9779067,-9.079444,-3.1340061409346981797,4.3101616,-1.4389153,-4.171298,2.3519235,-8.863256,-3.4758561409346981805,5.222951,-1.352724,-4.288614,2.8334413,-8.555547,-3.86582611409346981823,6.161478,-1.0660183,-3.9815574,3.4053857,-8.168264,-4.2253081409346981827,6.439804,-1.0378864,-4.2634745,4.072598,-7.6955543,-4.51251361409346981833,6.3823433,-1.2366052,-4.350863,4.700342,-7.160177,-4.7758821409346981858,6.1219735,-1.9835961,-3.7122097,5.227798,-6.6282096,-4.990731409346981859,5.4204726,-3.3854012,-2.4115596,5.6449895,-6.218678,-5.06285761409346981865,4.3263226,-6.1507044,0.76434886,5.918245,-6.0602517,-4.94146871409346981902,0.5793968,-12.328343,13.2429285,6.0264454,-6.36776,-4.3936321409346981903,-13.5775175,-19.587563,19.597738,5.6554475,-7.7454414,-2.04804091409346981904,-19.592352,-19.608511,17.688961,5.7541065,-7.6106715,-2.26679281409346981928,-19.60911,-19.608511,18.223467,5.853328,-7.475473,-2.45483181409346981929,-16.344616,-18.166006,8.771756,5.86526,-7.42113,-2.58765031409346981930,-6.968324,-7.9104424,3.6170402,5.7329054,-7.447489,-2.79984121409346981934,-7.429208,-5.047576,5.2486887,-3.4742591,-8.359562,3.77062681409346981958,-4.197634,-4.572925,4.144962,-3.9488358,-8.123536,3.81906181409346981958,0.022146367,-5.650316,0.24600422,-4.069922,-8.019641,3.91043421409346981965,3.4931402,-10.679935,-3.5817258,-3.841434,-8.18749,3.79193641409346981984,7.69257,-18.986618,-5.6245785,-3.1946006,-8.681344,3.25563761409346981985,7.5549035,-19.608511,-4.059369,-1.9451319,-9.315922,2.3665291409346982008,3.3596635,-15.78557,-0.23223756,-0.8960586,-9.619711,1.68184731409346982009,-0.64823014,-11.397597,3.779846,-0.43443334,-9.685454,1.47432021409346982014,-1.9099745,-10.8624935,3.6481647,-0.42496175,-9.653998,1.67036081409346982046,0.8415619,-8.918402,-2.0009542,-0.5638968,-9.623418,1.80062391409346982047,3.064578,-7.1993647,-2.9119477,-0.4876973,-9.685576,1.45676451409346982048,3.7720647,-7.1861963,-1.8968062,-0.20665713,-9.743272,1.09377711409346982055,3.9761705,-7.0371575,-0.6865373,0.14685002,-9.767614,0.861707871409346982082,4.8374844,-6.215348,-0.15682021,0.52803516,-9.765473,0.726017531409346982083,5.4264584,-6.6564794,-0.830788,0.9922774,-9.735615,0.63527831409346982086,5.08708,-7.7799582,-2.540248,1.4797993,-9.680366,0.520671961409346982107,4.2161894,-8.525154,-3.620033,1.901619,-9.617317,0.247892231409346982107,3.3291376,-8.4347725,-3.5805287,2.2009315,-9.55558,-0.131012111409346982113,2.7820623,-8.03554,-3.1118636,2.3671205,-9.504531,-0.4806431409346982133,2.7287915,-8.016386,-2.493561,2.4729526,-9.45862,-0.767731551409346982133,2.8909986,-8.486847,-2.0859482,2.54882,-9.418613,-0.981646361409346982149,2.9400797,-9.394249,-1.8046296,2.6195085,-9.381464,-1.13872411409346982153,2.2942438,-10.906786,-2.0201077,2.6771882,-9.352651,-1.2373371409346982168,0.5141548,-14.946403,-2.3864205,2.6378787,-9.351995,-1.32369721409346982181,-0.85173726,-16.714521,-2.4905684,2.3448482,-9.421503,-1.3810751409346982187,-1.3192052,-15.762825,-2.1266496,1.9380642,-9.509876,-1.40590491409346982200,-1.0618285,-12.823943,-1.5221137,1.5676465,-9.578516,-1.40174871409346982213,-1.0121487,-10.322002,-1.0378864,1.290292,-9.627537,-1.34761181409346982214,-1.3275849,-9.255983,-0.9331401,1.0464132,-9.666813,-1.27598381409346982237,-1.8267759,-9.096769,-1.3976152,0.8070915,-9.697117,-1.21856531409346982238,-2.0799627,-8.525752,-2.343325,0.56025136,-9.7139845,-1.22269761409346982247,-1.851915,-7.7159133,-2.4426842,0.3183879,-9.710258,-1.33413391409346982264,-1.6938977,-7.650073,-1.5376761,0.11505525,-9.694471,-1.47456611409346982266,-2.9167361,-8.277952,-1.5939398,-0.059254155,-9.687727,-1.52144851409346982282,-4.696825,-9.188348,-2.2110453,-0.3439099,-9.666764,-1.61424761409346982285,-4.8398786,-9.236232,-1.7142484,-0.76312727,-9.6168585,-1.76183871409346982296,-3.845088,-8.423999,-0.12449849,-1.1404461,-9.566454,-1.83105111409346982319,-3.1914709,-8.103774,0.415394,-1.4191253,-9.548686,-1.72599081409346982320,-3.0538042,-8.943541,0.83018947,-1.643051,-9.542473,-1.553061409346982333,-2.546832,-9.898827,0.8038532,-1.8161864,-9.546124,-1.32037441409346982334,-1.483208,-10.416573,-0.01436521,-1.894523,-9.558483,-1.10299231409346982351,-0.94930094,-10.858303,-0.41060558,-1.844539,-9.5795555,-1.00010411409346982365,-0.7781156,-11.54065,-0.4890157,-1.75029,-9.603549,-0.937411671409346982367,-0.7068881,-12.081141,-0.30346507,-1.629038,-9.628348,-0.900861409346982382,-0.64703304,-12.304401,-0.22505496,-1.4993964,-9.652803,-0.86347121409346982386,-0.7954735,-12.051813,-0.22804771,-1.3772035,-9.674332,-0.825222851409346982399,-0.8158242,-11.54903,-0.092176765,-1.2900151,-9.689065,-0.792636931409346982414,-0.6895301,-11.011532,0.43394905,-1.2257338,-9.700371,-0.75551651409346982414,-0.19153613,-10.511743,2.2296004,-1.1666573,-9.713703,-0.67325331409346982432,0.108936176,-10.606314,4.43466,-1.0812441,-9.736161,-0.456605171409346982434,0.06823475,-11.142614,6.695385,-0.97890323,-9.757416,-0.070693811409346982448,0.46627077,-11.213842,10.257957,-0.8870966,-9.755457,0.463176551409346982463,0.7966706,-11.526884,17.675793,-0.7775327,-9.696478,1.24262821409346982465,-1.4784195,-12.927492,13.047202,-0.67382264,-9.445578,2.54900551409346982481,-3.5673606,-12.752117,-0.6667852,-0.7768654,-9.201251,3.30209421409346982499,-5.0745106,-13.566145,-6.5684924,-1.0147789,-9.246604,3.1049851409346982499,-5.9370217,-14.647127,-9.509769,-1.2922806,-9.427681,2.3704841409346982516,-6.7444663,-14.884752,-8.987833,-1.5827284,-9.562092,1.49390731409346982517,-6.5619082,-14.181456,-4.3143516,-1.8740494,-9.605017,0.63403091409346982532,-5.9477954,-13.01488,-3.4434607,-2.1369936,-9.569362,0.176002931409346982534,-6.76781,-13.017275,-2.497751,-2.356524,-9.518168,-0.147138921409346982548,-7.2262993,-14.223952,1.496376,-2.613571,-9.4460335,-0.334807871409346982567,-7.5968018,-16.356588,14.103643,-2.8351574,-9.385263,-0.221545321409346982567,-5.0224366,-17.943344,18.392258,-2.8256993,-9.3871765,-0.25834821409346982583,-0.9935937,-16.631323,6.3272767,-2.8296852,-9.38517,-0.286165241409346982586,0.7206547,-14.426262,-1.7944542,-2.7010844,-9.16813,2.19543671409346982599,0.32022446,-13.084312,-2.9514523,-2.5097053,-9.261706,2.02300361409346982614,-1.6675615,-11.582549,-6.2746043,-2.3119547,-9.367547,1.75337181409346982615,-1.8662802,-9.929952,-6.7929487,-2.232412,-9.472007,1.21154021409346982630,-1.3335704,-9.280524,-6.766014,-2.217391,-9.53204,0.627516571409346982634,-0.48123455,-9.998186,-6.051345,-2.19222,-9.558259,0.065207041409346982647,-0.16460137,-11.193492,-5.337274,-2.085762,-9.574608,-0.38325061409346982684,0.27952304,-14.05995,-5.088876,-1.9509388,-9.58195,-0.74193451409346982684,1.4610616,-19.034502,-4.572925,-1.7600933,-9.594294,-1.010931409346982685,3.8205473,-19.608511,-0.22325931,-1.4526863,-9.62868,-1.16129111409346982698,7.2149267,-19.608511,3.7846344,-1.0151949,-9.704336,-0.982662141409346982699,6.4362125,-16.774975,2.034473,-0.39559302,-9.782497,-0.562723041409346982716,4.3502645,-12.874221,-0.8038532,0.102011636,-9.799728,-0.353981941409346982717,2.9113493,-12.045827,-3.5823243,0.43700698,-9.789711,-0.375436961409346982731,2.2373815,-10.714651,-6.3344593,0.61802083,-9.768742,-0.60008261409346982734,2.6270378,-9.299079,-5.6682725,0.7583847,-9.727732,-0.98309191409346982748,3.851672,-8.22528,-3.2279825,0.88972795,-9.679315,-1.29984551409346982762,4.6112323,-7.563283,-2.1284454,1.0807675,-9.63958,-1.4425171409346982765,4.7961845,-6.7749925,-2.0847511,1.3258903,-9.596809,-1.52106541409346982780,2.80361,-6.142923,-3.6284127,1.6110777,-9.539719,-1.60268451409346982798,1.5628152,-5.5964465,-5.242703,1.7634175,-9.475278,-1.81103731409346982799,1.4490906,-4.984728,-6.6109896,1.8026135,-9.395315,-2.15616561409346982812,1.3227965,-4.7429137,-4.84347,1.83835,-9.268034,-2.62571621409346982814,0.75596917,-4.8099513,-2.915539,1.8595018,-9.16989,-2.93696761409346982829,0.20111294,-4.956596,-1.809418,1.8403409,-9.131824,-3.06485411409346982834,-0.5327099,-5.2277393,-1.6849195,1.7431457,-9.137751,-3.10375981409346982848,-0.26874915,-4.993108,-1.3138182,1.5494047,-9.1644945,-3.1275891409346982863,1.4317327,-3.7379475,-0.92057055,1.4016099,-9.194457,-3.10931351409346982866,2.695871,-2.9293058,-1.5263035,1.4885832,-9.19146,-3.07758781409346982880,3.603872,-2.4343045,-2.4049757,1.7563822,-9.121575,-3.14362961409346982894,4.344279,-2.0027497,-1.9901801,2.1522284,-8.973313,-3.3193351409346982897,4.7219644,-1.8782512,-2.4600422,2.6723256,-8.788113,-3.43484831409346982918,4.924873,-2.3145945,-3.3626564,3.2224913,-8.531295,-3.60595581409346982919,4.530428,-3.357868,-3.5889084,3.724084,-8.209216,-3.86139371409346982927,3.5392287,-4.608838,-2.2655134,4.076051,-7.935073,-4.0731881409346982934,2.1057005,-6.279991,-0.23822308,4.239509,-7.8550725,-4.0613751409346982953,0.12928689,-8.276755,2.1092918,4.16018,-8.05581,-3.7372741409346982954,-2.9107506,-11.009736,7.3202715,3.7785,-8.509216,-3.0800261409346982968,-9.198523,-17.236456,15.7987385,2.9241378,-9.211979,-1.66110481409346982994,-14.681844,-19.608511,15.727511,2.935164,-9.170569,-1.85899071409346982995,-16.048334,-19.608511,13.406332,2.9239101,-9.134077,-2.04690051409346982997,-13.734338,-19.35293,10.852318,2.8788905,-9.112293,-2.20193081409346983037,-8.585608,-14.681844,5.683835,2.827572,-9.101654,-2.30979561409346983038,-6.6415157,-11.814787,4.4520183,-3.2220507,-8.687394,3.2121581409346983039,-4.791396,-10.427945,5.016451,-3.416074,-8.625405,3.17855531409346983041,-1.7345991,-8.756793,4.5124717,-3.4613376,-8.582681,3.24454781409346983047,0.8074445,-7.9984293,1.2946646,-3.3121202,-8.592275,3.3723981409346983071,5.9567738,-16.576855,-1.4293385,-2.9868596,-8.720999,3.34563061409346983072,6.7402763,-19.608511,-3.104681,-2.0980232,-9.123194,2.92164921409346983076,4.631583,-19.18354,-4.219182,-1.2470906,-9.447514,2.31509111409346983116,0.64703304,-15.677832,-0.8870517,-0.70557344,-9.630694,1.7094711409346983117,-1.2096704,-13.786412,7.2167225,-0.5640312,-9.680326,1.46408261409346983120,2.7299886,-10.055647,1.6250644,-0.5611676,-9.613749,1.85238421409346983121,4.245518,-7.080253,-2.9975405,-0.31762686,-9.637521,1.78540981409346983142,4.3047748,-5.940613,-2.7090392,-1.27E-04,-9.703592,1.41798881409346983144,4.2754455,-6.2380924,-1.5855601,0.3153814,-9.732472,1.16185741409346983148,5.0745106,-5.8262897,-0.19572599,0.6554235,-9.734425,0.990851409346983171,5.5282116,-5.7424927,0.23582886,1.0895011,-9.704619,0.89652651409346983172,4.969764,-6.4416,-0.7392098,1.5532191,-9.645602,0.848686641409346983178,3.9510314,-7.2664022,-1.9201498,1.9356797,-9.5861635,0.72731391409346983212,3.3135753,-7.475296,-2.834735,2.2001104,-9.543842,0.494983971409346983213,3.1358056,-7.510012,-3.056797,2.3902895,-9.509083,0.185031281409346983213,3.108871,-7.976283,-2.7485435,2.5396032,-9.471193,-0.131406371409346983215,3.0747535,-8.762179,-2.3786395,2.651267,-9.433096,-0.397329061409346983231,2.6725276,-10.201694,-2.1942859,2.7299569,-9.399446,-0.60673841409346983247,1.8626889,-11.662156,-2.36188,2.7327516,-9.386116,-0.776703951409346983248,0.5734113,-13.631986,-2.742558,2.6116276,-9.406095,-0.935513561409346983262,-1.0893618,-15.899894,-3.0142999,2.3642712,-9.4555235,-1.08336951409346983293,-2.0326772,-15.98369,-2.8407204,1.9567794,-9.532911,-1.21038561409346983296,-1.8249803,-13.516466,-2.273893,1.517925,-9.603475,-1.28044661409346983298,-1.5735891,-11.131242,-1.8010383,1.1567267,-9.652314,-1.29042391409346983299,-1.7663223,-9.7563715,-1.8890251,0.85834146,-9.686245,-1.26899181409346983326,-2.2068555,-9.056666,-2.846706,0.58847296,-9.704916,-1.28011171409346983327,-2.5713725,-8.509591,-4.2024226,0.322543,-9.700999,-1.39891351409346983329,-2.4103625,-8.158242,-4.2957964,0.045213062,-9.667515,-1.64544871409346983359,-2.677316,-7.8104844,-3.5972881,-0.19241905,-9.612906,-1.93012381409346983360,-3.4560301,-8.136096,-2.593519,-0.4329019,-9.547105,-2.1990361409346983361,-5.192425,-8.890269,-1.5197195,-0.7014482,-9.48998,-2.37036921409346983368,-5.3528366,-8.853159,-0.5255273,-1.0994612,-9.449493,-2.38089321409346983397,-4.791396,-8.356362,-0.034117375,-1.497335,-9.424846,-2.25846481409346983398,-4.0737343,-8.482059,0.6733692,-1.8416414,-9.406389,-2.0733031409346983399,-3.4111388,-9.312247,0.43993455,-2.085225,-9.406832,-1.82586091409346983436,-2.3971944,-9.828198,-0.6560113,-2.2370768,-9.414846,-1.58951181409346983437,-1.3587095,-10.022727,-0.7667431,-2.261634,-9.426602,-1.48141831409346983439,-0.7380127,-10.646417,-0.4141969,-2.1770198,-9.457085,-1.41227591409346983441,-0.7386112,-11.508329,-0.6075287,-2.0199811,-9.503401,-1.33246541409346983450,-1.1133038,-12.238561,-0.56084174,-1.8561049,-9.544318,-1.27720841409346983479,-1.4454993,-12.554595,-0.013766659,-1.733327,-9.575005,-1.21869741409346983481,-1.6543933,-12.385804,1.0079589,-1.6574311,-9.600614,-1.11872451409346983482,-1.4466964,-12.127829,2.778471,-1.619223,-9.627182,-0.930522741409346983498,-0.7092823,-11.77648,4.429273,-1.5785484,-9.658603,-0.62448631409346983499,-0.5177461,-11.431715,4.831499,-1.4962037,-9.689238,-0.22463821409346983510,-0.8098387,-10.8864355,4.9853263,-1.4245338,-9.70184,0.124031311409346983515,-0.59136784,-10.012551,5.2606597,-1.3904284,-9.698033,0.43040031409346983532,0.12090719,-9.522937,6.969521,-1.3348905,-9.683647,0.784488441409346983550,1.2623428,-9.795278,12.318168,-1.2221014,-9.638939,1.32955671409346983551,0.24600422,-11.168352,6.8707604,-1.040853,-9.481474,2.27786351409346983555,-3.168726,-12.516288,-2.3259668,-0.9207444,-9.38868,2.6786721409346983583,-5.3743844,-13.848661,-7.2753806,-1.0692894,-9.476219,2.28654461409346983584,-5.8771667,-14.566323,-8.121731,-1.3467606,-9.589761,1.54697111409346983587,-5.3085437,-13.801375,-6.994062,-1.617658,-9.6399765,0.79021021409346983597,-4.863222,-13.02745,-3.6661212,-1.8411314,-9.630922,0.161058551409346983620,-5.251083,-13.278841,-2.782661,-2.0389993,-9.591014,-0.159189861409346983621,-5.9041014,-13.54759,-2.0410569,-2.2308514,-9.542227,-0.373602331409346983629,-6.1596823,-15.042769,0.05207389,-2.432935,-9.488198,-0.474689661409346983653,-5.8149176,-16.864159,5.3247046,-2.5837903,-9.449482,-0.44912471409346983655,-4.301782,-18.526932,14.604032,-2.6555753,-9.440084,-0.0556443861409346983656,-2.755726,-18.16002,12.103887,-2.6434464,-9.443128,-0.0997572841409346983694,-1.9422961,-15.541961,5.4521956,-2.452851,-9.347798,1.66510681409346983695,-0.79128367,-12.977172,2.6180596,-2.372398,-9.314092,1.94674931409346983696,-1.0534488,-12.145785,-0.16579847,-2.2910461,-9.308476,2.067311409346983697,-1.8872294,-12.05301,-2.6270378,-2.2218335,-9.352908,1.93828481409346983714,-1.7908629,-11.574768,-4.4322658,-2.1775742,-9.417827,1.65320361409346983715,-1.0989386,-9.76535,-5.8999114,-2.1313953,-9.494667,1.21606951409346983733,-0.7146692,-9.543886,-6.3326635,-2.0833142,-9.558976,0.675385831409346983735,-0.59855044,-10.661979,-5.6323595,-2.0181246,-9.595813,0.133994821409346983749,-0.23882163,-12.0170965,-5.071518,-1.9207215,-9.612205,-0.294543651409346983764,0.4189853,-15.152304,-3.8241386,-1.7880905,-9.622177,-0.621938171409346983779,1.9692309,-19.239805,-0.3752911,-1.5901816,-9.643572,-0.802033661409346983780,4.577115,-19.608511,3.4596214,-1.2654749,-9.700329,-0.687436941409346983797,6.996456,-19.608511,3.9983168,-0.802254,-9.767881,-0.339520571409346983798,6.137536,-17.081432,0.8110358,-0.24442953,-9.803597,-0.0094192781409346983809,3.5613751,-12.318767,-3.1872811,0.18792029,-9.804599,0.070016881409346983815,1.721431,-10.700286,-5.9681463,0.438603,-9.796215,-0.110186471409346983829,-0.12988544,-9.7084875,-8.407838,0.55811787,-9.779166,-0.47624611409346983845,-0.7715315,-8.69993,-7.2328835,0.5259958,-9.73855,-1.02681391409346983847,-0.54527944,-8.634688,-4.8344917,0.42967826,-9.684454,-1.48225281409346983859,0.415394,-9.095572,-4.7698483,0.34736413,-9.638514,-1.7744741409346983875,1.5586253,-8.052299,-3.4272997,0.32337067,-9.587274,-2.03715521409346983876,1.4371196,-6.1782374,-2.665345,0.4048384,-9.551158,-2.18675161409346983893,1.0486604,-5.46297,-5.8358665,0.5092875,-9.520986,-2.29387351409346983896,1.6250644,-5.2049947,-6.7773867,0.59627956,-9.425375,-2.64142821409346983919,2.1428106,-4.96737,-3.1142578,0.72517717,-9.2884865,-3.06080561409346983920,1.3455414,-5.0026846,-0.6051345,0.86622226,-9.230634,-3.1961611409346983929,1.0295067,-4.5202527,-0.130484,0.89204353,-9.254323,-3.1196361409346983953,1.644218,-3.7786489,-2.2439656,0.93781483,-9.285393,-3.01203731409346983954,2.6497827,-2.6539726,-3.352481,1.0474685,-9.235708,-3.12648081409346983955,3.2291796,-2.2900538,-3.0747535,1.3098454,-9.11277,-3.37818481409346983993,4.259285,-2.0231004,-2.3600843,1.6624537,-8.966413,-3.60694671409346983994,5.0308166,-1.8327614,-2.3906105,2.1544082,-8.797218,-3.76003361409346983994,5.9489927,-1.316811,-3.3560722,2.7414296,-8.564793,-3.91143061409346983996,6.8025255,-0.700304,-4.5525746,3.4292257,-8.1925335,-4.15850971409346984013,6.8563952,-0.7846996,-5.08708,4.1696873,-7.6402197,-4.51786571409346984031,6.522404,-1.6986861,-4.2730513,4.8113356,-7.0226765,-4.8686221409346984032,5.704784,-3.2273839,-2.9897594,5.32044,-6.5301394,-5.0220131409346984035,4.9416323,-5.7562594,-0.7835025,5.6438923,-6.289354,-4.97603851409346984065,1.7393875,-11.197681,8.668207,5.798876,-6.423038,-4.6138931409346984066,-11.166556,-19.32061,19.608511,5.581333,-7.4923253,-2.98063041409346984068,-19.592949,-19.608511,19.266142,5.6807404,-7.3194423,-3.21330861409346984076,-19.60911,-19.608511,16.630724,5.773591,-7.1364665,-3.45063331409346984099,-16.907852,-18.701708,7.2502413,5.819313,-7.0181856,-3.61262461409346984100,-10.345944,-10.727819,4.721366,5.7412677,-6.987846,-3.79186531409346984109,-7.994838,-6.482301,6.289568,-3.5567203,-8.51356,3.32256361409346984133,-3.3117795,-4.665102,3.441665,-4.0411806,-8.250547,3.43041131409346984134,0.1945289,-5.109825,-1.1025299,-4.1013865,-8.175003,3.53812311409346984135,2.8149827,-8.009802,-3.071761,-3.8680313,-8.345127,3.40111471409346984148,5.1223946,-15.131953,-3.9683893,-3.3147388,-8.729999,2.99500161409346984163,6.3871317,-19.594746,-3.3207579,-2.382326,-9.229541,2.30444881409346984179,4.228759,-18.208502,-1.4251486,-1.3764795,-9.569951,1.64064721409346984180,0.908001,-12.980165,1.9351135,-0.7571128,-9.6902275,1.30256261409346984195,-1.3383588,-11.638813,5.2804117,-0.55737203,-9.697111,1.35121641409346984196,2.0039468,-10.023325,0.260968,-0.6026514,-9.647634,1.65238521409346984212,4.1078515,-8.416218,-3.442862,-0.40500703,-9.682649,1.50088671409346984233,4.437653,-8.66282,-3.3452983,-0.04708441,-9.746149,1.08662931409346984234,4.1216183,-8.875904,-1.7417817,0.34337446,-9.774194,0.71944271409346984237,4.1282024,-7.7213006,-0.6015432,0.6915157,-9.768054,0.526612761409346984258,4.672883,-7.331644,-0.80564886,1.0388026,-9.743107,0.403941151409346984259,4.4657845,-8.236053,-1.9668367,1.4189751,-9.699762,0.26741471409346984277,3.5272577,-9.020155,-2.9604304,1.7459341,-9.649794,0.0597775951409346984278,2.9233203,-9.330803,-3.6014779,1.9624469,-9.605719,-0.222182621409346984293,2.7910407,-9.315839,-3.5703533,2.0966938,-9.564074,-0.55021451409346984296,2.9712043,-9.069236,-2.8640637,2.18608,-9.521981,-0.85050161409346984308,3.0992942,-9.198523,-2.1200657,2.2742212,-9.480338,-1.0590181409346984324,2.7497406,-9.78989,-1.6741456,2.3654883,-9.443772,-1.17898881409346984327,2.1338322,-10.546458,-1.4059949,2.412469,-9.422994,-1.24804781409346984341,1.6166847,-11.61547,-1.287482,2.3933103,-9.424975,-1.26976741409346984359,1.2360066,-12.861651,-1.4748282,2.3035774,-9.449599,-1.25259651409346984360,0.770933,-13.730148,-1.751957,2.1548896,-9.487979,-1.2268181409346984377,0.33159694,-13.384186,-1.9285295,1.9577795,-9.533326,-1.2054871409346984378,-0.24779987,-12.203246,-1.958457,1.75498,-9.571472,-1.21546481409346984393,-1.5125369,-10.043676,-1.7812861,1.5401903,-9.609361,-1.20762291409346984396,-1.3868413,-9.346365,-2.2870612,1.26243,-9.648955,-1.21422271409346984411,-0.7613561,-8.520366,-3.2980127,1.0207123,-9.6685,-1.28399671409346984425,-1.0821792,-7.702147,-2.8095956,0.85000885,-9.65884,-1.46789411409346984428,-1.6819267,-7.869741,-2.528277,0.6667264,-9.645577,-1.63972531409346984440,-3.9636009,-9.00579,-3.2956185,0.45205754,-9.624471,-1.82635621409346984465,-4.150947,-8.854357,-2.961029,0.04857231,-9.585499,-2.07032631409346984466,-3.5338416,-8.149264,-1.9620483,-0.32557228,-9.547911,-2.21400121409346984469,-3.0819361,-8.07265,-1.8902222,-0.64544225,-9.516201,-2.2794221409346984476,-2.7042508,-8.58022,-2.1733365,-0.90447867,-9.489018,-2.30452681409346984491,-2.2870612,-9.32362,-1.8142064,-1.100067,-9.466634,-2.31151581409346984496,-1.9093759,-9.84795,-1.2455834,-1.2210964,-9.464596,-2.25848751409346984513,-1.7142484,-10.237606,-0.7433996,-1.2861335,-9.480016,-2.15535741409346984524,-1.5837644,-10.785878,-0.40102878,-1.3224612,-9.504952,-2.01925561409346984529,-1.4999673,-11.386225,-0.26755205,-1.3345205,-9.536392,-1.8565261409346984545,-1.520318,-11.438897,-0.23343466,-1.3245486,-9.566048,-1.70490191409346984564,-1.5945383,-11.177929,-0.05746084,-1.3183131,-9.589768,-1.57123721409346984565,-1.7088615,-11.064803,0.34237084,-1.3240848,-9.60882,-1.44491081409346984568,-1.827973,-10.965444,0.66858083,-1.3432887,-9.62706,-1.29833851409346984576,-1.9213469,-10.891224,0.8439561,-1.375302,-9.642605,-1.13977651409346984599,-2.0219033,-10.953473,0.94570965,-1.4168656,-9.654268,-0.978761851409346984599,-2.0787656,-11.206061,2.0745757,-1.4651481,-9.661515,-0.82393551409346984608,-1.7130513,-11.142614,5.8125234,-1.5050242,-9.6732235,-0.57795651409346984631,-0.6937199,-10.852917,7.683592,-1.5169224,-9.688598,-0.0198485011409346984632,-0.42676646,-11.124659,7.4896617,-1.4443413,-9.67937,0.627740441409346984636,-0.57041854,-11.356895,7.0754647,-1.3697169,-9.64441,1.13120891409346984663,-1.8124107,-12.409746,12.16434,-1.3330626,-9.595987,1.51998091409346984665,-3.7553053,-14.2622595,10.3226,-1.4115233,-9.428362,2.29869411409346984679,-5.168483,-13.737929,-1.2886791,-1.606302,-9.248621,2.8378181409346984679,-5.9477954,-13.309367,-7.480085,-1.8522632,-9.312086,2.45449761409346984689,-5.441422,-13.948619,-8.265982,-2.116023,-9.403615,1.80689951409346984696,-5.0403934,-15.242685,-4.293402,-2.2722225,-9.477807,1.08561251409346984709,-4.955399,-15.972318,1.2569559,-2.335605,-9.504672,0.61365711409346984726,-5.7323174,-16.490664,6.7360864,-2.369274,-9.498464,0.57978761409346984728,-6.9371996,-17.488447,11.645397,-2.446555,-9.444873,0.989514351409346984741,-6.464943,-17.435774,12.345102,-2.4350686,-9.442606,1.03828351409346984758,-5.499481,-17.283144,6.628946,-2.4480352,-9.426554,1.14786781409346984759,-4.2341456,-15.708358,2.4157495,-2.7257514,-9.083436,2.49637411409346984772,-2.7126305,-13.878589,0.30885202,-2.7740428,-9.0693245,2.49447681409346984776,-2.0404584,-12.735357,-1.5993267,-2.779353,-9.107289,2.34580921409346984791,-2.1350293,-13.163919,-4.4484267,-2.7166789,-9.19055,2.0793851409346984796,-2.629432,-12.391191,-8.5060005,-2.6350603,-9.303985,1.63177791409346984811,-1.8620903,-10.53329,-9.127894,-2.610656,-9.406727,0.931854671409346984831,-1.4862007,-10.089765,-7.2987237,-2.5748277,-9.46009,0.217622351409346984831,-1.1976994,-10.49199,-5.433641,-2.5121434,-9.474664,-0.30048261409346984836,0.005985504,-16.635511,-4.7070007,-2.419151,-9.480405,-0.663354041409346984861,1.6352397,-19.608511,0.4961983,-2.1666274,-9.524648,-0.870188651409346984861,5.613206,-19.608511,6.131551,-1.8028289,-9.615204,-0.684166671409346984876,8.507795,-19.608511,2.8095956,-1.2125734,-9.729924,-0.16923391409346984877,5.8747725,-16.046537,-2.1691468,-0.51875323,-9.792707,0.064405761409346984890,3.0813377,-12.637794,-6.389526,-0.07939649,-9.806264,-0.035562021409346984911,1.38325,-11.660959,-7.7626004,0.17694734,-9.796157,-0.4176261409346984912,0.56982,-10.253767,-7.6530657,0.29426235,-9.762838,-0.87794371409346984927,1.3443443,-8.920197,-5.6120086,0.3418024,-9.708533,-1.34088241409346984928,3.0651767,-7.887099,-3.4117374,0.40715778,-9.655751,-1.66466021409346984941,3.590704,-7.642292,-3.66672,0.56123394,-9.617834,-1.83102071409346984959,1.8968062,-7.4166384,-4.3766007,0.7568302,-9.568117,-2.01214081409346984960,0.8487445,-6.031593,-4.015076,0.8516867,-9.510847,-2.23356991409346984983,1.1330559,-4.914099,-5.8574142,0.90050745,-9.454299,-2.44452831409346984984,1.6986861,-4.9961004,-6.3697734,0.9724866,-9.344691,-2.81093961409346984988,1.4993688,-5.2528787,-5.728726,1.0754524,-9.206009,-3.20361951409346985010,1.6687586,-4.8841715,-1.91596,1.1493375,-9.086941,-3.50384571409346985011,0.97862995,-4.3688197,-0.6757634,1.2211639,-9.071366,-3.51985931409346985026,1.0636241,-3.2878375,-0.5710171,1.2095939,-9.089644,-3.47644451409346985028,1.8680758,-2.3403323,-1.2395979,1.2376182,-9.101911,-3.43422581409346985044,2.4408886,-1.7495629,-2.059612,1.396398,-9.064872,-3.4711041409346985067,2.9945478,-1.3323733,-2.8095956,1.6588273,-8.962272,-3.61889361409346985074,3.9360676,-1.1055226,-3.208829,2.0091403,-8.787594,-3.86159941409346985075,4.887164,-1.0408791,-3.1214404,2.4891722,-8.525508,-4.1581431409346985076,5.6006365,-1.0791864,-2.8921957,3.1000624,-8.190237,-4.4136181409346985096,5.9741316,-1.0720038,-3.4075475,3.7849944,-7.794332,-4.5926661409346985097,6.1345434,-1.1857284,-4.1760864,4.448212,-7.3089333,-4.7920041409346985108,6.351817,-1.7770962,-4.3568487,5.0230994,-6.761277,-5.02234651409346985125,6.168062,-3.052607,-3.8504748,5.505514,-6.255525,-5.1699241409346985139,5.4061074,-5.6401405,-1.0618285,5.8466277,-5.9481096,-5.1582311409346985139,2.0925324,-12.401965,11.999141,6.0280447,-6.093962,-4.76410961409346985162,-8.126519,-19.580978,19.608511,6.060637,-7.1550074,-2.87139491409346985163,-17.735048,-19.608511,16.038158,6.060637,-7.1550074,-2.87139491409346985168,-19.60911,-19.608511,16.915634,6.060637,-7.1550074,-2.87139491409346985176,-17.659632,-19.450495,10.019135,6.049852,-7.118753,-2.98211621409346985192,-7.0491285,-11.928512,4.460996,5.9210777,-7.121215,-3.2248261409346985230,-5.4462104,-6.853402,4.131195,-3.050246,-8.624555,3.53319071409346985232,-4.4939165,-6.39192,4.3819876,-3.3876274,-8.504904,3.51581861409346985233,-0.53091425,-5.686229,3.040636,-3.5242317,-8.400114,3.63156321409346985233,1.4700398,-6.7133417,2.0099323,-3.3524501,-8.422442,3.74084661409346985237,3.9133227,-9.515156,2.1721394,-2.9758809,-8.549159,3.771791409346985287,6.949769,-16.90486,-0.38845924,-2.2746801,-8.785353,3.71669081409346985289,6.667253,-19.608511,-4.5633483,-1.2533698,-9.190481,3.18347381409346985291,3.9977183,-16.29314,-3.8432922,-0.45152593,-9.519398,2.31248881409346985293,-0.8439561,-12.083536,0.29448682,-0.046797406,-9.657803,1.70149431409346985296,1.5304934,-11.81359,-2.5187001,-0.11405104,-9.679048,1.5727121409346985316,2.5635915,-11.043256,-4.250905,0.034870237,-9.736039,1.17418651409346985317,2.0745757,-10.552444,-2.9251158,0.2541162,-9.779335,0.685872441409346985318,2.0213048,-9.876082,-1.0049661,0.4042121,-9.789791,0.408624351409346985373,3.333926,-8.58022,-0.46627077,0.5546055,-9.786501,0.29534841409346985375,4.5795093,-8.080431,-1.0767922,0.8271701,-9.770162,0.173597741409346985377,4.63697,-8.595184,-2.018312,1.1726105,-9.736257,0.0264744571409346985379,3.9600096,-8.990826,-2.7515364,1.4966669,-9.690457,-0.15944121409346985382,3.1663318,-8.533533,-2.939481,1.7373055,-9.643636,-0.390475241409346985384,2.9173348,-7.633912,-2.4702177,1.9204776,-9.595934,-0.63261311409346985415,3.0107086,-7.104195,-2.0506337,2.0821083,-9.547521,-0.82468031409346985415,3.2597055,-7.1927805,-1.5891514,2.2357075,-9.499122,-0.96885791409346985416,3.2249897,-7.801506,-1.2078748,2.3888402,-9.452247,-1.05776311409346985417,2.8538885,-8.772355,-1.1192893,2.517749,-9.414353,-1.09602941409346985440,2.493561,-10.162787,-1.2862848,2.5906396,-9.392759,-1.1113381409346985441,1.8848352,-12.084733,-1.7022774,2.5841603,-9.392483,-1.12862351409346985462,0.8631097,-13.989321,-1.9853917,2.4938393,-9.413696,-1.15477441409346985463,-0.4381389,-15.007455,-2.1230583,2.2808888,-9.463532,-1.18721831409346985469,-1.2479776,-13.973758,-1.8602947,1.960819,-9.531741,-1.21304191409346985477,-1.4909891,-11.670536,-1.1623849,1.6189927,-9.595889,-1.21168291409346985500,-1.4191631,-9.54209,-0.79726917,1.3059342,-9.649877,-1.15967011409346985501,-1.8118122,-8.587403,-1.0163386,1.0391303,-9.689453,-1.09776431409346985511,-2.273893,-8.165425,-2.132635,0.7764859,-9.715343,-1.08608521409346985527,-2.4899697,-8.255207,-6.962937,0.48509824,-9.723705,-1.17668581409346985541,-4.335301,-9.609727,-6.9988503,0.17838527,-9.652461,-1.72295021409346985542,-4.5561657,-9.735423,-2.8790276,-0.26819998,-9.5499525,-2.2128791409346985557,-4.7040076,-9.503185,-1.5987282,-0.6667887,-9.495383,-2.35869961409346985557,-4.3897686,-8.893861,-0.90859956,-1.0291827,-9.452263,-2.40122561409346985577,-3.9749734,-8.687361,-0.40462008,-1.3368098,-9.434671,-2.31740071409346985578,-4.080917,-9.6049385,-0.32022446,-1.5936694,-9.433813,-2.1526191409346985588,-4.123414,-10.970232,-0.0712275,-1.8262247,-9.430775,-1.97378061409346985609,-3.8492777,-11.605294,0.24959552,-2.0213299,-9.433717,-1.75772151409346985611,-2.9191303,-11.23539,0.37110126,-2.167258,-9.439141,-1.54142221409346985625,-2.0925324,-10.638636,0.5303157,-2.2298968,-9.452527,-1.35930471409346985641,-1.8435353,-10.333973,0.52612585,-2.2207186,-9.476987,-1.19396161409346985642,-2.0015526,-10.592546,0.7398083,-2.178441,-9.503343,-1.05417161409346985657,-2.2517467,-10.974422,1.3617022,-2.1351607,-9.527853,-0.91186821409346985657,-1.9141643,-11.368867,2.271499,-2.1155856,-9.548601,-0.72036851409346985674,-1.1013328,-11.716026,3.0490158,-2.0642087,-9.574937,-0.47961111409346985677,-0.2717419,-11.880029,3.2704794,-1.9615178,-9.606211,-0.208732111409346985691,0.15861586,-11.729793,3.1854854,-1.8130798,-9.637563,0.0222326931409346985706,0.3196259,-11.26412,3.5954924,-1.6442004,-9.665855,0.195493091409346985709,0.24600422,-10.915764,4.402937,-1.4626727,-9.688478,0.40543411409346985723,0.6206968,-10.734404,6.039374,-1.289764,-9.69541,0.71126961409346985740,0.9600749,-10.9660425,12.397775,-1.1047453,-9.673009,1.17593191409346985740,-2.4223335,-12.205042,3.6349967,-0.9504129,-9.529759,2.10968521409346985754,-5.258864,-13.698425,-4.010886,-1.0569317,-9.496222,2.20795631409346985757,-6.271013,-15.497667,-5.221754,-1.3529353,-9.563578,1.69644241409346985772,-6.1626754,-15.684415,-4.666898,-1.6539668,-9.592647,1.18992271409346985777,-5.103241,-15.108011,-1.6723499,-1.8995548,-9.589986,0.77089111409346985791,-4.0414124,-14.565126,0.6194997,-2.0506654,-9.572191,0.5816371409346985804,-3.330933,-13.6649065,0.24181437,-2.1153278,-9.560314,0.544201141409346985809,-4.6579194,-14.492103,4.4484267,-2.1339924,-9.558416,0.50313061409346985821,-6.697779,-15.784373,17.195755,-2.2231112,-9.522262,0.74478861409346985838,-5.419874,-14.894927,14.097059,-2.2093263,-9.524611,0.75566661409346985838,-3.4003649,-13.145963,0.52971715,-2.466139,-9.1382475,2.56533861409346985862,-2.7922378,-11.840525,-4.4723687,-2.5393698,-9.149408,2.45161409346985863,-3.3435028,-12.099697,-2.9999347,-2.6217794,-9.217569,2.08160351409346985870,-3.6607344,-12.626421,-3.6433764,-2.6945043,-9.267783,1.73730251409346985893,-3.9073372,-13.382989,-6.1261635,-2.7212548,-9.329097,1.31647531409346985894,-3.0220811,-12.839505,-6.8947024,-2.730852,-9.385797,0.787198961409346985899,-1.8872294,-11.750742,-5.410896,-2.713104,-9.421415,0.215369731409346985925,-1.1204864,-10.928333,-4.6339774,-2.652426,-9.439109,-0.195511551409346985926,-0.3196259,-11.540052,-4.723161,-2.555595,-9.453755,-0.51556041409346985939,0.57041854,-13.690644,-4.9063177,-2.3904748,-9.477628,-0.79408641409346985940,1.0247183,-17.907433,-2.9245174,-2.1458895,-9.511959,-1.04314061409346985961,1.8650831,-19.608511,1.9590555,-1.8369113,-9.5716305,-1.08630171409346985962,4.5406036,-19.608511,3.2944214,-1.4905761,-9.661843,-0.77288381409346985971,7.611766,-19.608511,0.9175778,-1.0066853,-9.745833,-0.419169221409346985978,6.476914,-16.344616,-2.8562827,-0.40647185,-9.794362,-0.275014941409346986002,3.6379895,-12.539632,-5.7664347,0.046677288,-9.7980175,-0.408799561409346986007,2.271499,-11.034876,-6.494272,0.32124943,-9.774036,-0.731715741409346986010,1.7040731,-9.755175,-5.357625,0.5045774,-9.731995,-1.09730261409346986047,1.7124528,-9.137471,-3.5033157,0.6046917,-9.688599,-1.39132731409346986048,1.3138182,-9.7479925,-4.795586,0.6679408,-9.659219,-1.556841409346986049,2.2050598,-8.359355,-5.6485205,0.6947817,-9.6182,-1.78266081409346986050,1.4532804,-6.4146647,-6.0740895,0.79334587,-9.549841,-2.083631409346986057,1.1234791,-5.2319293,-4.5034933,0.85795045,-9.456362,-2.45184421409346986078,0.7230489,-5.819107,-4.234744,0.9264824,-9.377457,-2.71575551409346986079,1.769315,-6.3404446,-4.1096473,0.9477371,-9.309159,-2.93457871409346986092,2.1296425,-5.981913,-2.5288756,1.0338386,-9.243812,-3.1070121409346986115,1.8920178,-5.130774,-1.0079589,1.1314459,-9.218315,-3.1484761409346986116,1.2180501,-4.308366,-1.5873557,1.2122312,-9.225281,-3.09759661409346986118,1.0271125,-3.3943794,-2.7341783,1.2577564,-9.212901,-3.11623721409346986149,1.834557,-2.4462755,-2.3211784,1.2902163,-9.151738,-3.27893351409346986150,2.712032,-1.6998832,-2.3056161,1.44227,-9.072724,-3.43161181409346986152,3.940856,-0.99179804,-2.5845408,1.7219156,-8.952502,-3.61359791409346986157,4.9548006,-0.7326257,-3.4500446,2.185259,-8.752094,-3.846541409346986175,6.0166287,-0.91697925,-3.833117,2.7944195,-8.428077,-4.1628271409346986189,6.1207767,-1.0684125,-4.2042184,3.514609,-7.993229,-4.46387961409346986190,6.3141084,-1.6328455,-3.8905778,4.163705,-7.5042267,-4.7455861409346986205,6.347627,-2.5671828,-3.2932243,4.749254,-7.028159,-4.92137861409346986221,6.205771,-3.982156,-1.7082629,5.2453713,-6.659589,-4.93014761409346986221,5.1613,-6.851008,2.1218612,5.6475186,-6.5116687,-4.6769761409346986237,1.6238673,-12.759898,12.950835,5.861303,-6.826651,-3.90030841409346986238,-13.050195,-19.576788,19.608511,5.4959345,-7.9581604,-1.62258321409346986253,-19.436129,-19.608511,16.928802,5.610221,-7.8366466,-1.81183791409346986257,-19.60911,-19.608511,16.808493,5.7160683,-7.7095246,-2.01498911409346986280,-15.795746,-19.2009,8.663419,5.7728715,-7.619503,-2.1880421409346986280,-5.955577,-11.575965,3.5739446,5.737144,-7.5865917,-2.3872991409346986290,-4.939238,-6.943185,5.2079873,-2.9962306,-8.611055,3.61147021409346986314,-2.2918496,-6.7330937,6.021417,-3.3067803,-8.471496,3.67006251409346986315,1.3862427,-7.417835,3.927688,-3.3220327,-8.381426,3.85826251409346986318,3.843891,-10.469844,1.401805,-2.961145,-8.458043,3.98290131409346986349,7.145495,-18.237232,-0.96187055,-2.3299086,-8.710625,3.85576371409346986350,7.105392,-19.608511,-3.3022027,-1.3589098,-9.1381855,3.28897021409346986352,3.448249,-15.735292,-1.4562732,-0.5493401,-9.450127,2.561981409346986358,-1.1312603,-11.33894,3.2878375,-0.17854251,-9.563807,2.16150671409346986375,-0.6356605,-10.235212,-0.32441434,-0.24154286,-9.54223,2.2489821409346986388,1.6591818,-9.284116,-4.642357,-0.2672028,-9.591149,2.0270291409346986391,2.806603,-8.173804,-4.7494974,-0.106042795,-9.693343,1.48264551409346986411,2.789245,-8.157045,-2.8975825,0.13528322,-9.754668,0.99926941409346986412,2.6599581,-8.061277,-1.7926586,0.36904463,-9.775666,0.685967451409346986418,3.4793737,-7.550115,-0.78290397,0.59406537,-9.777952,0.457284331409346986441,3.957017,-7.951742,-0.9768343,0.89484954,-9.761436,0.28982351409346986443,3.554791,-8.69155,-2.5761611,1.2092245,-9.730599,0.153704421409346986464,3.2812533,-9.547478,-3.8145618,1.4538345,-9.697851,-0.09183571409346986465,3.217807,-9.77373,-4.055179,1.6495314,-9.656721,-0.444031181409346986470,3.1322143,-9.124901,-3.4476504,1.8194933,-9.603366,-0.797005241409346986499,2.8119898,-8.842984,-2.4001873,1.9740523,-9.545607,-1.07465931409346986500,2.5492263,-9.098565,-1.496376,2.0772989,-9.505079,-1.22828751409346986500,2.2960393,-9.662399,-1.0151415,2.1616197,-9.479524,-1.27922861409346986520,2.005144,-10.441113,-0.8714894,2.20352,-9.470883,-1.27171281409346986521,1.5316905,-11.623849,-0.83018947,2.201292,-9.476747,-1.2312411409346986538,0.7649474,-12.987347,-0.9947908,2.132634,-9.500596,-1.16659121409346986539,-0.09636662,-13.536218,-1.252766,1.9754169,-9.542117,-1.10278481409346986559,-0.8714894,-13.024457,-1.429937,1.7419124,-9.592575,-1.05767371409346986559,-1.3736732,-11.912351,-1.2078748,1.4643227,-9.641476,-1.03349141409346986571,-1.6418238,-10.539276,-0.9528923,1.1912205,-9.681227,-1.01253021409346986588,-1.7782934,-9.725846,-1.4562732,0.9218515,-9.715105,-0.968141261409346986590,-1.1204864,-9.157822,-2.866458,0.6642861,-9.734162,-0.9875151409346986606,-0.87448215,-8.918402,-3.5643678,0.48769352,-9.72594,-1.15700651409346986619,-2.259528,-8.802282,-2.9311013,0.3544386,-9.696448,-1.42254951409346986620,-2.9574378,-8.533533,-3.6493618,0.12514059,-9.665782,-1.65148481409346986642,-3.5045128,-8.108562,-3.9725792,-0.14309768,-9.613144,-1.93322411409346986643,-3.247136,-7.739257,-3.8498764,-0.44686407,-9.549557,-2.1855661409346986650,-3.1878796,-8.365341,-3.210026,-0.72291505,-9.477241,-2.414481409346986658,-2.8856115,-9.083003,-2.082357,-0.9709657,-9.424422,-2.53138021409346986704,-2.4648306,-9.813833,-0.5081693,-1.1714271,-9.410857,-2.4967891409346986705,-2.7275944,-10.66557,0.13108255,-1.3141075,-9.443376,-2.29481631409346986706,-2.5785553,-10.79785,0.30526072,-1.4610006,-9.481201,-2.0353541409346986706,-2.1918917,-10.357915,0.33518824,-1.5705229,-9.512814,-1.79171551409346986719,-1.7495629,-10.0029745,0.2789245,-1.6350527,-9.537879,-1.58929661409346986720,-1.5125369,-9.993997,0.36990416,-1.6469916,-9.561891,-1.42411591409346986742,-1.4957775,-10.213664,0.7302315,-1.6411107,-9.583768,-1.27614631409346986743,-1.8177977,-10.5704,1.174356,-1.6212226,-9.607302,-1.11435211409346986751,-2.1865046,-10.936115,1.3994108,-1.6220816,-9.627154,-0.92581081409346986758,-2.2439656,-11.287464,1.4347254,-1.6505451,-9.638831,-0.73418741409346986773,-2.2260091,-11.619659,2.2930467,-1.6806817,-9.645512,-0.55660891409346986788,-1.6867151,-11.672332,3.9977183,-1.70971,-9.651166,-0.31974941409346986790,-0.9487024,-11.6908865,5.08289,-1.6837314,-9.660918,0.0459394121409346986806,-0.54408234,-11.954249,5.0583496,-1.6064769,-9.663567,0.452888641409346986819,-0.41299978,-12.214619,4.9404354,-1.5113689,-9.65862,0.772805751409346986820,-0.36511576,-12.005126,4.9302597,-1.4203689,-9.649236,1.0223321409346986837,0.23822308,-11.560403,7.21373,-1.3315146,-9.63151,1.27729561409346986838,0.37349546,-12.419323,8.202535,-1.2034434,-9.572719,1.75647011409346986853,-2.2062569,-14.305954,1.4879963,-1.069931,-9.475549,2.289021409346986868,-4.75668,-15.298949,-3.364452,-1.1189803,-9.480496,2.24464821409346986871,-5.1463366,-14.771028,-5.502474,-1.3298821,-9.553151,1.77175091409346986884,-5.2923827,-13.953407,-5.7305217,-1.5506133,-9.601251,1.25777021409346986890,-4.831499,-13.310564,-1.821389,-1.765384,-9.620967,0.700553951409346986902,-4.1718965,-14.0072775,3.3494883,-1.9333018,-9.603652,0.450129571409346986922,-4.249708,-15.172655,4.7387238,-2.0142705,-9.576774,0.6312711409346986923,-4.156933,-16.847998,6.9569516,-2.0742826,-9.540548,0.91961521409346986938,-5.005677,-17.281347,13.0759325,-2.1016634,-9.48671,1.32504311409346986939,-3.8097734,-15.306131,5.079299,-2.1125526,-9.476474,1.37982951409346986956,-3.0137014,-13.007099,-2.1045034,-2.2033713,-9.3000145,2.19665311409346986975,-3.6762967,-11.731588,-2.9921536,-2.286315,-9.334221,1.95332371409346986976,-4.027047,-10.43872,-4.4580035,-2.4140923,-9.357183,1.66902351409346986978,-3.7906199,-10.67395,-5.779603,-2.537316,-9.39036,1.24640981409346987006,-2.8688521,-10.841544,-6.287772,-2.6297462,-9.420468,0.71387171409346987008,-1.7262194,-10.579977,-5.561132,-2.6617389,-9.436958,0.171285381409346987028,-1.1845313,-11.694478,-4.322731,-2.6095252,-9.44954,-0.258769661409346987029,-0.6290765,-13.143569,-3.5170822,-2.492265,-9.469987,-0.527613941409346987030,0.40043023,-15.553931,-2.8323407,-2.3185678,-9.500768,-0.72805251409346987038,2.1978772,-19.096153,-0.077811554,-2.0655808,-9.550554,-0.83107281409346987057,6.5002575,-19.608511,1.5957354,-1.6779864,-9.635854,-0.71068631409346987058,6.0866594,-18.93215,-0.013766659,-1.0421293,-9.738654,-0.4928991409346987070,4.2119994,-14.026431,-2.0123265,-0.5124632,-9.785623,-0.386458161409346987089,1.8447324,-11.662755,-4.830302,-0.15877631,-9.795696,-0.435339781409346987091,0.3716998,-10.329783,-6.1824274,-0.009055121,-9.781231,-0.70556481409346987110,-0.048482586,-8.898649,-4.903325,0.045600306,-9.748914,-1.06159841409346987112,0.34356794,-8.408437,-3.0190883,0.05435177,-9.714919,-1.33707451409346987119,1.2282255,-8.614338,-2.5396495,0.066743635,-9.693066,-1.48674931409346987139,1.1677719,-9.622895,-4.6393642,0.1389125,-9.675651,-1.59151081409346987140,1.4754268,-8.002021,-4.296395,0.20667087,-9.633873,-1.82103911409346987165,1.2665327,-5.981913,-4.2425256,0.31302726,-9.588483,-2.03308731409346987166,0.9564836,-5.4258595,-6.476914,0.411976,-9.5263405,-2.29118681409346987172,1.757344,-5.8813562,-5.8837504,0.4905942,-9.406755,-2.72812271409346987194,3.0789435,-5.827487,-2.7539306,0.6252455,-9.284652,-3.09429931409346987196,3.3327289,-5.333683,-1.4401124,0.8907111,-9.240647,-3.1602961409346987199,2.6521769,-4.52145,-1.8650831,1.1399843,-9.22313,-3.13124751409346987240,2.2307975,-3.977966,-0.6039374,1.2953385,-9.183606,-3.18651411409346987241,2.296638,-3.8151605,-0.6823475,1.444735,-9.18249,-3.1249061409346987242,3.016694,-3.697246,-2.0644004,1.6371412,-9.172481,-3.058721409346987243,3.9145198,-3.5350387,-3.3626564,1.9067067,-9.093176,-3.13831731409346987251,4.6082397,-3.3494883,-3.8833952,2.2653372,-8.932455,-3.35407851409346987294,5.6748567,-2.9233203,-2.9658175,2.7040148,-8.705021,-3.61680461409346987295,6.413468,-2.3319526,-3.0825348,3.287015,-8.441267,-3.75645571409346987296,6.793547,-2.1033063,-3.8253357,3.9341962,-8.09035,-3.9036851409346987297,6.963536,-2.2481554,-4.110844,4.5536757,-7.650904,-4.11072731409346987299,6.9796963,-2.5959132,-3.9965212,5.10979,-7.1862946,-4.2915741409346987333,6.651691,-3.596091,-3.4063504,5.578974,-6.754839,-4.40654041409346987334,5.349245,-5.9304376,-2.190096,5.898407,-6.4798512,-4.40349251409346987335,1.7872716,-11.058818,6.137536,5.9893303,-6.5041766,-4.2419361409346987339,-13.157335,-19.202694,19.608511,5.6985345,-7.363558,-3.07816891409346987360,-19.60911,-19.608511,15.354614,5.8204775,-7.170012,-3.29899481409346987362,-19.60911,-19.608511,15.7323,5.908331,-6.9962173,-3.50927191409346987371,-19.251177,-19.598934,11.27669,5.8810062,-6.92569,-3.69038721409346987408,-9.720459,-12.516887,4.5022964,5.7655206,-6.8930306,-3.92623071409346987410,-6.3129115,-7.067683,2.0416555,-3.4589612,-8.654246,3.05122691409346987411,-6.1566896,-7.0287776,3.2752678,-3.8361778,-8.55386,2.87847231409346987446,-1.6160861,-6.3703723,2.1254525,-4.069555,-8.439362,2.8959091409346987449,1.3090298,-7.3106947,0.33159694,-3.9425995,-8.486648,2.9331031409346987450,4.9224787,-13.263279,-3.5745432,-3.551909,-8.665697,2.90861271409346987450,8.075643,-18.864513,-5.283405,-2.717701,-9.1065035,2.41993331409346987451,8.263587,-18.116325,-4.723161,-1.5964539,-9.526645,1.69256291409346987472,4.717176,-14.009671,1.9578584,-0.64320207,-9.724727,1.08920911409346987474,0.4321534,-12.54861,7.669825,-0.15605946,-9.740752,1.12418041409346987497,1.5987282,-11.482592,3.0119057,-0.07119711,-9.681099,1.56257721409346987499,3.4063504,-11.473015,-2.369661,0.10055413,-9.6761265,1.59149471409346987500,2.8820202,-10.234015,-2.541445,0.36905134,-9.7160015,1.27808931409346987520,3.0903158,-8.081628,-0.94690675,0.5529019,-9.735955,1.03724961409346987520,3.6110547,-7.319673,-0.092775315,0.780057,-9.733798,0.90281831409346987535,3.4865563,-7.9828672,-0.57640404,1.0569932,-9.716345,0.803616761409346987539,3.0831332,-8.628104,-1.3988123,1.2955402,-9.697688,0.66843761409346987551,3.0400376,-8.1642275,-1.894412,1.4781837,-9.682608,0.48215781409346987569,2.9173348,-7.53994,-1.8543092,1.6563373,-9.662196,0.262467561409346987570,2.6288335,-7.539341,-1.5837644,1.8183547,-9.636381,0.064557811409346987591,2.2379801,-8.127118,-1.3533225,1.9444548,-9.611485,-0.094289811409346987592,1.7441759,-9.06744,-1.3521254,2.0237637,-9.592974,-0.222775031409346987599,1.0265139,-10.463859,-1.5831659,2.040116,-9.58599,-0.34222211409346987621,0.0796072,-12.33792,-1.8327614,1.9626296,-9.59692,-0.46648851409346987623,-0.7009025,-13.597869,-2.1470003,1.7581308,-9.629796,-0.58855191409346987641,-1.8806454,-13.942035,-3.4410665,1.5024419,-9.665805,-0.69659871409346987642,-2.5893292,-12.988544,-3.3704374,1.1599317,-9.696926,-0.891378941409346987652,-2.4516625,-11.283873,-2.9813797,0.79496586,-9.718163,-1.04678081409346987668,-2.896984,-10.539276,-2.7934349,0.48277885,-9.723572,-1.17874741409346987671,-2.7126305,-9.825205,-3.5272577,0.16071312,-9.718403,-1.30276631409346987687,-1.5095441,-8.297106,-4.947019,-0.10789251,-9.69297,-1.48494521409346987702,-0.4417302,-7.2610154,-5.2768207,-0.24952684,-9.6356735,-1.80608061409346987703,-0.4914099,-7.563882,-5.559336,-0.28186727,-9.561524,-2.1606091409346987719,-1.8088194,-8.653243,-7.373543,-0.31022215,-9.464578,-2.54871251409346987719,-2.8095956,-8.882488,-4.9781437,-0.44372988,-9.307525,-3.0567081409346987732,-2.3642743,-8.5299425,-1.8273745,-0.6563389,-9.21208,-3.29805611409346987740,-1.6771383,-8.8328085,-0.57760113,-0.83778036,-9.214326,-3.25034281409346987752,-1.8926164,-9.306262,0.6865373,-0.967026,-9.267262,-3.05828761409346987768,-2.1332338,-10.4728365,1.299453,-1.0961492,-9.35564,-2.72780131409346987773,-1.8195933,-11.5077305,0.24959552,-1.191274,-9.448769,-2.33922671409346987786,-1.3982137,-11.442489,-0.1340753,-1.2327514,-9.507349,-2.06422731409346987802,-1.0372878,-11.065402,-0.07182605,-1.2277131,-9.551768,-1.85117451409346987803,-0.94451255,-10.849325,-0.24181437,-1.1885762,-9.589184,-1.67487441409346987818,-1.0534488,-10.65719,-0.6159084,-1.1416274,-9.615814,-1.55021671409346987819,-1.0827777,-10.218452,-0.6398504,-1.1125238,-9.629821,-1.48297371409346987832,-1.1839328,-9.922171,-0.5255273,-1.0998025,-9.63814,-1.43773751409346987845,-1.3347675,-10.142437,-0.36032736,-1.1086466,-9.642924,-1.39832961409346987851,-1.3850456,-10.794258,0.076614454,-1.1286315,-9.650126,-1.33104011409346987866,-1.311424,-11.465832,0.57400984,-1.1488916,-9.659769,-1.24068441409346987870,-1.2060791,-11.794436,1.7938557,-1.1582181,-9.67499,-1.10611091409346987889,-0.84335756,-11.556213,5.495291,-1.1577617,-9.698649,-0.8753141409346987893,0.39324763,-11.238382,9.935937,-1.1270274,-9.735824,-0.33749951409346987899,0.40821138,-12.029667,11.944074,-0.9920317,-9.742224,0.52473271409346987931,0.49200845,-13.037026,15.390527,-0.87396836,-9.662192,1.43129431409346987936,0.5081693,-13.977349,17.46989,-0.80642,-9.457863,2.46351341409346987937,-0.94810385,-12.951434,-8.319252,-0.9762365,-9.536685,2.06615231409346987961,-3.6703112,-12.39957,-12.1128645,-0.7872609,-9.397461,2.69042041409346987962,-3.903746,-14.635157,-9.776723,-0.9657391,-9.60729,1.713981409346987963,-4.1760864,-15.620969,-3.6882677,-1.091731,-9.708896,0.84609411409346987988,-4.135385,-15.501858,2.6683378,-1.2223195,-9.72157,0.409145921409346987989,-5.7903767,-15.086464,5.41748,-1.3452815,-9.701904,0.48341491409346987990,-7.2508397,-15.12118,9.897031,-1.583641,-9.645153,0.79590751409346987999,-7.61416,-16.621746,16.175825,-1.8654002,-9.521176,1.42753571409346988025,-5.510854,-16.676811,9.753379,-1.7717832,-9.5401,1.42044461409346988026,-4.256891,-15.196597,1.1504139,-2.2159467,-9.169975,2.6779721409346988031,-3.90614,-14.2700405,-1.5747862,-2.380871,-9.162355,2.5598971409346988059,-3.8367083,-13.73733,-2.794632,-2.521389,-9.18452,2.33614371409346988060,-4.092888,-13.18427,-5.504868,-2.5994198,-9.244653,1.98740861409346988061,-4.1335893,-12.446258,-7.5866265,-2.6451178,-9.33302,1.43821761409346988093,-3.3812113,-10.338163,-8.389881,-2.6881373,-9.396029,0.81174161409346988094,-2.60968,-8.957307,-7.61416,-2.7244148,-9.419541,0.142054421409346988095,-1.7890673,-9.4295635,-6.721721,-2.7491992,-9.404896,-0.400253861409346988100,-0.88166475,-10.509348,-5.9717374,-2.722382,-9.3846245,-0.82935351409346988122,0.18734628,-12.896367,-5.373187,-2.6115136,-9.380281,-1.16649691409346988122,1.0486604,-17.956512,-3.0627825,-2.3858933,-9.406049,-1.41568261409346988132,3.2208,-19.608511,3.389591,-2.0402734,-9.485886,-1.42326191409346988154,7.526173,-19.608511,4.9224787,-1.55929,-9.633087,-0.970884861409346988155,8.740033,-19.165585,1.2665327,-0.84985596,-9.756941,-0.50023611409346988160,6.0148335,-14.416685,-1.5209166,-0.16792788,-9.799422,-0.336956861409346988171,3.638588,-11.814188,-5.0140567,0.27087533,-9.79479,-0.398875981409346988192,2.1709423,-9.996989,-7.6291237,0.54249126,-9.767876,-0.681695461409346988194,2.0153193,-8.702923,-6.284181,0.6843112,-9.717237,-1.13023631409346988200,2.8772318,-8.367735,-3.2231941,0.7747399,-9.661312,-1.4930581409346988232,3.5087025,-7.967903,-2.1284454,0.9083345,-9.624106,-1.64981371409346988234,3.1591492,-7.5465236,-2.1667526,1.090385,-9.594329,-1.71180251409346988235,1.4449008,-7.143699,-3.277662,1.2610315,-9.560798,-1.78083071409346988260,0.7835025,-6.3470287,-2.4995465,1.3005942,-9.525722,-1.93377091409346988261,0.9103952,-5.3803697,-4.565144,1.2920053,-9.505952,-2.03421161409346988262,1.4909891,-5.300164,-5.182848,1.2904092,-9.434164,-2.34559821409346988292,1.0947487,-5.5485625,-4.1198225,1.3646106,-9.332154,-2.68684031409346988293,1.0672154,-5.394735,-3.271078,1.4109646,-9.260349,-2.9026761409346988294,1.127669,-4.6764746,-1.4981717,1.415086,-9.207947,-3.0629461409346988300,1.3377602,-3.6086605,-1.6077064,1.4098368,-9.202447,-3.08183671409346988324,1.6813282,-2.8233624,-2.2146366,1.4732424,-9.1729965,-3.13944441409346988325,2.705448,-2.2906525,-1.4885949,1.5880622,-9.104742,-3.27903911409346988332,3.6535518,-1.9728222,-1.6358383,1.8727988,-9.028363,-3.3394141409346988370,4.285621,-1.702876,-3.1878796,2.2913718,-8.898562,-3.42572571409346988372,4.9308586,-1.477821,-4.3837833,2.7764094,-8.643725,-3.70782471409346988374,5.1146135,-1.6142905,-4.596867,3.3235183,-8.257839,-4.11493831409346988404,4.744709,-2.106299,-4.122815,3.8421812,-7.8310843,-4.48130941409346988405,2.4199393,-4.895544,-1.3054385,4.2497554,-7.4499674,-4.75478271409346988406,0.60453594,-7.1251445,1.6478093,4.280123,-7.5381007,-4.5856281409346988406,-1.3605051,-9.868899,6.035184,4.0369782,-8.001638,-3.98083261409346988411,-9.470863,-16.246454,12.7730665,3.4531794,-8.778154,-2.68140721409346988420,-18.53531,-19.608511,17.155653,3.5038676,-8.701854,-2.85850261409346988436,-19.60911,-19.608511,16.649279,3.5520737,-8.624771,-3.02762061409346988440,-18.17259,-19.608511,13.263279,3.5457926,-8.569906,-3.18660951409346988453,-10.022128,-14.634558,5.433641,3.4858744,-8.534077,-3.3449361409346988467,-6.0525417,-9.555259,3.4344823,-3.8948781,-8.364508,3.32194951409346988488,-5.6150017,-9.392453,5.0439844,-4.063952,-8.317137,3.2372721409346988489,-2.0308816,-9.246407,3.8133647,-4.144854,-8.2662325,3.2649631409346988493,0.801459,-8.714295,1.8249803,-3.9600987,-8.351606,3.27699351409346988500,3.5954924,-10.808623,0.34237084,-3.6006556,-8.517889,3.26362161409346988521,7.0126166,-18.32522,-1.6944963,-2.972423,-8.802807,3.1377851409346988521,7.8769236,-19.608511,-3.2932243,-1.9727243,-9.236636,2.6388091409346988531,4.679467,-17.68477,-1.0881647,-1.0658646,-9.536928,2.02022551409346988554,-1.2599486,-13.842675,8.94773,-0.56039023,-9.644932,1.68275381409346988555,0.30286652,-12.151771,4.80636,-0.5771347,-9.544691,2.17627551409346988560,3.7732618,-10.247782,-3.453636,-0.48924482,-9.521465,2.29624181409346988591,4.8482585,-8.683171,-5.4767365,-0.17418285,-9.630055,1.84448171409346988592,5.0020857,-7.802105,-2.695871,0.19470073,-9.715287,1.32124031409346988593,5.127183,-7.683592,-0.7978677,0.5787547,-9.734096,1.04058841409346988600,5.575497,-7.343615,-0.62967503,0.9823969,-9.715607,0.90125681409346988615,5.291186,-7.7548194,-1.496376,1.4201736,-9.674124,0.75153651409346988633,4.383185,-8.486248,-3.1842883,1.8048456,-9.623542,0.548040151409346988633,3.6924577,-8.438962,-4.4514194,2.079019,-9.581054,0.226919591409346988647,3.3919852,-7.685986,-4.4783545,2.2814865,-9.535668,-0.19033641409346988651,3.1148565,-7.053318,-3.7163997,2.4486895,-9.477369,-0.59480891409346988664,2.8514943,-7.2765775,-2.5899277,2.5819654,-9.415772,-0.920378271409346988678,2.666542,-8.052897,-1.7669208,2.6749487,-9.367488,-1.12481941409346988680,2.4241292,-8.8088665,-1.602918,2.7159724,-9.341888,-1.23410571409346988697,2.086547,-9.7240505,-1.6065093,2.7316628,-9.32898,-1.29558111409346988700,1.2719196,-11.675923,-1.7711107,2.6922276,-9.332949,-1.34847971409346988720,0.22026655,-13.998898,-2.0368671,2.5403838,-9.370492,-1.38228851409346988721,-0.9463082,-15.767015,-2.372654,2.2653937,-9.437708,-1.4028731409346988733,-1.7591397,-15.534778,-2.4672248,1.8896353,-9.518224,-1.41531461409346988752,-2.006341,-13.501502,-2.0159178,1.4913656,-9.588856,-1.41423321409346988753,-3.0137014,-11.385626,-1.6573862,1.1460621,-9.637763,-1.4037271409346988760,-3.7511156,-9.843162,-1.4107834,0.75840753,-9.682396,-1.35882961409346988785,-3.70383,-8.6712,-1.2054806,0.34017158,-9.709952,-1.33097391409346988786,-3.217807,-7.606379,-1.5508442,-0.04355857,-9.715603,-1.33249371409346988793,-3.007716,-7.433996,-1.1025299,-0.3579805,-9.699886,-1.39801181409346988800,-2.9759927,-7.86615,-0.7344214,-0.6214432,-9.682859,-1.42352651409346988815,-3.169923,-8.632295,-0.97982705,-0.85209525,-9.667582,-1.40789991409346988839,-3.5206735,-8.747216,-0.6476316,-1.0741593,-9.645518,-1.4073221409346988840,-3.7421372,-8.669404,-0.78529817,-1.3089664,-9.622347,-1.36654681409346988840,-3.2758665,-8.507795,-0.2681506,-1.5537373,-9.585172,-1.37140811409346988868,-1.9111716,-9.105149,-0.48961425,-1.7330794,-9.558758,-1.34050881409346988868,-0.93493575,-10.011354,-1.3856442,-1.7642121,-9.556756,-1.31390251409346988888,-0.74399817,-10.376471,-1.7992426,-1.6888126,-9.56669,-1.34043071409346988889,-0.8122329,-10.654796,-1.1671734,-1.585921,-9.577378,-1.38891051409346988891,-1.0929531,-11.056423,-0.46327803,-1.4791586,-9.595612,-1.38083971409346988900,-1.459266,-11.451467,-0.40162733,-1.410544,-9.616555,-1.30483511409346988919,-1.7046716,-11.525088,-0.5386954,-1.3723732,-9.630774,-1.23902391409346988920,-1.8806454,-11.2312,0.013766659,-1.3696833,-9.637627,-1.18764111409346988932,-1.9698294,-11.21444,0.57281274,-1.3977183,-9.6452,-1.08943941409346988948,-1.9189527,-11.687296,0.9768343,-1.4366096,-9.653656,-0.95575261409346988952,-2.0213048,-12.297218,1.1360487,-1.4626217,-9.664235,-0.79604491409346988972,-2.207454,-12.612056,1.5783775,-1.485751,-9.672524,-0.63655631409346988974,-2.3391352,-12.297817,3.0867245,-1.5146564,-9.678207,-0.456634071409346988980,-1.9524715,-11.376648,6.1566896,-1.5530779,-9.681388,-0.170510111409346989003,-1.3688848,-11.031883,8.491635,-1.5687567,-9.673844,0.355147871409346989003,-0.009576807,-10.505158,12.875419,-1.5413252,-9.631556,1.01382491409346989012,1.650802,-10.416573,14.429853,-1.4193956,-9.507251,1.94110611409346989036,-1.6849195,-12.00752,0.001197101,-1.205133,-9.300608,2.86648321409346989036,-4.264672,-12.9723835,-7.430405,-1.2737052,-9.363437,2.62185551409346989045,-4.983531,-13.772645,-9.097368,-1.4705887,-9.504398,1.91680861409346989065,-4.9188876,-14.013861,-7.3525934,-1.6518615,-9.609132,1.05182681409346989065,-5.5898623,-13.925276,-3.726575,-1.8358467,-9.623679,0.429926281409346989079,-5.9388175,-13.251906,0.9564836,-2.0673695,-9.585666,0.106811651409346989080,-6.687604,-12.963405,2.0512323,-2.2919211,-9.533966,0.144839851409346989097,-7.430405,-13.6331835,2.9173348,-2.533246,-9.47023,0.260388881409346989100,-6.8204823,-16.046537,11.867459,-2.792666,-9.389996,0.446513441409346989114,-4.0521865,-19.264944,19.49718,-2.9118273,-9.282822,1.23323321409346989130,-2.15538,-18.929756,9.088389,-2.9479291,-9.26986,1.2449081409346989132,0.14724341,-14.8512335,-2.9628246,-2.6089182,-9.080617,2.62799531409346989147,-0.1604115,-12.482769,-5.708974,-2.4400337,-9.203119,2.34930351409346989170,-1.5448587,-10.951677,-5.0320134,-2.3438365,-9.337125,1.8694721409346989171,-3.0603883,-10.717046,-5.2008047,-2.2862322,-9.43656,1.37654331409346989172,-3.6254199,-10.76493,-6.0106435,-2.2983928,-9.492043,0.88822711409346989180,-2.914342,-10.725425,-6.729502,-2.3756397,-9.506394,0.39394491409346989201,-1.8914193,-10.699687,-6.277597,-2.4217691,-9.502217,-0.115253581409346989202,-1.1821371,-11.335348,-5.7400985,-2.389331,-9.495278,-0.54878141409346989214,-0.28311434,-13.234549,-4.9057193,-2.301111,-9.488594,-0.91753821409346989231,1.1953052,-16.409859,-3.2076318,-2.1334667,-9.500283,-1.16762071409346989232,2.554613,-19.513342,2.2936451,-1.8345968,-9.553332,-1.24034951409346989253,4.581305,-19.608511,4.155137,-1.4354552,-9.660353,-0.887380661409346989254,6.0764837,-19.570803,0.29568392,-0.93582875,-9.750988,-0.46135921409346989260,4.185065,-16.251242,-3.9414546,-0.40848583,-9.791868,-0.350502641409346989288,2.8514943,-10.793061,-4.1575313,-0.069007486,-9.7911,-0.547726151409346989289,1.8447324,-9.295488,-4.5040917,0.14557694,-9.774941,-0.77441881409346989293,1.1719618,-7.814076,-5.4114943,0.28651452,-9.747729,-1.03444971409346989302,1.3269863,-7.2753806,-3.5362358,0.35825902,-9.705445,-1.35882581409346989317,1.5634137,-7.3831196,-2.0901382,0.42524698,-9.676255,-1.53610481409346989338,0.2789245,-8.150461,-4.506486,0.50699794,-9.661182,-1.60465931409346989341,-0.12928689,-6.657676,-6.283582,0.4889251,-9.616049,-1.860891409346989342,-0.272939,-5.3127337,-5.2804117,0.4560092,-9.529725,-2.26865891409346989365,0.11552023,-5.7502737,-3.0771477,0.4244725,-9.44418,-2.6072371409346989366,1.3108255,-6.1967926,-3.7098155,0.41487786,-9.396393,-2.77598331409346989383,2.3259668,-5.7502737,-2.2050598,0.5173095,-9.32858,-2.97999141409346989385,2.3451207,-5.005079,-0.26874915,0.6996897,-9.302018,-3.0254411409346989398,2.5330653,-4.3861775,-0.055066638,0.8794357,-9.329612,-2.89056061409346989401,2.236783,-3.9695864,-0.90021986,1.0836966,-9.347376,-2.7608991409346989418,2.2499511,-3.4524388,-1.6657659,1.2648867,-9.332539,-2.73389651409346989421,2.7329812,-2.902371,-2.3768437,1.4723382,-9.283188,-2.79733541409346989432,3.6140475,-2.4779987,-2.4552538,1.7472453,-9.183956,-2.9618361409346989449,4.6842556,-2.2391772,-2.030283,2.1458058,-9.036627,-3.14726691409346989464,5.357625,-2.255338,-2.581548,2.6923099,-8.841855,-3.27772121409346989465,5.5605335,-2.5797524,-4.0174704,3.304734,-8.56219,-3.455151409346989482,5.563526,-3.1364043,-4.431069,3.8608022,-8.188815,-3.7693381409346989483,5.035006,-3.9360676,-4.10845,4.3226676,-7.8096137,-4.0613921409346989498,4.0958805,-5.2355204,-3.115455,4.6305604,-7.52396,-4.25656271409346989515,2.6539726,-7.560889,0.12629414,4.7368073,-7.448037,-4.2731521409346989516,-0.6775591,-11.885416,9.31105,4.6473756,-7.728392,-3.85282061409346989529,-7.7159133,-18.383877,17.729662,4.0989985,-8.640006,-2.1722961409346989533,-15.831658,-19.608511,14.282012,4.178511,-8.543122,-2.39280581409346989544,-19.60911,-19.608511,14.734516,4.2423635,-8.457749,-2.57666421409346989560,-19.50197,-19.520525,12.771271,4.238875,-8.423735,-2.69128321409346989562,-14.463372,-15.1139965,6.9383965,4.1567764,-8.430429,-2.79633471409346989584,-9.896433,-10.3639,5.345055,4.06963,-8.443066,-2.88498781409346989585,-7.116166,-9.126697,5.5910597,-4.1612916,-8.2704525,3.23321221409346989593,-4.2012253,-9.0716305,3.709217,-4.3123703,-8.158981,3.31736141409346989619,-0.5243302,-8.670602,0.7110779,-4.2884603,-8.167621,3.32708021409346989620,1.893215,-9.277532,-0.6242881,-4.022805,-8.32968,3.25635621409346989621,4.9416323,-14.382568,-1.6944963,-3.5449045,-8.597588,3.11215951409346989656,6.979098,-19.300259,-3.7163997,-2.7338607,-9.010618,2.73955511409346989656,5.6569,-17.44116,-4.1252093,-1.7857698,-9.40992,2.10590311409346989657,3.6715083,-12.2002535,-2.3570917,-1.1031302,-9.623926,1.52759861409346989661,3.074155,-9.879075,-1.091756,-0.7034177,-9.70432,1.22546061409346989685,2.758719,-10.526707,-0.17417817,-0.38908905,-9.744157,1.03461431409346989685,3.1717186,-10.83077,-0.40222588,-0.13038462,-9.764575,0.898043931409346989694,3.7223852,-11.127052,0.073621705,0.14248452,-9.777271,0.74501661409346989723,4.309563,-10.315418,0.9864111,0.42986852,-9.775846,0.64687071409346989724,4.7614684,-7.8493905,0.7846996,0.7387927,-9.757624,0.642921031409346989725,4.185065,-8.338406,-0.08678981,1.0868825,-9.723919,0.65916011409346989733,3.3237505,-8.615535,-1.3227965,1.3706174,-9.690974,0.613869551409346989756,2.553416,-8.204929,-2.195483,1.5737834,-9.668089,0.47077511409346989757,2.1027076,-7.524976,-2.6970682,1.7077304,-9.653359,0.258238551409346989761,1.7896658,-7.1987658,-2.9951463,1.7991009,-9.640208,0.0050049691409346989786,1.5945383,-7.4351935,-2.700061,1.8564976,-9.625485,-0.2717721409346989787,1.4556746,-8.004415,-2.2559366,1.8862832,-9.6098385,-0.51315911409346989792,0.85293436,-9.02614,-2.0087352,1.8923409,-9.597004,-0.69782421409346989819,-0.032920275,-10.505757,-1.9877859,1.8270074,-9.59794,-0.843791541409346989820,-0.8110358,-12.015302,-2.0841527,1.6445509,-9.620697,-0.952893141409346989821,-1.7980455,-13.402143,-2.3038206,1.4091672,-9.650409,-1.02676741409346989858,-2.8395233,-13.984532,-2.4797945,1.0876012,-9.685058,-1.0895761409346989863,-3.5942953,-13.297397,-2.3894134,0.7077219,-9.71536,-1.13194881409346989864,-3.9905357,-11.66874,-2.2828712,0.30876872,-9.7342825,-1.14839591409346989865,-3.6499605,-9.4457245,-2.111686,-0.08953531,-9.7361555,-1.17031851409346989903,-3.1920695,-8.252813,-2.010531,-0.44090223,-9.720568,-1.21925381409346989903,-2.6605566,-8.296508,-2.3971944,-0.7220903,-9.696428,-1.27603211409346989904,-1.982399,-8.326435,-2.4714148,-0.94853467,-9.66124,-1.38964511409346989905,-2.336741,-8.663419,-1.7794905,-1.0941548,-9.623334,-1.53773981409346989917,-4.3837833,-9.594165,-0.4770447,-1.2419728,-9.583534,-1.66844821409346989937,-4.9374423,-9.400234,0.05626374,-1.5205975,-9.539102,-1.69224951409346989938,-4.445434,-8.75799,0.08499416,-1.8054744,-9.49609,-1.65375691409346989941,-3.6290112,-8.823831,0.1388637,-2.0524707,-9.461623,-1.56058621409346989963,-2.381632,-9.230247,-0.3196259,-2.2313159,-9.444735,-1.41017941409346989964,-1.1773487,-9.72824,-1.0761937,-2.2637248,-9.450982,-1.31336051409346989983,-0.50517654,-10.201095,-1.6747441,-2.1789615,-9.476607,-1.27140511409346989984,-0.05207389,-10.797251,-1.5023615,-2.0161717,-9.508926,-1.29836571409346989994,-0.09995792,-11.211448,-1.2240356,-1.8022381,-9.548837,-1.31987181409346990016,-0.504578,-11.39221,-0.81163436,-1.6002164,-9.584474,-1.32196161409346990017,-0.53570265,-11.1899,-0.31423897,-1.4529337,-9.613146,-1.28327611409346990021,-0.50637364,-10.796653,0.15263036,-1.3349979,-9.640165,-1.2063911409346990048,-0.48602295,-10.477027,0.48482585,-1.2442327,-9.666073,-1.09054031409346990049,-0.49200845,-10.515334,0.6853402,-1.16827,-9.688482,-0.9689271409346990065,-0.6979098,-10.818799,0.7218518,-1.1057014,-9.707948,-0.838777841409346990066,-0.6344634,-11.055226,0.6512229,-1.0675813,-9.721779,-0.719507161409346990083,-0.22505496,-11.046248,1.3221979,-1.0267922,-9.733096,-0.61879691409346990084,0.32800564,-10.852318,3.020884,-0.95264226,-9.748836,-0.47232891409346990093,0.7858967,-10.236409,5.0182467,-0.83213836,-9.769555,-0.183641661409346990114,0.7062895,-10.150817,5.7065797,-0.6830656,-9.779288,0.2633041409346990115,-0.12808979,-10.868479,4.9559975,-0.56429625,-9.76294,0.73274641409346990128,-1.0097545,-11.208455,5.179257,-0.5306819,-9.733851,1.06813371409346990144,-2.4259248,-11.729194,6.8689647,-0.59510946,-9.689506,1.38914741409346990145,-4.2940006,-12.6060705,-1.0947487,-0.78509355,-9.600109,1.84171261409346990163,-6.0501475,-14.7955675,-2.755726,-1.0659541,-9.613457,1.61727021409346990164,-6.5960255,-14.502278,-4.0282445,-1.4220449,-9.613773,1.31283651409346990179,-6.296152,-13.730747,-3.169923,-1.7640053,-9.602147,0.925984741409346990181,-5.4222684,-13.918093,0.02633622,-2.0449455,-9.571522,0.61199931409346990193,-5.385158,-14.704588,3.6140475,-2.225914,-9.536668,0.517351409346990210,-5.7149596,-16.702549,10.059837,-2.353263,-9.493989,0.704764251409346990213,-3.6326025,-18.332403,13.789405,-2.4294667,-9.405862,1.34083151409346990227,-1.8884265,-16.912043,3.7259765,-2.4090548,-9.404687,1.3851741409346990243,-1.9416976,-14.222157,-3.1435869,-2.204652,-9.317585,2.11955361409346990243,-2.0296845,-12.517485,-3.8534677,-2.1921015,-9.391079,1.78121341409346990261,-2.9921536,-12.330139,-5.246893,-2.1922925,-9.447065,1.45506131409346990262,-3.6182373,-10.736199,-6.2243257,-2.2173254,-9.499448,1.00715341409346990275,-3.3806129,-9.960478,-5.752668,-2.317011,-9.516319,0.49146331409346990281,-3.3273418,-10.107721,-5.1265845,-2.408262,-9.506296,0.031647551409346990296,-2.5187001,-10.481216,-4.660912,-2.4896848,-9.4786625,-0.356140021409346990313,-1.6364368,-11.768699,-4.0623617,-2.4973536,-9.460483,-0.6579491409346990314,-0.7781156,-14.571112,-2.896984,-2.4254382,-9.462082,-0.86982821409346990329,1.0456676,-18.769943,0.8439561,-2.2590685,-9.494647,-0.95848411409346990347,4.2060137,-19.608511,4.187459,-1.9129778,-9.589539,-0.742737231409346990348,7.557896,-19.608511,1.0546459,-1.3917544,-9.701555,-0.336495941409346990362,7.7985134,-18.130692,-1.8429368,-0.72400886,-9.777928,-0.195800161409346990362,5.3683987,-14.328698,-2.6737247,-0.12711027,-9.802756,-0.245388981409346990377,3.2154129,-11.258734,-4.2317514,0.27181146,-9.796003,-0.36716861409346990392,1.8495208,-9.932944,-3.435081,0.50305885,-9.774083,-0.62016711409346990393,0.90261406,-8.807071,-3.3973722,0.5985738,-9.754264,-0.81635641409346990408,0.3321955,-8.579621,-2.9694088,0.6016469,-9.735773,-1.01151181409346990424,0.4237737,-8.562862,-2.633622,0.5743682,-9.720732,-1.16097131409346990425,1.0372878,-8.373122,-2.7635074,0.5520812,-9.706597,-1.28356181409346990447,1.7753005,-8.073248,-2.8281507,0.5901345,-9.687113,-1.40782391409346990448,1.941099,-7.6135616,-3.4314895,0.6871517,-9.661325,-1.53525111409346990468,1.2096704,-7.1101804,-4.44304,0.8007272,-9.621206,-1.72094121409346990469,1.1378443,-6.1249666,-4.812944,0.85177493,-9.563161,-1.99770681409346990475,0.7823054,-5.8125234,-6.049549,0.8956404,-9.48538,-2.3228761409346990501,1.323395,-5.6006365,-5.2247467,0.909678,-9.372312,-2.73910281409346990502,1.7914615,-5.257667,-2.6180596,0.9772268,-9.257154,-3.08553151409346990502,1.7286136,-5.035006,-0.7811083,1.1140844,-9.210245,-3.17814021409346990513,2.0691888,-4.5567646,-0.43394905,1.2220646,-9.223826,-3.09806541409346990525,2.593519,-3.912724,-0.86011696,1.3582962,-9.239997,-2.99129961409346990554,3.1423898,-3.2854433,-1.5209166,1.575548,-9.2200575,-2.94594881409346990555,3.3614593,-2.8652608,-2.3080103,1.8873563,-9.147609,-2.98822981409346990556,3.4123359,-2.8269536,-3.1124623,2.237757,-9.020376,-3.1298051409346990562,3.5901055,-2.8909986,-3.6062663,2.5727148,-8.84645,-3.3603351409346990590,3.7044287,-3.0615854,-3.7720647,2.9067078,-8.628011,-3.64401411409346990591,3.8983588,-3.300407,-3.6577415,3.2259974,-8.389072,-3.9225991409346990596,4.8614264,-4.780622,-3.4237084,3.5390553,-8.149119,-4.151791409346990616,4.3394904,-6.467936,-2.542642,3.886725,-7.947589,-4.23079351409346990617,2.8580782,-9.032125,2.32058,4.073573,-7.908828,-4.1263561409346990622,-5.1319714,-15.719131,18.025347,4.045885,-8.269419,-3.3790441409346990650,-14.106038,-19.608511,18.954296,4.1081133,-8.173248,-3.5343731409346990651,-19.60911,-19.608511,17.861343,4.1824126,-8.049777,-3.72544461409346990656,-19.60911,-19.608511,12.879608,4.237367,-7.9380946,-3.89894871409346990662,-16.337435,-16.668432,6.7199254,4.2226825,-7.894641,-4.0017531409346990685,-2.7665,-7.1927805,1.7483658,4.124915,-7.882167,-4.1263741409346990686,-5.5324016,-11.481394,2.9215245,-3.6156204,-8.486543,3.32810621409346990694,-4.4699745,-10.509947,3.9109285,-3.7855608,-8.492071,3.11844021409346990734,-1.2180501,-9.09258,4.044405,-3.7971594,-8.507264,3.06242591409346990736,0.58119243,-8.76637,2.3535004,-3.5920777,-8.567789,3.14012311409346990737,3.4093432,-10.564415,1.5634137,-3.2996547,-8.679395,3.15448261409346990739,6.2009826,-17.426197,-1.4395138,-2.6993265,-8.888768,3.14226871409346990742,6.1100025,-19.232023,-4.646547,-1.7914088,-9.254499,2.70471451409346990779,4.702811,-14.624383,-4.7309427,-1.035994,-9.543536,2.00449781409346990782,3.2513258,-11.71004,-1.3078327,-0.5337825,-9.683434,1.45484241409346990784,1.99437,-12.092514,2.475006,-0.2196417,-9.728172,1.21853351409346990812,2.9227216,-12.049418,1.2192472,-0.045452423,-9.72325,1.27543631409346990814,3.364452,-11.621455,-0.4758476,0.19371495,-9.734714,1.16972061409346990819,2.9281087,-9.603742,-1.0803835,0.442346,-9.745959,0.995482271409346990821,3.196858,-8.056489,-1.2844892,0.63379914,-9.7479105,0.864251551409346990888,3.6056678,-8.203134,-1.2330139,0.85798025,-9.74328,0.709067761409346990889,3.2842462,-9.033921,-1.353921,1.1172125,-9.727641,0.54334991409346990891,2.5234885,-9.442133,-1.8549078,1.3291782,-9.708497,0.385713131409346990892,1.8363527,-9.316438,-2.4343045,1.4613632,-9.695281,0.190659061409346990894,1.5795746,-8.38629,-2.8263552,1.5162363,-9.68862,-0.04545331409346990896,1.6921021,-7.4004774,-3.1591492,1.5586236,-9.677042,-0.309770581409346990897,2.1631613,-6.785766,-2.8311436,1.6149747,-9.654832,-0.58861681409346990898,2.5677812,-6.9186444,-2.0242975,1.7212571,-9.619093,-0.825059651409346990915,2.337938,-7.7440453,-1.0223241,1.8679532,-9.578126,-0.96987671409346990916,1.822586,-8.693346,-0.82360536,1.9814187,-9.552797,-0.994211551409346990922,1.543063,-9.714474,-0.9684546,2.0249958,-9.545226,-0.979006351409346990942,1.1474211,-10.996569,-1.2294226,2.011536,-9.54888,-0.97107851409346990943,0.60573304,-12.239758,-1.6124948,1.9246465,-9.567416,-0.964716551409346990961,-0.2825158,-13.241731,-1.8441339,1.7799308,-9.593068,-0.98754971409346990962,-1.1504139,-13.106459,-1.9859903,1.5541528,-9.628555,-1.02268161409346990979,-1.2318168,-11.780669,-1.6681601,1.2717048,-9.664938,-1.0687221409346990993,-0.94930094,-10.387842,-2.2816741,1.0157149,-9.69283,-1.08984341409346990994,0.20171149,-9.257779,-3.4314895,0.80489427,-9.7024,-1.17726921409346991007,1.4502877,-8.792706,-7.1466923,0.7175866,-9.68221,-1.3821241409346991024,0.20649989,-9.404425,-8.012196,0.75916827,-9.586621,-1.92112891409346991024,-2.846706,-10.679935,-4.469376,0.6840993,-9.458907,-2.49628781409346991040,-3.41473,-10.09575,-3.0107086,0.35864276,-9.407823,-2.7449341409346991042,-3.6373909,-9.572019,-0.4429273,0.020774493,-9.376676,-2.87192081409346991067,-3.8367083,-9.555858,0.053869538,-0.31422552,-9.418553,-2.71338341409346991068,-3.6050692,-9.775525,0.4357447,-0.6540987,-9.464099,-2.48462561409346991076,-3.7726634,-10.478823,1.0749966,-0.9421476,-9.508773,-2.20589851409346991103,-3.7816415,-11.212047,1.1354501,-1.206428,-9.550384,-1.8721861409346991103,-3.6912606,-11.45865,1.3347675,-1.4251541,-9.574371,-1.57185571409346991104,-3.448249,-11.262324,1.4431051,-1.6158214,-9.5872135,-1.2825051409346991125,-3.072958,-10.88823,1.9093759,-1.7679694,-9.59176,-1.02117551409346991126,-2.835932,-10.377667,2.2876596,-1.8760633,-9.595717,-0.756943351409346991143,-2.658761,-10.081385,2.6402059,-1.9602199,-9.595877,-0.49703991409346991143,-2.4037786,-9.996989,3.086126,-2.0254726,-9.592229,-0.238714471409346991157,-2.0153193,-9.982624,3.4261026,-2.0622966,-9.587288,0.0350610061409346991164,-1.5508442,-10.035895,3.6601357,-2.0559669,-9.5834875,0.31645741409346991181,-1.2132617,-10.184934,3.834314,-2.009867,-9.57976,0.599186061409346991182,-0.88765025,-10.23222,3.757101,-1.9343295,-9.5752325,0.86237681409346991224,-0.6919243,-10.295067,3.5583823,-1.8384839,-9.571435,1.0853591409346991225,-0.58298814,-10.422559,3.281852,-1.7388625,-9.568079,1.2643631409346991226,-0.44651863,-10.73979,2.9706059,-1.6383948,-9.565763,1.40791751409346991228,-0.22325931,-11.070788,2.641403,-1.5293994,-9.567322,1.51580881409346991252,0.07182605,-11.2928505,2.2373815,-1.4067478,-9.573552,1.5932811409346991253,0.2693477,-11.694478,1.4682442,-1.2686619,-9.588524,1.6189811409346991256,-0.1933318,-12.951434,0.88405895,-1.1213597,-9.611865,1.58902221409346991275,-1.5753847,-14.404715,0.7906851,-1.0161517,-9.637418,1.50265791409346991275,-3.6230257,-14.569316,1.4796166,-1.0186169,-9.649892,1.41859141409346991296,-5.0918684,-14.143746,1.1522095,-1.1744965,-9.632543,1.41600841409346991297,-5.839458,-13.729549,-0.36152446,-1.4179901,-9.603635,1.38920551409346991302,-5.9262476,-13.888165,-0.6135142,-1.6980478,-9.579735,1.23113431409346991326,-5.553351,-15.006258,1.2922704,-1.9589615,-9.550598,1.05780471409346991327,-4.3885717,-15.90169,3.426701,-2.1480875,-9.512575,1.03296921409346991340,-4.1826706,-16.912043,9.029732,-2.211192,-9.482044,1.17125391409346991342,-4.2197804,-17.690756,12.076952,-2.2151825,-9.404156,1.68083731409346991359,-1.9841946,-15.42644,3.4644098,-2.1984196,-9.280015,2.2844451409346991376,-1.9548657,-13.61762,-3.9258924,-2.144463,-9.282811,2.32402471409346991377,-2.598906,-12.536638,-7.1263413,-2.1544492,-9.363273,1.96414631409346991391,-3.2824504,-11.126453,-7.949348,-2.171803,-9.464672,1.36880641409346991397,-3.3159695,-9.300277,-8.214506,-2.2247977,-9.524174,0.714681409346991412,-2.6384103,-9.273342,-7.6105685,-2.3296468,-9.525913,0.0091830041409346991414,-1.929128,-10.623672,-6.707356,-2.3832247,-9.495999,-0.56271741409346991423,-0.9044097,-12.887389,-5.498883,-2.359295,-9.467346,-0.986650051409346991444,0.74758947,-16.794128,-3.8857894,-2.2312126,-9.465265,-1.26523131409346991445,3.0933087,-19.579184,-1.4670471,-1.9480207,-9.514034,-1.36337241409346991468,5.2684407,-19.608511,3.4799721,-1.497744,-9.609732,-1.25707481409346991469,5.046977,-19.331383,2.8030117,-0.94424164,-9.724054,-0.849465971409346991475,4.5262384,-16.720507,-4.010886,-0.4557979,-9.78109,-0.541212261409346991501,3.6924577,-12.025476,-4.9919105,-0.07712182,-9.779875,-0.72007121409346991502,2.8646624,-10.367492,-3.2632968,0.18936756,-9.757456,-0.96260351409346991503,2.1386206,-9.1033535,-2.8568811,0.36485067,-9.738418,-1.09567641409346991523,1.8620903,-8.135497,-3.614646,0.47453213,-9.718399,-1.22389951409346991524,1.5113398,-7.703344,-4.1455603,0.5585934,-9.689008,-1.407651409346991539,1.2731167,-7.7649946,-2.771887,0.62266314,-9.651239,-1.62365341409346991543,1.4335283,-7.4968443,-2.6240451,0.67484194,-9.629893,-1.72630721409346991567,1.4454993,-6.949769,-2.9694088,0.7503499,-9.605055,-1.83037951409346991568,0.33997664,-6.627749,-4.0120835,0.8262056,-9.570021,-1.97547471409346991576,-0.45908818,-6.1064115,-4.9883194,0.80084556,-9.521583,-2.2064631409346991604,-0.14544775,-5.563526,-5.5180364,0.70953506,-9.449914,-2.52310631409346991604,0.82121116,-5.539584,-4.4023385,0.652697,-9.345889,-2.8980581409346991605,1.5532384,-5.33907,-2.2768857,0.6936568,-9.256068,-3.16456481409346991628,1.8052281,-4.7309427,-0.97144735,0.8086203,-9.230421,-3.21182511409346991628,1.9297266,-3.970185,-1.1414356,0.952313,-9.236338,-3.15493131409346991635,1.893215,-3.5075054,-2.0787656,1.0962214,-9.225582,-3.13963441409346991643,2.0961237,-3.1663318,-2.4863784,1.2429168,-9.172277,-3.23957821409346991657,2.8508956,-2.9137435,-1.8339585,1.4407468,-9.087892,-3.39188361409346991672,3.66672,-2.8748376,-1.5245079,1.7533784,-9.001811,-3.47324851409346991676,4.0922894,-2.9514523,-2.6862943,2.169973,-8.895731,-3.51106761409346991694,4.4861355,-3.1358056,-3.7948096,2.6129248,-8.70784,-3.67648841409346991695,5.092467,-3.3081882,-4.3915644,3.062662,-8.443994,-3.9356691409346991703,5.4462104,-3.7307649,-4.4328647,3.5333097,-8.1157875,-4.22139021409346991724,5.216367,-4.817134,-3.6272156,3.9795046,-7.786203,-4.4394791409346991725,4.1359835,-6.8079123,-0.44592008,4.3043237,-7.5779467,-4.4964351409346991738,1.0169371,-10.605715,10.278308,4.453257,-7.7026076,-4.12415841409346991743,-7.479486,-17.53274,18.983625,4.228375,-8.535509,-2.33159111409346991763,-16.340427,-19.608511,17.964893,4.2872534,-8.441561,-2.5553621409346991764,-19.591154,-19.608511,15.053543,4.3376136,-8.3481045,-2.76851251409346991777,-18.937536,-19.608511,12.051214,4.3451505,-8.298697,-2.90201161409346991796,-10.677541,-15.085266,7.343615,4.2803845,-8.29582,-3.00467181409346991797,-4.3221326,-8.51857,3.6212301,-3.4339917,-8.46445,3.56808021409346991803,-7.327454,-9.516952,4.234744,-3.5726085,-8.432677,3.5066821409346991828,-2.9412768,-8.131308,5.0200424,-3.820233,-8.34359,3.45842531409346991829,-0.35075054,-8.630499,2.5743654,-3.7466846,-8.32565,3.57998661409346991834,3.0418332,-10.432136,-0.17537527,-3.4850879,-8.428513,3.60343271409346991847,6.6121864,-16.941372,-3.3333273,-2.9174788,-8.719003,3.41140371409346991871,7.518392,-19.254768,-5.217564,-2.003138,-9.181717,2.80248551409346991873,4.6842556,-15.307927,-3.6876693,-1.0923016,-9.5302,2.03778481409346991876,2.2409728,-11.33056,0.28072014,-0.56404465,-9.669534,1.53374611409346991902,2.095525,-10.812215,1.6837224,-0.31223056,-9.69768,1.42404431409346991903,3.028665,-11.791444,0.6278794,-0.114183724,-9.703523,1.41386621409346991903,3.5984852,-11.924321,-0.6434417,0.13093787,-9.719123,1.30073131409346991922,3.606865,-9.883265,0.47884035,0.39359483,-9.735394,1.11246261409346991923,3.804985,-7.0622964,0.11432313,0.6508453,-9.72967,1.03939571409346991940,3.8498764,-7.489063,-0.8762778,0.92706925,-9.714826,0.96596191409346991943,3.323152,-8.230667,-1.7501614,1.2110014,-9.696172,0.829535371409346991958,2.3157916,-8.71669,-2.4744074,1.4328253,-9.680502,0.636620341409346991979,1.572392,-8.604162,-2.6102784,1.5513101,-9.675861,0.37622841409346991980,1.3497312,-8.285135,-2.3014264,1.6028554,-9.674167,0.108268361409346991983,1.4951789,-8.264186,-1.8620903,1.6282655,-9.669832,-0.116167591409346992008,1.5460558,-8.675988,-1.678934,1.651536,-9.662346,-0.286172271409346992008,1.3569138,-9.35235,-1.4903905,1.6729081,-9.653812,-0.419161231409346992021,0.9056068,-10.171766,-1.4251486,1.6693013,-9.649772,-0.51549051409346992023,0.44532153,-11.162367,-1.4987702,1.6201912,-9.653915,-0.589323761409346992044,-0.21068975,-12.61445,-1.7794905,1.519463,-9.665695,-0.6602471409346992044,-1.2006922,-14.083293,-2.3864205,1.3447677,-9.685573,-0.7427281409346992055,-2.0608091,-14.3418665,-2.8461072,1.0785002,-9.709252,-0.858856741409346992073,-2.156577,-12.46601,-2.6922798,0.76248395,-9.726366,-0.993387641409346992074,-1.9608512,-10.13705,-2.521693,0.4879311,-9.73148,-1.10934021409346992090,-1.702876,-8.701127,-2.60968,0.24182168,-9.728117,-1.21478031409346992106,-1.3269863,-7.921815,-2.6605566,0.027858898,-9.715644,-1.33262571409346992107,-0.51714754,-7.4124484,-3.378817,-0.13074878,-9.69639,-1.46058171409346992121,0.919972,-7.7254906,-4.771045,-0.19454496,-9.661353,-1.67056271409346992123,0.47405192,-8.492832,-5.245097,-0.10819413,-9.597396,-2.01212551409346992136,-2.7072437,-9.243414,-3.5164838,-0.055388417,-9.51425,-2.37620661409346992153,-2.4486697,-8.851364,-2.070386,-0.30906245,-9.473762,-2.51449681409346992156,-1.8237832,-8.286931,-1.3251907,-0.4893591,-9.445872,-2.58967281409346992171,-1.6172832,-8.398261,-0.7368156,-0.61283904,-9.439039,-2.58831211409346992175,-1.5616181,-8.909423,-0.51714754,-0.7283961,-9.461285,-2.4746531409346992188,-1.4981717,-9.291897,-0.4261679,-0.82835406,-9.494588,-2.31019951409346992203,-1.42455,-9.760562,0.002992752,-0.90876263,-9.528195,-2.13496141409346992204,-1.1456255,-10.455479,0.30825347,-0.97097415,-9.566045,-1.92830061409346992223,-0.80804306,-11.083358,0.6817489,-0.99061996,-9.605918,-1.7074511409346992223,-0.6847417,-11.259931,0.7565677,-0.96209264,-9.6491995,-1.4620881409346992237,-0.7128736,-11.240777,0.4973954,-0.9246236,-9.684235,-1.23735981409346992254,-0.76075757,-11.122863,0.22325931,-0.8877023,-9.707832,-1.06786861409346992255,-0.9283517,-11.067796,-0.05805939,-0.85652393,-9.722974,-0.948973951409346992263,-0.9343372,-11.265916,-0.1412579,-0.8467685,-9.730555,-0.87730851409346992280,-0.842759,-11.612476,0.025737667,-0.8431366,-9.735518,-0.824151041409346992283,-0.76434886,-11.920731,0.3645172,-0.8343311,-9.741207,-0.7636591409346992309,