time,acc_x,acc_y,acc_z,gravity_x,gravity_y,gravity_z1409347171928,-0.059855044,-9.639654,1.6089035,0.3481731,-9.660664,1.64947341409347171928,-0.17118542,-9.7084875,1.6603789,0.3483666,-9.661053,1.64713881409347171952,-0.23104046,-9.885659,1.857302,0.34745267,-9.661778,1.64307881409347171970,-0.2621651,-9.92636,1.9841946,0.34607115,-9.662856,1.6370221409347171971,-0.24181437,-9.993398,2.111686,0.34428865,-9.664066,1.63023511409347171972,-0.1921347,-9.8515415,2.203264,0.34036973,-9.665663,1.62157771409347171975,-0.15083471,-9.69951,2.2439656,0.33497313,-9.667633,1.61091541409347171997,-0.09935937,-9.750985,2.2649148,0.32882163,-9.6699505,1.59822731409347171998,0.013766659,-9.900024,2.319383,0.32349867,-9.672492,1.58386851409347172009,0.10175357,-9.920973,2.396596,0.31974897,-9.67515,1.56831151409347172030,0.16879122,-10.062231,2.4911668,0.31622985,-9.677795,1.55263161409347172031,0.24540567,-10.286688,2.5785553,0.3128136,-9.680239,1.53801921409347172036,0.3585317,-10.331579,2.570774,0.31019935,-9.682423,1.52475631409347172058,0.48482585,-10.163984,2.3942018,0.31083152,-9.683983,1.51468441409347172059,0.49559975,-9.86471,2.2242134,0.3138038,-9.6847515,1.50914261409347172084,0.5033809,-9.565434,2.1416135,0.31821722,-9.684647,1.50890181409347172085,0.5422867,-9.475652,2.119467,0.3253712,-9.683652,1.51374631409347172090,0.6745663,-9.334992,2.0189106,0.3345549,-9.682099,1.52165721409347172114,0.75716627,-9.269751,1.9075803,0.34471944,-9.680557,1.52917771409347172115,0.8499416,-9.484032,1.893215,0.35542557,-9.679221,1.53517081409347172116,0.9427169,-9.994595,1.9698294,0.3669342,-9.678163,1.53912511409347172145,1.0378864,-10.568604,2.1978772,0.37894613,-9.67723,1.5420881409347172145,1.0426749,-10.851719,2.3660698,0.39185354,-9.675975,1.54672271409347172149,0.96067345,-10.833164,2.48159,0.40667644,-9.673997,1.55525271409347172156,0.78170687,-10.666767,2.4474726,0.4254922,-9.670632,1.5710571409347172172,0.66139823,-10.542868,2.3008277,0.44825962,-9.665617,1.59541051409347172178,0.623091,-10.420164,2.023699,0.4736156,-9.65911,1.62717041409347172189,0.6206968,-10.348937,1.7238252,0.4986308,-9.652255,1.6600411409347172203,0.5758055,-10.347141,1.553837,0.5238599,-9.644775,1.69536891409347172209,0.5177461,-10.329185,1.4850036,0.5472124,-9.637211,1.73063721409347172221,0.41359833,-10.219051,1.489792,0.5690689,-9.629902,1.76396261409347172241,0.25617957,-10.123882,1.5041572,0.58957595,-9.62317,1.79370251409347172242,0.107739076,-10.16578,1.5574282,0.60782796,-9.617215,1.8193671409347172255,-0.07062895,-10.195708,1.5328877,0.6230299,-9.61195,1.84191911409347172256,-0.15682021,-10.274118,1.4335283,0.6356997,-9.607058,1.86298761409347172275,-0.23942018,-10.552444,1.3862427,0.6444626,-9.602847,1.88159531409347172278,-0.40880993,-10.555437,1.6496049,0.6477523,-9.59936,1.89817641409347172288,-0.61052144,-10.583569,1.9542671,0.6458119,-9.596124,1.91512531409347172307,-0.7218518,-10.701483,2.171541,0.6407491,-9.593119,1.93181221409347172309,-0.7344214,-10.723031,2.2972364,0.6325474,-9.5905485,1.94722131409347172333,-0.6973112,-10.560823,2.2732944,0.6202455,-9.588398,1.96171981409347172334,-0.6560113,-10.350733,2.1511903,0.60247785,-9.586778,1.975121409347172336,-0.61052144,-10.2406,1.8830396,0.5810086,-9.585512,1.98766331409347172354,-0.5895722,-9.8677025,1.7316064,0.55372286,-9.585049,1.99765851409347172356,-0.59376204,-9.789292,1.7100586,0.5200509,-9.584999,2.0069281409347172375,-0.5081693,-9.998186,1.6579847,0.4802695,-9.585383,2.01497841409347172377,-0.32621,-10.031107,1.6681601,0.43496877,-9.586373,2.02055841409347172394,-0.04249708,-9.788693,1.7794905,0.38501757,-9.587724,2.0242741409347172408,0.16400282,-9.482835,1.8746599,0.33232057,-9.589173,2.02675131409347172409,0.19512744,-9.464878,2.1068976,0.28325608,-9.590411,2.02834821409347172428,0.054468088,-9.858126,2.5486276,0.23448066,-9.592045,2.02684381409347172429,-0.0796072,-10.169372,2.9777884,0.19145752,-9.593921,2.02248621409347172436,-0.010175358,-10.35193,3.1974564,0.15364128,-9.595955,2.01604991409347172461,0.24480712,-10.264542,3.09271,0.11729864,-9.597906,2.00919411409347172462,0.60932434,-9.794679,2.724003,0.07817308,-9.599522,2.00336121409347172469,0.8846575,-9.296086,2.3822308,0.036533203,-9.601,1.99747041409347172477,0.9888053,-9.025542,2.2469583,-0.004286299,-9.6029215,1.98853591409347172498,0.92775315,-9.329007,2.393603,-0.04428104,-9.60513,1.9773541409347172499,0.83378077,-9.968259,2.7132292,-0.075325586,-9.607947,1.9626691409347172529,0.78290397,-10.274716,2.9771898,-0.09814269,-9.61114,1.94595471409347172530,0.7870938,-10.266935,3.1316159,-0.115844935,-9.614483,1.92839321409347172531,0.78410107,-10.117298,3.0921116,-0.13330401,-9.617431,1.91249371409347172536,0.8319851,-9.951499,3.0137014,-0.15354922,-9.619819,1.89891531409347172555,0.88046765,-9.959281,2.9179332,-0.17549188,-9.621305,1.88946121409347172556,1.0055647,-9.940127,2.6378117,-0.19684389,-9.622356,1.8819881409347172575,1.0528502,-9.755175,2.256535,-0.21713206,-9.622467,1.87919341409347172594,0.9504981,-9.361329,1.9686323,-0.23236178,-9.6216755,1.88142451409347172597,0.9660604,-9.118318,1.774702,-0.2428332,-9.619871,1.88931331409347172597,1.1408371,-9.185953,1.6555905,-0.24566081,-9.617546,1.90075651409347172638,1.3485341,-9.425373,1.5777789,-0.24000527,-9.615314,1.91272871409347172639,1.3605051,-9.545084,1.5382746,-0.22447541,-9.613483,1.92378081409347172640,1.2922704,-9.466674,1.5885528,-0.19735037,-9.612011,1.93408181409347172640,1.270124,-9.359533,1.6118963,-0.16298048,-9.610453,1.94499841409347172670,1.2509704,-9.418191,1.6190789,-0.115795545,-9.609021,1.95543091409347172671,1.1953052,-9.668983,1.7016789,-0.05698387,-9.607655,1.96471671409347172672,1.0761937,-9.974843,1.7417817,0.009024434,-9.606025,1.97347631409347172685,0.91697925,-10.143634,1.7836803,0.08012071,-9.603931,1.98204181409347172690,0.6889315,-10.2974615,1.8806454,0.15123628,-9.600957,1.99226871409347172706,0.36152446,-10.455479,1.9931729,0.21792905,-9.596893,2.00562261409347172708,0.033518825,-10.642226,2.1511903,0.2767042,-9.5921545,2.02099041409347172731,-0.6775591,-11.163564,2.4486697,0.32667235,-9.586743,2.03912451409347172731,-0.91338795,-11.376049,2.27928,0.3662354,-9.580827,2.06011409347172736,-0.97144735,-11.247959,1.9339164,0.39638096,-9.575386,2.07972121409347172754,-0.93852705,-10.931925,1.4939818,0.41736558,-9.570605,2.09755161409347172756,-0.8379706,-10.580576,1.127669,0.42693275,-9.566247,2.11542631409347172787,-0.8002619,-10.380061,0.94211835,0.42524406,-9.562495,2.13265971409347172788,-0.7703344,-10.3214035,0.98581254,0.41628042,-9.559763,2.14662981409347172790,-0.7469909,-10.284293,1.1647792,0.4085285,-9.557547,2.1579661409347172805,-0.7769185,-10.250176,1.4227544,0.39794397,-9.556501,2.16456061409347172822,-0.7146692,-10.0664215,1.6184803,0.38995853,-9.556756,2.16489081409347172823,-0.64703304,-9.923966,1.7699136,0.38649815,-9.558105,2.15954181409347172844,-0.5398925,-10.008362,1.8339585,0.3860954,-9.560227,2.15020591409347172845,-0.41060558,-10.275315,1.8537107,0.38678837,-9.56294,2.13798361409347172850,-0.20829555,-10.408194,1.8303672,0.3866627,-9.565813,2.12511351409347172856,-0.074220255,-10.288484,1.7645266,0.38391602,-9.568491,2.1135271409347172870,0.007182605,-10.092158,1.6861166,0.37949032,-9.571067,2.10262941409347172891,0.079008654,-9.840169,1.7004818,0.3712658,-9.573894,2.09120421409347172895,0.13467385,-9.654618,1.7543513,0.36013097,-9.577267,2.07766561409347172918,0.13108255,-9.679159,1.8387469,0.3462816,-9.581176,2.0619321409347172919,0.11731588,-9.817424,1.9333179,0.330164,-9.585421,2.04477451409347172919,0.14305355,-9.871294,1.9141643,0.31315586,-9.589762,2.02701141409347172938,0.16460137,-9.790489,1.8483237,0.29667965,-9.594243,2.00820451409347172939,0.15682021,-9.668983,1.8716671,0.2806544,-9.598842,1.98843661409347172951,0.1592144,-9.482835,1.9063832,0.26501113,-9.603446,1.96824251409347172956,0.18435353,-9.523536,1.9937714,0.25046733,-9.608029,1.94767371409347172972,0.24600422,-9.5971575,2.0811598,0.23815936,-9.612834,1.92538821409347172989,0.30047232,-9.771336,2.1583729,0.22812457,-9.61803,1.90048771409347172990,0.3716998,-10.044274,2.2409728,0.21987551,-9.623684,1.87263811409347173004,0.43275195,-10.019734,2.2948422,0.21345161,-9.629593,1.84276081409347173019,0.41060558,-9.829395,2.3535004,0.20890959,-9.635181,1.8138441409347173020,0.32142156,-9.861118,2.4468741,0.20514527,-9.640248,1.78714941409347173036,0.3286042,-9.929952,2.4516625,0.20292203,-9.644301,1.76540821409347173037,0.34596214,-9.940127,2.445677,0.20243922,-9.647721,1.74667821409347173056,0.3238158,-10.003573,2.4366987,0.20234132,-9.650873,1.72919811409347173056,0.33039984,-10.067618,2.3798366,0.20173867,-9.653885,1.7123681409347173072,0.31603462,-10.078991,2.3493104,0.20056787,-9.656563,1.69733461409347173087,0.29388827,-10.226234,2.3319526,0.19851036,-9.6585655,1.68615041409347173105,0.27593175,-10.153211,2.267309,0.1966244,-9.66024,1.67674431409347173106,0.3196259,-10.156203,2.2296004,0.19381869,-9.661639,1.66899881409347173120,0.41479546,-10.277111,2.272696,0.18942104,-9.663299,1.65987041409347173120,0.47644615,-10.509348,2.4121583,0.18291064,-9.665275,1.64906251409347173140,0.4914099,-10.766725,2.6659436,0.17452976,-9.667269,1.63825821409347173141,0.6278794,-10.438121,2.657564,0.16500819,-9.668808,1.63013041409347173162,0.7918822,-10.111312,2.4893713,0.15673925,-9.669803,1.62503341409347173163,0.973243,-10.028712,2.3277626,0.15178747,-9.670344,1.62227861409347173170,1.1162965,-9.977836,2.4762032,0.15007015,-9.670882,1.61922741409347173190,1.1695676,-10.108319,2.6844985,0.15369974,-9.67115,1.61729671409347173190,1.292869,-10.081984,2.819771,0.16278204,-9.671275,1.61564781409347173206,1.4065934,-10.02572,2.8389246,0.17840193,-9.671058,1.61530051409347173228,1.448492,-9.979631,2.8550856,0.199151,-9.670064,1.61883041409347173229,1.441908,-9.940725,2.831742,0.2235203,-9.667815,1.62904261409347173231,1.3299791,-9.768343,2.6868927,0.25062868,-9.664039,1.64740251409347173237,1.2150574,-9.703101,2.404377,0.27604777,-9.659558,1.66946651409347173256,1.0773908,-9.8276,2.0440497,0.30442894,-9.653702,1.69816411409347173257,0.90021986,-9.9928,1.763928,0.33382982,-9.646747,1.73183671409347173271,0.6727707,-10.259753,1.5915456,0.3615303,-9.638934,1.76936531409347173284,0.46866497,-10.466252,1.4856021,0.38654375,-9.63049,1.80959031409347173292,0.3429694,-10.619482,1.3156139,0.40921792,-9.621827,1.85024151409347173309,0.31244332,-10.648212,1.1546037,0.4303411,-9.613305,1.88933091409347173310,0.39983168,-10.543466,0.96306765,0.44928107,-9.60534,1.92508841409347173318,0.45609543,-10.393828,0.88525605,0.46681204,-9.597915,1.95768011409347173345,0.40462008,-10.348937,1.0271125,0.47977763,-9.591679,1.98491941409347173346,0.16460137,-10.362703,1.2797008,0.4883356,-9.5867,2.0067631409347173350,-0.15322891,-10.395025,1.3910311,0.49272245,-9.582923,2.02366571409347173389,-0.40402153,-10.377667,1.4347254,0.49524087,-9.579785,2.0378481409347173392,-0.5422867,-10.305243,1.4981717,0.4964333,-9.57651,2.0529031409347173392,-0.7044938,-10.25676,1.5682021,0.49392042,-9.573079,2.06944821409347173393,-0.81881696,-10.230424,1.5795746,0.488302,-9.569784,2.08595231409347173417,-0.83737206,-10.253767,1.5292963,0.47705376,-9.567207,2.1003241409347173418,-0.80325466,-10.213664,1.4431051,0.4614549,-9.565561,2.11127731409347173421,-0.7469909,-10.117896,1.3335704,0.44067195,-9.564929,2.1185681409347173447,-0.6799533,-9.982025,1.2324153,0.41508713,-9.565387,2.1216661409347173447,-0.61770403,-9.978435,1.2210429,0.38628832,-9.566826,2.1206211409347173450,-0.52073884,-10.031705,1.2695254,0.35530633,-9.569463,2.11413381409347173476,-0.34715924,-10.028712,1.3808558,0.32289165,-9.573628,2.1004211409347173477,-0.17896658,-9.922171,1.6035166,0.29224136,-9.57839,2.08313371409347173478,-0.05925649,-9.856929,1.8321629,0.26057607,-9.584516,2.05901981409347173489,0.02932897,-9.829395,1.988983,0.22946577,-9.591669,2.0291931409347173517,0.093373865,-9.743204,2.0644004,0.19972967,-9.599362,1.99568221409347173518,0.12270284,-9.767146,2.078167,0.17166999,-9.606916,1.9616521409347173520,0.14185645,-9.88506,1.9853917,0.14447978,-9.613981,1.92896021409347173545,0.24420857,-9.982624,1.83336,0.117646135,-9.620672,1.89716231409347173547,0.36990416,-10.046669,1.7160441,0.09041531,-9.62738,1.86434021409347173550,0.5243302,-10.039486,1.6747441,0.06314298,-9.634262,1.82959451409347173602,0.7589619,-10.040684,1.7369933,0.033946402,-9.641649,1.79105221409347173603,1.0163386,-10.0987425,1.9045875,0.004531798,-9.649743,1.74723771409347173604,1.3281834,-10.223241,2.180519,-0.02411825,-9.658582,1.69753111409347173605,1.6358383,-10.414778,2.5288756,-0.05017682,-9.667715,1.64412571409347173606,1.834557,-10.632649,2.8772318,-0.07157675,-9.676545,1.59051921409347173642,1.9321208,-10.692505,3.1519666,-0.08599428,-9.6842165,1.54237911409347173642,1.927931,-10.613496,3.1190462,-0.09604952,-9.690788,1.49993871409347173643,1.62686,-10.339958,2.8095956,-0.10037439,-9.695915,1.46613471409347173644,1.477821,-10.092158,2.5115175,-0.10282032,-9.699297,1.44342241409347173651,1.3275849,-9.862315,2.1529858,-0.10407559,-9.700219,1.4371191409347173674,1.0085574,-9.894038,1.7411832,-0.1073416,-9.69859,1.44783091409347173675,0.6769605,-10.019135,1.4389153,-0.11446225,-9.694865,1.4720361409347173677,0.45010993,-10.0341,1.2677298,-0.12138883,-9.689739,1.50486561409347173720,0.29209262,-9.9712515,1.174356,-0.12584026,-9.684304,1.53910111409347173720,0.18195933,-9.989806,1.1408371,-0.13141192,-9.6785145,1.574641409347173721,0.076614454,-10.175357,1.2030864,-0.1372399,-9.673062,1.60730841409347173722,-0.006584055,-10.454881,1.2898762,-0.14404199,-9.668319,1.63500941409347173735,-0.046088383,-10.535685,1.3485341,-0.1513181,-9.664394,1.65740541409347173737,-0.016759412,-10.590153,1.3227965,-0.15908231,-9.660972,1.67651691409347173754,0.1604115,-10.745177,1.2755109,-0.16606793,-9.657877,1.69358151409347173768,0.45130703,-10.89661,1.151611,-0.17171587,-9.654841,1.7102521409347173771,0.7517793,-11.028292,1.0552444,-0.17556436,-9.65199,1.72587751409347173786,1.0923545,-11.161768,0.9876082,-0.17976679,-9.649044,1.74184371409347173788,1.5646108,-11.307815,0.95708215,-0.18211685,-9.6459465,1.7586751409347173801,2.0368671,-11.158177,0.9367314,-0.1796192,-9.64273,1.77648831409347173819,2.441487,-11.077971,1.0259154,-0.17179713,-9.639226,1.79616571409347173820,2.7754784,-11.082161,1.0845734,-0.1571905,-9.6351,1.81947821409347173834,3.0813377,-11.0247,0.76434886,-0.13362287,-9.6304035,1.84604411409347173837,3.2555158,-10.944494,0.020949265,-0.100248426,-9.625341,1.8743391409347173861,3.2435448,-10.908582,-1.0253168,-0.066214055,-9.621032,1.89782571409347173862,3.0011318,-10.635642,-1.941099,-0.02341887,-9.618469,1.9117731409347173870,2.6390088,-10.38066,-2.5318682,0.01966244,-9.619641,1.90591791409347173885,2.086547,-10.237008,-2.7778726,0.06235095,-9.626836,1.86829751409347173904,1.3916297,-10.129868,-2.8221653,0.10335633,-9.64101,1.79182331409347173904,0.60214174,-10.128072,-2.9999347,0.14118192,-9.661171,1.67697531409347173919,0.1412579,-10.044873,-2.9005754,0.1748986,-9.684208,1.53489141409347173920,0.020350715,-10.020931,-0.96306765,0.21129692,-9.705155,1.39129771409347173939,0.52373165,-10.171766,2.557606,0.25140536,-9.720502,1.27240661409347173940,1.1492168,-10.336368,4.6519337,0.3092061,-9.729336,1.18946351409347173949,1.5903485,-11.128848,4.0132804,0.39308032,-9.732619,1.1366731409347173982,2.3786395,-12.090718,2.4486697,0.50404596,-9.730557,1.11022041409347173983,2.7682958,-12.864644,-0.074220255,0.64156467,-9.72403,1.09638481409347173984,1.6011224,-13.012486,-3.3782187,0.7922015,-9.717454,1.05542091409347174016,0.717662,-12.273276,-4.5040917,0.933521,-9.713858,0.969493871409347174023,0.24600422,-11.770494,-1.9596541,1.0641897,-9.7094965,0.8738241409347174024,-0.17657238,-11.711836,1.4634558,1.1919358,-9.701542,0.793603061409347174026,-0.5530606,-11.489774,2.6390088,1.3133453,-9.69111,0.72657651409347174048,-0.7691373,-11.303026,3.0951042,1.4246783,-9.680805,0.650154351409347174049,-0.66618663,-10.937312,3.2345665,1.514883,-9.672351,0.566722041409347174052,-0.49679685,-10.310031,2.8832173,1.5766835,-9.667177,0.47972531409347174072,-0.49200845,-9.595362,2.0254946,1.6113906,-9.665686,0.385160771409347174072,-0.5542577,-9.106945,0.97264445,1.6346812,-9.665167,0.287681821409347174077,-0.5650316,-8.977059,-0.6548142,1.6461763,-9.6657095,0.1859821409347174107,-0.6913257,-8.926183,-1.0959458,1.6537361,-9.665808,0.087898651409347174107,-0.878672,-8.651448,-1.2060791,1.6593635,-9.665241,0.0029389761409347174111,-0.55365914,-8.45213,-1.0618285,1.6625476,-9.664441,-0.069957921409347174118,0.01616086,-8.6712,-1.2599486,1.6648995,-9.663379,-0.132778821409347174146,0.5327099,-8.943541,-1.7411832,1.6639098,-9.662531,-0.193080441409347174149,1.8034325,-8.459313,-1.9644425,1.6588101,-9.661951,-0.255913621409347174151,2.867655,-8.201937,-1.6101006,1.6605394,-9.659796,-0.318337051409347174178,3.2932243,-8.347384,-1.2880806,1.6654509,-9.6568575,-0.3765111409347174179,3.2848446,-8.365939,-0.8074445,1.6736431,-9.653045,-0.433643341409347174179,3.2160115,-8.121731,-0.40162733,1.6932287,-9.646937,-0.48989951409347174206,3.072958,-8.036138,0.50397944,1.727316,-9.638018,-0.543492561409347174207,3.4117374,-7.8009076,0.98581254,1.769059,-9.62794,-0.586156251409347174209,3.715801,-7.657854,1.091756,1.8151551,-9.617585,-0.6145191409347174218,4.478953,-7.97748,0.51116204,1.8630319,-9.607104,-0.6348721409347174246,5.04578,-8.397662,-0.32441434,1.9149164,-9.596208,-0.645229761409347174248,4.799776,-9.02614,-1.7357962,1.9719993,-9.584683,-0.644565761409347174252,3.9893386,-9.41041,-2.6276364,2.0311887,-9.572569,-0.6408021409347174276,3.0538042,-9.347562,-2.1769278,2.0929902,-9.558896,-0.645975051409347174277,2.3535004,-8.903438,-1.3030443,2.1535058,-9.544326,-0.66234861409347174278,2.0620062,-8.262989,-0.39264908,2.20623,-9.530485,-0.68761521409347174309,1.9309237,-7.958925,-0.19512744,2.2495692,-9.518394,-0.71415191409347174310,2.0590134,-8.147469,-0.76075757,2.2873485,-9.507451,-0.739483361409347174311,2.4247277,-8.680179,-1.5927427,2.3145018,-9.499228,-0.760363641409347174318,2.9161377,-9.140464,-2.0338743,2.3315246,-9.493806,-0.775912461409347174339,3.3022027,-9.399037,-1.9680338,2.3397985,-9.490908,-0.78639591409347174340,3.4715924,-9.451111,-1.7537527,2.3409781,-9.490049,-0.793219031409347174352,3.448249,-9.421184,-1.4856021,2.3358006,-9.490756,-0.799991851409347174383,3.3512838,-9.317635,-1.3988123,2.3240778,-9.4930105,-0.807343961409347174385,3.196858,-9.172785,-1.3892355,2.3063781,-9.496613,-0.815706731409347174386,3.177704,-9.100361,-1.543063,2.2855067,-9.501058,-0.8226591409347174423,3.1399956,-9.119514,-1.6292542,2.2614875,-9.506408,-0.82721131409347174424,2.5701754,-9.423578,-1.1833342,2.2345755,-9.512839,-0.82639941409347174426,1.2401965,-10.290278,-0.12449849,2.2028847,-9.521305,-0.813924551409347174428,-0.60932434,-11.933898,0.93373865,2.1602404,-9.5336,-0.783749761409347174432,-2.0147207,-14.416685,1.0378864,2.0940294,-9.552247,-0.73483931409347174472,-3.1507695,-16.786346,-0.3573346,1.9935266,-9.578229,-0.673629941409347174473,-4.4179006,-18.500595,-6.479907,1.8601389,-9.608593,-0.62065241409347174473,-2.0590134,-18.103756,-12.012308,1.6820108,-9.639079,-0.65527071409347174474,3.855862,-16.432604,-6.425439,1.5350128,-9.654078,-0.782901051409347174478,8.0127945,-13.827113,2.7299886,1.4948474,-9.656687,-0.827201961409347174503,7.076063,-11.188105,7.0066314,1.5302699,-9.653758,-0.79602531409347174504,3.696049,-8.624513,5.8161144,1.5844938,-9.650984,-0.719928741409347174526,0.18794483,-6.771401,4.1186256,1.6265694,-9.649241,-0.64561261409347174527,-2.0973208,-6.1040173,2.540248,1.6624727,-9.647114,-0.58288411409347174532,-3.6493618,-6.10282,1.8501194,1.6930314,-9.644504,-0.53630121409347174562,-3.4422636,-6.9252286,1.7597382,1.7184112,-9.6427,-0.485550641409347174563,-2.920926,-7.521983,1.1474211,1.730835,-9.643665,-0.417504131409347174564,-2.5779567,-8.1642275,0.88286185,1.7177118,-9.649074,-0.339461681409347174571,-2.381632,-8.84478,1.0869676,1.671338,-9.659608,-0.262651981409347174587,-1.99437,-9.803658,1.0989386,1.6007544,-9.673077,-0.19884151409347174592,-1.4903905,-10.451887,0.64703304,1.5224627,-9.686526,-0.154069451409347174598,-1.0235212,-10.733206,0.31423897,1.4453562,-9.698745,-0.125289931409347174617,-0.6721721,-10.9426985,0.24779987,1.3721815,-9.709593,-0.106434431409347174619,-0.29927522,-11.066,0.24420857,1.2986927,-9.719824,-0.0939215651409347174646,0.05865794,-11.110293,0.2825158,1.2227746,-9.7297325,-0.086616211409347174647,0.4177882,-11.233594,0.41958386,1.1414566,-9.739622,-0.085062551409347174654,0.6344634,-11.306019,0.7685388,1.0528947,-9.749566,-0.088118431409347174677,0.5746084,-11.309011,1.0324994,0.9555383,-9.759532,-0.094144851409347174678,0.62368953,-11.450869,0.9540894,0.8505612,-9.769138,-0.1043792441409347174678,1.0348936,-11.711836,0.9415198,0.74411625,-9.7776575,-0.118643921409347174701,1.9243397,-11.538856,2.0931308,0.6400722,-9.784759,-0.13854281409347174702,2.8550856,-10.801441,3.99293,0.5404554,-9.790413,-0.16157471409347174721,2.7407625,-10.046669,6.0836663,0.4446654,-9.79466,-0.193111421409347174722,2.7802668,-9.759963,5.477335,0.35434946,-9.797693,-0.223725171409347174730,3.8043866,-9.3583355,2.908955,0.29273236,-9.799328,-0.240562321409347174750,4.091092,-8.9363575,2.610877,0.26918432,-9.80038,-0.224700731409347174750,3.9025488,-8.919599,3.5859156,0.25770488,-9.801576,-0.181986211409347174774,3.6762967,-8.99322,4.5555673,0.25474137,-9.80288,-0.0950561241409347174775,3.0376434,-9.139865,4.4196963,0.25642917,-9.80327,0.0224134921409347174779,2.4265234,-9.200318,3.3273418,0.25632572,-9.801935,0.163618791409347174814,1.9201498,-9.078215,2.7820623,0.26045537,-9.798091,0.3161791409347174815,1.6843209,-9.114127,2.1440077,0.2729545,-9.791326,0.475249621409347174819,1.3227965,-9.536105,1.4867992,0.2936299,-9.781972,0.630225061409347174822,1.2120646,-9.87668,0.6206968,0.319521,-9.76982,0.786722661409347174837,1.3102269,-9.865907,-0.12270284,0.3451479,-9.754963,0.94443021409347174838,1.2336124,-9.901221,-0.76075757,0.37713325,-9.735413,1.11800461409347174852,0.9187749,-10.052056,-1.2180501,0.41201255,-9.711227,1.30103811409347174873,0.50397944,-10.2417965,-1.3916297,0.4476789,-9.683693,1.48190741409347174873,0.08140286,-10.280702,-1.4395138,0.48038173,-9.655113,1.64876031409347174878,-0.009576807,-10.075399,-1.1049241,0.50231856,-9.628514,1.79158131409347174904,-0.048482586,-9.881469,-0.8074445,0.5081997,-9.605824,1.90794031409347174907,-0.05686229,-9.855133,-0.45789108,0.5083529,-9.584426,2.01265621409347174911,-0.108936176,-10.120889,-0.21547815,0.49944153,-9.566566,2.09803031409347174919,-0.14544775,-10.170568,0.10594343,0.49382165,-9.550915,2.16946581409347174947,-0.088585466,-10.0341,0.4985925,0.49472764,-9.535649,2.23540281409347174947,-0.10594343,-10.08318,1.0456676,0.5006956,-9.519547,2.30171871409347174952,-0.25737667,-10.425551,1.733402,0.5071587,-9.502107,2.37131641409347174977,-0.39564183,-10.717046,2.3451207,0.51204014,-9.4833555,2.44421171409347174984,-0.31364042,-11.065402,2.7814639,0.5132795,-9.464621,2.51553271409347174992,-0.10175357,-11.449671,2.3080103,0.50825614,-9.445835,2.58616971409347175027,0.6787562,-11.713034,1.6124948,0.49726212,-9.431304,2.64076231409347175028,1.4478935,-11.546637,0.8026561,0.476051,-9.422315,2.67651941409347175029,2.5971103,-11.338341,0.3298013,0.4378611,-9.419233,2.693831409347175030,3.9833531,-11.338341,0.6997054,0.38225672,-9.42193,2.6928621409347175033,4.9386396,-11.596316,1.447295,0.31379604,-9.4315,2.66808991409347175062,5.3265004,-11.85489,4.2742486,0.23757556,-9.451384,2.60485821409347175063,5.973533,-12.412739,5.2409077,0.16863018,-9.4696245,2.5432631409347175063,7.2233067,-12.643181,3.7295678,0.12591143,-9.493677,2.45451381409347175093,7.3711486,-12.88679,1.7423803,0.12639847,-9.518425,2.35668951409347175094,6.1566896,-13.076531,0.26874915,0.14374737,-9.533186,2.2952311409347175097,4.608838,-13.464392,-1.3138182,0.14722016,-9.5344,2.28996521409347175099,3.7523127,-13.448231,-3.5009215,0.14275062,-9.526557,2.3226511409347175129,4.155137,-12.974179,-6.549339,0.14393896,-9.515934,2.36573151409347175130,5.577293,-12.588713,-9.762358,0.15189108,-9.513133,2.3764721409347175133,5.903503,-12.965799,-11.918935,0.1807634,-9.525452,2.32454181409347175161,5.218761,-13.345281,-11.729194,0.20096214,-9.560409,2.17453241409347175162,5.2397103,-12.7096195,-4.3406878,0.21499476,-9.610522,1.93959331409347175163,4.3317094,-11.07019,-0.8846575,0.25225028,-9.6505575,1.72438511409347175184,3.7271736,-10.998962,0.32920274,0.32136226,-9.689916,1.47398421409347175185,4.398747,-11.468824,3.7720647,0.43481612,-9.721319,1.21542741409347175200,4.329315,-10.031107,6.069301,0.59175944,-9.737351,1.00209211409347175200,3.1956608,-11.100717,4.2359414,0.75834787,-9.743733,0.80930971409347175215,2.6132712,-11.798027,3.7421372,0.9155564,-9.745523,0.5974031409347175218,2.0500352,-12.674305,4.9135003,1.0814035,-9.739051,0.389630621409347175230,1.2509704,-14.847043,6.3344593,1.2578087,-9.7236,0.19969081409347175248,-1.1019313,-18.475456,7.478289,1.4383264,-9.700564,0.0254775571409347175252,-2.7353754,-19.608511,8.875306,1.5939984,-9.675362,-0.130258951409347175266,-4.3382936,-19.608511,9.260174,1.731523,-9.648792,-0.270256041409347175281,-4.811148,-18.584393,5.288193,1.9334147,-9.598085,-0.555932941409347175282,-3.6098576,-15.775395,-0.6242881,0.9687359,-9.573857,1.89029181409347175297,-2.5198972,-13.405734,-3.6481647,0.5866327,-9.649272,1.64856741409347175298,-1.5460558,-11.440094,-1.2348095,0.29795974,-9.713465,1.31538061409347175315,-0.8595184,-10.158598,3.9486372,0.13617986,-9.735788,1.16888431409347175329,0.46088383,-8.662222,8.173804,0.07298545,-9.71289,1.35086871409347175331,0.051475335,-7.8422074,3.66253,0.14118104,-9.63299,1.83192371409347175350,-0.45729253,-7.9828672,2.147599,0.19869068,-9.598567,1.99961031409347175351,-0.6907272,-8.210915,2.5905263,0.175593,-9.591361,2.0360121409347175365,-0.51834464,-8.334216,1.8561049,0.12296119,-9.58423,2.07311441409347175384,0.5638345,-8.185177,1.1569979,0.051666476,-9.592542,2.03736571409347175385,2.0254946,-7.8972745,2.2894554,0.077121526,-9.6035385,1.98405551409347175399,2.8790276,-7.77517,3.0095115,0.23723377,-9.585847,2.0556331409347175399,2.779668,-7.5650787,3.4278982,0.49689242,-9.5464735,2.18823031409347175417,2.043451,-6.602011,3.3500867,0.7611644,-9.492293,2.34251861409347175419,0.83138657,-5.3486466,3.4380736,0.9398864,-9.438945,2.48864271409347175432,-0.6560113,-4.76087,3.4201171,0.97685534,-9.384507,2.6734211409347175454,-2.8568811,-4.2143936,3.3752258,0.8639979,-9.333762,2.88180161409347175454,-3.5290532,-3.6900635,4.076727,0.5155419,-9.2848215,3.1139521409347175459,-4.1880574,-3.5553896,3.8115692,0.09437165,-9.186205,3.43148951409347175500,-4.6112323,-3.435081,3.425504,-0.41266546,-9.066998,3.71344541409347175501,-4.869208,-3.5619736,2.802413,-0.9660174,-8.928282,3.9399241409347175502,-4.9559975,-3.7349546,2.6713305,-1.5426105,-8.788362,4.06883761409347175503,-4.9284644,-4.0138793,2.1164744,-2.1140199,-8.634961,4.1398991409347175527,-5.061941,-4.529231,2.1871033,-2.6385126,-8.496358,4.12559751409347175528,-5.106832,-5.109226,1.6208745,-3.1229753,-8.35035,4.0852261409347175530,-5.108628,-6.1159883,0.1604115,-3.5579762,-8.245456,3.94000821409347175550,-4.9224787,-7.7374616,-2.2864625,-3.9313028,-8.239614,3.58106141409347175569,-3.6032736,-10.05445,-10.259753,-4.2034254,-8.374124,2.89407371409347175571,1.0923545,-13.58051,-19.44451,-4.3520513,-8.67951,1.37700621409347175572,14.056358,-18.257584,-13.378799,-4.3520513,-8.67951,1.37700621409347175579,19.607914,-19.608511,-6.673837,-4.462029,-8.591244,1.56563961409347175603,19.607914,-19.608511,-10.064626,-4.5627513,-8.507856,1.72280591409347175603,17.378313,-19.491196,-10.593145,-4.5795407,-8.462082,1.89509491409347175612,12.206838,-14.3658085,-7.472902,-4.4883757,-8.471748,2.06260821409347175642,7.343615,-11.242573,-5.4234653,3.8664615,-8.406614,-3.24803381409347175643,2.5809495,-9.837176,-3.1064768,4.0476027,-8.313571,-3.26678011409347175644,-0.16519992,-7.2664022,-0.7164649,3.8691106,-8.381648,-3.308831409347175651,-1.228824,-4.88058,2.296638,3.6100001,-8.519674,-3.24860671409347175687,-1.8285716,-3.4973302,5.5461683,3.3822086,-8.703817,-2.99576831409347175689,-2.409764,-4.0701427,6.7384806,3.1726465,-8.9505005,-2.44811031409347175690,-3.7942111,-7.491457,7.1873937,2.8751233,-9.216024,-1.72307241409347175693,-5.394735,-12.147581,6.6056023,2.3050196,-9.494026,-0.848980671409347175699,-5.481525,-15.377359,5.627571,1.4550284,-9.697969,-0.051805011409347175737,-3.494936,-16.514006,3.3901896,0.63773036,-9.772444,0.51287061409347175738,-0.521936,-17.107769,-0.55485624,0.12853636,-9.776661,0.75550331409347175740,4.031237,-17.386095,-5.391144,0.007836686,-9.787951,0.605278851409347175742,4.3179426,-15.509639,-2.380435,0.27613574,-9.80219,0.105879131409347175775,1.2940661,-13.855246,-0.047285482,0.5656524,-9.7900915,-0.067432781409347175776,-1.4496891,-11.843517,1.0911574,0.6419439,-9.785467,-0.054108611409347175777,-3.3183637,-9.78989,2.2559366,0.53902036,-9.791751,0.038793551409347175779,-4.325724,-8.3629465,3.1411927,0.27595192,-9.80001,0.232545611409347175801,-4.685453,-7.630321,3.0789435,-0.08961598,-9.794639,0.4769051409347175801,-4.3400893,-7.1580644,2.2732944,-0.5005597,-9.769823,0.685844661409347175811,-3.1555579,-6.491279,1.2018893,-0.8777745,-9.732475,0.8239141409347175842,-1.8602947,-5.886145,0.08020575,-1.1674569,-9.698236,0.86697051409347175843,-1.5472529,-6.3302693,-1.0420763,-1.3287512,-9.682084,0.813667951409347175843,-1.8710686,-7.829638,-1.638831,-1.4153377,-9.68245,0.646031141409347175875,-1.6537948,-9.312247,-1.4820108,-1.4810215,-9.685605,0.40747081409347175876,-0.9768343,-10.483611,-1.2569559,-1.5028771,-9.688947,0.189922851409347175877,-0.061052144,-11.57836,-1.2635399,-1.4557159,-9.697987,0.0179880761409347175880,1.0420763,-12.491149,-1.3515269,-1.3110025,-9.717918,-0.117242821409347175906,2.146402,-12.237962,-0.3321955,-1.074246,-9.744037,-0.26488721409347175907,1.9668367,-11.479599,0.54288524,-0.76049453,-9.772548,-0.29892041409347175913,2.291251,-11.018116,2.8209682,-0.49890083,-9.790685,-0.25288581409347175947,4.8979383,-9.828796,16.168043,-0.2332482,-9.803876,-4.54E-041409347175948,7.398083,-8.033145,13.062166,0.3000725,-9.6940365,1.45120881409347175949,7.1329255,-8.838794,7.5411367,1.0067811,-9.441564,2.4522731409347175973,5.9783216,-9.258977,4.6519337,1.6138153,-9.224292,2.911771409347175974,4.6471453,-9.590573,3.1316159,2.0211048,-9.090353,3.07424781409347175975,3.9480386,-9.867104,4.51726,2.3030334,-8.996386,3.1514231409347175979,3.86903,-9.0716305,8.859145,2.455361,-8.90897,3.28205131409347175997,3.9749734,-8.214506,8.854357,2.5553515,-8.707439,3.71766731409347175999,4.722563,-8.406042,5.059547,2.6467216,-8.499595,4.11365371409347176013,5.182848,-9.483433,1.5316905,2.7905796,-8.401241,4.2192631409347176031,4.9458222,-10.307637,-0.57041854,2.9146338,-8.429063,4.0775241409347176033,4.27365,-10.783484,-1.4903905,2.9712183,-8.549602,3.77446371409347176044,3.4554317,-11.23958,-1.7238252,3.0455246,-8.695802,3.35830351409347176059,2.8263552,-11.823167,-1.4454993,3.0325665,-8.846442,2.9520141409347176060,2.1021092,-12.86644,-1.3497312,2.9873745,-8.981083,2.56634521409347176079,0.91697925,-13.733141,-2.392406,2.872069,-9.1153755,2.19808051409347176080,-0.24959552,-13.619416,-4.56275,2.655935,-9.271075,1.77864461409347176093,-1.5717934,-12.895769,-7.9212165,2.3671906,-9.436422,1.23317871409347176099,-2.7730842,-11.7681,-10.934917,1.9986589,-9.590058,0.454454661409347176113,-3.58412,-10.767922,-11.149199,1.576848,-9.664813,-0.52470721409347176130,-2.3493104,-9.955689,-7.691373,1.0950506,-9.634634,-1.46460961409347176131,-0.39205053,-9.752781,-4.660912,0.7411562,-9.555339,-2.07763461409347176150,0.82779527,-10.408792,-2.3157916,0.5721441,-9.490955,-2.40100031409347176153,1.6238673,-10.95467,-0.5069722,0.5270289,-9.4781065,-2.46133111409347176160,2.5737667,-11.050438,0.6811504,0.5809518,-9.511975,-2.31413911409347176185,4.024653,-10.387244,1.2892777,0.73727274,-9.56237,-2.04643031409347176186,4.675277,-9.989806,1.9452889,1.0126083,-9.595263,-1.75383871409347176191,4.367024,-10.87207,3.1124623,1.3480088,-9.60974,-1.41638721409347176199,5.865794,-11.960235,7.5926123,1.6235898,-9.618029,-1.01384391409347176217,8.878897,-11.018116,13.444639,1.9834297,-9.599608,-0.289689631409347176219,10.248381,-11.089344,11.157578,2.515193,-9.443254,0.81799571409347176231,9.010578,-13.389573,6.221333,3.0299606,-9.182298,1.63559221409347176245,8.002619,-13.834296,4.307169,3.3363283,-8.9917555,2.04637311409347176261,6.667852,-13.014282,1.9183542,3.5233169,-8.856727,2.3054311409347176261,5.6335564,-13.069348,-3.5128925,3.6385496,-8.819923,2.26722121409347176288,5.2875943,-13.649942,-11.869853,3.717637,-8.884202,1.8494641409347176289,5.2061915,-14.094067,-17.654844,3.7655408,-9.020802,0.785005331409347176292,4.4448357,-15.314511,-14.970345,3.7794366,-8.9922495,1.01277831409347176320,5.415684,-15.865177,-5.4264584,3.623974,-8.949066,-1.71797241409347176320,5.5748987,-14.068928,-1.8255788,3.5770476,-8.904954,-2.01914221409347176321,5.317522,-12.998121,-1.2240356,3.5643194,-8.901636,-2.05594231409347176333,4.570531,-12.417527,-0.25198972,3.5617642,-8.911577,-2.01692681409347176347,3.8235402,-11.75553,1.1133038,3.5679276,-8.937919,-1.88518711409347176361,2.6114755,-12.90774,2.296638,3.550843,-8.985263,-1.68135381409347176361,1.5945383,-12.593501,4.1503487,3.4361513,-9.078479,-1.39444241409347176389,1.5143325,-12.552799,6.0860605,3.2843704,-9.187551,-0.98601951409347176390,1.2431892,-13.934853,6.891111,3.144971,-9.276429,-0.476896231409347176395,-0.5303157,-17.116747,6.9360023,2.9614234,-9.348763,0.031489951409347176417,-2.195483,-19.608511,10.38066,2.620505,-9.438609,0.464731721409347176418,-4.5777135,-19.608511,11.832145,2.8464074,-9.383541,0.132267951409347176420,-6.180033,-19.608511,9.249998,3.0727785,-9.309779,-0.237537431409347176433,-4.3358994,-17.500418,1.7357962,3.2810307,-9.2201805,-0.62730951409347176452,-1.8986019,-13.362638,-4.2556934,0.6628925,-9.609913,1.83862711409347176454,-1.4921862,-11.353903,-3.2782607,0.42484367,-9.680466,1.50947051409347176460,-1.4730326,-10.869077,6.6882024,0.24293052,-9.718414,1.28988551409347176494,-0.5805939,-8.969876,6.793547,0.102605805,-9.663639,1.66550641409347176495,-0.91697925,-7.2430587,3.4081461,0.09237725,-9.597558,2.0121531409347176496,-1.3551182,-6.971317,0.55844754,0.05540186,-9.570647,2.13776331409347176521,-1.7381904,-7.355586,-1.0696096,0.00725567,-9.586666,2.06547071409347176521,-1.79206,-7.377134,-0.56982,-0.11898849,-9.634875,1.82357341409347176522,-0.2100912,-7.033566,0.6985083,-0.28651276,-9.670514,1.60295021409347176551,1.5885528,-6.5738792,2.0159178,-0.3340005,-9.682672,1.51812431409347176552,2.3373394,-6.0699,3.4404678,-0.20856209,-9.6735735,1.5965141409347176552,2.1110873,-5.434838,3.5978866,0.02418664,-9.631731,1.84379081409347176560,0.801459,-4.455011,2.7868507,0.26143736,-9.576835,2.09433961409347176588,-0.8194155,-3.2968156,2.1122844,0.36749184,-9.526268,2.2990341409347176589,-1.5801731,-2.5169046,2.594716,0.2930594,-9.48834,2.46087431409347176592,-2.5719712,-2.2822728,2.9251158,0.10294834,-9.429212,2.6925391409347176619,-3.1830912,-2.0470424,2.9179332,-0.22481005,-9.344337,2.96702051409347176620,-3.517681,-1.8884265,3.1429882,-0.63804567,-9.229892,3.25151921409347176621,-4.0557775,-1.7567455,3.5643678,-1.1044985,-9.068319,3.56595871409347176646,-4.793192,-1.6316484,3.7445314,-1.6567245,-8.835941,3.91813471409347176646,-5.2660465,-1.8136078,3.900753,-2.2954013,-8.522725,4.273721409347176661,-5.2008047,-2.529474,3.9336734,-2.9618328,-8.143839,4.59084271409347176661,-4.5872903,-3.442862,2.8987796,-3.5335667,-7.775329,4.81959961409347176682,-3.8534677,-4.547786,1.4796166,-3.9563956,-7.553768,4.8433361409347176683,-3.0873232,-6.0878563,-0.09696517,-4.2262335,-7.533467,4.64286761409347176706,-2.0087352,-8.429385,-4.502895,-4.3245826,-7.7384725,4.1933761409347176724,-0.85173726,-13.138182,-16.58284,-4.2265406,-8.29555,3.08068061409347176724,14.863204,-19.021933,-14.483125,-3.739615,-9.064472,0.144924611409347176738,19.607914,-19.608511,-4.000711,-3.8204837,-9.025418,0.340803741409347176739,19.607914,-19.608511,-9.300277,-3.8956008,-8.986004,0.496430931409347176740,18.426973,-17.97028,-12.521675,-3.8693886,-8.987909,0.644761561409347176761,12.5264635,-9.833585,-11.750742,-3.7266812,-9.042183,0.7219051409347176762,5.6766524,-7.780557,-9.361927,4.5405707,-8.08346,-3.19550631409347176783,1.5813702,-7.0371575,-5.4444146,4.5383506,-7.898257,-3.63198521409347176783,0.42796355,-5.703587,-1.168969,4.2600746,-7.916628,-3.91780141409347176792,-0.40641573,-4.7429137,6.9090676,4.028326,-8.047352,-3.89655851409347176813,-1.1953052,-4.84347,8.013393,3.8913767,-8.415477,-3.19489261409347176815,-3.7714663,-10.452486,8.045116,3.6818085,-8.788491,-2.3188691409347176840,-5.061941,-15.931018,7.2490444,3.0133874,-9.24281,-1.288541409347176841,-3.7774518,-18.288708,5.040992,2.0708284,-9.578114,-0.37660981409347176843,-1.1450269,-17.524359,2.8257565,1.314567,-9.717031,0.147193131409347176869,2.0320787,-17.627909,-0.4830302,0.9166031,-9.756642,0.371695731409347176875,5.719149,-17.735647,-2.6569653,0.88683224,-9.762378,0.282633271409347176876,4.6459484,-14.722545,-5.048773,1.1312013,-9.741058,0.0504419021409347176880,0.57281274,-11.35091,-5.691616,1.3206518,-9.711991,-0.321660641409347176899,-3.5751417,-7.4711065,-1.6274586,1.2767338,-9.698801,-0.68820031409347176900,-4.8937483,-5.060744,2.4654293,0.9955925,-9.729003,-0.72505971409347176912,-5.471948,-5.3169236,4.6501384,0.6195473,-9.775032,-0.485040961409347176937,-5.8502316,-6.797737,4.4125137,0.13852789,-9.805145,-0.101708561409347176938,-4.6938324,-7.3268557,2.5061307,-0.43112436,-9.7937975,0.256944151409347176941,-2.9227216,-7.165247,-0.18794483,-0.8778645,-9.756961,0.44883861409347176970,-2.146402,-7.577648,-1.8118122,-1.1585943,-9.731026,0.367656081409347176970,-2.4480712,-9.066243,-2.2170308,-1.337053,-9.71422,0.128800571409347176973,-2.2810757,-10.5362835,-1.8902222,-1.478969,-9.693457,-0.1411791409347177012,-1.5173253,-11.810597,-1.4281414,-1.5480615,-9.677365,-0.349964951409347177013,-0.11252748,-13.089101,-1.3054385,-1.5252588,-9.675676,-0.474644631409347177014,1.5532384,-13.676877,-1.5652094,-1.3721918,-9.694151,-0.557597041409347177016,2.7497406,-13.897143,-1.6921021,-1.0804204,-9.725855,-0.64097271409347177038,3.5877113,-13.710396,3.4919431,-0.7203493,-9.752248,-0.73835931409347177039,3.9546227,-12.931084,11.098322,-0.31727877,-9.794453,-0.372065721409347177041,4.1066546,-11.957242,8.111555,0.106069684,-9.78856,0.585835931409347177060,4.43885,-10.889428,9.190742,0.4963868,-9.720344,1.19953661409347177061,5.989694,-9.676167,6.9485717,0.8743045,-9.581396,1.89810621409347177076,5.4222684,-9.205706,3.3650506,1.3129596,-9.427743,2.3588571409347177080,4.1958385,-9.147646,1.4622587,1.6537597,-9.338322,2.49624161409347177092,3.578733,-8.892065,0.82599956,1.8648008,-9.312013,2.4452681409347177106,3.3728316,-8.268375,1.0061632,2.0345392,-9.298437,2.36010461409347177124,3.1292217,-7.5890207,1.4903905,2.1741173,-9.287657,2.2766281409347177125,2.8125885,-7.378331,1.9213469,2.291322,-9.270181,2.2324781409347177142,2.2589293,-7.856573,2.497751,2.3787498,-9.245494,2.2433841409347177142,1.5520413,-8.677185,3.2968156,2.4061046,-9.220467,2.316041409347177157,1.1085154,-9.316438,3.1585505,2.3474727,-9.199671,2.4547531409347177160,0.8936358,-9.611523,2.4319103,2.2240558,-9.202151,2.5582011409347177180,0.90859956,-9.92636,1.5628152,2.0964127,-9.228638,2.57054641409347177181,1.2300211,-10.139444,0.842759,1.9521462,-9.276637,2.510681409347177193,1.3575124,-10.171167,0.24121583,1.8414646,-9.329562,2.39555141409347177211,1.2258313,-9.731832,-0.24540567,1.76018,-9.3845005,2.23680851409347177212,1.2162545,-9.10455,-0.5410896,1.694341,-9.439814,2.04683381409347177232,1.1695676,-8.760384,-0.90381116,1.6500323,-9.488866,1.84641409347177234,1.0295067,-8.814852,-1.353921,1.6173435,-9.53506,1.62396371409347177241,0.7457938,-9.030331,-1.7363948,1.5809748,-9.581386,1.36674791409347177267,-0.09756372,-10.288484,-1.7753005,1.5142208,-9.62783,1.08739481409347177268,-0.090979666,-11.564592,-3.0095115,1.3470923,-9.679884,0.809663951409347177272,0.7254431,-12.604275,-6.084265,1.1774822,-9.72631,0.4276071409347177303,1.3389573,-12.627619,-8.539519,1.088945,-9.743954,-0.199843941409347177304,1.335366,-11.6585655,-8.640674,1.0604415,-9.701007,-0.96762051409347177305,1.0714053,-10.860099,-6.51163,1.0604554,-9.605395,-1.66799751409347177313,1.8016368,-11.663952,-3.8115692,1.0640671,-9.521422,-2.0930081409347177335,4.4077253,-12.975975,1.4425066,1.1194606,-9.467942,-2.29679941409347177336,8.110358,-13.191453,8.120534,1.3554823,-9.500812,-2.01684071409347177341,12.823943,-12.103887,14.2383175,1.8448119,-9.557539,-1.19185071409347177368,11.325172,-12.827534,8.766968,1.7294232,-9.546892,-1.42701261409347177369,10.435128,-13.922283,4.923676,3.2287376,-9.223759,0.81726391409347177373,9.916184,-14.384962,1.062427,3.6449165,-9.021619,1.22284381409347177397,9.056666,-15.038579,-6.3009405,3.946831,-8.888281,1.26149761409347177398,8.201338,-16.212934,-13.146562,4.119473,-8.872292,0.69481361409347177401,7.216124,-16.485275,-18.17618,4.149242,-8.845701,0.84128431409347177438,6.6893997,-14.374787,-14.038402,4.187163,-8.814186,0.9737411409347177443,4.6112323,-13.743317,-4.0575733,4.156044,-8.588298,-2.2668871409347177445,5.2235494,-13.485341,2.3636756,4.0943823,-8.57676,-2.4177721409347177446,5.9663506,-12.124836,6.0944405,4.0731916,-8.651729,-2.17417961409347177477,4.7548847,-12.088325,5.389348,4.110123,-8.743349,-1.68259941409347177477,4.3999443,-10.942101,5.649119,4.087428,-8.825771,-1.25263861409347177478,4.073136,-10.029311,6.0986304,4.0848703,-8.881667,-0.774735871409347177495,4.0797195,-10.292074,5.474941,4.0956793,-8.906111,-0.277520481409347177496,4.162918,-11.78845,5.108628,4.080924,-8.916616,0.101876321409347177512,2.6725276,-17.072454,6.2392898,4.0358243,-8.92856,0.404126761409347177513,0.21906945,-19.608511,10.026319,3.7825096,-9.018375,0.72934541409347177533,-3.5529952,-19.608511,15.045163,4.0362635,-8.932505,0.298805831409347177534,-6.1004257,-19.608511,12.998719,4.269015,-8.827131,-0.166212891409347177542,-4.1383777,-18.77473,5.09127,4.4668264,-8.71014,-0.592680631409347177563,-1.7675194,-14.522031,-6.247669,1.4475565,-9.350531,2.57732081409347177564,-0.43634325,-10.817602,-12.448651,1.0459671,-9.52182,2.10031181409347177573,-2.2810757,-10.073604,-3.9773676,0.8868378,-9.681803,1.28319621409347177605,-3.755904,-9.974244,3.7307649,0.71121264,-9.736625,0.92882691409347177606,-3.620033,-8.528147,10.404003,0.47263008,-9.74064,1.03292321409347177607,-1.7441759,-6.56131,5.2624555,0.24595162,-9.662824,1.65522341409347177641,-2.0620062,-7.45315,1.5011644,0.13851562,-9.60735,1.96215241409347177646,-2.9388826,-8.63828,1.074398,-0.033110537,-9.608032,1.96341671409347177647,-2.3876176,-8.033145,1.9841946,-0.2589882,-9.616464,1.90445711409347177649,-1.110311,-6.8486137,1.5795746,-0.45565644,-9.60936,1.90340611409347177684,0.11372458,-5.9986725,2.1745336,-0.54976445,-9.606525,1.8928311409347177686,1.9213469,-5.421071,3.8025908,-0.5270426,-9.591524,1.97365281409347177687,1.9991584,-4.832696,4.705205,-0.30424803,-9.544567,2.23138551409347177689,0.6278794,-3.8959646,3.934272,-0.043581076,-9.457351,2.59365131409347177699,-0.30645782,-2.8814218,3.9258924,0.0648153,-9.372073,2.88625141409347177723,-2.942474,-2.5270798,3.6900635,0.061518885,-9.262168,3.22162441409347177723,-3.6332011,-1.9476831,3.3476925,-0.28261197,-9.141561,3.53869941409347177724,-4.0587707,-1.83336,3.8576574,-0.7225141,-8.995483,3.83792261409347177740,-4.994903,-1.8088194,4.0132804,-1.2221786,-8.782816,4.1879391409347177741,-5.6138043,-1.4329298,3.8391025,-1.8556422,-8.502612,4.52024131409347177759,-5.907094,-1.4030021,3.2142158,-2.5627308,-8.153387,4.80885361409347177761,-5.8502316,-1.8914193,2.9771898,-3.2831209,-7.784308,4.9795641409347177782,-5.4551888,-2.5474305,2.6797101,-3.933399,-7.4371014,5.0386791409347177782,-5.080496,-3.3135753,2.0338743,-4.456618,-7.1470823,5.02276371409347177794,-4.244321,-4.4753613,0.7356185,-4.877393,-6.970254,4.8782151409347177813,-3.2369606,-6.463746,-2.5582044,-5.1358714,-7.002368,4.5563211409347177813,-1.9243397,-10.224439,-12.31278,-5.233304,-7.3888874,3.76659821409347177826,10.685921,-17.59798,-19.318813,-5.0471106,-8.279081,1.4676071409347177849,19.607914,-19.608511,-5.2026005,-5.174751,-8.169454,1.62861191409347177850,19.607914,-19.608511,-9.260772,-5.3044524,-8.047834,1.80707871409347177853,17.673399,-19.608511,-11.586141,-5.402642,-7.9473524,1.95485341409347177861,11.893796,-14.086286,-10.580576,-5.3412876,-7.9311934,2.17651341409347177880,7.57286,-5.5946507,-8.181585,3.8417525,-8.418225,-3.2472811409347177881,2.1972785,-3.34051,-5.6640825,4.2573404,-8.103689,-3.51791121409347177897,-1.4808137,-2.5791538,-1.2904748,4.197926,-7.9723153,-3.8716921409347177918,-2.939481,-2.4408886,3.3237505,3.9062748,-8.056469,-4.00058651409347177919,-6.4936733,-8.567052,5.7257333,3.5696108,-8.3586645,-3.6825231409347177921,-10.596138,-18.916588,5.0302176,2.6847763,-8.980384,-2.8835951409347177949,-8.451532,-19.608511,2.7515364,2.713164,-8.970309,-2.88837581409347177950,-2.3145945,-19.27452,-1.6915035,0.15474808,-9.727488,-1.23388241409347177955,7.185598,-16.870743,-5.1146135,-0.15646657,-9.7370205,-1.15600491409347177961,2.034473,-13.938444,5.269638,0.36343235,-9.700175,-1.39459261409347177982,-1.2060791,-12.5743475,7.48607,0.4681012,-9.759405,-0.839818841409347177983,-0.7134721,-10.885837,6.299743,0.3527765,-9.796845,-0.260372371409347177993,-0.30825347,-7.9074497,5.2444987,0.2536989,-9.800736,0.227200151409347178010,-1.6280571,-7.3178773,4.1581297,0.17613631,-9.7826805,0.662217141409347178032,-3.0783448,-7.4806833,4.0360255,0.004834581,-9.745228,1.09585291409347178033,-3.4207156,-7.507618,3.4871547,-0.23764703,-9.693268,1.46781461409347178034,-2.9777884,-7.3112936,1.7501614,-0.5081579,-9.645759,1.69455291409347178041,-1.9764135,-6.70975,-0.017357962,-0.77721626,-9.622192,1.72618661409347178070,-1.5747862,-6.4727244,-0.8619126,-0.9613135,-9.627616,1.59852771409347178072,-1.882441,-7.071873,-0.8415619,-1.0847878,-9.646673,1.39115861409347178076,-2.0949266,-8.160637,-0.81163436,-1.2033517,-9.659371,1.19115911409347178112,-1.9213469,-9.252991,-0.25318682,-1.3197777,-9.66783,0.98062491409347178115,-1.6106992,-10.5045595,0.75596917,-1.3953593,-9.670108,0.84402741409347178116,-0.83976626,-12.600085,0.8110358,-1.4277734,-9.667308,0.82158121409347178140,0.9648633,-15.096041,-0.50397944,-1.3586887,-9.678973,0.801159141409347178141,2.3050177,-15.684415,-1.7417817,-1.1062372,-9.722531,0.64733051409347178170,2.2613235,-13.836092,-0.7356185,-0.7641461,-9.769018,0.39085811409347178171,1.5658079,-12.026075,1.0061632,-0.48036975,-9.791368,0.262231141409347178172,1.5280992,-11.080365,2.0033484,-0.28161097,-9.798737,0.275406271409347178173,4.36044,-8.86932,2.030283,-0.117672734,-9.7986965,0.376958161409347178175,5.7628436,-8.124723,4.441244,0.2694643,-9.790873,0.486433861409347178200,6.7929487,-8.255806,16.659454,0.7723595,-9.741618,0.82140581409347178202,6.314707,-8.516175,9.301474,1.3822236,-9.450176,2.2257651409347178204,4.8027687,-8.7609825,4.4681787,1.8894615,-9.201277,2.81723331409347178224,4.542998,-9.151836,4.4597993,2.2152262,-9.075472,2.98311451409347178225,4.2299557,-8.559271,5.3157263,2.3947353,-8.974342,3.14592151409347178238,3.630807,-8.008006,6.099229,2.5490541,-8.84235,3.38903281409347178242,3.6523547,-8.467094,5.4713492,2.6032834,-8.709787,3.67870881409347178257,4.073136,-9.551667,3.2615013,2.6635582,-8.61043,3.8647561409347178272,4.2305546,-10.594342,1.246182,2.7302105,-8.597274,3.8474981409347178274,4.086902,-11.461043,-0.3333926,2.7720797,-8.661639,3.66905451409347178287,3.5978866,-11.897985,-1.4347254,2.7894278,-8.775432,3.37361431409347178293,2.8179753,-11.452065,-1.8058267,2.7877045,-8.915353,2.98589781409347178306,1.851915,-10.807426,-1.8728642,2.7712798,-9.040306,2.60063151409347178320,0.9127894,-10.375872,-2.1709423,2.6907215,-9.159012,2.24564361409347178322,-0.019153614,-10.13286,-3.3632548,2.5501812,-9.280734,1.88013641409347178339,-1.0540473,-9.916184,-5.9687448,2.3440635,-9.415438,1.42312911409347178342,-1.5197195,-9.88506,-9.307459,2.0607479,-9.5580015,0.753877161409347178358,-1.407192,-9.949704,-11.747749,1.736728,-9.649695,-0.193773691409347178372,-0.4997896,-9.9790325,-10.494385,1.4145032,-9.615874,-1.30557061409347178379,0.6787562,-10.481815,-6.6600704,1.2044635,-9.490328,-2.15716531409347178403,1.8070238,-11.509526,-3.235165,1.1102862,-9.383036,-2.62608151409347178404,2.706645,-12.336722,-0.9427169,1.1232117,-9.347921,-2.74319821409347178404,3.371036,-12.436681,-0.09816227,1.2039931,-9.37684,-2.60685131409347178431,4.1096473,-11.993155,0.12030864,1.334493,-9.423171,-2.36503771409347178432,5.650316,-12.215217,1.283292,1.527441,-9.455935,-2.103011409347178436,8.878299,-12.342709,7.4842744,1.8309821,-9.4697275,-1.77260891409347178442,12.240954,-12.124237,16.43859,2.3646922,-9.466782,-0.97912041409347178464,10.717644,-13.03164,10.231621,2.2322059,-9.477134,-1.1711411409347178465,8.909423,-14.126987,6.172252,3.5284777,-9.075528,1.16404781409347178475,7.3298483,-13.812748,2.5079262,3.7807856,-8.903603,1.61304661409347178511,6.209362,-13.02745,-3.117849,3.9010065,-8.821097,1.77222131409347178512,5.9597664,-13.36623,-9.258977,3.970603,-8.85085,1.43777191409347178513,4.807557,-14.50946,-12.075156,4.011475,-8.928138,0.60565471409347178515,3.4518404,-16.259623,-10.903793,3.9254065,-8.97852,-0.384398551409347178522,4.0258503,-16.025589,-12.611458,3.717505,-9.0064,-1.11143911409347178547,4.131195,-14.33648,-8.271967,3.5680227,-8.9277725,-1.9324851409347178548,4.322731,-14.147937,-2.505532,3.4728425,-8.8618555,-2.36162521409347178564,4.9482164,-12.649765,2.0949266,3.413896,-8.877026,-2.39042041409347178598,4.485537,-10.840346,2.6258407,3.4492612,-8.931698,-2.1207811409347178600,3.7337575,-10.749367,2.4953568,3.4954731,-8.9792795,-1.82334831409347178605,3.0172927,-11.083358,3.7936125,3.503511,-9.0311575,-1.52774261409347178606,2.9311013,-11.847707,4.5340195,3.4654117,-9.099954,-1.16282511409347178607,2.6910827,-12.477981,4.923077,3.4007304,-9.166562,-0.761290671409347178630,1.6603789,-14.173674,5.7137623,3.3244092,-9.219307,-0.35079381409347178631,-2.2331917,-19.608511,8.348581,3.1542823,-9.285312,0.0622854831409347178634,-5.1996074,-19.608511,12.298415,2.6508625,-9.423107,0.59020811409347178642,-6.4685345,-19.608511,11.6190605,2.9326754,-9.355413,0.214539411409347178666,-4.326921,-17.569849,5.1607018,3.1716292,-9.277742,-0.186189521409347178667,-1.4766239,-13.487736,-1.009156,0.86643183,-9.576609,1.92568581409347178676,-0.62129533,-11.353903,-1.2144588,0.61973435,-9.6356945,1.7145531409347178697,-0.4441244,-10.014347,1.3628993,0.4512889,-9.664944,1.598621409347178698,-1.0175357,-9.193734,4.4927197,0.33972383,-9.6577425,1.66822961409347178702,-1.6525977,-8.179192,7.3484035,0.26992083,-9.618822,1.89097051409347178733,-1.1150994,-7.2083426,2.5498247,0.1965379,-9.536921,2.27571561409347178734,-1.0241197,-7.1646485,1.9285295,0.17444326,-9.529411,2.30873821409347178736,-1.2360066,-7.177817,2.8892028,0.11722908,-9.532345,2.30022761409347178744,0.077213004,-6.851607,1.5119383,-0.004271979,-9.5208435,2.3502971409347178771,1.7531542,-6.615179,1.6304513,0.00176058,-9.530198,2.312081409347178771,2.6641479,-6.4146647,3.0322564,0.13232875,-9.532228,2.2998871409347178774,1.4425066,-5.952584,2.4714148,0.35710546,-9.491032,2.44196961409347178796,0.20470424,-4.532822,2.2625206,0.49853435,-9.457958,2.54340031409347178796,-0.6877344,-3.5332432,2.5611973,0.54884386,-9.422835,2.6607061409347178802,-1.210269,-2.8329391,3.164536,0.47903615,-9.375437,2.83585791409347178831,-1.8195933,-2.367267,3.667917,0.32250234,-9.299256,3.09681081409347178832,-2.569577,-1.9967642,3.9641995,0.09663521,-9.188751,3.42460561409347178834,-3.5003228,-1.9147629,3.828927,-0.23251814,-9.032066,3.81288771409347178842,-4.4520183,-1.8590976,3.7415388,-0.6891405,-8.84307,4.1827741409347178886,-5.2259436,-1.8992004,3.845088,-1.290207,-8.606537,4.52031851409347178900,-5.5802855,-1.8662802,3.98874,-1.9971535,-8.303364,4.8203651409347178901,-5.547365,-2.0979192,3.8043866,-2.7230327,-7.9339023,5.08022551409347178905,-5.2361193,-2.7760768,3.833117,-3.385911,-7.5567694,5.2536881409347178939,-5.003283,-3.5775359,3.2124202,-3.9115326,-7.2235007,5.35642961409347178940,-4.8614264,-5.0571527,0.9888053,-4.3171268,-7.0202746,5.3149361409347178942,-4.1515455,-7.1700354,-4.0096893,-4.6637883,-7.061379,4.9554411409347178942,-2.8592753,-11.076176,-15.042171,-4.9325504,-7.5240326,3.90247041409347178943,5.843049,-17.380707,-19.2416,-4.874283,-8.427945,1.17537531409347178960,19.312828,-19.608511,-5.907094,-5.0109506,-8.322935,1.33773271409347178961,19.607914,-19.608511,-5.783793,-5.149098,-8.213673,1.48080971409347178963,19.18773,-19.608511,-9.801263,-5.1936364,-8.14384,1.6954041409347178976,12.99034,-15.418659,-10.793061,-5.1672173,-8.109032,1.92713831409347178989,7.984064,-7.6249337,-8.175002,-5.0484667,-8.144466,2.08592251409347179004,2.9352913,-5.8783636,-6.4763155,4.1233797,-8.288027,-3.23678421409347179005,-0.5327099,-5.773019,-3.527856,4.065946,-8.180631,-3.56591561409347179028,-2.1039047,-6.4140663,0.16220717,3.7419767,-8.250273,-3.75513531409347179029,-4.982932,-11.757924,2.818574,3.3330576,-8.49374,-3.59409431409347179036,-7.2209125,-19.07221,2.5791538,2.577534,-8.964651,-3.0268391409347179068,-4.481347,-19.236214,1.8890251,1.5510771,-9.400706,-2.32190971409347179069,1.4401124,-15.50485,2.9400797,0.9280931,-9.598184,-1.78435541409347179069,5.267244,-11.770494,3.8504748,0.8699723,-9.67845,-1.31953311409347179074,1.7040731,-10.338761,6.2979474,1.1784844,-9.692794,-0.91175541409347179097,-2.6527755,-8.620323,7.536947,1.2309341,-9.721918,-0.373495461409347179098,-1.5879543,-8.707711,7.5584946,0.9231822,-9.75985,0.251876921409347179105,-1.3275849,-7.7213006,4.258686,0.68775636,-9.742113,0.888031961409347179133,-2.4612393,-8.453327,2.3630772,0.48841745,-9.712568,1.26407361409347179134,-3.240552,-9.340978,1.7645266,0.19867812,-9.700085,1.42803431409347179135,-3.3357215,-9.743204,1.3180081,-0.14017683,-9.681858,1.55318341409347179163,-3.2184057,-9.583989,1.0235212,-0.44459262,-9.67172,1.55902681409347179164,-2.8658595,-8.838794,0.3669114,-0.7200699,-9.663179,1.50825821409347179165,-2.9586349,-8.55149,-0.30526072,-0.9517665,-9.657642,1.41225231409347179176,-3.0400376,-8.7292595,-0.21906945,-1.1677651,-9.654067,1.26715871409347179191,-2.814384,-8.897452,0.14185645,-1.3623025,-9.6448965,1.1359921409347179194,-2.521693,-9.295488,0.48123455,-1.5168858,-9.632542,1.04096221409347179202,-2.0398598,-10.28549,0.51595044,-1.6280478,-9.619333,0.99412791409347179224,-1.3162124,-11.654974,-0.2208651,-1.6829102,-9.615672,0.93652161409347179225,-0.037110128,-13.086108,-1.7286136,-1.6502012,-9.632624,0.8122921409347179248,1.0875661,-13.704411,-2.4355016,-1.486661,-9.67771,0.549715941409347179249,1.2886791,-12.8209505,-1.2354081,-1.2309003,-9.726168,0.238620551409347179254,1.5269021,-11.662755,0.5518635,-0.983198,-9.757124,0.0471615641409347179276,1.7483658,-11.036073,1.4808137,-0.7425237,-9.778481,0.01817221409347179277,2.046444,-10.543466,1.7393875,-0.5180667,-9.79233,0.110776251409347179282,2.7641058,-9.767146,1.9045875,-0.29618895,-9.799983,0.207361471409347179308,3.8863878,-9.127894,2.0135236,-0.031676702,-9.800837,0.336158541409347179308,4.2161894,-9.403227,2.457648,0.32032385,-9.790033,0.472235831409347179317,4.667496,-9.792884,4.1491513,0.69053286,-9.761035,0.64480191409347179323,5.855619,-10.301053,14.107235,1.093457,-9.699242,0.9483881409347179340,9.329605,-7.1849995,17.814058,1.5795748,-9.455172,2.06761771409347179361,7.6464815,-6.193201,9.636662,2.3036094,-8.930901,3.3320831409347179362,5.7395,-7.7332716,5.21936,2.7745652,-8.579261,3.85596681409347179364,3.879804,-9.439739,1.9129672,3.0345647,-8.389783,4.07103971409347179375,3.7187939,-10.572795,0.6943185,3.0116076,-8.405983,4.05463461409347179391,4.0025067,-10.751163,-0.22565351,2.9577723,-8.5103,3.8725661409347179398,3.8031895,-10.468647,-0.8331822,2.965889,-8.637479,3.57321071409347179403,3.256713,-9.990405,-1.0109516,2.9962733,-8.762234,3.2273851409347179427,2.7144263,-9.85214,-1.1210849,3.0177135,-8.870861,2.89337591409347179428,2.307412,-10.079589,-1.2892777,3.0093186,-8.973607,2.5668661409347179435,2.0787656,-10.47164,-1.5867572,2.9630613,-9.073931,2.24820851409347179459,1.7944542,-10.985196,-1.8962077,2.8822944,-9.172114,1.9326381409347179460,1.2569559,-11.558607,-2.0811598,2.7724812,-9.270341,1.59514921409347179463,0.80684596,-12.066776,-1.5556326,2.6058922,-9.369585,1.26119361409347179501,0.44532153,-12.680889,-2.9532478,2.3951578,-9.457679,0.99294371409347179503,0.86251116,-13.162723,-7.3352356,2.157117,-9.546255,0.62149291409347179505,1.2791022,-12.931084,-10.530297,1.9654224,-9.607159,-0.099971361409347179506,1.6424223,-12.138602,-9.758167,1.8417429,-9.582178,-0.97991591409347179533,2.208651,-11.59033,-6.447585,1.7748442,-9.481489,-1.76683081409347179535,3.0621839,-11.525088,-3.245939,1.7915567,-9.383224,-2.21717521409347179536,4.577115,-11.196485,2.3540988,1.849069,-9.337188,-2.35971831409347179559,9.230247,-12.142793,10.46326,2.0079303,-9.386473,-2.00817231409347179560,8.599973,-13.382989,10.14543,2.5161183,-9.428754,-0.968570351409347179563,8.70831,-13.978547,6.95336,2.8911464,-9.370622,-0.056090721409347179605,8.938153,-13.374011,3.819949,3.2205906,-9.2470875,0.538114371409347179609,7.515998,-11.9853735,-1.5622166,3.5193112,-9.118477,0.798885351409347179610,5.8747725,-11.855488,-5.820903,3.7285461,-9.043706,0.692618131409347179611,4.322731,-13.116634,-7.4561424,3.8069665,-9.034423,0.23795361409347179628,4.0815153,-14.40651,-7.459734,3.739252,-9.059809,-0.32905251409347179629,4.6501384,-14.599842,-8.4826565,3.623687,-9.070449,-0.875347851409347179636,4.134786,-14.969747,-7.976283,3.5404112,-9.028639,-1.45587521409347179653,3.5649664,-14.855423,-5.187038,3.4225984,-8.985468,-1.92810151409347179655,3.5990837,-13.148955,-0.7918822,3.2940326,-8.989173,-2.12473131409347179670,3.8073792,-11.58674,2.1721394,3.2528074,-9.019898,-2.05695251409347179689,3.5224693,-10.760141,4.0815153,3.2712655,-9.069689,-1.79164371409347179689,3.086126,-10.868479,5.303157,3.287801,-9.132919,-1.39661981409347179707,2.7623103,-11.255741,5.307347,3.274024,-9.197481,-0.9260061409347179708,2.7563248,-11.850101,4.7925935,3.233404,-9.245603,-0.48407531409347179729,2.3523033,-13.171103,5.0517654,3.1853518,-9.274285,-0.107611071409347179733,0.6314707,-16.643892,5.841852,3.09133,-9.303418,0.245851671409347179736,-1.7298107,-19.604921,6.986879,2.8101501,-9.376162,0.600856361409347179752,-4.346673,-19.608511,11.482592,2.3761644,-9.466339,0.955333231409347179757,-6.381745,-19.608511,13.317747,2.6581955,-9.421419,0.58414661409347179780,-5.9717374,-19.159,8.919599,2.897137,-9.366927,0.19401511409347179781,-2.2667105,-14.686033,0.014963761,0.602301,-9.4927635,2.38643531409347179784,-0.9475053,-12.32116,-3.3913867,0.28952333,-9.550156,2.2093191409347179810,-1.4305356,-11.398794,-0.5141548,0.110639185,-9.6153145,1.92454061409347179811,-1.2108675,-9.706693,1.3341689,-0.014608079,-9.643373,1.78200571409347179817,-1.4437037,-8.145673,2.4839842,-0.05549305,-9.63932,1.80299461409347179833,-1.702876,-7.4495587,5.8771667,-0.074860595,-9.624176,1.88149761409347179835,-0.9355343,-7.2125325,2.3493104,-0.11789339,-9.561308,2.17666551409347179850,-1.062427,-7.8248496,2.0811598,-0.123449564,-9.560156,2.18141461409347179854,-0.85652566,-8.037335,1.6178818,-0.19625732,-9.565076,2.15434431409347179867,-0.27712885,-7.386112,0.79367787,-0.2883771,-9.575461,2.09708291409347179885,0.81881696,-6.70975,0.88525605,-0.32597676,-9.591082,2.01873351409347179886,1.2791022,-6.1249666,3.0065188,-0.23252924,-9.603018,1.97443141409347179901,0.6775591,-5.6215854,3.288436,-0.09845307,-9.56883,2.14434481409347179903,-0.11791443,-4.6686935,2.907758,0.004032909,-9.522585,2.34322881409347179915,-0.7128736,-3.8714242,3.181894,0.03006576,-9.473737,2.5333441409347179933,-1.5047557,-3.1794999,3.2704794,-0.029081427,-9.406121,2.77388531409347179936,-2.0129251,-2.7575219,3.8175547,-0.19297494,-9.32156,3.0400131409347179949,-2.822764,-2.6683378,4.185065,-0.414405,-9.198346,3.3747691409347179955,-3.8085763,-2.4528596,3.6996403,-0.7388517,-9.036097,3.7381091409347179975,-4.6279917,-2.2319946,3.068768,-1.2031667,-8.84908,4.0517341409347179977,-5.318719,-2.15957,3.0813377,-1.79071,-8.640645,4.27820061409347179984,-5.556942,-2.1535845,3.3740287,-2.4676075,-8.374795,4.4658841409347180007,-5.1038394,-3.163339,2.6252422,-3.1407578,-8.046166,4.643841409347180008,-4.626795,-4.138976,0.9804256,-3.6751175,-7.809497,4.6557131409347180016,-4.034828,-5.8119245,-2.2756886,-4.0997367,-7.7368703,4.41626451409347180040,-2.1338322,-8.129512,-8.817246,-4.4065094,-7.942555,3.69714451409347180042,2.8209682,-11.881226,-16.440384,-4.3799343,-8.541528,2.00720551409347180044,14.403518,-17.648857,-9.8042555,-3.3808577,-9.178333,-0.705985551409347180079,19.607914,-19.608511,-1.3563153,-3.499262,-9.144949,-0.54356211409347180080,19.607914,-19.608511,-6.645705,-3.6225858,-9.104873,-0.38543841409347180081,18.222868,-19.307442,-10.07121,-3.699933,-9.08009,-0.181347921409347180084,12.73416,-13.14297,-11.829152,-3.6966345,-9.082895,0.079538231409347180110,7.773973,-8.545505,-10.1699705,4.3261905,-8.346909,-2.78990441409347180111,3.2172086,-7.9224133,-8.364742,4.559243,-8.092218,-3.14638021409347180120,1.0594343,-8.002021,-5.1140146,4.4549313,-7.9904985,-3.5321291409347180149,-0.36391866,-9.880272,-0.66020113,4.2038245,-8.0328455,-3.73786851409347180150,-3.9594111,-17.95292,2.3133974,3.8235686,-8.287667,-3.58682751409347180151,-4.0001125,-19.608511,1.3036429,3.0218081,-8.829723,-3.01248861409347180156,0.027533319,-19.608511,0.516549,2.2804499,-9.202307,-2.50749781409347180184,7.5866265,-17.782932,1.1288661,1.9335371,-9.379107,-2.11286541409347180185,6.081272,-11.079168,7.4405804,2.173125,-9.399408,-1.76040461409347180187,-0.29508537,-8.4826565,8.7053175,2.4223833,-9.440453,-1.08642341409347180209,-3.544017,-6.9144545,7.0365586,2.2680607,-9.531811,-0.413372131409347180210,-3.1872811,-5.3767786,6.0609217,1.9052091,-9.61911,0.115437811409347180215,-2.3768437,-3.0376434,4.1641154,1.5490444,-9.66423,0.611163261409347180236,-3.4219127,-4.104859,3.345897,1.2614137,-9.671466,1.02077161409347180238,-4.923676,-6.3769565,3.4554317,0.84745973,-9.665972,1.42168121409347180251,-5.282806,-8.015787,3.1358056,0.29554275,-9.640515,1.77299171409347180267,-4.7135844,-9.199121,2.4534583,-0.26664603,-9.605521,1.95786891409347180267,-4.3281183,-9.48463,1.1881226,-0.74808633,-9.568916,2.0116141409347180285,-4.5819035,-9.226655,-0.670975,-1.1596888,-9.546674,1.92003111409347180286,-4.4400473,-8.788516,-1.0714053,-1.5545632,-9.540059,1.65559161409347180298,-3.6314054,-8.325836,-0.16340427,-1.8753967,-9.526458,1.37835591409347180303,-3.1561563,-8.259995,0.95229375,-2.089294,-9.503414,1.22080611409347180318,-2.9622262,-8.619724,1.3515269,-2.2444692,-9.470352,1.20216631409347180333,-2.7760768,-9.384073,1.5149311,-2.3600826,-9.43719,1.24090251409347180335,-2.552219,-10.670359,1.6298528,-2.4200315,-9.415608,1.28848211409347180353,-1.4730326,-13.292608,0.14065935,-2.43919,-9.405859,1.32308051409347180368,0.7086837,-16.408062,-3.6529531,-2.3020048,-9.45918,1.18113231409347180368,2.4672248,-17.76019,-5.439626,-1.939747,-9.588723,0.681284251409347180386,2.0626047,-15.4880905,-1.2850877,-1.4528857,-9.698104,0.079294491409347180387,2.143409,-12.917915,1.5502456,-1.0762879,-9.746605,-0.125233811409347180401,2.8107927,-11.353903,2.3852234,-0.7664967,-9.776342,-0.077509941409347180404,3.572149,-10.169372,2.6461914,-0.4732073,-9.794802,0.091157361409347180422,4.3089647,-8.945336,2.5073278,-0.13764322,-9.801881,0.27307521409347180424,4.9440265,-7.833828,2.4534583,0.23196079,-9.793453,0.45261341409347180436,5.305551,-7.569867,2.8287494,0.6632301,-9.764061,0.62740241409347180456,3.7714663,-8.647258,9.818023,1.1284102,-9.706337,0.827092051409347180457,7.2664022,-8.412027,17.425,1.4518545,-9.556465,1.65423731409347180464,12.154165,-6.867169,13.047202,2.0377643,-9.109468,3.00590541409347180497,9.640253,-7.16824,4.1012673,2.8825185,-8.58078,3.77249261409347180498,7.80809,-8.543709,0.94930094,3.364443,-8.374691,3.83607221409347180499,6.571485,-9.130288,-0.37349546,3.6850312,-8.306072,3.68783121409347180504,5.2923827,-9.4696665,-0.6278794,3.829573,-8.305191,3.5395691409347180519,3.3560722,-10.216658,-0.51834464,3.8990474,-8.371999,3.29809931409347180539,2.303222,-10.775703,0.35254622,3.834977,-8.515174,2.99251531409347180540,1.7992426,-11.584345,1.453879,3.6863523,-8.663614,2.74280761409347180544,1.4903905,-12.246342,2.0021513,3.4738173,-8.796848,2.59199451409347180571,1.4460979,-12.598887,1.1438298,3.2293148,-8.914253,2.5055981409347180571,1.5011644,-12.603676,-0.7667431,3.009129,-9.03059,2.35881021409347180575,0.9475053,-12.89517,-3.0777464,2.8130805,-9.150002,2.1294181409347180584,0.25498247,-13.181277,-6.927024,2.5987241,-9.293573,1.74541811409347180597,-0.7332243,-13.880384,-15.811308,2.3532887,-9.461031,1.05891991409347180605,-0.6171055,-13.4260845,-18.299482,2.032835,-9.58724,-0.35038231409347180620,0.6727707,-11.984177,-10.151415,2.000411,-9.600234,0.065069561409347180643,1.4802152,-12.340314,-3.5883098,1.5540308,-9.33777,-2.56152921409347180645,2.5617957,-12.841301,0.3812766,1.5112543,-9.315128,-2.66737271409347180647,4.3406878,-11.717223,2.4259248,1.5454297,-9.34113,-2.5544811409347180673,6.967127,-9.758167,3.6248214,1.7167946,-9.396168,-2.22149061409347180677,8.775348,-8.793902,8.302493,2.1011763,-9.415188,-1.76343821409347180678,7.6823945,-9.280524,7.4046674,2.6432922,-9.39919,-0.91576871409347180685,6.581062,-11.2844715,6.752846,3.0557063,-9.316235,-0.202036491409347180709,7.313688,-12.94066,5.8903346,3.2905731,-9.229479,0.399062451409347180710,7.4112515,-13.199234,2.767697,3.4861388,-9.123015,0.88759881409347180719,5.8466406,-12.94485,-1.7076644,3.649786,-9.043519,1.03161451409347180735,4.7842135,-13.057378,-4.8416743,3.712791,-9.035408,0.86427411409347180736,4.1946416,-13.637373,-6.84203,3.695423,-9.07308,0.43986091409347180748,4.0426097,-14.927848,-8.752603,3.605625,-9.118828,-0.129822311409347180767,4.4077253,-15.9340105,-10.648212,3.4687214,-9.136741,-0.811375441409347180767,3.7582982,-15.768811,-7.697957,3.336679,-9.09074,-1.54771409347180779,3.2842462,-15.473127,-2.8203697,3.2016532,-9.051767,-1.99632641409347180784,3.3267434,-15.009251,0.24660277,3.0847044,-9.085552,-2.02675721409347180796,3.3680432,-13.526043,1.352724,3.0115292,-9.138732,-1.89332661409347180813,2.7102363,-11.9746,2.5911248,2.9722455,-9.196218,-1.66306011409347180817,2.3403323,-10.664971,4.4322658,2.9198728,-9.263111,-1.35628251409347180838,2.124854,-9.661202,5.751471,2.8773062,-9.326085,-0.956880451409347180856,2.1942859,-9.500791,5.599439,2.8479788,-9.3711195,-0.49144851409347180859,2.0763714,-10.19451,5.1768627,2.8376405,-9.38693,-0.0611217021409347180873,1.448492,-11.66515,5.321113,2.8100379,-9.390432,0.306373061409347180874,0.24959552,-15.161283,6.1764417,2.696556,-9.40602,0.652499441409347180889,-1.6705543,-19.40261,7.1143703,2.4556022,-9.442578,0.98897831409347180889,-3.6343982,-19.608511,8.789114,2.0445077,-9.503278,1.2954111409347180898,-5.257667,-19.608511,7.838018,1.5422583,-9.540541,1.66429751409347180914,-2.3481133,-14.7794075,-0.04189853,0.9731823,-9.566985,1.922521409347180917,-1.4628572,-12.670714,-1.3694834,0.6543011,-9.628232,1.74339441409347180940,-1.459266,-11.401787,1.335366,0.42953825,-9.672579,1.55791041409347180941,-1.377863,-10.430939,6.101623,0.26350304,-9.680368,1.54641821409347180944,-1.1109096,-8.93576,9.533113,0.13153496,-9.620578,1.89672271409347180976,-1.9925743,-7.905654,5.590461,0.0724927,-9.49437,2.45398661409347180977,-1.702876,-7.3226657,0.6703765,-0.00157704,-9.426933,2.7024691409347180978,-0.89543146,-6.8970966,-1.2743138,-0.07166122,-9.455172,2.6009561409347180986,0.4321534,-6.745663,-0.43275195,-0.13806641,-9.520732,2.34670111409347181010,1.7351977,-7.152079,1.6621746,-0.12620822,-9.568692,2.1434951409347181011,1.774702,-7.6123643,2.5145104,0.023307227,-9.574529,2.1209111409347181018,1.4317327,-6.8264675,2.1362264,0.20745617,-9.556806,2.18970321409347181033,0.6344634,-5.475539,1.5107412,0.35796413,-9.534259,2.26719261409347181038,-0.46267948,-4.559159,1.8489223,0.440809,-9.520831,2.3086541409347181051,-1.3401544,-3.7786489,2.7234044,0.3881886,-9.503089,2.3897681409347181072,-1.9764135,-2.9412768,3.3812113,0.2221341,-9.457105,2.58539031409347181073,-2.4941597,-2.4552538,3.8522706,-0.016413376,-9.37351,2.8822621409347181078,-3.289633,-2.297835,3.9755719,-0.3164438,-9.246658,3.2510891409347181085,-4.4298716,-2.315193,3.810372,-0.724092,-9.082377,3.62718771409347181105,-5.2115784,-2.6288335,3.4063504,-1.2845129,-8.872641,3.97449971409347181106,-5.5324016,-2.693477,3.0855274,-1.9478906,-8.6333065,4.22399471409347181116,-5.379173,-2.7802668,2.7844565,-2.6364164,-8.366027,4.3851211409347181146,-4.867412,-3.110068,2.472612,-3.2683036,-8.095771,4.46621561409347181147,-4.4316673,-3.7732618,1.9925743,-3.776145,-7.865651,4.47690341409347181148,-4.0132804,-4.51726,1.4287399,-4.1590714,-7.7172422,4.39507531409347181165,-3.0131028,-5.5623293,0.2100912,-4.4273963,-7.668166,4.2151851409347181166,-1.6663644,-7.6291237,-3.4320881,-4.5078287,-7.8052917,3.86358481409347181180,-0.4381389,-12.310986,-15.882536,-4.37494,-8.252362,2.98810981409347181185,13.168708,-18.939932,-15.524004,-3.8791006,-9.003585,0.241720861409347181218,19.607914,-19.608511,-3.4793737,-4.028884,-8.930751,0.42446461409347181220,19.607914,-19.608511,-7.135918,-4.180146,-8.853428,0.559995351409347181222,18.637064,-19.412188,-11.230601,-4.251292,-8.807445,0.72514791409347181256,11.933898,-12.193669,-11.45027,-4.196533,-8.816586,0.909565751409347181259,6.9342065,-6.282984,-8.250419,4.2259007,-8.3308115,-2.98491431409347181260,2.1404164,-5.5312047,-5.719149,4.459577,-8.066902,-3.34778261409347181262,-0.40462008,-5.4803276,-1.714847,4.3304725,-8.003029,-3.65635871409347181265,-2.178125,-6.5445504,2.9981391,4.0403457,-8.130375,-3.70716291409347181284,-5.758055,-12.97777,5.847239,3.6556783,-8.476435,-3.31005451409347181285,-7.2526355,-18.739416,5.837064,2.819163,-9.060832,-2.47468331409347181300,-3.8205473,-15.929821,4.9003325,1.7778176,-9.516249,-1.56549691409347181315,0.11791443,-11.851298,4.1282024,1.1722221,-9.693679,-0.91043611409347181318,1.7070658,-11.039065,3.0376434,1.0312763,-9.741535,-0.45755381409347181331,-0.16938977,-11.518504,3.532046,1.0522262,-9.748415,-0.177817991409347181349,-2.0284874,-10.618284,4.8021703,0.9365166,-9.76121,0.1100537851409347181349,-1.5729905,-10.365098,5.9106855,0.6632105,-9.772097,0.48649351409347181365,-0.5363012,-9.56304,1.6687586,0.43056995,-9.750871,0.95159231409347181365,-2.1936872,-9.621698,1.3551182,0.31014878,-9.743349,1.06834711409347181383,-2.8999767,-9.791088,1.8285716,0.05973054,-9.735148,1.18055421409347181384,-2.819771,-9.333197,1.436521,-0.21539953,-9.720709,1.27742761409347181397,-2.4384944,-8.644265,0.51834464,-0.46619946,-9.709294,1.2971741409347181413,-2.1254525,-8.121132,-0.3184288,-0.6799232,-9.704313,1.23871651409347181416,-2.0219033,-7.946954,-0.4237737,-0.86678344,-9.703776,1.12061731409347181428,-1.9081788,-8.152855,-0.27952304,-1.0209292,-9.702397,0.99579091409347181448,-1.9937714,-8.866327,-0.17058687,-1.1287597,-9.701848,0.877754331409347181448,-2.047641,-9.815628,-0.54408234,-1.2169907,-9.700617,0.766382461409347181459,-1.9901801,-10.849923,-0.85413146,-1.293566,-9.701059,0.621724961409347181464,-1.5496471,-11.917139,-0.9516952,-1.3555343,-9.701264,0.46729781409347181480,-0.7194576,-12.644378,-0.93493575,-1.3632818,-9.706724,0.302279651409347181485,0.020949265,-12.968193,-0.47884035,-1.2923361,-9.719937,0.152001411409347181501,0.4973954,-12.715007,0.44771573,-1.1623017,-9.737387,0.0524812971409347181505,0.9576807,-12.050615,0.9947908,-1.00409,-9.75502,0.0421516261409347181517,1.4413095,-11.277288,1.0869676,-0.8228414,-9.771697,0.0852197861409347181529,1.8926164,-10.725425,1.2683283,-0.6256676,-9.785604,0.14455461409347181547,3.8804023,-9.9712515,2.7748797,-0.41168052,-9.795409,0.225474641409347181548,5.418677,-9.813833,9.768343,-0.028011458,-9.797249,0.428378551409347181563,5.0643353,-10.483611,18.23364,0.4908353,-9.715845,1.23766841409347181565,6.238691,-9.970653,9.527127,0.96947896,-9.39223,2.6488711409347181579,6.6504936,-9.506178,6.995259,1.4923928,-9.163676,3.1575581409347181585,6.8384385,-8.204929,5.09127,1.9444659,-8.967776,3.4595451409347181600,6.114791,-7.762002,3.3620577,2.3033867,-8.805615,3.65047141409347181614,4.449025,-8.203134,2.8401217,2.600287,-8.698866,3.70656751409347181619,3.4769795,-8.634089,3.0083144,2.7530098,-8.660065,3.68708631409347181640,3.3848026,-8.852561,2.6629508,2.8354332,-8.638285,3.6756941409347181641,3.514688,-9.452907,1.3311762,2.8720045,-8.639885,3.64339971409347181646,3.417723,-10.178948,-0.3549404,2.900898,-8.683829,3.51372841409347181662,3.105878,-10.42615,-1.6053122,2.9177616,-8.7767,3.25984761409347181665,2.5611973,-10.13286,-2.1655555,2.918495,-8.897527,2.91320751409347181681,1.9877859,-9.581595,-2.2511482,2.8889892,-9.02612,2.52056881409347181695,1.6196774,-9.496601,-2.1745336,2.8279674,-9.146203,2.12602071409347181698,1.3359646,-10.104729,-1.8956091,2.74434,-9.251138,1.74797651409347181713,0.54408234,-11.408371,-1.7226281,2.6121223,-9.346329,1.41185411409347181716,-0.9235633,-12.920309,-4.4238863,2.3928857,-9.446943,1.0953281409347181728,-0.7344214,-13.2668705,-6.611588,2.0381038,-9.576982,0.545842951409347181750,0.48362875,-12.164939,-5.798158,1.7231265,-9.652689,-0.163697111409347181750,1.1845313,-11.436503,-4.0360255,1.5574787,-9.653949,-0.73884621409347181763,1.6819267,-11.555016,-3.0747535,1.4898428,-9.631381,-1.08961431409347181765,2.3187842,-11.51192,-2.5300727,1.4747939,-9.611361,-1.27167011409347181783,3.602675,-10.847529,-1.8614918,1.5117928,-9.589765,-1.38609841409347181802,4.8255134,-10.625467,-1.0133458,1.6524482,-9.561189,-1.42249831409347181802,5.8813562,-11.177929,0.82360536,1.8880459,-9.523525,-1.38136611409347181805,7.339425,-11.925519,4.224569,2.1861732,-9.484922,-1.19470021409347181817,7.6967597,-13.253702,4.9703627,2.5592031,-9.437223,-0.74811731409347181832,6.9808936,-14.137761,2.5300727,2.8810756,-9.370013,-0.26955171409347181849,6.381146,-13.149554,1.9734207,3.0833328,-9.309313,0.0123772511409347181849,6.037578,-11.972205,1.2312182,3.225983,-9.2583,0.217492421409347181867,5.8909335,-12.257115,-0.85532856,3.3537815,-9.208243,0.361679941409347181868,5.649119,-13.512276,-7.878121,3.449439,-9.175452,0.287863021409347181877,4.975151,-15.072697,-13.080122,3.4835596,-9.160407,-0.349469871409347181894,3.2794578,-16.209942,-11.326369,3.4051926,-9.105746,-1.28857621409347181897,3.1028855,-14.657902,-5.820903,3.2161658,-9.046068,-1.99883691409347181910,3.2597055,-13.5775175,-1.8800468,3.135282,-9.000773,-2.30792451409347181928,3.7588966,-13.108852,1.0839748,3.0967853,-9.026167,-2.26022621409347181929,4.417302,-10.477625,4.466982,3.098977,-9.07579,-2.04860661409347181950,2.9903579,-9.45171,4.3520603,3.1786845,-9.136609,-1.60895031409347181950,1.9991584,-9.750386,3.2908301,3.182509,-9.195341,-1.21972761409347181972,1.423353,-10.817003,2.5354595,3.1308718,-9.250521,-0.892142361409347181973,1.4574703,-11.906963,2.719813,3.025845,-9.308686,-0.602508251409347181978,0.6572084,-13.857639,4.4238863,2.9003234,-9.362026,-0.333121361409347182001,-0.7404069,-17.504606,6.449381,2.6928601,-9.429674,0.011345571409347182001,-2.3199813,-19.608511,9.716867,2.345939,-9.511392,0.447654931409347182005,-4.7758336,-19.608511,13.760674,2.6274,-9.447135,0.137156891409347182017,-5.981314,-19.608511,13.47337,2.9006677,-9.364704,-0.242535671409347182033,-3.7493198,-18.7873,6.163274,3.142141,-9.26601,-0.662130651409347182046,-0.95588505,-15.041573,-1.685518,0.4533771,-9.511356,2.3449811409347182047,-0.52612585,-12.645575,-4.809353,0.2363526,-9.579629,2.08452151409347182065,-1.1971009,-10.607511,0.15322891,0.11017244,-9.652669,1.72749141409347182066,-1.9416976,-8.701127,6.489484,0.024575055,-9.666445,1.65215231409347182078,-1.4915876,-8.08462,2.822764,-0.10388971,-9.594742,2.02496741409347182093,-1.83336,-8.201338,1.2569559,-0.108936176,-9.578178,2.10167961409347182099,-2.3187842,-9.148245,0.97623575,-0.14905338,-9.59162,2.03690621409347182111,-1.9662381,-8.820838,0.46267948,-0.29527065,-9.61451,1.90903041409347182133,0.1945289,-7.6967597,0.87208796,-0.4631737,-9.636005,1.76160631409347182135,0.8924387,-7.4495587,1.9728222,-0.4519836,-9.64791,1.6982151409347182154,2.0458453,-5.989694,3.3842041,-0.35143122,-9.641285,1.75854531409347182155,1.2599486,-4.3418846,3.0065188,-0.12043957,-9.607291,1.96363941409347182159,-0.30885202,-3.54282,2.6210523,0.030431964,-9.564061,2.16753581409347182166,-1.3634979,-3.3033998,2.6132712,0.027101943,-9.520223,2.35266451409347182184,-2.12246,-3.4680011,3.2064347,-0.1149398,-9.467236,2.55511331409347182185,-2.505532,-3.3315318,4.0402155,-0.34996465,-9.387497,2.81475021409347182197,-3.2662897,-2.9472623,4.2922053,-0.62493485,-9.262069,3.1613181409347182215,-4.209605,-2.5157075,3.7313633,-0.9920807,-9.091495,3.53991409347182230,-5.023035,-2.3888147,3.3967736,-1.4912375,-8.897134,3.84546611409347182230,-5.2540755,-2.2649148,3.1836896,-2.0926342,-8.660327,4.09756041409347182248,-5.509058,-2.4785974,2.8473043,-2.7146475,-8.386054,4.29827551409347182249,-5.518635,-2.9412768,2.4833858,-3.3437788,-8.0990505,4.40396551409347182271,-5.373187,-3.276465,2.2559366,-3.9134207,-7.8334403,4.4150591409347182272,-5.0571527,-3.6882677,1.8590976,-4.4055467,-7.5965753,4.36504361409347182279,-4.5232453,-4.410718,-0.25079262,-4.803366,-7.4215717,4.24480251409347182292,-1.3239936,-8.368932,-3.5811272,-5.1215954,-7.4248304,3.84857631409347182297,5.1002483,-15.255854,-18.418594,-4.859085,-7.990315,2.95203851409347182313,17.657238,-19.608511,-9.375694,-5.0030966,-7.853758,3.0753721409347182328,19.607914,-19.608511,-1.965041,-5.1577897,-7.6841435,3.24369551409347182329,19.607914,-19.608511,-7.0832458,-5.284621,-7.5163455,3.42749791409347182348,16.828245,-17.335815,-14.298173,-5.2818947,-7.408734,3.65823151409347182348,9.633669,-8.433576,-12.5743475,-5.1220846,-7.3737226,3.9449761409347182363,4.8494554,-5.5000796,-8.453926,4.33292,-8.227999,-3.1138721409347182366,1.2467805,-5.6341553,-5.1116204,4.5165625,-8.000363,-3.4300471409347182378,-0.8810662,-5.429451,0.4297592,4.3258643,-7.9748516,-3.72276971409347182397,-3.448249,-6.353014,5.382764,4.019985,-8.1792345,-3.62081341409347182400,-7.0287776,-13.38658,5.2157683,3.5202808,-8.62693,-3.05844761409347182416,-7.5561004,-19.372683,3.958214,2.4929802,-9.211128,-2.26066111409347182429,-4.302979,-17.266384,3.0346506,1.4040442,-9.585478,-1.5223991409347182430,-0.20530279,-13.986328,1.95307,0.793549,-9.718988,-1.04017021409347182446,1.3293805,-13.593678,1.87047,0.61529404,-9.756973,-0.77025141409347182447,-0.17118542,-11.86327,3.3728316,0.62443745,-9.771937,-0.538231251409347182467,-1.01574,-10.332776,5.4204726,0.53574264,-9.78948,-0.222442151409347182467,-0.076614454,-9.380483,6.627749,0.40962067,-9.795226,0.236963421409347182478,0.075417355,-7.2873516,4.24492,0.36368018,-9.768774,0.78051211409347182494,-1.0348936,-6.754043,2.0099323,0.3340753,-9.734093,1.14290691409347182497,-2.7257986,-7.48607,2.9634233,0.20899522,-9.713583,1.3315491409347182511,-3.5116954,-8.025364,3.1872811,-0.06406243,-9.681869,1.55810631409347182528,-3.3572693,-8.3408,2.2008698,-0.40029082,-9.6426735,1.74040521409347182528,-3.0986955,-8.411429,0.7344214,-0.7074936,-9.612901,1.80609431409347182545,-2.8455088,-8.47308,-0.25617957,-0.9909549,-9.601136,1.73395441409347182545,-2.7168205,-9.111733,-0.29149407,-1.231291,-9.602222,1.56577171409347182575,-2.6354175,-10.038289,0.094570965,-1.4155372,-9.605128,1.3813651409347182591,-2.4372973,-10.938509,0.5243302,-1.546315,-9.60595,1.22679921409347182592,-1.9883845,-11.865065,0.8774749,-1.6277874,-9.605545,1.11992291409347182609,-1.1611878,-13.31236,0.47165772,-1.6552047,-9.607386,1.06246611409347182610,0.32022446,-14.999674,-0.9032126,-1.5805271,-9.629208,0.975027561409347182610,1.8339585,-15.842433,-1.8255788,-1.3857857,-9.678083,0.76464521409347182626,1.8662802,-14.472949,-1.1611878,-1.0758079,-9.734655,0.49951081409347182626,1.8249803,-12.233173,0.29328972,-0.79588914,-9.769382,0.310029831409347182644,2.1751323,-10.569802,0.97384155,-0.543634,-9.788319,0.252307121409347182647,2.4552538,-9.831191,1.1827357,-0.30183572,-9.798385,0.26632631409347182661,3.008913,-9.128492,1.4239515,-0.07040537,-9.801396,0.31313831409347182677,3.7582982,-8.319851,1.6023195,0.1918921,-9.797152,0.386493471409347182678,3.8187518,-8.136096,2.0853498,0.51183575,-9.781749,0.47517481409347182695,3.7421372,-8.227076,3.8283286,0.8286191,-9.752067,0.617238761409347182713,3.1280246,-8.817844,10.945692,1.1383234,-9.69619,0.926567141409347182714,2.735974,-9.009979,15.251663,1.3871356,-9.526652,1.86792391409347182728,4.791396,-6.871359,6.421249,1.5607846,-9.187058,3.05488091409347182728,5.103241,-6.26383,4.0240545,1.867861,-8.989418,3.44554781409347182744,4.482544,-7.3909006,1.4041992,2.134079,-8.844001,3.66056851409347182745,3.8313212,-8.231864,0.7404069,2.3238726,-8.832924,3.570641409347182760,3.3123782,-8.767567,0.45908818,2.4975893,-8.862282,3.3752641409347182775,2.8688521,-9.493608,0.4237737,2.5952034,-8.910244,3.16904571409347182778,2.4534583,-10.192716,0.374094,2.6318393,-8.972884,2.95485471409347182792,2.106299,-10.8708725,0.20290859,2.612821,-9.045092,2.74406311409347182797,1.8130093,-11.396998,-0.11971009,2.5505443,-9.125265,2.52876451409347182809,1.4945804,-11.701661,-0.5734113,2.4554467,-9.21097,2.3020051409347182826,1.2114661,-11.722012,-1.0821792,2.3322544,-9.300968,2.05498671409347182826,0.74998367,-11.880029,-1.7190368,2.1995711,-9.390305,1.77607981409347182846,0.47165772,-12.2798605,-2.0769699,2.0255396,-9.480595,1.47847911409347182846,0.46567222,-12.732964,-1.7465701,1.8341738,-9.562801,1.16576471409347182860,0.27832595,-13.227964,-1.2449849,1.6506743,-9.62474,0.900035141409347182874,-0.6859388,-13.926473,-5.1607018,1.4618726,-9.67214,0.694981931409347182879,-0.28790274,-13.67987,-10.288484,1.2085109,-9.730522,0.163721671409347182895,1.3479356,-11.880628,-9.248202,1.0201173,-9.72494,-0.74517311409347182912,2.2798786,-10.302849,-6.4284315,1.0240757,-9.64526,-1.44589611409347182912,3.079542,-9.996989,-4.022857,1.1209601,-9.545087,-1.9506911409347182927,4.654328,-10.760141,-2.0099323,1.3143282,-9.465197,-2.20294741409347182928,6.736685,-12.063784,2.4019828,1.5813069,-9.419359,-2.22385621409347182942,8.697536,-13.184869,13.986328,1.9429995,-9.431063,-1.85746321409347182946,9.2069025,-13.463793,11.1073,2.406663,-9.4897,-0.569195751409347182966,7.562086,-14.345458,5.443816,2.8430188,-9.378025,0.374545841409347182967,7.641693,-14.046782,4.7518916,3.0865574,-9.269219,0.85154671409347182977,7.863157,-12.570756,2.4851813,3.2862124,-9.163935,1.18046531409347182996,7.1209545,-13.10586,-6.5607114,3.5120187,-9.0596075,1.32651341409347183012,5.3007627,-15.584457,-19.307442,3.6640394,-9.0667715,0.73404551409347183013,2.7802668,-18.315044,-17.835606,3.6807992,-9.048379,0.86541511409347183027,1.8112136,-17.362152,-9.244013,3.7221367,-9.025909,0.921432731409347183028,3.0585926,-15.682021,-2.0949266,3.114031,-8.976973,-2.42634871409347183043,4.12102,-14.036008,1.8914193,3.026599,-9.00962,-2.4159441409347183046,4.823119,-11.208455,3.654749,2.9817822,-9.092386,-2.14659241409347183060,5.1182046,-10.206482,3.4195185,3.059995,-9.147081,-1.7713551409347183076,4.168904,-10.507553,3.952827,3.1732035,-9.164538,-1.45340851409347183078,2.5719712,-10.942101,4.505289,3.23834,-9.193454,-1.07886841409347183091,1.9393034,-10.706271,5.117606,3.2025738,-9.245206,-0.66340551409347183112,1.2485762,-11.128249,5.1642933,3.131837,-9.2902775,-0.229648131409347183113,0.7398083,-11.867459,5.3737855,3.0019736,-9.334519,0.159165311409347183131,-0.1376666,-15.635334,5.631761,2.8291676,-9.375519,0.51559681409347183131,-2.1068976,-19.60133,6.569091,2.5351279,-9.436735,0.831577661409347183138,-5.2205567,-19.608511,11.876437,2.089785,-9.516835,1.11041331409347183146,-7.1466923,-19.608511,11.123461,2.3472455,-9.494555,0.71711841409347183163,-6.381146,-18.227655,4.0737343,2.5657582,-9.459949,0.310932341409347183177,-3.0561984,-13.327324,-2.9700072,0.27688774,-9.5663595,2.13973831409347183179,-1.7848774,-11.11149,-3.3806129,-0.040823594,-9.630683,1.84897081409347183195,-2.0871453,-9.562442,9.347562,-0.20130788,-9.680289,1.55622941409347183210,-1.6831238,-7.0467343,5.3223104,-0.32791826,-9.576919,2.08457881409347183211,-0.79367787,-6.5625067,1.1055226,-0.359744,-9.513205,2.3536961409347183228,-0.8726865,-6.6828156,0.39564183,-0.33910367,-9.526446,2.3026591409347183228,-1.0378864,-7.2783732,0.110731825,-0.36295506,-9.5516615,2.1918911409347183241,0.3705027,-7.1766195,1.4293385,-0.46052903,-9.583052,2.03062441409347183246,2.6617537,-6.779182,3.365649,-0.43448535,-9.593683,1.98566351409347183259,2.7712884,-7.0449386,2.8233624,-0.1869111,-9.566724,2.14784221409347183278,2.03567,-6.2105594,1.3281834,0.09254852,-9.537783,2.27870771409347183278,0.7697359,-5.035605,1.1731589,0.31897184,-9.532748,2.27933551409347183289,-0.35913026,-4.0719385,1.9363106,0.41834378,-9.519727,2.31736041409347183308,-1.376666,-3.369839,2.7150247,0.38870823,-9.493153,2.4288631409347183309,-2.3187842,-3.0657754,3.454833,0.22048429,-9.445406,2.6279421409347183329,-2.9299042,-2.8257565,3.582923,-0.0649436,-9.360232,2.92441651409347183330,-3.4207156,-2.6461914,3.6218286,-0.42400867,-9.2427225,3.25003221409347183341,-4.097078,-2.5210943,3.684078,-0.85015905,-9.090037,3.58034441409347183346,-4.768651,-2.3020248,4.0857053,-1.3737162,-8.891489,3.90188571409347183360,-5.199009,-2.1428106,4.289212,-1.970552,-8.61964,4.2413571409347183378,-5.0906715,-2.2493525,3.9797618,-2.6004727,-8.273995,4.57699971409347183379,-4.785411,-2.6922798,3.6475663,-3.1801522,-7.923434,4.82454441409347183389,-4.4639893,-3.328539,3.0292637,-3.6633945,-7.6132803,4.97874551409347183405,-3.7948096,-4.2437224,1.5699978,-4.051684,-7.394582,5.00743531409347183406,-2.9245174,-5.6545057,-0.8463503,-4.320019,-7.3632207,4.82605461409347183431,-1.4317327,-8.276156,-6.5265937,-4.45254,-7.6037908,4.30437761409347183432,5.121796,-15.019425,-18.59337,-4.331431,-8.300507,2.91730791409347183439,17.47049,-19.608511,-13.610438,-4.4536977,-8.170691,3.0943171409347183447,19.607914,-19.608511,-7.8733325,-4.5871625,-8.018937,3.2901331409347183465,19.607914,-19.608511,-5.2702365,-4.6781178,-7.9022827,3.44086071409347183468,15.828068,-15.810709,-12.4630165,-4.648124,-7.8519936,3.5932621409347183480,8.16363,-6.8863225,-11.987169,-4.5634823,-7.8538194,3.6962891409347183519,3.632004,-4.693234,-7.5016327,4.417272,-8.054668,-3.43226051409347183520,-0.05267244,-4.767454,-1.8177977,4.4544835,-7.858528,-3.81726811409347183520,-3.7217865,-6.1985884,2.8413188,4.209227,-7.9478087,-3.90962151409347183521,-8.182184,-14.200609,2.8951883,3.700331,-8.341342,-3.5916511409347183526,-9.280524,-19.608511,1.7136499,2.5419536,-8.985024,-2.99636151409347183540,-5.9837084,-18.467075,0.6865373,1.2976593,-9.428974,-2.36240481409347183557,-2.1218612,-13.532626,2.3780408,0.54256666,-9.597434,-1.94042381409347183558,0.19871874,-12.480375,4.5178585,0.254049,-9.68066,-1.54617791409347183587,1.0534488,-11.083957,6.839636,0.24720104,-9.748378,-1.03846921409347183588,-0.56203884,-9.035119,7.0503254,0.3232295,-9.794453,-0.36686991409347183590,-1.5813702,-7.787141,7.4764934,0.25917378,-9.798648,0.299555781409347183620,-1.9740193,-7.3322425,7.439982,0.0943734,-9.757709,0.973977151409347183621,-2.5198972,-7.7811556,5.5192337,-0.09821926,-9.675266,1.59685951409347183621,-3.1322143,-8.541913,3.630807,-0.33930445,-9.592619,2.00920631409347183627,-3.4141316,-9.066842,2.48578,-0.63680595,-9.535,2.20196251409347183641,-2.7138276,-8.942344,1.3970166,-0.95127636,-9.499789,2.24041821409347183660,-1.922544,-8.259995,-0.07062895,-1.1800492,-9.490512,2.1698061409347183661,-1.8237832,-7.7464395,0.16160862,-1.2966005,-9.516027,1.98353771409347183686,-2.0841527,-8.333617,0.3752911,-1.3992902,-9.531081,1.83599671409347183688,-2.1499932,-9.150639,0.42437226,-1.4825367,-9.543379,1.70187521409347183689,-2.0248961,-10.1861315,0.37708676,-1.5461639,-9.555657,1.57135981409347183719,-1.5071499,-11.69807,-0.37948096,-1.5882766,-9.56881,1.44416711409347183721,-0.22984336,-13.485341,-1.7555484,-1.5721895,-9.599083,1.2474821409347183722,1.1438298,-14.750078,-2.7180176,-1.4259119,-9.657523,0.93242821409347183727,1.2252327,-14.589666,-1.9776106,-1.1550971,-9.721902,0.566376031409347183741,0.9804256,-13.533225,-0.061650693,-0.9240482,-9.75829,0.30377251409347183766,1.1174936,-12.340314,1.050456,-0.72992057,-9.777049,0.216670571409347183766,1.644218,-11.230601,1.5209166,-0.54388446,-9.789075,0.22045711409347183767,2.6437972,-9.862315,1.5951369,-0.35723522,-9.796077,0.282215361409347183799,3.8385038,-8.714295,1.448492,-0.1209519,-9.798904,0.370443671409347183800,4.461595,-8.280945,2.1757307,0.20543051,-9.794034,0.4528491409347183800,4.8536453,-8.241441,5.2798133,0.59280604,-9.769887,0.60687691409347183807,5.4521956,-9.058462,16.86296,1.0142577,-9.700074,1.02480141409347183827,7.6291237,-8.558074,10.645219,1.4925916,-9.38265,2.43072921409347183827,6.445191,-8.4234,3.5362358,2.0834866,-9.070767,3.09041171409347183842,5.6150017,-8.876503,2.1775265,2.482912,-8.942434,3.1683431409347183861,4.4765587,-9.537302,2.3050177,2.722493,-8.8596945,3.20378761409347183863,4.1305966,-9.642049,2.1535845,2.8154433,-8.82334,3.22371341409347183873,3.763685,-9.552266,2.4732103,2.9040053,-8.8168745,3.16225361409347183891,3.5242648,-9.274539,2.806603,2.9663126,-8.819109,3.09753181409347183892,3.3794158,-9.252991,2.2840683,2.9944832,-8.81774,3.07423621409347183908,3.140594,-9.871892,0.9804256,3.011849,-8.828403,3.0262911409347183908,2.5198972,-10.800842,-0.39145198,3.0043712,-8.875868,2.89190751409347183921,1.5622166,-11.576564,-1.3545196,2.9353876,-8.970512,2.66153981409347183927,0.6871359,-11.775283,-1.9859903,2.7828329,-9.101539,2.36393571409347183939,-0.12868834,-11.530476,-2.6485856,2.567134,-9.248208,2.01267671409347183959,-0.521936,-10.924743,-2.9646204,2.3003044,-9.39625,1.60919231409347183961,-1.9141643,-11.127651,-4.7979803,2.0366158,-9.51733,1.20125911409347183974,-2.7210102,-11.947066,-8.376115,1.6489975,-9.645788,0.640306351409347183993,-0.86370826,-11.521497,-8.080431,1.2096112,-9.72908,-0.228560921409347183993,1.1186907,-10.899603,-5.5820813,0.97303843,-9.705709,-1.0113411409347184005,2.0805612,-11.442489,-3.288436,0.95265263,-9.642635,-1.51076581409347184007,2.8574798,-11.949461,-2.1733365,1.0348669,-9.601422,-1.70649181409347184023,3.5895069,-11.7681,-1.7357962,1.1611816,-9.582861,-1.72939571409347184027,4.909311,-10.9025955,-1.2497733,1.3211768,-9.566956,-1.7024161409347184039,6.4416,-10.912771,0.2753332,1.5850682,-9.537479,-1.64148651409347184057,7.643489,-11.687894,3.3249476,1.9577541,-9.4965515,-1.46733761409347184058,8.15106,-12.732964,7.7703815,2.3816237,-9.451207,-1.08301851409347184073,8.021772,-13.863027,9.269152,2.7903545,-9.393806,-0.375101751409347184095,7.129933,-14.681245,5.3660045,3.1074455,-9.292204,0.411263761409347184096,6.4110737,-13.557766,3.743933,3.2790978,-9.2024555,0.85598381409347184099,5.4043117,-11.4837885,2.6970682,3.3837967,-9.132636,1.14685771409347184107,3.1591492,-13.654132,-3.2357635,3.4597015,-9.088297,1.2663761409347184121,1.5765818,-16.757017,-14.347853,3.3450208,-9.171989,0.92510531409347184128,-0.1388637,-18.464083,-16.89229,3.3772202,-9.149733,1.02331541409347184141,0.13347675,-16.387712,-9.02614,3.4322186,-9.121143,1.0931741409347184154,2.0799627,-13.934254,-2.60968,2.3787284,-9.308355,-1.96635271409347184159,4.546589,-11.981782,1.0103531,2.3390908,-9.288567,-2.10276151409347184173,4.915296,-9.825804,2.717419,2.46751,-9.289999,-1.94363181409347184190,4.6495395,-8.734048,2.5480292,2.6287134,-9.302323,-1.65138841409347184191,3.4931402,-9.029133,2.8778305,2.7899985,-9.300978,-1.37044671409347184208,2.32058,-10.271724,3.0322564,2.8877597,-9.312276,-1.05485691409347184209,1.5652094,-11.5951185,2.895787,2.870713,-9.348061,-0.73701431409347184221,0.878672,-12.935872,3.2734723,2.7697132,-9.396641,-0.449708341409347184228,-0.14664486,-14.923059,4.11683,2.600974,-9.453926,-0.169108031409347184240,-1.4544775,-18.514362,4.787805,2.3442538,-9.521331,0.138230671409347184256,-3.3255463,-19.608511,7.2723875,1.9826514,-9.594566,0.428661471409347184260,-5.309142,-19.608511,9.977237,1.5321516,-9.649212,0.84595691409347184271,-4.8614264,-19.598337,9.691729,1.8269732,-9.619837,0.53971831409347184292,-2.907758,-16.586432,5.7005944,2.0859897,-9.580149,0.199373991409347184293,-0.7577648,-12.998121,0.24660277,0.29569384,-9.623367,1.86380541409347184306,0.05267244,-10.992977,-0.43514615,0.13978694,-9.647162,1.75587991409347184307,-0.05626374,-9.524733,2.3942018,0.07464549,-9.661662,1.67841961409347184322,-1.7836803,-9.205107,7.9463553,0.056515962,-9.641451,1.7915381409347184329,-1.5813702,-8.019379,4.856638,-0.03499065,-9.550484,2.2265341409347184346,-0.5470751,-7.018004,1.0815806,-0.085153736,-9.501956,2.42403911409347184347,-0.4997896,-7.369353,0.5279215,-0.08218027,-9.519281,2.35518881409347184359,-0.6536171,-8.124723,0.919972,-0.11981735,-9.545811,2.24355821409347184373,0.110133275,-8.24563,1.1701661,-0.18768881,-9.569026,2.1375021409347184390,1.1761516,-7.9062524,1.1779473,-0.17352322,-9.586329,2.05975061409347184391,1.0618285,-7.5926123,2.0045455,-0.052148707,-9.597006,2.01622461409347184408,0.75836337,-6.178836,2.789245,0.07067425,-9.585623,2.06911951409347184408,-0.33638534,-4.8416743,2.3774424,0.16721213,-9.554453,2.203371409347184426,-0.8110358,-3.9414546,2.5582044,0.14624359,-9.525266,2.3277251409347184427,-1.3718776,-3.3919852,3.2734723,0.069677345,-9.483817,2.49454051409347184448,-2.0799627,-2.8868086,4.052785,-0.083462715,-9.410406,2.7582041409347184449,-3.105878,-2.570774,4.577115,-0.31942427,-9.291044,3.1216761409347184459,-4.2173862,-2.4420857,3.9869444,-0.67849517,-9.116838,3.54870411409347184471,-4.84347,-2.2583308,3.7295678,-1.1892922,-8.918862,3.89998481409347184488,-5.158906,-2.0769699,3.4614172,-1.7934666,-8.677579,4.20160631409347184489,-5.156512,-1.9776106,3.550601,-2.423572,-8.405017,4.43309931409347184505,-5.3444567,-2.184709,3.5553896,-3.0267153,-8.081235,4.6586511409347184507,-5.2115784,-2.8048072,3.0669725,-3.6088388,-7.733543,4.8310451409347184522,-4.969764,-3.74094,1.9662381,-4.1089015,-7.4444294,4.8854671409347184540,-4.594473,-5.0517654,-0.20470424,-4.5243,-7.2898545,4.74964431409347184540,-3.1932666,-6.857592,-3.6290112,-4.853078,-7.3587604,4.2972881409347184555,-0.87927055,-10.147824,-13.297397,-4.9617553,-7.7530904,3.38244991409347184572,8.543709,-17.910425,-3.3500867,-4.634413,-8.581768,1.02266841409347184572,19.607914,-19.608511,-3.376423,-2.6138608,-9.442218,0.427359161409347184592,19.574993,-19.608511,-8.347982,-2.7794473,-9.384848,0.60804311409347184592,14.374787,-13.905523,-13.470976,-2.8600862,-9.34545,0.80798761409347184606,8.127118,-5.927445,-10.713454,-2.8023422,-9.341057,1.03050571409347184607,3.2704794,-4.7949877,-7.4345946,3.7813196,-8.608404,-2.78700451409347184621,0.12689269,-5.3648076,-2.3648727,3.9109075,-8.395809,-3.22267151409347184640,-2.5635915,-7.299921,0.8379706,3.673083,-8.451885,-3.35328221409347184641,-7.2322845,-15.3049345,2.8622682,3.148484,-8.740218,-3.14102771409347184656,-8.463503,-19.608511,3.591901,2.007953,-9.270922,-2.48767261409347184659,-4.621408,-18.608932,1.0097545,0.8584712,-9.615402,-1.72554081409347184672,0.21667525,-14.27842,2.019509,0.28028905,-9.709948,-1.34489831409347184693,0.9103952,-13.651738,5.7921724,0.2021382,-9.752646,-1.00768181409347184694,0.08499416,-11.608886,6.873753,0.22637568,-9.794135,-0.44053311409347184708,-1.2671312,-8.981848,7.077859,0.22549218,-9.803245,0.126217571409347184708,-0.85293436,-7.979874,8.48984,0.09801906,-9.780936,0.7028871409347184719,-0.52971715,-6.361394,6.799533,-4.85E-04,-9.709522,1.37680041409347184736,-1.1534066,-5.7508726,3.9199066,-0.060261868,-9.618955,1.90852711409347184741,-2.2481554,-6.707356,2.5893292,-0.17709903,-9.549609,2.22351031409347184752,-3.1358056,-8.469488,2.3319526,-0.41011256,-9.499999,2.39837481409347184771,-3.5116954,-9.852738,2.0219033,-0.71047527,-9.469839,2.4469921409347184772,-3.5224693,-10.010756,1.821389,-1.0113851,-9.454718,2.3991241409347184795,-3.3686419,-9.46847,1.472434,-1.2782497,-9.438433,2.33504991409347184795,-3.1136594,-8.69993,0.9355343,-1.4954005,-9.425347,2.2576521409347184801,-2.902371,-8.391677,0.37229836,-1.6830151,-9.417057,2.15797951409347184808,-2.5342624,-8.549096,-0.12090719,-1.8328313,-9.42007,2.0182661409347184821,-2.0871453,-8.992621,-0.79726917,-1.9377173,-9.437361,1.83081141409347184837,-1.5819688,-9.56723,-1.3042414,-1.9920164,-9.471714,1.57761761409347184839,-1.0049661,-10.569802,-1.7369933,-1.9818095,-9.518526,1.28081431409347184855,-0.23882163,-11.926117,-2.5516205,-1.8938662,-9.575057,0.9497091409347184872,0.57161564,-12.910732,-2.6330233,-1.711163,-9.638882,0.578157071409347184873,0.8690952,-12.879608,-1.2324153,-1.4613179,-9.694986,0.205437241409347184888,1.3060371,-12.138004,-0.0700304,-1.21002,-9.731713,0.0013414781409347184889,1.8016368,-11.4359045,0.47884035,-0.96050626,-9.759216,-0.0743640441409347184905,2.7670987,-10.642825,0.81043726,-0.71182346,-9.780518,-0.0718406661409347184908,3.8133647,-9.9712515,1.0462662,-0.4135428,-9.797894,-0.02567981409347184922,5.443816,-9.0476885,1.2976574,-0.0406912,-9.8064785,0.0410538951409347184940,6.0106435,-8.772954,1.3467385,0.47551617,-9.794247,0.13040391409347184941,5.602432,-8.866327,2.5911248,1.0130547,-9.751937,0.209359961409347184955,4.879383,-9.536704,8.631696,1.5045524,-9.681322,0.422723321409347184972,5.337274,-9.8683,19.530102,1.9143177,-9.545035,1.18239721409347184973,7.8853035,-6.847417,11.680712,1.9945918,-9.54922,1.00219141409347184989,6.041768,-7.193379,4.620809,2.8442576,-8.683087,3.56154351409347184990,4.6202106,-8.802282,1.5472529,3.088985,-8.490409,3.81333521409347185014,3.9091327,-10.46326,0.3609259,3.1158097,-8.488552,3.79560381409347185015,3.7822402,-11.137228,-0.4429273,3.0923142,-8.595148,3.5681081409347185019,3.66672,-10.846333,-0.95229375,3.1058261,-8.724302,3.22657441409347185041,2.9167361,-10.929531,-0.49081135,3.1086912,-8.844596,2.8774211409347185042,2.1894975,-11.300632,0.11372458,3.0547721,-8.952656,2.58624821409347185049,1.4610616,-11.80521,0.4985925,2.9450815,-9.049854,2.36580281409347185073,0.88046765,-12.413338,0.7164649,2.7774458,-9.14586,2.19303681409347185073,0.5943606,-12.935273,0.7015011,2.560977,-9.240187,2.05687361409347185088,0.3728969,-13.33271,-0.24061728,2.3254936,-9.329461,1.92967451409347185089,-0.17238252,-13.396157,-1.9596541,2.0931194,-9.422974,1.73113241409347185102,-1.7908629,-13.0759325,-7.397485,1.836393,-9.529762,1.40772221409347185122,-3.2668881,-12.283452,-16.977882,1.4921006,-9.670559,0.651397651409347185123,-0.7182605,-10.998962,-14.773421,1.0815574,-9.70904,-0.857417641409347185150,3.1268275,-9.603143,-7.2831616,0.9125406,-9.551328,-2.02726391409347185151,5.717354,-9.356541,-1.7776948,1.0682569,-9.411669,-2.53962141409347185151,5.1367598,-10.846333,4.6279917,1.4294875,-9.352323,-2.58089451409347185169,6.0106435,-11.476605,8.284536,1.7046121,-9.444995,-2.01413851409347185170,6.884527,-12.561179,5.719748,2.0222187,-9.522291,-1.1861821409347185187,7.463924,-14.035409,6.2728086,2.3689203,-9.496961,-0.605234441409347185188,8.15525,-14.2383175,5.5168395,2.6553266,-9.440271,-0.0306049831409347185207,7.4256167,-13.207614,3.9653966,2.949124,-9.341693,0.453674351409347185208,5.921459,-12.687473,2.1883004,3.1799452,-9.243122,0.78930741409347185222,5.430648,-12.7497225,-2.0446482,3.3022614,-9.185081,0.948560361409347185236,4.8344917,-13.909714,-10.400413,3.3825243,-9.175955,0.72854751409347185241,3.810372,-15.526398,-13.230957,3.3662877,-9.209851,-0.130928811409347185254,3.0113072,-16.160862,-11.175535,3.2290027,-9.193218,-1.10846451409347185268,3.2208,-15.048156,-5.1720743,3.0709085,-9.127711,-1.85063141409347185269,3.5075054,-14.153922,-1.6490064,3.012122,-9.089632,-2.1156881409347185283,4.0557775,-12.715007,0.47524905,2.9827058,-9.104182,-2.09469631409347185288,4.608838,-10.05445,2.0458453,2.9941823,-9.139283,-1.9179971409347185305,4.249708,-8.869919,3.2740707,3.0868385,-9.156469,-1.67357851409347185309,3.2124202,-9.4217825,4.0557775,3.1947036,-9.17165,-1.3583361409347185322,2.1823149,-10.521319,4.3179426,3.2222662,-9.211389,-0.968338851409347185336,1.4586674,-11.328764,3.9438488,3.1706622,-9.263599,-0.55047171409347185342,0.59974754,-12.506113,3.9211037,3.0537298,-9.317207,-0.186427411409347185355,-0.38486794,-14.708179,4.0019083,2.8547685,-9.381119,0.123577861409347185373,-1.3180081,-18.534115,4.274847,2.5580566,-9.459311,0.384957941409347185373,-3.5206735,-19.608511,5.7544637,2.1749802,-9.543742,0.597363231409347185389,-6.247071,-19.608511,9.484032,1.6846185,-9.622842,0.85635261409347185389,-6.2261214,-19.608511,8.832211,1.9807442,-9.589839,0.53108141409347185410,-3.9474401,-17.468695,4.5675383,2.2358425,-9.546989,0.162329911409347185411,-1.6214731,-13.790003,0.25677812,0.1694301,-9.652002,1.72642581409347185420,-0.80564886,-11.751341,0.48123455,-0.036733694,-9.670015,1.63090431409347185438,-0.92655605,-9.883863,3.515885,-0.1350605,-9.672896,1.60848681409347185440,-0.87567925,-8.810662,8.881889,-0.18049072,-9.642072,1.77996391409347185457,-1.6579847,-7.872135,5.787384,-0.1836898,-9.536585,2.27820731409347185471,-1.0833763,-7.023391,0.8996213,-0.23120296,-9.468965,2.5407981409347185472,-0.6775591,-7.418434,1.0971429,-0.27893618,-9.487384,2.46619371409347185485,0.79726917,-7.7207017,2.379238,-0.32160366,-9.504865,2.39258931409347185488,0.70509243,-8.010401,1.4287399,-0.24776977,-9.504572,2.40252471409347185505,0.9876082,-6.691794,1.3533225,-0.16029315,-9.521057,2.34396341409347185522,0.30107087,-5.4641666,1.4209588,-0.03698036,-9.525276,2.3319781409347185522,-0.8858546,-4.268862,1.714847,0.011591946,-9.520577,2.35135531409347185542,-1.2946646,-2.861071,2.3062148,-0.06636194,-9.503305,2.41933231409347185542,-2.1122844,-2.3343468,2.735974,-0.19187926,-9.459131,2.58039071409347185561,-2.9753942,-1.9446903,3.4075475,-0.41695994,-9.385323,2.8128761409347185573,-3.6445735,-1.6232687,3.5697548,-1.7164354,-8.862272,3.83201841409347185574,-4.2197804,-1.4568717,3.4380736,-1.7164354,-8.862272,3.83201841409347185589,-4.661511,-1.4269443,3.7253778,-1.7164354,-8.862272,3.83201841409347185591,-5.073912,-1.4293385,3.7774518,-2.3008575,-8.564848,4.1856681409347185604,-5.265448,-1.5227122,3.626617,-2.928025,-8.205064,4.50266461409347185622,-5.197213,-1.8974048,3.345897,-3.5446103,-7.8132615,4.7496391409347185625,-4.894945,-2.4504654,3.3411086,-4.089435,-7.453075,4.8886191409347185638,-4.5040917,-3.2872388,3.244742,-4.516214,-7.129937,4.9938151409347185662,-3.8696284,-4.522647,2.7269957,-4.821157,-6.9064503,5.02272651409347185663,-2.9903579,-7.1903863,-0.17417817,-4.9669,-6.860059,4.9436711409347185664,-1.4478935,-13.549386,-13.95221,-4.945163,-7.2211323,4.42391251409347185670,13.284826,-19.608511,-16.340427,-4.6271,-8.447311,1.84479081409347185684,19.607914,-19.608511,-4.7740383,-4.7808843,-8.300398,2.10164981409347185688,19.607914,-19.608511,-3.2034419,-4.9172254,-8.1453,2.3759981409347185709,17.766771,-18.144457,-9.873688,-4.983224,-8.038027,2.59383421409347185710,10.833763,-7.905654,-14.542979,-4.880797,-8.011385,2.85760431409347185721,5.5497594,-3.4183214,-9.578603,4.14735,-8.413171,-2.8615481409347185741,1.5562311,-3.8486793,-3.5140896,4.487531,-8.058307,-3.33109141409347185742,-2.741361,-6.725911,1.726818,4.4196925,-8.016773,-3.5168241409347185749,-8.378509,-14.789582,2.4343045,3.8982341,-8.366266,-3.31357531409347185780,-9.951499,-19.608511,2.4953568,2.660049,-9.0223875,-2.77328231409347185781,-6.4577603,-18.602348,1.0366893,2.7446992,-8.999773,-2.7642521409347185782,-2.0015526,-13.245322,3.3740287,0.520904,-9.646196,-1.68817761409347185789,0.073023155,-12.133216,7.105392,0.21990357,-9.727054,-1.22738611409347185816,1.0067618,-11.267113,8.566454,0.1824401,-9.789623,-0.54805831409347185817,-0.46806642,-8.808268,7.3466077,0.26659635,-9.801043,0.197275551409347185822,-0.6925228,-6.979098,7.498041,0.2008578,-9.769429,0.82965931409347185836,-0.7015011,-5.430648,6.281787,0.1116355,-9.696051,1.46442141409347185853,-1.596334,-5.4857144,4.004901,0.021918986,-9.605598,1.97544551409347185854,-2.4588451,-6.615778,2.706645,-0.15143354,-9.534199,2.29052541409347185868,-2.8574798,-7.8170686,2.2319946,-0.41646573,-9.487417,2.4466021409347185869,-2.859874,-8.972271,1.5370775,-0.7071163,-9.460416,2.48412751409347185886,-2.4570496,-9.144054,0.7493851,-0.9731825,-9.4569845,2.40598271409347185889,-2.4797945,-9.030331,0.53330845,-1.1724285,-9.470941,2.25767021409347185906,-2.546832,-9.054871,-0.23942018,-1.3420435,-9.484078,2.10275271409347185921,-2.4474726,-9.385869,-1.2898762,-1.4859283,-9.508862,1.88254631409347185923,-2.4193408,-10.155605,-1.4215573,-1.593905,-9.54778,1.57154971409347185943,-1.9369092,-11.465832,-0.6607997,-1.6813328,-9.580016,1.25172391409347185944,-1.3078327,-11.870452,-0.3776853,-1.6875194,-9.605689,1.0263521409347185952,-0.46267948,-12.276269,-0.66379243,-1.6315678,-9.632133,0.854614851409347185974,0.46686932,-12.681488,-0.8924387,-1.503409,-9.667174,0.675223351409347185975,1.0995371,-12.650363,-0.30047232,-1.3024673,-9.707396,0.490361841409347185980,1.6675615,-11.880628,0.6512229,-1.0629723,-9.74176,0.372302441409347185989,2.408567,-10.763134,1.4012065,-0.8023624,-9.766883,0.36689331409347186017,2.9574378,-9.887454,1.8656816,-0.5091732,-9.784708,0.41308631409347186018,3.6876693,-9.131485,2.0644004,-0.19968612,-9.79139,0.509089351409347186048,4.4885297,-8.762778,1.9033904,0.15697043,-9.784923,0.633269251409347186049,4.6902413,-8.674791,2.1296425,0.5711133,-9.761798,0.742632751409347186050,4.6764746,-9.006987,3.678691,0.98749626,-9.717628,0.873470961409347186052,6.1117983,-9.336189,12.098499,1.3844767,-9.641418,1.13871651409347186078,10.605117,-7.4232225,17.617134,1.8909204,-9.38562,2.1224861409347186079,7.550115,-7.0994067,7.493851,2.7001042,-8.806729,3.36471721409347186081,5.0906715,-8.073248,3.0496144,3.1422362,-8.542763,3.64937731409347186089,3.518878,-9.09258,1.0498575,3.3139312,-8.46173,3.68610431409347186111,3.0747535,-9.749189,0.40940848,3.2825358,-8.493047,3.64190631409347186113,3.4530375,-10.09156,-0.047884032,3.19737,-8.590496,3.48577071409347186125,3.9881415,-10.361506,-0.43634325,3.1749072,-8.699906,3.2252111409347186153,3.66253,-10.648212,-0.52253455,3.2041965,-8.795298,2.92339561409347186155,3.2513258,-10.811018,-0.40821138,3.2094865,-8.887521,2.62327121409347186156,2.8455088,-11.142614,-0.4333505,3.1868129,-8.965399,2.37407781409347186174,2.2457612,-11.939285,-0.60214174,3.1263826,-9.042184,2.15291171409347186175,1.8010383,-12.648567,-0.6422446,3.00437,-9.134097,1.92676131409347186182,1.6262615,-13.231556,-0.34715924,2.8378682,-9.230663,1.7063861409347186205,1.1061212,-13.791799,-0.029927522,2.653284,-9.317504,1.52139071409347186206,-0.7170634,-14.475344,-4.280234,2.4284904,-9.402819,1.36375741409347186225,-1.4059949,-14.3418665,-11.40059,2.0805492,-9.545558,0.850886761409347186226,0.40162733,-12.480375,-12.006922,1.729621,-9.651244,-0.179620651409347186229,2.022502,-10.783484,-9.290101,1.5630797,-9.605559,-1.20847151409347186254,3.244742,-9.878476,-6.1489086,1.5823808,-9.480747,-1.94470441409347186254,5.027225,-9.248801,-2.6725276,1.7303463,-9.364156,-2.3428281409347186268,5.856816,-10.168175,1.2372037,1.9930519,-9.295934,-2.40494471409347186269,5.66947,-12.49893,8.661025,2.271213,-9.299855,-2.12712481409347186286,6.591237,-13.458406,8.330027,2.47893,-9.406828,-1.2397161409347186298,6.950966,-14.202404,5.547365,2.7034798,-9.416316,-0.441124051409347186302,7.675212,-13.997102,5.035605,2.906529,-9.365892,0.050227381409347186342,7.6788034,-12.166735,3.4745853,3.1289115,-9.280927,0.494702521409347186344,6.6271505,-11.024101,1.0169371,3.368412,-9.177327,0.77517191409347186344,5.864597,-11.563994,-4.947019,3.5474756,-9.105387,0.823260551409347186358,5.216367,-12.941857,-11.744757,3.6553328,-9.091861,0.38341421409347186359,3.9498343,-15.052346,-12.522273,3.6651816,-9.077757,-0.575451851409347186362,3.4093432,-15.83106,-8.747814,3.5406325,-9.01945,-1.51123811409347186369,3.288436,-14.840459,-3.7068229,3.388526,-8.986186,-1.98413321409347186383,3.7415388,-13.38239,1.6687586,3.2855227,-8.991595,-2.1276621409347186399,5.151125,-10.863091,2.4762032,3.2404733,-9.063053,-1.87904381409347186401,5.046977,-10.603321,2.3415294,3.3332524,-9.082787,-1.60086691409347186417,3.3273418,-11.142016,2.7575219,3.4320905,-9.089615,-1.33043091409347186434,1.8477252,-11.206659,3.1441853,3.4182765,-9.13508,-1.01788181409347186435,1.3066356,-11.016919,3.2800562,3.3159385,-9.203761,-0.68242291409347186451,0.91219085,-11.475409,3.7576995,3.1770267,-9.270065,-0.377839061409347186451,0.02813187,-14.107235,4.662708,2.9954536,-9.337462,-0.097355631409347186468,-1.4634558,-18.920778,5.3408656,2.7208488,-9.41839,0.247540941409347186469,-4.0892963,-19.608511,8.6017685,2.303809,-9.515941,0.55651281409347186485,-6.401497,-19.608511,13.031041,1.777233,-9.589512,1.02620711409347186502,-6.895301,-19.608511,10.741586,2.0844493,-9.559188,0.66888011409347186502,-4.9518075,-16.393698,3.5362358,2.3480394,-9.517343,0.27803721409347186519,-2.2415714,-12.630611,-1.5292963,0.14268501,-9.584677,2.0697821409347186521,-0.98102415,-10.487202,-0.2621651,-0.096318685,-9.637095,1.81314421409347186534,-0.05865794,-8.781333,7.3867106,-0.22019817,-9.646385,1.75190211409347186553,-0.6452374,-7.4429746,6.9707184,-0.27513534,-9.551163,2.20680331409347186553,-0.74998367,-6.642114,1.3706805,-0.2693778,-9.454586,2.59010081409347186570,-1.1055226,-6.659472,0.5955577,-0.20382921,-9.462095,2.56857561409347186571,-1.2078748,-6.845621,0.53570265,-0.21840778,-9.490148,2.46167021409347186582,0.015562311,-6.6295447,0.86729956,-0.32189327,-9.523894,2.31564191409347186601,1.2192472,-6.8689647,2.231396,-0.3312167,-9.545613,2.22305321409347186603,2.1517887,-6.1279593,2.2744915,-0.19577421,-9.53727,2.27433041409347186616,1.453879,-5.112818,1.5999253,0.007525719,-9.518874,2.35825541409347186640,0.32321724,-4.1036615,1.6915035,0.18076807,-9.504651,2.40818361409347186641,-0.83138657,-3.7541082,2.1140802,0.24100861,-9.482711,2.48807451409347186642,-1.5221137,-3.3129766,2.6563668,0.15184155,-9.449397,2.6184441409347186649,-2.4462755,-2.9095535,3.164536,-0.032986324,-9.391166,2.8240571409347186672,-3.5021186,-2.5635915,3.0933087,-0.33279637,-9.297292,3.10161381409347186672,-4.1659107,-2.2307975,3.0885203,-0.7653157,-9.177092,3.3712991409347186681,-4.5842977,-2.0015526,3.342904,-1.303814,-9.008606,3.64904051409347186698,-4.953005,-1.7729063,3.606865,-1.904199,-8.773589,3.94571409347186701,-5.324106,-1.5490485,4.0216603,-2.546907,-8.4617405,4.25236651409347186714,-5.1397524,-1.7597382,4.0707417,-3.2034578,-8.057812,4.5803831409347186735,-5.035006,-2.3732524,4.1880574,-3.7708175,-7.6371427,4.8605931409347186736,-4.629189,-3.067571,3.7445314,-4.2354426,-7.2430887,5.0763251409347186751,-3.9977183,-4.381389,3.0831332,-4.5767226,-6.9585366,5.17713981409347186751,-3.335123,-6.7606273,1.2198458,-4.747664,-6.8819346,5.12533471409347186770,-3.2908301,-11.680113,-8.479664,-4.767374,-7.116518,4.7746951409347186771,4.845266,-19.297865,-19.173964,-4.754595,-8.040495,2.98574541409347186787,17.823036,-19.608511,-1.252766,-4.908719,-7.860919,3.2063721409347186790,19.607914,-19.608511,-0.4417302,-5.0584407,-7.685759,3.3928871409347186802,19.607914,-19.608511,-2.0620062,-5.07403,-7.5604563,3.64198881409347186820,16.214731,-14.414291,-13.641562,-4.9500966,-7.5033555,3.92002421409347186838,8.4108305,-6.0704985,-14.03481,-4.929488,-7.488954,3.9731741409347186839,2.4049757,-4.096479,-7.327454,4.459973,-8.404644,-2.37507321409347186843,-3.6337996,-10.688913,2.0123265,4.478477,-8.253955,-2.82591961409347186850,-6.187814,-18.021156,2.9041667,3.7930036,-8.678078,-2.54449581409347186872,-6.5744777,-18.612524,3.6774938,2.7362418,-9.199032,-2.01523111409347186872,-4.590882,-13.4661875,4.0402155,1.7983913,-9.532185,-1.44002461409347186882,-2.0159178,-9.927557,3.3141737,1.1927899,-9.682989,-0.99364691409347186907,0.03232172,-10.379463,2.779668,0.87351125,-9.743583,-0.685523751409347186907,-1.1947067,-11.320983,3.945046,0.77721566,-9.767324,-0.407056361409347186910,-2.7389667,-11.145607,4.88477,0.58312696,-9.789249,-0.0313590171409347186937,-2.8353333,-10.449493,4.905121,0.28668344,-9.794342,0.398839181409347186938,-2.1936872,-9.437943,3.6379895,0.00110007,-9.774991,0.787372051409347186941,-2.023699,-8.798691,2.5899277,-0.21999475,-9.747591,1.05189741409347186950,-2.0572178,-8.164826,2.0045455,-0.41596887,-9.719901,1.23325061409347186971,-1.9680338,-7.802105,1.6717514,-0.59640783,-9.694293,1.35475981409347186972,-1.9147629,-7.7183075,1.5466543,-0.7536741,-9.6743965,1.4171781409347186982,-1.9644425,-7.410054,1.276708,-0.89435095,-9.654875,1.46762351409347187006,-1.8602947,-7.1101804,0.7032967,-1.0324994,-9.63758,1.49043851409347187007,-1.7657237,-7.3765354,-0.15562311,-1.1554972,-9.628372,1.4593391409347187010,-1.6340426,-8.1480665,-1.2856863,-1.2578964,-9.632997,1.33920691409347187052,-1.5969325,-9.362526,-2.3259668,-1.3243688,-9.655043,1.09388951409347187055,-1.4700398,-10.726623,-2.6192567,-1.36209,-9.683721,0.735294641409347187056,-0.98341835,-11.893197,-2.3535004,-1.3665932,-9.704361,0.358060571409347187057,-0.28191724,-12.558187,-1.7196354,-1.3110595,-9.718405,0.064263511409347187093,0.38965634,-12.737752,-0.688333,-1.1977789,-9.731828,-0.165140881409347187094,1.1791444,-12.671312,0.33399114,-1.042923,-9.747306,-0.269635861409347187096,2.3253684,-12.547413,1.1791444,-0.83747345,-9.767052,-0.27151451409347187097,3.3075895,-12.307992,1.8447324,-0.55430126,-9.789016,-0.195677471409347187106,4.189853,-11.71004,2.3139958,-0.21394436,-9.804128,-0.060625441409347187145,4.797382,-10.627861,2.4349031,0.180057,-9.804356,0.112242821409347187146,4.8494554,-10.162787,2.8682537,0.6116443,-9.783482,0.282445671409347187147,5.157709,-9.542689,14.8237,1.0071329,-9.742303,0.493546341409347187148,6.678027,-8.040926,15.125369,1.4605697,-9.538608,1.74701851409347187151,4.5980644,-8.834604,7.656657,1.9936569,-9.161027,2.87598511409347187176,3.9133227,-9.4774475,4.947019,2.2513733,-8.937817,3.34919951409347187177,3.5476084,-8.868722,2.3678656,2.3618197,-8.81038,3.60130551409347187182,3.6978445,-8.318654,0.8295909,2.399675,-8.80745,3.58340051409347187202,3.8576574,-8.455722,0.46267948,2.4636137,-8.863209,3.39772651409347187214,3.425504,-8.711902,0.25258827,2.561137,-8.911736,3.19248371409347187215,2.896984,-8.75799,0.047285482,2.6398559,-8.970191,2.95588281409347187234,2.472612,-8.75799,0.11432313,2.6848722,-9.028677,2.72853061409347187234,2.1278467,-9.078215,0.44113165,2.6984816,-9.082798,2.5281171409347187249,1.7399861,-9.813833,0.78769237,2.6710901,-9.131814,2.37605881409347187250,1.365892,-10.782288,0.973243,2.5925434,-9.181619,2.26869771409347187267,1.0737995,-11.3964,0.75716627,2.4633503,-9.237466,2.1843841409347187287,0.8888474,-11.692682,0.3196259,2.3041022,-9.299754,2.09190271409347187288,0.7009025,-11.885416,0.005386954,2.1372511,-9.370915,1.94640711409347187290,0.61052144,-12.09431,-0.23044191,1.9630604,-9.436446,1.80838921409347187302,0.3429694,-12.65575,-0.06584055,1.794946,-9.499177,1.6474891409347187320,-0.31663316,-13.164518,-1.6406267,1.6121604,-9.556887,1.49573661409347187344,-0.3824737,-13.416508,-11.145009,1.3896794,-9.633699,1.19625571409347187345,1.1976994,-11.944673,-14.672865,1.194553,-9.733224,0.0880868661409347187346,2.6384103,-10.408194,-10.804434,1.165246,-9.663057,-1.19913391409347187351,3.2076318,-10.060435,-6.9808936,1.3052064,-9.5138035,-1.98855461409347187375,4.3981485,-10.761338,-3.3237505,1.4703368,-9.368927,-2.49633571409347187375,6.880337,-12.026075,2.5893292,1.7268753,-9.286614,-2.63573071409347187384,7.1059904,-14.131177,12.281656,2.0869024,-9.317222,-2.23710041409347187401,7.792528,-13.9917145,9.759963,2.367487,-9.457381,-1.05988551409347187402,7.3448124,-13.822325,5.6060233,2.679976,-9.431619,-0.180728331409347187420,7.7093296,-13.43207,5.265448,2.9322717,-9.351737,0.342318831409347187422,7.469909,-12.61026,3.1794999,3.1792421,-9.241649,0.809179961409347187430,7.2610154,-12.914923,-2.5809495,3.387996,-9.148607,0.99744451409347187451,6.3488245,-14.044387,-14.196419,3.5619411,-9.107355,0.734202151409347187451,4.2161894,-15.324088,-16.065693,3.6171613,-9.107789,-0.367031251409347187468,2.6007016,-15.641918,-11.645397,3.6243973,-9.10734,-0.300886151409347187496,2.3666685,-14.693814,-4.820725,3.2866588,-8.969507,-2.21725061409347187498,3.0855274,-13.631986,-0.736217,3.169141,-8.954276,-2.43882871409347187499,4.0456023,-11.780071,1.3078327,3.0949755,-9.007306,-2.33665441409347187529,4.957195,-10.596737,2.6821043,3.0930166,-9.064473,-2.10689231409347187530,4.324527,-10.683527,4.1503487,3.1934624,-9.101431,-1.77091611409347187530,2.9203274,-10.2406,4.9063177,3.2533987,-9.148529,-1.37484691409347187532,2.2230163,-10.086772,4.5046906,3.2545822,-9.205193,-0.91787771409347187546,1.8429368,-10.649409,4.2796354,3.2153747,-9.251893,-0.483993471409347187550,1.158195,-12.136807,4.7734394,3.130194,-9.292954,-0.115175371409347187575,-0.260968,-16.203358,5.553351,2.9652216,-9.344847,0.22739071409347187576,-2.7593174,-19.608511,7.805696,2.6417737,-9.427895,0.55337041409347187582,-5.535993,-19.608511,14.192827,2.128259,-9.521434,0.99155371409347187597,-6.651691,-19.608511,14.518439,2.392464,-9.49073,0.610373561409347187614,-5.681441,-18.14745,7.0952168,2.6035845,-9.452632,0.198677241409347187614,-1.894412,-13.724163,-1.4323312,0.340783,-9.467987,2.53208571409347187633,-0.84455466,-12.129624,-3.4524388,0.07455723,-9.532187,2.30266141409347187634,-1.6101006,-10.641029,-0.6063316,-0.06984247,-9.601364,1.9948231409347187650,-2.4947581,-8.837597,2.3720553,-0.16731647,-9.628044,1.85556771409347187650,-2.5276785,-7.3843164,8.505402,-0.28454995,-9.615913,1.90358271409347187666,-1.7369933,-6.9731126,3.8175547,-0.40583035,-9.503592,2.38483881409347187686,-1.8243817,-7.3106947,1.0839748,-0.43339932,-9.472024,2.50266311409347187687,-2.2960393,-7.6800003,2.0099323,-0.51739305,-9.494022,2.40129541409347187703,-2.4905684,-8.009802,-0.40880993,-0.6989821,-9.493081,2.35864521409347187725,-0.7667431,-7.6009917,0.13826515,-0.90405667,-9.529809,2.1297481409347187726,1.377863,-7.1730285,1.8004397,-0.93623954,-9.555558,1.99628721409347187727,2.8341362,-6.7983356,3.271078,-0.75308573,-9.56219,2.04150941409347187731,2.8461072,-5.419874,3.1334114,-0.39777592,-9.542634,2.22492531409347187760,1.4634558,-4.1395745,2.3876176,