time,acc_x,acc_y,acc_z,gravity_x,gravity_y,gravity_z1.40952E+12,0.39145198,-9.655217,-0.41299978,0.79893416,-9.754114,-0.623983861.40952E+12,0.2621651,-9.536105,-0.3609259,0.78893036,-9.75434,-0.63311321.40952E+12,0.130484,-9.44333,-0.33638534,0.77562255,-9.7548485,-0.64164781.40952E+12,0.061650693,-9.372701,-0.33159694,0.7594167,-9.755665,-0.64861361.40952E+12,0.06584055,-9.402629,-0.35793316,0.7405939,-9.756766,-0.65377871.40952E+12,0.11252748,-9.522937,-0.45789108,0.71919864,-9.758169,-0.65670571.40952E+12,0.12270284,-9.636662,-0.5602432,0.6962141,-9.759681,-0.65903911.40952E+12,0.20111294,-9.799467,-0.6548142,0.67301035,-9.761317,-0.65887541.40952E+12,0.33399114,-9.944916,-0.7697359,0.6504098,-9.762898,-0.6581371.40952E+12,0.44831428,-10.121488,-0.84216046,0.62855333,-9.7643,-0.65860651.40952E+12,0.53450555,-10.329783,-0.9032126,0.60709614,-9.765503,-0.660901551.40952E+12,0.6003461,-10.645219,-0.97264445,0.58634853,-9.766374,-0.66675261.40952E+12,0.664391,-11.030087,-1.0618285,0.56713265,-9.766822,-0.676738441.40952E+12,0.75477207,-10.98759,-1.0672154,0.54978025,-9.766842,-0.69059421.40952E+12,0.8415619,-10.928932,-1.0259154,0.53445786,-9.766587,-0.706048851.40952E+12,0.9379285,-10.821792,-0.9247604,0.52204555,-9.765906,-0.72454881.40952E+12,1.0402806,-10.721834,-0.8475474,0.5117954,-9.764892,-0.74523471.40952E+12,1.0749966,-10.5045595,-0.7793127,0.50512105,-9.763603,-0.766362131.40952E+12,1.0354922,-10.348937,-0.7278373,0.5021531,-9.762104,-0.7871231.40952E+12,0.84455466,-9.610326,-0.5847838,0.5019252,-9.760454,-0.807446841.40952E+12,0.74878657,-9.713276,-0.60094464,0.5022826,-9.758862,-0.82626321.40952E+12,0.8678981,-10.4171715,-0.7338228,0.5030799,-9.757293,-0.844123241.40952E+12,0.9379285,-10.610503,-0.7368156,0.50532854,-9.755877,-0.85902071.40952E+12,0.9816227,-10.307038,-0.7386112,0.51131874,-9.754619,-0.869695251.40952E+12,0.9923966,-10.211869,-0.80086046,0.52161187,-9.75326,-0.8787651.40952E+12,0.9516952,-10.177752,-0.7918822,0.5342109,-9.751793,-0.88745151.40952E+12,0.91099375,-10.03769,-0.7074866,0.54808867,-9.750238,-0.896006051.40952E+12,0.90381116,-9.988609,-0.6500258,0.5628525,-9.748544,-0.905247871.40952E+12,0.87448215,-9.946113,-0.62129533,0.57767975,-9.746735,-0.91535341.40952E+12,0.8631097,-9.913192,-0.6404489,0.59198886,-9.744949,-0.92516871.40952E+12,0.8607155,-9.91439,-0.7015011,0.6060002,-9.74326,-0.93383921.40952E+12,0.85054016,-9.88925,-0.7128736,0.61948216,-9.7417,-0.94122171.40952E+12,0.8218097,-9.871294,-0.6955156,0.6321584,-9.740186,-0.948459861.40952E+12,0.6961141,-9.907805,-0.46208093,0.6437378,-9.7386,-0.95690591.40952E+12,0.557849,-9.993997,-0.27473465,0.65197015,-9.73713,-0.96622961.40952E+12,0.40940848,-10.069414,-0.022744916,0.6551488,-9.735694,-0.97847591.40952E+12,0.24899697,-10.127473,0.22565351,0.65337247,-9.734313,-0.99332131.40952E+12,0.08439561,-10.135254,0.3489549,0.65101886,-9.733017,-1.00744161.40952E+12,-0.08080431,-10.086772,0.5410896,0.64001524,-9.731966,-1.02450061.40952E+12,-0.21667525,-10.059238,0.7032967,0.6226973,-9.73125,-1.041831.40952E+12,-0.26515785,-10.085575,0.65541273,0.59985715,-9.73098,-1.05764351.40952E+12,-0.22984336,-10.127473,0.45370123,0.5725363,-9.731052,-1.0720241.40952E+12,-0.12629414,-10.100538,0.20949265,0.5423939,-9.731399,-1.0844841.40952E+12,0.038307227,-10.007165,-0.022146367,0.5115525,-9.7321205,-1.09295311.40952E+12,0.11432313,-9.968259,-0.28909984,0.48302463,-9.732783,-1.10000621.40952E+12,0.1933318,-10.075399,-0.56922144,0.45442662,-9.733798,-1.10321721.40952E+12,0.30047232,-10.107122,-0.7721301,0.4284335,-9.734882,-1.10402851.40952E+12,0.3238158,-10.147225,-0.89423436,0.40692544,-9.735848,-1.10365441.40952E+12,0.3250129,-10.253169,-0.9995792,0.3876941,-9.736823,-1.1019761.40952E+12,0.32142156,-10.261548,-1.0899603,0.37039137,-9.737897,-1.09843561.40952E+12,0.21068975,-10.278907,-1.168969,0.3560805,-9.73911,-1.09238711.40952E+12,0.05626374,-10.278308,-1.2126632,0.34442046,-9.740521,-1.08351371.40952E+12,0.01436521,-10.191518,-1.2449849,0.33198828,-9.74199,-1.07415811.40952E+12,0.046686932,-10.157401,-1.2258313,0.3251339,-9.74342,-1.06322061.40952E+12,0.12090719,-10.187927,-1.2300211,0.32260728,-9.744801,-1.05129291.40952E+12,0.25139117,-10.113707,-1.2886791,0.3227394,-9.746103,-1.0390781.40952E+12,0.2801216,-10.010158,-1.3449428,0.32619333,-9.74712,-1.02841111.40952E+12,0.24839842,-10.02153,-1.4281414,0.33270139,-9.747745,-1.02039051.40952E+12,0.25079262,-10.04607,-1.453879,0.34101358,-9.747861,-1.01652091.40952E+12,0.30286652,-10.005967,-1.4203602,0.35094315,-9.747632,-1.01532761.40952E+12,0.3298013,-9.880272,-1.3371617,0.36194327,-9.746782,-1.0196321.40952E+12,0.37349546,-9.827001,-1.3138182,0.37357438,-9.745375,-1.02882621.40952E+12,0.36750996,-9.911396,-1.2755109,0.38431263,-9.743616,-1.04146171.40952E+12,0.3788824,-10.005369,-1.1917139,0.39344227,-9.741739,-1.0555131.40952E+12,0.42556936,-10.046669,-1.1049241,0.40129444,-9.739918,-1.06927061.40952E+12,0.41240123,-10.111911,-1.0648212,0.40822366,-9.738261,-1.08165881.40952E+12,0.33159694,-10.1699705,-1.0618285,0.41383508,-9.736836,-1.09231691.40952E+12,0.17537527,-10.0987425,-1.1168951,0.4189295,-9.735599,-1.10136061.40952E+12,-0.022146367,-9.977836,-1.2192472,0.42246965,-9.734763,-1.10739531.40952E+12,-0.25139117,-9.81503,-1.2862848,0.42467913,-9.73443,-1.10945671.40952E+12,-0.47764325,-9.648633,-1.2743138,0.4261343,-9.734652,-1.1069581.40952E+12,-0.66498953,-9.581595,-1.2419921,0.42678136,-9.735437,-1.09977111.40952E+12,-0.8343793,-9.569624,-1.2108675,0.42524788,-9.736834,-1.08793071.40952E+12,-0.97264445,-9.628283,-1.1893197,0.4199103,-9.738815,-1.07215771.40952E+12,-1.0965444,-9.77792,-1.1402385,0.41034284,-9.741112,-1.05486011.40952E+12,-1.2449849,-10.004171,-1.1174936,0.39766428,-9.743839,-1.0343331.40952E+12,-1.3838485,-10.190321,-1.0785879,0.38086367,-9.74699,-1.01071871.40952E+12,-1.4814123,-10.233417,-1.0013748,0.35961628,-9.750396,-0.985332371.40952E+12,-1.4772224,-10.200497,-0.98940384,0.33353317,-9.753927,-0.95920991.40952E+12,-1.3934253,-10.149021,-1.0690111,0.30285278,-9.757266,-0.935115641.40952E+12,-1.2617443,-10.201694,-1.1935096,0.26918665,-9.760001,-0.916690051.40952E+12,-1.0887632,-10.310031,-1.4879963,0.23514001,-9.761892,-0.90584091.40952E+12,-0.9379285,-10.415975,-1.7250223,0.20361412,-9.7630205,-0.901305851.40952E+12,-0.7954735,-10.544662,-1.6849195,0.17572978,-9.7629385,-0.908055371.40952E+12,-0.700304,-10.497377,-1.4909891,0.15283173,-9.761746,-0.92483361.40952E+12,-0.4794389,-10.209475,-1.1534066,0.13261925,-9.759426,-0.952066661.40952E+12,-0.23822308,-9.959879,-0.88405895,0.11399609,-9.756001,-0.98886231.40952E+12,-0.24660277,-9.8677025,-0.8451532,0.09660657,-9.751584,-1.03328541.40952E+12,-0.3250129,-9.834184,-1.0582372,0.08132073,-9.746344,-1.08284161.40952E+12,-0.18076223,-9.714474,-1.0636241,0.071310505,-9.740618,-1.13386381.40952E+12,-0.16519992,-9.825804,-0.9528923,0.065571375,-9.734798,-1.18314641.40952E+12,-0.1448492,-9.910199,-0.96426475,0.061688103,-9.729533,-1.22587161.40952E+12,-0.12749124,-10.000581,-1.1641805,0.05943331,-9.7248535,-1.26256951.40952E+12,-0.0676362,-10.11251,-1.4101849,0.059686407,-9.720517,-1.29551431.40952E+12,0.077811554,-10.207081,-1.6172832,0.07032061,-9.712002,-1.3573841.40952E+12,0.17776948,-10.179547,-1.8010383,0.07032061,-9.712002,-1.3573841.40952E+12,0.10414778,-10.14124,-1.9135658,0.08041882,-9.706593,-1.39500131.40952E+12,-0.12689269,-10.102334,-2.0572178,0.09174743,-9.700223,-1.43792961.40952E+12,0.11432313,-10.055647,-2.0374656,0.10242665,-9.691409,-1.49549851.40952E+12,0.5518635,-10.088568,-1.7669208,0.1167524,-9.679658,-1.56875621.40952E+12,0.90381116,-10.142437,-1.4730326,0.13363253,-9.664738,-1.65691941.40952E+12,1.0995371,-10.052056,-1.3090298,0.15248568,-9.646968,-1.75589361.40952E+12,1.2593501,-10.306439,-1.371279,0.17530309,-9.627099,-1.85973681.40952E+12,1.3856442,-10.287885,-1.6729485,0.20190877,-9.606164,-1.96245721.40952E+12,1.4335283,-10.105327,-1.6418238,0.2314739,-9.584334,-2.0633291.40952E+12,1.3485341,-9.956886,-1.4437037,0.26100656,-9.561983,-2.16119221.40952E+12,1.1965023,-9.841366,-1.1252748,0.29176673,-9.53963,-2.25404721.40952E+12,0.8463503,-9.688736,-0.6392518,0.3217343,-9.518134,-2.33923481.40952E+12,0.3369839,-9.470863,0.26755205,0.34821138,-9.499054,-2.41187671.40952E+12,-0.41359833,-9.449316,1.560421,0.36834845,-9.484369,-2.46606251.40952E+12,-1.347337,-9.582193,2.1218612,0.37942368,-9.475575,-2.49797181.40952E+12,-2.0009542,-9.605537,1.5047557,0.381262,-9.469617,-2.52019831.40952E+12,-2.1481974,-9.711481,0.44651863,0.3807903,-9.461979,-2.54879261.40952E+12,-1.6980876,-9.9473095,-0.47285482,0.38317135,-9.45276,-2.58242271.40952E+12,-1.0929531,-10.180145,-1.2216414,0.39897242,-9.448964,-2.59390021.40952E+12,-0.7326257,-10.412982,-1.7004818,0.42185938,-9.455412,-2.56663441.40952E+12,-0.64583594,-10.498574,-2.0937295,0.44284344,-9.470188,-2.50795271.40952E+12,-0.6015432,-10.526108,-2.5450363,0.4623419,-9.48673,-2.441031.40952E+12,-0.5291186,-10.644022,-2.7874494,0.48523822,-9.499712,-2.38545871.40952E+12,-0.44651863,-10.74398,-2.938284,0.5124138,-9.507552,-2.34825351.40952E+12,-0.39504328,-10.863091,-3.1759086,0.54267454,-9.512502,-2.3212511.40952E+12,-0.54527944,-11.142614,-3.2752678,0.5743518,-9.512749,-2.31260041.40952E+12,-0.7613561,-11.16955,-3.1896753,0.60627836,-9.510407,-2.31407451.40952E+12,-0.80564886,-11.015123,-3.0065188,0.6357775,-9.506711,-2.32134271.40952E+12,-0.7870938,-10.942101,-2.7144263,0.66097736,-9.501618,-2.33510681.40952E+12,-0.694917,-10.973824,-2.4821887,0.6820006,-9.495114,-2.35544371.40952E+12,-0.825401,-11.180324,-2.4558525,0.7032658,-9.487036,-2.38158921.40952E+12,-1.033098,-11.443087,-2.4277205,0.7259414,-9.478263,-2.4095511.40952E+12,-1.2533646,-11.917139,-2.255338,0.74745214,-9.468497,-2.44115661.40952E+12,-1.4083891,-12.492945,-2.0231004,0.76726156,-9.457668,-2.47674081.40952E+12,-1.6370354,-13.008296,-1.4646529,0.78000796,-9.445194,-2.51997971.40952E+12,-1.9806033,-13.031041,0.07182605,0.78262806,-9.431075,-2.57151841.40952E+12,-2.5659857,-12.859258,2.4013844,0.775164,-9.416013,-2.62835551.40952E+12,-3.2028434,-12.576143,4.841076,0.7566428,-9.39998,-2.69041131.40952E+12,-3.9258924,-12.357672,7.4028716,0.73276454,-9.381027,-2.7622081.40952E+12,-5.035006,-12.641984,14.692617,0.717415,-9.367628,-2.8112681.40952E+12,-5.589264,-13.401544,15.54615,0.68454176,-9.395402,-2.7254711.40952E+12,-3.3901896,-12.999318,6.1399302,0.6667846,-9.440872,-2.56821851.40952E+12,-2.9418752,-13.769054,4.359243,0.70825946,-9.465392,-2.4647741.40952E+12,-3.9995139,-13.828909,3.1004913,0.7374445,-9.525304,-2.21250441.40952E+12,-5.229535,-13.813347,0.51595044,0.71306014,-9.590123,-1.92132141.40952E+12,-5.5641246,-12.995727,-2.6557682,0.622187,-9.643477,-1.66930971.40952E+12,-4.9961004,-12.258911,-5.064934,0.48895666,-9.686879,-1.44764881.40952E+12,-4.6058455,-12.054806,-4.271256,0.34548882,-9.720253,-1.25208471.40952E+12,-2.2499511,-14.136564,-2.4720132,0.17973903,-9.748878,-1.04758551.40952E+12,-0.480636,-15.292963,-1.6466122,0.017671851,-9.7708435,-0.83705871.40952E+12,1.3239936,-16.224308,-2.244564,-0.14868382,-9.784392,-0.64339491.40952E+12,2.8149827,-17.98704,-3.341707,-0.3177916,-9.789861,-0.477513551.40952E+12,5.1505265,-19.141644,-3.5332432,-0.4800346,-9.789374,-0.32881971.40952E+12,5.635352,-18.894442,-2.3959973,-0.6061452,-9.786276,-0.178267371.40952E+12,3.4278982,-17.064672,-1.4999673,-0.7231649,-9.779947,-0.0080145141.40952E+12,0.5255273,-15.699978,-2.9879637,-0.8612626,-9.767132,0.178239781.40952E+12,-1.6334441,-14.818912,-3.7846344,-0.9938079,-9.749789,0.352643071.40952E+12,-3.208829,-13.751098,-3.8857894,-1.1076633,-9.730172,0.51690331.40952E+12,-3.09271,-12.419921,-2.802413,-1.2283821,-9.7074,0.65409341.40952E+12,-1.3030443,-11.358093,-2.3648727,-1.3696737,-9.680867,0.758422141.40952E+12,1.0139444,-10.699089,-2.3959973,-1.5306277,-9.6502,0.83739121.40952E+12,1.4742297,-10.253767,-2.4809916,-1.6949466,-9.616081,0.91023121.40952E+12,2.0805612,-9.247005,-2.2098482,-1.8554614,-9.5784645,0.99029831.40952E+12,3.3848026,-8.264784,-2.0242975,-1.9932247,-9.538994,1.09775661.40952E+12,4.3197384,-7.1353197,-2.746748,-2.0913906,-9.50148,1.23221331.40952E+12,5.191228,-5.7323174,-4.5418005,-2.1706703,-9.464521,1.37165061.40952E+12,4.999093,-4.526837,-6.2991447,-2.254752,-9.426077,1.49518411.40952E+12,4.286818,-3.5206735,-5.073912,-2.360472,-9.383954,1.59372941.40952E+12,2.7341783,-2.8622682,-2.9634233,-2.4846897,-9.332921,1.70096451.40952E+12,1.2018893,-2.4438813,-2.5300727,-2.6049862,-9.273896,1.83828491.40952E+12,0.36272156,-2.4145525,-2.3050177,-2.7051804,-9.217238,1.97355251.40952E+12,-0.11731588,-2.6485856,-2.6473885,-2.763014,-9.167927,2.1178431.40952E+12,0.17657238,-3.0358477,-1.9351135,-2.7971244,-9.125922,2.25033551.40952E+12,1.5765818,-3.684078,-1.3030443,-2.8244777,-9.090667,2.35637621.40952E+12,3.4769795,-4.028843,-1.0582372,-2.8536093,-9.062799,2.42754441.40952E+12,4.8620253,-4.1252093,-1.614889,-2.884162,-9.042665,2.46621541.40952E+12,5.5946507,-4.0222588,-2.542642,-2.9097812,-9.031293,2.47776581.40952E+12,5.875371,-3.6032736,-3.064578,-2.9331093,-9.026271,2.4685411.40952E+12,5.469554,-3.2052376,-3.2136173,-2.9422605,-9.028967,2.44770651.40952E+12,4.836886,-3.027468,-3.3782187,-2.9405613,-9.0386915,2.41361451.40952E+12,4.5807066,-2.8245595,-3.031658,-2.9203882,-9.057285,2.36797931.40952E+12,3.9055414,-3.3877954,-2.018312,-2.8762174,-9.085419,2.31363731.40952E+12,2.8030117,-4.9176903,-0.27473465,-2.7182097,-9.169218,2.16960641.40952E+12,1.4993688,-7.227496,2.5767596,-2.7182097,-9.169218,2.16960641.40952E+12,-0.12808979,-10.817003,11.621455,-2.6026497,-9.219723,2.09602951.40952E+12,-8.546103,-18.406025,19.608511,-2.4546432,-9.257114,2.1097351.40952E+12,-18.935143,-19.608511,16.041151,-2.3430274,-9.310182,2.0002841.40952E+12,-19.60911,-19.608511,4.5884876,-2.2425535,-9.351261,1.92230671.40952E+12,-17.496826,-19.527708,3.41473,-2.2160707,-9.369028,1.86566971.40952E+12,-10.928333,-16.168043,5.653309,-2.3094559,-9.376394,1.70880251.40952E+12,-7.495647,-12.5504055,5.7119665,-3.7931168,-8.704531,2.45230441.40952E+12,-3.70383,-9.9233675,4.8362875,-3.8910308,-8.608944,2.62990021.40952E+12,-0.49799395,-7.435792,3.3033998,-3.7984264,-8.587728,2.82723881.40952E+12,1.9566613,-5.2037973,1.62686,-3.5967126,-8.616932,2.9970891.40952E+12,4.594473,-5.084686,-0.61411273,-3.255329,-8.715301,3.10109521.40952E+12,7.117962,-8.388085,-3.7361517,-2.6786397,-8.946521,2.9924981.40952E+12,6.988076,-9.069835,-4.620809,-1.8081967,-9.319515,2.45915721.40952E+12,6.2303114,-10.650606,-4.307169,-0.9538547,-9.593941,1.79355991.40952E+12,5.8215013,-12.802994,-4.935048,-0.1864467,-9.732914,1.18576311.40952E+12,4.796783,-16.774376,-2.7365725,0.47631168,-9.778346,0.5722371.40952E+12,-0.19273324,-19.608511,8.224682,0.888347,-9.763457,0.23690761.40952E+12,0.4866215,-18.298285,6.7229185,0.7547329,-9.741873,0.83466311.40952E+12,3.5889084,-13.245322,2.3888147,0.6811834,-9.718489,1.12131761.40952E+12,3.845088,-7.4776907,-1.146224,0.8519433,-9.701541,1.15095461.40952E+12,3.5990837,-6.6666546,-2.006341,1.0635368,-9.689645,1.072421.40952E+12,3.639785,-6.6923923,-2.5360582,1.2933733,-9.67664,0.927482551.40952E+12,3.429694,-6.917447,-2.545635,1.5470307,-9.659207,0.69051881.40952E+12,2.7443538,-7.234679,-2.4013844,1.7688767,-9.636124,0.431935971.40952E+12,1.9111716,-7.615357,-2.15957,1.9234353,-9.614567,0.175737381.40952E+12,1.4149733,-7.97748,-2.0817583,1.9873424,-9.603016,-0.054056881.40952E+12,1.6274586,-8.658031,-2.1230583,1.9894735,-9.599005,-0.26741381.40952E+12,1.6537948,-10.107721,-2.3654714,1.9860946,-9.592217,-0.463877171.40952E+12,1.0696096,-11.927315,-2.6539726,1.9486976,-9.589006,-0.65111821.40952E+12,0.28550854,-13.241133,-2.926313,1.8300294,-9.598846,-0.82675361.40952E+12,-0.4441244,-13.6649065,-3.032855,1.6396222,-9.618021,-0.987785341.40952E+12,-0.92895025,-13.318944,-2.9562407,1.3968402,-9.640067,-1.13504921.40952E+12,-1.1258733,-12.598887,-3.1130607,1.1509941,-9.660015,-1.23682031.40952E+12,-0.95349085,-11.337742,-3.2225955,0.90738314,-9.671606,-1.344281.40952E+12,-0.6967127,-9.797073,-3.445855,0.7048925,-9.671223,-1.46321261.40952E+12,-0.53570265,-8.673594,-3.4919431,0.54944855,-9.655999,-1.62177771.40952E+12,-0.75836337,-8.292916,-3.0759506,0.43106765,-9.6289835,-1.80754631.40952E+12,-2.167351,-9.164406,-3.0202854,0.31443772,-9.597527,-1.98972711.40952E+12,-4.2880154,-10.113108,-2.7084408,0.09193097,-9.574112,-2.1209261.40952E+12,-4.1012673,-9.555858,-2.307412,-0.2972256,-9.54185,-2.24391771.40952E+12,-3.2028434,-8.543709,-1.198298,-0.6139426,-9.50913,-2.31730681.40952E+12,-1.8070238,-7.65127,-0.4830302,-0.8534254,-9.502883,-2.26656321.40952E+12,-0.48362875,-7.2687964,-0.30645782,-0.9800311,-9.519218,-2.14346341.40952E+12,-0.010773907,-7.911041,-0.6380547,-0.9763342,-9.547548,-2.01531621.40952E+12,0.36631286,-9.032125,-1.0869676,-0.9040137,-9.572584,-1.92840851.40952E+12,1.1300632,-9.754577,-1.3611037,-0.77097356,-9.592969,-1.88440161.40952E+12,1.4293385,-10.064626,-1.3359646,-0.5643258,-9.612637,-1.85717751.40952E+12,1.1563994,-10.034698,-1.0845734,-0.346701,-9.6284075,-1.82866041.40952E+12,0.741604,-10.008362,-0.8230068,-0.17391367,-9.641749,-1.7823611.40952E+12,0.30226797,-10.078392,-0.40342298,-0.059836045,-9.654655,-1.71883451.40952E+12,0.26396075,-9.931747,-0.089782566,-0.008226561,-9.671821,-1.62056531.40952E+12,0.34955344,-9.719262,0.046088383,0.022364685,-9.691389,-1.49896291.40952E+12,0.34835634,-9.689933,-0.0796072,0.048605625,-9.709657,-1.37500241.40952E+12,0.01616086,-9.7719345,-0.20350714,0.071994685,-9.723653,-1.27112231.40952E+12,-0.3184288,-10.076596,-0.3369839,0.06864187,-9.73386,-1.19065881.40952E+12,-0.6817489,-10.492589,-0.19812019,0.037215047,-9.741405,-1.12872761.40952E+12,-1.2683283,-11.3880205,0.29149407,-0.025215691,-9.74956,-1.05633651.40952E+12,-2.0961237,-12.3516865,0.748188,-0.14053251,-9.760745,-0.937281251.40952E+12,-2.9694088,-13.076531,1.6639702,-0.32154799,-9.769835,-0.78570711.40952E+12,-3.4638114,-13.028647,8.0445175,-0.56232524,-9.774277,-0.56364571.40952E+12,-3.9989154,-13.623607,17.31307,-0.82824683,-9.769426,0.206681191.40952E+12,-5.2103815,-14.589666,17.880497,-0.82080555,-9.7720995,-0.0523271931.40952E+12,-5.795764,-14.368801,2.8975825,-0.8124948,-9.766577,-0.352439971.40952E+12,-5.2301335,-13.578116,-6.301539,-1.6932799,-9.297126,2.62043211.40952E+12,-4.8937483,-13.623607,-7.269395,-1.9869245,-9.39256,2.0005861.40952E+12,-4.414908,-14.3574295,-7.0545154,-2.1554036,-9.463071,1.40530731.40952E+12,-5.5862713,-14.474745,-5.2498856,-2.1989033,-9.52267,0.80868241.40952E+12,-5.905897,-13.986328,-0.31663316,-2.3160973,-9.524523,0.299283331.40952E+12,-6.499659,-14.792575,4.289212,-2.467613,-9.490037,0.143147841.40952E+12,-6.4805055,-15.525201,12.263102,-2.6393614,-9.437102,0.381102861.40952E+12,-5.997475,-15.30673,14.617799,-2.769026,-9.333992,1.1745071.40952E+12,-6.0369797,-14.396934,10.196905,-2.8628836,-9.152474,2.05097751.40952E+12,-4.939238,-13.827712,3.3632548,-2.995948,-8.974197,2.5803991.40952E+12,-4.9775453,-13.391967,-1.0187328,-3.1013796,-8.9219475,2.63642241.40952E+12,-5.171476,-12.3989725,-3.2513258,-3.1933293,-8.962937,2.37460951.40952E+12,-4.449624,-13.618219,-6.384139,-3.2674026,-9.030395,1.9865621.40952E+12,-3.6349967,-11.94168,-10.160394,-3.2720287,-9.132513,1.435761.40952E+12,-2.5246856,-10.183737,-10.219051,-3.2777803,-9.220162,0.644319361.40952E+12,-1.869273,-10.243592,-8.743625,-3.2649517,-9.246578,-0.106240361.40952E+12,-1.2563573,-11.601105,-7.189788,-3.1832638,-9.247085,-0.727082131.40952E+12,-0.18555063,-14.872781,-5.7041855,-3.0166998,-9.258029,-1.16568221.40952E+12,2.2990322,-19.261951,-2.9789855,-2.7393215,-9.3103075,-1.40878631.40952E+12,8.372523,-19.608511,-0.21787235,-2.2723522,-9.43764,-1.39203451.40952E+12,12.597093,-19.608511,4.4196963,-1.4564314,-9.621342,-1.21611511.40952E+12,8.063073,-19.488802,5.8484364,-1.7351362,-9.609756,-0.90124261.40952E+12,3.7822402,-16.516401,1.2312182,0.17888445,-9.80076,-0.288930061.40952E+12,2.5809495,-13.808558,-6.6510925,0.5026272,-9.791926,-0.189516621.40952E+12,3.0107086,-11.768699,-9.083003,0.6826643,-9.765202,-0.58755211.40952E+12,3.4985273,-10.735002,-5.1122193,0.80561787,-9.712986,-1.08595721.40952E+12,3.3871968,-9.712678,-3.1932666,0.92887133,-9.671514,-1.33019091.40952E+12,2.6677392,-8.153454,-4.88896,1.0576979,-9.6357355,-1.48468041.40952E+12,2.396596,-4.6166196,-6.6026096,1.1528982,-9.579484,-1.75348331.40952E+12,0.044891283,-3.4141316,-8.163031,1.27839,-9.4794655,-2.16237741.40952E+12,-1.7052702,-3.8792052,-7.086837,1.2319474,-9.346687,-2.70040061.40952E+12,-1.4760253,-4.635773,-3.743933,1.0641142,-9.231327,-3.13379381.40952E+12,0.08798691,-4.8883615,-0.50757074,0.8906974,-9.191658,-3.30006741.40952E+12,0.9403227,-4.609437,-1.4287399,0.81425273,-9.223446,-3.23039131.40952E+12,1.8363527,-3.8492777,-2.0087352,0.8271201,-9.2146,-3.25229051.40952E+12,2.2397757,-2.8149827,-2.3181858,0.96891254,-9.173734,-3.32779881.40952E+12,1.9853917,-2.3211784,-3.1693244,1.1830469,-9.102686,-3.45136331.40952E+12,2.1613655,-1.7328035,-3.5009215,1.3680416,-8.983744,-3.68662761.40952E+12,2.4672248,-1.1761516,-3.357868,1.5779525,-8.821535,-3.98258041.40952E+12,3.6092591,-0.6087258,-2.2349873,1.8382057,-8.6226635,-4.2943031.40952E+12,4.766257,-0.54049104,-2.054225,2.2930098,-8.405637,-4.5008681.40952E+12,5.3821654,-0.9876082,-2.6473885,2.9310887,-8.116808,-4.65795661.40952E+12,5.819107,-1.0348936,-3.1316159,3.6198142,-7.7425556,-4.8083421.40952E+12,5.774216,-0.99060094,-4.10845,4.3165655,-7.2882237,-4.94160651.40952E+12,5.616797,-1.429937,-4.979341,4.881847,-6.7525043,-5.1712361.40952E+12,5.5988407,-1.9285295,-5.5659204,5.296621,-6.2179546,-5.42708731.40952E+12,5.379173,-3.0496144,-4.8159366,5.576679,-5.7322974,-5.6755441.40952E+12,4.6800656,-5.631761,-1.246182,5.759538,-5.4596825,-5.76107451.40952E+12,3.626617,-11.448474,11.131242,5.890347,-5.700644,-5.3830141.40952E+12,-4.7884035,-19.482218,19.608511,6.0081906,-7.0303416,-3.26287031.40952E+12,-18.115726,-19.608511,19.608511,6.0857964,-6.853447,-3.4876581.40952E+12,-19.60911,-19.608511,11.880029,6.138525,-6.6847825,-3.7151781.40952E+12,-15.595231,-19.339165,5.613206,6.142004,-6.590605,-3.87428241.40952E+12,-8.620922,-13.545197,5.0421886,6.066256,-6.5463157,-4.06407551.40952E+12,-6.588843,-7.901464,6.465542,-2.8867211,-8.862549,3.04835561.40952E+12,-0.84335756,-5.3845596,6.022016,-3.262447,-8.663184,3.23667571.40952E+12,1.9590555,-5.2959743,2.2242134,-3.1671991,-8.562905,3.57992891.40952E+12,3.6122518,-5.4324436,-0.034117375,-2.8136067,-8.63282,3.70519231.40952E+12,5.348048,-6.7522473,0.4381389,-2.248133,-8.837269,3.60818031.40952E+12,7.45734,-11.113286,1.9716251,-1.5004152,-9.056865,3.44852731.40952E+12,6.4631476,-16.350004,-0.5847838,-0.5107026,-9.246387,3.2270591.40952E+12,3.6990416,-16.333244,-3.1118636,0.24082361,-9.444392,2.6298021.40952E+12,1.8339585,-13.443442,-1.6065093,0.5729583,-9.590985,1.96345111.40952E+12,0.33518824,-12.51569,1.2479776,0.67144793,-9.649499,1.61453131.40952E+12,1.3192052,-12.719196,-1.785476,0.6160495,-9.664488,1.54550481.40952E+12,2.5276785,-12.194268,-4.6405616,0.66665363,-9.708351,1.21403181.40952E+12,2.337938,-11.675324,-3.2668881,0.824042,-9.747631,0.68922091.40952E+12,2.665345,-8.996213,-2.3427265,0.9542685,-9.753941,0.346989721.40952E+12,3.435081,-7.855974,-2.2439656,1.1261004,-9.741378,0.088539291.40952E+12,3.602675,-7.771579,-2.4995465,1.3586525,-9.7106905,-0.164107441.40952E+12,3.2034419,-8.127118,-2.6677392,1.5878856,-9.668571,-0.40958151.40952E+12,2.7329812,-8.316858,-2.3983915,1.7714086,-9.624221,-0.637880561.40952E+12,2.3145945,-7.9445596,-1.7016789,1.9075515,-9.584537,-0.817488971.40952E+12,1.9931729,-7.69257,-1.1935096,2.0013902,-9.556148,-0.919163051.40952E+12,1.9243397,-8.087613,-1.1522095,2.0485864,-9.541014,-0.970959841.40952E+12,2.0332758,-8.839393,-1.3748703,2.0826519,-9.530626,-1.00005851.40952E+12,1.91596,-9.791088,-1.6124948,2.102671,-9.521533,-1.04382981.40952E+12,1.3718776,-11.261726,-1.6112977,2.0890503,-9.51866,-1.09607971.40952E+12,0.30765492,-12.999917,-1.447295,2.001965,-9.533558,-1.12863871.40952E+12,-0.8343793,-14.214974,-1.2318168,1.8045114,-9.573075,-1.12712071.40952E+12,-1.6490064,-14.16709,-1.0785879,1.5139979,-9.626911,-1.09582481.40952E+12,-1.9949685,-12.970588,-0.9756372,1.189023,-9.677184,-1.05296241.40952E+12,-1.7896658,-11.377845,-0.6781576,0.8735355,-9.714723,-1.01562731.40952E+12,-1.4568717,-10.076596,-0.51355624,0.6050293,-9.74016,-0.96624041.40952E+12,-1.6891093,-9.417592,-0.41958386,0.3906433,-9.755949,-0.91610191.40952E+12,-2.1517887,-9.033921,-0.31304187,0.18311463,-9.7661085,-0.871772351.40952E+12,-2.5354595,-8.701127,-1.1971009,-0.03413491,-9.771049,-0.83419521.40952E+12,-3.0160956,-8.820239,-2.7868507,-0.26087007,-9.762493,-0.892214241.40952E+12,-2.717419,-8.497621,-2.498948,-0.515923,-9.73161,-1.09543141.40952E+12,-1.7657237,-7.8027034,-1.8297687,-0.7255948,-9.698959,-1.25463771.40952E+12,-1.0941502,-8.018182,-1.5993267,-0.84473383,-9.675349,-1.35811031.40952E+12,-0.9804256,-8.598776,-1.0827777,-0.8856451,-9.660614,-1.43476751.40952E+12,-0.9487024,-8.816648,0.09995792,-0.89917123,-9.658678,-1.43938221.40952E+12,-0.6943185,-8.779537,0.7020996,-0.9052558,-9.675113,-1.32026371.40952E+12,-0.75477207,-8.9758625,0.6290765,-0.8927108,-9.698049,-1.14948371.40952E+12,-1.0672154,-9.096769,0.47644615,-0.88796765,-9.715531,-0.99515991.40952E+12,-1.3221979,-8.919599,0.51714754,-0.91170484,-9.725663,-0.86641111.40952E+12,-1.3838485,-8.267777,0.7882909,-0.9608163,-9.730681,-0.7490611.40952E+12,-1.3012487,-7.530363,0.9343372,-1.0237156,-9.733417,-0.618861561.40952E+12,-1.4407109,-7.21373,0.7978677,-1.0862392,-9.7342205,-0.485204761.40952E+12,-1.6424223,-7.3968863,0.5177461,-1.1629741,-9.730268,-0.373839321.40952E+12,-1.7202339,-7.863157,0.31423897,-1.2500416,-9.721952,-0.302421781.40952E+12,-1.6645688,-8.584411,0.001197101,-1.3300776,-9.712349,-0.267513961.40952E+12,-1.7046716,-9.820416,-0.37110126,-1.3831185,-9.704602,-0.279408161.40952E+12,-1.7735049,-11.47062,-0.581791,-1.4131842,-9.698866,-0.32448221.40952E+12,-1.8860323,-13.18008,-0.66738373,-1.417875,-9.696239,-0.378092321.40952E+12,-2.1033063,-14.387955,-0.7332243,-1.4066904,-9.695918,-0.425207531.40952E+12,-2.1374235,-14.806342,-0.7691373,-1.4047418,-9.694326,-0.4659621.40952E+12,-1.8531121,-14.152725,-0.58538234,-1.4052653,-9.692462,-0.5018081.40952E+12,-1.7435774,-13.213,-0.29149407,-1.3928751,-9.693301,-0.519773661.40952E+12,-2.3056161,-13.04002,0.20111294,-1.3865774,-9.694457,-0.51509061.40952E+12,-3.0352492,-13.530232,3.1789012,-1.4307581,-9.6904335,-0.46773141.40952E+12,-4.2185836,-14.638149,6.2674217,-1.526502,-9.685439,-0.180130121.40952E+12,-5.4312468,-15.379753,11.017518,-1.6834656,-9.656415,0.299974081.40952E+12,-6.233304,-14.9386215,14.543578,-1.8816289,-9.567734,1.04322951.40952E+12,-5.3324857,-13.877392,5.583278,-2.1039884,-9.380291,1.93746461.40952E+12,-4.819528,-14.541184,0.9379285,-2.2761264,-9.278071,2.21518561.40952E+12,-4.706402,-15.9735155,3.354875,-2.37868,-9.250928,2.22094941.40952E+12,-5.9448028,-16.433203,10.028113,-2.390942,-9.229433,2.29594281.40952E+12,-6.4817023,-14.848839,10.557233,-2.4393878,-9.103808,2.70932981.40952E+12,-6.582259,-13.902531,4.594473,-2.568205,-8.95409,3.06577421.40952E+12,-6.017826,-13.06456,-1.8567034,-2.7932556,-8.880557,3.0828261.40952E+12,-4.9063177,-12.791621,-5.5725045,-3.028208,-8.912791,2.74999621.40952E+12,-4.4436383,-13.021464,-7.8266454,-3.1558597,-9.020449,2.20055371.40952E+12,-3.594894,-11.771691,-8.130111,-3.2063653,-9.143722,1.51061641.40952E+12,-2.60549,-10.216059,-6.654085,-3.2163725,-9.225476,0.84610081.40952E+12,-1.5801731,-10.263344,-5.0116625,-3.1940358,-9.266264,0.323813441.40952E+12,-0.5201403,-12.025476,-4.187459,-3.0898526,-9.307109,-0.0307823851.40952E+12,0.24839842,-15.616779,-3.7343562,-2.884091,-9.367308,-0.32547371.40952E+12,1.6932992,-19.500174,-1.5520413,-2.5786707,-9.446886,-0.5264541.40952E+12,5.3713913,-19.608511,2.2960393,-2.1532595,-9.552562,-0.53142541.40952E+12,12.248137,-19.608511,3.2040405,-1.5396446,-9.681064,-0.27731761.40952E+12,9.922171,-19.582176,1.9632454,-1.7746003,-9.644686,0.034894541.40952E+12,4.2754455,-16.279375,-1.7543513,-1.9681119,-9.599554,0.381418561.40952E+12,0.83617496,-13.931261,-6.985682,0.42651162,-9.797326,0.029508421.40952E+12,0.059855044,-11.820772,-6.259042,0.51545477,-9.784518,-0.409808871.40952E+12,0.5662287,-10.508151,-2.815581,0.5231506,-9.761657,-0.77895231.40952E+12,1.9003977,-9.610326,-3.7600937,0.49448243,-9.750386,-0.92512781.40952E+12,3.4853592,-6.894104,-6.353613,0.53638095,-9.725085,-1.14254511.40952E+12,2.416348,-5.0661306,-7.869741,0.7257868,-9.659263,-1.53044661.40952E+12,1.3162124,-5.0781016,-7.8667483,0.88178575,-9.554596,-2.0254661.40952E+12,0.3172317,-5.474941,-5.310938,0.9768635,-9.429337,-2.51072431.40952E+12,-0.9911995,-4.7884035,-3.6553473,0.95117843,-9.34938,-2.80263281.40952E+12,-0.049679685,-4.453215,-1.4083891,0.80936205,-9.302776,-2.99561211.40952E+12,1.3275849,-4.634576,-1.174356,0.7155399,-9.300673,-3.02587181.40952E+12,1.5699978,-4.531027,-3.316568,0.7682348,-9.300413,-3.01372361.40952E+12,2.030283,-3.8025908,-3.5769374,0.86981475,-9.232087,-3.19098731.40952E+12,2.4833858,-3.052607,-3.3877954,1.0427815,-9.137043,-3.40550281.40952E+12,3.0454245,-2.4265234,-2.8700492,1.2706118,-9.019952,-3.6326911.40952E+12,3.8594532,-1.775899,-2.5145104,1.5604265,-8.892643,-3.82836531.40952E+12,4.3544545,-1.271321,-3.3452983,1.9861475,-8.726232,-4.00980141.40952E+12,4.449025,-1.1683705,-3.0214825,2.4767756,-8.463211,-4.2906891.40952E+12,5.0906715,-0.8283938,-2.1691468,2.9908,-8.173421,-4.51893041.40952E+12,5.1666875,-0.3693056,-2.9029696,3.6216884,-7.849241,-4.63068251.40952E+12,4.7441106,-0.74399817,-3.4572272,4.2366686,-7.4104075,-4.82772251.40952E+12,4.4861355,-0.7529764,-4.1742907,4.717446,-6.95856,-5.04921251.40952E+12,4.8069587,-0.91817635,-4.1533413,5.0972695,-6.465612,-5.3276711.40952E+12,5.230732,-1.3389573,-3.5452142,5.448793,-5.9948397,-5.52657181.40952E+12,5.4593782,-2.7970262,-2.8407204,5.8067074,-5.5822945,-5.5937961.40952E+12,6.2327056,-5.8478374,0.3369839,6.105347,-5.382882,-5.46989151.40952E+12,3.0765493,-15.350424,16.998234,6.4274063,-5.6404834,-4.8003991.40952E+12,-15.648502,-19.608511,19.608511,6.5285683,-5.3884606,-4.9510251.40952E+12,-19.60911,-19.608511,16.891092,6.6193643,-5.1206455,-5.112081.40952E+12,-19.132664,-19.608511,6.467337,6.602739,-4.93866,-5.3088471.40952E+12,-12.737752,-17.53274,6.2434793,6.4550443,-4.8278494,-5.58522131.40952E+12,-7.5004354,-8.832211,6.8749504,6.450686,-4.707806,-5.69171761.40952E+12,-3.181894,-5.1409497,4.6830587,-3.334743,-8.657462,3.17777231.40952E+12,0.44951138,-5.507262,1.9746178,-3.489906,-8.517794,3.38203291.40952E+12,2.0416555,-6.843227,0.4782418,-3.2432568,-8.570026,3.49375461.40952E+12,3.7630866,-9.59177,2.8419175,-2.7897053,-8.758981,3.4158751.40952E+12,5.713164,-16.550518,4.6285906,-2.0825937,-8.956043,3.40918021.40952E+12,4.809353,-19.478626,0.50397944,-1.147102,-9.163078,3.30038551.40952E+12,2.0536265,-15.7586355,-3.376423,-0.5116025,-9.3898115,2.78210351.40952E+12,-1.1300632,-11.771691,-1.1234791,-0.26380906,-9.563352,2.1547861.40952E+12,-0.20470424,-11.200674,-1.3868413,-0.35848173,-9.619576,1.87233471.40952E+12,2.7868507,-10.9899845,-5.2002063,-0.35373628,-9.672782,1.5756071.40952E+12,3.8959646,-9.598354,-5.073912,-0.08033552,-9.755406,0.997996031.40952E+12,3.762488,-8.4664955,-2.7419596,0.27321342,-9.789827,0.504983961.40952E+12,3.4554317,-7.2221093,-2.3277626,0.6082894,-9.784935,0.235444251.40952E+12,4.332308,-7.4208283,-2.610877,0.90871674,-9.764426,-0.0247355051.40952E+12,4.799177,-8.681973,-3.1202433,1.2666947,-9.720159,-0.290471731.40952E+12,4.1695023,-9.824607,-3.1358056,1.6273037,-9.651906,-0.602492451.40952E+12,2.980781,-9.83957,-2.6060886,1.8866719,-9.584546,-0.86450791.40952E+12,2.3798366,-9.130887,-2.0536265,2.0225005,-9.538142,-1.050571.40952E+12,2.5791538,-8.378509,-1.508347,2.0980952,-9.507131,-1.17595231.40952E+12,3.0113072,-8.119935,-1.2036849,2.1786425,-9.480826,-1.24010831.40952E+12,3.1675289,-8.323442,-1.1540052,2.2835772,-9.45291,-1.26418531.40952E+12,2.8461072,-8.957906,-1.2737153,2.3951094,-9.423078,-1.28041341.40952E+12,2.1428106,-10.087969,-1.5011644,2.4627144,-9.404567,-1.28824531.40952E+12,0.9816227,-12.175713,-1.6891093,2.4438627,-9.406352,-1.31090381.40952E+12,-0.26156655,-14.340071,-1.7860745,2.281785,-9.444902,-1.32576991.40952E+12,-1.110311,-14.7877865,-1.8243817,1.9878125,-9.511659,-1.3218811.40952E+12,-1.3958195,-13.354857,-1.6657659,1.6431509,-9.579034,-1.30865681.40952E+12,-1.1480197,-11.031284,-1.3024458,1.3187202,-9.632429,-1.28362941.40952E+12,-1.2264298,-9.467871,-1.4850036,1.0605034,-9.669956,-1.24003921.40952E+12,-1.5699978,-8.809465,-1.644218,0.84214586,-9.690355,-1.24827461.40952E+12,-1.543063,-8.685565,-1.2018893,0.6041361,-9.70638,-1.2615871.40952E+12,-1.3245921,-8.218696,-0.3465607,0.3940002,-9.718459,-1.251681.40952E+12,-2.6132712,-8.573038,-2.694674,0.22948505,-9.732367,-1.18270591.40952E+12,-5.6802435,-10.120889,-3.515885,-0.053733636,-9.714399,-1.34087861.40952E+12,-4.6764746,-9.912594,-2.2152352,-0.5971961,-9.662211,-1.56697341.40952E+12,-3.4213142,-8.563461,-2.3774424,-0.9701041,-9.602249,-1.73957631.40952E+12,-3.074155,-7.557896,-2.6252422,-1.1746806,-9.546373,-1.91239611.40952E+12,-2.8742392,-7.7811556,-1.9973627,-1.384163,-9.476216,-2.11088441.40952E+12,-2.8395233,-8.270171,-1.0103531,-1.530107,-9.438276,-2.17901871.40952E+12,-2.9538465,-8.742428,-0.75596917,-1.6648853,-9.434824,-2.09347681.40952E+12,-2.7682958,-9.356541,-0.9792285,-1.8039018,-9.437987,-1.95977971.40952E+12,-2.1853075,-9.80665,-0.74998367,-1.9046441,-9.439694,-1.85335411.40952E+12,-1.6813282,-9.9550905,-0.581791,-1.9363264,-9.45437,-1.7424041.40952E+12,-1.3078327,-9.998186,-0.32022446,-1.9162966,-9.477118,-1.63780821.40952E+12,-1.1725603,-10.435128,5.99E-04,-1.8568606,-9.508706,-1.5188731.40952E+12,-1.2910733,-11.319187,0.32142156,-1.7788069,-9.543952,-1.3853631.40952E+12,-1.5089456,-12.118851,0.8002619,-1.7011229,-9.579868,-1.22584641.40952E+12,-1.6023195,-12.523471,2.0679917,-1.6405908,-9.612795,-1.03588381.40952E+12,-1.4568717,-12.692262,4.755483,-1.5963126,-9.646511,-0.75298091.40952E+12,-1.2354081,-12.743138,5.4300494,-1.5501673,-9.679535,-0.272021031.40952E+12,-1.1587936,-12.879608,5.373187,-1.4962769,-9.690421,0.16522671.40952E+12,-0.1388637,-12.831724,12.387001,-1.4529952,-9.684156,0.52562761.40952E+12,-0.6338649,-13.09329,17.49922,-1.3562059,-9.612661,1.38845361.40952E+12,-3.7152026,-12.187085,0.7757214,-1.3173755,-9.373095,2.56515361.40952E+12,-5.0397944,-11.462839,-7.8170686,-1.499854,-9.374349,2.45813161.40952E+12,-6.2123547,-13.081918,-8.7538,-1.7353436,-9.47438,1.84258561.40952E+12,-7.8027034,-14.837466,-5.7418942,-1.9918877,-9.540429,1.08764531.40952E+12,-8.039131,-14.905103,-4.4699745,-2.303942,-9.517523,0.52820161.40952E+12,-7.465121,-13.779229,-0.025139118,-2.6051092,-9.453792,0.098155511.40952E+12,-6.3589997,-13.354259,6.491279,-2.8549242,-9.381521,0.0829128251.40952E+12,-4.1198225,-14.119804,11.730989,-2.9944806,-9.325907,0.480577981.40952E+12,-2.385822,-15.966931,13.433866,-2.9469013,-9.2712345,1.23707941.40952E+12,-1.6142905,-17.059286,13.142372,-2.7714708,-9.177857,2.06307671.40952E+12,-1.9632454,-16.76899,6.187814,-2.5787013,-9.046636,2.77111321.40952E+12,-3.0466216,-15.2253275,-2.4714148,-2.4813807,-9.0175085,2.94918271.40952E+12,-4.745308,-14.426262,-6.0148335,-2.4953763,-9.130475,2.56475071.40952E+12,-5.866991,-12.28405,-6.7546415,-2.5937355,-9.254628,1.94800891.40952E+12,-4.4143095,-9.745,-7.6171527,-2.760897,-9.311572,1.35736821.40952E+12,-2.955642,-9.743204,-7.5525093,-2.8926497,-9.342178,0.72571451.40952E+12,-1.6376339,-8.688558,-6.989872,-2.9314046,-9.356961,0.156544311.40952E+12,-0.95229375,-8.336611,-6.3542113,-2.8952656,-9.362851,-0.353331661.40952E+12,-0.64823014,-9.946113,-5.470751,-2.810012,-9.3615885,-0.79682521.40952E+12,-0.3585317,-14.407108,-3.8947675,-2.672021,-9.366147,-1.14280581.40952E+12,0.31364042,-19.475035,1.0426749,-2.4400394,-9.409822,-1.29299771.40952E+12,2.4277205,-19.608511,4.5124717,-2.1110528,-9.524195,-1.00176861.40952E+12,8.194156,-19.608511,1.0570401,-1.6757867,-9.647913,-0.52907881.40952E+12,9.900024,-19.608511,-0.47105917,-0.9218847,-9.755652,-0.38442011.40952E+12,6.651691,-15.95496,-3.7361517,-0.1730138,-9.79858,-0.35818041.40952E+12,3.4530375,-12.178107,-6.091448,0.29465514,-9.7874975,-0.53703491.40952E+12,2.682703,-10.140042,-4.8027687,0.56309277,-9.752612,-0.860143841.40952E+12,2.27928,-9.801862,-2.56419,0.74776953,-9.714573,-1.11279321.40952E+12,2.385822,-9.588778,-1.5514427,0.8458768,-9.69216,-1.23163961.40952E+12,2.4756045,-9.518747,-3.4398694,0.94592476,-9.679931,-1.25480481.40952E+12,2.9508536,-7.235876,-3.7325604,1.0292586,-9.648803,-1.41832721.40952E+12,1.8854338,-5.1397524,-5.8125234,1.1825982,-9.6031065,-1.59755911.40952E+12,0.97623575,-4.697424,-7.217321,1.2842942,-9.521125,-1.96702251.40952E+12,1.8710686,-4.968567,-5.33907,1.3290769,-9.401852,-2.4513441.40952E+12,2.610877,-5.047576,-3.2208,1.4288557,-9.299335,-2.76607041.40952E+12,2.1769278,-4.5244427,-1.4628572,1.5589819,-9.227332,-2.9319461.40952E+12,2.0207062,-3.7361517,-0.7733272,1.6491241,-9.202576,-2.96030431.40952E+12,2.429516,-3.0262709,-1.8686744,1.7794744,-9.183675,-2.94346361.40952E+12,2.666542,-2.540248,-3.41892,1.9515007,-9.114395,-3.04792171.40952E+12,2.8078,-2.0620062,-3.8959646,2.159087,-8.972188,-3.31791471.40952E+12,3.515885,-1.2683283,-3.1519666,2.4044013,-8.779712,-3.64772871.40952E+12,4.6501384,-0.6769605,-2.5863364,2.7682645,-8.550594,-3.92357161.40952E+12,6.067506,-0.38367084,-2.271499,3.2930002,-8.253934,-4.14718251.40952E+12,6.8210807,-0.23044191,-2.6605566,4.0081363,-7.850181,-4.29882531.40952E+12,6.6415157,-0.7290344,-2.7970262,4.7795234,-7.3335004,-4.42112261.40952E+12,6.0716953,-1.2425907,-2.6970682,5.431584,-6.8084655,-4.50700571.40952E+12,5.279215,-1.7190368,-2.5594015,5.936364,-6.3601913,-4.52525571.40952E+12,4.43885,-2.544438,-1.827973,6.2761226,-6.0242605,-4.5264771.40952E+12,3.506907,-4.346673,0.09876082,6.473682,-5.875206,-4.44339751.40952E+12,1.4077905,-8.118738,6.6804214,6.533005,-6.068291,-4.08241271.40952E+12,-3.6733038,-16.97429,19.248783,6.3255897,-6.9909577,-2.69885561.40952E+12,-16.746841,-19.608511,17.91222,6.428516,-6.8303556,-2.86196421.40952E+12,-19.60911,-19.608511,18.93694,6.521369,-6.6716657,-3.02176261.40952E+12,-18.386272,-19.608511,10.06283,6.577327,-6.5718727,-3.11763531.40952E+12,-7.89907,-14.833876,4.1742907,6.5093865,-6.525144,-3.34974311.40952E+12,-6.508039,-7.1448965,5.3007627,-2.750407,-8.550316,3.9367171.40952E+12,-3.6780925,-3.7403417,6.4739213,-3.2079756,-8.377924,3.96101881.40952E+12,1.0761937,-2.7144263,4.1479545,-3.4147348,-8.165842,4.22243931.40952E+12,4.3089647,-3.6864722,1.4024036,-3.1972213,-8.100865,4.50823071.40952E+12,8.360553,-9.3583355,-0.09696517,-2.6035306,-8.259371,4.6016111.40952E+12,10.879851,-18.085201,0.20470424,-1.4712241,-8.687872,4.30427651.40952E+12,8.991425,-19.544468,0.21547815,-0.08021335,-9.118533,3.60781381.40952E+12,5.708974,-15.947179,2.8221653,0.80062664,-9.316357,2.955481.40952E+12,1.1976994,-13.466786,9.351752,1.1865807,-9.332055,2.77040721.40952E+12,0.18794483,-12.11466,-3.5332432,1.1118097,-9.203408,3.19867941.40952E+12,0.16160862,-11.103709,-12.784438,1.0334221,-9.388554,2.6377071.40952E+12,0.88944596,-9.77792,-6.927024,0.9798332,-9.661302,1.36732671.40952E+12,2.0350714,-7.523779,-2.707842,0.97990626,-9.735812,0.651277541.40952E+12,2.1697452,-6.2339025,-1.4030021,1.0929666,-9.739495,0.343586651.40952E+12,2.9694088,-7.0102224,-1.839944,1.2294348,-9.7276125,0.180103471.40952E+12,3.2489316,-8.157045,-1.9853917,1.4420927,-9.700034,-0.011822541.40952E+12,3.316568,-9.062054,-1.9620483,1.653565,-9.664193,-0.1987691.40952E+12,3.1789012,-9.794081,-1.9213469,1.845302,-9.624355,-0.370230321.40952E+12,2.8963854,-10.155605,-1.7106571,1.9977283,-9.586521,-0.52732531.40952E+12,2.5791538,-10.199299,-1.489792,2.0917754,-9.559334,-0.643420641.40952E+12,2.3959973,-10.251373,-1.5292963,2.1539712,-9.538878,-0.73527011.40952E+12,2.2301989,-10.367492,-1.8752584,2.1879067,-9.52393,-0.8235231.40952E+12,1.7986441,-11.225813,-2.1380222,2.1947129,-9.512099,-0.93466221.40952E+12,0.94331545,-12.687473,-1.9985598,2.1414225,-9.511909,-1.05277541.40952E+12,-0.06703765,-13.663111,-1.7591397,1.9943054,-9.534944,-1.13048471.40952E+12,-0.83617496,-13.28782,-1.4323312,1.7662854,-9.575795,-1.16395781.40952E+12,-1.043872,-11.696274,-1.0019734,1.4981636,-9.621983,-1.15902751.40952E+12,-0.99179804,-9.883265,-0.9983821,1.2565213,-9.660099,-1.12874511.40952E+12,-1.4227544,-9.126697,-1.411382,1.0481138,-9.689758,-1.08645961.40952E+12,-1.6106992,-8.8328085,-1.5544355,0.81542236,-9.712766,-1.08058871.40952E+12,-1.5867572,-8.623915,-1.6681601,0.5871736,-9.727859,-1.09287481.40952E+12,-1.5592239,-8.702325,-2.3451207,0.38078445,-9.73367,-1.13184491.40952E+12,-2.641403,-8.871715,-4.2119994,0.18872342,-9.725222,-1.24694011.40952E+12,-5.253477,-9.254189,-5.089474,-0.097921155,-9.683882,-1.54376031.40952E+12,-5.1780596,-8.949526,-4.8105497,-0.60140204,-9.604621,-1.88679751.40952E+12,-4.220379,-8.01459,-4.0797195,-1.0432491,-9.486738,-2.25472951.40952E+12,-2.5181017,-7.2286935,-2.8203697,-1.3364649,-9.369979,-2.56666371.40952E+12,-1.5855601,-7.8452005,-0.8948329,-1.4725583,-9.309535,-2.70823551.40952E+12,-1.6927006,-8.967483,-0.17178397,-1.5286057,-9.333501,-2.59221031.40952E+12,-1.6771383,-9.560047,-0.24600422,-1.568241,-9.384555,-2.3751111.40952E+12,-1.3676877,-10.179547,-0.6925228,-1.577753,-9.431448,-2.1746041.40952E+12,-1.1216835,-10.8864355,-0.4297592,-1.5404818,-9.468863,-2.03419761.40952E+12,-1.3108255,-11.422138,0.08259996,-1.4733859,-9.511733,-1.8778881.40952E+12,-1.5382746,-11.54903,0.26276365,-1.4305598,-9.554718,-1.68263351.40952E+12,-1.6956934,-11.544841,0.20231004,-1.409695,-9.588905,-1.49533991.40952E+12,-1.8046296,-11.320384,0.3196259,-1.4082778,-9.613049,-1.33284451.40952E+12,-1.7836803,-11.203069,0.5315128,-1.425328,-9.630845,-1.17715181.40952E+12,-1.6657659,-11.291056,0.9403227,-1.4442192,-9.645508,-1.02412061.40952E+12,-1.602918,-11.901577,3.5673606,-1.4522239,-9.660875,-0.853754761.40952E+12,-1.1246762,-12.37922,6.397307,-1.4472809,-9.688409,-0.458813641.40952E+12,-0.91937345,-12.690466,5.9926867,-1.3905754,-9.70669,0.129880431.40952E+12,-0.84934306,-12.743737,7.117962,-1.3295256,-9.700658,0.547707561.40952E+12,0.88166475,-12.03625,17.38789,-1.291737,-9.676224,0.934082271.40952E+12,0.074220255,-12.760496,16.535555,-1.1588774,-9.499227,2.14291211.40952E+12,-2.9370868,-11.545439,-1.2509704,-1.1088634,-9.213265,3.17120481.40952E+12,-4.0743327,-10.676943,-8.7370405,-1.2429972,-9.251654,3.0053671.40952E+12,-3.8163576,-11.971607,-9.024943,-1.4224544,-9.420609,2.32360121.40952E+12,-4.5202527,-14.38616,-8.56825,-1.5186572,-9.57886,1.45240511.40952E+12,-4.8877625,-15.392921,-6.105214,-1.658964,-9.647701,0.58318441.40952E+12,-6.145916,-14.990695,-2.0745757,-1.7986225,-9.640298,0.0020277431.40952E+12,-7.177817,-14.618996,-0.010175358,-2.0387518,-9.590139,-0.20765351.40952E+12,-6.136339,-14.031817,4.821324,-2.327419,-9.52319,-0.249698121.40952E+12,-5.1613,-14.275428,13.924677,-2.5057354,-9.480826,0.074890631.40952E+12,-4.687847,-14.669273,13.998299,-2.5859804,-9.400512,1.05522421.40952E+12,-4.3622355,-13.851654,7.1101804,-2.6352425,-9.239671,1.96325651.40952E+12,-4.1174283,-13.406931,1.049259,-2.7068183,-9.149224,2.266111.40952E+12,-4.5280337,-13.102269,-1.4688427,-2.7958913,-9.127749,2.2444621.40952E+12,-4.482544,-13.113043,-0.48602295,-2.901692,-9.153341,1.9917111.40952E+12,-4.735132,-12.458228,-5.767632,-2.950633,-9.17934,1.7899281.40952E+12,-3.1118636,-11.347918,-6.839636,-3.0228438,-9.244634,1.25280671.40952E+12,-1.8920178,-10.5704,-6.7534447,-3.014369,-9.305947,0.69518651.40952E+12,-0.90261406,-9.309854,-6.132149,-2.9489074,-9.351448,0.157342051.40952E+12,-0.3489549,-9.224859,-5.580884,-2.831629,-9.38436,-0.29336131.40952E+12,0.035314474,-10.872668,-4.3622355,-2.6875026,-9.405831,-0.69140921.40952E+12,0.7661445,-15.411476,-2.498948,-2.4953594,-9.437339,-0.938190761.40952E+12,2.3415294,-19.603724,2.529474,-2.1852095,-9.508779,-0.98913571.40952E+12,6.941389,-19.608511,4.0054994,-1.7360935,-9.6306505,-0.637924851.40952E+12,11.765107,-19.608511,3.0184898,-1.0326514,-9.748952,-0.248938591.40952E+12,9.5732155,-19.0357,0.27114335,-1.2737894,-9.723543,0.022952371.40952E+12,5.8125234,-14.3897505,-3.4063504,0.5422586,-9.791563,0.0404340851.40952E+12,3.0789435,-11.807604,-8.135497,0.8858546,-9.765204,-0.162570151.40952E+12,0.5602432,-10.848726,-7.2179193,1.0827262,-9.723963,-0.66530491.40952E+12,0.39683893,-10.033501,-2.9981391,1.0770097,-9.686323,-1.08884861.40952E+12,2.5941176,-8.228871,-2.6090813,1.0222119,-9.673921,-1.24125951.40952E+12,3.54282,-6.3260794,-3.1543608,1.1080521,-9.645081,-1.38384851.40952E+12,2.5169046,-4.821324,-5.6359506,1.2751453,-9.598824,-1.55145561.40952E+12,0.5967548,-4.0695443,-8.668806,1.4141855,-9.514069,-1.91127261.40952E+12,-0.54767364,-4.7022123,-6.9707184,1.4185779,-9.367177,-2.5325931.40952E+12,-1.4742297,-5.121796,-3.881001,1.326595,-9.246878,-2.98425841.40952E+12,-1.2731167,-5.3324857,-1.460463,1.1275,-9.208228,-3.17925791.40952E+12,-0.02633622,-5.1301756,-2.0757728,0.89650196,-9.230086,-3.18938831.40952E+12,1.4826094,-4.947019,-2.943671,0.77609926,-9.218799,-3.2529651.40952E+12,1.7986441,-4.8147397,-3.5697548,0.84743285,-9.167135,-3.37873891.40952E+12,2.3888147,-4.0785227,-2.8377275,0.98725516,-9.087725,-3.55091331.40952E+12,3.309984,-3.157952,-1.821389,1.2078762,-9.013026,-3.67106871.40952E+12,4.4208937,-2.3678656,-1.6478093,1.5321012,-8.94341,-3.7200121.40952E+12,5.2121773,-1.3862427,-2.6132712,2.026461,-8.820904,-3.77564141.40952E+12,5.758055,-1.2605472,-3.0400376,2.6287146,-8.572147,-3.97222851.40952E+12,6.1261635,-0.9528923,-3.3632548,3.3008146,-8.232653,-4.1831171.40952E+12,5.835268,-0.9816227,-4.0665517,3.9989364,-7.7956953,-4.40522771.40952E+12,5.1642933,-1.0007763,-4.4382515,4.5798326,-7.297729,-4.6838751.40952E+12,4.409521,-1.6663644,-4.1760864,5.005867,-6.799293,-4.9881151.40952E+12,3.8618474,-2.670732,-3.2112231,5.2731123,-6.425776,-5.20327951.40952E+12,3.0556,-4.31495,-1.2252327,5.422487,-6.2377195,-5.27805851.40952E+12,1.5125369,-8.000225,3.5727475,5.474901,-6.3635225,-5.0696581.40952E+12,-3.9719806,-16.633717,16.144102,5.306774,-7.133144,-4.13845351.40952E+12,-16.85159,-19.608511,19.608511,5.3610277,-6.95615,-4.3636841.40952E+12,-19.60911,-19.608511,19.52711,5.4016757,-6.769307,-4.6009591.40952E+12,-18.047493,-19.608511,12.249334,5.3542304,-6.639901,-4.83883571.40952E+12,-9.173384,-15.183429,5.183447,5.1934385,-6.5650196,-5.10872751.40952E+12,-5.079299,-8.352771,5.7149596,-3.1238177,-8.584417,3.56650261.40952E+12,-2.5629928,-7.2622123,6.699575,-3.3603528,-8.462719,3.6415391.40952E+12,0.88046765,-7.197569,4.9242744,-3.4149828,-8.354059,3.83640341.40952E+12,2.5007436,-7.380127,3.1585505,-3.0856245,-8.37912,4.05458551.40952E+12,3.5847185,-10.254965,1.6166847,-2.580467,-8.498266,4.15824941.40952E+12,5.2959743,-16.323069,0.62847793,-1.9476354,-8.744819,3.988141.40952E+12,4.5645456,-16.944963,-1.0875661,-1.1665984,-9.078687,3.51949831.40952E+12,3.0137014,-12.952033,-2.1775265,-0.60123426,-9.328938,2.96307971.40952E+12,2.5737667,-11.495759,-2.4378958,-0.29280367,-9.483185,2.48069551.40952E+12,3.6469676,-11.589732,-2.2337902,-0.040812194,-9.586074,2.06783151.40952E+12,4.741118,-11.007941,-3.5877113,0.27412558,-9.657072,1.68410581.40952E+12,4.891354,-10.809222,-4.1138372,0.672102,-9.706976,1.22199361.40952E+12,3.9923313,-10.560823,-3.1310172,1.053696,-9.720253,0.75947891.40952E+12,3.5649664,-9.124901,-0.97982705,1.3197908,-9.70857,0.414981341.40952E+12,3.8630445,-8.136695,-0.66139823,1.5315924,-9.682438,0.273925961.40952E+12,3.8564603,-9.090784,-1.1174936,1.7653213,-9.644661,0.185893741.40952E+12,3.7822402,-9.527127,-2.1051018,1.9702375,-9.606543,0.0537453261.40952E+12,3.4374752,-8.963891,-2.4019828,2.1540096,-9.565912,-0.154888081.40952E+12,3.0352492,-8.082825,-2.178125,2.3024232,-9.525265,-0.372210981.40952E+12,2.8496985,-7.727286,-1.8537107,2.4182408,-9.48788,-0.55014971.40952E+12,2.819771,-8.097789,-1.4544775,2.5124412,-9.454507,-0.685811341.40952E+12,2.8042088,-8.535928,-1.3335704,2.5882688,-9.427235,-0.77363581.40952E+12,2.5264814,-9.21229,-1.4508862,2.6508007,-9.403866,-0.84317521.40952E+12,1.7597382,-10.462662,-1.6921021,2.6592968,-9.3943,-0.919619561.40952E+12,0.65182143,-12.191874,-1.7250223,2.5813525,-9.408672,-0.991918441.40952E+12,-0.2753332,-13.528437,-1.4263457,2.373859,-9.456929,-1.04960731.40952E+12,-1.1797429,-13.523648,-1.46585,2.0810926,-9.525145,-1.05407561.40952E+12,-1.4790181,-12.298415,-1.311424,1.7348671,-9.594647,-1.05041921.40952E+12,-1.3533225,-11.207857,-1.5646108,1.4042332,-9.651498,-1.0232811.40952E+12,-1.8728642,-10.606912,-2.2026656,1.1215184,-9.689778,-1.01033591.40952E+12,-2.0081367,-10.065823,-2.556409,0.83168787,-9.7116785,-1.0779591.40952E+12,-1.3060371,-9.030331,-4.2556934,0.5537664,-9.722738,-1.15417531.40952E+12,-3.822343,-9.548675,-5.7347116,0.3617945,-9.697098,-1.41626521.40952E+12,-6.26383,-10.282497,-6.881534,-0.05230068,-9.637144,-1.8146921.40952E+12,-5.7359085,-9.233239,-6.9144545,-0.6281848,-9.5045,-2.33243581.40952E+12,-4.8015714,-7.9206176,-4.8267107,-1.0421193,-9.323475,-2.85608461.40952E+12,-4.338892,-7.340024,-3.8833952,-1.3463708,-9.194316,-3.13404041.40952E+12,-3.426701,-7.569867,-1.2659341,-1.652453,-9.098791,-3.26370841.40952E+12,-2.9011738,-8.579023,0.66738373,-1.8808405,-9.102461,-3.12698981.40952E+12,-2.6461914,-9.612122,1.2976574,-2.0221918,-9.17535,-2.80964831.40952E+12,-2.2948422,-10.129868,1.1677719,-2.1096492,-9.263788,-2.4294041.40952E+12,-1.7531542,-10.539874,0.79966336,-2.1321273,-9.341679,-2.08745461.40952E+12,-1.3814543,-11.116279,0.36391866,-2.0829365,-9.409188,-1.81629741.40952E+12,-1.4748282,-11.644798,0.40761283,-1.985641,-9.466204,-1.61820891.40952E+12,-1.5352819,-11.76391,0.6584055,-1.894135,-9.514182,-1.43631521.40952E+12,-1.5119383,-11.532869,1.1133038,-1.8168073,-9.555727,-1.24806571.40952E+12,-1.5496471,-11.273697,1.4131776,-1.7567823,-9.591417,-1.04347991.40952E+12,-1.6077064,-11.254543,2.0644004,-1.7098863,-9.620303,-0.834543761.40952E+12,-1.1593921,-11.565191,4.8542438,-1.6749982,-9.64484,-0.584658271.40952E+12,0.06703765,-11.61547,6.4481835,-1.6063396,-9.673571,-0.109926491.40952E+12,0.5033809,-11.7303915,5.741296,-1.4495292,-9.689385,0.43019961.40952E+12,1.1318588,-11.344925,7.2843585,-1.2957119,-9.689559,0.777150451.40952E+12,3.7846344,-10.195708,18.224663,-1.1226856,-9.66744,1.20438661.40952E+12,1.8483237,-10.81461,11.681909,-0.79765916,-9.428641,2.57582021.40952E+12,-2.2547395,-10.978612,-2.949058,-0.61068624,-9.219912,3.28491571.40952E+12,-3.615843,-11.696274,-7.255628,-0.7026467,-9.324642,2.95427371.40952E+12,-4.204817,-13.813945,-7.1604586,-0.854608,-9.490855,2.31596421.40952E+12,-4.9745526,-15.203779,-7.6961613,-1.0264728,-9.628779,1.55027171.40952E+12,-5.1864395,-14.908095,-5.617396,-1.2576345,-9.699189,0.71727021.40952E+12,-6.897695,-14.53879,-4.2461166,-1.5148356,-9.687889,0.143150671.40952E+12,-7.7847466,-14.466365,-0.42317516,-1.879241,-9.622838,-0.199608971.40952E+12,-6.611588,-13.740922,0.8678981,-2.2413645,-9.543463,-0.26263761.40952E+12,-5.1439424,-13.90672,4.0785227,-2.4842608,-9.4836645,-0.24278111.40952E+12,-4.045004,-15.823877,13.64695,-2.5980537,-9.456204,0.0269311891.40952E+12,-3.2800562,-16.756418,13.874399,-2.57652,-9.409495,0.996664761.40952E+12,-3.413533,-14.794371,7.050924,-2.6076903,-9.404822,0.958983061.40952E+12,-3.8432922,-12.84549,0.7110779,-2.5325484,-9.210818,2.2175271.40952E+12,-4.4047327,-12.002133,-0.64583594,-2.648756,-9.192875,2.15534781.40952E+12,-4.7219644,-11.7860565,-1.8561049,-2.7485406,-9.205201,1.96981781.40952E+12,-3.2303767,-12.240356,-3.6236243,-2.8635716,-9.222128,1.70959291.40952E+12,-2.5785553,-10.9187565,-5.4551888,-2.8506715,-9.288201,1.33169051.40952E+12,-1.2174516,-9.889849,-6.151303,-2.8386195,-9.348352,0.84906841.40952E+12,-0.18974048,-10.167576,-5.74369,-2.7543032,-9.405815,0.338850651.40952E+12,0.7200562,-11.861474,-5.056554,-2.5852945,-9.45894,-0.1228422451.40952E+12,1.6310499,-16.437391,-3.477578,-2.3250692,-9.514211,-0.49416161.40952E+12,3.0268695,-19.608511,0.74639237,-1.9588788,-9.585933,-0.66564131.40952E+12,6.2482677,-19.608511,4.276643,-1.506139,-9.678225,-0.483614681.40952E+12,9.379884,-19.608511,2.6970682,-0.8859089,-9.766071,-0.096820851.40952E+12,7.2807674,-18.310854,-1.8507179,-0.14715186,-9.804806,0.120418611.40952E+12,3.2860417,-13.788208,-5.5030727,0.34071928,-9.800721,0.012655631.40952E+12,1.5933412,-11.51611,-6.1477113,0.5505375,-9.785758,-0.32585561.40952E+12,0.95947635,-10.125079,-5.2444987,0.65530986,-9.759656,-0.70004081.40952E+12,1.3760674,-9.244013,-3.6236243,0.6806889,-9.729911,-1.01777481.40952E+12,2.3529017,-8.978256,-3.6170402,0.72239894,-9.7058735,-1.20189131.40952E+12,2.224812,-8.900445,-4.5160627,0.81045187,-9.673189,-1.39390471.40952E+12,1.7567455,-7.8290396,-3.8839936,0.89665896,-9.629021,-1.62737861.40952E+12,1.7675194,-5.073912,-4.1820717,0.97180563,-9.589088,-1.80979971.40952E+12,2.0254946,-3.6236243,-5.503671,1.0815692,-9.527428,-2.05639081.40952E+12,1.2737153,-3.8163576,-8.79929,1.2271304,-9.424186,-2.4185261.40952E+12,1.9129672,-4.1545386,-5.3145294,1.296955,-9.231474,-3.0443691.40952E+12,1.9740193,-3.8097734,-1.4466964,1.4224025,-9.097285,-3.37439871.40952E+12,1.6801311,-3.3022027,-0.16699557,1.5375994,-9.073242,-3.38857461.40952E+12,1.7160441,-2.5659857,-1.1456255,1.6399904,-9.07621,-3.332151.40952E+12,1.6382325,-2.0213048,-2.9119477,1.7329534,-9.034039,-3.39903281.40952E+12,2.03567,-1.8064252,-3.259107,1.8477678,-8.916651,-3.63998681.40952E+12,2.8257565,-1.6927006,-2.9903579,2.0362272,-8.760594,-3.90847231.40952E+12,4.2437224,-1.5735891,-2.7856536,2.3333743,-8.5736885,-4.1494121.40952E+12,4.9679685,-1.7579426,-3.5823243,2.8200715,-8.322458,-4.3536511.40952E+12,5.524022,-1.3874398,-4.0946836,3.3682673,-7.981962,-4.59493731.40952E+12,5.8783636,-0.9648633,-4.4801497,3.948207,-7.5384917,-4.87372541.40952E+12,6.072294,-0.9935937,-4.7363296,4.5373006,-7.0018735,-5.1533531.40952E+12,6.1261635,-1.0426749,-5.065532,5.0627837,-6.434912,-5.39726921.40952E+12,6.1758432,-2.0380642,-4.1132383,5.493049,-5.8652916,-5.62095981.40952E+12,5.369596,-4.168904,-2.385822,5.851563,-5.4761806,-5.6516451.40952E+12,4.0581717,-9.752182,6.1620765,6.0602574,-5.4602585,-5.44327971.40952E+12,-8.796896,-19.369091,19.608511,6.17913,-6.4282374,-4.0824631.40952E+12,-19.55105,-19.608511,18.728643,6.2616816,-6.205784,-4.29534671.40952E+12,-19.60911,-19.608511,7.8595657,6.3395824,-5.980739,-4.4956471.40952E+12,-17.251421,-19.582176,5.475539,6.31826,-5.8683195,-4.670421.40952E+12,-8.661025,-12.975975,4.7668557,6.202291,-5.8139176,-4.8888011.40952E+12,-6.4002995,-6.6983776,5.205593,-3.3025627,-8.922198,2.37862631.40952E+12,-2.8072014,-5.807136,7.169437,-3.6641397,-8.728837,2.55966731.40952E+12,-0.12150574,-6.269217,4.060566,-3.6634612,-8.574957,3.03637121.40952E+12,2.56419,-6.700772,2.4091654,-3.409921,-8.588226,3.28408481.40952E+12,5.707178,-9.626487,0.96665895,-2.886064,-8.717863,3.44091731.40952E+12,7.9272017,-14.495095,-3.0059202,-2.037191,-9.007831,3.29837251.40952E+12,7.703344,-15.555128,-4.9218802,-0.97470665,-9.400889,2.61603241.40952E+12,6.4445925,-12.786833,-3.928885,-0.09112813,-9.636522,1.81646291.40952E+12,5.595249,-12.197859,-1.441908,0.53520757,-9.711873,1.25038251.40952E+12,3.1615434,-14.492702,3.2315738,0.9901751,-9.71134,0.937984351.40952E+12,1.7669208,-14.194623,1.2635399,1.1387322,-9.686127,1.02598791.40952E+12,2.3900118,-12.628217,-0.44592008,1.1642528,-9.688694,0.971658051.40952E+12,2.7820623,-10.933721,-1.4688427,1.2676947,-9.688108,0.83898151.40952E+12,2.0697873,-9.560047,-2.6916811,1.3942534,-9.681034,0.709970241.40952E+12,1.8417397,-7.091027,-2.6503813,1.4680372,-9.684943,0.465952521.40952E+12,2.034473,-7.029376,-1.9315223,1.5547675,-9.680411,0.20675241.40952E+12,2.1625626,-7.381324,-1.9812019,1.6447499,-9.667737,0.0062660751.40952E+12,2.416348,-7.162853,-1.6531962,1.7323291,-9.650302,-0.20272331.40952E+12,2.5049336,-6.6056023,-0.7799112,1.8428981,-9.62473,-0.37239571.40952E+12,2.360683,-6.3607955,-0.3417723,1.9686084,-9.597225,-0.433884171.40952E+12,2.0811598,-6.9838862,-0.557849,2.0820785,-9.572673,-0.446392361.40952E+12,1.7591397,-8.118738,-1.2886791,2.152338,-9.555755,-0.474746941.40952E+12,1.3640964,-9.335591,-2.088941,2.1595674,-9.5488405,-0.571208831.40952E+12,1.0444705,-10.397419,-1.9716251,2.100267,-9.550964,-0.73371761.40952E+12,0.6943185,-11.593922,-1.5233108,1.9965544,-9.56225,-0.864601431.40952E+12,-0.52612585,-13.959991,-1.3054385,1.8538302,-9.584545,-0.932844341.40952E+12,-1.827973,-15.358206,-1.3808558,1.5729628,-9.634014,-0.939139661.40952E+12,-2.4241292,-14.335881,-1.7262194,1.2096745,-9.686151,-0.9410181.40952E+12,-2.1092918,-12.140997,-2.2990322,0.85485685,-9.721704,-0.96337631.40952E+12,-1.9267339,-10.431537,-2.8101943,0.5668667,-9.735716,-1.03194881.40952E+12,-2.0470424,-8.8088665,-3.654749,0.31144613,-9.734521,-1.14564421.40952E+12,-1.5005659,-7.788338,-5.623381,0.070236735,-9.711555,-1.36058341.40952E+12,-1.1210849,-8.351574,-6.0740895,-0.091120824,-9.641992,-1.7872051.40952E+12,-2.1631613,-9.139266,-4.2161894,-0.1873381,-9.546962,-2.23401241.40952E+12,-2.8742392,-9.276335,-1.934515,-0.36504796,-9.490812,-2.44164161.40952E+12,-2.665345,-9.121908,-0.8487445,-0.5871452,-9.476448,-2.4541011.40952E+12,-2.0123265,-9.056666,-0.10414778,-0.78741556,-9.486124,-2.3587751.40952E+12,-1.6543933,-9.149442,-0.05805939,-0.92693305,-9.516716,-2.17791341.40952E+12,-1.6705543,-9.49301,-0.87567925,-1.023373,-9.546759,-1.99562621.40952E+12,-1.5562311,-9.576208,-0.908001,-1.1006781,-9.55608,-1.90794371.40952E+12,-1.3449428,-9.622296,-0.7344214,-1.1456486,-9.564231,-1.83940221.40952E+12,-1.3664906,-9.725846,-0.38845924,-1.1592153,-9.577708,-1.75900791.40952E+12,-1.3467385,-9.76535,0.34715924,-1.181113,-9.593859,-1.65325681.40952E+12,-1.3868413,-9.806051,0.81402856,-1.1972934,-9.619376,-1.48474751.40952E+12,-1.5053543,-10.095152,0.8002619,-1.2146578,-9.645922,-1.28499321.40952E+12,-1.7082629,-10.472239,0.8984242,-1.238108,-9.665534,-1.1022451.40952E+12,-1.8028339,-10.621277,1.1073183,-1.2742748,-9.679418,-0.92493781.40952E+12,-1.6687586,-10.740389,1.3186066,-1.3155065,-9.689051,-0.749767541.40952E+12,-1.4167689,-10.676943,1.6310499,-1.3421791,-9.697422,-0.573556541.40952E+12,-1.1725603,-10.493188,3.0065188,-1.340538,-9.706868,-0.387339031.40952E+12,-0.8738836,-10.399814,4.8787847,-1.3225293,-9.71663,-0.091638731.40952E+12,-0.87567925,-11.013328,5.554548,-1.2741143,-9.717572,0.340341631.40952E+12,-1.1360487,-11.870452,5.167286,-1.2252463,-9.700334,0.75675011.40952E+12,-1.0809821,-12.071565,4.4603977,-1.2111223,-9.6754,1.04412421.40952E+12,-0.34596214,-11.373056,6.609194,-1.2060614,-9.652567,1.24248341.40952E+12,0.43993455,-10.821193,11.398794,-1.1532649,-9.595093,1.66570391.40952E+12,-2.2882583,-11.716624,3.1250317,-1.0447427,-9.434286,2.46437791.40952E+12,-5.382764,-13.992912,-3.7912183,-1.1249247,-9.400952,2.55480961.40952E+12,-6.983288,-15.867572,-6.7534447,-1.388522,-9.477524,2.1021281.40952E+12,-7.1383123,-16.069283,-4.768651,-1.7009422,-9.554542,1.40993031.40952E+12,-7.005434,-15.636531,1.9249382,-2.0011673,-9.561552,0.86165021.40952E+12,-6.615778,-16.01302,6.497265,-2.2609184,-9.504551,0.849783361.40952E+12,-5.6485205,-16.548721,13.311762,-2.422053,-9.428378,1.18732541.40952E+12,-4.035427,-17.16463,13.295002,-2.4591672,-9.28898,1.95901861.40952E+12,-4.5136685,-15.929821,5.659294,-2.4151003,-9.303161,1.94650461.40952E+12,-4.6591167,-13.778032,-1.8417397,-2.5020416,-9.0814085,2.72730521.40952E+12,-5.9878983,-13.460202,-5.8029466,-2.6823113,-9.108627,2.45122481.40952E+12,-6.616975,-12.4289,-6.1967926,-2.902662,-9.172884,1.89819791.40952E+12,-6.43322,-11.479,-6.3111157,-3.1212702,-9.201374,1.32769321.40952E+12,-3.0364463,-10.802638,-6.266823,-3.3141105,-9.195509,0.79352221.40952E+12,-2.132635,-9.882068,-5.829881,-3.2995188,-9.22981,0.30687051.40952E+12,-1.2952632,-9.957485,-5.567716,-3.2497518,-9.251792,-0.1176416051.40952E+12,-0.5374983,-11.6112795,-4.551976,-3.1303945,-9.281027,-0.4832631.40952E+12,0.47405192,-16.21114,-2.0530279,-2.9336739,-9.3263855,-0.76320951.40952E+12,1.7860745,-19.608511,1.4628572,-2.5993648,-9.422826,-0.78995881.40952E+12,5.415684,-19.608511,1.553837,-2.1605847,-9.5500555,-0.54651831.40952E+12,9.620501,-19.608511,-0.6003461,-1.5350865,-9.679816,-0.33925111.40952E+12,8.7292595,-19.282303,-1.821389,-0.71909636,-9.775257,-0.312454071.40952E+12,4.5902834,-15.188815,-4.334702,-0.057768006,-9.799363,-0.373536171.40952E+12,2.2601264,-12.786833,-5.777807,0.25522244,-9.785013,-0.59896091.40952E+12,0.9367314,-11.261726,-5.495291,0.44946024,-9.754451,-0.905037761.40952E+12,0.95109665,-10.35193,-2.4995465,0.5219199,-9.720318,-1.18886411.40952E+12,2.695871,-9.351153,-1.0636241,0.5383751,-9.706462,-1.29040191.40952E+12,4.4286747,-7.8787193,-2.2918496,0.6499325,-9.697863,-1.30362941.40952E+12,4.956596,-6.161478,-3.21661,0.895157,-9.665283,-1.39692581.40952E+12,3.928885,-5.1301756,-5.3594203,1.2149796,-9.607369,-1.54682671.40952E+12,3.0268695,-4.809353,-6.254852,1.4873277,-9.510354,-1.87387491.40952E+12,2.3876176,-4.459201,-5.0302176,1.6870544,-9.387839,-2.27875851.40952E+12,1.9668367,-4.4777555,-4.07134,1.8233441,-9.27903,-2.59719091.40952E+12,2.271499,-4.530428,-2.2816741,1.9006647,-9.192997,-2.83666371.40952E+12,2.2457612,-4.474763,-1.6729485,1.9845623,-9.14414,-2.93540531.40952E+12,2.581548,-4.096479,-2.2122424,2.0723794,-9.106876,-2.99005631.40952E+12,2.9083564,-3.716998,-2.9741971,2.2167754,-9.039235,-3.09006741.40952E+12,3.122039,-3.2555158,-3.3117795,2.4071138,-8.930108,-3.26026561.40952E+12,3.9971197,-2.4091654,-2.2583308,2.6294372,-8.788494,-3.4668211.40952E+12,4.8135424,-1.3880384,-1.7256209,2.995022,-8.624327,-3.58067941.40952E+12,5.509058,-0.9451111,-1.8076223,3.495463,-8.397536,-3.6651791.40952E+12,5.952584,-0.85173726,-2.3223755,4.0873203,-8.083481,-3.75787021.40952E+12,6.452972,-0.6380547,-2.3062148,4.710865,-7.6807895,-3.87086531.40952E+12,6.126762,-1.0450691,-2.8640637,5.364653,-7.203246,-3.9375261.40952E+12,5.9873,-1.340753,-3.5482068,5.8768497,-6.729501,-4.0431281.40952E+12,5.6880245,-1.5939398,-3.3464954,6.2672753,-6.2614937,-4.20539761.40952E+12,4.6142254,-2.641403,-1.8818425,6.5577154,-5.880168,-4.3116561.40952E+12,2.6850972,-5.583278,1.8309658,6.728794,-5.736492,-4.2410351.40952E+12,0.040102877,-12.32954,14.162302,6.6878777,-6.168888,-3.6588991.40952E+12,-12.918514,-19.608511,19.315222,6.1130815,-7.589141,-1.09796941.40952E+12,-19.60911,-19.608511,19.024326,6.2494993,-7.4509306,-1.26403451.40952E+12,-19.60911,-19.608511,14.4454155,6.3543854,-7.337532,-1.39740941.40952E+12,-11.877635,-18.124706,6.420052,6.349144,-7.292642,-1.6358881.40952E+12,-6.88752,-9.120112,4.7758336,6.2426076,-7.3210607,-1.89797131.40952E+12,-5.0421886,-4.0946836,6.697779,-3.0904617,-8.470336,3.85653141.40952E+12,-1.0630256,-3.2848446,5.8723783,-3.3774436,-8.216645,4.15331131.40952E+12,1.7292122,-3.913921,2.3253684,-3.312556,-8.062193,4.49426361.40952E+12,4.0922894,-5.257667,0.013766659,-2.9627898,-8.120122,4.63205051.40952E+12,7.327454,-10.720636,-0.5554548,-2.3429325,-8.384789,4.514021.40952E+12,7.925406,-17.299904,-4.1222167,-1.2808219,-8.837666,4.05284261.40952E+12,6.156091,-16.95813,-5.5347958,-0.23977089,-9.327728,3.0176821.40952E+12,4.553173,-14.674062,-4.4699745,0.39681613,-9.584505,2.03720451.40952E+12,2.280477,-14.930242,0.7116765,0.7947835,-9.675796,1.38480751.40952E+12,0.75836337,-13.51886,3.2184057,0.88619894,-9.685338,1.25668791.40952E+12,2.297835,-11.113286,-0.6667852,0.8437679,-9.681722,1.31251261.40952E+12,2.8323407,-10.068815,-3.015497,0.9677973,-9.697769,1.08950151.40952E+12,2.5019407,-9.348161,-3.5751417,1.1274781,-9.709385,0.791853551.40952E+12,2.7335799,-8.796297,-2.4839842,1.2640748,-9.713871,0.461781651.40952E+12,3.1376014,-9.943718,-1.7794905,1.4261557,-9.70044,0.194768551.40952E+12,2.8299465,-10.5841675,-1.8884265,1.5892134,-9.677023,0.0066682261.40952E+12,2.4594438,-10.08318,-1.8273745,1.7046205,-9.655553,-0.186992061.40952E+12,2.2212207,-8.98903,-1.4251486,1.7850939,-9.636392,-0.351823151.40952E+12,2.0811598,-8.243237,-0.9211691,1.8486899,-9.619705,-0.462608161.40952E+12,2.0159178,-8.173206,-0.7505822,1.9026453,-9.606438,-0.516423341.40952E+12,1.9698294,-8.525752,-0.98461545,1.9507387,-9.594992,-0.5488171.40952E+12,2.006341,-9.168595,-1.1803415,1.9918823,-9.583516,-0.59920981.40952E+12,1.7926586,-10.434529,-1.1091139,2.0170548,-9.57413,-0.66175481.40952E+12,0.55964464,-12.565369,-0.99538934,2.0090096,-9.573359,-0.69647891.40952E+12,-0.6703765,-13.578116,-0.9379285,1.8544588,-9.603895,-0.70468971.40952E+12,-1.4251486,-12.710218,-0.9744401,1.5989953,-9.650005,-0.700727161.40952E+12,-1.7190368,-11.340137,-1.2018893,1.310271,-9.693689,-0.697111371.40952E+12,-1.4736311,-9.964667,-1.590947,1.0167948,-9.7286215,-0.70032971.40952E+12,-1.4838065,-8.913014,-2.5791538,0.764011,-9.7493925,-0.73213241.40952E+12,-1.0540473,-8.071452,-4.6016555,0.530586,-9.753882,-0.86641171.40952E+12,-0.29747957,-7.5070195,-5.2385135,0.36837387,-9.724517,-1.21180091.40952E+12,-1.2797008,-8.024167,-4.872799,0.28782734,-9.667807,-1.61897541.40952E+12,-4.022857,-8.756194,-6.9886746,0.12869594,-9.596351,-2.01590851.40952E+12,-4.2425256,-8.120534,-7.994838,-0.2540379,-9.451351,-2.60343071.40952E+12,-2.8616695,-6.9767036,-4.2281604,-0.58888304,-9.246391,-3.21369551.40952E+12,-2.2601264,-7.1849995,-2.4498668,-0.7993968,-9.1563835,-3.41935731.40952E+12,-1.5478514,-8.045714,-1.4407109,-0.98742056,-9.141225,-3.41077641.40952E+12,-0.8122329,-8.842984,-1.1994951,-1.0971804,-9.180805,-3.26793981.40952E+12,-0.60932434,-9.435549,-0.830788,-1.0921526,-9.242272,-3.09160181.40952E+12,-0.7068881,-10.357915,-0.7835025,-1.0620108,-9.311191,-2.88864471.40952E+12,-0.7212533,-11.322779,-0.919972,-1.0157837,-9.376521,-2.68689751.40952E+12,-0.6206968,-12.01171,-0.78888947,-0.9536893,-9.435704,-2.49566771.40952E+12,-0.82480246,-12.154763,-0.49320555,-0.8843878,-9.492995,-2.29592781.40952E+12,-1.1288661,-11.972205,-0.09995792,-0.8461773,-9.542031,-2.09857771.40952E+12,-1.270124,-11.769297,0.24540567,-0.8447537,-9.583282,-1.90196621.40952E+12,-1.4993688,-11.804611,0.35553896,-0.86191815,-9.620114,-1.69730711.40952E+12,-1.7298107,-12.0170965,0.35553896,-0.8995608,-9.647696,-1.51101651.40952E+12,-1.8626889,-12.388797,0.43754035,-0.9547242,-9.666982,-1.34476321.40952E+12,-2.0440497,-12.719196,0.90021986,-1.0151904,-9.681118,-1.18983721.40952E+12,-1.946486,-12.620436,4.2179847,-1.0841835,-9.693408,-1.01624161.40952E+12,-1.3772645,-12.07336,9.602545,-1.1413667,-9.7228565,-0.57770661.40952E+12,-1.2689269,-12.594698,10.924144,-1.1523911,-9.735323,0.256639751.40952E+12,-0.3716998,-12.872425,17.686567,-1.1526914,-9.678939,1.07695591.40952E+12,-1.062427,-14.080898,18.383877,-1.1134026,-9.489868,2.20751381.40952E+12,-3.8073792,-13.378201,-0.45489833,-1.2422411,-9.580712,1.68439171.40952E+12,-4.856638,-12.115259,-11.548432,-1.4136491,-9.249951,2.93434481.40952E+12,-4.895544,-12.943653,-11.877635,-1.6604846,-9.43505,2.09594921.40952E+12,-5.5407815,-14.587871,-8.465898,-1.8056548,-9.571433,1.13915961.40952E+12,-5.348048,-15.190013,-3.1860838,-1.9461607,-9.604126,0.378965531.40952E+12,-6.535572,-14.694413,-1.6035166,-2.0736866,-9.584657,0.0677724261.40952E+12,-7.5842323,-14.180857,1.9357121,-2.3015425,-9.532654,-0.0424230661.40952E+12,-7.6243353,-15.369577,11.1970825,-2.563602,-9.465577,0.0348532871.40952E+12,-6.3727665,-15.847819,17.001226,-2.7529404,-9.381841,0.75682261.40952E+12,-5.412093,-15.541362,10.164583,-2.7253458,-9.39335,0.712647561.40952E+12,-4.396353,-14.696209,3.015497,-2.9179776,-9.065289,2.34016371.40952E+12,-3.3213563,-13.251906,-2.1242554,-3.0082433,-9.017402,2.40984081.40952E+12,-3.079542,-12.643779,-3.4650085,-3.055649,-9.073624,2.12197761.40952E+12,-3.1705215,-12.066776,-3.425504,-3.0418332,-9.160836,1.73109981.40952E+12,-2.902371,-11.662755,-6.642114,-3.0037706,-9.230864,1.39245311.40952E+12,-0.75836337,-11.027693,-6.895301,-2.9816957,-9.306611,0.81660781.40952E+12,0.16519992,-9.656414,-5.544971,-2.831107,-9.384629,0.289769561.40952E+12,0.3585317,-10.284892,-5.1984105,-2.6504445,-9.440733,-0.134430971.40952E+12,1.2348095,-12.624027,-5.0122614,-2.4469457,-9.482697,-0.51121191.40952E+12,2.6874914,-18.252197,-2.4211364,-2.1577358,-9.53096,-0.82181281.40952E+12,5.722142,-19.608511,3.3770216,-1.7224667,-9.615679,-0.861504551.40952E+12,10.627263,-19.608511,4.184466,-1.1164774,-9.730654,-0.488067151.40952E+12,9.526528,-19.582775,1.3790601,-1.3762362,-9.706705,-0.237155111.40952E+12,5.539584,-15.594034,-3.1040826,0.41367376,-9.797908,-0.0161132241.40952E+12,2.160767,-12.406754,-7.337031,0.7704469,-9.774392,-0.19501551.40952E+12,1.0708067,-10.293272,-7.9313917,0.9064415,-9.744431,-0.62835781.40952E+12,0.6548142,-8.850166,-4.3568487,0.93978816,-9.6995735,-1.09792941.40952E+12,1.110311,-9.097966,-1.8381484,0.9051237,-9.671965,-1.34322871.40952E+12,2.4223335,-8.942942,-2.9400797,0.88289666,-9.664733,-1.40848091.40952E+12,2.1152773,-8.292317,-4.0563765,0.9792475,-9.637379,-1.52722011.40952E+12,0.9379285,-6.3913217,-5.1702785,1.0555803,-9.596153,-1.7233671.40952E+12,0.25079262,-5.189432,-5.8945246,1.0714295,-9.535721,-2.02297831.40952E+12,0.84216046,-5.122993,-5.434838,1.0595155,-9.447298,-2.40757321.40952E+12,1.3365631,-5.2522798,-4.64116,1.1003733,-9.353215,-2.7344011.40952E+12,1.9255368,-5.01286,-2.8778305,1.1539876,-9.269527,-2.98573021.40952E+12,2.629432,-4.663905,-1.2940661,1.2390786,-9.218039,-3.10851551.40952E+12,2.4121583,-4.2778397,-2.496554,1.401376,-9.199845,-3.09344531.40952E+12,2.6210523,-3.7565024,-2.2918496,1.5639114,-9.133937,-3.20870661.40952E+12,3.0783448,-2.8814218,-2.136825,1.7551565,-9.061432,-3.31365751.40952E+12,3.481768,-1.9698294,-2.1547816,2.0327394,-8.963105,-3.42068891.40952E+12,4.5741224,-1.1761516,-1.5400703,2.3823607,-8.819595,-3.5650371.40952E+12,5.501277,-0.80086046,-2.1164744,2.9062312,-8.624554,-3.65257331.40952E+12,6.0860605,-0.53211135,-3.0986955,3.5585716,-8.314594,-3.79137851.40952E+12,6.3182983,-0.47405192,-3.9785647,4.2536426,-7.8640175,-4.0291611.40952E+12,6.277597,-0.58538234,-4.1557355,4.8997355,-7.3160176,-4.3172771.40952E+12,5.5006785,-1.5292963,-3.727772,5.4534917,-6.7339826,-4.59165241.40952E+12,3.934272,-3.1651347,-1.6765398,5.821423,-6.300613,-4.7522341.40952E+12,2.2164323,-5.5264163,3.5338416,5.9784594,-6.229408,-4.650041.40952E+12,-0.9056068,-9.907805,11.173141,6.0075765,-6.7357316,-3.8352721.40952E+12,-8.078635,-17.741035,19.586964,5.465232,-7.957586,-1.72582481.40952E+12,-19.079992,-19.608511,17.345991,5.555447,-7.8499293,-1.91989841.40952E+12,-19.60911,-19.608511,18.665197,5.623371,-7.750524,-2.11600731.40952E+12,-15.611392,-19.524117,11.15279,5.6454406,-7.6819177,-2.2994661.40952E+12,-2.5929205,-10.764331,3.7630866,5.597896,-7.648185,-2.51778651.40952E+12,-5.459977,-8.005612,5.129577,-2.7529707,-8.423524,4.1994991.40952E+12,-3.0352492,-5.952584,7.1502833,-3.1210213,-8.304289,4.1795221.40952E+12,1.2036849,-5.499481,5.4474072,-3.1922283,-8.158179,4.4072861.40952E+12,4.19524,-7.2843585,3.7187939,-2.878087,-8.135699,4.6580461.40952E+12,7.3448124,-13.961787,1.697489,-2.2262466,-8.277581,4.76401951.40952E+12,7.189189,-19.568409,-1.5047557,-1.2351758,-8.672787,4.40766571.40952E+12,3.7565024,-18.796877,-2.6318262,-0.38443887,-9.113748,3.60030341.40952E+12,-0.17118542,-14.484322,1.4191631,0.007181728,-9.376249,2.87337351.40952E+12,0.7356185,-11.95784,-1.3263878,6.76E-04,-9.433458,2.67959551.40952E+12,3.4165258,-10.031705,-5.9148755,0.060544778,-9.52577,2.32947061.40952E+12,4.0617633,-8.281544,-5.040992,0.3368477,-9.657991,1.66738081.40952E+12,3.913921,-7.0928226,-3.3967736,0.66037416,-9.718608,1.13268451.40952E+12,3.53863,-6.4661403,-2.9532478,0.9736247,-9.728873,0.75594351.40952E+12,3.2519245,-6.3907228,-2.6318262,1.2514956,-9.717106,0.42659811.40952E+12,3.1381998,-7.055712,-2.1392193,1.4932091,-9.691549,0.120706111.40952E+12,3.4434607,-8.180388,-2.247557,1.7072388,-9.656239,-0.1130880341.40952E+12,3.6792896,-9.460688,-2.505532,1.9192595,-9.611091,-0.33731181.40952E+12,3.7822402,-10.672154,-2.3397336,2.108953,-9.560088,-0.572197261.40952E+12,3.4931402,-10.648212,-2.0566192,2.264285,-9.5112095,-0.7617771.40952E+12,3.3291376,-10.672752,-1.7082629,2.3787963,-9.471059,-0.90042561.40952E+12,2.843713,-10.894217,-1.3940239,2.455724,-9.44321,-0.98266841.40952E+12,2.010531,-11.7268,-1.1025299,2.4921281,-9.429527,-1.02161921.40952E+12,1.0791864,-12.828133,-0.9056068,2.4345305,-9.444153,-1.02537481.40952E+12,0.26396075,-13.435062,-0.9648633,2.2829883,-9.484642,-0.99996441.40952E+12,-0.3824737,-12.894572,-1.2491747,2.0621421,-9.537958,-0.9722681.40952E+12,-1.0139444,-11.952454,-1.441908,1.8085625,-9.589969,-0.96539051.40952E+12,-1.4317327,-10.609905,-1.4287399,1.5280373,-9.638442,-0.967429641.40952E+12,-1.1031284,-9.077017,-1.4999673,1.2513915,-9.678763,-0.9622731.40952E+12,-1.3790601,-8.680179,-1.7597382,1.0469042,-9.699886,-0.9932761.40952E+12,-1.8034325,-9.001001,-2.03567,0.82839435,-9.7181835,-1.02031421.40952E+12,-2.124854,-9.076419,-2.3624785,0.58116996,-9.729688,-1.07972161.40952E+12,-2.143409,-8.8645315,-3.8145618,0.3244675,-9.7299595,-1.18024831.40952E+12,-3.1160536,-8.0606785,-4.2718544,0.0781158,-9.701752,-1.42839671.40952E+12,-4.3861775,-8.121132,-5.7879825,-0.25245267,-9.645377,-1.75309691.40952E+12,-4.172495,-8.118738,-5.9717374,-0.66777503,-9.515067,-2.2777071.40952E+12,-3.0298622,-7.0491285,-4.402937,-0.9483748,-9.368171,-2.74013761.40952E+12,-2.3624785,-6.551733,-4.035427,-1.139353,-9.247999,-3.0572461.40952E+12,-1.4802152,-7.45315,-3.091513,-1.2561814,-9.158981,-3.27191731.40952E+12,-0.83737206,-8.428787,-2.3732524,-1.3142095,-9.137758,-3.30826541.40952E+12,-0.641646,-9.419987,-1.5215151,-1.2981675,-9.166177,-3.23517441.40952E+12,-0.78050977,-10.47164,-0.6835446,-1.2537719,-9.22952,-3.0682881.40952E+12,-0.90021986,-11.022306,-0.08678981,-1.2069839,-9.312377,-2.8272321.40952E+12,-0.87687635,-11.291654,-0.24899697,-1.1572622,-9.397343,-2.55364751.40952E+12,-1.2575544,-11.687296,-0.2681506,-1.1013503,-9.464398,-2.32004281.40952E+12,-1.6142905,-12.013506,-0.003591303,-1.0845693,-9.515242,-2.11051441.40952E+12,-1.9237411,-11.960834,0.18854338,-1.097916,-9.557443,-1.9026881.40952E+12,-2.1200657,-11.525088,0.34117374,-1.1466206,-9.588965,-1.70511321.40952E+12,-2.3415294,-11.475409,0.63087213,-1.222944,-9.610898,-1.51836451.40952E+12,-2.5791538,-11.979987,0.9487024,-1.316832,-9.62768,-1.32065181.40952E+12,-2.5486276,-12.594698,1.8668787,-1.4154692,-9.640012,-1.11219741.40952E+12,-2.1625626,-13.232753,8.057686,-1.4928206,-9.6553955,-0.84572721.40952E+12,-1.9416976,-13.40753,11.196485,-1.5177152,-9.688249,-0.069130521.40952E+12,-1.2802993,-13.38658,13.348273,-1.5198556,-9.650967,0.84808181.40952E+12,-0.5650316,-13.34947,18.361134,-1.4687145,-9.538169,1.74258921.40952E+12,-2.4468741,-13.143569,4.490924,-1.5735111,-9.588456,1.32512941.40952E+12,-4.1940427,-11.702259,-7.904457,-1.5536844,-9.243545,2.8832831.40952E+12,-4.268862,-12.173917,-9.7240505,-1.7503245,-9.387626,2.23142391.40952E+12,-4.6495395,-13.611635,-6.8988924,-1.8536576,-9.522193,1.43603771.40952E+12,-4.619014,-13.966576,-2.758719,-1.9509282,-9.575628,0.819516961.40952E+12,-5.9873,-13.652337,-0.8295909,-2.055235,-9.576825,0.480446431.40952E+12,-6.535572,-13.377004,0.80205756,-2.2512417,-9.538482,0.345940861.40952E+12,-5.7664347,-14.149732,4.235343,-2.4730186,-9.483752,0.336184051.40952E+12,-4.514866,-14.322713,10.559028,-2.6071267,-9.437043,0.561680851.40952E+12,-4.1317935,-14.88176,11.079767,-2.644386,-9.360415,1.24909941.40952E+12,-4.0880995,-15.336658,5.7029886,-2.6578095,-9.239546,1.93318781.40952E+12,-3.221997,-13.963583,1.4544775,-2.7012427,-9.168558,2.19344741.40952E+12,-2.3062148,-12.615647,-0.57520694,-2.7095191,-9.185658,2.110111.40952E+12,-2.5863364,-12.890382,0.031124622,-2.6948915,-9.223731,1.95722391.40952E+12,-3.4207156,-12.814964,-3.071761,-2.6614785,-9.261967,1.81738471.40952E+12,-2.8712463,-11.752538,-7.638102,-2.6665492,-9.321861,1.47064961.40952E+12,-1.7286136,-10.206482,-8.387487,-2.666245,-9.401181,0.82420141.40952E+12,-0.61411273,-8.943541,-7.478289,-2.617637,-9.449868,0.135419121.40952E+12,-0.30765492,-9.642648,-6.545149,-2.5004714,-9.47158,-0.455170871.40952E+12,1.0989386,-17.23526,-2.202067,-2.3577816,-9.475808,-0.905730661.40952E+12,2.7431567,-19.608511,3.364452,-2.008615,-9.552452,-0.941563961.40952E+12,6.5152216,-19.608511,4.6830587,-1.5739442,-9.664362,-0.541422251.40952E+12,8.543709,-19.608511,1.6645688,-0.9358559,-9.761078,-0.12623031.40952E+12,5.8029466,-18.072632,-1.6765398,-0.25173065,-9.803395,0.0214336871.40952E+12,2.3720553,-14.013861,-5.93762,0.1729422,-9.80501,-0.0472647321.40952E+12,1.1438298,-11.963227,-6.9491706,0.36385962,-9.792355,-0.384429251.40952E+12,0.3776853,-10.828376,-5.877765,0.45622724,-9.763825,-0.793705341.40952E+12,0.33159694,-10.357915,-3.7834373,0.4582868,-9.73108,-1.12535371.40952E+12,1.79206,-9.636662,-2.4540567,0.42664018,-9.704852,-1.34320681.40952E+12,3.2944214,-8.4826565,-2.1547816,0.4957748,-9.685555,-1.45417241.40952E+12,2.9161377,-6.8887167,-3.769072,0.6791718,-9.663278,-1.52649881.40952E+12,1.2366052,-4.4663835,-7.1580644,0.85488844,-9.617253,-1.71698281.40952E+12,1.2491747,-3.0496144,-4.8069587,0.9337334,-9.512929,-2.1915181.40952E+12,1.5161282,-3.5422213,-5.7137623,1.0339117,-9.427616,-2.49428341.40952E+12,1.7166426,-4.031237,-4.510676,1.1359102,-9.302632,-2.88810351.40952E+12,2.2463598,-3.9109285,-1.4311341,1.2343048,-9.196624,-3.17316531.40952E+12,2.8892028,-3.645172,-0.97623575,1.3801155,-9.16644,-3.20032761.40952E+12,2.9071593,-3.2680852,-1.8273745,1.6021572,-9.130301,-3.2001711.40952E+12,2.8335378,-2.9682117,-2.6090813,1.8331534,-9.053474,-3.29310271.40952E+12,2.5390508,-2.4319103,-3.684078,2.0797074,-8.937998,-3.45795441.40952E+12,2.510919,-1.9991584,-3.366846,2.3036003,-8.76441,-3.74819231.40952E+12,3.264494,-1.7884687,-2.3481133,2.5247836,-8.580481,-4.02134371.40952E+12,4.301782,-1.395221,-2.4504654,2.8542414,-8.404068,-4.1707731.40952E+12,5.2127757,-1.1575965,-3.5314474,3.3371785,-8.140647,-4.33168941.40952E+12,5.6628857,-1.0043676,-4.3460746,3.9053912,-7.734861,-4.5924111.40952E+12,5.5521536,-1.0462662,-4.6040497,4.4767385,-7.2201414,-4.8988531.40952E+12,4.8500543,-1.9315223,-4.1862617,4.9648695,-6.683338,-5.18203351.40952E+12,3.5595794,-3.4554317,-2.5737667,5.273118,-6.294316,-5.36154751.40952E+12,2.321777,-5.3354783,0.6171055,5.3849945,-6.233089,-5.32173061.40952E+12,0.79726917,-9.408015,6.537368,5.3780503,-6.6129427,-4.84932471.40952E+12,-3.8133647,-17.808073,18.715475,5.0983677,-7.6507134,-3.41227631.40952E+12,-17.630302,-19.608511,19.608511,5.1579814,-7.512789,-3.62265631.40952E+12,-19.60911,-19.608511,18.004995,5.2063484,-7.3805547,-3.8199161.40952E+12,-17.153856,-19.552847,8.49343,5.1764517,-7.31548,-3.9822741.40952E+12,-6.3302693,-11.832145,3.731962,5.0187535,-7.310254,-4.1883991.40952E+12,-6.9892735,-7.627328,5.044583,-3.1215389,-8.602356,3.52503351.40952E+12,-3.7786489,-5.8771667,5.954978,-3.5330763,-8.443753,3.52005581.40952E+12,0.9463082,-4.84347,3.791817,-3.6163428,-8.309874,3.7467951.40952E+12,2.9011738,-5.348048,1.7381904,-3.3375657,-8.330958,3.95299631.40952E+12,5.2139726,-8.68796,0.99658644,-2.848562,-8.469233,4.0408131.40952E+12,7.567473,-16.366165,-0.5674258,-2.0046618,-8.763846,3.91748881.40952E+12,6.985682,-18.57661,-3.5942953,-0.9070608,-9.180104,3.32765651.40952E+12,3.957017,-16.395493,-4.4568067,-0.08511457,-9.4879675,2.47823021.40952E+12,1.8776526,-14.279019,-1.5197195,0.29477116,-9.641687,1.76674781.40952E+12,1.4185646,-13.862428,0.31423897,0.42105538,-9.691992,1.43472021.40952E+12,2.3971944,-12.084733,-2.7820623,0.49212885,-9.709874,1.28317381.40952E+12,3.0597897,-9.646837,-4.859631,0.63483375,-9.745493,0.890362441.40952E+12,3.3812113,-7.7637978,-3.7152026,0.83716744,-9.762658,0.400040951.40952E+12,3.3512838,-6.5924344,-1.8650831,1.0628633,-9.748637,0.0690346661.40952E+12,3.128623,-6.359598,-1.0480618,1.300169,-9.719587,-0.09779491.40952E+12,3.3985693,-6.9731126,-1.0989386,1.5276103,-9.684859,-0.200787371.40952E+12,3.9815574,-8.141483,-1.6747441,1.7619925,-9.642479,-0.297291931.40952E+12,4.27365,-9.021352,-1.9901801,2.010799,-9.588622,-0.430586871.40952E+12,3.684078,-9.318831,-1.8249803,2.2478213,-9.527005,-0.59484921.40952E+12,2.9364884,-8.819042,-1.5628152,2.4040878,-9.479476,-0.72820091.40952E+12,3.1010897,-8.2354555,-1.4580688,2.486224,-9.449995,-0.828654471.40952E+12,3.2399535,-8.640076,-1.578976,2.5811899,-9.417141,-0.90845751.40952E+12,2.9634233,-9.70789,-1.7196354,2.6724505,-9.383885,-0.985449551.40952E+12,1.9859903,-11.74715,-1.721431,2.715801,-9.362859,-1.06381461.40952E+12,0.427365,-14.426262,-2.0099323,2.6287472,-9.381005,-1.12109021.40952E+12,-0.97982705,-15.618575,-2.3959973,2.3436532,-9.44999,-1.17276251.40952E+12,-1.5981296,-14.151527,-2.2583308,1.9756305,-9.525781,-1.2356361.40952E+12,-1.5071499,-11.72261,-1.845331,1.6130408,-9.589049,-1.27224811.40952E+12,-1.3491327,-9.904813,-1.7004818,1.3069746,-9.637303,-1.25880421.40952E+12,-1.3515269,-9.279327,-1.9363106,0.5858929,-9.705606,-1.27606211.40952E+12,-1.4185646,-9.315839,-1.917157,0.5858929,-9.705606,-1.27606211.40952E+12,-1.1839328,-9.354146,-2.0231004,0.5858929,-9.705606,-1.27606211.40952E+12,-0.75357497,-9.085397,-1.9183542,0.41629884,-9.706998,-1.33089911.40952E+12,-1.2910733,-8.945934,-2.8939912,0.30682227,-9.70274,-1.39035671.40952E+12,-4.127005,-9.071032,-2.3810337,0.15372692,-9.6822,-1.54974821.40952E+12,-5.2421045,-9.187749,-1.780089,-0.2473872,-9.661174,-1.66460911.40952E+12,-5.277419,-9.215881,-3.8259344,-0.7089196,-9.617729,-1.77963191.40952E+12,-4.887164,-8.734048,-4.975151,-1.1163702,-9.512127,-2.10797431.40952E+12,-3.6218286,-8.373122,-3.8786068,-1.442228,-9.379916,-2.47134641.40952E+12,-2.5031378,-8.667608,-2.4013844,-1.6465745,-9.295423,-2.65599161.40952E+12,-1.8620903,-9.250597,-1.4047978,-1.7410835,-9.275646,-2.66484521.40952E+12,-1.353921,-9.74859,-0.6811504,-1.7643225,-9.301175,-2.55845481.40952E+12,-1.2473791,-10.205285,-0.17776948,-1.7300501,-9.354888,-2.37978391.40952E+12,-1.5652094,-10.705074,0.025737667,-1.6750469,-9.415325,-2.17170121.40952E+12,-1.9865888,-11.306618,0.29987377,-1.6409105,-9.466577,-1.96513431.40952E+12,-2.308609,-11.820772,0.54767364,-1.6386244,-9.509912,-1.74553411.40952E+12,-2.3678656,-12.0805435,0.842759,-1.6631538,-9.54422,-1.52057531.40952E+12,-2.2864625,-12.097901,1.0145429,-1.6941923,-9.57252,-1.29111731.40952E+12,-2.1051018,-11.895591,1.8842367,-1.7121282,-9.596126,-1.07394841.40952E+12,-1.5526398,-11.8339405,5.3462524,-1.7253726,-9.619945,-0.80632411.40952E+12,-0.62368953,-11.683704,6.654085,-1.6928049,-9.655743,-0.267341021.40952E+12,-0.8415619,-12.246342,6.513426,-1.588263,-9.672642,0.296297971.40952E+12,-0.5494693,-12.186486,11.383232,-1.5203876,-9.662923,0.6976751.40952E+12,0.47165772,-11.903971,19.608511,-1.4496622,-9.592586,1.43219211.40952E+12,-1.8848352,-12.395979,8.6299,-1.5453655,-9.640289,0.92035271.40952E+12,-4.368221,-11.441292,-6.754043,-1.3958173,-9.187619,3.13205051.40952E+12,-5.133767,-12.282853,-9.744401,-1.5856934,-9.335989,2.54858021.40952E+12,-5.5389857,-13.948619,-8.744822,-1.7902097,-9.481145,1.75311591.40952E+12,-6.1411276,-14.887745,-4.960786,-1.9622003,-9.563909,0.92293971.40952E+12,-8.226477,-15.390527,-3.4644098,-2.1678922,-9.555245,0.409761581.40952E+12,-7.972093,-13.974956,0.037110128,-2.5045278,-9.481102,0.0800774541.40952E+12,-6.582259,-13.415311,4.1706996,-2.797497,-9.399103,0.035590881.40952E+12,-4.995502,-14.123995,10.59135,-2.9657328,-9.34303,0.287403941.40952E+12,-4.384382,-15.377957,13.307571,-2.9807377,-9.294534,0.947216631.40952E+12,-3.626617,-15.171457,8.16722,-2.928708,-9.185681,1.79340761.40952E+12,-2.6084828,-13.463195,0.7428011,-2.8980937,-9.101509,2.221261.40952E+12,-2.7880478,-12.717401,-1.882441,-2.8874645,-9.115388,2.17775921.40952E+12,-3.0334535,-12.373235,-0.6955156,-2.8854935,-9.170565,1.93521731.40952E+12,-3.739743,-12.163742,-2.8574798,-2.8648012,-9.214661,1.74738031.40952E+12,-3.572149,-12.554595,-7.7224975,-2.8867342,-9.263606,1.42222831.40952E+12,-2.794632,-11.982381,-9.048885,-2.898699,-9.336009,0.779010531.40952E+12,-1.6759412,-10.924743,-7.707534,-2.8775923,-9.374747,0.063130341.40952E+12,-0.943914,-11.042058,-5.9837084,-2.792524,-9.386654,-0.51276631.40952E+12,-0.4333505,-12.503718,-5.130774,-2.6620016,-9.394637,-0.90826341.40952E+12,1.1294646,-16.271593,-3.46022,-2.4875233,-9.41248,-1.17806111.40952E+12,7.86196,-19.608511,4.223372,-2.164232,-9.48195,-1.25662741.40952E+12,11.168951,-19.608511,3.5003228,-1.3589417,-9.681193,-0.773429451.40952E+12,8.758589,-18.971655,0.42676646,-1.6263305,-9.658359,-0.49147091.40952E+12,4.5860934,-15.494077,-3.7942111,0.21961716,-9.79896,-0.32019381.40952E+12,2.8209682,-13.02326,-7.1059904,0.553551,-9.77825,-0.499799851.40952E+12,1.9548657,-10.614095,-6.359598,0.7622297,-9.736768,-0.885861041.40952E+12,2.5234885,-9.377489,-3.141791,0.86292297,-9.689638,-1.23962041.40952E+12,3.9773676,-8.508394,-1.8219875,0.9519924,-9.659914,-1.39647951.40952E+12,4.0880995,-8.085817,-3.2273839,1.1254753,-9.631882,-1.45964241.40952E+12,2.7419596,-6.8306575,-4.497508,1.3151556,-9.585116,-1.60196411.40952E+12,0.78410107,-4.308366,-8.325836,1.4372578,-9.524178,-1.84246971.40952E+12,-0.83138657,-3.930082,-8.333617,1.4533126,-9.393428,-2.41283871.40952E+12,-0.6655881,-4.626795,-5.8346696,1.3464413,-9.242524,-2.98885271.40952E+12,0.23463176,-4.9182887,-2.31639,1.232195,-9.141625,-3.329081.40952E+12,1.5999253,-4.7022123,0.16400282,1.1635036,-9.128001,-3.39061641.40952E+12,2.5151088,-4.5124717,-1.1438298,1.219552,-9.166976,-3.26337651.40952E+12,2.8000188,-4.0563765,-2.6048915,1.3915374,-9.14847,-3.2464581.40952E+12,2.6839,-3.4644098,-3.846285,1.6157708,-9.070414,-3.35965941.40952E+12,2.2469583,-2.7036524,-4.268862,1.8339728,-8.933581,-3.60528611.40952E+12,3.0226796,-1.4772224,-2.2816741,2.0109954,-8.758354,-3.92651411.40952E+12,4.345476,-0.97623575,-1.1145009,2.3255603,-8.605506,-4.08747151.40952E+12,5.1259856,-0.98940384,-2.610877,2.8408926,-8.428833,-4.1297151.40952E+12,5.637148,-0.82480246,-4.103063,3.4304254,-8.107901,-4.32024571.40952E+12,5.8065376,-0.7146692,-4.747103,4.041274,-7.6346292,-4.6423021.40952E+12,5.12838,-0.88046765,-4.5920787,4.6180573,-7.0738873,-4.98036581.40952E+12,3.7493198,-1.7579426,-3.4584243,5.031791,-6.572708,-5.25842431.40952E+12,2.7204118,-3.1950622,-1.9207484,5.2378078,-6.2800984,-5.4125881.40952E+12,2.0787656,-5.071518,-0.16639702,5.29937,-6.280548,-5.3518021.40952E+12,1.0384849,-8.714894,4.0521865,5.2513843,-6.60246,-5.00008631.40952E+12,-2.8113914,-16.447567,16.708534,4.992461,-7.4763308,-3.91793231.40952E+12,-15.929821,-19.608511,19.608511,5.058275,-7.322536,-4.11882831.40952E+12,-19.60911,-19.608511,17.82543,5.1116743,-7.165674,-4.32369231.40952E+12,-18.771738,-19.608511,9.141062,5.0891004,-7.073401,-4.4987131.40952E+12,-6.999449,-14.383765,4.2419267,4.9862833,-7.0172367,-4.6974171.40952E+12,-6.0681043,-9.2787285,5.4288526,-3.0260987,-8.664895,3.45437481.40952E+12,-3.3488896,-7.409456,7.5148005,-3.3444908,-8.541175,3.46887971.40952E+12,1.0720038,-6.6403184,6.3601966,-3.4083486,-8.413006,3.71145491.40952E+12,3.9318779,-7.9146323,4.3766007,-3.1085851,-8.391965,4.01023861.40952E+12,6.9958572,-13.727156,2.8526914,-2.5021524,-8.499087,4.2041811.40952E+12,7.459734,-19.44451,0.42556936,-1.5109768,-8.805109,4.0444271.40952E+12,4.771045,-17.389088,-2.9999347,-0.59350073,-9.152308,3.47180221.40952E+12,2.0632033,-12.615647,-1.7657237,-0.115847275,-9.405424,2.7739821.40952E+12,2.3523033,-11.076176,-4.1539397,0.071410455,-9.513207,2.37995151.40952E+12,2.80361,-10.229825,-5.4234653,0.2567188,-9.628741,1.84169881.40952E+12,2.6276364,-8.933365,-4.012682,0.47886372,-9.716832,1.23459881.40952E+12,3.0029275,-7.591415,-3.0472202,0.6735487,-9.75058,0.801829341.40952E+12,3.0160956,-6.8186865,-2.8892028,0.8942677,-9.754323,0.473112021.40952E+12,2.9191303,-6.501455,-3.2184057,1.1151906,-9.741825,0.153607381.40952E+12,3.181894,-6.8767457,-3.639785,1.330421,-9.714294,-0.181204131.40952E+12,3.4727895,-7.984064,-3.9432502,1.5638641,-9.664933,-0.56017131.40952E+12,3.4021606,-9.128492,-3.9187095,1.79872,-9.596224,-0.92059331.40952E+12,3.2357635,-9.387665,-3.2004492,1.9831902,-9.523967,-1.23751061.40952E+12,3.1082723,-9.03452,-2.2511482,2.1189852,-9.462931,-1.4605631.40952E+12,2.9801826,-8.649054,-1.2755109,2.231576,-9.41848,-1.57565471.40952E+12,2.9496565,-8.847773,-0.8026561,2.3319945,-9.393471,-1.57953251.40952E+12,2.9897594,-9.5492735,-0.7272388,2.4237785,-9.38048,-1.51733411.40952E+12,2.1176715,-10.268132,-1.1976994,2.4928274,-9.374528,-1.44027831.40952E+12,1.3844471,-11.192893,-1.6256629,2.4703057,-9.386858,-1.39817231.40952E+12,0.4189853,-12.156559,-2.0099323,2.3664591,-9.414959,-1.38881121.40952E+12,-0.52073884,-13.041217,-2.0518308,2.1676419,-9.46063,-1.40291921.40952E+12,-1.1043255,-12.826337,-1.899799,1.8892282,-9.519699,-1.40588921.40952E+12,-1.3251907,-11.759122,-1.5646108,1.5883319,-9.575752,-1.39732891.40952E+12,-1.3982137,-10.798449,-1.6753427,1.2980627,-9.622761,-1.37401751.40952E+12,-1.6525977,-10.557233,-1.7998412,1.0394024,-9.653007,-1.38184431.40952E+12,-1.6687586,-9.901221,-2.094328,0.76881754,-9.676552,-1.39414911.40952E+12,-1.2707225,-9.039309,-2.1984756,0.5215847,-9.685775,-1.4436541.40952E+12,-1.7076644,-9.354745,-1.0618285,0.33628714,-9.682871,-1.51635271.40952E+12,-2.7647045,-9.768942,-1.2569559,0.13275252,-9.69092,-1.49627261.40952E+12,-4.349067,-10.429143,-2.7611132,-0.13625614,-9.684871,-1.53463831.40952E+12,-5.0134583,-10.216658,-3.8923733,-0.50120705,-9.642843,-1.71311681.40952E+12,-4.24073,-8.945336,-3.7924154,-0.87774205,-9.568498,-1.96057361.40952E+12,-3.41892,-8.221688,-3.3925838,-1.1620643,-9.491946,-2.17323951.40952E+12,-3.2615013,-9.009381,-2.023699,-1.3882393,-9.422445,-2.33682511.40952E+12,-3.1238346,-9.690532,-0.676362,-1.5795228,-9.392872,-2.33440161.40952E+12,-2.5929205,-9.848549,0.19692309,-1.7382647,-9.402185,-2.17893391.40952E+12,-1.9865888,-10.092757,0.61770403,-1.8364465,-9.434124,-1.9481181.40952E+12,-1.6274586,-10.314819,0.7529764,-1.8680642,-9.475725,-1.70039251.40952E+12,-1.4820108,-10.354323,0.64942724,-1.850681,-9.517298,-1.47187551.40952E+12,-1.4107834,-10.45069,0.729633,-1.8074955,-9.553244,-1.28020371.40952E+12,-1.4772224,-10.842741,0.9103952,-1.7574308,-9.584412,-1.10494471.40952E+12,-1.3365631,-11.343728,1.3371617,-1.7072225,-9.611469,-0.935647551.40952E+12,-1.0869676,-11.950059,2.3762453,-1.6430659,-9.639001,-0.74858691.40952E+12,-0.41240123,-12.18948,3.879804,-1.5612704,-9.669347,-0.486348961.40952E+12,0.3764882,-12.066178,4.8524485,-1.4337697,-9.70051,-0.1216243061.40952E+12,0.48841715,-11.833342,5.503671,-1.2641747,-9.721122,0.26842791.40952E+12,0.557849,-11.378444,7.392098,-1.116052,-9.721882,0.64018751.40952E+12,2.1212628,-10.027515,15.032594,-0.9890081,-9.687827,1.15682661.40952E+12,1.4131776,-9.730635,10.416573,-0.7590271,-9.502276,2.30239441.40952E+12,-2.3505075,-9.958682,-3.4901476,-0.62295085,-9.3212185,2.98281931.40952E+12,-4.1718965,-10.526108,-9.04709,-0.75768155,-9.433885,2.56867771.40952E+12,-5.061941,-12.423512,-7.9427643,-0.9999448,-9.602978,1.71851541.40952E+12,-5.9172697,-14.119804,-3.8283286,-1.2750863,-9.681456,0.90221391.40952E+12,-6.5762734,-14.420876,-0.8984242,-1.5796568,-9.667675,0.459509971.40952E+12,-7.211934,-14.368801,-2.3361423,-1.895996,-9.614777,0.36288011.40952E+12,-8.006809,-13.743317,0.038307227,-2.230172,-9.548905,0.1229975451.40952E+12,-7.925406,-13.954006,4.0001125,-2.5766754,-9.461674,0.088591531.40952E+12,-7.005434,-14.806342,10.414179,-2.853723,-9.37622,0.336348951.40952E+12,-5.995081,-16.039356,13.885772,-3.0125732,-9.275324,1.03110231.40952E+12,-4.36044,-16.468517,9.186552,-3.0024803,-9.278722,1.02996121.40952E+12,-3.0059202,-14.9308405,1.6783354,-3.046076,-9.020115,2.35145161.40952E+12,-2.5169046,-13.195642,-2.2158337,-3.0331101,-9.039891,2.29150581.40952E+12,-3.1848867,-13.158532,-1.6543933,-2.9858336,-9.132976,1.96060611.40952E+12,-4.4514194,-13.086108,-2.6258407,-2.9603884,-9.19224,1.70564031.40952E+12,-4.867412,-13.233352,-6.337452,-2.983464,-9.236788,1.39680921.40952E+12,-3.6984432,-12.86225,-7.760206,-3.0438893,-9.281437,0.871807631.40952E+12,-1.8884265,-11.130644,-6.4906807,-3.0618896,-9.312275,0.277064831.40952E+12,-0.4285621,-9.581595,-5.3660045,-2.992374,-9.33663,-0.208308121.40952E+12,0.3226187,-10.129269,-5.239112,-2.846383,-9.366553,-0.57981281.40952E+12,1.1480197,-13.162723,-4.642956,-2.6385298,-9.401013,-0.91075561.40952E+12,1.6352397,-18.401834,-1.1875241,-2.3317966,-9.456343,-1.14485371.40952E+12,3.333926,-19.608511,4.469376,-1.9447579,-9.553721,-1.05580221.40952E+12,7.644686,-19.608511,3.5392287,-1.4798303,-9.678053,-0.561964041.40952E+12,6.575675,-17.167624,-3.413533,-0.793148,-9.772343,-0.206511041.40952E+12,3.788824,-13.087305,-7.759608,-0.27735037,-9.795602,-0.37369981.40952E+12,1.9674352,-10.703877,-6.9120603,0.044688452,-9.770386,-0.84137991.40952E+12,1.2779051,-9.7641535,-3.4715924,0.2345704,-9.724457,-1.24510811.40952E+12,2.9855695,-9.304466,-1.7340006,0.3330074,-9.700302,-1.40130891.40952E+12,5.429451,-8.6017685,-2.7371712,0.50875735,-9.682051,-1.47289551.40952E+12,5.229535,-7.81228,-2.9113493,0.84344053,-9.640288,-1.58866161.40952E+12,3.3135753,-5.7095723,-4.613028,1.1589385,-9.591805,-1.68061971.40952E+12,1.6885108,-4.361637,-8.814852,1.3698475,-9.516056,-1.9335431.40952E+12,1.532289,-4.799177,-6.8773446,1.4729505,-9.350178,-2.56417251.40952E+12,2.0135236,-5.019444,-2.243367,1.5497011,-9.206452,-3.00167541.40952E+12,2.0320787,-4.743512,-0.047285482,1.6598835,-9.1731615,-3.04438951.40952E+12,2.2691047,-4.0797195,-0.04189853,1.7347914,-9.1964855,-2.93011471.40952E+12,2.6821043,-3.441665,-1.1168951,1.8663436,-9.198224,-2.84250951.40952E+12,3.0753522,-2.956839,-2.6797101,2.043033,-9.149608,-2.87769321.40952E+12,3.0831332,-2.4474726,-3.6828809,2.2928252,-9.031242,-3.05777961.40952E+12,3.1441853,-1.9147629,-3.259107,2.5553093,-8.854743,-3.3517661.40952E+12,4.056975,-1.3862427,-2.2284033,2.843168,-8.659246,-3.61997751.40952E+12,5.1601033,-0.85054016,-1.7351977,3.271452,-8.435374,-3.78318361.40952E+12,6.0010667,-0.82899237,-2.2050598,3.8574529,-8.142061,-3.87263231.40952E+12,6.223129,-0.88765025,-2.947861,4.5275874,-7.7314444,-3.9869961.40952E+12,6.0441623,-0.878672,-3.369839,5.1602573,-7.238404,-4.1409731.40952E+12,5.6126075,-1.0115502,-3.8606503,5.7016983,-6.718053,-4.30451151.40952E+12,5.0002904,-1.4580688,-4.1383777,6.097888,-6.21377,-4.513891.40952E+12,4.3742065,-2.1948843,-3.8265328,6.330333,-5.793193,-4.74723341.40952E+12,3.063381,-4.6525326,-1.7597382,6.435375,-5.523754,-4.9238691.40952E+12,0.0688333,-11.886014,11.399991,6.36422,-5.7142324,-4.7973551.40952E+12,-10.098145,-19.608511,19.306244,5.974429,-7.31732,-2.6331361.40952E+12,-19.519327,-19.608511,13.1950445,6.118957,-7.117562,-2.84060811.40952E+12,-19.60911,-19.608511,16.525978,6.2540183,-6.9384704,-2.98584771.40952E+12,-17.508797,-19.387648,7.4286094,6.2948184,-6.8626523,-3.07402631.40952E+12,-8.641273,-11.368268,4.675277,6.1696343,-6.847943,-3.3483851.40952E+12,-4.871003,-5.370793,6.2584434,-3.5029867,-8.53795,3.31705951.40952E+12,-1.1091139,-4.1784806,6.1381345,-3.7815444,-8.335858,3.51906011.40952E+12,2.292448,-3.705027,2.7886465,-3.7018106,-8.229758,3.83901761.40952E+12,6.645107,-7.185598,-0.9259575,-3.3083315,-8.291244,4.05963131.40952E+12,10.42196,-16.172832,-2.321777,-2.4229395,-8.685232,3.8557091.40952E+12,10.62427,-19.016546,-2.4863784,-0.99084103,-9.234376,3.14879751.40952E+12,8.4347725,-13.904925,-3.0681696,0.21898061,-9.512846,2.37238341.40952E+12,6.23091,-10.578181,0.39743748,0.98573333,-9.591059,1.79173561.40952E+12,3.8630445,-10.991181,3.4344823,1.4536572,-9.554945,1.66141861.40952E+12,2.8119898,-12.136209,1.2671312,1.6500132,-9.501322,1.78122161.40952E+12,2.2182279,-11.918935,-1.283292,1.7249107,-9.506444,1.6800571.40952E+12,2.8538885,-10.664971,-2.207454,1.7562268,-9.548575,1.38230251.40952E+12,2.6276364,-9.84795,-2.4660277,1.8529444,-9.5682125,1.0891841.40952E+12,2.4438813,-9.183559,-2.553416,1.9219294,-9.581464,0.81983841.40952E+12,2.5821466,-9.059659,-2.3169887,1.9842397,-9.588675,0.53898121.40952E+12,2.8742392,-9.592968,-2.2631192,2.060895,-9.583512,0.281742481.40952E+12,3.0298622,-9.991602,-1.8596961,2.1482332,-9.568399,0.0348413031.40952E+12,2.7365725,-9.763555,-1.4036007,2.2348297,-9.547219,-0.16294631.40952E+12,2.1871033,-8.809465,-1.1258733,2.2879057,-9.531658,-0.28869361.40952E+12,1.7411832,-8.099585,-1.0929531,2.3116288,-9.522377,-0.38870911.40952E+12,1.46585,-7.9750857,-1.4754268,2.3062916,-9.519762,-0.47490651.40952E+12,1.2198458,-8.158841,-1.7345991,2.2794862,-9.520053,-0.58556991.40952E+12,1.1947067,-8.090008,-1.46585,2.2284102,-9.523958,-0.70624041.40952E+12,1.0857705,-8.2115135,-1.2719196,2.1824138,-9.528206,-0.787854851.40952E+12,-1.3413515,-12.069769,-0.81343,2.1313643,-9.534595,-0.84803871.40952E+12,-2.6713305,-13.154343,-0.9056068,1.7847707,-9.606907,-0.832046451.40952E+12,-3.3824084,-12.52766,-0.98820674,1.3326793,-9.68197,-0.80861041.40952E+12,-3.6948519,-11.383232,-1.5023615,0.8787039,-9.734975,-0.792794941.40952E+12,-3.309984,-10.028712,-2.718616,0.42463323,-9.7637005,-0.812545961.40952E+12,-2.8299465,-8.762778,-3.1872811,0.029544074,-9.761328,-0.941272561.40952E+12,-2.5528176,-8.759786,-3.393781,-0.29827216,-9.7366905,-1.13060511.40952E+12,-1.7465701,-8.787917,-3.5380316,-0.5623349,-9.695568,-1.36018981.40952E+12,-2.2014685,-8.953117,-5.2259436,-0.7024965,-9.646459,-1.61947351.40952E+12,-3.954024,-9.490017,-4.5256395,-0.8556965,-9.563512,-1.9943391.40952E+12,-3.994127,-9.168595,-4.019266,-1.1462357,-9.467769,-2.28426651.40952E+12,-2.5647886,-9.002797,-3.0603883,-1.388324,-9.374987,-2.52043441.40952E+12,-1.9674352,-8.911219,-2.0506337,-1.473939,-9.3269,-2.64704821.40952E+12,-2.260725,-9.058462,-2.4899697,-1.5231398,-9.324478,-2.62765571.40952E+12,-2.0925324,-9.640253,-2.7060466,-1.6089816,-9.311183,-2.62362841.40952E+12,-0.99299514,-9.797073,-1.8752584,-1.6574583,-9.298548,-2.63822271.40952E+12,0.18195933,-10.158598,-1.0528502,-1.5841596,-9.326765,-2.58307651.40952E+12,0.65421563,-10.644621,-0.65660983,-1.4115356,-9.3883095,-2.45715121.40952E+12,0.19692309,-10.672752,-0.44831428,-1.2034452,-9.457357,-2.29793521.40952E+12,-0.26874915,-10.4405155,-0.3890578,-1.0453435,-9.513998,-2.13576251.40952E+12,-0.9792285,-10.691308,0.005985504,-0.93530285,-9.556889,-1.99034581.40952E+12,-1.3910311,-11.04565,0.12150574,-0.90723777,-9.593946,-1.81755231.40952E+12,-1.2210429,-11.295245,0.050876785,-0.93601334,-9.62286,-1.6415991.40952E+12,-0.8194155,-11.652579,0.38965634,-0.9633111,-9.645109,-1.48805691.40952E+12,-0.3878607,-12.384607,0.62608373,-0.9438287,-9.671956,-1.31637871.40952E+12,0.10295067,-13.446435,2.136825,-0.8985396,-9.697829,-1.14678921.40952E+12,1.1121067,-13.92348,9.681553,-0.80121255,-9.7354965,-0.86521171.40952E+12,2.2852654,-13.217789,16.573862,-0.61892956,-9.787053,0.0303360171.40952E+12,2.3678656,-12.798205,19.608511,-0.3681012,-9.705785,1.35373561.40952E+12,0.002992752,-12.795811,14.549563,-0.43436933,-9.753146,0.92618531.40952E+12,-2.919729,-11.504139,-5.0547585,-0.28508633,-9.191348,3.4070881.40952E+12,-4.1066546,-10.816404,-13.611036,-0.5607026,-9.38377,2.7930071.40952E+12,-3.3375173,-11.57836,-13.472772,-0.79553944,-9.615683,1.7538971.40952E+12,-4.150947,-14.151527,-9.607333,-0.9134061,-9.742365,0.64992271.40952E+12,-5.084686,-15.2492695,-4.359243,-1.084055,-9.744647,-0.19257661.40952E+12,-7.387908,-15.349826,-1.7735049,-1.3341432,-9.700308,-0.54267451.40952E+12,-7.280169,-14.797962,0.8463503,-1.72878,-9.630129,-0.665081261.40952E+12,-6.4188547,-13.936049,7.0048356,-2.0541162,-9.570712,-0.59370531.40952E+12,-6.256049,-14.896125,13.19265,-2.2818565,-9.537271,-0.063296931.40952E+12,-5.1583076,-15.859192,10.414179,-2.4452362,-9.457269,0.8667511.40952E+12,-3.9252937,-15.887922,5.601235,-2.5145364,-9.353207,1.53786721.40952E+12,-3.6092591,-15.391126,2.5929205,-2.551843,-9.28903,1.83641461.40952E+12,-3.341707,-14.344261,2.6449943,-2.602614,-9.259318,1.91358691.40952E+12,-2.9239187,-12.902951,0.9223662,-2.620215,-9.245531,1.95576331.40952E+12,-3.0819361,-11.847707,-1.7872716,-2.6002922,-9.268712,1.87079221.40952E+12,-3.1501708,-11.286267,-5.0637364,-2.597764,-9.313197,1.63901461.40952E+12,-2.473809,-10.035895,-8.166622,-2.6226232,-9.373368,1.19674811.40952E+12,-1.4856021,-9.424775,-8.228871,-2.6325533,-9.431191,0.54098931.40952E+12,-0.7188591,-9.852738,-6.488885,-2.5920537,-9.456986,-0.130460021.40952E+12,0.29568392,-10.866683,-5.446809,-2.478939,-9.467035,-0.63282891.40952E+12,1.5831659,-14.152126,-4.633379,-2.280724,-9.485775,-0.994350431.40952E+12,3.1998506,-19.201498,-1.2503718,-1.958886,-9.532123,-1.21316421.40952E+12,6.6504936,-19.608511,3.7900212,-1.4917344,-9.629077,-1.10724721.40952E+12,9.967062,-19.608511,4.2742486,-0.83029693,-9.748647,-0.66700781.40952E+12,7.1622543,-18.962078,1.1456255,-1.0537714,-9.740502,-0.427287641.40952E+12,3.3357215,-14.71237,-4.3622355,0.47139192,-9.794548,-0.122598651.40952E+12,0.5446809,-10.817602,-5.515642,0.69025344,-9.775786,-0.357661071.40952E+12,0.23762453,-9.261371,-5.3205147,0.69257426,-9.757547,-0.69354241.40952E+12,0.427365,-8.519767,-4.9135003,0.6394579,-9.730085,-1.04256461.40952E+12,1.347337,-8.428787,-3.876811,0.5923647,-9.695349,-1.34896231.40952E+12,1.3449428,-8.239645,-3.8851907,0.627835,-9.663195,-1.54885031.40952E+12,0.99658644,-6.67683,-4.9416323,0.6816852,-9.628405,-1.7319151.40952E+12,0.94451255,-5.535993,-5.719748,0.72028005,-9.571052,-2.01159361.40952E+12,1.447295,-5.6670756,-6.3967085,0.7747382,-9.48746,-2.3576021.40952E+12,1.5161282,-5.445013,-4.8309007,0.88151366,-9.375611,-2.73701261.40952E+12,1.654992,-4.979341,-1.8177977,0.9819547,-9.290301,-2.98269371.40952E+12,2.1523874,-4.5753193,-1.335366,1.057481,-9.271918,-3.01391171.40952E+12,2.7611132,-4.128801,-2.248754,1.1684414,-9.252634,-3.03215241.40952E+12,3.426701,-3.477578,-2.0907366,1.357135,-9.190362,-3.14099341.40952E+12,3.6864722,-3.0214825,-2.4049757,1.6556522,-9.1113,-3.22698471.40952E+12,3.7271736,-2.0685902,-3.0364463,2.0080686,-8.993494,-3.35486871.40952E+12,4.100669,-1.0384849,-2.8622682,2.379664,-8.814489,-3.57944041.40952E+12,4.514866,-0.6266823,-3.3494883,2.8232045,-8.577411,-3.82464721.40952E+12,5.1624975,-0.7206547,-3.323152,3.3267384,-8.247631,-4.1327741.40952E+12,5.7137623,-0.7350199,-3.3213563,3.8987586,-7.850523,-4.3976551.40952E+12,5.649119,-0.8265981,-3.7241807,4.5083933,-7.387201,-4.6123791.40952E+12,5.48332,-1.0007763,-4.1180267,5.038063,-6.88639,-4.83383461.40952E+12,5.2606597,-1.4191631,-3.86484,5.4547987,-6.3996882,-5.04574351.40952E+12,4.537012,-2.6701334,-2.7252002,5.786865,-5.972961,-5.19676161.40952E+12,3.6062663,-5.2929816,-0.28311434,5.998161,-5.7899246,-5.16423231.40952E+12,3.2315738,-10.851719,9.553463,6.060638,-6.059614,-4.7665651.40952E+12,-6.019023,-19.51035,19.608511,6.0317144,-7.196532,-2.8282011.40952E+12,-18.9944,-19.608511,19.608511,6.154462,-7.010107,-3.0251231.40952E+12,-19.60911,-19.608511,15.221137,6.2707825,-6.841297,-3.16928481.40952E+12,-15.473127,-19.412188,7.269395,6.295834,-6.724687,-3.36325241.40952E+12,-7.436989,-12.069769,5.1487308,6.2333217,-6.6481566,-3.62189171.40952E+12,-4.383185,-5.4366336,5.620987,-2.7931736,-8.691145,3.5822581.40952E+12,-0.6183026,-3.7187939,5.2026005,-3.1709056,-8.508531,3.7041421.40952E+12,1.8064252,-4.080917,3.2770636,-3.1391258,-8.403014,3.96303251.40952E+12,3.9378633,-5.1583076,0.38726214,-2.8163114,-8.42194,4.16049531.40952E+12,6.3721676,-9.900024,0.04309563,-2.2233422,-8.629917,4.0928821.40952E+12,6.95336,-15.817293,-0.521936,-1.2804455,-8.971609,3.7471441.40952E+12,4.7285485,-16.74804,-2.0350714,-0.35333034,-9.289281,3.12326671.40952E+12,2.8778305,-14.189835,-2.219425,0.18770225,-9.498581,2.43148281.40952E+12,1.4197617,-12.802994,-1.7729063,0.45757836,-9.598973,1.95466361.40952E+12,1.3551182,-13.867815,-2.5719712,0.54417145,-9.65706,1.61723761.40952E+12,1.6759412,-13.32912,-4.644751,0.6071809,-9.713733,1.20212511.40952E+12,1.6095021,-11.422736,-3.954024,0.7009937,-9.758516,0.67110071.40952E+12,1.7004818,-9.553463,-2.3810337,0.7866151,-9.770891,0.285195261.40952E+12,2.0027497,-8.121132,-1.4257472,0.87626207,-9.767232,0.061093061.40952E+12,1.9470845,-7.8835077,-1.2012907,0.99578655,-9.755691,-0.072756321.40952E+12,2.0081367,-8.508993,-1.2192472,1.1053356,-9.742324,-0.189072971.40952E+12,2.3265655,-9.42238,-1.3335704,1.2129297,-9.726608,-0.30384531.40952E+12,2.3289597,-9.713875,-1.2844892,1.3311458,-9.706877,-0.418327121.40952E+12,2.0709844,-8.945934,-1.1109096,1.4323399,-9.687662,-0.51771281.40952E+12,1.8309658,-7.9661074,-0.9403227,1.5121222,-9.671148,-0.593931561.40952E+12,1.7950528,-7.4896617,-0.8643068,1.5792195,-9.656896,-0.648742141.40952E+12,2.0620062,-7.447763,-0.7930793,1.6449282,-9.643014,-0.690577571.40952E+12,2.4546554,-7.73806,-0.84455466,1.7423136,-9.623913,-0.71768071.40952E+12,2.344522,-8.639477,-1.1372458,1.8727614,-9.597149,-0.7469121.40952E+12,1.2653356,-10.53748,-1.388637,1.9733342,-9.572646,-0.80048461.40952E+12,-1.3688848,-13.157934,-1.6071079,1.9279143,-9.576303,-0.86485281.40952E+12,-1.6226702,-13.408727,-1.2617443,1.5818139,-9.63418,-0.92241531.40952E+12,-1.3521254,-11.283873,-0.83617496,1.2370207,-9.684029,-0.92722941.40952E+12,-1.1270704,-9.7803135,-0.93254155,0.9525363,-9.719539,-0.89087681.40952E+12,-1.0079589,-8.751406,-1.702876,0.7395459,-9.738913,-0.881515741.40952E+12,-0.96426475,-8.600571,-2.3014264,0.5442159,-9.747192,-0.930845261.40952E+12,-1.103727,-9.057265,-2.3834279,0.37945145,-9.743699,-1.04246561.40952E+12,-2.8293478,-9.087193,-5.0703206,0.22762802,-9.735366,-1.15811151.40952E+12,-6.8851256,-9.478644,-6.84203,-0.081128426,-9.685988,-1.53148421.40952E+12,-5.7179523,-8.860941,-4.532822,-0.7618144,-9.563703,-2.03116561.40952E+12,-3.3883939,-8.290522,-3.086126,-1.2586126,-9.439394,-2.34182211.40952E+12,-2.5192988,-7.9289975,-2.4522612,-1.448064,-9.3674135,-2.51495861.40952E+12,-2.2272062,-7.8086886,-1.8656816,-1.5921712,-9.309804,-2.63874631.40952E+12,-1.654992,-8.397064,-1.287482,-1.6659058,-9.2939,-2.6492621.40952E+12,-1.2282255,-9.199121,-1.055843,-1.6633754,-9.318177,-2.56421451.40952E+12,-0.59017074,-9.578004,-0.93014735,-1.6045157,-9.360245,-2.4457681.40952E+12,-0.32920274,-9.667188,-0.85891986,-1.4863241,-9.4112215,-2.32166891.40952E+12,-0.4914099,-9.792285,-0.7978677,-1.3560867,-9.459222,-2.20330981.40952E+12,-0.9008184,-10.325593,-0.6865373,-1.2545222,-9.498221,-2.0929341.40952E+12,-1.1935096,-11.325172,-0.49559975,-1.2040608,-9.53156,-1.9672191.40952E+12,-1.4951789,-12.442666,-0.6254852,-1.1718936,-9.562576,-1.83144211.40952E+12,-1.5825673,-13.317148,-0.7218518,-1.171165,-9.585738,-1.70657931.40952E+12,-1.7753005,-13.798982,-0.32920274,-1.1768222,-9.603509,-1.59940951.40952E+12,-1.8106151,-13.86183,1.5143325,-1.1997114,-9.621084,-1.47167851.40952E+12,-1.7010803,-13.221979,10.810419,-1.2260636,-9.654299,-1.20899371.40952E+12,-1.1372458,-13.612832,18.843565,-1.2502264,-9.72491,-0.182901011.40952E+12,-0.5967548,-14.266449,19.608511,-1.2539914,-9.711521,-0.533125641.40952E+12,-2.544438,-13.375208,8.255207,-1.2540702,-9.677289,-0.97353931.40952E+12,-4.8398786,-10.758346,-10.827777,-1.2156237,-9.313785,2.81887581.40952E+12,-3.4404678,-9.779117,-13.599664,-1.5892955,-9.483588,1.92511771.40952E+12,-2.433706,-11.219828,-12.655151,-1.7392448,-9.605083,0.94222241.40952E+12,-4.587889,-14.70399,-8.744822,-1.7125797,-9.655792,-0.0560583551.40952E+12,-7.03177,-15.42644,-1.5987282,-1.8341314,-9.607397,-0.71011451.40952E+12,-7.7889366,-15.065515,0.8774749,-2.122156,-9.543187,-0.77099641.40952E+12,-6.257246,-13.98513,5.481525,-2.4329414,-9.47955,-0.623977071.40952E+12,-4.607043,-14.797962,14.900314,-2.5992236,-9.452214,-0.264769051.40952E+12,-4.2060137,-16.732477,14.344859,-2.612117,-9.420299,0.77795511.40952E+12,-3.454833,-16.865355,8.692149,-2.6043847,-9.429312,0.689654771.40952E+12,-3.4518404,-16.226702,2.3385365,-2.562869,-9.216981,2.15623661.40952E+12,-3.8606503,-14.794371,-1.2880806,-2.5971737,-9.196361,2.20273331.40952E+12,-4.0282445,-12.792818,-0.4782418,-2.6552575,-9.232169,1.97156291.40952E+12,-4.473566,-11.774684,0.2172738,-2.704392,-9.258489,1.77115831.40952E+12,-5.0439844,-11.266515,-3.791817,-2.7692833,-9.258159,1.66971541.40952E+12,-4.06715,-11.984177,-8.720282,-2.889919,-9.2797165,1.30598551.40952E+12,-2.5713725,-10.726024,-10.89661,-2.9438586,-9.3321905,0.643668351.40952E+12,-1.1965023,-9.582792,-9.589376,-2.9340305,-9.355449,-0.193492231.40952E+12,-0.48362875,-9.612122,-7.289746,-2.8367631,-9.342732,-0.91459221.40952E+12,0.05805939,-11.050438,-5.981913,-2.6928222,-9.326056,-1.39419591.40952E+12,1.0905589,-14.915876,-4.2700586,-2.5041497,-9.328826,-1.69487181.40952E+12,2.554613,-19.464859,1.1258733,-2.1945004,-9.389626,-1.78591571.40952E+12,6.217742,-19.608511,6.1106014,-1.7482425,-9.542225,-1.43526111.40952E+12,9.801862,-19.608511,2.2667105,-1.0888227,-9.713255,-0.798447251.40952E+12,6.0327897,-18.175583,-1.6298528,-1.3045213,-9.705583,-0.519862531.40952E+12,2.882619,-13.293206,-5.129577,0.21455285,-9.790338,-0.52314241.40952E+12,1.7645266,-11.043854,-7.3190746,0.44187897,-9.764185,-0.79738171.40952E+12,1.1994951,-9.67018,-2.8820202,0.52986795,-9.714144,-1.23493461.40952E+12,2.2002714,-9.14585,-1.2976574,0.5499118,-9.694753,-1.37103761.40952E+12,2.6833014,-8.8088665,-2.6916811,0.65515727,-9.687516,-1.37592771.40952E+12,2.1152773,-7.8182654,-5.039196,0.7847285,-9.660601,-1.4924511.40952E+12,2.134431,-5.2929816,-7.107786,0.8916823,-9.605752,-1.76205711.40952E+12,1.6101006,-3.9923313,-7.623737,1.0310396,-9.500398,-2.20222951.40952E+12,1.9554642,-3.9636009,-5.42167,1.1389979,-9.353925,-2.71609661.40952E+12,2.0320787,-4.5178585,-2.932897,1.2612107,-9.230861,-3.06119971.40952E+12,2.1272483,-4.7309427,-1.0127473,1.3531954,-9.16888,-3.20482021.40952E+12,2.2200236,-4.784812,-0.8607155,1.4431355,-9.166683,-3.17170641.40952E+12,2.6862943,-4.4394484,-0.973243,1.577361,-9.161541,-3.12225941.40952E+12,3.2609026,-3.6619315,-1.6376339,1.7652085,-9.141187,-3.08109451.40952E+12,3.3716345,-2.9586349,-2.27928,2.0415766,-9.071338,-3.11659841.40952E+12,3.3620577,-2.4313118,-3.2597055,2.348372,-8.955332,-3.2338171.40952E+12,4.18686,-1.7645266,-2.9622262,2.657215,-8.776222,-3.4767131.40952E+12,5.2241483,-1.376666,-2.3116016,3.086093,-8.539993,-3.70337411.40952E+12,5.855619,-0.92775315,-2.6677392,3.6561508,-8.244884,-3.8503091.40952E+12,6.1387334,-0.29747957,-3.3105824,4.2857947,-7.8532705,-4.01603171.40952E+12,6.0244102,-0.5662287,-3.6050692,4.9256887,-7.328925,-4.26553961.40952E+12,5.3857565,-1.4556746,-3.6846764,5.475483,-6.787562,-4.48536441.40952E+12,4.4448357,-2.7096379,-2.2415714,5.845618,-6.3530483,-4.6516641.40952E+12,3.4237084,-5.0787005,0.88944596,6.0643845,-6.176242,-4.6095191.40952E+12,1.5448587,-9.409811,7.499837,6.140191,-6.4438386,-4.1164751.40952E+12,-3.2680852,-17.600376,18.860922,5.886204,-7.404548,-2.58759781.40952E+12,-16.529568,-19.608511,19.608511,5.989594,-7.253834,-2.7707461.40952E+12,-19.60911,-19.608511,18.69273,6.0907755,-7.096866,-2.95081621.40952E+12,-15.980698,-19.608511,9.077616,6.158623,-6.976383,-3.0938411.40952E+12,-5.935226,-15.416265,4.2580876,6.117217,-6.9077115,-3.32167551.40952E+12,-4.124611,-7.3819222,5.569512,-2.361689,-8.697268,3.86656741.40952E+12,-3.2357635,-5.6030307,5.221155,-2.6794147,-8.566853,3.9497051.40952E+12,1.4107834,-5.1966147,3.6014779,-2.846862,-8.444065,4.09433031.40952E+12,5.309142,-5.525219,1.42455,-2.5579088,-8.467619,4.23401931.40952E+12,8.699332,-10.017939,0.770933,-1.905014,-8.646232,4.21710871.40952E+12,10.049063,-16.658257,0.39025488,-0.84723324,-8.932978,3.95657561.40952E+12,6.9006877,-18.854338,-1.1510124,0.2817974,-9.201258,3.3805061.40952E+12,3.0101101,-18.607735,2.131438,0.89290136,-9.386847,2.69448041.40952E+12,-4.9883194,-17.669807,16.98746,1.039531,-9.440472,2.44280311.40952E+12,-2.0979192,-11.811195,-0.2184709,1.1143881,-9.439349,2.41396211.40952E+12,1.0642227,-10.825981,-13.537415,0.29582214,-9.310327,3.0660541.40952E+12,2.083554,-8.734647,-10.809821,0.36355305,-9.619126,1.87367761.40952E+12,2.247557,-6.4763155,-5.878962,0.51345074,-9.751902,0.89843441.40952E+12,2.3391352,-5.33069,-2.7635074,0.69198245,-9.775653,0.357982251.40952E+12,2.4486697,-5.286996,-1.5298948,0.87492317,-9.767427,0.0476022961.40952E+12,2.9317,-5.6886234,-1.1899183,1.0689754,-9.746985,-0.15478141.40952E+12,3.2603042,-6.779781,-1.2090719,1.302107,-9.71525,-0.298022571.40952E+12,3.2902317,-8.1797905,-1.4155718,1.5489159,-9.674597,-0.416418081.40952E+12,3.152565,-9.006987,-1.5747862,1.765871,-9.631023,-0.54360361.40952E+12,2.9921536,-9.156026,-1.483208,1.9305692,-9.591925,-0.66202951.40952E+12,2.7856536,-9.16261,-1.3736732,2.0612495,-9.556795,-0.76766431.40952E+12,2.60549,-9.288305,-1.5610195,2.1580818,-9.528945,-0.843977151.40952E+12,2.3744495,-9.427768,-1.7046716,2.2266138,-9.505452,-0.92682321.40952E+12,1.8968062,-9.714474,-1.7429788,2.2670412,-9.486857,-1.01510941.40952E+12,1.1252748,-10.4644575,-1.4706384,2.2545598,-9.480575,-1.09820381.40952E+12,0.15263036,-11.835736,-1.1073183,2.1556296,-9.4987755,-1.13881291.40952E+12,-0.7930793,-12.909535,-0.93613285,1.9440199,-9.546484,-1.12064721.40952E+12,-1.4652514,-12.964602,-0.8511387,1.644835,-9.607649,-1.07609721.40952E+12,-2.0021513,-11.11987,-0.8355764,1.3155922,-9.666243,-1.00169291.40952E+12,-2.3588872,-10.485406,-1.2641385,0.98179865,-9.713351,-0.92589441.40952E+12,-2.7569232,-10.06283,-1.6478093,0.64528996,-9.744767,-0.89077221.40952E+12,-2.8814218,-9.611523,-2.111686,0.3041665,-9.759661,-0.909340141.40952E+12,-2.6713305,-9.555858,-1.8411411,-0.01717793,-9.7560625,-0.99465751.40952E+12,-2.8862102,-9.586982,-2.4193408,-0.28959993,-9.744701,-1.0617461.40952E+12,-6.9240313,-10.3692875,-4.534618,-0.55195934,-9.720245,-1.17584411.40952E+12,-6.5906386,-9.909002,-2.741361,-1.1707687,-9.626006,-1.46277771.40952E+12,-4.529231,-8.67539,-0.8984242,-1.681853,-9.528826,-1.59476041.40952E+12,-3.3824084,-8.221688,-0.8583213,-1.9718715,-9.459491,-1.6733571.40952E+12,-2.224812,-8.022371,-1.8579005,-2.135023,-9.40295,-1.78790641.40952E+12,-1.5340848,-8.650849,-1.857302,-2.1606529,-9.372912,-1.91060751.40952E+12,-0.85652566,-9.045294,-1.1695676,-2.095258,-9.381421,-1.94145381.40952E+12,0.027533319,-9.066243,-0.80325466,-1.9580142,-9.42271,-1.88391171.40952E+12,0.37588966,-9.404425,-0.48602295,-1.7640389,-9.476719,-1.80287721.40952E+12,-0.009576807,-9.637859,-0.29209262,-1.5342298,-9.536794,-1.69295781.40952E+12,-0.7368156,-9.908403,0.004189853,-1.3580066,-9.583984,-1.57271671.40952E+12,-1.2725182,-10.354323,-0.1376666,-1.2597076,-9.618952,-1.43501561.40952E+12,-1.5807717,-11.040861,-0.22804771,-1.2249094,-9.640088,-1.31860221.40952E+12,-1.3371617,-11.422736,-0.40821138,-1.2349422,-9.652248,-1.21630631.40952E+12,-0.748188,-11.388618,-0.65421563,-1.2379774,-9.661292,-1.13895461.40952E+12,-0.28670564,-11.398794,-0.9355343,-1.2012285,-9.67069,-1.09782541.40952E+12,0.035913024,-11.75972,-0.7302315,-1.1097116,-9.682092,-1.09364251.40952E+12,0.08798691,-12.425308,0.2777274,-1.0045675,-9.695155,-1.07944311.40952E+12,-0.1592144,-12.834717,5.4779334,-0.8866104,-9.716984,-0.982107761.40952E+12,0.2184709,-12.727576,18.130093,-0.7997785,-9.764008,-0.44145661.40952E+12,-0.45310268,-12.950835,19.608511,-0.7905191,-9.74268,-0.790980161.40952E+12,-2.2960393,-12.582129,12.937668,-0.76580507,-9.704064,-1.18954941.40952E+12,-3.9378633,-10.924743,-6.4260373,-0.82097185,-9.232875,3.20162821.40952E+12,-3.1381998,-10.943896,-11.6908865,-1.1439984,-9.425394,2.4543031.40952E+12,-2.9747956,-13.352463,-9.316438,-1.2826915,-9.601453,1.5287771.40952E+12,-5.9681463,-15.481506,-1.3802572,-1.3397443,-9.684644,0.763634151.40952E+12,-6.963536,-15.588049,0.7715315,-1.6012756,-9.65634,0.60115571.40952E+12,-6.7624226,-15.400702,0.82121116,-1.8810211,-9.608567,0.55457261.40952E+12,-6.3871317,-14.307151,4.496909,-2.1375496,-9.559318,0.469786261.40952E+12,-7.192182,-14.085089,10.521918,-2.3731213,-9.491568,0.66995941.40952E+12,-6.7330937,-14.937425,10.953473,-2.6392853,-9.350751,1.32966741.40952E+12,-5.085284,-14.096461,4.1036615,-2.8108099,-9.194435,1.93186381.40952E+12,-4.176685,-13.312959,1.002572,-2.9125273,-9.123729,2.10835431.40952E+12,-4.032434,-13.245322,-0.5255273,-2.9869401,-9.108115,2.07142731.40952E+12,-4.398747,-12.804191,-2.7814639,-3.0120816,-9.137107,1.900271.40952E+12,-4.449025,-12.615647,-5.116409,-3.0365372,-9.188384,1.58853171.40952E+12,-4.214992,-12.321759,-8.920795,-3.0779903,-9.241677,1.13479731.40952E+12,-3.2160115,-11.232996,-9.55885,-3.1295657,-9.284065,0.427022281.40952E+12,-1.3874398,-10.571598,-7.9206176,-3.1196218,-9.293206,-0.273204151.40952E+12,0.07182605,-11.219229,-6.2740054,-3.0077627,-9.297261,-0.82743141.40952E+12,1.1420342,-13.332112,-5.254674,-2.7973573,-9.320996,-1.21003931.40952E+12,2.6910827,-18.019958,-3.6337996,-2.4875417,-9.373329,-1.45713071.40952E+12,6.4284315,-19.608511,0.27593175,-2.0234609,-9.476911,-1.50471691.40952E+12,12.97777,-19.608511,4.0916905,-1.3406755,-9.631794,-1.26551351.40952E+12,11.114483,-19.608511,4.7800236,-1.5866771,-9.62885,-0.96855031.40952E+12,5.507262,-17.75959,1.2826935,-1.7261965,-9.632016,-0.64413111.40952E+12,3.0681696,-14.738706,-2.5169046,0.91629744,-9.760779,-0.24073491.40952E+12,3.306991,-11.721413,-7.3208704,1.0785285,-9.740759,-0.353265461.40952E+12,2.6761189,-10.033501,-5.5910597,1.161936,-9.706548,-0.776673851.40952E+12,2.8095956,-9.842564,-1.8854338,1.1908116,-9.672147,-1.09630581.40952E+12,2.8030117,-7.7051396,-3.6224272,1.2613597,-9.6538315,-1.17598411.40952E+12,1.8495208,-5.97892,-5.539584,1.3727479,-9.611863,-1.37769851.40952E+12,0.91338795,-4.654927,-5.7664347,1.4390681,-9.550493,-1.69927531.40952E+12,-0.49320555,-4.7159786,-8.072051,1.4518436,-9.478313,-2.0552731.40952E+12,-1.4814123,-5.592855,-7.2406645,1.3490292,-9.361444,-2.5911221.40952E+12,-2.1775265,-6.1106014,-5.8041434,1.1596347,-9.249212,-3.04593831.40952E+12,-0.777517,-5.7855883,-1.163582,0.9021336,-9.1659975,-3.36764291.40952E+12,1.282095,-5.0571527,-0.074220255,0.7498378,-9.196516,-3.32148271.40952E+12,2.4983494,-4.471172,-1.6106992,0.7834651,-9.23479,-3.20549871.40952E+12,2.7844565,-3.6762967,-3.3375173,0.9610405,-9.208726,-3.23205661.40952E+12,2.634819,-2.89459,-3.7181952,1.2106972,-9.108873,-3.4253521.40952E+12,2.4432828,-2.1290438,-4.0904937,1.4627479,-8.97415,-3.67360731.40952E+12,2.9747956,-1.3611037,-3.1352072,1.6964691,-8.792261,-3.99856831.40952E+12,4.2293572,-0.6739678,-2.2212207,2.0100484,-8.598769,-4.26512431.40952E+12,4.9320555,-0.5434838,-3.1531637,2.5192993,-8.364941,-4.4554771.40952E+12,5.1840453,-0.6823475,-3.810372,3.111845,-8.005495,-4.732751.40952E+12,5.134964,-0.78649527,-4.097078,3.7061727,-7.5611625,-5.0262831.40952E+12,4.8482585,-0.9295488,-4.64116,4.254546,-7.0753093,-5.29237461.40952E+12,4.2060137,-1.276708,-4.2544966,4.683125,-6.576617,