time,acc_x,acc_y,acc_z,gravity_x,gravity_y,gravity_z1409347452103,0.35793316,-10.649409,-1.726818,0.937569,-9.712926,-0.974917651409347452115,-0.049679685,-10.539874,-1.9818004,0.90237933,-9.718928,-0.94791971409347452119,-0.3824737,-10.451887,-2.191293,0.86791974,-9.724415,-0.923497861409347452135,-0.4297592,-10.348338,-2.2984335,0.8321879,-9.729693,-0.90051561409347452150,-0.36870706,-10.162787,-2.2319946,0.79208887,-9.735063,-0.87838441409347452152,-0.28491,-10.031705,-2.0817583,0.74528474,-9.740582,-0.85788231409347452166,-0.31304187,-10.160394,-1.8489223,0.69467974,-9.745748,-0.84155721409347452167,-0.43634325,-10.454881,-1.5729905,0.6419921,-9.750558,-0.827562031409347452182,-0.46387658,-10.739192,-1.3874398,0.59062487,-9.754664,-0.817375541409347452186,-0.3609259,-10.955867,-1.3000516,0.54059976,-9.758007,-0.81206691409347452200,0.05626374,-11.1174755,-1.4760253,0.49162558,-9.760608,-0.811922551409347452220,0.19033903,-11.207258,-1.5304934,0.44573125,-9.762089,-0.82058691409347452222,0.16220717,-11.166556,-1.4682442,0.40129298,-9.762302,-0.840713741409347452240,0.11552023,-11.003153,-1.2617443,0.35869536,-9.760867,-0.87589851409347452242,0.1412579,-10.744578,-1.0432734,0.319132,-9.758426,-0.917421161409347452246,0.21667525,-10.515334,-0.7882909,0.28086746,-9.75395,-0.97568051409347452279,0.32920274,-10.418967,-0.4997896,0.24301147,-9.747602,-1.04670631409347452279,0.5422867,-10.418368,-0.21308395,0.20376667,-9.739687,-1.12579321409347452280,0.7715315,-10.410587,-0.05805939,0.16522506,-9.7308,-1.20608721409347452286,1.0235212,-10.322002,-0.094570965,0.1290823,-9.721594,-1.28231941409347452302,1.2611457,-10.22384,-0.27952304,0.09650252,-9.712693,-1.35080671409347452324,1.4706384,-10.198701,-0.5363012,0.06861439,-9.704422,-1.41062721409347452325,1.5795746,-10.148422,-0.8343793,0.04572978,-9.696228,-1.4667871409347452326,1.6591818,-9.873688,-0.99179804,0.030341363,-9.688753,-1.51576291409347452337,1.6418238,-9.813833,-1.0737995,0.02535656,-9.682218,-1.5570531409347452352,1.5735891,-9.801263,-1.067814,0.030947512,-9.676968,-1.58925831409347452377,1.4688427,-9.6528225,-0.9804256,0.045501523,-9.673369,-1.61066471409347452378,1.3162124,-9.576807,-0.9032126,0.0657552,-9.671625,-1.62041391409347452380,1.1067197,-9.643845,-0.84096336,0.08948796,-9.671923,-1.61749841409347452386,0.90141696,-9.745598,-0.8074445,0.110689454,-9.673252,-1.60820671409347452408,0.66020113,-9.883265,-0.81881696,0.13700755,-9.676293,-1.58775321409347452409,0.40162733,-10.101735,-1.0247183,0.16434768,-9.680788,-1.55746571409347452422,0.05865794,-10.263943,-1.316811,0.19208354,-9.686367,-1.51914791409347452440,-0.24361002,-10.064626,-1.4149733,0.21900429,-9.692486,-1.47586171409347452441,-0.40342298,-10.199299,-1.3640964,0.24515374,-9.698646,-1.43059521409347452446,-0.37948096,-10.530297,-1.2234371,0.2688415,-9.704606,-1.38517771409347452476,-0.24779987,-10.688913,-1.1288661,0.2874965,-9.710157,-1.34185541409347452479,-0.17597382,-10.526108,-1.198298,0.30391514,-9.715274,-1.30058171409347452480,-0.22685061,-10.326791,-1.2072762,0.31426206,-9.719241,-1.26807641409347452486,-0.23283611,-10.180145,-1.0947487,0.31916124,-9.7219095,-1.24620311409347452503,-0.17956513,-10.028712,-1.0103531,0.32243866,-9.723193,-1.23529351409347452515,-0.034715924,-9.873688,-1.0540473,0.32515055,-9.723225,-1.23433381409347452519,0.093373865,-9.91798,-1.1162965,0.32708794,-9.722556,-1.23908881409347452540,0.20111294,-10.079589,-1.18094,0.3281053,-9.721877,-1.2441211409347452541,0.30885202,-10.150218,-1.2826935,0.33022916,-9.721252,-1.24844121409347452546,0.40462008,-10.038289,-1.2689269,0.333086,-9.720642,-1.2524271409347452572,0.43873745,-9.873688,-1.2150574,0.3366358,-9.720168,-1.25515381409347452573,0.37110126,-9.916783,-1.198298,0.33968145,-9.719955,-1.25598041409347452578,0.24839842,-10.0664215,-1.2000936,0.34291825,-9.720032,-1.25450031409347452587,0.12928689,-10.183139,-1.2306197,0.34719783,-9.720485,-1.24980191409347452600,0.06404489,-10.362105,-1.2312182,0.35132805,-9.721325,-1.24210381409347452623,0.01616086,-10.623672,-1.2569559,0.35419047,-9.722411,-1.23274911409347452624,-0.036511578,-10.762535,-1.2210429,0.3553782,-9.723551,-1.22338091409347452627,-0.08319851,-10.685322,-1.1133038,0.3542992,-9.7247095,-1.21444831409347452653,-0.20051439,-10.370484,-0.79607207,0.35083297,-9.725751,-1.20710611409347452654,-0.18195933,-10.251373,-0.7374141,0.34458092,-9.726869,-1.1998751409347452677,-0.03172317,-10.227431,-0.7457938,0.33678603,-9.727876,-1.19391471409347452679,0.23942018,-10.254965,-0.866701,0.32853666,-9.728911,-1.18774091409347452681,0.5201403,-10.2735195,-1.0360907,0.32032678,-9.730038,-1.18074821409347452689,0.7332243,-10.25676,-1.216853,0.3128791,-9.731081,-1.17412271409347452714,0.86370826,-10.1861315,-1.3790601,0.30695057,-9.732089,-1.16731191409347452715,0.88046765,-10.105926,-1.5089456,0.30231443,-9.733118,-1.15990711409347452721,0.8936358,-10.031705,-1.553837,0.30014235,-9.734103,-1.15221131409347452731,0.94810385,-10.007763,-1.5304934,0.30162498,-9.734964,-1.14448571409347452755,1.0007763,-9.9790325,-1.46585,0.30666882,-9.735623,-1.13752821409347452756,1.0348936,-9.957485,-1.4335283,0.31378245,-9.736112,-1.1314041409347452780,1.0295067,-9.909002,-1.4077905,0.3233432,-9.73643,-1.12596271409347452780,0.9959879,-9.898229,-1.3718776,0.33357087,-9.736664,-1.12092951409347452782,0.9498995,-9.862315,-1.3575124,0.34595278,-9.736747,-1.11645321409347452787,0.89603,-9.791686,-1.3700819,0.35940674,-9.736602,-1.11346751409347452800,0.8343793,-9.72824,-1.3581109,0.3725462,-9.736208,-1.11260181409347452817,0.7625532,-9.663596,-1.340753,0.38409695,-9.735623,-1.11376731409347452821,0.6631939,-9.561244,-1.3605051,0.39446783,-9.734918,-1.11633741409347452835,0.5931635,-9.401431,-1.365892,0.40413436,-9.734121,-1.11980131409347452853,0.53929394,-9.18715,-1.364695,0.41327745,-9.733301,-1.12359021409347452854,0.47884035,-8.9363575,-1.3970166,0.4220479,-9.732438,-1.12779361409347452862,0.4369418,-8.762179,-1.4047978,0.42928195,-9.731563,-1.13259531409347452867,0.40402153,-8.780136,-1.3868413,0.4351099,-9.730635,-1.13835231409347452883,0.39384618,-9.009979,-1.3868413,0.43988723,-9.729528,-1.14593941409347452901,0.4189853,-9.457097,-1.483208,0.4445061,-9.728137,-1.15592131409347452902,0.439336,-10.020931,-1.6316484,0.44882572,-9.726475,-1.16819561409347452923,0.47285482,-10.484808,-1.7830818,0.45317692,-9.724454,-1.18323081409347452924,0.5243302,-10.775703,-1.8249803,0.45708153,-9.72214,-1.20060681409347452927,0.49440265,-11.030685,-1.7753005,0.46003392,-9.719286,-1.2223961409347452955,0.41599256,-11.115082,-1.5394717,0.46021074,-9.715686,-1.2506221409347452956,0.34715924,-10.961254,-1.2659341,0.45762396,-9.711292,-1.28521511409347452962,0.24121583,-10.786477,-1.0055647,0.4517489,-9.70628,-1.32456231409347452967,0.1592144,-10.716447,-0.81283146,0.4410253,-9.70109,-1.36555661409347452985,0.037110128,-10.63684,-0.6979098,0.42638534,-9.696213,-1.40429691409347453003,-0.005386954,-10.435128,-0.60573304,0.40790394,-9.691729,-1.44027771409347453005,0.019752163,-10.280702,-0.58119243,0.3885893,-9.688044,-1.47011351409347453007,0.08499416,-10.201095,-0.61770403,0.3679019,-9.685173,-1.49414851409347453035,0.1340753,-10.161591,-0.7290344,0.3483128,-9.682932,-1.51325121409347453036,0.23762453,-10.125079,-0.88286185,0.3315265,-9.680984,-1.52939451409347453057,0.374094,-10.079589,-1.0498575,0.31940147,-9.679125,-1.54367091409347453058,0.52852005,-10.060435,-1.2186487,0.31166416,-9.677524,-1.55525611409347453059,0.6500258,-10.126875,-1.3688848,0.30823156,-9.676523,-1.56213361409347453070,0.7146692,-10.20289,-1.6436194,0.30726036,-9.675773,-1.56697521409347453081,0.7278373,-10.168175,-1.7723078,0.31222326,-9.675434,-1.56808581409347453097,0.7158663,-10.21965,-1.8674773,0.32277095,-9.675453,-1.56582671409347453100,0.6793547,-10.196905,-1.8968062,0.3380252,-9.675538,-1.56207871409347453122,0.6290765,-10.040684,-2.0416555,0.35646543,-9.675458,-1.55847161409347453134,0.4321534,-9.999982,-2.304419,0.376032,-9.674917,-1.55723421409347453136,0.22325931,-10.101137,-2.4983494,0.39492023,-9.673937,-1.55865921409347453148,0.31902736,-10.238205,-2.6234465,0.41594782,-9.673954,-1.55305891409347453149,0.52253455,-10.0987425,-2.7922378,0.4387547,-9.675114,-1.53950321409347453163,0.45250413,-9.8042555,-2.6084828,0.46744567,-9.679235,-1.5047611409347453167,-0.002394202,-9.506777,-2.0015526,0.48678106,-9.685207,-1.45952141409347453179,-0.56443304,-9.268554,-1.0342951,0.49184975,-9.690304,-1.42355231409347453197,-0.9540894,-9.198523,-0.3465607,0.48924834,-9.692708,-1.40798351409347453200,-1.3221979,-9.391256,-0.24959552,0.48108986,-9.69223,-1.41407131409347453215,-1.4586674,-9.403826,-0.3184288,0.4660934,-9.69013,-1.43336751409347453227,-1.4562732,-9.3343935,-0.43993455,0.4529764,-9.687781,-1.45331311409347453228,-1.4490906,-9.488221,-0.6332663,0.43620503,-9.685391,-1.47421981409347453246,-1.7154455,-9.765948,-0.92416185,0.41754475,-9.682514,-1.49832431409347453247,-2.0003555,-10.076596,-1.1294646,0.39246467,-9.678016,-1.53375161409347453261,-1.3640964,-9.870096,-1.2354081,0.35985008,-9.671369,-1.58289171409347453290,-0.7308301,-9.69951,-1.2563573,0.32672873,-9.66202,-1.64590441409347453291,-0.44771573,-9.855731,-1.4191631,0.2931424,-9.649965,-1.72122821409347453293,-0.5482722,-10.267534,-1.5999253,0.26806292,-9.634941,-1.80732541409347453299,-0.8182184,-10.457274,-1.6879122,0.25270197,-9.618064,-1.89720791409347453322,-1.0941502,-10.644022,-1.525705,0.2547627,-9.598261,-1.99470671409347453323,-1.1534066,-10.808623,-1.1755531,0.2716437,-9.5753565,-2.09979841409347453327,-0.9804256,-10.71106,-0.6290765,0.29559916,-9.548917,-2.21386861409347453346,-0.51235914,-10.663176,-0.025139118,0.31714815,-9.519633,-2.3337511409347453347,0.1376666,-10.753557,0.64463884,0.33245763,-9.488867,-2.45382881409347453363,0.5859809,-10.808623,1.3934253,0.34214756,-9.459736,-2.5625611409347453390,0.6943185,-10.715848,1.8064252,0.3461331,-9.432868,-2.65925431409347453391,0.7164649,-10.385448,1.9213469,0.34900662,-9.410018,-2.73864341409347453392,0.83856916,-10.007763,1.436521,0.3496686,-9.391152,-2.80256921409347453400,1.2192472,-9.77792,0.7625532,0.35463792,-9.376373,-2.85101371409347453421,1.6304513,-9.788693,0.1592144,0.3708286,-9.367387,-2.87835361409347453422,1.804031,-9.903615,-0.48602295,0.40004972,-9.36615,-2.87847571409347453427,1.6232687,-10.023325,-1.1091139,0.43808836,-9.372345,-2.85265851409347453457,1.1372458,-10.084976,-1.5071499,0.4802645,-9.384073,-2.80693961409347453458,0.4938041,-10.255563,-1.9686323,0.51881844,-9.397256,-2.75550171409347453460,-0.15562311,-10.235212,-2.2427685,0.5585469,-9.412725,-2.69425251409347453468,-0.7930793,-10.368091,-2.4690206,0.5947975,-9.429134,-2.6283111409347453484,-1.2707225,-10.620679,-3.1932666,0.6255536,-9.445714,-2.56077581409347453487,-1.4915876,-10.7673235,-4.611831,0.65225047,-9.461988,-2.49314071409347453501,-1.7770962,-10.903194,-6.1938,0.67564654,-9.476966,-2.42919641409347453525,-4.4568067,-12.118252,-2.7204118,0.6910051,-9.488025,-2.38123581409347453526,-4.742315,-11.915942,-1.2659341,0.6682979,-9.507962,-2.30704141409347453528,-3.9199066,-11.992557,-0.46627077,0.63582015,-9.521163,-2.261321409347453558,-2.873042,-12.269087,0.9379285,0.5995134,-9.524768,-2.25605631409347453559,-1.8429368,-12.36246,1.6777369,0.55869687,-9.524006,-2.26971151409347453561,-0.9516952,-11.95365,1.0995371,0.5268173,-9.5198765,-2.29451681409347453569,-0.74639237,-11.548432,-0.16759412,0.5077967,-9.511179,-2.3345281409347453593,-0.81163436,-11.659163,-1.4670471,0.4952432,-9.498694,-2.38745331409347453594,-0.6721721,-11.942278,-2.32058,0.49578708,-9.484288,-2.4439481409347453599,0.06404489,-12.557588,-3.7475243,0.509175,-9.469813,-2.4967561409347453625,0.061650693,-13.646351,-4.43466,0.5414532,-9.4579525,-2.53463441409347453626,-2.1643584,-15.5515375,-2.5623944,0.576153,-9.45087,-2.5533331409347453628,-3.9079356,-16.38472,1.0785879,0.57877165,-9.451172,-2.55162861409347453659,-5.6760535,-16.502634,6.238691,0.55930036,-9.454877,-2.5422251409347453660,-6.897695,-15.811907,9.146449,0.5111039,-9.472963,-2.48437641409347453661,-6.5247984,-14.155718,10.195109,0.4325693,-9.5019455,-2.38671409347453667,-5.0481744,-13.015479,11.785458,0.37076515,-9.5292635,-2.28605871409347453687,-3.705027,-12.012308,6.0399723,0.31155223,-9.565635,-2.13821551409347453688,-2.6581624,-11.975199,0.4177882,0.26334348,-9.595245,-2.0080631409347453700,-1.7561469,-13.403339,-2.255338,0.20351972,-9.636077,-1.80970031409347453718,-0.7152678,-14.203602,-3.876811,0.11848376,-9.6846485,-1.5375031409347453721,0.39025488,-15.039777,-3.7541082,0.008475567,-9.7240715,-1.26994691409347453727,0.8559271,-15.115792,-3.2609026,-0.12288667,-9.75163,-1.03004621409347453756,1.8231846,-14.766837,-2.9532478,-0.27367696,-9.768815,-0.815923041409347453756,2.818574,-14.483125,-3.2513258,-0.42553896,-9.778586,-0.60709731409347453760,3.7163997,-13.937246,-4.8057613,-0.5807529,-9.7809105,-0.40856331409347453792,4.311359,-13.672688,-5.9011087,-0.73657125,-9.776454,-0.220840561409347453793,4.63278,-13.185468,-5.6245785,-0.87872404,-9.767112,-0.0420119281409347453794,3.9067385,-12.579136,-3.7181952,-0.99896604,-9.75478,0.129261761409347453820,0.9636662,-12.887988,-2.3331497,-1.1019664,-9.740153,0.292299541409347453823,-2.1416135,-13.2351465,-3.3123782,-1.2014415,-9.723287,0.429689651409347453824,-3.0969,-12.330737,-3.9145198,-1.3140953,-9.703541,0.53370241409347453829,-3.6098576,-11.484985,-4.2760444,-1.4425343,-9.68037,0.61636781409347453853,-2.7132292,-10.563816,-3.6409822,-1.6097625,-9.649724,0.679613651409347453854,-1.22224,-10.138845,-3.0125043,-1.8028853,-9.611331,0.73642511409347453861,0.37469256,-9.779716,-1.5245079,-2.0045445,-9.567121,0.788935661409347453888,1.7483658,-9.23264,-1.8920178,-2.194894,-9.519437,0.85624681409347453889,2.5252843,-8.917204,-4.9703627,-2.3485463,-9.474538,0.94223761409347453891,2.818574,-8.327033,-5.5671177,-2.4683745,-9.435539,1.02376561409347453901,3.1142578,-7.1383123,-3.41473,-2.5840805,-9.39643,1.09544841409347453920,2.9137435,-6.0728927,-3.3452983,-2.7073383,-9.351468,1.17930221409347453922,2.6001031,-5.2008047,-2.5504234,-2.8347318,-9.301377,1.272421409347453928,1.951873,-4.8039656,-2.4678235,-2.950986,-9.247088,1.39765561409347453956,1.3341689,-4.457405,-1.951873,-3.047167,-9.193681,1.53667941409347453957,2.0841527,-3.506907,-1.5245079,-3.126209,-9.142819,1.67512811409347453959,2.9161377,-2.681506,-1.4520833,-3.1926537,-9.09588,1.80064431409347453989,3.821146,-2.3062148,-1.0893618,-3.2524679,-9.051137,1.91540111409347453990,4.656722,-2.2589293,-0.741604,-3.3068388,-9.011815,2.00559521409347453991,5.1241903,-2.2080526,-1.4718355,-3.3574312,-8.979909,2.06380251409347454000,4.9464207,-2.3953989,-1.9387048,-3.4010255,-8.958408,2.08574721409347454020,4.423288,-2.6491842,-1.9841946,-3.4344704,-8.947546,2.07755041409347454021,4.107253,-2.9317,-1.7459716,-3.4559278,-8.946882,2.04457281409347454028,3.9863458,-3.3728316,-1.4568717,-3.457992,-8.957715,1.99299111409347454059,3.9803603,-4.3424835,-1.1887212,-3.4354067,-8.980186,1.92992761409347454060,3.8959646,-5.3037553,-0.36032736,-3.3955712,-9.009273,1.86373171409347454061,2.4157495,-7.080253,1.9985598,-3.3305411,-9.04962,1.78389241409347454103,-1.186327,-10.627263,8.697536,-3.24096,-9.098936,1.69586351409347454105,-8.27077,-17.012598,18.77952,-3.1209013,-9.148876,1.65179231409347454107,-17.236456,-19.608511,13.333309,-2.9995017,-9.212278,1.51899241409347454110,-19.60911,-19.608511,3.8977604,-2.86104,-9.273456,1.40991591409347454111,-19.430143,-19.608511,4.4322658,-2.7444663,-9.314756,1.36880241409347454137,-13.637373,-17.234661,3.8576574,-2.6970594,-9.334596,1.32724581409347454138,-8.595184,-13.830705,4.618415,-2.701,-9.348181,1.21923031409347454141,-4.8135424,-11.484387,4.1252093,-4.108297,-8.604673,2.2917011409347454148,-1.6849195,-9.189545,3.90614,-4.084492,-8.590962,2.38383221409347454168,0.2753332,-6.9198413,3.2303767,-3.8941576,-8.625188,2.57139421409347454169,1.2006922,-5.689222,0.14185645,-3.6352162,-8.677886,2.76584081409347454180,2.8634653,-8.807071,-4.1491513,-3.351218,-8.805375,2.72123171409347454201,4.875193,-13.751696,-7.117962,-2.8908916,-9.105781,2.21312141409347454202,3.9905357,-15.095442,-6.0746884,-2.1819386,-9.466571,1.33924961409347454208,0.24001873,-14.268844,-0.81163436,-1.565375,-9.661657,0.61022741409347454233,-3.277662,-13.387777,2.2152352,-1.3327413,-9.7063055,0.426416341409347454234,-1.6358383,-13.010691,-1.2539631,-1.4269801,-9.6879015,0.5279011409347454256,1.400608,-11.665748,-2.2768857,-1.3970625,-9.700614,0.341641931409347454257,1.5885528,-10.99597,0.05566519,-1.1618606,-9.73657,0.140289351409347454260,1.4879963,-11.119271,2.2613235,-0.9303344,-9.7608595,0.174620661409347454294,3.3171666,-9.324817,0.1412579,-0.70080507,-9.77516,0.354315551409347454295,4.9972973,-6.8264675,-2.0374656,-0.34834158,-9.79652,0.277914431409347454296,5.589264,-5.6999955,-2.7880478,0.11849063,-9.805935,2.19E-041409347454322,5.689222,-5.6431336,-3.0723593,0.6176971,-9.783289,-0.275832951409347454323,4.8985367,-6.567295,-3.8534677,1.1584221,-9.722933,-0.54135731409347454324,4.2556934,-7.4088573,-3.6990416,1.6202254,-9.631847,-0.87906541409347454328,4.034828,-8.25401,-3.1352072,1.9694263,-9.534644,-1.17570391409347454342,4.039018,-8.996812,-2.5151088,2.2275338,-9.450071,-1.38007781409347454350,3.891775,-9.484032,-1.9237411,2.4197261,-9.3829,-1.50880591409347454364,3.4243069,-10.26514,-1.5783775,2.578868,-9.335255,-1.54041281409347454395,2.7216089,-11.397597,-1.4772224,2.660547,-9.313001,-1.53620081409347454396,1.1653777,-14.117411,-1.6101006,2.6525056,-9.320337,-1.50530991409347454397,0.2705448,-14.238916,-1.6286557,2.4511716,-9.383546,-1.45299641409347454417,-0.2633622,-13.032238,-1.6753427,2.1964502,-9.453979,-1.40295361409347454418,-0.26156655,-11.5203,-1.4975731,1.938951,-9.515166,-1.36839271409347454421,-0.15263036,-10.314221,-1.5047557,1.7159246,-9.563381,-1.32956931409347454428,-0.36511576,-9.749189,-1.7735049,1.5419146,-9.594007,-1.3220921409347454444,-0.6159084,-9.701904,-2.3469162,1.3610634,-9.620466,-1.32835641409347454448,-0.6099229,-9.628283,-2.6527755,1.1735862,-9.6354475,-1.39687061409347454462,-0.51834464,-9.219472,-1.899799,1.0016514,-9.639698,-1.4977651409347454479,-0.362123,-9.130887,-1.0354922,0.85549235,-9.647079,-1.54025791409347454481,-0.75836337,-9.203311,-1.9057846,0.7379519,-9.660584,-1.51621291409347454503,-3.8121676,-10.205883,-5.2002063,0.58808136,-9.661316,-1.57591781409347454504,-6.637326,-11.575965,-4.9787426,0.14993367,-9.621652,-1.88989381409347454508,-5.474941,-11.049839,-2.7132292,-0.49143943,-9.562934,-2.11640641409347454528,-3.9953241,-10.183737,-0.9744401,-0.93573946,-9.515729,-2.17846231409347454529,-3.0442274,-9.495404,-0.45010993,-1.2229747,-9.490543,-2.1457631409347454547,-2.5372553,-9.44752,0.25857377,-1.4073701,-9.484862,-2.05598971409347454549,-1.9494787,-9.910798,0.46866497,-1.5164424,-9.504719,-1.87912331409347454564,-1.1988965,-9.841965,0.6063316,-1.5474478,-9.535366,-1.68897661409347454576,-0.9888053,-9.222465,0.599149,-1.5117189,-9.570271,-1.51494341409347454581,-0.9020155,-8.65863,0.96665895,-1.4694036,-9.60034,-1.35820731409347454595,-0.9367314,-8.920795,1.4754268,-1.430446,-9.627401,-1.1989031409347454612,-1.0187328,-9.3104515,1.763928,-1.3877681,-9.656952,-0.99386731409347454613,-0.9151836,-9.255983,2.0213048,-1.35275,-9.683152,-0.759623051409347454627,-0.770933,-9.114726,1.965041,-1.3178368,-9.705075,-0.495164871409347454628,-0.5758055,-9.199121,1.8130093,-1.277458,-9.720206,-0.236799181409347454653,-0.54887074,-9.905411,1.7208325,-1.2192134,-9.730566,7.65E-041409347454654,-0.53330845,-10.682928,1.5101427,-1.1530265,-9.736938,0.18145841409347454662,-0.31184477,-11.126453,1.3970166,-1.0829233,-9.74089,0.335783271409347454676,-0.1412579,-11.336545,0.9008184,-0.9971546,-9.745833,0.441391771409347454680,-0.25139117,-11.529877,0.11671733,-0.9065458,-9.753174,0.473480281409347454696,-0.44113165,-11.650186,-0.6051345,-0.83262426,-9.762231,0.41948391409347454709,-0.58657944,-11.470022,-1.2395979,-0.7791171,-9.7710495,0.29996321409347454710,-0.65900403,-11.396998,-1.5688007,-0.74603784,-9.777343,0.13198331409347454724,-0.6440403,-11.759122,-1.1091139,-0.7270275,-9.779554,-0.046397011409347454728,-1.0079589,-12.234969,0.05805939,-0.7070587,-9.779905,-0.154579151409347454743,-2.2499511,-12.755708,1.1540052,-0.7231056,-9.779007,-0.136139241409347454759,-3.9761705,-13.230957,1.9488802,-0.829481,-9.771507,-0.0026671741409347454761,-5.7269306,-13.525444,1.2324153,-1.0488038,-9.748461,0.194736391409347454785,-6.8198833,-13.806763,0.18136078,-1.3783857,-9.70433,0.310523751409347454788,-6.4990606,-14.325706,0.48602295,-1.7592946,-9.642167,0.322303621409347454790,-4.955399,-14.723742,1.9333179,-2.0704072,-9.57961,0.33890991409347454817,-3.578733,-14.74529,3.570952,-2.210174,-9.543533,0.454439461409347454819,-4.4322658,-14.833876,7.358579,-2.239985,-9.523779,0.67118021409347454824,-5.5766945,-13.223176,3.3650506,-2.3058085,-9.464383,1.13096751409347454828,-5.006874,-11.642405,-0.47764325,-2.489836,-9.402416,1.25128021409347454847,-4.605247,-11.140221,-4.684854,-2.6841502,-9.365054,1.1231561409347454859,-3.7792473,-11.540052,-6.5002575,-2.8567402,-9.352513,0.734792531409347454860,-2.309806,-13.53921,-4.232949,-2.929683,-9.35492,0.26986381409347454878,-1.0552444,-14.167688,-3.774459,-2.8472283,-9.384222,0.008790041409347454901,-0.0676362,-13.68825,-4.271256,-2.6625593,-9.435792,-0.216779291409347454902,0.35314476,-14.848241,-3.9073372,-2.4470873,-9.482747,-0.5095851409347454903,0.9139865,-17.15266,-3.1310172,-2.196688,-9.530105,-0.722564941409347454909,2.44448,-19.498978,-1.5047557,-1.8973184,-9.584573,-0.8405461409347454939,5.1355624,-19.608511,0.219668,-1.514045,-9.654266,-0.820502761409347454940,9.078215,-19.608511,1.6903064,-1.020311,-9.729692,-0.680014671409347454942,9.254189,-19.366098,0.5919664,-0.33702773,-9.790816,-0.443538131409347454969,5.33069,-15.369577,-3.5978866,0.26426908,-9.797936,-0.317777661409347454970,2.4349031,-12.460024,-6.631939,0.59975106,-9.777385,-0.461982731409347454970,0.49440265,-11.263522,-7.8146744,0.775299,-9.7414875,-0.82020411409347454981,0.15322891,-10.948086,-6.331466,0.8043802,-9.690459,-1.27215581409347455001,0.7086837,-10.3932295,-4.681263,0.7632481,-9.6401005,-1.62982241409347455002,1.1923125,-9.081805,-4.701015,0.7248678,-9.599383,-1.8699751409347455008,2.5570073,-6.39611,-5.703587,0.7177115,-9.55071,-2.10695081409347455050,1.7525556,-5.2624555,-5.072715,0.8420433,-9.468954,-2.40837531409347455050,1.4718355,-5.130774,-3.7403417,0.94040275,-9.393173,-2.65600321409347455052,-0.061650693,-6.1955953,-5.0242324,1.0183574,-9.348617,-2.78149081409347455052,-0.017357962,-5.9160724,-4.4113164,0.96071386,-9.2868595,-3.00027971409347455063,-0.09995792,-5.511452,-3.6966474,0.88013273,-9.221705,-3.21805831409347455099,0.25198972,-5.113416,-2.2146366,0.7759144,-9.165451,-3.40042041409347455100,0.4141969,-5.1182046,-1.2773066,0.7190519,-9.151163,-3.45103121409347455101,1.2605472,-4.5005007,-1.9608512,0.69829214,-9.169645,-3.40593721409347455102,2.1278467,-3.6984432,-2.5498247,0.78503263,-9.151676,-3.43525031409347455108,3.0142999,-2.9317,-2.3642743,0.9741499,-9.090996,-3.546161409347455150,3.821146,-2.4654293,-1.8303672,1.286091,-9.004702,-3.66492721409347455152,4.494515,-2.055422,-1.982399,1.7185134,-8.902517,-3.73661071409347455154,5.197213,-1.4401124,-2.4797945,2.247117,-8.742363,-3.83300951409347455156,5.789778,-1.1994951,-3.276465,2.8751428,-8.481029,-3.9970141409347455160,6.373365,-0.5859809,-3.945046,3.5535111,-8.099204,-4.2362571409347455194,6.8204823,-0.09696517,-3.716998,4.266358,-7.572682,-4.5412651409347455195,7.325659,-0.676362,-3.0388405,4.9823146,-6.9715548,-4.7691081409347455196,8.002021,-1.8393455,-1.9877859,5.6627235,-6.388147,-4.82654761409347455221,8.5299425,-3.5535939,0.18674773,6.287322,-5.926221,-4.63895231409347455221,5.820903,-7.6069775,5.7305217,6.8443856,-5.7011595,-4.1014081409347455222,-6.47033,-17.229275,19.319412,7.042426,-6.1907587,-2.87213831409347455228,-18.388666,-19.608511,19.215263,7.1357393,-5.9718804,-3.09649061409347455248,-19.60911,-19.608511,12.748526,7.211579,-5.7551613,-3.32290051409347455250,-19.561825,-19.608511,4.019266,7.2088466,-5.599525,-3.58443781409347455261,-10.235212,-10.697892,5.0158525,7.2217197,-5.4847665,-3.7328931409347455283,-5.9663506,-9.311649,5.1367598,-3.1639793,-8.766541,3.05079911409347455284,-2.1386206,-7.5441294,4.264672,-3.477934,-8.621896,3.1204621409347455289,0.007781155,-3.9234982,1.1354501,-3.3883214,-8.593613,3.29233961409347455315,1.2826935,-0.06703765,-4.6860514,-3.2328475,-8.623881,3.36864471409347455315,1.9967642,-1.3281834,-9.497798,-3.1047935,-8.798742,3.0187371409347455321,5.2798133,-6.517616,-6.7492547,-2.8829958,-9.166135,1.95977631409347455329,7.575254,-12.826936,-4.92607,-2.0259974,-9.545967,0.96965521409347455348,6.8408327,-16.667234,-3.6062663,-0.75603366,-9.774784,0.228846761409347455350,3.6302083,-17.860146,-0.46746787,0.20385757,-9.80203,-0.221471251409347455362,-1.1210849,-19.608511,2.3798366,0.6091603,-9.784395,-0.25483051409347455377,-2.7952304,-19.608511,2.789245,0.46425694,-9.795564,-0.04227731409347455398,0.61171854,-19.008165,6.5960255,0.18868966,-9.804067,0.122882871409347455399,7.017405,-13.354857,4.471172,0.18856809,-9.789588,0.5466491409347455401,7.5405383,-7.8745294,1.7579426,0.6379649,-9.752148,0.81179391409347455409,6.9168487,-4.9745526,-0.1412579,1.1685354,-9.693292,0.91925771409347455425,6.7510505,-4.613028,-1.4850036,1.6788304,-9.615846,0.94204061409347455429,5.357026,-5.275025,-2.4600422,2.2241561,-9.5156,0.82272511409347455448,3.169923,-6.0627174,-2.8999767,2.6306343,-9.429414,0.57993691409347455450,2.1218612,-6.5032506,-3.0005333,2.817803,-9.388916,0.280422631409347455460,2.5037365,-7.398083,-3.1118636,2.8786194,-9.374579,-0.0346551351409347455487,3.1489737,-8.405443,-2.866458,2.9133196,-9.357585,-0.3443431409347455489,3.1896753,-9.400234,-2.3989902,2.9661145,-9.327792,-0.604022741409347455490,2.6623523,-10.749367,-1.9937714,2.986069,-9.307951,-0.784765661409347455518,1.5705963,-12.373833,-1.8435353,2.9351964,-9.31289,-0.908352851409347455519,0.16220717,-13.937845,-1.982399,2.7642865,-9.356489,-0.992575471409347455521,-0.95588505,-14.723144,-2.315193,2.4566174,-9.43445,-1.06141111409347455551,-1.186327,-13.787609,-2.4612393,2.0695634,-9.519759,-1.1231671409347455552,-0.94451255,-11.780669,-2.4193408,1.7091062,-9.58614,-1.16416721409347455553,-0.89782566,-9.651027,-2.280477,1.4200759,-9.629768,-1.19221661409347455563,-1.0408791,-8.358158,-2.4480712,1.1913345,-9.652028,-1.26074241409347455593,-1.1486182,-7.973889,-2.8892028,0.979864,-9.666499,-1.33004981409347455598,-1.0941502,-7.8170686,-3.5966895,0.7730102,-9.664312,-1.47440221409347455599,-0.47465047,-6.941389,-7.269395,0.58549106,-9.640387,-1.70015851409347455622,-2.9855695,-8.1756,-9.581595,0.44509283,-9.525398,-2.28889541409347455623,-6.3284736,-9.539098,-4.4963107,0.045497138,-9.326118,-3.03180981409347455623,-5.2181625,-8.053496,0.24600422,-0.59120226,-9.224429,-3.27578471409347455642,-4.9105077,-7.885902,-0.56203884,-1.00733,-9.256697,-3.07720851409347455643,-4.0456023,-8.219295,-2.327164,-1.4248917,-9.236075,-2.97237281409347455661,-2.717419,-8.488044,-2.190096,-1.6729131,-9.200544,-2.9532571409347455677,-1.6286557,-9.0794115,-1.1408371,-1.7615483,-9.200393,-2.90174321409347455677,-1.0402806,-10.048465,-0.825401,-1.7470748,-9.247307,-2.75779531409347455692,-0.95588505,-11.164762,-1.0857705,-1.672347,-9.312838,-2.57772871409347455693,-1.115698,-12.165538,-1.1073183,-1.5749819,-9.371861,-2.4203391409347455711,-1.1079168,-13.310564,-0.6739678,-1.4873458,-9.422996,-2.27274321409347455712,-0.93014735,-13.424289,0.19812019,-1.4014328,-9.479476,-2.08468561409347455722,-0.7517793,-13.345879,1.5161282,-1.3113568,-9.537984,-1.86483941409347455745,-0.6398504,-12.979566,2.8580782,-1.227956,-9.602289,-1.5679871409347455747,-0.5315128,-12.50731,4.8733974,-1.1542209,-9.664002,-1.20216631409347455749,-0.090979666,-12.245145,8.77834,-1.0861043,-9.720033,-0.71537531409347455761,1.453879,-12.164939,14.131177,-0.99046415,-9.756343,0.0559317321409347455781,2.2385786,-12.613253,15.541362,-0.7826532,-9.701398,1.20029521409347455783,1.5544355,-12.591705,10.47164,-0.5624781,-9.520803,2.28217721409347455789,-0.0724246,-11.893796,3.2243912,-0.43190587,-9.37937,2.8304231409347455827,-1.0127473,-10.676344,-3.8145618,-0.48910892,-9.368696,2.85634681409347455829,-1.9147629,-10.173561,-8.95611,-0.5842422,-9.474416,2.46261741409347455873,-3.3423057,-10.999561,-8.732851,-0.95693773,-9.756348,0.261430351409347455874,-3.6978445,-11.971607,-6.2500634,-0.95693773,-9.756348,0.261430351409347455874,-3.0460231,-12.713211,-4.4394484,-0.95693773,-9.756348,0.261430351409347455875,-4.896741,-13.356652,-3.8983588,-1.0784005,-9.745808,-0.163364511409347455876,-4.9344497,-13.445837,-3.8163576,-1.3642037,-9.701103,-0.444917621409347455876,-3.8271315,-12.295423,-1.5526398,-1.602043,-9.64715,-0.73235041409347455899,-2.9071593,-11.637017,1.7178397,-1.729721,-9.618083,-0.81911221409347455901,-2.790442,-13.066955,3.4141316,-1.784287,-9.62197,-0.63590431409347455905,-3.12982,-14.566323,4.1784806,-1.8230066,-9.631011,-0.301100671409347455909,-4.107253,-15.373169,5.0930657,-1.8674163,-9.626905,0.076492291409347455927,-4.836886,-16.42602,6.637924,-1.9657849,-9.595792,0.476279561409347455943,-4.678869,-16.730682,5.7389016,-2.081558,-9.540187,0.906853261409347455943,-3.21661,-15.483901,4.1144357,-2.1833553,-9.480811,1.23189391409347455965,-2.094328,-13.174095,2.9825768,-2.2184289,-9.447226,1.41382961409347455966,-1.3796587,-11.951855,1.9841946,-2.2097533,-9.430488,1.53404241409347455969,-1.2545617,-11.772888,-0.9947908,-2.1485946,-9.433161,1.60294581409347455990,-0.7015011,-12.208633,-5.029021,-2.0684025,-9.473389,1.46527241409347455990,-0.1436521,-12.270883,-7.1580644,-1.9613018,-9.553271,1.02892221409347456011,0.13946225,-11.249755,-7.3460093,-1.8364486,-9.6237335,0.42614451409347456012,-0.16340427,-11.465832,-5.6940103,-1.6979733,-9.657417,-0.146852941409347456023,-0.47285482,-12.998121,-4.964976,-1.5941607,-9.658888,-0.57872931409347456050,0.41359833,-14.783597,-4.0982747,-1.501742,-9.650649,-0.88323711409347456053,0.85652566,-17.40405,-2.404377,-1.3407707,-9.655962,-1.06541861409347456054,0.7433996,-19.600132,1.0169371,-1.1530138,-9.678841,-1.07747551409347456085,1.9428947,-19.608511,3.4171243,-0.9765935,-9.722152,-0.834517241409347456086,4.231153,-19.593548,2.557606,-0.74784786,-9.766896,-0.467824431409347456087,4.9362454,-15.968128,-1.963844,-0.40777504,-9.795738,-0.218234761409347456090,2.629432,-11.992557,-6.6893997,-0.07466917,-9.802061,-0.290590381409347456123,1.2395979,-10.370484,-6.931214,0.12793021,-9.781716,-0.68706051409347456123,0.08738836,-10.016742,-6.421249,0.2618319,-9.740032,-1.1106741409347456124,0.24181437,-9.445126,-5.3324857,0.28324702,-9.686571,-1.5034881409347456139,3.502717,-7.397485,-4.143166,0.2783191,-9.6375,-1.79207581409347456143,3.3393128,-6.2871737,-3.928885,0.50734735,-9.590744,-1.98258841409347456159,2.7509377,-5.3606176,-5.8364654,0.7306322,-9.537493,-2.16166261409347456174,2.5683799,-5.2846017,-4.9823337,0.9237496,-9.436499,-2.50391531409347456175,1.8411411,-5.5485625,-2.3038206,1.1004117,-9.340328,-2.7780941409347456188,1.0103531,-5.395932,-2.3349452,1.2101871,-9.310827,-2.83096171409347456190,0.8242039,-4.693234,-1.903989,1.2134477,-9.283054,-2.91939281409347456206,1.0648212,-4.582502,-1.0498575,1.1796285,-9.263457,-2.9945391409347456210,1.5029601,-4.2131963,-1.1707647,1.1895677,-9.268087,-2.97621731409347456223,2.3983915,-3.7271736,-1.6484078,1.2835504,-9.2603445,-2.96123171409347456239,3.4715924,-3.321955,-1.1665748,1.4839798,-9.216607,-3.00372891409347456241,4.6022544,-2.8892028,-1.228824,1.8341742,-9.156105,-2.99531581409347456262,5.5509567,-2.4307132,-1.4580688,2.3306003,-9.03993,-3.00305721409347456263,6.3584013,-1.5753847,-1.9524715,2.9524593,-8.844121,-3.03890011409347456270,7.1263413,-0.99419224,-2.2200236,3.68122,-8.528475,-3.14390131409347456291,7.8326306,-0.74639237,-2.7497406,4.487488,-8.084931,-3.26599981409347456292,7.5243773,-1.1210849,-2.653374,5.3035517,-7.508917,-3.41451331409347456306,6.431424,-2.3122003,-2.3529017,5.969264,-6.947184,-3.50355531409347456335,5.1289787,-3.9366663,-1.1558008,6.3666425,-6.583379,-3.5064851409347456336,3.7630866,-6.071097,1.435324,6.548246,-6.4833555,-3.355141409347456338,-0.47046062,-12.129624,13.067553,6.530299,-6.7422314,-2.84040521409347456342,-14.705786,-19.608511,18.25519,5.8197713,-7.866779,-0.64378251409347456372,-19.60911,-19.608511,12.662334,5.96661,-7.741,-0.80430561409347456373,-19.60911,-19.608511,13.55178,6.099907,-7.622278,-0.92867091409347456373,-15.895703,-17.451336,5.2181625,6.160587,-7.5495567,-1.10533261409347456391,-10.09156,-9.211691,3.3159695,6.1253324,-7.549103,-1.28908771409347456391,-8.204929,-7.006033,6.407482,-3.650533,-8.53349,3.16600041409347456407,-3.4859576,-6.1243677,6.1219735,-4.1214933,-8.253853,3.3252961409347456423,0.23523031,-6.6965823,3.0202854,-4.120772,-8.143648,3.58756451409347456424,2.926313,-6.184223,-0.664391,-3.8134267,-8.239892,3.70571761409347456438,7.607576,-4.571728,-5.5521536,-3.3288887,-8.508937,3.56186721409347456461,8.698134,-11.240178,-6.9503675,-2.4615974,-9.003388,3.00830861409347456462,6.5984197,-14.871584,-5.587468,-1.2644722,-9.511979,2.02329851409347456463,3.9857473,-13.008296,-3.845088,-0.3631921,-9.731166,1.15884271409347456470,2.0033484,-11.48319,-2.4139538,0.16720183,-9.785098,0.6279561409347456486,0.9367314,-12.509704,0.48123455,0.39764294,-9.793295,0.32193831409347456490,-0.7733272,-14.799159,2.4468741,0.46543673,-9.7899,0.334108051409347456528,-1.4389153,-15.20797,1.1282675,0.35859433,-9.787038,0.505664051409347456528,-1.3132197,-14.831481,0.8535329,0.21449667,-9.791618,0.498607131409347456529,0.20290859,-13.684658,0.41060558,0.07975246,-9.796053,0.44878481409347456531,2.2577322,-10.469246,-0.26994625,0.058346536,-9.798392,0.39816171409347456542,3.8007953,-7.006033,-0.001197101,0.22290194,-9.799057,0.31493341409347456561,4.2957964,-5.659893,0.092775315,0.49093416,-9.789199,0.31778351409347456563,3.7367504,-5.717354,-0.9068039,0.8464032,-9.764105,0.340939941409347456571,2.3475149,-7.0491285,-1.0666169,1.188051,-9.731115,0.25365211409347456598,2.3535004,-7.838018,-1.2635399,1.3744502,-9.7088,0.143050041409347456599,2.5605986,-8.874108,-1.5897499,1.5278381,-9.686889,0.0172054021409347456602,2.2110453,-9.758766,-1.769315,1.6622199,-9.66386,-0.131353771409347456626,1.4395138,-10.831368,-1.9967642,1.7296183,-9.648568,-0.28973291409347456627,0.50038815,-12.004527,-2.303222,1.7041321,-9.647327,-0.442016631409347456630,-0.14784196,-12.589311,-2.5474305,1.5818065,-9.659533,-0.601426241409347456642,-0.19033903,-12.091916,-2.8377275,1.4013704,-9.676402,-0.757497131409347456658,-0.095768064,-11.340137,-3.0238767,1.2322419,-9.685943,-0.91350371409347456676,-0.23223756,-10.569203,-2.9442697,1.0832021,-9.68869,-1.06129131409347456677,-0.38965634,-9.714474,-2.8526914,0.9406467,-9.6893835,-1.18382751409347456684,-0.6548142,-9.087193,-2.9340942,0.8079777,-9.68457,-1.31401461409347456690,-0.9020155,-8.850765,-3.1118636,0.6637358,-9.677541,-1.44050631409347456724,-1.0175357,-8.910022,-3.3662477,0.5188835,-9.66184,-1.59686831409347456728,-1.3132197,-8.713697,-3.457826,0.36302024,-9.636459,-1.78249011409347456730,-2.7042508,-9.26556,-4.960786,0.18134397,-9.60439,-1.97310571409347456756,-5.489306,-10.283096,-1.0630256,-0.14442016,-9.54006,-2.26644921409347456757,-4.43466,-8.563461,1.4718355,-0.69213265,-9.542654,-2.15153461409347456757,-3.6792896,-7.916428,0.7613561,-1.0934721,-9.554405,-1.92043031409347456780,-2.9179332,-8.670003,-0.60453594,-1.3536034,-9.551881,-1.76060451409347456781,-2.2134395,-9.51336,-1.1504139,-1.534664,-9.530654,-1.72680571409347456783,-1.4987702,-10.053851,-0.92895025,-1.5718127,-9.528157,-1.70706281409347456790,-1.0253168,-10.127473,-0.83617496,-1.5392902,-9.543492,-1.6500721409347456806,-0.80684596,-10.084976,-1.06123,-1.4720594,-9.565198,-1.58442661409347456822,-0.664391,-10.4010105,-1.1587936,-1.3915806,-9.583034,-1.54899121409347456823,-0.52492875,-10.788872,-1.0821792,-1.3024013,-9.5989895,-1.52760531409347456835,-0.40940848,-11.079767,-0.86969376,-1.2048796,-9.615244,-1.50523511409347456852,-0.4297592,-11.451467,-0.55365914,-1.1087214,-9.634358,-1.45610251409347456853,-0.545878,-11.886613,-0.14844051,-1.0185937,-9.653589,-1.39322781409347456870,-0.44711718,-12.284649,0.6183026,-0.9472525,-9.67423,-1.2970741409347456871,-0.7350199,-12.928689,1.0630256,-0.8752248,-9.70065,-1.14093351409347456887,-0.79248077,-13.208811,1.6358383,-0.8380548,-9.724026,-0.95465051409347456890,-0.92296475,-12.986749,2.183512,-0.8142758,-9.744989,-0.736570661409347456905,-1.3742718,-12.827534,3.0400376,-0.81246847,-9.7603855,-0.495150271409347456922,-1.4999673,-12.398374,7.417237,-0.8467355,-9.767682,-0.2141321409347456925,-1.0893618,-11.943475,13.946823,-0.9003601,-9.7563095,0.417333421409347456939,-1.246182,-12.568362,14.168885,-0.93022215,-9.646161,1.50221251409347456955,-2.5312698,-12.865841,5.920861,-0.9750185,-9.453989,2.41698531409347456956,-3.7840357,-12.089521,-3.1675289,-1.1412168,-9.382111,2.6161061409347456972,-3.7355533,-11.583148,-8.824429,-1.3933696,-9.446891,2.2327481409347456972,-3.4979286,-11.681909,-8.80767,-1.550397,-9.568499,1.48677561409347456986,-3.4243069,-13.026852,-5.3528366,-1.617256,-9.645636,0.718733971409347456990,-4.103063,-13.495517,-3.912724,-1.6787043,-9.658675,0.249704241409347457003,-6.1584854,-12.838906,2.6563668,-1.7699373,-9.644282,-0.159734641409347457024,-7.156269,-13.994109,5.7604494,-2.038169,-9.592478,0.0254307951409347457025,-7.233482,-15.227721,8.868123,-2.3430412,-9.512395,0.441478881409347457039,-6.2351,-16.123154,10.916962,-2.5852606,-9.401692,1.04641541409347457054,-4.373608,-16.110582,6.8641763,-2.7088518,-9.269566,1.70518571409347457055,-2.6964695,-14.247295,1.3796587,-2.7421255,-9.201316,1.99673411409347457074,-1.4927847,-12.3594675,1.2174516,-2.7090623,-9.23216,1.8969931409347457074,-1.3676877,-12.264298,1.5227122,-2.6501472,-9.251127,1.88779011409347457090,-1.8980033,-13.443442,-1.1025299,-2.5601683,-9.27594,1.89020091409347457091,-1.2785037,-14.785393,-5.6156,-2.4514232,-9.341866,1.70014151409347457106,0.2789245,-13.000515,-9.065644,-2.2944534,-9.459,1.19715291409347457122,0.919972,-11.306618,-8.421604,-2.1118517,-9.565285,0.464516041409347457124,0.045489833,-11.887212,-6.8282633,-1.9267619,-9.61349,-0.196927771409347457136,0.09696517,-13.7086,-5.403713,-1.7900454,-9.618539,-0.670720761409347457154,0.65421563,-16.514605,-3.354875,-1.638616,-9.621227,-0.9577521409347457154,1.2360066,-19.461866,0.8984242,-1.4309902,-9.644196,-1.05459381409347457172,2.7222073,-19.608511,4.6046486,-1.1979344,-9.698322,-0.823345241409347457173,5.4144874,-19.608511,3.5889084,-0.8885557,-9.7584305,-0.392291341409347457192,6.371569,-17.508797,-1.8100165,-0.4460057,-9.796053,-0.094166481409347457193,3.8133647,-12.665327,-6.903681,-0.004864099,-9.805057,-0.176684021409347457202,1.4030021,-11.312004,-9.069835,0.27609718,-9.785231,-0.585999551409347457226,0.2633622,-11.13244,-8.248025,0.38877282,-9.735161,-1.11619951409347457226,0.7757214,-10.179547,-5.641338,0.43624198,-9.665488,-1.59951261409347457243,2.3002293,-8.593389,-4.313753,0.4807816,-9.606552,-1.91139011409347457262,2.8514943,-6.211756,-4.88058,0.5918813,-9.555345,-2.12496331409347457262,1.9261353,-4.586692,-5.66947,0.7436462,-9.488138,-2.3648741409347457283,0.98102415,-4.781221,-3.6122518,0.84951556,-9.402167,-2.6547981409347457285,1.3210008,-5.2959743,-2.825158,0.886073,-9.353513,-2.81016971409347457288,1.1228806,-5.194819,-2.641403,0.94253147,-9.310511,-2.9319631409347457314,1.0779893,-4.847061,-0.95588505,0.97036356,-9.276544,-3.02894451409347457320,1.1264719,-4.731541,-0.16819267,1.0098087,-9.28376,-2.99373941409347457321,1.1911154,-4.1156325,-0.3513491,1.0513147,-9.3123255,-2.8888891409347457325,1.4664485,-3.288436,-1.6597804,1.1205298,-9.330226,-2.80387141409347457344,2.110489,-2.7970262,-1.1522095,1.237651,-9.29509,-2.87052441409347457345,2.9861681,-2.3624785,-1.2246342,1.4547583,-9.257127,-2.8913161409347457351,4.015076,-1.9710265,-1.8489223,1.7948254,-9.182987,-2.93627981409347457381,5.2121773,-1.4927847,-2.4941597,2.2718167,-9.033746,-3.06604811409347457382,6.2650275,-1.2060791,-2.8089972,2.9219456,-8.767711,-3.28022581409347457384,7.317279,-0.83497787,-3.3255463,3.7029798,-8.37566,-3.50808951409347457408,7.5566993,-0.8158242,-4.1102457,4.561341,-7.8222365,-3.7652571409347457409,7.814076,-0.7374141,-4.0641575,5.3166733,-7.1695795,-4.0620841409347457411,7.315483,-2.0266917,-2.9682117,5.985122,-6.482041,-4.28157141409347457423,6.6325374,-3.9372647,-1.412579,6.4589806,-6.0094905,-4.2822871409347457451,5.3845596,-6.805518,1.6244658,6.747598,-5.855096,-4.0445291409347457453,-18.23843,-19.608511,19.030312,6.817124,-6.181402,-3.38931681409347457453,-19.60911,-19.608511,12.439673,6.918159,-5.9603477,-3.575431409347457482,-19.60911,-19.608511,6.4404025,7.026635,-5.7214546,-3.74989751409347457483,-15.83944,-15.514427,3.3315318,7.0694838,-5.5641966,-3.90288781409347457484,-8.421604,-7.707534,4.9548006,7.0383024,-5.502429,-4.04425051409347457504,-8.117541,-7.1448965,7.7087307,-3.815809,-8.800289,2.04081271409347457505,-4.1521444,-7.402273,7.1712327,-4.2469134,-8.478778,2.49889021409347457527,-0.48123455,-6.6163764,1.340753,-4.228324,-8.349263,2.92941931409347457528,3.7894228,-5.084686,-3.2196028,-3.9764516,-8.480139,2.90610841409347457531,8.001422,-8.450335,-7.177218,-3.4471312,-8.815661,2.56355171409347457553,9.159617,-13.476363,-7.121553,-2.3489742,-9.371555,1.68126441409347457554,7.587225,-12.91193,-5.3761797,-1.0225813,-9.726009,0.727631571409347457574,5.325303,-10.636241,-2.6880898,-0.017923487,-9.806199,0.092321141409347457575,3.2028434,-11.456255,0.018555064,0.6130007,-9.785337,-0.204430681409347457591,1.134253,-13.623008,1.1552023,0.90546036,-9.762273,-0.220429641409347457592,0.48602295,-14.009671,0.46567222,0.9108347,-9.763734,-0.1013607761409347457603,0.8218097,-13.694235,0.11192893,0.8556068,-9.768917,-0.0811293051409347457626,1.9979613,-12.922105,0.011971008,0.84505486,-9.769764,-0.089477441409347457628,2.92751,-11.43351,-0.08020575,0.9246943,-9.762552,-0.0887964741409347457632,3.153762,-9.3661175,-0.36990416,1.0698766,-9.747752,-0.0841109451409347457675,3.0442274,-8.539519,-1.1246762,1.2472353,-9.7265,-0.100057881409347457676,2.8904,-8.528147,-1.7489643,1.4285944,-9.700318,-0.18250411409347457677,2.9191303,-8.080431,-1.839944,1.5939759,-9.670839,-0.32328681409347457678,2.7156234,-7.754221,-1.8321629,1.753589,-9.637105,-0.470697941409347457683,2.5240872,-7.8332295,-1.9087774,1.8901689,-9.603368,-0.61073011409347457710,2.5013423,-8.05589,-1.6059108,1.9968324,-9.571579,-0.75363111409347457712,2.179322,-8.455123,-1.2090719,2.091818,-9.542604,-0.85639411409347457713,1.7513585,-9.081207,-1.0552444,2.146568,-9.526184,-0.902473751409347457741,1.2138603,-10.04607,-1.2952632,2.146515,-9.524597,-0.919204531409347457744,0.6135142,-11.064803,-1.4891934,2.0746,-9.537631,-0.94869021409347457745,0.001197101,-11.52449,-1.7172412,1.9223727,-9.565198,-0.990887341409347457751,-0.32202014,-11.150395,-1.9818004,1.7257597,-9.598747,-1.0277141409347457778,-0.272939,-10.386047,-2.0207062,1.5135084,-9.628645,-1.08116791409347457779,-0.20231004,-9.774927,-1.9979613,1.3290789,-9.65025,-1.12986211409347457785,-0.44951138,-9.620501,-2.9646204,1.1726618,-9.665511,-1.17182371409347457807,0.11312603,-8.918402,-3.4751837,1.0090994,-9.666898,-1.30505741409347457808,1.0163386,-8.709507,-4.1491513,0.91600466,-9.6469555,-1.50583831409347457812,-1.1671734,-10.048465,-8.620323,0.9149386,-9.601641,-1.77249371409347457843,-2.6671407,-10.923545,-9.757569,0.6593599,-9.48259,-2.41166781409347457844,-4.860828,-10.837354,-3.181894,0.28283262,-9.317374,-3.04580281409347457847,-5.015254,-9.738416,-0.024540568,-0.2560634,-9.30034,-3.09975811409347457852,-4.4298716,-9.693524,0.5979519,-0.75246733,-9.323006,-2.94716361409347457875,-2.9317,-9.846154,0.5518635,-1.0987948,-9.366212,-2.69018441409347457877,-2.078167,-10.369886,0.94211835,-1.2515091,-9.42282,-2.411341409347457885,-1.4957775,-10.96305,0.6745663,-1.3028946,-9.48899,-2.10521821409347457908,-1.1480197,-10.465654,0.5374983,-1.2917358,-9.54362,-1.84962491409347457909,-0.96306765,-10.172364,0.6793547,-1.2589383,-9.58811,-1.62900641409347457912,-0.6973112,-9.883265,0.9672575,-1.2222233,-9.6252165,-1.4253941409347457943,-0.43993455,-9.457097,1.287482,-1.1732202,-9.659054,-1.22337341409347457945,-0.3238158,-9.537901,1.7070658,-1.1111218,-9.689937,-1.02027361409347457947,-0.2896984,-10.170568,2.0871453,-1.0436513,-9.718158,-0.799130861409347457952,-0.44592008,-10.86369,2.3768437,-0.9696204,-9.7422495,-0.564617161409347457972,-0.7565677,-11.187506,2.7216089,-0.90867376,-9.75915,-0.32199031409347457973,-1.0019734,-11.098921,3.05141,-0.88486594,-9.766407,-0.0684872641409347457994,-1.2635399,-11.278485,3.6230257,-0.8872066,-9.76449,0.194945651409347457995,-1.6280571,-11.735778,4.4322658,-0.9187884,-9.751253,0.489172341409347458007,-1.922544,-12.339716,5.429451,-0.98425657,-9.721667,0.8311321409347458025,-1.6328455,-12.32116,5.832874,-1.069569,-9.672552,1.21167391409347458026,-1.5053543,-11.7387705,3.9193082,-1.1230676,-9.614887,1.56940071409347458032,-1.7998412,-11.425729,-0.38307226,-1.1643124,-9.580769,1.73885541409347458055,-2.042254,-12.042236,-4.2383356,-1.2064713,-9.609859,1.53798841409347458056,-2.6868927,-13.472772,-6.156091,-1.2419655,-9.666622,1.08826671409347458066,-3.1465795,-14.535797,-4.2784386,-1.2955195,-9.705739,0.53909111409347458072,-3.8001966,-15.096041,-3.3063924,-1.3706369,-9.708396,0.196989731409347458092,-5.9956794,-14.541782,-2.944868,-1.4846275,-9.693391,-0.066836571409347458094,-6.6469026,-14.160506,-1.30484,-1.7635586,-9.642317,-0.29324821409347458103,-6.26802,-14.681245,0.32561144,-2.0573554,-9.5808115,-0.38176411409347458132,-6.0758853,-15.823877,4.3873744,-2.2842295,-9.530622,-0.34629181409347458133,-5.4863133,-17.408241,9.341577,-2.4430902,-9.497451,-0.0107598791409347458135,-4.3999443,-17.750013,12.989142,-2.5273924,-9.452213,0.662049951409347458166,-2.7850552,-16.212934,10.843938,-2.57813,-9.436813,0.68569971409347458167,-1.2779051,-13.9198885,3.2722752,-2.477357,-9.265989,2.04317161409347458168,-0.88645315,-12.388797,-1.4077905,-2.4172156,-9.262726,2.12823341409347458199,-1.3204023,-12.40795,-1.8513165,-2.3449564,-9.3210745,1.94656751409347458200,-0.7679402,-13.470377,-2.834735,-2.253015,-9.387404,1.72363031409347458201,-0.23523031,-13.088502,-5.595848,-2.0982828,-9.473721,1.41993461409347458204,-0.13946225,-11.492168,-7.4962454,-1.9549662,-9.5680065,0.895385861409347458225,-0.36750996,-11.45027,-7.2909427,-1.8445714,-9.627399,0.28480771409347458225,-0.4285621,-12.458228,-6.985682,-1.7472032,-9.646243,-0.260116341409347458232,0.018555064,-14.387955,-5.8987145,-1.6459894,-9.640557,-0.721623841409347458255,0.7212533,-18.206108,-2.6880898,-1.5093559,-9.633903,-1.03930451409347458256,2.4797945,-19.608511,2.971803,-1.3121687,-9.660219,-1.06243351409347458266,4.7375264,-19.608511,5.5623293,-1.0007795,-9.731063,-0.68938511409347458301,4.0066967,-17.541718,0.10235212,-0.57480717,-9.787519,-0.210810751409347458302,1.5065514,-13.196839,-5.197213,-0.24349838,-9.802518,-0.147453831409347458303,0.48841715,-11.529877,-7.6811976,-0.08784195,-9.795398,-0.461373061409347458325,-0.11192893,-10.92594,-9.141661,-0.007971417,-9.7599325,-0.956046941409347458325,2.7862523,-9.179369,-5.5084596,1.83E-05,-9.685467,-1.53692661409347458326,3.9534256,-7.771579,-4.122815,0.17819296,-9.628747,-1.85090551409347458332,3.1465795,-6.239888,-3.2549171,0.42505103,-9.57862,-2.05907081409347458352,1.6352397,-5.2049947,-3.9594111,0.61334974,-9.536811,-2.20078561409347458352,2.5486276,-4.988918,-4.9613843,0.71311235,-9.484101,-2.3903341409347458372,3.317765,-5.401319,-3.5673606,0.88667107,-9.40024,-2.64947061409347458372,2.6270378,-5.5527525,-2.630629,1.1299387,-9.338189,-2.77342251409347458384,1.3371617,-5.4288526,-1.7435774,1.3181436,-9.295124,-2.83435731409347458401,1.2186487,-4.63278,-0.2669535,1.3608572,-9.279912,-2.8638641409347458403,1.8471266,-3.750517,-0.40880993,1.3833659,-9.300671,-2.78464251409347458419,2.8880057,-2.8353333,-2.1404164,1.4903848,-9.300007,-2.73112371409347458434,3.9564183,-2.0799627,-2.5671828,1.7366207,-9.21488,-2.87063311409347458435,4.818331,-1.6813282,-1.7525556,2.1420767,-9.064235,-3.0694551409347458452,5.9118824,-1.3706805,-1.9698294,2.6937413,-8.88082,-3.16941861409347458453,6.7360864,-1.2180501,-2.2517467,3.3829567,-8.597403,-3.28796031409347458467,7.373543,-0.85413146,-2.6246436,4.1390142,-8.206749,-3.41880541409347458485,7.620744,-0.60094464,-2.8060043,4.9246316,-7.696486,-3.56125161409347458486,7.6973586,-0.4201824,-2.7156234,5.6640425,-7.1064143,-3.68617871409347458499,6.6445084,-1.4030021,-1.9716251,6.3126717,-6.4972587,-3.7558211409347458504,5.3636103,-2.9592333,-1.4041992,6.7497745,-6.060606,-3.72558471409347458519,2.6527755,-5.697003,-0.46686932,6.9598203,-5.8890533,-3.61252711409347458541,2.3918076,-9.483433,1.9758149,6.793213,-6.200812,-3.40184621409347458542,-10.153211,-19.080591,19.448698,6.414354,-6.8827815,-2.76654671409347458546,-19.52711,-19.608511,15.319898,6.538155,-6.676324,-2.9748331409347458552,-19.60911,-19.608511,12.941258,6.6464634,-6.4694405,-3.18452741409347458575,-19.606716,-18.966866,6.326678,6.643562,-6.369861,-3.38501431409347458576,-15.685613,-8.440758,2.4809916,6.5808353,-6.3295465,-3.57768561409347458586,-12.252926,-4.584896,8.44375,-4.1569676,-8.448037,2.74238681409347458608,-6.7330937,-6.0291986,6.725911,-4.912984,-7.90696,3.08431221409347458609,-2.078167,-8.59279,1.8818425,-5.0565796,-7.7110987,3.3377171409347458612,3.9707835,-10.205883,-4.1383777,-4.7799335,-7.8901653,3.32684971409347458636,9.580399,-14.165893,-6.7983356,-4.096043,-8.438039,2.86222081409347458636,8.750807,-16.922815,-5.2540755,-2.8149605,-9.165521,2.05903031409347458650,5.8562174,-13.0280485,-3.1651347,-1.60783,-9.580321,1.34265971409347458652,3.8235402,-10.746973,-2.4899697,-0.83930767,-9.725533,0.9380771409347458672,3.1280246,-10.445304,-1.3868413,-0.36359146,-9.779415,0.633421241409347458673,1.9865888,-10.780492,-0.81163436,-0.029071342,-9.79656,0.443789481409347458686,0.93373865,-11.684303,-1.2198458,0.16691753,-9.800116,0.31668521409347458706,0.4189853,-12.343307,0.37110126,0.26279175,-9.802241,0.131952321409347458707,2.4522612,-10.527305,0.9816227,0.29407975,-9.802043,0.0621352641409347458712,4.532822,-7.85358,1.252766,0.46703687,-9.795344,0.0591512771409347458744,4.7506948,-7.0706763,0.7212533,0.8269572,-9.770481,0.155666371409347458746,4.390966,-7.3364325,-0.45609543,1.1848565,-9.732179,0.22623161409347458748,3.7163997,-7.776367,-1.4891934,1.5407442,-9.683002,0.189620661409347458752,3.8504748,-7.690176,-1.3401544,1.8206466,-9.636033,0.0502881741409347458773,4.1958385,-7.607576,-1.1133038,2.0824945,-9.582807,-0.0586766451409347458774,4.0384197,-8.064868,-0.40701428,2.3423748,-9.5218315,-0.135695011409347458789,3.2603042,-8.98903,-0.11133038,2.548289,-9.468753,-0.138972421409347458806,2.3690627,-10.092757,-0.43514615,2.6529467,-9.440087,-0.130429631409347458807,1.2270284,-11.898584,-1.2575544,2.6336606,-9.445316,-0.142215341409347458812,0.08259996,-13.736134,-2.5731683,2.4878695,-9.482819,-0.238861371409347458843,-0.38965634,-13.96478,-3.0855274,2.2134876,-9.5436735,-0.434949761409347458845,-0.09935937,-12.308591,-2.8778305,1.9198905,-9.596285,-0.629058361409347458847,-0.40641573,-10.755951,-2.6725276,1.6961031,-9.628841,-0.760935841409347458854,-1.0749966,-10.121488,-2.8975825,1.4784939,-9.657204,-0.85022691409347458872,-1.513734,-9.906608,-4.051588,1.2282629,-9.680922,-0.970309851409347458873,-0.9600749,-9.193734,-6.7947445,0.958013,-9.683174,-1.22013511409347458884,0.018555064,-8.859145,-7.597999,0.760598,-9.626607,-1.70890881409347458901,-1.062427,-9.796474,-6.754043,0.6452274,-9.517886,-2.27243111409347458919,-4.51307,-11.464635,-6.5032506,0.44253626,-9.40169,-2.75369261409347458920,-4.7896004,-10.621277,-3.5978866,-0.007130437,-9.288378,-3.14585071409347458925,-3.4967315,-8.810662,-1.0259154,-0.3968927,-9.244289,-3.24899721409347458933,-2.3720553,-8.290522,-0.11731588,-0.6928503,-9.267325,-3.13162041409347458958,-1.6795325,-9.484032,0.092176765,-0.9022841,-9.319908,-2.91471961409347458959,-1.6885108,-10.35193,0.45130703,-0.9950781,-9.38997,-2.6473951409347458966,-2.2613235,-10.256162,0.3369839,-1.0499723,-9.466546,-2.33504581409347458988,-2.4390929,-10.146626,-0.24839842,-1.1407477,-9.517437,-2.07061461409347458991,-1.6831238,-9.767744,-0.41718966,-1.2409692,-9.53957,-1.90446171409347458994,-0.9475053,-9.1668,-0.27353755,-1.2791742,-9.556791,-1.78936831409347459020,-0.6440403,-8.89446,-0.05925649,-1.2654054,-9.577115,-1.68759941409347459021,-0.56982,-9.226655,0.12150574,-1.2212915,-9.600488,-1.58412441409347459026,-0.51954174,-10.108319,0.45070848,-1.1609836,-9.627713,-1.45933781409347459032,-0.770933,-11.1970825,0.6877344,-1.0872014,-9.656249,-1.32108961409347459049,-1.0205284,-11.984177,1.1384429,-1.0307728,-9.682213,-1.16732121409347459052,-1.2449849,-12.392388,1.7567455,-0.9970865,-9.706152,-0.98325881409347459067,-1.448492,-12.577939,2.5983074,-0.9895766,-9.727241,-0.75625091409347459093,-1.3461399,-12.873024,3.839701,-1.0087813,-9.7432375,-0.471228121409347459094,-1.2300211,-13.166314,5.7400985,-1.0243708,-9.752547,-0.094205641409347459095,-0.5410896,-12.944251,8.608353,-1.0348142,-9.743147,0.413105581409347459122,-0.11192893,-12.65994,9.486425,-0.9888579,-9.696146,1.0850361409347459123,-0.25438392,-12.823344,8.037335,-0.92670745,-9.604044,1.75326791409347459124,-0.9283517,-12.770672,4.859631,-0.90377665,-9.512495,2.20590831409347459132,-2.2403743,-12.319365,-1.4676456,-0.94980013,-9.462364,2.39415051409347459150,-3.5535939,-11.996147,-7.1927805,-1.0586165,-9.512376,2.13645241409347459172,-4.9039235,-12.374432,-8.287529,-1.1971502,-9.624777,1.44944451409347459173,-5.397129,-13.042414,-4.2024226,-1.3979625,-9.684232,0.65707421409347459174,-5.0930657,-13.859435,-0.84096336,-1.6428173,-9.664387,0.266857621409347459184,-8.096592,-15.292963,2.835932,-1.8291818,-9.633615,0.134117961409347459208,-8.700529,-16.953941,8.300697,-2.2001493,-9.550264,0.349541409347459209,-7.7368627,-17.905636,13.724761,-2.5063016,-9.437545,0.906401161409347459213,-4.4526167,-16.485874,8.553286,-2.4817646,-9.441796,0.92936991409347459232,-1.6525977,-13.025655,0.4261679,-2.700835,-9.198008,2.06701371409347459233,-1.0199299,-12.273276,-2.183512,-2.67642,-9.225511,1.97410791409347459253,-0.7266402,-13.3464775,-3.4332852,-2.6202188,-9.283518,1.76666831409347459256,-0.350152,-14.627974,-4.586692,-2.4629843,-9.382684,1.4385131409347459267,0.10354923,-14.65431,-4.471172,-2.2621562,-9.485513,1.03830731409347459296,0.39683893,-12.337321,-5.01705,-2.0505712,-9.568164,0.64482471409347459297,-0.11192893,-11.633426,-5.4617724,-1.8808079,-9.621798,0.232343361409347459298,-0.21667525,-12.835316,-5.081693,-1.7627348,-9.645465,-0.1678181409347459321,0.29209262,-14.343064,-4.051588,-1.6352395,-9.656742,-0.49368371409347459322,0.5895722,-17.476475,-2.190096,-1.4691242,-9.670182,-0.706836041409347459326,2.5486276,-19.608511,0.24720132,-1.2808692,-9.694101,-0.744406161409347459332,5.5659204,-19.608511,1.9500773,-0.9783649,-9.739145,-0.601840141409347459353,8.076241,-19.585768,1.4975731,-0.5257962,-9.785679,-0.366632581409347459374,6.256049,-15.848418,-3.3387144,0.023401918,-9.8048525,-0.186371881409347459375,3.3560722,-12.446258,-6.4828997,0.4177648,-9.7915745,-0.34776891409347459389,1.9626468,-10.885837,-6.7965403,0.6426859,-9.759305,-0.71646371409347459405,1.4443022,-10.156802,-5.3438582,0.7729624,-9.711712,-1.12051331409347459406,1.5903485,-9.583391,-4.222773,0.82757616,-9.664757,-1.44152221409347459407,2.5246856,-8.149264,-4.0779243,0.8745365,-9.627655,-1.64736451409347459412,3.1675289,-6.403891,-5.4881086,0.97603375,-9.578981,-1.86034041409347459437,1.8926164,-5.5856724,-7.1790137,1.1381617,-9.497939,-2.1596671409347459438,0.010175358,-5.495291,-5.0930657,1.2182138,-9.383669,-2.57548071409347459447,0.207697,-5.265448,-2.2810757,1.1562644,-9.314824,-2.84033561409347459470,0.109534726,-5.3115363,-3.4662056,1.0993515,-9.298807,-2.9144561409347459471,0.3812766,-5.466561,-2.1625626,1.0173942,-9.251719,-3.0888511409347459473,0.62488663,-5.468955,-1.1695676,0.9624932,-9.244104,-3.12898851409347459486,0.7990648,-5.0745106,-2.0135236,0.9593793,-9.26162,-3.07772641409347459507,1.2294226,-4.2664676,-2.379238,0.96740806,-9.245921,-3.1220911409347459508,2.005144,-3.4883518,-2.8927941,1.0395962,-9.205545,-3.21676141409347459513,2.8335378,-2.815581,-2.8221653,1.2140718,-9.123852,-3.38404681409347459549,3.6697125,-2.1045034,-2.1021092,1.4970134,-9.010707,-3.56881951409347459550,4.5537715,-1.3503298,-2.0129251,1.9106203,-8.87872,-3.6997661409347459552,5.2235494,-0.8242039,-2.3008277,2.4692266,-8.678912,-3.84054731409347459575,5.662287,-0.74399817,-2.4875755,3.1254792,-8.386962,-4.0075721409347459576,5.9747305,-0.96426475,-2.6114755,3.8294277,-8.003203,-4.17787271409347459577,6.301539,-1.2132617,-2.9191303,4.524246,-7.560019,-4.30670451409347459603,6.995259,-1.0815806,-3.1717186,5.167636,-7.0685744,-4.41601661409347459605,7.3466077,-1.2509704,-2.7569232,5.802692,-6.4988356,-4.50158741409347459606,7.5243773,-2.5731683,-1.4921862,6.3839583,-5.9495883,-4.47413351409347459614,-0.7332243,-5.5587378,17.49144,6.863239,-5.599287,-4.20883941409347459636,-17.70153,-19.608511,19.565416,6.9707937,-6.7855997,-1.23857151409347459636,-19.60911,-19.608511,17.212515,7.134699,-6.5764074,-1.42032981409347459646,-19.600132,-19.608511,9.958083,7.3159175,-6.3315387,-1.59979841409347459673,-13.589489,-16.174627,3.4769795,7.4298916,-6.1341166,-1.82749371409347459674,-9.478644,-7.8667483,5.7227407,-3.1275058,-8.611454,3.49742631409347459675,-6.0489507,-5.039196,8.133701,-3.8705556,-8.296871,3.51441481409347459714,-1.7298107,-5.45878,7.092224,-4.2388477,-7.9626203,3.84697871409347459715,1.7950528,-8.549694,3.4566288,-4.074934,-7.8413057,4.2519671409347459716,6.853402,-14.882358,-2.132635,-3.5287607,-8.057335,4.33561851409347459719,9.589975,-17.42919,-5.0864816,-2.4924526,-8.708906,3.75673131409347459738,6.9838862,-14.584878,-4.5795093,-1.2477441,-9.303252,2.83954831409347459739,2.2062569,-12.252926,-3.3315318,-0.4282488,-9.573755,2.0809131409347459747,-0.7787141,-11.165958,-1.9991584,-0.12430414,-9.680178,1.56495981409347459772,-0.46806642,-11.083358,-2.9233203,-0.12705138,-9.726234,1.24684491409347459773,0.41599256,-10.229227,-5.2355204,-0.14596316,-9.768044,0.856967571409347459774,0.98461545,-9.309255,-3.86903,-0.096826635,-9.8017025,0.296083151409347459807,1.0420763,-8.963891,-1.590947,0.0135593,-9.806403,-0.068414781409347459808,1.5275006,-8.870518,-0.5859809,0.13167232,-9.803839,-0.19438511409347459809,2.947861,-8.133103,-0.2669535,0.28530586,-9.798942,-0.26412441409347459814,3.4835634,-7.848193,-0.741604,0.5634998,-9.784973,-0.327351541409347459835,3.3249476,-8.1079645,-1.6663644,0.86080116,-9.76038,-0.405434341409347459836,3.0148985,-8.251018,-2.087744,1.127433,-9.72642,-0.54408411409347459845,3.0561984,-7.8745294,-1.7717092,1.3551751,-9.686634,-0.70925011409347459871,3.4243069,-7.4591355,-1.3509283,1.5694343,-9.644969,-0.82571551409347459874,3.6020765,-7.6734166,-1.1180922,1.8046544,-9.597856,-0.891504651409347459875,3.3423057,-8.303091,-1.1204864,2.032042,-9.5494375,-0.921657741409347459900,2.9879637,-9.146449,-1.1318588,2.209826,-9.507435,-0.946438551409347459901,2.8670566,-10.01734,-1.1647792,2.3297195,-9.476892,-0.96504511409347459921,2.9430726,-10.986393,-1.5466543,2.4070423,-9.456417,-0.97607381409347459921,3.0101101,-11.905168,-2.1906946,2.4545705,-9.4405155,-1.01102651409347459927,3.2399535,-12.3516865,-3.6876693,2.4680054,-9.427112,-1.0994951409347459934,2.9658175,-12.396578,-5.6898203,2.4939146,-9.396515,-1.28696811409347459953,2.0691888,-12.042236,-6.4541693,2.4708056,-9.350643,-1.622041409347459955,1.6035166,-11.191696,-6.7612257,2.3599544,-9.310004,-1.98112071409347459965,0.7128736,-10.712257,-5.379771,2.2086565,-9.259382,-2.35714171409347459987,-0.26635495,-9.84795,-6.0423665,1.9858698,-9.238943,-2.62081741409347459988,-1.9865888,-9.255983,-4.598663,1.6863749,-9.196348,-2.95866511409347459994,-3.9378633,-9.690532,-2.7754784,1.2732731,-9.184692,-3.19227341409347460022,-5.4204726,-10.542868,-0.789488,0.7865127,-9.239609,-3.19083791409347460023,-5.6509147,-10.362105,0.010773907,0.2184636,-9.3216095,-3.0381351409347460025,-4.836886,-9.520543,0.19632454,-0.2771382,-9.399661,-2.78208231409347460034,-3.852869,-9.7402115,0.5626374,-0.6783841,-9.453843,-2.5169561409347460051,-3.2148144,-10.389638,0.87448215,-0.96885675,-9.502228,-2.2224671409347460053,-2.5420437,-10.891822,0.87687635,-1.1779814,-9.544363,-1.92038941409347460066,-1.929128,-10.746374,0.95947635,-1.3029171,-9.577946,-1.65400351409347460087,-1.46585,-10.632051,1.376666,-1.3615494,-9.607363,-1.41957511409347460088,-0.88286185,-11.088745,2.2720973,-1.3683751,-9.637773,-1.18797351409347460094,-0.25677812,-11.384429,2.9741971,-1.320245,-9.674196,-0.91501411409347460129,0.6039374,-11.201273,3.7247794,-1.2126555,-9.711708,-0.61851941409347460131,0.7739257,-11.514315,4.793192,-1.0446798,-9.746247,-0.299493251409347460134,0.6895301,-11.954249,5.9023056,-0.8852339,-9.766274,0.081334471409347460157,0.89543146,-11.751939,7.6883802,-0.7510183,-9.763387,0.531622351409347460158,1.1180922,-11.434109,9.878476,-0.6196347,-9.722743,1.1201221409347460159,0.08798691,-11.711238,9.537302,-0.5124214,-9.621034,1.82852131409347460189,-1.5436616,-11.910555,6.56131,-0.50090134,-9.484787,2.4409661409347460190,-2.9472623,-11.12406,1.163582,-0.6400722,-9.393018,2.74443031409347460192,-4.1216183,-9.545084,-7.2424603,-0.86431295,-9.4039345,2.6437411409347460195,-3.5673606,-9.44333,-10.4644575,-1.1209619,-9.550168,1.92565071409347460230,-2.4881742,-10.893618,-6.8252707,-1.2612665,-9.67902,0.94665751409347460231,-2.0937295,-12.788629,-3.9486372,-1.2917376,-9.717126,0.281536131409347460232,-2.207454,-14.394539,-3.0382419,-1.2943542,-9.720618,-0.067716861409347460260,-4.152743,-14.883554,-3.003526,-1.3196926,-9.71238,-0.31374621409347460262,-4.537012,-14.198215,-1.2779051,-1.4979514,-9.677208,-0.527446871409347460263,-3.080739,-13.730747,1.3515269,-1.6954873,-9.641391,-0.582517561409347460269,-1.5298948,-13.405734,3.3207579,-1.7482842,-9.638521,-0.461323981409347460296,-1.2749124,-13.870808,3.7960067,-1.6796839,-9.660099,-0.177604051409347460301,-2.296638,-15.06312,5.3438582,-1.600764,-9.673877,0.15505731409347460302,-4.2634745,-15.92204,8.121731,-1.5947582,-9.658869,0.577398361409347460329,-5.3354783,-16.176424,9.306861,-1.7165976,-9.590964,1.11225021409347460330,-4.787805,-15.756242,4.932654,-1.8952115,-9.477249,1.66142491409347460331,-3.7828386,-13.557766,0.2896984,-2.058582,-9.409682,1.8413381409347460344,-2.819771,-12.047025,-0.23104046,-2.1955204,-9.397316,1.74370221409347460347,-2.3702598,-12.554595,-1.2060791,-2.261102,-9.40076,1.63814571409347460362,-1.632247,-13.8241205,-3.5422213,-2.2557366,-9.432915,1.44987621409347460383,-0.61650693,-13.868413,-5.553351,-2.1773484,-9.500147,1.08478781409347460385,0.036511578,-12.541427,-6.9437833,-2.0517807,-9.570301,0.60821261409347460386,0.40940848,-11.603498,-6.8228765,-1.8947476,-9.621715,0.053797061409347460394,0.22266077,-13.038224,-5.907693,-1.7407066,-9.640791,-0.442117751409347460417,0.05626374,-16.394896,-4.3197384,-1.5935444,-9.643538,-0.79572371409347460418,0.7793127,-19.55584,-1.0199299,-1.445857,-9.651034,-0.968188051409347460434,2.866458,-19.608511,4.2060137,-1.2415859,-9.688643,-0.87123161409347460450,5.741296,-19.608511,4.7979803,-0.92353874,-9.753034,-0.442485421409347460451,6.5487404,-17.442358,-1.4670471,-0.46215868,-9.795694,-0.03490941409347460472,4.307169,-12.6539545,-5.288193,-0.02140373,-9.806167,-0.0950128661409347460472,2.171541,-11.015123,-7.33344,0.26970133,-9.79498,-0.395032171409347460475,2.1332338,-9.81922,-5.93762,0.44094285,-9.760669,-0.839807751409347460494,2.7605145,-9.291897,-6.1943984,0.58327836,-9.715129,-1.20268831409347460495,4.350863,-9.014768,-3.7217865,0.7355831,-9.651456,-1.57439981409347460514,3.5691562,-6.9677253,-2.1146786,0.9868482,-9.600449,-1.74008021409347460516,3.2734723,-4.3394904,-4.361637,1.1851478,-9.564135,-1.81470261409347460529,3.110068,-3.503914,-6.8504095,1.3949934,-9.477783,-2.09666251409347460546,2.6916811,-4.6058455,-6.899491,1.612403,-9.329983,-2.55381941409347460547,2.5157075,-4.3927617,-4.4807487,1.7766395,-9.178685,-2.96068531409347460566,1.7866731,-4.0695443,-0.91578215,1.9381124,-9.066447,-3.19587831409347460567,0.4878186,-4.061165,0.32920274,1.9980826,-9.049521,-3.20689941409347460579,0.57520694,-3.3291376,0.41359833,1.9127983,-9.095994,-3.12641881409347460595,1.541866,-2.754529,-0.6254852,1.8801702,-9.140049,-3.01576881409347460596,2.4756045,-2.767697,-2.171541,1.9831358,-9.126442,-2.9909221409347460611,3.7205894,-2.6503813,-2.1499932,2.205636,-9.033153,-3.1157281409347460614,4.4927197,-2.408567,-2.3852234,2.5861135,-8.891114,-3.2296331409347460626,5.139154,-1.9686323,-3.1232362,3.0751438,-8.6832075,-3.3638991409347460644,5.73112,-1.3688848,-2.7210102,3.6241863,-8.370155,-3.60224651409347460647,6.0082493,-0.88286185,-2.6952724,4.2518473,-7.9871025,-3.7813231409347460660,5.9920883,-1.246182,-2.8634653,4.8970284,-7.5266733,-3.94191581409347460682,5.54557,-2.1416135,-2.5683799,5.451162,-7.0581837,-4.07888361409347460683,4.462792,-3.7882257,-1.5765818,5.851989,-6.7015533,-4.1247761409347460686,3.7134068,-5.9370217,0.8948329,6.016911,-6.6338587,-3.99487881409347460694,1.4209588,-11.3323555,10.47164,6.0473666,-6.8844323,-3.493471409347460723,-12.408549,-19.582775,18.388067,5.6370583,-7.878373,-1.5248541409347460724,-19.589357,-19.608511,13.556568,5.7862034,-7.7229037,-1.7455561409347460727,-19.60911,-19.608511,15.895703,5.9312925,-7.5661626,-1.93478041409347460746,-18.474258,-19.08478,6.4098763,6.0024104,-7.4572606,-2.12855171409347460747,-13.680469,-11.440094,4.283227,5.9674788,-7.404091,-2.39562441409347460772,-11.089344,-7.2364745,8.715493,-3.9506166,-8.405191,3.14893341409347460773,-6.163274,-7.2783732,8.723274,-4.5164704,-7.9935684,3.44597651409347460774,-1.9524715,-8.447342,3.8486793,-4.636237,-7.7818465,3.75746541409347460803,3.6655228,-9.215881,-2.7647045,-4.3988442,-7.8529744,3.89247231409347460803,8.445546,-16.524181,-4.619014,-3.8159146,-8.288308,3.59348461409347460805,9.3661175,-18.876484,-5.0332108,-2.6904392,-8.97492,2.89529941409347460815,7.303512,-13.544598,-3.8385038,-1.5364579,-9.45176,2.11516381409347460828,5.415684,-10.2657385,-3.3327289,-0.7398168,-9.648447,1.59076061409347460842,3.25372,-10.271724,-1.9572599,-0.19906777,-9.734017,1.17459321409347460846,2.0506337,-9.92636,-2.1140802,0.123381175,-9.765584,0.88800921409347460861,1.7477672,-9.859921,-2.5671828,0.31780154,-9.782798,0.6051971409347460876,1.7322049,-9.888652,-2.172738,0.4663369,-9.790495,0.314825831409347460877,1.638831,-9.710882,-1.6496049,0.5908129,-9.788401,0.092419341409347460890,2.2056582,-9.115923,-1.4879963,0.6894378,-9.782006,-0.086173141409347460894,3.108871,-8.693346,-1.5993267,0.8300624,-9.768292,-0.248630481409347460906,3.478775,-8.711303,-2.1051018,1.0493588,-9.7426815,-0.386516871409347460931,3.3770216,-8.84478,-3.031658,1.2818338,-9.706216,-0.56271631409347460932,3.1974564,-8.160038,-1.9027919,1.5007205,-9.657232,-0.81001821409347460950,3.4278982,-8.414422,-0.9008184,1.7064828,-9.6116495,-0.935133931409347460951,3.6008794,-8.809465,-0.53450555,1.9158708,-9.571465,-0.9417491409347460955,3.177704,-9.25359,-0.44651863,2.1151087,-9.53297,-0.90510181409347460985,2.7234044,-9.835979,-0.6266823,2.2483082,-9.506953,-0.85634861409347460985,2.4785974,-10.5680065,-1.0121487,2.3202305,-9.49307,-0.81765961409347460987,2.4534583,-11.129447,-1.3389573,2.335971,-9.488989,-0.820192341409347460994,2.3690627,-11.614871,-1.7483658,2.344732,-9.484906,-0.842126551409347461010,1.875857,-11.898584,-2.3540988,2.3286793,-9.483562,-0.89983171409347461029,1.1887212,-12.074557,-2.854487,2.2649417,-9.4880705,-1.00844111409347461030,0.55006784,-12.264298,-3.2333694,2.1399724,-9.500783,-1.15153681409347461043,0.3513491,-11.495161,-3.8815994,1.9681762,-9.51724,-1.31104111409347461046,0.22505496,-10.396222,-4.7081976,1.7949488,-9.520867,-1.51711851409347461061,0.54527944,-9.116522,-6.5457473,1.6345323,-9.502572,-1.78880361409347461079,-1.1971009,-9.367314,-4.847061,1.5126699,-9.434401,-2.2077791409347461082,-2.5169046,-10.068815,-2.5019407,1.2384049,-9.412433,-2.4582291409347461106,-3.1399956,-10.055647,-2.0530279,0.8740009,-9.440364,-2.50720211409347461106,-4.2239704,-9.802461,-2.0883424,0.4959965,-9.462256,-2.52785781409347461107,-3.9558198,-9.215881,-1.459266,0.06328151,-9.4762745,-2.5232051409347461137,-3.9019501,-9.051279,-1.1839328,-0.30188364,-9.490124,-2.45291691409347461138,-4.0803185,-9.764751,-1.347337,-0.63809216,-9.500278,-2.34690931409347461138,-4.085107,-10.570999,-1.3784616,-0.9556641,-9.498009,-2.24608851409347461165,-4.0078936,-10.621876,-0.8206126,-1.2437109,-9.492513,-2.12504221409347461166,-3.3734303,-10.168773,-0.23822308,-1.5005884,-9.487626,-1.9757431409347461166,-2.4313118,-9.656414,0.25498247,-1.684301,-9.487491,-1.82237631409347461175,-1.9710265,-9.440936,0.6793547,-1.7702173,-9.499481,-1.67228671409347461196,-2.030283,-9.870695,1.1749545,-1.7987993,-9.520401,-1.51547241409347461197,-1.8531121,-10.546458,1.8088194,-1.8102869,-9.545265,-1.33460621409347461212,-1.4269443,-11.28088,2.606687,-1.7925962,-9.580014,-1.08642571409347461229,-1.0899603,-11.855488,3.4243069,-1.7334839,-9.618004,-0.81203421409347461230,-0.7673417,-12.031462,4.613028,-1.6527281,-9.653855,-0.491885131409347461248,-0.10474633,-11.960235,7.2083426,-1.5535464,-9.682417,-0.0875403361409347461249,0.86011696,-12.156559,10.964846,-1.4102322,-9.690328,0.5283851409347461259,1.7459716,-12.72997,12.873024,-1.2038621,-9.629152,1.41439011409347461282,1.8273745,-12.821548,10.712257,-0.9584768,-9.476114,2.33558921409347461282,0.6877344,-12.304999,4.7417164,-0.7722227,-9.314574,2.96862841409347461286,-0.7308301,-11.223419,-2.2164323,-0.71250063,-9.288184,3.06469751409347461295,-2.1021092,-10.62427,-8.750209,-0.7224501,-9.383122,2.75779991409347461310,-3.277662,-11.532271,-9.787497,-0.7900313,-9.578257,1.95019471409347461328,-4.14975,-13.32912,-6.1369376,-0.9104858,-9.711898,1.01018191409347461329,-6.39611,-14.508264,-4.6962266,-1.0959563,-9.738202,0.369747521409347461345,-6.76781,-13.965379,-3.663727,-1.4514929,-9.698145,-0.097557871409347461348,-5.6551046,-13.269264,0.40462008,-1.8195097,-9.627301,-0.418126051409347461363,-4.0396166,-12.961011,4.313154,-2.0700004,-9.578589,-0.36894731409347461370,-0.89064306,-14.379576,5.329493,-2.1576524,-9.566059,-0.0737707541409347461375,-1.8806454,-16.151884,7.7105265,-1.9924841,-9.595797,0.347993941409347461398,-4.301183,-16.57865,11.261127,-1.9006749,-9.57679,0.91810241409347461399,-4.993108,-15.3193,6.221333,-1.9748777,-9.463798,1.64523631409347461406,-4.7884035,-13.676279,-0.89782566,-2.113607,-9.383473,1.91141321409347461435,-4.7560816,-12.229582,-2.8072014,-2.2886543,-9.3824,1.70383311409347461436,-4.509479,-11.59871,-2.3421278,-2.4795845,-9.380287,1.42557411409347461437,-3.705027,-12.291832,-2.509722,-2.608166,-9.379789,1.17788531409347461468,-2.4229321,-13.347075,-4.237737,-2.6642692,-9.391124,0.93747611409347461470,-0.97503865,-14.016255,-4.5723267,-2.6161797,-9.43391,0.57213121409347461470,0.3298013,-13.166314,-4.84347,-2.4768693,-9.486671,0.196338561409347461476,0.89543146,-12.628816,-4.7560816,-2.2700143,-9.5387335,-0.173142981409347461495,0.8559271,-13.602058,-4.478953,-2.0342114,-9.580455,-0.49724461409347461496,0.79726917,-15.972917,-2.9215245,-1.8045839,-9.610181,-0.747192561409347461513,1.13964,-19.32839,0.04189853,-1.5748186,-9.64352,-0.832356871409347461515,3.3848026,-19.608511,3.2543187,-1.3233322,-9.69298,-0.68214171409347461526,6.0291986,-19.608511,2.9747956,-0.94878924,-9.754832,-0.33679861409347461540,7.611766,-18.951902,-0.44352585,-0.4663795,-9.795427,-0.049801851409347461561,5.6281695,-14.288596,-4.914099,0.036218148,-9.806561,-0.0209884271409347461561,2.72939,-11.520899,-8.377911,0.3788459,-9.7944975,-0.30772331409347461574,1.6699557,-10.568604,-7.363966,0.56289023,-9.755083,-0.8318151409347461576,2.2158337,-9.862315,-4.796783,0.6824372,-9.698085,-1.28524211409347461590,3.0244753,-8.784326,-4.043208,0.80178094,-9.653435,-1.52929341409347461595,3.8241386,-7.137714,-3.0699651,0.95610875,-9.602064,-1.74831841409347461617,3.551798,-4.4801497,-3.5583823,1.1578937,-9.55475,-1.88052741409347461618,1.513734,-3.8307228,-5.731719,1.3733193,-9.488876,-2.0604931409347461628,1.0857705,-4.9440265,-8.544308,1.448834,-9.392004,-2.42106341409347461646,2.4378958,-5.5551467,-4.461595,1.4744251,-9.222181,-2.9912921409347461647,1.6298528,-6.4248405,0.4854244,1.6072425,-9.121476,-3.22270821409347461655,0.7350199,-6.0746884,-0.17896658,1.6315795,-9.176164,-3.05063561409347461687,0.5057751,-5.3863554,-0.41599256,1.5498388,-9.228454,-2.93326831409347461689,0.55844754,-4.6920366,-0.5422867,1.5024709,-9.269882,-2.82528831409347461690,1.407192,-3.7989995,-1.7830818,1.4692485,-9.300395,-2.7412371409347461696,2.759916,-3.3441012,-1.8459295,1.5551304,-9.267807,-2.80351731409347461735,3.6326025,-2.717419,-2.6360161,1.8087859,-9.197228,-2.88265281409347461737,4.325724,-2.2182279,-2.996942,2.178884,-9.053935,-3.07393811409347461738,4.7614684,-1.7830818,-3.016694,2.6435447,-8.841159,-3.31903581409347461741,5.267244,-1.146224,-3.4650085,3.1647103,-8.57492,-3.55327461409347461779,5.415086,-0.99299514,-3.954024,3.7493067,-8.20017,-3.8562051409347461780,5.7664347,-0.89662856,-3.6152446,4.316314,-7.7443366,-4.1910731409347461780,5.6401405,-1.5759833,-2.4779987,4.891499,-7.2483907,-4.43897061409347461781,5.2002063,-2.7886465,-0.760159,5.3960304,-6.8552446,-4.4787131409347461789,4.23654,-5.0757074,1.4670471,5.7930107,-6.678043,-4.24443151409347461795,-9.173983,-18.900427,19.288885,5.9770703,-6.856316,-3.66551351409347461811,-19.122488,-19.608511,16.913837,6.050561,-6.6867867,-3.85331151409347461825,-19.60911,-19.608511,18.078018,6.1125946,-6.4988885,-4.07075261409347461828,-18.452112,-19.258959,8.110358,6.148088,-6.322186,-4.2896841409347461839,-13.071144,-11.628039,3.0621839,6.0793037,-6.1838064,-4.57962851409347461863,-9.252393,-7.6841903,5.1409497,-3.7233856,-8.507769,3.1503451409347461864,-5.9507885,-8.739435,6.1566896,-4.297414,-8.231733,3.15296671409347461867,-2.557606,-9.208099,4.5423994,-4.4676065,-8.102871,3.24874931409347461875,-0.36391866,-8.246229,1.8746599,-4.268291,-8.151817,3.3911571409347461898,2.1045034,-8.502409,-1.5251064,-3.9376836,-8.307767,3.41263181409347461899,5.1810527,-13.233352,-4.559159,-3.4752882,-8.615493,3.1410291409347461909,5.156512,-17.914614,-5.303157,-2.6368134,-9.110643,2.49274641409347461936,3.2202013,-16.757017,-4.4125137,-1.8032799,-9.488157,1.70101771409347461938,2.190096,-12.591106,-3.256713,-1.2717847,-9.660315,1.1096431409347461941,1.7932571,-11.44608,-1.1133038,-0.9278533,-9.7355175,0.727478441409347461972,1.0061632,-11.711836,-0.094570965,-0.6635944,-9.768267,0.55765671409347461973,-0.20949265,-13.946225,1.7824832,-0.48649627,-9.782337,0.48946461409347461975,0.074220255,-14.32391,4.122815,-0.4326688,-9.779503,0.58696231409347461977,2.9412768,-9.133281,1.2437878,-0.36143795,-9.763726,0.842258631409347462008,5.029021,-5.9244523,1.2354081,-0.10020028,-9.774622,0.78556061409347462010,6.269217,-6.031593,1.0552444,0.28903395,-9.772966,0.75893041409347462011,6.3392477,-7.8823104,-0.60333884,0.78399307,-9.739197,0.83891991409347462037,5.382764,-9.0794115,-2.4785974,1.3183149,-9.685904,0.78466221409347462038,4.373608,-8.503007,-2.8658595,1.745406,-9.63574,0.52581251409347462038,3.674501,-7.5561004,-2.183512,2.0334933,-9.590599,0.235991951409347462058,3.4566288,-7.6961613,-1.5969325,2.2682126,-9.540642,0.0416869331409347462058,3.4512417,-8.459313,-1.5239093,2.4579148,-9.4931755,-0.093168121409347462071,3.304597,-9.351153,-1.5370775,2.6076474,-9.450907,-0.225717221409347462076,2.7377696,-10.3214035,-1.7172412,2.708212,-9.418823,-0.348935041409347462098,1.9883845,-11.227011,-1.7202339,2.727156,-9.407723,-0.477234071409347462100,1.3946224,-11.830948,-1.5155296,2.6589124,-9.420669,-0.592941941409347462108,0.62368953,-12.409147,-1.4891934,2.5297627,-9.450326,-0.679720041409347462141,-0.694917,-13.55178,-1.6873137,2.3238683,-9.498191,-0.744562271409347462143,-2.2451627,-14.657303,-2.40318,2.0156863,-9.562742,-0.81324241409347462146,-3.2375593,-14.114418,-2.6557682,1.5892105,-9.63306,-0.92136841409347462172,-3.244742,-12.089521,-2.5240872,1.1216179,-9.6886425,-1.02108261409347462173,-2.472612,-10.23222,-2.3307555,0.6977634,-9.720634,-1.09215281409347462174,-1.5873557,-8.688558,-2.9149406,0.37081507,-9.731332,-1.15501821409347462176,-1.2018893,-7.9206176,-3.6792896,0.15500689,-9.719418,-1.29587041409347462197,-1.1216835,-7.963713,-3.9109285,0.008712299,-9.687969,-1.5210371409347462239,-1.4730326,-8.1720085,-4.5675383,-0.1023039,-9.64065,-1.79382531409347462240,-4.2904096,-8.93576,-4.5340195,-0.22386459,-9.567579,-2.14049341409347462241,-4.8680105,-9.188946,-3.5434184,-0.5865997,-9.480097,-2.4400891409347462243,-3.8486793,-9.188946,-0.34596214,-0.9712033,-9.404507,-2.60430571409347462245,-2.7335799,-8.641273,-0.75596917,-1.2483249,-9.417699,-2.43290161409347462263,-2.4378958,-8.589797,-1.0857705,-1.4222414,-9.427395,-2.29604171409347462264,-2.0278888,-8.719683,-1.0247183,-1.5424361,-9.43252,-2.19518611409347462270,-1.477821,-9.005191,-0.7254431,-1.5903066,-9.443063,-2.11421351409347462277,-0.6302736,-9.376292,-0.670975,-1.5868788,-9.466173,-2.01090621409347462305,-0.22924481,-9.867104,-0.78170687,-1.497373,-9.500146,-1.91715471409347462306,-0.362123,-10.48002,-0.81343,-1.3758161,-9.534845,-1.83418761409347462308,-0.741604,-11.203667,-0.705691,-1.2645047,-9.564652,-1.75750651409347462333,-0.9427169,-11.844714,-0.5662287,-1.1818986,-9.588835,-1.68158831409347462334,-0.80445176,-12.284649,0.13826515,-1.1194392,-9.61011,-1.6009471409347462336,-0.93732995,-12.645575,0.4973954,-1.0572736,-9.641338,-1.44815421409347462358,-0.85532856,-13.006501,1.1617863,-1.0172697,-9.668047,-1.29012111409347462358,-0.9020155,-13.27944,2.110489,-0.98106563,-9.6965885,-1.08814421409347462374,-0.92895025,-12.895769,4.0587707,-0.95645434,-9.725182,-0.82247491409347462375,-0.6135142,-11.636418,10.340557,-0.94566494,-9.751882,-0.420585721409347462394,0.11971009,-11.742362,17.55728,-0.9262162,-9.750557,0.489032061409347462405,-1.5598224,-14.056358,15.354614,-0.8522037,-9.586856,1.88052011409347462408,-4.370615,-15.778986,5.5282116,-0.9230083,-9.353218,2.79924421409347462420,-6.4601545,-14.842255,-5.4683566,-1.2268989,-9.317681,2.80105881409347462434,-6.8186865,-13.090897,-13.78701,-1.608886,-9.427435,2.16918471409347462437,-6.1890116,-12.444462,-11.244369,-1.9648719,-9.549666,1.05524031409347462458,-4.7740383,-12.854469,-1.614889,-2.1986325,-9.555106,0.190757561409347462459,-5.5443726,-13.785813,2.0326772,-2.3068862,-9.531407,0.0302870031409347462479,-7.249643,-14.465168,5.9956794,-2.419676,-9.50256,0.130146731409347462480,-6.8438253,-16.265608,11.425131,-2.6242611,-9.432053,0.56571721409347462489,-5.01705,-16.650476,13.377602,-2.750801,-9.322371,1.30264251409347462512,-3.8055837,-16.035765,6.05733,-2.725355,-9.191175,2.06521631409347462513,-2.404377,-14.0952635,-0.6847417,-2.727728,-9.135668,2.2955281409347462517,-1.6023195,-12.996924,-2.0015526,-2.711032,-9.178908,2.13736371409347462546,-2.1601684,-12.726977,-2.2559366,-2.6563714,-9.249098,1.88898241409347462547,-2.0679917,-13.215993,-3.690662,-2.6046176,-9.315666,1.61391121409347462549,-1.7699136,-14.453795,-5.4982843,-2.5227833,-9.393912,1.24915431409347462556,-0.95947635,-13.666702,-5.6856303,-2.4305215,-9.470052,0.762269741409347462582,-0.52732295,-12.126632,-5.1786585,-2.3001323,-9.527992,0.311702161409347462583,-0.3633201,-12.246941,-5.209783,-2.18151,-9.560536,-0.086837741409347462589,0.19273324,-13.682264,-5.2265425,-2.044458,-9.581249,-0.436177251409347462613,1.0319009,-17.263391,-3.843891,-1.8603754,-9.599787,-0.743994651409347462615,2.746748,-19.608511,-1.0259154,-1.5981262,-9.632973,-0.90675831409347462616,7.9445596,-19.608511,4.200627,-1.2304314,-9.693237,-0.83519291409347462649,11.456854,-19.608511,6.505645,-0.5612153,-9.781814,-0.414168241409347462650,8.065467,-15.828068,1.1348516,-0.7546698,-9.7764015,-0.151186591409347462653,3.8576574,-12.661138,-5.783194,0.7716525,-9.77481,0.167456161409347462661,1.8195933,-11.264719,-11.13244,1.0110692,-9.752256,-0.204017431409347462699,2.3546975,-8.504205,-3.1124623,1.0742668,-9.704876,-0.912009661409347462699,2.9873652,-6.928221,-2.7832594,1.1384826,-9.678278,-1.0978211409347462700,2.9484594,-5.671265,-5.039196,1.2313439,-9.643919,-1.28415371409347462701,1.9674352,-4.8584337,-5.853823,1.3570311,-9.576352,-1.61936471409347462708,-0.1340753,-4.9679685,-6.8282633,1.4630306,-9.494516,-1.97081151409347462726,-0.8098387,-5.54138,-5.4982843,1.3992817,-9.404888,-2.4000991409347462743,-0.2112883,-5.567716,-3.882198,1.2758974,-9.34193,-2.69643931409347462744,-0.35254622,-5.579687,-2.7150247,1.1718321,-9.293481,-2.90317061409347462766,0.093373865,-5.1960163,-1.2683283,1.0354668,-9.268603,-3.03169581409347462767,1.0708067,-4.720767,-1.3162124,0.94719976,-9.277005,-3.03485631409347462779,2.1972785,-4.0701427,-1.0582372,0.97440803,-9.274119,-3.0350721409347462794,2.9227216,-3.3506854,-1.5167267,1.1475661,-9.262514,-3.00987741409347462795,3.4632127,-2.4762032,-2.0685902,1.435117,-9.210861,-3.04481151409347462796,3.9983168,-1.5610195,-2.4720132,1.7985401,-9.104498,-3.16918541409347462824,4.4921207,-0.6733692,-2.7042508,2.2584798,-8.92905,-3.36774521409347462824,4.770447,-0.30885202,-2.8191724,2.810106,-8.667163,-3.6268441409347462844,5.242703,0.21428105,-3.5344403,3.4140978,-8.3217125,-3.90684681409347462845,5.6658783,0.089782566,-4.128801,4.074114,-7.827782,-4.27759551409347462848,5.5120506,-0.6548142,-4.5872903,4.7186613,-7.2248983,-4.65891551409347462856,5.783194,-1.0941502,-4.723161,5.210688,-6.6365705,-4.99750141409347462878,6.177639,-1.8561049,-3.8672342,5.619164,-6.0908356,-5.24377161409347462878,7.047931,-2.8407204,-3.0903158,6.001371,-5.658823,-5.30393081409347462888,6.5385647,-6.3685765,-1.3006501,6.3938203,-5.351131,-5.16283231409347462911,-1.2162545,-16.04594,14.398729,6.574226,-5.5378423,-4.72041231409347462911,-17.376518,-19.608511,19.608511,5.903042,-7.5153413,-2.20094421409347462916,-19.60911,-19.608511,17.085623,6.077954,-7.296143,-2.44850331409347462947,-19.60911,-19.608511,6.7013707,6.197613,-7.12153,-2.65401651409347462947,-16.369755,-16.514006,2.7275944,6.2030644,-7.040083,-2.85124871409347462949,-9.069236,-7.417835,4.44304,6.212739,-6.9987917,-2.93072841409347462956,-6.704962,-6.801927,7.551911,-4.046097,-8.560362,2.55337241409347462978,-2.5450363,-7.6494746,8.507197,-4.332843,-8.304081,2.90501431409347462979,1.8207904,-7.0491285,6.196194,-4.110752,-8.215501,3.43185951409347462990,3.4398694,-7.510012,1.4754268,-3.6010826,-8.265187,3.85866261409347463011,7.665635,-11.644798,-5.5383873,-3.009964,-8.493889,3.868381409347463012,10.206482,-16.601994,-8.966286,-2.0120068,-9.0852375,3.0952691409347463016,8.1480665,-15.671845,-6.084265,-0.7832526,-9.600623,1.83982651409347463043,4.027047,-12.073959,-2.6252422,0.10297318,-9.75246,1.02435831409347463050,0.14065935,-12.491747,1.050456,0.50829726,-9.772252,0.64430331409347463053,-1.2856863,-14.673464,-0.47884035,0.49434164,-9.773974,0.628859041409347463056,-0.08200141,-13.375208,-2.4953568,0.33307138,-9.78829,0.498833921409347463078,-0.02633622,-11.2312,-0.6242881,0.29005554,-9.798873,0.261438521409347463078,0.12689269,-9.041702,0.676362,0.25342685,-9.80113,0.209772631409347463091,1.9494787,-7.2909427,0.060453594,0.2487308,-9.801065,0.218305481409347463117,3.7337575,-5.8322754,-1.5933412,0.41258764,-9.796249,0.183499541409347463118,3.4715924,-5.7377043,-2.3331497,0.73386455,-9.779151,-0.0061877491409347463124,2.831742,-5.466561,-2.4959552,1.0290533,-9.74997,-0.222612251409347463162,2.7712884,-5.2875943,-2.1733365,1.2837344,-9.711839,-0.450132131409347463162,2.9891608,-6.5487404,-1.5520413,1.5303457,-9.664771,-0.648562131409347463163,3.0029275,-8.483255,-1.459266,1.7553458,-9.617568,-0.769092261409347463164,2.597709,-10.142437,-1.2886791,1.9275221,-9.57741,-0.85339671409347463169,1.9853917,-11.952454,-1.4269443,2.000716,-9.558331,-0.89767951409347463186,1.3395559,-13.735536,-1.8459295,1.9864236,-9.5591955,-0.91996031409347463188,0.66259533,-14.6602955,-2.368464,1.8808985,-9.575808,-0.96775841409347463205,-0.01616086,-14.548965,-2.8048072,1.7124677,-9.599056,-1.04689921409347463208,-0.29927522,-13.511678,-2.7814639,1.5019591,-9.623184,-1.14405371409347463217,-0.35254622,-12.353482,-2.9131448,1.2997704,-9.643664,-1.2168461409347463233,-0.002394202,-11.471219,-3.5212722,1.1193194,-9.656827,-1.28963771409347463236,0.17357962,-11.059416,-5.01286,0.9875172,-9.6527605,-1.42106451409347463252,0.32441434,-10.488997,-8.314464,0.87896055,-9.619321,-1.69305941409347463256,-1.151611,-10.676943,-6.82946,0.79002964,-9.519395,-2.21976761409347463269,-2.4672248,-10.907983,-2.1470003,0.5794184,-9.441236,-2.58799171409347463287,-3.1783028,-10.460866,0.32680854,0.28997502,-9.453712,-2.59105751409347463289,-3.8133647,-9.726444,0.7661445,-0.04216843,-9.49175,-2.46482371409347463303,-4.629189,-9.399636,0.6362591,-0.38068712,-9.527858,-2.29028651409347463320,-4.510676,-8.968081,0.700304,-0.73285896,-9.560826,-2.05521181409347463320,-3.5224693,-8.488044,0.90381116,-1.0532793,-9.578718,-1.81910811409347463336,-2.8658595,-8.701127,1.1073183,-1.2911314,-9.595585,-1.55824241409347463336,-2.4133554,-9.308058,1.0313023,-1.4613779,-9.6091585,-1.30337981409347463351,-1.7130513,-9.567828,0.74399817,-1.5733538,-9.619508,-1.07704651409347463356,-1.0935516,-9.526528,0.50757074,-1.6048961,-9.631677,-0.90857561409347463371,-0.7230489,-9.278131,0.338181,-1.5716572,-9.647205,-0.794821409347463385,-0.45908818,-9.042301,0.41120413,-1.5007942,-9.663857,-0.72656481409347463388,-0.35673606,-8.97646,0.83497787,-1.4052093,-9.682386,-0.668700041409347463405,-0.45908818,-9.180567,0.99658644,-1.3098975,-9.702513,-0.56194531409347463418,-0.28072014,-9.646837,1.3383588,-1.2290028,-9.718519,-0.45861471409347463418,0.13706805,-10.242993,2.058415,-1.1368665,-9.734998,-0.328247041409347463437,0.07182605,-10.704475,2.3953989,-1.014849,-9.753108,-0.131825481409347463438,0.08379706,-10.664971,2.3050177,-0.9126839,-9.763766,0.079253571409347463460,0.45429978,-10.286089,2.3594859,-0.8236445,-9.768336,0.267650251409347463461,0.9983821,-10.007763,2.9149406,-0.7178624,-9.770117,0.447097871409347463470,1.3180081,-10.184336,3.7852328,-0.570221,-9.767459,0.66479961409347463486,0.93493575,-10.565612,4.5447936,-0.40439212,-9.752503,0.94632581409347463491,-0.48362875,-10.389638,4.483143,-0.28817075,-9.720597,1.26385561409347463506,-2.7976246,-10.73979,2.9843724,-0.31582654,-9.67812,1.55069161409347463520,-4.653131,-11.618463,0.86610246,-0.5470461,-9.644191,1.69136321409347463521,-5.587468,-13.137584,-1.1629834,-0.9057313,-9.624483,1.64904561409347463545,-6.4062853,-14.499286,-2.961029,-1.27525,-9.615655,1.44336931409347463546,-6.519411,-15.2013855,-4.0252514,-1.6318274,-9.608648,1.08691611409347463549,-5.4114943,-14.214974,-2.420538,-1.9325883,-9.592129,0.65313541409347463557,-4.8757915,-14.175469,-1.4197617,-2.1261146,-9.566772,0.356264351409347463576,-4.9416323,-14.672865,2.1511903,-2.2580414,-9.541617,0.170852241409347463577,-4.5555673,-15.544953,9.071032,-2.369323,-9.511649,0.291950551409347463591,-3.702633,-16.406267,14.680646,-2.4082336,-9.463456,0.902112541409347463631,-3.4518404,-15.249867,7.361572,-2.4169512,-9.463956,0.873089851409347463632,-3.5326445,-13.458406,-0.8146271,-2.365446,-9.271759,2.1469831409347463634,-4.301782,-12.886192,-4.988918,-2.4458108,-9.302328,1.91182851409347463636,-4.7165775,-12.56896,-6.791153,-2.560982,-9.345959,1.50493231409347463639,-3.7822402,-13.005902,-6.8743515,-2.7023742,-9.377276,0.96655781409347463680,-2.654571,-12.974179,-5.6102133,-2.734975,-9.40779,0.428717581409347463681,-1.5975311,-12.274473,-4.4957123,-2.6944602,-9.429221,0.0084831661409347463682,-1.043872,-12.136807,-4.039018,-2.601159,-9.450503,-0.30389061409347463682,-0.5734113,-12.7730665,-3.2154129,-2.4781437,-9.472446,-0.54949791409347463689,-0.038905777,-14.994287,-2.0895395,-2.319837,-9.50199,-0.70776891409347463710,1.1641805,-19.09316,-0.59855044,-2.100658,-9.549188,-0.755426171409347463712,3.530849,-19.608511,1.5215151,-1.7730846,-9.621496,-0.673345271409347463717,6.7522473,-19.608511,2.6360161,-1.329638,-9.705487,-0.453847941409347463741,8.1720085,-18.943521,1.1611878,-0.73537356,-9.777084,-0.195458281409347463742,6.5140243,-14.971541,-1.0444705,-0.13252982,-9.8055,-0.070678641409347463749,3.2142158,-12.674904,-4.6160207,0.3184446,-9.800828,-0.113099141409347463779,1.8118122,-11.131242,-7.477092,0.54731506,-9.783651,-0.388627561409347463780,1.1204864,-10.196306,-7.9888525,0.66502166,-9.7485,-0.833611251409347463781,1.5777789,-9.338584,-5.113416,0.70213133,-9.694197,-1.30382871409347463791,2.5366566,-8.127716,-2.6114755,0.73555195,-9.649647,-1.5854591409347463815,2.690484,-6.9222355,-2.2260091,0.8321032,-9.621221,-1.7059021409347463818,2.5971103,-6.238691,-2.2888567,0.96268946,-9.591827,-1.80013811409347463819,2.4289176,-5.9807158,-3.210026,1.116696,-9.5596695,-1.88045431409347463837,0.92296475,-5.9723363,-5.917868,1.2698747,-9.513043,-2.0148931409347463838,-0.93732995,-6.830059,-6.6600704,1.2893664,-9.428775,-2.36772061409347463854,-0.17417817,-6.169259,-3.9749734,1.1103568,-9.338147,-2.7814591409347463870,-0.36750996,-6.1620765,-3.2974143,1.0090259,-9.285745,-2.98784691409347463871,0.002394202,-6.3248825,-1.4502877,0.8635884,-9.244263,-3.15724781409347463884,0.9540894,-5.7203465,-0.80205756,0.7689611,-9.264335,-3.12269141409347463904,2.167351,-4.767454,-0.56323594,0.8033493,-9.296363,-3.0170671409347463905,3.3704374,-3.6122518,-1.6579847,0.9846909,-9.313164,-2.90959221409347463923,4.132991,-1.8950106,-2.710835,1.3236506,-9.259198,-2.94714141409347463924,4.613028,-0.97982705,-3.8606503,1.7829317,-9.111443,-3.15803861409347463946,5.0493712,-0.52971715,-4.5022964,2.314621,-8.851777,-3.52972721409347463947,5.556942,0.16699557,-4.6124296,2.9014573,-8.474148,-3.9925881409347463973,5.9968767,0.4405331,-4.2515035,3.5639212,-7.9690733,-4.4679691409347463990,6.0046577,0.05746084,-3.8905778,4.261265,-7.3753843,-4.85960441409347463991,5.729325,-0.4961983,-3.3919852,4.891484,-6.777377,-5.1294191409347464013,4.931457,-2.7144263,0.22266077,5.4125757,-6.250338,-5.2732991409347464014,4.007295,-5.33907,3.095703,5.8432264,-6.1817317,-4.879891409347464015,0.02873042,-11.745954,12.721591,6.08309,-6.5671926,-4.00479561409347464015,-15.303139,-19.608511,19.567211,5.575984,-7.9157577,-1.5555011409347464017,-19.583971,-19.608511,15.275605,5.719967,-7.76493,-1.77713661409347464041,-19.60911,-19.608511,12.115259,5.879761,-7.5871763,-2.00837161409347464041,-15.9022875,-18.441936,5.1996074,5.9910116,-7.447024,-2.1954561409347464049,-3.6332011,-7.1490865,1.9081788,6.0117517,-7.3683977,-2.39498851409347464084,-9.561244,-7.6680293,4.6034513,-3.543014,-8.603704,3.09737281409347464085,-4.6962266,-5.8083334,7.3669586,-4.1372204,-8.328894,3.11180571409347464086,0.35194764,-7.207744,5.8029466,-4.2121825,-8.141044,3.48587371409347464120,4.992509,-12.4702,2.0111294,-3.815484,-8.204884,3.78052191409347464120,10.015544,-19.282303,-2.505532,-2.9809098,-8.585777,3.68361381409347464121,9.309255,-16.427216,-4.63278,-1.6625642,-9.175299,3.03647541409347464122,5.1301756,-11.212047,-2.9741971,-0.63857263,-9.508385,2.31370141409347464138,2.3654714,-9.48044,-0.4345476,-0.11252222,-9.62271,1.8871051409347464139,0.7942764,-10.689512,-1.0534488,0.14152722,-9.656372,1.70436181409347464152,2.2403743,-10.580576,-3.8283286,0.21398062,-9.698311,1.43783441409347464171,3.0550013,-10.790668,-3.900753,0.41882396,-9.755504,0.908358161409347464172,2.5450363,-10.572196,-2.4355016,0.6689326,-9.773182,0.45590781409347464183,2.0506337,-10.1699705,-1.6394296,0.83744204,-9.768159,0.228424151409347464198,2.3307555,-9.627085,-2.8215668,0.95631844,-9.759693,0.064950321409347464199,2.9592333,-9.037513,-4.498705,1.0987936,-9.742027,-0.236533211409347464221,3.7343562,-8.495226,-5.5485625,1.27607,-9.700772,-0.66108781409347464224,3.86903,-8.2037325,-5.7478795,1.5129873,-9.622571,-1.13462021409347464246,3.520075,-7.3549876,-4.718373,1.7521262,-9.517938,-1.58408881409347464247,3.2854433,-6.63553,-2.9317,1.9636151,-9.413272,-1.92481781409347464251,2.883816,-6.6864066,-1.6106992,2.1525984,-9.334269,-2.09956461409347464278,2.6258407,-7.1604586,-0.85772276,2.287942,-9.293012,-2.13908121409347464279,2.3385365,-7.867945,-0.3441665,2.3837802,-9.281775,-2.08245971409347464279,1.9446903,-8.613739,-0.078410104,2.4396737,-9.296216,-1.94902981409347464300,1.6843209,-9.402629,-0.11731588,2.4460275,-9.33029,-1.77003631409347464300,1.4323312,-10.4171715,-0.45489833,2.4028432,-9.372328,-1.59881641409347464319,1.1294646,-11.542446,-0.7272388,2.3214178,-9.415649,-1.45842421409347464320,0.5141548,-12.768876,-0.88525605,2.1982684,-9.461733,-1.34671451409347464331,-0.6183026,-13.959393,-1.1336545,2.008042,-9.516402,-1.2554871409347464337,-1.6531962,-13.802573,-1.4041992,1.7161306,-9.581274,-1.19351481409347464349,-2.1481974,-12.282255,-1.4383167,1.3613678,-9.641973,-1.16165321409347464362,-2.1763294,-10.633248,-1.4610616,1.0066024,-9.687836,-1.14147711409347464372,-2.0099323,-9.545084,-1.6316484,0.68239266,-9.716186,-1.14038991409347464390,-1.3742718,-8.74961,-1.8171991,0.41977805,-9.726585,-1.17802441409347464391,-0.8463503,-8.629301,-2.1290438,0.22532208,-9.725025,-1.24238611409347464398,-1.1079168,-9.494206,-3.650559,0.10481559,-9.71315,-1.34689451409347464423,-2.0278888,-10.280104,-5.104438,-0.016771395,-9.678631,-1.5793041409347464423,-4.022857,-10.637438,-1.6525977,-0.20428748,-9.6145735,-1.92057181409347464431,-3.6445735,-10.123882,-0.05267244,-0.55029845,-9.597834,-1.9362821409347464438,-3.4332852,-10.078991,0.45669398,-0.8362831,-9.597871,-1.83083011409347464452,-3.0681696,-10.06283,0.8559271,-1.0746888,-9.607511,-1.64656021409347464473,-2.5821466,-10.061034,1.1330559,-1.2783359,-9.615921,-1.43884741409347464474,-2.183512,-9.806051,1.3599066,-1.4081126,-9.628707,-1.21473881409347464478,-2.0171149,-9.595961,1.5209166,-1.4864115,-9.64198,-0.99659231409347464509,-1.9189527,-9.815628,1.4981717,-1.5423642,-9.652641,-0.78613291409347464510,-1.555034,-10.065224,1.6130934,-1.5761601,-9.660689,-0.59764851409347464512,-1.3611037,-10.376471,1.6921021,-1.5665263,-9.671848,-0.414425431409347464519,-1.198298,-10.653599,1.7986441,-1.5372993,-9.682347,-0.243471491409347464542,-0.7918822,-10.783484,2.1619642,-1.493468,-9.691945,-0.078607091409347464543,-0.5847838,-11.097125,2.2625206,-1.4184015,-9.702956,0.105692081409347464552,-0.6679823,-11.446678,2.0590134,-1.3331244,-9.711677,0.276603941409347464576,-0.5835867,-11.585542,1.8537107,-1.2637261,-9.716376,0.406688721409347464578,-0.54049104,-11.693281,1.8058267,-1.192539,-9.72076,0.50502191409347464580,-0.6476316,-11.921927,2.3056161,-1.1260154,-9.724249,0.58433751409347464607,-0.61112,-11.954249,3.3740287,-1.0761919,-9.722704,0.693711161409347464608,-0.5638345,-11.474212,4.5244427,-1.0322052,-9.7121105,0.883076371409347464612,-1.1899183,-11.838729,3.779846,-0.99505883,-9.68592,1.16757141409347464620,-2.581548,-13.220781,0.8678981,-1.0055732,-9.655092,1.39226281409347464648,-4.3897686,-14.216171,-3.0304608,-1.0921587,-9.645428,1.3940261409347464650,-6.293758,-14.220361,-5.3845596,-1.278753,-9.660326,1.10148381409347464652,-6.347627,-13.734937,-5.185841,-1.5882983,-9.657171,0.621888341409347464675,-5.668871,-13.2273655,-2.2266076,-1.8847315,-9.622638,0.151720261409347464677,-5.2660465,-13.276447,-1.2228385,-2.1223555,-9.573878,-0.082897481409347464679,-4.969764,-13.467983,-0.50996494,-2.3007164,-9.530955,-0.194897731409347464711,-5.45878,-14.775217,3.369839,-2.4429705,-9.494258,-0.247751951409347464713,-5.2169657,-16.729485,12.966996,-2.5720074,-9.463311,0.0300432571409347464714,-3.867833,-17.308882,17.137695,-2.617201,-9.40161,0.96456081409347464719,-2.8137856,-14.478336,5.195418,-2.6624022,-9.388016,0.9732291409347464742,-1.9871874,-11.848306,-2.0428526,-2.538277,-9.208893,2.21897481409347464743,-2.2679076,-11.771691,-3.6601357,-2.553327,-9.255085,1.99858121409347464750,-2.183512,-11.67712,-4.055179,-2.5380092,-9.3327675,1.62120161409347464783,-2.0416555,-12.580932,-5.5509567,-2.4869103,-9.403856,1.24624861409347464785,-1.292869,-12.235568,-6.4960675,-2.415829,-9.473869,0.76156481409347464786,-0.56682724,-11.410766,-5.185242,-2.3291645,-9.523216,0.231744811409347464823,-0.7350199,-11.738173,-4.8189297,-2.2134264,-9.552088,-0.169572141409347464823,-0.46746787,-12.599486,-4.8123455,-2.1022964,-9.565689,-0.498356941409347464824,0.2621651,-13.84507,-3.807978,-1.9641006,-9.576346,-0.778641641409347464825,1.3934253,-17.10238,-1.6849195,-1.7776351,-9.597287,-0.94997961409347464829,2.461838,-19.608511,1.1450269,-1.4920058,-9.647998,-0.927601751409347464854,3.8600516,-19.608511,4.371214,-1.1433275,-9.715874,-0.681868731409347464855,5.6203885,-19.245192,1.2922704,-0.73364484,-9.776261,-0.23845221409347464858,1.1312603,-12.71381,-8.613141,-0.27727965,-9.802409,-0.079226681409347464895,0.33279404,-11.827955,-9.08001,-0.17860739,-9.783906,-0.643183351409347464897,1.3311762,-10.631453,-4.959589,-0.1070207,-9.7282095,-1.23323071409347464899,2.9119477,-9.269152,-2.8299465,0.010774785,-9.684742,-1.54144281409347464899,4.140772,-7.7530236,-2.416348,0.19748525,-9.662907,-1.66120831409347464926,3.8402996,-5.988497,-5.1636944,0.47847778,-9.631481,-1.78214591409347464927,2.2667105,-4.9919105,-6.266823,0.74361503,-9.553403,-2.0856491409347464931,2.5965118,-5.1798553,-4.401141,0.9045185,-9.455012,-2.4402861409347464967,2.7485435,-5.6203885,-4.708796,1.0879545,-9.389047,-2.61391641409347464969,2.396596,-5.8837504,-1.4047978,1.2558596,-9.301722,-2.8409891409347464975,1.8926164,-5.5120506,-0.99299514,1.3808967,-9.290094,-2.82093141409347464994,0.92535895,-4.999093,-1.9841946,1.460053,-9.285386,-2.79647091409347464996,1.2216414,-4.5340195,-0.3298013,1.4311885,-9.268212,-2.8674641409347464997,2.146402,-4.1222167,-0.6584055,1.482093,-9.289655,-2.770581409347464998,3.17531,-3.7008374,-1.4036007,1.6378782,-9.280117,-2.714261409347465018,4.076727,-2.873042,-1.7010803,1.9229319,-9.217355,-2.74100851409347465019,4.755483,-2.372654,-1.8423382,2.3397138,-9.097333,-2.81685381409347465036,5.4551888,-1.9027919,-1.7483658,2.8567338,-8.9168005,-2.91549591409347465049,6.000468,-1.4203602,-2.1188686,3.4668586,-8.667677,-3.00378041409347465050,6.497265,-1.2850877,-2.7287915,4.1326766,-8.323916,-3.13109851409347465066,6.908469,-1.0570401,-3.091513,4.795541,-7.8845105,-3.31778141409347465081,7.1963716,-0.61291564,-2.8993783,5.444693,-7.3562436,-3.52298241409347465082,7.1849995,-0.7691373,-2.0817583,6.083135,-6.7636485,-3.66318661409347465102,7.0646906,-2.2541409,-0.8026561,6.650651,-6.21012,-3.65700171409347465102,5.6203885,-5.393538,0.39803603,7.0800395,-5.864026,-3.41418311409347465114,2.1751323,-12.2080345,8.670003,7.1788435,-5.9740324,-2.99090981409347465118,-12.556391,-19.608511,18.371906,6.685568,-7.0340447,-1.41272931409347465138,-19.28709,-19.608511,15.2367,6.827781,-6.8568254,-1.59240661409347465139,-19.60911,-19.608511,18.505981,6.9671936,-6.6629477,-1.79825291409347465151,-19.326595,-19.351135,11.300034,7.03041,-6.5062084,-2.10071409347465164,-11.932103,-10.000581,3.8744168,7.004709,-6.406664,-2.46152161409347465185,-7.693767,-3.6607344,2.1811178,-3.4727633,-8.32989,3.83708381409347465185,-7.0545154,-6.567295,4.4675803,-4.140889,-8.0884495,3.6878751409347465201,-2.1374235,-9.451111,2.871845,-4.421408,-7.948185,3.66713431409347465201,3.2423477,-13.461399,-1.8082209,-4.1641436,-8.101546,3.63252781409347465216,5.9489927,-19.024326,-5.465364,-3.433715,-8.594745,3.24196621409347465218,5.04159,-18.121115,-6.728904,-2.4669147,-9.171909,2.4414751409347465233,2.3439236,-13.96059,-3.4123359,-1.6840991,-9.517449,1.65901921409347465249,1.4083891,-11.262923,-0.54288524,-1.2739681,-9.643324,1.24648771409347465250,1.6053122,-10.371682,-0.6853402,-1.0201517,-9.694044,1.07479611409347465267,1.8321629,-10.0748005,-2.7670987,-0.7800872,-9.735327,0.88616911409347465288,1.5370775,-10.110115,-2.4642322,-0.53868794,-9.776227,0.552828551409347465289,1.6998832,-9.618706,-0.985214,-0.348335,-9.7962,0.289061871409347465291,2.6204538,-8.306683,-0.22266077,-0.15552622,-9.803887,0.173211381409347465298,5.009867,-7.1849995,-0.8343793,0.09475202,-9.805709,0.0974380451409347465313,5.4384294,-7.905654,-1.3760674,0.53838587,-9.791839,-0.021297641409347465319,5.1122193,-8.065467,-1.6454151,0.99526894,-9.754872,-0.149341261409347465341,4.176685,-6.9808936,-1.5424645,1.4113121,-9.7005205,-0.280177121409347465342,3.417723,-6.2889695,-1.5981296,1.7386739,-9.643145,-0.396435021409347465351,3.1735144,-6.6325374,-1.5610195,1.9888599,-9.588488,-0.52508361409347465371,3.0376434,-7.3938932,-1.3694834,2.185044,-9.538219,-0.64680331409347465372,2.6635494,-8.287529,-1.2988545,2.3461769,-9.492892,-0.74218091409347465379,2.0907366,-9.465476,-1.4957775,2.4393046,-9.463209,-0.817224141409347465395,1.4544775,-10.760141,-1.8339585,2.4433758,-9.454991,-0.89633161409347465398,0.5267244,-12.290634,-2.3900118,2.355089,-9.468466,-0.98595581409347465420,-0.521936,-13.239936,-3.0921116,2.1467476,-9.505897,-1.09535011409347465421,-0.789488,-12.476185,-3.168726,1.8397485,-9.553415,-1.23205471409347465431,-0.38726214,-10.836756,-2.9759927,1.548893,-9.58583,-1.3722991409347465454,0.090381116,-9.668385,-3.1118636,1.3406435,-9.605517,-1.45160221409347465455,0.15203181,-9.677363,-3.2136173,1.1860869,-9.610111,-1.55221551409347465459,0.06464344,-10.226832,-3.277662,1.0490367,-9.606005,-1.67169461409347465488,0.30825347,-10.086173,-4.248511,0.92029583,-9.595148,-1.80461031409347465489,0.59017074,-9.6845455,-7.674015,0.82849365,-9.557643,-2.03359031409347465491,-4.136582,-11.593922,-4.3526587,0.7486031,-9.43697,-2.55998971409347465499,-6.133945,-11.829751,-0.7625532,0.25997677,-9.423715,-2.70119141409347465524,-5.032612,-10.279505,0.0664391,-0.31982818,-9.4759655,-2.50483351409347465525,-4.3161473,-8.934562,-0.5081693,-0.7540806,-9.47391,-2.41801741409347465532,-3.1639376,-8.496424,-1.5095441,-1.0772207,-9.454585,-2.3708281409347465556,-2.0027497,-8.667608,-1.0947487,-1.265107,-9.436831,-2.34864121409347465557,-1.2336124,-9.132084,-0.5398925,-1.3304349,-9.451938,-2.24971961409347465559,-1.0073603,-9.803658,-0.3477578,-1.314025,-9.488257,-2.1015971409347465585,-1.1563994,-10.049662,-0.6434417,-1.267318,-9.529495,-1.93727161409347465586,-1.2413936,-10.293272,-0.99179804,-1.2427254,-9.556114,-1.81843011409347465591,-1.2210429,-10.680533,-1.049259,-1.2161077,-9.574163,-1.7397921409347465598,-0.9498995,-10.824784,-0.6488287,-1.1978627,-9.586586,-1.68311151409347465612,-0.5722142,-10.931925,0.034117375,-1.166229,-9.603784,-1.6055011409347465636,-0.81283146,-11.480796,0.30226797,-1.1085885,-9.630987,-1.47836341409347465636,-0.9211691,-12.056003,0.91338795,-1.0719962,-9.656198,-1.33381461409347465639,-0.84575176,-12.475587,2.106299,-1.0414032,-9.683286,-1.14884041409347465652,-0.3716998,-12.857462,4.4328647,-1.0090476,-9.714728,-0.881073831409347465675,-0.12330139,-13.221979,6.9485717,-0.9341093,-9.752366,-0.43496731409347465675,-0.14903906,-13.4260845,10.915764,-0.85471773,-9.768147,0.152101371409347465679,-0.54168814,-13.612234,15.677832,-0.79351914,-9.725868,0.97375651409347465700,-1.5526398,-13.094487,12.790424,-0.79486066,-9.553146,2.06784341409347465701,-3.0358477,-11.910555,2.8407204,-0.9006138,-9.340014,2.85015681409347465717,-4.2598834,-11.96622,-4.371214,-1.1008456,-9.286074,2.95421311409347465729,-5.096657,-13.459603,-9.600749,-1.3212793,-9.378208,2.54437111409347465731,-5.8364654,-14.683041,-5.9705405,-1.515504,-9.551276,1.62687651409347465749,-6.0148335,-14.7955675,-3.3333273,-1.7550915,-9.594882,1.01404731409347465765,-4.935048,-13.776835,-0.52612585,-1.9630648,-9.590322,0.58523241409347465765,-3.8738184,-14.269443,5.2103815,-2.0951617,-9.572443,0.386061821409347465780,-3.5637693,-17.056293,14.362218,-2.137303,-9.547213,0.673096841409347465781,-3.2842462,-18.127699,16.83842,-2.1232746,-9.553444,0.62755321409347465794,-2.1703439,-16.281769,9.185953,-2.148893,-9.549186,0.604751351409347465799,-2.0416555,-15.15829,0.54887074,-1.9939109,-9.160507,2.87746621409347465813,-2.7323828,-13.939042,-5.237316,-1.993104,-9.221329,2.67675351409347465830,-3.1124623,-12.534843,-5.2648497,-2.0624864,-9.323709,2.2327071409347465848,-3.0292637,-11.826757,-5.595249,-2.1786702,-9.537136,0.68324711409347465848,-2.4768016,-11.574169,-7.0742674,-2.1786702,-9.537136,0.68324711409347465850,-1.412579,-11.344326,-6.4224463,-2.1786702,-9.537136,0.68324711409347465863,-0.90859956,-11.326968,-4.9996915,-2.127936,-9.571331,0.178589571409347465881,-0.64703304,-11.268311,-4.6686935,-2.0503705,-9.58792,-0.195339041409347465881,-0.089184016,-11.449671,-4.50888,-1.9601749,-9.595706,-0.50057811409347465895,0.66020113,-13.252505,-3.271078,-1.8242455,-9.603185,-0.78827161409347465899,1.2360066,-18.736423,-1.1049241,-1.6294775,-9.6247835,-0.9374131409347465915,3.2387564,-19.608511,2.2625206,-1.3556285,-9.673545,-0.869015161409347465935,6.6175733,-19.608511,4.0462008,-0.9657532,-9.74265,-0.564334871409347465936,6.857592,-17.20174,0.25737667,-0.3936895,-9.797167,-0.175730081409347465939,3.435081,-12.83352,-3.8965633,0.1137918,-9.805412,-0.10643911409347465966,1.4077905,-11.449073,-7.277176,0.36470807,-9.793532,-0.352321741409347465966,1.2826935,-10.13705,-7.3466077,0.4554773,-9.762991,-0.80433371409347465979,2.0201077,-8.773552,-5.2642508,0.5254782,-9.7091055,-1.27575231409347465980,2.980781,-7.4286094,-3.4093432,0.61593586,-9.656768,-1.59306421409347465998,3.301604,-6.2847795,-2.6372132,0.7630441,-9.613821,-1.77836051409347465999,3.0693667,-5.5898623,-1.6825253,0.95573026,-9.574035,-1.89600431409347466012,2.095525,-5.085883,-2.0530279,1.1616815,-9.547444,-1.91498261409347466029,1.7304093,-5.2582655,-4.380192,1.3009764,-9.520425,-1.95942681409347466031,2.3062148,-5.734113,-5.253477,1.4054666,-9.449162,-2.21549181409347466047,2.396596,-6.4326215,-5.591658,1.5435073,-9.350679,-2.52046541409347466067,1.7860745,-6.385336,-3.7606924,1.6721774,-9.236811,-2.83822971409347466068,1.0887632,-6.237494,-0.75836337,1.7013197,-9.170326,-3.03002121409347466071,0.59136784,-5.518635,-0.45070848,1.653254,-9.200693,-2.96385221409347466079,1.033098,-4.4113164,-1.0887632,1.5723513,-9.242762,-2.87567191409347466105,1.5053543,-3.6523547,-2.11827,1.5776929,-9.246155,-2.86179471409347466106,2.480393,-3.008913,-3.288436,1.6677902,-9.196577,-2.96847871409347466113,3.9378633,-2.3223755,-3.0466216,1.8858498,-9.069337,-3.21886851409347466141,5.1822495,-1.9494787,-3.4249055,2.2993143,-8.882233,-3.46258621409347466142,6.1566896,-1.228824,-3.743933,2.8727794,-8.597193,-3.74243661409347466143,6.51582,-0.6063316,-3.7104142,3.563782,-8.185637,-4.0577281409347466175,6.363788,-0.41359833,-3.6409822,4.288866,-7.6732807,-4.3470431409347466176,5.93343,-1.1641805,-2.9921536,4.9482374,-7.116319,-4.58730271409347466176,4.509479,-4.3089647,0.17597382,5.4730716,-6.6554904,-4.68191581409347466179,2.939481,-7.93618,4.7740383,5.734367,-6.707873,-4.2768961409347466202,-5.741296,-16.729485,17.785328,5.693979,-7.3299327,-3.16561631409347466202,-15.966931,-19.608511,17.593792,5.7694006,-7.187879,-3.34944961409347466211,-19.60911,-19.608511,16.856976,5.860686,-7.010459,-3.5603711409347466242,-19.472042,-19.608511,12.238561,5.929482,-6.8436894,-3.7650411409347466243,-10.518327,-13.984532,5.08289,5.9176226,-6.7417035,-3.96251961409347466245,-2.654571,-5.597045,2.4073699,-3.1462681,-8.562298,3.59978631409347466299,-7.9954367,-7.545925,4.6579194,-3.3478737,-8.504707,3.55416421409347466301,-2.2439656,-4.996699,6.2482677,-3.8224473,-8.30871,3.5390161409347466302,1.0049661,-6.2422824,3.9510314,-3.752676,-8.203273,3.84631511409347466304,3.120842,-9.948506,2.6617537,-3.3986933,-8.284902,3.99745871409347466305,6.851008,-17.405249,2.0213048,-2.7882288,-8.518225,3.97944971409347466307,5.997475,-19.567211,0.110731825,-1.7091303,-8.934118,3.66480571409347466329,0.16879122,-17.517775,4.107253,-0.8893404,-9.2536745,3.1223331409347466330,-4.619612,-14.958374,1.4454993,-0.72523296,-9.307002,3.00401741409347466331,-5.7017913,-13.782821,-7.4465656,-1.005641,-9.355964,2.7613461409347466347,-2.617461,-11.948263,-7.4327993,-1.3702345,-9.522412,1.90171421409347466381,0.90500826,-8.656237,-3.5757403,-1.4596521,-9.630133,1.14034561409347466382,1.9985598,-6.3260794,-0.09816227,-1.2872376,-9.690483,0.779720661409347466383,3.2070332,-7.3723454,-1.1641805,-1.0569389,-9.721484,0.73892451409347466384,5.351041,-8.043321,-2.7449522,-0.7018077,-9.764754,0.57222061409347466414,7.501034,-7.820061,-2.971803,-0.14968319,-9.802814,0.229920521409347466415,8.426991,-8.251018,-3.6996403,0.56074023,-9.790122,-0.0974544141409347466417,7.297527,-9.289502,-4.9416323,1.326527,-9.707058,-0.428628741409347466435,5.2606597,-9.3499565,-4.68665,1.9212027,-9.578986,-0.84994511409347466436,3.9294837,-8.49343,-3.8827965,2.294435,-9.457961,-1.20537131409347466440,3.5996823,-7.951742,-3.1591492,2.5189068,-9.362632,-1.47194951409347466470,3.4201171,-7.735666,-2.2631192,2.670887,-9.285578,-1.67772691409347466471,3.436278,-7.855376,-1.5801731,2.7837071,-9.229541,-1.79915311409347466473,2.918532,-8.403049,-1.021127,2.8960745,-9.186745,-1.84033981409347466479,2.180519,-9.217676,-0.7751228,2.9516058,-9.174665,-1.81215761409347466497,1.721431,-10.253767,-0.6937199,2.9044485,-9.20308,-1.74296191409347466511,1.38325,-11.673529,-0.78170687,2.8087318,-9.250514,-1.646041409347466512,0.83856916,-13.138182,-1.2336124,2.643449,-9.317451,-1.53873111409347466527,0.05207389,-13.43626,-1.9788077,2.4089215,-9.395395,-1.44706811409347466554,-0.30286652,-12.306795,-2.260725,2.1258001,-9.470137,-1.40280281409347466555,-0.29388827,-11.158177,-2.2631192,1.865338,-9.528039,-1.38106861409347466556,-0.18734628,-10.120291,-2.1338322,1.643419,-9.567853,-1.38771221409347466560,-0.30885202,-9.138668,-2.1894975,1.4634596,-9.59,-1.43547421409347466583,-0.43035775,-8.944139,-2.5845408,1.3013053,-9.603565,-1.49951671409347466584,-0.62368953,-9.473258,-2.7856536,1.1338096,-9.60466,-1.62338451409347466594,-0.6727707,-10.179547,-2.2050598,0.9497221,-9.600445,-1.76063791409347466610,-1.8806454,-9.996989,3.7391446,0.7674629,-9.603914,-1.8292661409347466612,-5.4019175,-10.093356,2.4528596,0.52297294,-9.700628,-1.33968971409347466630,-5.781997,-11.07438,1.3102269,-0.055663437,-9.75767,-0.97733521409347466631,-3.5649664,-10.890026,0.60932434,-0.6133824,-9.758337,-0.75431851409347466646,-1.6382325,-10.006566,-0.044891283,-0.8767343,-9.744764,-0.66429041409347466661,-0.89064306,-9.34038,-2.392406,-0.97734284,-9.731711,-0.71344581409347466661,-0.6817489,-8.977059,-3.875614,-0.9819924,-9.709119,-0.96905721409347466679,-0.49799395,-8.685565,-3.705027,-0.9359157,-9.676091,-1.29138021409347466680,-0.6739678,-8.792706,-3.0681696,-0.86072314,-9.643725,-1.55823721409347466696,-1.3108255,-9.388862,-2.552219,-0.80767685,-9.617849,-1.73638191409347466709,-1.5807717,-9.583989,-2.2649148,-0.82284844,-9.599371,-1.82904091409347466713,-1.6280571,-9.853337,-2.0649989,-0.886782,-9.58445,-1.87678351409347466726,-1.7100586,-10.533889,-1.9075803,-0.93203884,-9.577884,-1.88835121409347466743,-1.8207904,-11.402386,-1.3814543,-1.0043457,-9.573939,-1.87119321409347466744,-1.9548657,-12.28824,-0.14903906,-1.0760525,-9.578776,-1.8054281409347466763,-2.695871,-13.069348,2.184709,-1.1412042,-9.602157,-1.63298241409347466764,-3.2106245,-12.922704,5.2852,-1.2551161,-9.642014,-1.27539471409347466780,-3.3674448,-13.33271,7.421427,-1.3991376,-9.680693,-0.704986631409347466780,-3.5464113,-13.833098,13.266272,-1.5331972,-9.685743,-0.077891051409347466796,-3.5739446,-14.326304,19.317019,-1.6610482,-9.619166,0.93964441409347466813,-5.1523223,-13.53921,7.6853876,-1.682506,-9.650837,0.44824911409347466814,-6.6666546,-12.639589,-6.6085954,-2.043362,-9.259527,2.50124451409347466833,-6.895301,-13.292608,-11.740566,-2.3921654,-9.311346,1.93565541409347466834,-5.614403,-13.135788,-8.3629465,-2.653475,-9.381676,1.05527971409347466840,-6.099229,-14.0234375,-2.4959552,-2.7601268,-9.402033,0.392259781409347466870,-5.7544637,-14.315531,2.771887,-2.8561873,-9.380752,0.1187529341409347466871,-4.821324,-15.021221,9.602545,-2.923947,-9.355986,0.29399611409347466872,-4.5980644,-17.1772,13.523049,-2.894317,-9.327859,0.885638651409347466880,-4.167108,-17.396269,11.5394535,-2.8834703,-9.333622,0.85993021409347466894,-3.9438488,-16.172832,5.7149596,-2.769622,-9.120551,2.305461409347466911,-3.6750996,-14.702792,-0.25977087,-2.771968,-9.065374,2.51108931409347466912,-3.46022,-13.472173,-3.2315738,-2.8096185,-9.103123,2.32584621409347466929,-4.222773,-12.628816,-3.2573113,-2.8313482,-9.1822405,1.95967661409347466946,-4.419098,-11.58674,-5.3282957,-2.8745613,-9.234853,1.62011671409347466946,-3.3728316,-11.474212,-6.91625,-2.9396813,-9.281911,1.17251651409347466965,-2.1027076,-11.720815,-6.2105594,-2.9588203,-9.3298435,0.60810971409347466966,-1.5711949,-11.155783,-4.931457,-2.9043674,-9.36596,0.117503521409347466972,-1.3940239,-10.703279,-4.7285485,-2.8209524,-9.388842,-0.249570981409347466980,-0.89662856,-11.409568,-4.9703627,-2.7288995,-9.402984,-0.55443131409347466992,-0.30166942,-13.224373,-4.775235,-2.5917299,-9.420101,-0.84559861409347467012,0.30885202,-17.77156,-2.7539306,-2.3911548,-9.448231,-1.08798871409347467014,1.3359646,-19.608511,1.6118963,-2.099941,-9.513852,-1.11679741409347467045,6.1620765,-19.608511,4.895544,-1.747894,-9.614627,-0.821105961409347467046,7.451354,-19.032707,2.930503,-1.1120491,-9.737493,-0.33903851409347467047,1.9572599,-12.006922,-7.5842323,-0.46902534,-9.795201,-0.0667494761409347467070,0.8936358,-11.396998,-9.051279,-0.25159663,-9.787222,-0.5633681409347467070,1.234211,-10.578181,-5.337274,-0.10307518,-9.73915,-1.14400291409347467073,2.6198552,-9.052477,-2.7760768,0.012464929,-9.696501,-1.46564771409347467080,4.1641154,-7.395689,-2.9239187,0.1683274,-9.67214,-1.60989311409347467093,4.185663,-6.51582,-4.853047,0.440254,-9.641437,-1.73760651409347467108,3.5452142,-5.400122,-5.7323174,0.7176364,-9.572046,-2.00781231409347467112,2.054225,-5.1385555,-6.384139,0.965322,-9.475803,-2.3340341409347467123,1.99437,-5.1020436,-3.6134489,1.1009563,-9.361438,-2.70588351409347467142,1.567005,-5.1487308,-2.8215668,1.2193655,-9.297864,-2.86936711409347467142,1.4077905,-5.185242,-2.195483,1.2692131,-9.246878,-3.00910351409347467160,1.6352397,-5.180454,-1.8818425,1.2879417,-9.214386,-3.09946131409347467161,1.6627731,-4.912902,-1.9081788,1.3397733,-9.196632,-3.13007781409347467178,2.0817583,-4.0821137,-1.4454993,1.4209118,-9.176131,-3.15436081409347467180,3.1794999,-3.2154129,-0.8194155,1.5681944,-9.152905,-3.15206721409347467194,4.346673,-2.2176294,-1.7753005,1.8732327,-9.110285,-3.10871551409347467211,5.267244,-1.4490906,-2.3050177,2.335936,-8.968452,-3.20634941409347467212,6.1943984,-0.9235633,-2.3463178,2.9389799,-8.725664,-3.37573031409347467226,6.7708025,-0.47524905,-2.8377275,3.6772702,-8.37737,-3.53096871409347467241,6.9090676,-0.24480712,-3.8019924,4.459632,-7.8962917,-3.732381409347467241,6.7989345,-0.17238252,-4.3197384,5.1614475,-7.3068743,-4.0173931409347467261,6.3404446,-0.40581718,-4.138976,5.752892,-6.6533885,-4.33671051409347467261,5.542577,-1.3275849,-3.7487214,6.2166977,-6.0532017,-4.5696651409347467275,4.956596,-3.1004913,-2.8030117,6.497883,-5.6257544,-4.7221591409347467280,4.2957964,-6.139332,0.8283938,6.6319685,-5.4815316,-4.7053381409347467295,-0.3172317,-14.483724,14.45619,6.6860247,-5.845834,-4.15856741409347467314,-15.908273,-19.608511,19.282303,6.061319,-7.538502,-1.61299931409347467326,-19.60911,-19.608511,15.263036,6.2172117,-7.3563237,-1.84422911409347467327,-19.60911,-19.608511,12.127829,6.341337,-7.1848736,-2.08216881409347467343,-16.489466,-16.827646,4.2760444,6.372492,-7.094534,-2.28677651409347467344,-8.697536,-6.889914,2.5516205,6.295016,-7.0984426,-2.48098851409347467361,-6.287772,-4.374805,6.915053,-3.9270163,-8.475278,2.9864031409347467361,-3.7086184,-5.5760956,7.773973,-4.250055,-8.191712,3.31711651409347467377,0.30585927,-7.704541,4.283227,-4.187429,-8.034394,3.7529111409347467393,5.4378304,-9.829993,-0.06823475,-3.7787213,-8.150184,3.93270371409347467394,9.698313,-14.659697,-7.185598,-2.9521935,-8.581358,3.71688371409347467410,9.122507,-15.780184,-11.464036,-1.7095973,-9.268027,2.71133921409347467412,6.6445084,-11.914146,-8.776545,-0.59397423,-9.697706,1.33119491409347467426,2.1577742,-10.7990465,1.376666,0.15608804,-9.798039,0.380112831409347467443,-1.039682,-15.344439,6.576872,0.38397557,-9.789672,0.43043961409347467443,0.073621705,-15.985486,-0.06584055,0.26432982,-9.762418,0.89202541409347467460,0.7380127,-14.551958,-1.0193313,0.23782647,-9.775588,0.74276311409347467461,1.2755109,-11.659762,-0.75237787,0.25121993,-9.786079,0.58303371409347467476,2.802413,-9.13388,-1.240795,0.32498372,-9.788474,0.500572261409347467491,5.5204306,-6.320094,-1.1761516,0.5360028,-9.785871,0.346218171409347467494,4.945224,-7.4375877,-1.9009962,0.99371004,-9.753828,0.213936181409347467517,4.225766,-8.404845,-2.8652608,1.3825669,-9.708635,0.0360743551409347467519,3.6284127,-8.212111,-3.3129766,1.7023118,-9.65506,-0.22872051409347467522,3.3393128,-7.877522,-2.930503,1.9503524,-9.596775,-0.518107951409347467562,3.3441012,-8.101978,-2.3666685,2.1344676,-9.541441,-0.758514761409347467564,3.2381577,-8.528745,-1.5556326,2.2860987,-9.491017,-0.929920551409347467565,2.8622682,-9.105149,-1.1887212,2.4006813,-9.453495,-1.01909821409347467566,2.393603,-9.837775,-1.1905168,2.4604437,-9.432837,-1.06687761409347467583,1.9207484,-10.673351,-1.1522095,2.4635296,-9.428217,-1.1000891409347467584,1.2850877,-11.223419,-1.0450691,2.4099925,-9.440906,-1.10979661409347467592,0.4830302,-11.581352,-1.2240356,2.2905254,-9.472649,-1.09216051409347467611,-0.26396075,-11.631032,-1.6897079,2.0988085,-9.518376,-1.0797851409347467624,-0.6619968,-11.192294,-1.9740193,1.8518788,-9.567733,-1.09517481409347467625,-0.52253455,-9.933543,-2.1697452,1.5996326,-9.607114,-1.14670221409347467638,-0.56084174,-8.934562,-2.5222914,1.3954313,-9.634949,-1.17936931409347467640,-0.65660983,-9.144653,-2.9747956,1.2095655,-9.650665,-1.25378661409347467661,-0.8158242,-9.667188,-3.168726,1.0280704,-9.654567,-1.37942311409347467661,-0.7565677,-10.177153,-3.5703533,0.8490047,-9.648915,-1.53231661409347467674,-1.1067197,-10.445304,-3.2632968,0.6898551,-9.628666,-1.72722131409347467689,-3.6493618,-10.92594,-3.2531216,0.51201385,-9.611092,-1.88020411409347467694,-10.247183,-12.712612,-5.921459,0.10582535,-9.604689,-1.97716061409347467708,