time,acc_x,acc_y,acc_z,gravity_x,gravity_y,gravity_z1409347285245,2.7581203,-9.882666,1.8830396,3.0058017,-9.161249,1.79083131409347285280,2.7407625,-9.985617,2.0410569,3.001808,-9.163468,1.78617311409347285281,2.6994624,-9.985617,2.1290438,2.9963672,-9.165426,1.78526091409347285283,2.6916811,-9.858126,2.132635,2.9916883,-9.167075,1.78463971409347285286,2.5929205,-9.884461,2.1631613,2.9881554,-9.168542,1.78302111409347285320,2.516306,-9.942521,2.1799207,2.981469,-9.171026,1.78144161409347285322,2.52289,-9.9951935,2.0811598,2.9713774,-9.174689,1.77943661409347285323,2.5863364,-9.936536,1.8483237,2.9584477,-9.179544,1.77593981409347285340,2.6725276,-9.843162,1.6932992,2.943988,-9.18501,1.77170181409347285341,2.8018146,-9.759963,1.6220716,2.9266446,-9.191726,1.76559481409347285345,2.9801826,-9.642049,1.6184803,2.904542,-9.19985,1.75976411409347285371,3.1591492,-9.5732155,1.8028339,2.8792965,-9.209117,1.75277141409347285373,3.3369186,-9.5798,2.0536265,2.851987,-9.219408,1.74328891409347285378,3.4901476,-9.470863,2.268506,2.8245864,-9.230312,1.73015051409347285386,3.6290112,-9.252991,2.3660698,2.799305,-9.24123,1.71287191409347285413,3.7511156,-9.129091,2.4079683,2.7775233,-9.251538,1.69257391409347285414,3.8510735,-9.100361,2.4103625,2.7581072,-9.261199,1.6713581409347285420,3.8881836,-9.062652,2.4480712,2.7399542,-9.270121,1.65164231409347285460,3.9013517,-9.0016,2.4384944,2.7225587,-9.278105,1.63548931409347285461,3.846285,-8.82802,2.4420857,2.7067752,-9.284861,1.62331131409347285462,3.7259765,-8.662222,2.463035,2.6925569,-9.290438,1.61502551409347285463,3.6409822,-8.736442,2.5330653,2.67966,-9.294893,1.61082771409347285468,3.5966895,-9.101558,2.6563668,2.668192,-9.298193,1.610821409347285520,3.5212722,-9.426571,2.6611552,2.658682,-9.300212,1.61489181409347285521,3.4278982,-9.518148,2.4468741,2.6493332,-9.301698,1.62168281409347285522,3.2992098,-9.332599,2.15538,2.6418748,-9.301871,1.63280341409347285522,3.2022448,-9.213487,1.9357121,2.6358836,-9.300482,1.65031771409347285523,3.177704,-9.316438,1.9500773,2.6307027,-9.297771,1.67369331409347285537,3.1028855,-9.420585,2.0440497,2.6249552,-9.294246,1.70205761409347285552,3.0023289,-9.465476,2.1332338,2.619307,-9.289947,1.73393571409347285552,2.955642,-9.45171,2.1021092,2.6165147,-9.284174,1.76871491409347285564,2.9430726,-9.481637,2.0374656,2.6160655,-9.277707,1.8029851409347285565,2.9059622,-9.534309,2.0231004,2.6176238,-9.270156,1.83919291409347285599,2.823961,-9.61691,2.0841527,2.619613,-9.262,1.87707131409347285600,2.7491422,-9.662998,2.1122844,2.6212919,-9.253288,1.91726221409347285600,2.6898856,-9.7162695,2.1003134,2.6233776,-9.244084,1.95835781409347285620,2.669535,-9.826403,1.9877859,2.6262884,-9.234344,1.99997031409347285621,2.641403,-9.929952,1.8537107,2.6294658,-9.2244005,2.04125241409347285648,2.658761,-9.953894,1.6921021,2.631704,-9.214342,2.08337041409347285649,2.6689363,-9.824607,1.5197195,2.6333365,-9.2043705,2.12496731409347285650,2.6611552,-9.655815,1.4275428,2.633935,-9.194275,2.16751031409347285675,2.7114334,-9.712678,1.4215573,2.6377392,-9.166435,2.27797771409347285676,2.7700913,-9.859921,1.5125369,2.6377392,-9.166435,2.27797771409347285677,2.8209682,-9.978435,1.5095441,2.6377392,-9.166435,2.27797771409347285685,2.8802247,-10.02153,1.4508862,2.6422336,-9.15875,2.3035391409347285705,2.8628666,-10.110714,1.4407109,2.6481547,-9.152173,2.3227981409347285706,2.8496985,-9.879075,1.2569559,2.6533961,-9.146511,2.33906361409347285720,2.741361,-9.872491,1.2797008,2.660029,-9.142069,2.34887961409347285747,2.6156654,-9.807847,1.3060371,2.6659408,-9.138421,2.35635421409347285749,2.4995465,-9.81503,1.3479356,2.6707857,-9.13584,2.36087011409347285750,2.4199393,-9.946711,1.4335283,2.6744843,-9.134658,2.3612581409347285779,2.3475149,-10.041282,1.5275006,2.676678,-9.134977,2.35753561409347285780,2.291251,-9.949704,1.5514427,2.6771393,-9.136553,2.35089871409347285782,2.32058,-9.77792,1.5275006,2.6756222,-9.138854,2.34366371409347285786,2.3361423,-9.718663,1.5394717,2.6738288,-9.141809,2.33416841409347285813,2.3983915,-9.715072,1.6394296,2.669826,-9.1458435,2.32292721409347285814,2.4881742,-9.726444,1.8142064,2.664683,-9.150488,2.31051021409347285819,2.6120741,-9.731832,1.9991584,2.66059,-9.155147,2.29672861409347285835,2.710835,-9.69951,2.1254525,2.6587586,-9.160065,2.27916741409347285855,2.758719,-9.618107,2.1877017,2.658871,-9.165446,2.2572971409347285856,2.771887,-9.533113,2.190096,2.6601903,-9.170989,2.23309921409347285858,2.795829,-9.490616,2.1601684,2.6619139,-9.176341,2.20893051409347285865,2.819771,-9.464279,2.1499932,2.6640923,-9.181527,2.18462511409347285893,2.8209682,-9.409811,2.1871033,2.6659439,-9.18648,2.16142131409347285894,2.8311436,-9.342773,2.2499511,2.6672359,-9.191247,2.13944441409347285900,2.8245595,-9.332599,2.284667,2.6685581,-9.195732,2.11842131409347285922,2.8455088,-9.317036,2.284667,2.6706672,-9.199866,2.09770871409347285923,2.8299465,-9.279327,2.3062148,2.674559,-9.203337,2.07743291409347285925,2.882619,-9.248202,2.284667,2.679685,-9.206046,2.0587321409347285951,2.9520507,-9.245809,2.2798786,2.6857116,-9.208252,2.04093891409347285952,3.0119057,-9.256582,2.2643163,2.6926877,-9.209759,2.0248821409347285966,3.0538042,-9.277532,2.3002293,2.700126,-9.210635,2.0109511409347285967,3.0657754,-9.281123,2.3678656,2.707594,-9.21079,2.00016931409347285983,3.098097,-9.296086,2.3989902,2.7160738,-9.209766,1.99337461409347285985,3.1022868,-9.276335,2.3463178,2.7267241,-9.207478,1.98940921409347286004,3.0831332,-9.222465,2.2936451,2.7386796,-9.204317,1.98760711409347286021,3.0579941,-9.3182335,2.3373394,2.7513688,-9.200689,1.98687851409347286026,3.0244753,-9.498995,2.3953989,2.7645392,-9.195842,1.99103531409347286027,2.9454668,-9.570822,2.3421278,2.7787683,-9.189815,1.99904161409347286055,2.896984,-9.569026,2.2272062,2.7936444,-9.182998,2.00959561409347286056,2.9101522,-9.617508,2.1200657,2.8082612,-9.175699,2.02252461409347286059,2.9813797,-9.728839,2.0871453,2.8221092,-9.168353,2.03651791409347286066,3.0723593,-9.860519,2.110489,2.8347044,-9.161528,2.0496951409347286091,3.117849,-9.8916445,2.195483,2.8455987,-9.155589,2.06110741409347286092,3.141791,-9.838972,2.2110453,2.856493,-9.149863,2.07143741409347286100,3.1986535,-9.683349,2.11827,2.8662665,-9.144936,2.0796821409347286126,3.2674868,-9.476849,1.9716251,2.8756225,-9.140604,2.08579661409347286127,3.311181,-9.369708,1.8956091,2.8839662,-9.13663,2.09168771409347286128,3.3716345,-9.291897,1.927931,2.8907363,-9.133282,2.09694741409347286160,3.453636,-9.25359,1.9746178,2.8972132,-9.130427,2.10044151409347286166,3.602675,-9.223662,2.0266917,2.903275,-9.128516,2.10037641409347286172,4.0066967,-9.230247,2.071583,2.9106238,-9.126899,2.09723141409347286173,4.2036195,-9.229049,2.1398177,2.9195483,-9.125333,2.09163171409347286193,4.4059296,-9.223662,2.2242134,2.929728,-9.123774,2.08419511409347286193,4.586692,-9.210494,2.4013844,2.941277,-9.121944,2.07590771409347286200,4.6698904,-9.200318,2.6408045,2.9547644,-9.119241,2.06862781409347286221,4.631583,-9.118318,2.813187,2.9702177,-9.115374,2.06353121409347286222,4.505289,-9.102157,2.9215245,2.988021,-9.11002,2.0614671409347286226,4.359243,-9.203311,2.819771,3.0082104,-9.102647,2.0646761409347286256,4.180875,-9.26556,2.5510218,3.0276225,-9.094739,2.07113961409347286256,3.9797618,-9.156026,2.296638,3.048219,-9.085188,2.08282071409347286260,3.7020345,-9.134478,2.131438,3.0667794,-9.073975,2.10433751409347286266,3.4117374,-9.162011,2.0518308,3.0812194,-9.061448,2.13696361409347286287,3.283049,-9.136872,1.9895816,3.0922482,-9.048113,2.1771661409347286288,3.2638955,-9.101558,1.9596541,3.1007953,-9.035063,2.21880721409347286299,3.276465,-9.169792,2.0284874,3.105445,-9.023374,2.2595021409347286324,3.2022448,-9.241618,2.1051018,3.1078281,-9.012143,2.30066541409347286326,3.1836896,-9.294889,2.0602105,3.1062381,-9.00156,2.3438441409347286327,3.2112231,-9.34038,1.9147629,3.10396,-8.990797,2.3877561409347286358,3.3985693,-9.21229,1.5885528,3.1029902,-8.979686,2.43045231409347286360,3.4380736,-9.431957,1.6932992,3.103146,-8.968264,2.47207141409347286362,3.5410242,-9.500791,1.8782512,3.100171,-8.957594,2.51412651409347286366,3.6511576,-9.518747,1.9297266,3.0958996,-8.94768,2.5543751409347286393,3.7020345,-9.533711,1.8106151,3.0910068,-8.939001,2.59043571409347286394,3.6056678,-9.673173,1.7932571,3.086015,-8.931067,2.62353541409347286398,3.345897,-9.682152,1.858499,3.0772576,-8.924643,2.65549141409347286424,3.1705215,-9.615114,1.7130513,3.0633934,-8.919257,2.68939661409347286426,3.031658,-9.616311,1.5514427,3.0454175,-8.914903,2.72403051409347286427,2.9658175,-9.60853,1.4532804,3.0224154,-8.912001,2.75891831409347286458,2.8892028,-9.5253315,1.4742297,2.9936347,-8.91101,2.7932871409347286459,2.8491,-9.441534,1.5149311,2.9586816,-8.91258,2.82533221409347286460,2.8455088,-9.364322,1.560421,2.9209208,-8.915377,2.85563951409347286466,2.8862102,-9.190144,1.5328877,2.8799376,-8.921111,2.87925931409347286490,2.971803,-9.118916,1.6035166,2.836991,-8.929776,2.8949921409347286491,3.0508115,-9.066243,1.6897079,2.7929013,-8.940861,2.90363651409347286500,3.140594,-9.041104,1.8249803,2.7488978,-8.9537945,2.90577551409347286527,3.2573113,-9.083601,1.9680338,2.706289,-8.967893,2.9022941409347286528,3.3650506,-9.002797,2.1559787,2.6667278,-8.982542,2.89359621409347286529,3.453636,-9.033921,2.3493104,2.6299844,-8.997195,2.88167571409347286559,3.5954924,-8.983045,2.4372973,2.5963166,-9.011252,2.8682551409347286560,3.7541082,-9.043498,2.6240451,2.5660582,-9.024537,2.8536751409347286562,3.8241386,-9.062054,2.7126305,2.5411148,-9.036599,2.8377791409347286566,3.8959646,-9.017162,2.6713305,2.5203657,-9.047818,2.82047991409347286580,4.0078936,-9.018958,2.5420437,2.5039895,-9.057907,2.80263231409347286596,4.110844,-9.167398,2.5959132,2.4903076,-9.067168,2.78482081409347286599,4.213795,-9.088389,2.556409,2.4778614,-9.0755625,2.76853281409347286613,4.3155484,-9.114726,2.52289,2.467042,-9.083231,2.75300051409347286630,4.5005007,-9.24521,2.60968,2.4579809,-9.090033,2.73862081409347286630,4.537611,-9.40203,2.859874,2.4518757,-9.095223,2.72683171409347286645,4.3760023,-9.541492,3.0442274,2.4474845,-9.098867,2.71860271409347286646,4.120421,-9.874287,3.3010056,2.4443285,-9.101428,2.71287231409347286666,3.750517,-9.871892,3.5422213,2.4430292,-9.102614,2.7100581409347286667,3.459023,-9.595362,3.4045548,2.441994,-9.102105,2.71269871409347286680,3.318962,-9.375095,3.0400376,2.440772,-9.099976,2.72093341409347286691,3.2196028,-9.191938,2.6527755,2.4365385,-9.097373,2.73340151409347286697,3.1226375,-9.235035,2.4654293,2.4307454,-9.092567,2.75446371409347286712,3.13401,-9.389461,2.521693,2.418344,-9.086198,2.7862181409347286725,3.2273839,-9.606135,2.7808652,2.4000578,-9.079795,2.82266621409347286726,3.4165258,-9.907207,3.0735564,2.3781896,-9.075291,2.85547021409347286743,3.6433764,-10.262147,3.328539,2.3557982,-9.073299,2.88025211409347286746,3.8893807,-10.562021,3.4063504,2.333706,-9.072544,2.9005421409347286766,4.2640734,-10.718841,3.229778,2.3121555,-9.072084,2.91918181409347286767,4.747702,-10.827179,2.8616695,2.2937346,-9.07027,2.93928171409347286781,5.385158,-11.040861,2.5264814,2.278145,-9.0668,2.9620251409347286799,6.0369797,-11.224017,2.2224178,2.2664154,-9.061025,2.98857521409347286799,6.8869214,-11.534665,2.100912,2.2621279,-9.0524645,3.01762411409347286816,7.8745294,-11.969811,-0.40342298,2.274162,-9.039133,3.04838941409347286828,8.838794,-12.088325,-8.371326,2.3117988,-9.027493,3.05456471409347286828,8.968081,-11.991359,-15.048755,2.3899834,-9.03911,2.95852071409347286849,7.477092,-12.534245,-12.147581,2.4831026,-9.082933,2.73950621409347286849,6.8121023,-12.434286,-2.7623103,2.529434,-9.116443,2.58124161409347286861,7.36636,-11.383232,2.6629508,2.540017,-9.133575,2.5092821409347286866,7.2951326,-9.886257,3.0699651,2.577975,-9.15501,2.38961051409347286879,6.7803793,-9.539697,1.0324994,2.652391,-9.178109,2.21303221409347286895,5.418677,-9.841965,0.12749124,2.7471254,-9.193738,2.02456781409347286899,4.7614684,-10.42615,1.4036007,2.8372164,-9.201581,1.85782071409347286914,4.547786,-11.251551,2.8419175,2.9269488,-9.20223,1.70947841409347286929,4.1419687,-11.732187,3.721188,3.016595,-9.197989,1.57084481409347286929,3.532046,-12.336722,4.216788,3.108394,-9.189057,1.43858171409347286945,2.8640637,-12.95323,4.2515035,3.2006881,-9.176003,1.31412531409347286946,3.0657754,-12.917316,3.965995,3.2876847,-9.1617365,1.19336871409347286962,3.2632968,-13.416508,3.1064768,3.372063,-9.146309,1.06986421409347286966,3.4632127,-13.980342,2.693477,3.4470904,-9.133346,0.93271871409347286979,3.5871127,-14.265252,2.2894554,3.5168967,-9.120862,0.78211661409347286996,3.2477345,-13.935451,1.7675194,3.5833373,-9.106911,0.627892261409347286998,3.0663738,-13.444639,1.4838065,3.648503,-9.091345,0.454122071409347287013,3.3369186,-12.37084,1.4987702,3.7154415,-9.07117,0.282456761409347287033,3.4111388,-10.9343195,1.4431051,3.787875,-9.044617,0.131481191409347287034,3.1705215,-9.848549,2.2212207,3.8625486,-9.013938,0.0084621241409347287040,2.949058,-9.266159,3.2632968,3.9388702,-8.980415,-0.088342881409347287046,2.9125464,-8.932767,4.1317935,4.0217304,-8.942355,-0.174225521409347287064,2.6623523,-8.977059,5.2875943,4.1140847,-8.898328,-0.253850251409347287066,1.7381904,-9.255983,4.993108,4.2082267,-8.851513,-0.334603731409347287083,1.5113398,-8.704121,2.7036524,4.302371,-8.802477,-0.420036261409347287097,1.7561469,-8.095394,0.9475053,4.401189,-8.74766,-0.52763271409347287098,1.7788919,-7.7823524,0.15023616,4.500948,-8.691433,-0.60898471409347287115,1.3084313,-7.3448124,0.45669398,4.5921135,-8.641138,-0.64314541409347287127,1.0959458,-6.9210386,1.5089456,4.6757545,-8.595796,-0.64809041409347287128,1.0103531,-6.583456,2.9700072,4.757455,-8.550623,-0.651048061409347287146,0.7140707,-6.4266357,3.34051,4.8343463,-8.50532,-0.677511451409347287147,0.05925649,-6.4469867,2.285864,4.9043837,-8.461137,-0.7256671409347287162,-0.82240826,-6.3045316,1.1390414,4.9604087,-8.420152,-0.815970661409347287187,-1.3700819,-5.9292407,0.8738836,5.0072274,-8.38243,-0.91264651409347287189,-1.9009962,-5.8639984,1.3012487,5.0542617,-8.346142,-0.98322661409347287189,-2.1625626,-5.876568,1.8034325,5.0994096,-8.3132105,-1.0280811409347287226,-2.3080103,-5.9370217,2.1601684,5.1399,-8.283737,-1.06371641409347287227,-1.9829975,-5.899313,2.0189106,5.1740384,-8.258072,-1.09725341409347287228,-1.1731589,-5.910087,1.6519991,5.205084,-8.233793,-1.1323081409347287229,-0.45669398,-6.1064115,1.1414356,5.229181,-8.214884,-1.15834471409347287248,0.44232875,-6.215946,0.47764325,5.2407813,-8.20533,-1.17352651409347287249,1.4706384,-6.318897,-0.023343466,5.241628,-8.2034,-1.18319681409347287268,2.528277,-6.5481415,-0.736217,5.2331185,-8.207667,-1.19124771409347287269,3.9228995,-7.0515227,-1.8231846,5.215149,-8.218507,-1.19530281409347287279,6.021417,-7.6584525,-2.44448,5.189365,-8.234793,-1.19544461409347287302,8.426991,-7.917625,-2.0524294,5.16798,-8.248718,-1.19207541409347287302,10.333973,-8.5060005,-0.80325466,5.1513667,-8.261499,-1.17535961409347287307,12.074557,-9.826403,-2.5462334,5.1439247,-8.273924,-1.11920491409347287339,13.796587,-12.209231,-5.3282957,5.152531,-8.278898,-1.0400391409347287340,15.478514,-14.920665,-8.334815,5.1791945,-8.273838,-0.94335871409347287341,16.146496,-15.096639,-9.576208,5.150252,-8.311684,-0.74914281409347287347,15.00506,-12.631808,-8.305486,5.1406465,-8.332125,-0.565562671409347287370,12.1840925,-10.1861315,-5.412093,6.0094814,-7.477849,-2.03427931409347287371,9.176975,-7.8547773,-2.2655134,6.170517,-7.2792583,-2.25997691409347287380,6.0926447,-6.5738792,1.4957775,6.305729,-7.156637,-2.27831391409347287396,2.9257145,-6.9090676,5.609016,6.35962,-7.1762466,-2.0559881409347287420,-0.57281274,-10.4010105,6.4140663,6.284812,-7.380281,-1.48423791409347287421,-2.2517467,-13.982737,4.751293,5.8560786,-7.8252172,-0.80168171409347287423,-2.3199813,-15.070901,3.3877954,5.1330447,-8.3518095,-0.26373161409347287427,-1.6903064,-16.113577,0.98461545,4.366988,-8.780048,0.102800161409347287452,2.3720553,-16.548721,-7.597999,3.659342,-9.096429,0.186021761409347287453,4.0581717,-15.448586,-5.3300915,3.3365333,-9.210073,-0.46100031409347287459,0.56443304,-14.487314,1.5999253,3.1840475,-9.23661,-0.84690561409347287491,-0.11372458,-12.609662,3.8235402,2.8709965,-9.351499,-0.69083491409347287492,0.30226797,-10.655395,3.1334114,2.5917099,-9.4508505,-0.367257241409347287493,-0.56682724,-9.485827,2.4762032,2.3841345,-9.512308,-0.0476038271409347287524,-1.6723499,-9.294291,2.4821887,2.1491344,-9.565439,0.232352811409347287525,-2.1296425,-9.297284,2.148796,1.8396714,-9.621111,0.469299351409347287526,-1.3623008,-8.206725,0.4201824,1.4970034,-9.671198,0.63032541409347287527,-0.8702923,-7.8972745,0.003591303,1.2280848,-9.709244,0.626730741409347287543,-0.5662287,-8.011598,-0.021547815,1.012398,-9.737305,0.574757341409347287547,-0.35793316,-8.494628,0.08619126,0.8459042,-9.756878,0.508119641409347287561,-0.25318682,-9.43495,0.12330139,0.7229725,-9.769965,0.442142371409347287579,-0.1316811,-10.692505,0.1340753,0.62247705,-9.779614,0.376930451409347287580,0.45968673,-11.825561,-0.23104046,0.53592694,-9.786969,0.313699631409347287595,1.5292963,-12.476185,-0.5482722,0.50263304,-9.791023,0.2315411409347287599,2.789245,-12.4289,-0.054468088,0.5654556,-9.78969,0.11238481409347287611,3.7642837,-11.870452,1.0055647,0.7293136,-9.779376,0.0480467861409347287641,4.4502225,-11.188704,1.7022774,0.9673961,-9.758528,0.0752043351409347287642,4.856638,-10.470443,3.0292637,1.2548655,-9.724772,0.156484191409347287642,4.8698063,-9.842564,5.954978,1.5727792,-9.673104,0.35755041409347287647,4.3885717,-9.436746,6.42903,1.8865957,-9.589227,0.8110821409347287661,3.9121256,-9.464279,9.921572,2.1392252,-9.483748,1.28553891409347287692,7.241263,-8.610147,7.493851,2.3133893,-9.316393,2.00584821409347287693,7.4567413,-8.098986,4.550779,2.7477849,-9.084756,2.46723941409347287693,7.0227923,-7.4327993,3.5458126,3.153394,-8.894484,2.66733151409347287724,6.482301,-6.8881183,2.7964275,3.5139232,-8.719719,2.79092071409347287724,5.5222263,-7.0766616,2.908955,3.8270762,-8.570897,2.83965041409347287725,4.695628,-7.7147164,3.264494,4.0253334,-8.464187,2.8852411409347287727,4.2305546,-8.5143795,2.7485435,4.106117,-8.401076,2.95501281409347287742,3.9641995,-8.961497,1.9548657,4.1045113,-8.397306,2.96792981409347287747,3.7708676,-9.156625,1.0474633,4.0572658,-8.436149,2.92239141409347287761,3.4566288,-9.3343935,0.39384618,4.014657,-8.506179,2.77449851409347287781,2.9095535,-9.655815,0.05327099,3.9324067,-8.5892515,2.63273981409347287782,2.7263973,-9.747394,-0.27353755,3.8215325,-8.685805,2.47448231409347287795,2.6437972,-9.760562,-0.6865373,3.719127,-8.781102,2.28707671409347287807,2.5378537,-10.067019,-0.82779527,3.6228783,-8.876021,2.0643191409347287808,2.4007857,-10.893618,-0.89064306,3.5128205,-8.96925,1.83929991409347287851,2.1523874,-11.771092,-1.0737995,3.3778114,-9.066305,1.60089931409347287852,1.8357542,-12.069171,-1.1617863,3.2054222,-9.166027,1.37098321409347287853,1.6412252,-11.83813,-1.0660183,3.0167842,-9.260618,1.14470961409347287854,1.2006922,-11.814188,-0.12569559,2.8339043,-9.340247,0.94824741409347287861,0.6422446,-12.483966,-0.05267244,2.6289098,-9.409519,0.84862761409347287880,0.39564183,-13.365631,-2.303222,2.387181,-9.481197,0.76068861409347287881,0.76315176,-13.234549,-5.2444987,2.1382167,-9.558678,0.47968091409347287896,1.2802993,-12.325949,-6.9090676,1.9457957,-9.611623,-0.0311029941409347287910,1.8183962,-11.032481,-6.4577603,1.8467236,-9.61215,-0.60543841409347287910,2.3636756,-10.534488,-4.3700166,1.8175668,-9.566409,-1.16217331409347287932,3.1172507,-11.126453,-2.3546975,1.8523186,-9.511904,-1.50433031409347287933,4.3460746,-11.692682,-0.61770403,1.925637,-9.474902,-1.63967511409347287939,6.1399302,-12.199655,1.6400281,2.0698519,-9.452707,-1.59135741409347287947,8.317456,-11.951855,4.1024647,2.3279514,-9.432726,-1.33218561409347287974,11.228806,-10.458471,5.395932,2.729957,-9.378135,-0.87651981409347287975,11.835137,-10.293272,4.2066126,3.3353474,-9.215682,-0.342117761409347287981,8.879496,-11.609484,2.321777,3.9015832,-8.996836,0.070505621409347287993,8.314464,-12.140997,-0.6913257,4.1712217,-8.868904,0.337434561409347288007,7.7709804,-12.691663,-8.722076,4.3606157,-8.777344,0.337155161409347288007,6.4864907,-14.082694,-19.075203,4.468218,-8.723958,-0.312963551409347288033,4.76925,-14.222157,-11.534067,4.482022,-8.72063,-0.180274161409347288034,4.787206,-11.671135,-2.4570496,4.2045736,-8.548411,-2.32735921409347288041,4.4418426,-11.376648,0.6368576,4.186227,-8.534475,-2.41011831409347288070,4.6830587,-10.929531,2.9939492,4.1498127,-8.597605,-2.24291409347288071,4.1018662,-11.245565,4.605247,4.1514206,-8.672069,-1.93165611409347288071,3.5260606,-11.819575,4.486734,4.108411,-8.780128,-1.48346981409347288079,3.357868,-10.648212,4.759673,4.0222826,-8.884053,-1.03208161409347288092,3.196858,-11.149199,4.905121,3.9634905,-8.951853,-0.57048461409347288110,2.9221232,-12.331934,4.9877205,3.877692,-9.006456,-0.132815641409347288111,2.348712,-14.319121,5.446809,3.748719,-9.058586,0.243925661409347288128,1.1294646,-18.30846,5.6425347,3.5399332,-9.126517,0.5881811409347288128,-1.1498153,-19.608511,5.8903346,3.1892781,-9.23098,0.88764561409347288147,-2.6090813,-19.608511,8.880095,2.7230597,-9.352452,1.13446181409347288148,-3.2411506,-19.155409,9.5253315,2.2212307,-9.429281,1.52484811409347288160,-2.9370868,-15.157092,6.867768,1.7165319,-9.470177,1.88140361409347288186,-1.7280151,-11.818378,4.333505,1.297937,-9.494405,2.08374861409347288187,-0.65062433,-10.138845,2.8413188,1.0010467,-9.501742,2.2102521409347288189,-0.45789108,-9.433753,2.4887726,0.817899,-9.496238,2.30713581409347288219,-0.7763199,-9.190742,2.1535845,0.7042644,-9.494191,2.3526031409347288219,-0.9259575,-8.902839,2.5719712,0.6283828,-9.489593,2.39231011409347288221,-0.83258367,-8.286332,4.0863037,0.560451,-9.483012,2.4349011409347288227,-0.27712885,-7.281366,4.39336,0.48776177,-9.449008,2.57851311409347288243,0.76554596,-6.2392898,2.871845,0.44644833,-9.404482,2.74350261409347288258,1.3024458,-5.920861,2.0853498,0.48580113,-9.387121,2.7957721409347288259,1.2880806,-6.0040593,0.7128736,0.56417733,-9.382418,2.79684381409347288277,1.2186487,-6.2183404,1.8920178,0.64926213,-9.406763,2.69474631409347288295,1.5424645,-6.0064535,3.095703,0.7202223,-9.399084,2.70349261409347288296,0.8170213,-5.9489927,3.0412347,0.82295716,-9.350051,2.84072261409347288310,0.09696517,-5.430648,2.6856956,0.86627495,-9.301969,2.98217491409347288310,-0.54288524,-4.869208,2.9819782,0.8497417,-9.262787,3.10630371409347288324,-1.6041151,-4.684854,3.2662897,0.7577407,-9.2162485,3.2645041409347288328,-2.4474726,-4.2281604,2.4624364,0.5301779,-9.164918,3.4487091409347288341,-3.0388405,-3.8115692,2.166154,0.20184462,-9.13495,3.56122541409347288356,-3.5649664,-3.9091327,1.9668367,-0.19511859,-9.10173,3.64565541409347288360,-3.787627,-4.1180267,2.2816741,-0.66202915,-9.058472,3.69813511409347288372,-3.5087025,-4.4274774,2.6940753,-1.1360238,-8.983168,3.7659711409347288381,-2.9257145,-4.9146976,3.2585084,-1.5385212,-8.882277,3.8611531409347288394,-2.557606,-5.701193,2.556409,-1.81864,-8.766817,4.00073341409347288407,-2.0278888,-6.351817,0.80445176,-2.0115123,-8.718031,4.01499181409347288408,-1.1438298,-7.313089,-1.8489223,-2.119524,-8.791252,3.79366521409347288434,-0.21188685,-9.340978,-6.71813,-2.1078584,-9.025608,3.20401621409347288435,13.380595,-12.692262,-14.833876,-1.938883,-9.413308,1.94955241409347288440,19.065027,-19.589357,-6.5259953,-1.9686866,-9.361558,2.15775561409347288469,19.260754,-19.608511,-8.613739,-2.0059514,-9.310164,2.33824231409347288469,15.148114,-18.1684,-5.0344076,-2.0158954,-9.279068,2.45060251409347288470,12.539632,-14.05157,-9.672575,-1.9768721,-9.266622,2.52825951409347288497,8.953716,-12.038645,-11.633426,4.516144,-8.441356,-2.1256491409347288497,4.708796,-11.394605,-7.8595657,4.64187,-8.218295,-2.6614031409347288499,2.4666264,-9.526528,-4.259285,4.5144334,-8.187049,-2.96015381409347288508,1.2707225,-6.9946604,-0.748188,4.35002,-8.228104,-3.08966231409347288549,0.88944596,-4.3502645,3.663727,4.189798,-8.321644,-3.06042861409347288551,0.35434186,-4.1156325,7.183802,4.1064196,-8.477272,-2.7282911409347288552,-2.2535424,-8.0924015,9.736021,4.037227,-8.702603,-2.0336921409347288555,-4.6351743,-13.236942,10.204686,3.6081378,-9.067278,-0.96757491409347288560,-4.248511,-16.622343,7.8954787,2.7601135,-9.408907,0.15697541409347288586,-2.3295584,-17.536928,4.608838,1.9120902,-9.57794,0.88168241409347288587,0.06404489,-18.604145,-0.694917,1.3710873,-9.639952,1.16698431409347288589,3.602675,-19.256565,-5.2409077,1.090575,-9.698181,0.9624541409347288616,3.4225113,-14.908694,-3.0771477,1.1494035,-9.728291,0.4578271409347288619,0.6512229,-11.04146,-0.6314707,1.2491926,-9.7246065,0.204791841409347288621,-2.1057005,-10.31901,1.2892777,1.2061647,-9.73106,0.148500791409347288629,-3.271078,-8.709507,2.6623523,0.9970108,-9.753091,0.231476961409347288643,-3.6367924,-7.479486,3.196858,0.7157978,-9.77164,0.416039851409347288657,-3.714604,-7.49445,3.2375593,0.3733667,-9.7777605,0.65297821409347288660,-3.8187518,-7.8344264,2.480393,0.016569223,-9.767275,0.87776211409347288686,-3.696049,-7.792528,1.1360487,-0.3645989,-9.746119,1.02499681409347288687,-3.5356374,-8.059482,0.6404489,-0.7193674,-9.7243595,1.04389051409347288689,-3.1489737,-8.573038,0.76554596,-1.0274687,-9.700266,1.0097161409347288715,-2.4199393,-9.219472,1.0570401,-1.2606719,-9.675904,0.97876921409347288718,-1.7052702,-9.820416,1.3694834,-1.395649,-9.657603,0.97634841409347288720,-1.0313023,-10.402806,1.775899,-1.4453233,-9.646949,1.00886751409347288728,-0.52133745,-10.8469305,2.243367,-1.410438,-9.64439,1.0801881409347288741,0.04129998,-11.412561,2.2750902,-1.3368757,-9.642547,1.18510191409347288758,1.3108255,-12.576741,1.4281414,-1.2075415,-9.646497,1.28737771409347288761,3.0789435,-13.552978,0.050278235,-0.9693003,-9.673031,1.2897091409347288785,3.9588125,-12.798803,-0.66379243,-0.60266364,-9.720346,1.14980981409347288786,3.643975,-11.212047,-0.37588966,-0.19229938,-9.758333,0.953075651409347288788,3.0059202,-10.348338,0.39624038,0.16823943,-9.77299,0.794208471409347288814,3.3135753,-9.953295,1.2294226,0.43103024,-9.770035,0.728714351409347288815,3.9390604,-9.175778,2.2625206,0.7087635,-9.75379,0.729112861409347288822,4.299388,-9.187749,3.2453403,1.0132477,-9.718597,0.83220791409347288828,4.969166,-9.303867,6.4152637,1.3249729,-9.66227,1.02732411409347288846,5.8723783,-8.638878,13.502699,1.6752269,-9.546118,1.49519721409347288848,6.5864487,-7.728483,7.654263,2.0595613,-9.245691,2.53885251409347288860,5.7706246,-7.955932,4.4687777,2.4608366,-8.998684,3.02296831409347288883,5.7598505,-7.7464395,3.674501,2.736341,-8.843646,3.23616461409347288886,6.227319,-7.9116397,2.9221232,2.9647307,-8.729524,3.343081409347288892,5.720945,-8.815451,0.13706805,3.238955,-8.635883,3.3318271409347288940,4.56275,-9.103952,-0.013766659,3.4406028,-8.654875,3.0701461409347288941,3.5152867,-9.422979,0.15322891,3.5369747,-8.697388,2.83119321409347288943,2.7802668,-9.591172,0.17657238,3.5433438,-8.75617,2.63525681409347288944,2.5019407,-9.542689,-0.21188685,3.488939,-8.828894,2.45933441409347288949,2.6868927,-9.581595,-0.94331545,3.4147272,-8.908466,2.26919441409347288974,2.9053638,-10.003573,-1.3910311,3.36091,-8.990649,2.01069711409347288975,2.8580782,-10.554838,-1.4730326,3.3078864,-9.0638685,1.75343941409347288975,2.7030537,-10.858303,-1.3664906,3.2408044,-9.133582,1.49841141409347288994,2.2272062,-11.1414175,-1.1073183,3.163655,-9.19671,1.2578541409347288997,1.8626889,-11.432912,-0.46866497,3.0468829,-9.262019,1.04971131409347289076,1.3575124,-11.874641,0.81642276,2.8976238,-9.324276,0.912160161409347289082,0.85532856,-12.911331,0.14185645,2.701904,-9.383681,0.90366971409347289084,0.80564886,-13.948619,-4.2622776,2.461346,-9.456253,0.83152741409347289086,1.0007763,-13.750499,-9.998186,2.2318745,-9.541202,0.393177481409347289089,1.2719196,-12.188282,-11.956643,2.043997,-9.578796,-0.489009261409347289090,2.3157916,-10.812215,-8.8777,1.9262241,-9.506614,-1.44372821409347289092,3.4769795,-11.431715,-4.6471453,1.9432428,-9.380511,-2.09766441409347289094,4.6884456,-12.734758,-1.62686,2.0327728,-9.295574,-2.37287071409347289126,6.4020953,-13.261483,1.3455414,2.1675885,-9.271142,-2.34901571409347289127,9.173983,-12.225392,5.112818,2.4064004,-9.283431,-2.04879471409347289129,11.0695915,-11.577163,7.6213427,2.8524973,-9.267237,-1.46696821409347289130,9.713276,-12.421717,8.289325,3.3988748,-9.170694,-0.71863291409347289131,8.209119,-12.404958,3.9055414,3.7538323,-9.059705,0.03025311409347289152,8.260594,-12.960412,1.3102269,3.9718654,-8.957838,0.389641141409347289153,8.049905,-13.517064,-3.4087446,4.1392927,-8.875998,0.50329211409347289154,6.4781113,-14.676456,-15.700576,4.2503505,-8.834587,0.234510761409347289160,4.413711,-15.19959,-16.45056,4.274705,-8.820751,0.302769481409347289177,3.8612487,-13.124415,-7.3112936,4.3181725,-8.798709,0.32636371409347289192,4.3287168,-12.285846,0.33518824,3.9068418,-8.6931925,-2.3098441409347289193,5.4085016,-11.522096,3.271078,3.873017,-8.729315,-2.22917131409347289211,4.923676,-11.059416,4.563947,3.9177978,-8.782502,-1.92065831409347289212,3.9552212,-11.892,3.5631707,3.9542425,-8.84877,-1.49453541409347289220,3.41892,-11.39221,3.3883939,3.9193246,-8.920179,-1.11341191409347289249,2.8299465,-11.795034,3.514688,3.8616686,-8.98164,-0.76686821409347289250,2.558803,-13.459603,3.5685577,3.752548,-9.048682,-0.458420661409347289250,1.8495208,-16.895283,4.050989,3.5933328,-9.122532,-0.19431671409347289261,-0.22026655,-19.608511,4.9440265,3.3223395,-9.226285,0.090085341409347289285,-2.6072857,-19.608511,5.7520695,2.9143248,-9.355985,0.37767071409347289286,-5.018845,-19.608511,7.2634096,2.4124148,-9.481335,0.674490631409347289292,-4.546589,-18.64305,5.823297,1.8018028,-9.585567,1.02018481409347289345,-1.881244,-14.355035,4.7159786,1.2659081,-9.647253,1.22407851409347289346,-0.17058687,-12.332533,4.9613843,0.95835024,-9.659568,1.39452781409347289348,0.98700964,-10.45069,4.1102457,0.8130048,-9.635504,1.63293291409347289349,1.2737153,-9.388862,4.3915644,0.8019699,-9.605456,1.80621891409347289350,1.3108255,-9.041104,6.555324,0.8522421,-9.556105,2.03099271409347289379,-0.30346507,-6.801927,6.081272,0.9152429,-9.471251,2.37236621409347289416,0.044292733,-6.2662244,1.8770541,0.8769744,-9.3955965,2.66909981409347289417,0.62847793,-6.0345855,0.14604631,0.865258,-9.402486,2.6485841409347289418,1.8806454,-5.7963624,0.81163436,0.86084193,-9.439493,2.5150171409347289419,2.2493525,-5.969942,2.396596,0.9464157,-9.447951,2.45171521409347289420,1.3682863,-6.5840545,1.8309658,1.0883851,-9.415522,2.5166961409347289421,1.0462662,-6.22672,1.8022354,1.1782507,-9.404049,2.51912281409347289424,0.6937199,-5.342661,2.2577322,1.2398975,-9.389655,2.54311321409347289455,0.24839842,-4.6405616,2.8634653,1.2769363,-9.36409,2.61794831409347289456,-0.3800795,-4.127005,3.7786489,1.2345525,-9.325572,2.77127811409347289457,-1.2946646,-3.6098576,4.541202,1.1260835,-9.25566,3.03892951409347289483,-2.5899277,-3.156755,4.36044,0.92350835,-9.147647,3.41146021409347289483,-3.5122938,-2.441487,4.6698904,0.56770295,-9.029241,3.78429911409347289484,-4.2838254,-2.1853075,4.5322237,0.09862355,-8.861042,4.20030741409347289489,-4.8003745,-2.344522,4.6579194,-0.4848763,-8.649343,4.5961041409347289519,-5.1756654,-2.5647886,4.848857,-1.1387376,-8.383732,4.95849941409347289521,-5.3169236,-2.859874,5.043386,-1.8062065,-8.065321,5.2781261409347289522,-5.2115784,-3.5182793,5.3181205,-2.4294689,-7.7168837,5.5423621409347289550,-5.170877,-4.3664255,4.8243165,-2.9433331,-7.3817487,5.74603841409347289551,-5.34326,-5.3995233,2.8999767,-3.3731158,-7.1402907,5.81452661409347289552,-5.3037553,-7.2125325,-0.5506664,-3.789948,-7.084431,5.62294771409347289580,-5.2008047,-10.684125,-9.391854,-4.1646647,-7.3432465,4.9902591409347289581,3.5613751,-17.502811,-19.608511,-4.5129056,-8.084759,3.2312161409347289582,17.545908,-19.608511,-10.928932,-4.630186,-7.9292436,3.44366981409347289589,19.607914,-19.608511,-2.634819,-4.7662306,-7.746025,3.66776851409347289612,19.607914,-19.608511,-5.493496,-4.8285704,-7.610428,3.86479781409347289613,14.920067,-14.550162,-10.383054,-4.7306786,-7.542143,4.11182981409347289621,9.700109,-5.643732,-13.589489,-4.662791,-7.512702,4.2412371409347289650,4.613028,-5.357625,-10.519524,4.225993,-8.4151535,-2.73798541409347289651,0.9271546,-7.2071457,-5.3103395,4.3285637,-8.137889,-3.34793281409347289652,-0.87448215,-8.3408,-1.3497312,4.0934467,-8.136602,-3.63452961409347289680,-4.799776,-13.536218,3.2070332,3.6978915,-8.32931,-3.6219551409347289681,-4.4568067,-19.496584,5.6407394,2.9104304,-8.841597,-3.08641081409347289682,0.49559975,-18.558056,5.5922565,2.1193826,-9.317548,-2.20498321409347289689,4.8159366,-13.979145,4.223372,1.8231401,-9.526439,-1.44690481409347289720,7.150882,-9.913791,3.0364463,1.9555515,-9.562725,-0.94894811409347289721,3.2190042,-8.565855,4.6351743,2.3451662,-9.50114,-0.63162581409347289722,-1.4891934,-8.710106,7.1987658,2.4271321,-9.499317,-0.205882941409347289740,-3.0184898,-10.155605,9.476849,2.1262991,-9.565037,0.399107961409347289741,-2.2272062,-9.1350765,7.6602483,1.6665887,-9.595069,1.15217771409347289761,-2.0632033,-6.68102,3.5793316,1.3002237,-9.559432,1.75985411409347289777,-2.885013,-5.8083334,2.0165164,0.99445677,-9.527904,2.09773451409347289778,-3.402759,-6.655282,1.8387469,0.64099175,-9.518737,2.2700591409347289782,-3.091513,-8.356362,1.8567034,0.24179411,-9.52623,2.31578681409347289789,-2.795829,-9.712678,2.1571758,-0.10186519,-9.534058,2.29385331409347289807,-2.6880898,-10.6398325,1.0857705,-0.39628634,-9.534384,2.26028371409347289832,-2.9951463,-10.487801,0.8038532,-0.638688,-9.5542965,2.11610031409347289833,-2.558803,-10.111911,1.1150994,-0.87596005,-9.567341,1.96700421409347289836,-2.0578163,-10.152014,1.3491327,-1.0507052,-9.569713,1.86735251409347289843,-1.6089035,-11.055226,1.2791022,-1.1663527,-9.568288,1.80495951409347289870,-0.8122329,-12.8532715,0.25378537,-1.2226677,-9.573468,1.73901161409347289871,0.6374562,-14.578294,-1.9003977,-1.170578,-9.609971,1.56479981409347289872,1.4987702,-14.4849205,-2.9604304,-0.9970661,-9.680888,1.20691921409347289903,0.3669114,-12.466608,-1.858499,-0.7688708,-9.743333,0.80419581409347289904,0.22565351,-10.577583,-0.3645172,-0.661516,-9.769902,0.53085861409347289905,0.47225627,-10.075399,0.7428011,-0.5628937,-9.782893,0.385451561409347289931,1.353921,-10.04607,1.1354501,-0.46375832,-9.789613,0.34464641409347289932,2.1523874,-9.898827,1.4670471,-0.3170083,-9.79486,0.361392681409347289933,3.1399956,-9.242816,2.7335799,-0.10639599,-9.7966175,0.430544231409347289941,3.549404,-8.996213,11.074979,0.17939109,-9.78549,0.61838211409347289959,3.7942111,-9.156026,14.827889,0.53167486,-9.6666565,1.56316291409347289982,6.8252707,-8.883087,7.9822683,0.9024806,-9.380007,2.71503071409347289982,7.6572556,-8.795698,5.0703206,1.4879874,-9.164851,3.15622661409347289997,7.241263,-8.954314,3.3883939,2.0380945,-8.982713,3.36562681409347289999,6.5966244,-9.436746,1.851915,2.4550223,-8.852891,3.43068431409347290013,5.827487,-9.880871,0.52492875,2.784246,-8.794762,3.32724451409347290027,4.8877625,-10.102334,-0.12210429,3.013914,-8.803368,3.09635931409347290028,4.0797195,-10.0987425,-0.24660277,3.1698716,-8.846003,2.80544781409347290043,3.3435028,-9.986814,-0.14544775,3.228288,-8.903233,2.54577781409347290044,2.7269957,-9.82341,-0.15622166,3.226407,-8.964022,2.3252981409347290061,2.4893713,-9.672575,-0.47165772,3.1799204,-9.02826,2.13284471409347290062,2.5659857,-9.609129,-0.9056068,3.118086,-9.094271,1.93446931409347290069,2.8101943,-9.690532,-1.086369,3.0623317,-9.156697,1.7168011409347290094,2.871845,-9.862315,-0.86131406,3.0349915,-9.205923,1.48667621409347290095,2.6036944,-9.985018,0.0700304,3.0006726,-9.244776,1.3040231409347290102,2.071583,-10.201694,1.1593921,2.9461222,-9.274602,1.21346511409347290126,1.5969325,-10.854712,1.4850036,2.8480506,-9.303054,1.22969841409347290127,1.4335283,-11.917738,-0.06703765,2.7052696,-9.339417,1.27561381409347290130,1.6729485,-12.491149,-3.0005333,2.539791,-9.398078,1.18151781409347290164,2.356493,-11.999141,-5.613206,2.3933592,-9.473869,0.8294741409347290165,2.700061,-10.84334,-6.7971387,2.3210018,-9.5244055,0.26271631409347290166,2.6928782,-9.844957,-6.482301,2.3287213,-9.519722,-0.34979311409347290170,3.095703,-9.761759,-5.0505686,2.343851,-9.474625,-0.953036671409347290200,4.2054152,-10.645219,-3.3201592,2.395829,-9.406898,-1.39307881409347290203,5.5707088,-11.8022175,-1.6358383,2.5067139,-9.340874,-1.62321441409347290204,7.1664443,-12.431892,0.18674773,2.6884363,-9.286692,-1.64317871409347290231,9.126697,-12.213422,2.819771,2.9622805,-9.231203,-1.47653271409347290231,10.453683,-11.534067,4.7949877,3.3594072,-9.147763,-1.09691851409347290232,9.378088,-11.589732,5.2169657,3.8236778,-9.011213,-0.58982411409347290241,7.1945763,-12.2224,3.8265328,4.1386285,-8.890207,-0.079644031409347290256,6.4284315,-12.443265,1.7262194,4.2587695,-8.829009,0.286146251409347290270,5.6982,-12.877812,-1.4443022,4.2920165,-8.806339,0.44425361409347290270,3.870227,-13.52724,-14.95179,4.258671,-8.827827,0.321850031409347290288,3.0250738,-13.878589,-6.130952,4.095321,-8.870934,-0.83981651409347290289,2.6090813,-12.036849,-0.80325466,3.8904476,-8.91461,-1.25081371409347290303,2.9281087,-11.195287,0.9900024,3.7479804,-8.967204,-1.30854991409347290322,3.2363622,-10.858303,3.1711202,3.6467545,-9.02427,-1.19756671409347290323,2.56419,-10.228029,4.437653,3.5863144,-9.080309,-0.925574661409347290337,1.7788919,-10.714651,3.7481227,3.5013652,-9.142956,-0.563189741409347290358,1.9027919,-11.215638,2.6222494,3.3664327,-9.207354,-0.249312031409347290359,2.1990743,-11.465832,2.1906946,3.239146,-9.2562475,-0.0130921211409347290370,1.8974048,-12.37084,3.008913,3.1321037,-9.291345,0.17666591409347290371,1.435324,-13.858836,4.1383777,2.992827,-9.33098,0.382362661409347290389,0.87807345,-16.554708,4.1718965,2.80973,-9.3745,0.628129841409347290389,-1.0103531,-19.498978,3.3973722,2.5554194,-9.431538,0.828429161409347290405,-3.0639796,-19.608511,3.6996403,2.1641634,-9.518982,0.935819861409347290421,-3.2124202,-19.608511,5.0942626,1.6991134,-9.601222,1.04877021409347290422,-3.5763388,-18.695723,5.767632,1.2834593,-9.6455345,1.21932351409347290435,-2.5252843,-14.623784,5.749077,0.88203305,-9.668205,1.38500481409347290456,-0.59376204,-11.024101,5.336077,0.5912582,-9.663288,1.56257651409347290456,0.6919243,-9.132683,4.844667,0.45834467,-9.634144,1.77301221409347290469,1.1546037,-8.932767,4.1922474,0.45014164,-9.592743,1.98672131409347290470,0.8798691,-9.248801,3.8959646,0.5025782,-9.546872,2.18519231409347290486,0.99778354,-9.144054,5.379173,0.5637857,-9.505456,2.34496161409347290490,0.4141969,-9.081805,7.120356,0.6310386,-9.438971,2.58418371409347290507,0.11851298,-8.066066,3.0903158,0.62260425,-9.343419,2.91260651409347290519,-0.50278234,-7.711724,-0.8972271,0.58334035,-9.332021,2.95693871409347290522,-0.5315128,-7.559692,-1.9219455,0.49307424,-9.407667,2.72453241409347290537,-0.5386954,-7.244256,-0.5710171,0.40914896,-9.501055,2.3943571409347290551,-0.45010993,-7.1191587,0.17118542,0.34022498,-9.555624,2.1782291409347290551,-0.12988544,-7.009624,0.6392518,0.278644,-9.589733,2.03217841409347290570,0.09816227,-6.3661823,2.1027076,0.2552533,-9.6070595,1.95182911409347290571,-0.10414778,-5.599439,3.0244753,0.2566562,-9.589579,2.03580951409347290586,0.19632454,-4.785411,4.0019083,0.24202394,-9.547807,2.22512751409347290590,-0.62368953,-4.185663,4.6040497,0.26772788,-9.47213,2.52536491409347290602,-1.3808558,-3.4302924,4.545392,0.19744886,-9.365606,2.90117651409347290620,-2.0727801,-3.1226375,4.0438066,0.026146213,-9.240005,3.28512291409347290623,-2.7952304,-3.1292217,3.5745432,-0.23158346,-9.107052,3.63020281409347290636,-3.3333273,-3.3081882,3.5212722,-0.5899024,-8.976582,3.90427781409347290653,-3.7702692,-3.7074213,3.645172,-1.0169045,-8.830462,4.1423711409347290653,-4.035427,-4.0282445,3.721188,-1.4792418,-8.662118,4.35315131409347290669,-4.271256,-4.406528,3.268684,-1.9365565,-8.478038,4.53244161409347290670,-4.279037,-5.1601033,2.44029,-2.3870258,-8.317083,4.6150431409347290687,-3.9354692,-6.139332,0.7739257,-2.7915742,-8.227345,4.54843851409347290690,-3.5625722,-7.615357,-2.1529858,-3.0954385,-8.284064,4.2382681409347290702,-2.9783869,-10.551247,-8.245032,-3.3228235,-8.517933,3.5459921409347290725,2.0428526,-15.110406,-18.845959,-3.3804884,-8.979432,2.02793361409347290726,15.313912,-19.507956,-13.93186,-3.4887722,-8.882533,2.2581971409347290730,19.607914,-19.608511,-7.2484455,-3.5960743,-8.777449,2.48898241409347290763,16.822859,-16.16924,-4.2622776,-3.6295273,-8.700533,2.70141651409347290764,8.16722,-9.813833,-7.3591776,-3.5669982,-8.665276,2.8913511409347290765,8.15525,-6.9132576,-14.595653,3.2744408,-8.848188,-2.67544841409347290771,3.7271736,-8.358757,-9.423578,3.7133496,-8.360223,-3.5338541409347290805,1.5316905,-9.217078,-2.879626,3.7331727,-8.190036,-3.89321451409347290811,-0.13587095,-8.981848,2.2840683,3.559429,-8.295127,-3.8329791409347290812,-2.315193,-9.595362,3.4039562,3.274732,-8.5657625,-3.4748041409347290830,-3.0651767,-13.674483,4.2969937,2.7801929,-8.907315,-3.01673341409347290831,-2.8275523,-16.200365,4.859032,2.188537,-9.268458,-2.34016441409347290831,-1.6106992,-14.042591,4.2425256,1.6398569,-9.531397,-1.62288551409347290852,0.1448492,-11.984177,3.2914288,1.2966318,-9.660986,-1.07445911409347290852,0.8822633,-11.850699,1.9907787,1.1355747,-9.71546,-0.70049421409347290873,0.12509704,-11.423933,1.8447324,1.0661831,-9.73742,-0.46509061409347290874,-0.9415198,-11.534067,3.596091,0.95707256,-9.756734,-0.246059731409347290882,-0.76434886,-11.502942,4.5022964,0.7754938,-9.775391,0.1036562551409347290905,-0.23343466,-10.656591,3.6326025,0.6300081,-9.774529,0.48173031409347290905,-0.6290765,-9.442133,2.3050177,0.54229033,-9.761103,0.772776661409347290934,-1.7154455,-8.747814,2.0991163,0.4323836,-9.752414,0.93479821409347290935,-2.098518,-8.647857,2.2774844,0.2428165,-9.741169,1.10501031409347290936,-1.7842789,-8.813056,1.8555063,0.038984258,-9.725941,1.25497451409347290963,-1.3257892,-8.9124155,0.7799112,-0.13963374,-9.715176,1.3290111409347290964,-1.311424,-9.087193,0.23104046,-0.27928331,-9.717093,1.29247821409347290965,-1.5334862,-9.56304,-0.092775315,-0.40001905,-9.724951,1.19821511409347290970,-1.6879122,-10.111911,-0.31244332,-0.52063,-9.734839,1.06407431409347290984,-1.5640123,-10.435727,-0.2885013,-0.64668363,-9.742861,0.910424051409347290999,-1.2030864,-10.89661,-0.4189853,-0.74662465,-9.746829,0.78248421409347291004,-0.39444473,-11.521497,-0.13347675,-0.8207383,-9.75129,0.63964051409347291018,0.7188591,-12.243349,0.50517654,-0.8135493,-9.758048,0.53760971409347291022,2.0231004,-12.810176,0.7493851,-0.69783145,-9.769033,0.499417631409347291036,2.8209682,-12.416928,0.8984242,-0.46482992,-9.783882,0.4795681409347291071,2.9813797,-11.029489,0.97384155,-0.17022754,-9.793512,0.478050381409347291071,2.9801826,-9.676167,1.0648212,0.12810858,-9.793426,0.4927221409347291072,3.0460231,-8.810063,1.2749124,0.41657245,-9.783752,0.52446131409347291072,3.015497,-8.330625,1.2060791,0.6736102,-9.766473,0.576746341409347291097,2.9873652,-8.102577,1.1288661,0.928607,-9.742555,0.62508581409347291098,2.8766334,-7.8607626,1.3096284,1.1607177,-9.714547,0.671348631409347291103,2.059612,-7.638102,2.3427265,1.36466,-9.682903,0.74125961409347291119,2.0219033,-7.5082164,5.4551888,1.4742155,-9.651639,0.918114361409347291123,3.41892,-7.645883,15.533581,1.5716442,-9.57843,1.39785651409347291137,5.2840033,-7.730279,9.692925,1.785128,-9.230045,2.79105231409347291157,5.2498856,-8.44016,5.3420625,2.126392,-8.935286,3.4365021409347291158,5.858013,-8.97287,4.0922894,2.4189706,-8.768471,3.66509151409347291164,5.4144874,-9.506777,1.785476,2.6709187,-8.654112,3.76071171409347291170,4.735132,-9.866506,0.079008654,2.847293,-8.662109,3.609871409347291184,3.9043443,-9.97604,-0.61171854,2.975528,-8.739002,3.30854371409347291201,3.1202433,-10.231023,-0.94211835,3.0395606,-8.83433,2.98095321409347291202,2.741361,-11.24377,-0.94690675,3.04208,-8.941469,2.63937351409347291218,2.9747956,-11.228806,-0.6380547,2.985378,-9.053126,2.30191681409347291233,3.1519666,-11.191696,-0.2184709,2.9508605,-9.132086,2.0168771409347291233,3.2692823,-11.199477,0.36391866,2.9184103,-9.184311,1.8170531409347291249,3.3488896,-11.354502,0.8265981,2.8995605,-9.215797,1.68285311409347291250,3.41892,-11.673529,1.2354081,2.888771,-9.23323,1.6040051409347291268,3.4045548,-12.126033,1.4598645,2.8787253,-9.242419,1.56876851409347291270,3.1376014,-12.549209,1.5891514,2.8577533,-9.250504,1.55942441409347291284,2.9131448,-12.90774,2.0973208,2.8064427,-9.2654915,1.56362441409347291300,2.32058,-13.336901,0.7020996,2.7275958,-9.281387,1.60824191409347291302,1.875857,-13.863625,-8.838794,2.6082377,-9.327471,1.53810251409347291318,1.4000094,-13.174693,-19.561226,2.4806376,-9.460877,0.71316671409347291332,2.6282349,-10.783484,-17.512987,2.4659219,-9.422569,1.14227091409347291332,4.489128,-9.385271,-9.121908,2.329027,-9.281207,-2.14597631409347291351,6.120178,-9.948506,-1.4903905,2.502199,-9.063472,-2.78618981409347291352,6.673837,-11.434708,5.9184666,2.7516549,-8.971844,-2.84689351409347291366,6.118981,-12.995727,13.590686,2.9696949,-9.073512,-2.24113771409347291370,6.4661403,-12.530055,8.128315,3.120961,-9.236015,-1.0611371409347291386,6.314707,-12.212224,3.9211037,3.3117354,-9.225462,-0.305983781409347291399,6.2847795,-11.574768,3.9755719,3.4482772,-9.179937,0.092384271409347291404,6.3566055,-11.35929,3.53863,3.5649097,-9.122553,0.49076811409347291415,6.229114,-11.793838,2.0871453,3.6799462,-9.057825,0.76434011409347291432,6.3967085,-12.722189,-1.3144168,3.7857938,-9.005356,0.86122641409347291433,6.0878563,-14.365211,-8.224682,3.8824027,-8.97913,0.68744571409347291451,4.894945,-16.65706,-16.235083,3.892557,-9.001008,0.0158446361409347291452,2.954445,-16.86296,-12.670115,3.9346375,-8.982414,0.072312961409347291466,2.0404584,-14.682442,-5.324106,3.5129611,-8.950855,-1.92657951409347291471,2.497751,-13.247717,-0.6859388,3.3153288,-8.963534,-2.19863771409347291483,3.567959,-11.066599,1.9985598,3.1695156,-9.02268,-2.17159131409347291500,3.7493198,-10.610503,1.8189948,3.1404305,-9.084243,-1.94539941409347291502,3.5392287,-10.979809,1.8423382,3.1642504,-9.12698,-1.69000421409347291516,3.1543608,-10.133459,2.906561,3.1927814,-9.165565,-1.40319561409347291534,3.1232362,-10.03769,3.8504748,3.2010071,-9.206671,-1.07756961409347291534,3.0753522,-10.328587,5.288193,3.2159994,-9.238428,-0.69224521409347291549,2.710835,-11.35091,5.589264,3.2086015,-9.263712,-0.242754861409347291551,1.9446903,-13.709798,5.0679264,3.152314,-9.284512,0.176483531409347291567,0.43035775,-18.739416,4.8374844,3.0000699,-9.322425,0.51217331409347291572,-1.2138603,-19.608511,5.12838,2.6677139,-9.405864,0.763817251409347291584,-2.6862943,-19.608511,5.7879825,2.2613153,-9.492107,0.97812551409347291599,-1.858499,-18.703505,4.8105497,1.8085049,-9.561858,1.2126661409347291603,0.28550854,-13.9564,3.0520086,1.4641244,-9.605742,1.32530651409347291617,1.7405846,-11.807006,3.4117374,1.3003572,-9.622027,1.37696091409347291632,1.6136919,-11.587936,3.3010056,1.2614269,-9.6043825,1.52807871409347291632,1.6915035,-10.579977,5.6257753,1.258507,-9.575739,1.70053031409347291651,1.5610195,-9.916783,10.50037,1.2946945,-9.511147,2.00804421409347291652,0.12868834,-8.042124,2.1751323,1.3219837,-9.37041,2.5725811409347291670,-1.0348936,-6.3033347,-0.51235914,1.280952,-9.382471,2.549271409347291672,-0.57041854,-6.329072,-0.760159,1.1366175,-9.445021,2.38119221409347291684,-0.142455,-6.4242415,0.6739678,1.0200641,-9.50872,2.17119571409347291700,0.22385786,-6.2746043,1.1061212,0.9255499,-9.536332,2.09096221409347291717,0.65242,-5.744887,1.4449008,0.89164895,-9.544087,2.07020971409347291720,0.5351041,-4.907515,1.863886,0.92655194,-9.533887,2.10163931409347291732,0.35793316,-3.8420951,2.1134815,0.95826566,-9.512515,2.18270041409347291732,-0.6721721,-3.5260606,2.211644,0.9631144,-9.481767,2.31060811409347291747,-1.4143747,-3.2836475,2.6114755,0.8516526,-9.455259,2.45828221409347291751,-1.963844,-3.2315738,3.232771,0.64419544,-9.415584,2.6649911409347291766,-2.710835,-3.063381,4.5034933,0.3614703,-9.346401,2.94695041409347291779,-3.459023,-2.7641058,5.187038,-0.02619723,-9.204938,3.38213161409347291783,-4.11683,-2.5198972,5.08289,-0.5153688,-8.987734,3.88914181409347291818,-4.875193,-2.5917234,4.4562078,-1.0794146,-8.717596,4.35990431409347291819,-5.697003,-3.1735144,3.5284548,-1.7255341,-8.429166,4.70553871409347291819,-6.479907,-4.1904516,2.1003134,-2.4474034,-8.163719,4.85121771409347291824,-6.6229606,-5.1361613,-0.013766659,-3.198078,-7.987947,4.7048271409347291831,-6.007052,-6.6492968,-3.7403417,-3.8842406,-7.9307337,4.2645651409347291847,-4.1174283,-8.622119,-12.788629,-4.4106236,-8.104917,3.32071021409347291851,3.554791,-11.347319,-19.608511,-4.605103,-8.581148,1.15209391409347291868,13.092692,-16.810886,-6.259042,-4.702884,-8.495676,1.36995121409347291885,19.578585,-19.608511,-0.6290765,-4.803493,-8.396606,1.61053531409347291886,19.607914,-19.608511,-10.337564,-4.854081,-8.313198,1.87056881409347291900,15.111004,-19.442116,-10.164583,-4.8409085,-8.236571,2.2124451409347291904,8.010999,-12.943653,-7.595605,-4.782391,-8.173156,2.54924371409347291916,7.621941,-6.381745,-10.519524,3.64486,-8.639623,-2.87094831409347291932,4.857237,-7.012018,-6.745663,4.028968,-8.293155,-3.3408631409347291932,2.9496565,-9.311649,-1.8626889,4.0890713,-8.147856,-3.61418321409347291952,0.5823896,-13.000515,0.9947908,3.9689453,-8.242299,-3.53304431409347291953,-1.8088194,-18.923172,2.2451627,3.603727,-8.549026,-3.1776891409347291966,-0.9588778,-19.430742,3.2974143,2.9660094,-8.977174,-2.60452321409347291987,1.7537527,-15.435418,3.5978866,2.4794145,-9.273952,-2.00417421409347291988,4.76506,-10.940305,2.7910407,2.3088326,-9.409052,-1.51968421409347292001,3.810372,-8.066664,4.3329067,2.4539485,-9.416754,-1.21377431409347292015,0.682946,-7.0946183,5.2127757,2.5992696,-9.420866,-0.81330511409347292016,-1.4466964,-6.302736,5.46297,2.5264635,-9.469839,-0.330911731409347292031,-1.8980033,-7.221511,6.9796963,2.2768207,-9.53725,0.165373091409347292031,-1.3958195,-7.7787614,5.363012,1.9445363,-9.5790615,0.79421281409347292048,-1.5873557,-7.8104844,2.2703018,1.6468469,-9.586215,1.25010651409347292051,-2.2583308,-8.829217,1.2539631,1.3547838,-9.603423,1.45231161409347292066,-2.6246436,-9.476251,1.3850456,0.9976288,-9.633392,1.54041761409347292083,-2.4893713,-9.999383,1.6460136,0.6308064,-9.660714,1.56303851409347292084,-2.0608091,-10.312426,1.4041992,0.30227545,-9.6779375,1.55452731409347292096,-2.2679076,-10.439318,0.98940384,0.046338897,-9.688681,1.51582651409347292104,-2.4546554,-10.044873,1.1378443,-0.1956507,-9.697549,1.44556161409347292114,-2.1152773,-9.563639,0.2645593,-0.43161884,-9.695961,1.40444291409347292135,-1.347337,-9.896433,-0.2208651,-0.61006534,-9.701444,1.29622761409347292136,-0.9983821,-10.903793,-0.53570265,-0.7170476,-9.71272,1.14860181409347292154,-0.5267244,-12.252926,-1.1043255,-0.773547,-9.727355,0.974978861409347292155,0.16998832,-13.338098,-1.87047,-0.7678631,-9.74779,0.74923171409347292171,0.5554548,-13.254899,-1.5616181,-0.6886403,-9.771207,0.468760221409347292172,-0.05327099,-12.123639,-0.5093664,-0.5845098,-9.786219,0.242237431409347292185,-0.016759412,-11.043256,0.25498247,-0.5462616,-9.79067,0.121444071409347292204,1.3652935,-10.303447,1.0995371,-0.5091937,-9.792889,0.102124831409347292205,2.7126305,-9.940127,2.0428526,-0.35419428,-9.799265,0.139095251409347292211,3.1136594,-9.549872,6.4607534,-0.099203594,-9.802472,0.268435061409347292234,3.1346085,-8.644265,13.893553,0.20148031,-9.771318,0.80691181409347292234,3.406949,-8.940548,9.723452,0.5422364,-9.588987,1.98183791409347292249,5.0864816,-9.275736,7.97748,0.87725717,-9.393392,2.67675761409347292251,6.7929487,-9.155427,5.1702785,1.3095502,-9.188661,3.16607211409347292273,6.8905125,-8.8328085,2.333748,1.7944883,-9.030618,3.37611411409347292274,7.2245035,-8.80767,1.050456,2.2122173,-8.961005,3.3131351409347292283,6.95755,-9.229049,0.7691373,2.6747453,-8.900008,3.1314521409347292298,6.192004,-9.388264,0.7469909,3.0404105,-8.856373,2.91392231409347292314,5.4683566,-9.490616,1.3317747,3.3010402,-8.829111,2.70561081409347292315,4.823718,-9.691729,3.5523968,3.4800136,-8.799626,2.57419091409347292334,4.607641,-9.85633,3.0986955,3.566981,-8.738373,2.66230341409347292337,4.6926355,-10.444106,0.20290859,3.6220737,-8.693394,2.7342091409347292353,4.390966,-11.15698,-1.7256209,3.6732783,-8.716296,2.58913421409347292354,3.6834793,-11.516708,-2.5031378,3.67444,-8.801347,2.2814821409347292365,2.8119898,-11.619659,-2.6013002,3.6278446,-8.900972,1.94469151409347292385,1.9081788,-12.064383,-2.154183,3.511418,-9.013789,1.60995891409347292386,0.9576807,-12.737153,-2.2822728,3.3197618,-9.137225,1.28867961409347292402,-0.40521863,-13.239337,-5.005677,3.0447369,-9.273144,0.953294461409347292403,-0.5267244,-12.572552,-7.4028716,2.6711674,-9.427781,0.39010641409347292412,1.0809821,-10.8864355,-6.7606273,2.3270018,-9.520384,-0.3431051409347292434,1.8746599,-9.830592,-5.146935,2.1957731,-9.514673,-0.905506851409347292435,1.8968062,-10.059837,-4.0982747,2.1456907,-9.470912,-1.36681911409347292447,2.1086931,-10.928333,-3.4464533,2.1226773,-9.427355,-1.67021931409347292452,2.6821043,-11.283873,-2.697667,2.098582,-9.399332,-1.8490311409347292470,3.532046,-10.650007,-1.8082209,2.0966668,-9.388639,-1.90469151409347292472,4.519056,-10.192716,-0.55246204,2.161862,-9.38185,-1.86484531409347292485,6.215946,-10.266935,1.0103531,2.3126826,-9.371491,-1.73120071409347292504,7.550115,-10.861296,3.2788591,2.5981443,-9.337048,-1.4965171409347292505,7.651869,-11.621455,6.0585275,2.9596586,-9.285179,-1.0937411409347292512,7.2029557,-11.984776,6.1519012,3.2789056,-9.228905,-0.496471851409347292559,7.100005,-11.87524,4.26946,3.5105994,-9.156575,0.056930681409347292561,6.7761893,-11.701062,2.8754363,3.693625,-9.074058,0.43474811409347292563,6.6947865,-11.837532,1.8561049,3.8233237,-9.005025,0.679781441409347292565,6.981492,-12.155961,-0.19512744,3.9322782,-8.948376,0.79634741409347292568,7.5375457,-12.503718,-9.24102,4.0474625,-8.904283,0.70866031409347292604,4.8309007,-14.076709,-12.49893,4.1811814,-8.870345,-0.0713093361409347292605,3.5649664,-14.698004,-4.144363,4.072173,-8.860352,-1.04018711409347292606,4.38917,-12.7970085,2.409764,3.9243996,-8.891158,-1.31025731409347292608,4.441244,-11.18152,5.553351,3.912111,-8.926845,-1.0849961409347292612,3.4691982,-10.88464,5.0822916,3.9023378,-8.973844,-0.64207041409347292648,3.027468,-10.431537,4.0462008,3.826389,-9.025204,-0.273563861409347292650,2.509722,-10.555437,3.9564183,3.7552464,-9.059144,0.0205985511409347292651,2.0009542,-11.944673,4.160524,3.656286,-9.094238,0.31113691409347292684,1.905186,-13.149554,4.614824,3.4885964,-9.146523,0.58412561409347292687,1.6759412,-15.375564,5.0781016,3.3108494,-9.190652,0.86057291409347292693,0.19093758,-19.348742,5.0308166,3.0915039,-9.24115,1.10188721409347292698,-2.8921957,-19.608511,6.0345855,2.7256546,-9.334631,1.26721981409347292736,-4.3394904,-19.608511,9.139266,2.2190409,-9.436823,1.48074591409347292736,-4.9069166,-19.404406,9.178771,2.4997013,-9.411059,1.16355961409347292737,-3.3608606,-15.079281,6.4685345,2.7384915,-9.383524,0.78774731409347292738,-1.4359225,-11.188704,4.1096473,0.8069757,-9.50443,2.27706341409347292738,-0.40880993,-10.309433,1.9195513,0.59046954,-9.509742,2.32089571409347292744,-0.82719666,-10.0269165,-0.109534726,0.43304378,-9.518504,2.3196931409347292769,-1.0474633,-9.305663,1.2916719,0.32698652,-9.544355,2.22906331409347292770,-1.4155718,-9.018958,7.33763,0.26417834,-9.543039,2.24298741409347292772,-0.33877954,-7.545925,8.185177,0.17340909,-9.446097,2.62898451409347292821,0.02633622,-5.805341,2.2451627,0.16742659,-9.327497,3.02327161409347292823,-1.1552023,-5.969942,-1.2431892,0.16990341,-9.329809,3.01599121409347292825,-1.8201919,-6.192004,-1.7136499,0.040815484,-9.410034,2.7604291409347292826,-1.5269021,-5.786187,-1.0540473,-0.134036,-9.493209,2.45588921409347292831,-0.11312603,-5.3318872,-0.031124622,-0.29446295,-9.548195,2.2171281409347292835,1.1498153,-4.8680105,3.3315318,-0.30607408,-9.57515,2.0959991409347292867,0.58897364,-4.4196963,4.613028,-0.16509704,-9.523422,2.33400371409347292869,0.32800564,-3.9109285,3.9653966,-0.058791034,-9.423817,2.71267651409347292869,-0.39624038,-3.417723,3.6373909,0.03207744,-9.324439,3.03713511409347292886,-0.670975,-2.8018146,4.2640734,0.008489386,-9.226675,3.32246611409347292887,-1.8752584,-2.8113914,4.7417164,-0.068580486,-9.079012,3.70637851409347292892,-2.8802247,-2.8975825,4.312556,-0.3167057,-8.89166,4.12413361409347292913,-3.7672763,-3.1322143,4.0054994,-0.68716973,-8.704403,4.4644751409347292914,-4.3819876,-3.366846,3.942053,-1.174627,-8.511604,4.7268651409347292936,-4.596867,-3.7882257,3.99293,-1.7349135,-8.297483,4.93074461409347292937,-4.644751,-4.4873323,3.3560722,-2.26506,-8.073534,5.0850711409347292944,-4.2383356,-5.2061915,2.0530279,-2.7346988,-7.9123755,5.1074571409347292968,-3.2106245,-6.265626,-0.34715924,-3.0979705,-7.888048,4.93473961409347292969,-1.7585411,-7.6811976,-4.3299136,-3.3154213,-8.070381,4.47742371409347292973,-1.7328035,-11.235989,-11.185112,-3.3316524,-8.5329,3.50144361409347292985,5.0691237,-17.182587,-19.606117,-3.21522,-9.142803,1.49730491409347293002,19.17636,-19.608511,-10.357317,-3.30865,-9.064796,1.74719141409347293004,19.607914,-19.608511,-6.2985463,-3.397591,-8.98605,1.96917831409347293012,19.124285,-19.536087,-5.233126,-3.4099045,-8.939271,2.1522941409347293036,9.498995,-14.676456,-4.851251,-3.353032,-8.925646,2.29355961409347293037,4.0898952,-7.891887,-12.826936,3.7367988,-8.75316,-2.36408661409347293045,0.58897364,-9.588778,-6.203377,3.8254666,-8.511374,-3.01541691409347293072,-0.52073884,-10.612299,-0.7380127,3.5863357,-8.541324,-3.21782231409347293073,-1.9219455,-12.5025215,1.4514848,3.2425327,-8.726658,-3.08249861409347293074,-3.6882677,-15.998654,1.8848352,2.7337966,-9.002546,-2.7660261409347293104,-2.3259668,-15.078682,3.6104562,2.0763717,-9.29969,-2.31836461409347293105,-1.0929531,-12.30081,5.0020857,1.6487218,-9.502519,-1.7760211409347293106,-0.12928689,-11.390414,5.997475,1.404493,-9.629616,-1.211731409347293113,0.55844754,-11.304822,5.1810527,1.2403786,-9.706088,-0.65093951409347293135,0.11372458,-10.53329,3.7870286,1.1611234,-9.735859,-0.18772851409347293137,-1.4460979,-11.183915,4.246715,1.0631974,-9.747535,0.15990821409347293146,-1.5442601,-12.006922,4.4597993,0.83274037,-9.756213,0.54148771409347293166,-1.5981296,-11.6430025,2.417545,0.61631626,-9.748225,0.87332181409347293168,-2.3403323,-10.766725,1.7016789,0.41728115,-9.746734,0.998742161409347293186,-3.311181,-10.050261,2.4558525,0.16631636,-9.74708,1.06638511409347293189,-3.3794158,-9.442133,2.2409728,-0.14449003,-9.729872,1.21618971409347293193,-2.8263552,-8.66701,1.4317327,-0.43585974,-9.70908,1.30928041409347293227,-2.2703018,-7.8966756,0.587178,-0.6721985,-9.694024,1.32076641409347293229,-1.9710265,-7.3047094,0.41240123,-0.86275095,-9.685766,1.2696471409347293230,-1.9129672,-7.211934,0.17836803,-1.0118289,-9.679194,1.20821511409347293233,-1.8309658,-7.713519,-0.34715924,-1.1329772,-9.675896,1.12419461409347293256,-1.5688007,-8.546701,-0.8379706,-1.2297765,-9.678783,0.98954931409347293257,-1.0259154,-9.306861,-0.30346507,-1.287043,-9.68756,0.81553371409347293267,-0.5895722,-10.207081,0.5943606,-1.2911495,-9.696285,0.69669181409347293286,0.03232172,-11.626842,0.7811083,-1.2521063,-9.702944,0.67491191409347293288,1.7166426,-13.6331835,-5.99E-04,-1.1461372,-9.716301,0.671012641409347293293,3.6182373,-14.739305,-0.64703304,-0.88149744,-9.74902,0.59156151409347293318,4.0066967,-13.263279,-0.6039374,-0.4779881,-9.784522,0.452820961409347293319,4.073136,-10.8229885,0.6548142,-0.08280776,-9.801231,0.315257821409347293326,4.3460746,-9.70789,3.6762967,0.3038583,-9.797627,0.290809571409347293335,4.099472,-9.516952,9.48463,0.67955583,-9.7673025,0.555300351409347293357,3.8474822,-9.215881,8.479664,1.0290904,-9.663719,1.31297561409347293358,3.489549,-9.065046,5.494693,1.3230916,-9.521857,1.93753491409347293365,3.6361938,-8.908825,5.722142,1.5364307,-9.408902,2.298331409347293387,5.3019595,-8.549096,3.3387144,1.7093748,-9.281278,2.6657691409347293388,4.662708,-8.641273,1.2036849,2.0046792,-9.186796,2.78467731409347293393,4.220978,-8.297705,1.0600328,2.2414095,-9.155451,2.706331409347293424,4.344279,-7.6135616,1.5382746,2.4476688,-9.136562,2.5889251409347293425,4.3143516,-7.921815,2.0745757,2.6665666,-9.092865,2.52578881409347293425,4.4657845,-8.635885,1.9668367,2.8634079,-9.042995,2.4890811409347293450,4.4783545,-8.834604,1.1887212,3.047486,-8.997504,2.43477271409347293450,4.1096473,-9.051878,0.78769237,3.217553,-8.966635,2.3274911409347293462,3.7355533,-9.544485,0.3369839,3.334604,-8.9542465,2.20732571409347293483,3.3135753,-10.398617,1.3826514,3.391738,-8.967529,2.06153271409347293484,2.634819,-10.969634,2.5516205,3.3743463,-8.98204,2.0266071409347293485,2.2301989,-11.6029,1.6304513,3.2656767,-9.007679,2.08984971409347293493,1.5424645,-12.76708,-0.5201403,3.1272287,-9.057617,2.08576461409347293519,0.5255273,-13.414114,-1.4802152,2.9102573,-9.168558,1.90744461409347293521,-0.45070848,-13.558963,-3.3195608,2.6121612,-9.3060255,1.65675951409347293526,0.22505496,-12.61026,-5.024831,2.2616558,-9.461774,1.23698831409347293546,1.4634558,-11.203069,-5.505467,2.0133717,-9.573996,0.674784361409347293547,1.6226702,-10.210671,-5.0080714,1.903225,-9.619847,0.081375971409347293580,0.9504981,-9.633669,-3.8271315,1.8638779,-9.620487,-0.37756491409347293581,0.50397944,-9.61691,-2.9191303,1.7743782,-9.613521,-0.77601361409347293592,0.6135142,-9.950302,-2.906561,1.6817061,-9.604319,-1.04848381409347293624,1.1450269,-10.368689,-3.1495724,1.602387,-9.59031,-1.2761891409347293625,2.3475149,-11.006743,-2.9454668,1.5590158,-9.570156,-1.46697121409347293627,4.1012673,-11.541848,-2.4366987,1.6032591,-9.543722,-1.58661281409347293627,5.8454432,-11.923124,-0.8631097,1.7721245,-9.50604,-1.63254391409347293632,7.578247,-11.865664,2.3229742,2.0498927,-9.465709,-1.53906251409347293646,8.261791,-11.946468,5.8346696,2.44322,-9.422125,-1.1935821409347293647,7.8727336,-12.319963,6.099229,2.845494,-9.366392,-0.586748361409347293663,8.042124,-12.476185,3.912724,3.1605556,-9.283312,-0.037176761409347293665,8.037933,-12.795213,1.5143325,3.4426653,-9.177732,0.29611881409347293676,7.5483193,-13.55178,0.43634325,3.6642883,-9.086249,0.428337631409347293696,6.7534447,-14.827889,-3.4584243,3.8006043,-9.028454,0.46131111409347293697,5.5725045,-15.865776,-9.657611,3.8499787,-9.017843,0.16299161409347293710,4.404134,-14.257471,-10.444705,3.7876267,-9.028484,-0.55744391409347293713,3.6008794,-12.3038025,-6.4685345,3.7115796,-8.985161,-1.28896671409347293730,3.8606503,-11.645397,-1.1785458,3.6711464,-8.936038,-1.68531691409347293745,4.2251673,-10.924743,2.6623523,3.668159,-8.938819,-1.67705061409347293747,3.0071173,-11.574768,2.8951883,3.6732118,-8.984108,-1.40133571409347293765,2.7934349,-11.686098,2.710835,3.585267,-9.059947,-1.11067811409347293766,2.4319103,-12.052411,3.157952,3.5009525,-9.122876,-0.82874921409347293773,2.2870612,-12.679093,3.4626143,3.3896196,-9.186065,-0.545100571409347293797,1.7280151,-13.497313,4.016872,3.2585776,-9.245445,-0.271698621409347293797,1.388637,-15.9495735,4.3305125,3.0919774,-9.306408,0.0288461561409347293817,-0.3369839,-19.450495,4.7901993,2.8760433,-9.370359,0.308409841409347293818,-3.1663318,-19.608511,8.395268,2.519818,-9.460634,0.563281241409347293825,-4.103063,-19.608511,11.684303,2.0340462,-9.540561,1.00537121409347293860,-3.3728316,-18.033127,10.543466,2.3038948,-9.510144,0.647775051409347293861,-1.5460558,-13.166314,8.418612,1.1001301,-9.544655,1.96459511409347293862,-0.18674773,-11.361684,4.4119153,0.81639296,-9.498006,2.30038381409347293878,-0.11192893,-10.254366,0.842759,0.6968524,-9.474291,2.43364241409347293879,-0.7745243,-9.227253,-0.30107087,0.5870269,-9.483623,2.42624741409347293894,-2.5492263,-7.9128366,-0.3878607,0.49801368,-9.5084505,2.3477091409347293896,-3.8792052,-6.599617,0.57400984,0.3137141,-9.548226,2.21434241409347293924,-3.1507695,-5.6305637,3.1998506,0.02815021,-9.576919,2.11003421409347293925,-1.2144588,-4.559159,-0.25677812,-0.22151239,-9.552476,2.20714861409347293927,-0.4818331,-5.187038,0.74399817,-0.32013446,-9.578319,2.07935451409347293953,-0.04129998,-6.14831,1.3994108,-0.34304118,-9.584449,2.04720641409347293954,0.49440265,-6.4751186,1.5891514,-0.32352632,-9.579654,2.07266831409347293955,1.6998832,-5.3498435,2.6150668,-0.22441542,-9.571593,2.12241321409347293965,1.0408791,-4.957195,2.8927941,-0.008668533,-9.537462,2.28191281409347293981,-0.44113165,-5.111022,2.767697,0.11819449,-9.495726,2.44695971409347293999,-1.614889,-5.0864816,3.1705215,0.07024203,-9.456818,2.59500841409347294000,-2.7263973,-4.654328,3.6122518,-0.116360515,-9.400033,2.7921731409347294005,-3.305794,-3.9211037,3.627814,-0.44135565,-9.313014,3.04029151409347294013,-4.188656,-3.4638114,3.9378633,-0.8284037,-9.196081,3.30397321409347294038,-4.9542017,-3.1944637,4.238934,-1.3200266,-9.024865,3.60273771409347294039,-5.1930237,-3.083732,4.2275615,-1.892836,-8.788278,3.91838341409347294047,-5.2444987,-3.283049,4.3700166,-2.4651232,-8.509579,4.2048321409347294068,-5.096657,-3.763685,3.9857473,-2.9901273,-8.20382,4.46395061409347294069,-4.808754,-4.5501804,2.6461914,-3.4409518,-7.934968,4.62239551409347294073,-4.2383356,-5.725135,0.27952304,-3.8148787,-7.788516,4.5777861409347294096,-2.8006175,-7.639898,-4.4101195,-4.0786,-7.8610106,4.2118791409347294097,1.2443863,-11.216835,-16.050728,-4.159731,-8.26008,3.26161271409347294119,12.223597,-17.287333,-16.712725,-3.6188967,-9.087734,0.6978981409347294121,19.591753,-19.608511,-4.484938,-3.7438695,-9.017202,0.91862451409347294126,19.607914,-19.608511,-4.0904937,-3.8630877,-8.9425125,1.13066241409347294155,18.920778,-19.500174,-8.1079645,-3.9088984,-8.892323,1.34814381409347294156,11.777079,-13.342886,-12.782643,-3.8522344,-8.877804,1.58596621409347294157,6.5499372,-9.6288805,-11.772888,4.1255107,-8.486133,-2.6713511409347294187,3.7223852,-9.731233,-8.631097,4.2862253,-8.245921,-3.131041409347294188,1.5717934,-10.307038,-4.6082397,4.185402,-8.158984,-3.47617631409347294190,-0.011372458,-9.932944,-1.8818425,3.9046257,-8.227122,-3.63851381409347294195,-0.7308301,-9.611523,-0.7104794,3.5439217,-8.395907,-3.62212441409347294233,-2.4468741,-13.550583,0.5021838,3.1899114,-8.606332,-3.45338821409347294234,-1.3694834,-18.186356,1.6597804,2.6756406,-8.9226675,-3.06551221409347294235,1.3700819,-18.537704,3.217807,2.2239294,-9.216841,-2.50487041409347294237,3.9432502,-14.917073,5.122993,2.035257,-9.401612,-1.9073121409347294246,4.0581717,-10.256162,6.5122285,2.0930104,-9.490878,-1.30878711409347294255,1.7531542,-7.9852614,5.717354,2.2211509,-9.523542,-0.734167751409347294287,-0.480636,-8.212111,5.743091,2.1960263,-9.553511,-0.27985081409347294288,-0.6087258,-10.096947,6.76781,1.9937886,-9.600145,0.180038181409347294289,-0.8535329,-8.974067,3.4500446,1.7635094,-9.619175,0.729304851409347294294,-1.6011224,-7.873931,0.8571242,1.5404916,-9.629054,1.03855611409347294322,-2.8383262,-7.5572977,0.89603,1.2866335,-9.651161,1.17049741409347294323,-3.566762,-7.963713,1.5759833,0.93746287,-9.684815,1.22307261409347294325,-3.3363202,-8.717288,0.39384618,0.55929285,-9.706481,1.28132751409347294355,-3.645172,-9.651027,-0.18375498,0.19628881,-9.7345295,1.17080821409347294356,-3.608062,-10.083779,0.3537433,-0.19132337,-9.752991,1.0064461409347294359,-3.0137014,-9.576208,0.46806642,-0.54880303,-9.748642,0.912775931409347294378,-2.5725696,-9.054871,0.56084174,-0.8188168,-9.734621,0.85853981409347294379,-2.0907366,-8.892065,0.8583213,-1.0267392,-9.716855,0.83602711409347294392,-1.6304513,-9.06744,1.146224,-1.1560056,-9.700952,0.851810161409347294394,-1.3664906,-9.786898,1.5849615,-1.248344,-9.6864605,0.885723051409347294412,-1.4161704,-10.856507,2.2481554,-1.2923794,-9.673708,0.958924531409347294414,-0.52492875,-13.530831,1.8668787,-1.3225404,-9.656889,1.07970581409347294428,0.90620536,-15.626954,0.5141548,-1.2412444,-9.66284,1.12214661409347294441,2.373851,-16.042349,-0.7386112,-1.0402927,-9.698134,1.01703521409347294445,2.3906105,-13.445837,-0.3824737,-0.7510252,-9.744013,0.812743841409347294457,2.3181858,-10.627861,0.29448682,-0.49746433,-9.771282,0.66706191409347294475,2.7581203,-8.928576,0.42317516,-0.26540193,-9.784084,0.609595951409347294476,3.3153708,-8.27496,0.66020113,0.017880598,-9.790974,0.55399911409347294494,4.018069,-7.9786773,1.3850456,0.34096375,-9.785838,0.53990931409347294495,4.5567646,-7.7464395,2.034473,0.7095513,-9.76214,0.60625141409347294510,4.164714,-8.087613,2.8341362,1.1117544,-9.715536,0.73669781409347294514,3.6367924,-8.821436,4.1012673,1.4487574,-9.653288,0.9410111409347294528,3.550601,-9.078813,3.9366663,1.7000886,-9.576624,1.25233671409347294542,4.051588,-8.513782,2.5396495,1.8916045,-9.503373,1.50934721409347294546,4.355053,-8.149264,1.697489,2.114367,-9.436145,1.63064961409347294563,4.2634745,-8.247426,1.287482,2.3303277,-9.375045,1.68774651409347294574,4.171298,-8.495825,0.89543146,2.517371,-9.321591,1.71499011409347294575,4.0462008,-8.658031,0.46686932,2.6897721,-9.275937,1.70073931409347294604,3.763685,-8.826224,0.108337626,2.8468852,-9.239753,1.64092281409347294605,3.433884,-8.959702,-0.23882163,2.9648926,-9.218828,1.54693261409347294606,3.2094274,-9.249998,-0.45370123,3.0368943,-9.215662,1.42099441409347294622,3.0903158,-9.587581,-0.4177882,3.0650096,-9.228096,1.27215111409347294625,3.0615854,-9.901819,-0.053869538,3.0714731,-9.243084,1.14097561409347294638,2.9011738,-10.196306,0.47405192,3.0579891,-9.257704,1.05546271409347294656,2.8700492,-10.381259,0.9588778,3.0181289,-9.27437,1.02339271409347294656,2.754529,-10.56681,1.2683283,2.9731972,-9.2871275,1.03912531409347294675,2.5258827,-10.916363,1.2449849,2.9173572,-9.300196,1.07970611409347294676,2.2643163,-11.631032,0.8810662,2.8387904,-9.320461,1.11385381409347294695,2.0644004,-12.254722,0.50517654,2.7281237,-9.353906,1.11003421409347294696,1.6118963,-12.466608,-0.017956512,2.60267,-9.395511,1.05871861409347294709,1.0552444,-12.196063,-1.1258733,2.4464822,-9.447222,0.967005851409347294724,0.34955344,-11.960235,-3.3022027,2.2693834,-9.508493,0.78027181409347294726,0.107140526,-11.814787,-5.9005103,2.0613375,-9.578895,0.40750411409347294746,0.97982705,-11.427525,-7.3729444,1.8578198,-9.627506,-0.173341721409347294747,2.3451207,-11.547833,-6.9240313,1.7466335,-9.612336,-0.850083651409347294754,3.7702692,-12.051214,-4.396353,1.7553021,-9.541736,-1.42987971409347294784,5.555745,-12.100894,-1.6190789,1.8757632,-9.47736,-1.68271641409347294785,6.8749504,-11.781867,0.66379243,2.1338992,-9.422665,-1.68233351409347294786,8.158242,-11.497555,2.5246856,2.46607,-9.378068,-1.46311741409347294794,8.036138,-12.446258,4.571728,2.859877,-9.317957,-1.08035541409347294815,7.256227,-13.566145,3.642778,3.1757748,-9.260417,-0.57403791409347294816,7.2807674,-14.489709,-1.0372878,3.3688233,-9.207225,-0.220047951409347294827,6.9407907,-15.941194,-8.343194,3.50539,-9.154766,-0.27000471409347294838,5.7658362,-17.04971,-11.133636,3.5682812,-9.09762,-0.81918821409347294860,4.299388,-15.615582,-8.622119,3.5294037,-9.026013,-1.49826931409347294861,3.4715924,-13.245322,-3.5913026,3.4682353,-8.952868,-1.99696531409347294881,3.7217865,-10.453683,3.0226796,3.4255471,-8.941063,-2.11976051409347294882,3.1830912,-9.504981,1.816002,3.4224658,-9.007516,-1.82256971409347294887,2.697667,-10.375872,1.7776948,3.3916984,-9.058203,-1.61733061409347294894,2.6030958,-10.651803,2.6767175,3.343625,-9.116529,-1.37092421409347294911,2.5617957,-11.446678,3.3638535,3.3006663,-9.173331,-1.06113051409347294929,2.111686,-12.491747,4.185065,3.2272377,-9.230387,-0.745163741409347294931,1.8531121,-15.175049,4.2299557,3.1139143,-9.291344,-0.380621971409347294944,1.1534066,-19.13446,4.024653,2.9371936,-9.35624,-0.063719321409347294963,-0.7062895,-19.608511,5.096657,2.6672142,-9.434988,0.193235921409347294966,-3.0945058,-19.608511,9.012374,2.3181212,-9.516315,0.48626641409347294977,-3.9474401,-19.272127,9.7240505,1.8695298,-9.575753,0.99005091409347294978,-2.4073699,-14.225149,7.6931686,1.408409,-9.597078,1.4432141409347294991,-0.27473465,-10.425551,6.2315083,1.0818591,-9.583855,1.77474781409347294994,0.35913026,-9.13388,2.8999767,0.92104316,-9.546684,2.04520961409347295009,-0.40462008,-9.217078,-0.30226797,0.82142425,-9.535244,2.13886741409347295023,-1.5652094,-9.2787285,-1.0809821,0.7004187,-9.563294,2.0550341409347295026,-2.5067291,-8.585009,0.19632454,0.5622928,-9.602437,1.90982131409347295039,-2.7497406,-7.391499,5.273828,0.37166095,-9.62966,1.81710591409347295056,-1.9081788,-6.637924,4.525041,0.14211568,-9.583674,2.07445741409347295056,-1.2910733,-6.70556,-0.7236475,-0.018872933,-9.542183,2.26202821409347295075,-1.7076644,-7.0545154,-0.49919105,-0.11681349,-9.5887575,2.05243181409347295075,-1.0947487,-7.055712,-0.17537527,-0.2670744,-9.621676,1.87681141409347295091,0.08559271,-7.0724716,1.13964,-0.36960799,-9.644168,1.73890751409347295094,0.557849,-6.873753,2.9281087,-0.34108397,-9.6452875,1.73852991409347295109,0.6183026,-6.0303955,3.1004913,-0.24330916,-9.61286,1.92461351409347295126,0.15143326,-5.1642933,2.610877,-0.1312182,-9.571032,2.13272711409347295128,-0.6290765,-4.221576,2.5234885,-0.08007071,-9.534043,2.29477951409347295140,-1.6849195,-3.4386723,2.801216,-0.14204463,-9.492525,2.45808821409347295158,-2.8634653,-2.9616275,3.2890346,-0.341818,-9.429234,2.67265941409347295158,-4.008492,-2.7742813,3.2303767,-0.68501186,-9.322945,2.96375681409347295179,-4.831499,-2.4785974,3.1082723,-1.1779625,-9.177766,3.24829241409347295180,-5.144541,-2.360683,2.9340942,-1.7831942,-8.980146,3.51391151409347295187,-5.1140146,-2.7377696,2.5474305,-2.429738,-8.734891,3.7374391409347295195,-4.3514614,-3.5296519,1.7196354,-3.0366008,-8.483927,3.8694211409347295209,-2.926313,-4.478953,0.14305355,-3.481147,-8.319069,3.85293531409347295226,-0.8643068,-6.025607,-2.3056161,-3.6771383,-8.349025,3.59761711409347295228,2.2272062,-8.646061,-7.1754227,-3.5572443,-8.633838,2.99553731409347295248,8.516774,-13.131,-14.547768,-2.906659,-9.222521,1.63304021409347295249,17.95771,-19.086576,-9.615114,-1.2162672,-9.703488,-0.730331241409347295254,19.607914,-19.608511,-4.4442368,-1.3327228,-9.704212,-0.47169611409347295279,19.607914,-19.608511,-7.347805,-1.4198815,-9.700095,-0.249969911409347295280,16.678608,-17.563265,-9.263166,-1.4512941,-9.698286,-0.0859578551409347295286,11.702858,-10.703877,-12.717401,-1.4240985,-9.702697,0.0031525091409347295295,7.5704656,-9.345168,-11.645996,4.9074793,-8.017339,-2.79451321409347295311,4.559757,-10.375872,-8.086416,4.957865,-7.778079,-3.33038141409347295315,2.2523453,-9.968858,-3.570952,4.7888045,-7.73745,-3.65644571409347295326,-0.7284359,-7.4926543,5.6000376,4.5236464,-7.859673,-3.73263651409347295344,-2.8939912,-10.712855,7.265804,4.2693076,-8.216213,-3.23067241409347295346,-4.619014,-17.777546,7.390302,3.7845583,-8.7033615,-2.46961431409347295354,-3.0454245,-18.974049,4.707599,2.9767842,-9.211829,-1.56568371409347295376,-0.17717093,-15.552135,2.8622682,2.3315837,-9.476953,-0.959943351409347295376,2.496554,-14.308947,1.033098,2.0029304,-9.579379,-0.62784031409347295397,2.581548,-14.670471,0.8463503,1.9245917,-9.60409,-0.47727661409347295398,-0.83856916,-12.811972,3.0998926,1.8809468,-9.618041,-0.35456011409347295406,-0.45190558,-10.462063,3.2890346,1.6442385,-9.667557,-0.07223771409347295428,-1.2791022,-7.703344,1.3383588,1.4979126,-9.689399,0.205517521409347295429,-3.0071173,-6.449381,1.1300632,1.3142157,-9.712313,0.33796891409347295447,-3.833117,-6.5349736,2.1242554,0.9975984,-9.744675,0.465336231409347295448,-3.6206315,-7.48607,1.894412,0.6049135,-9.766915,0.64174111409347295454,-3.4045548,-8.960898,1.9668367,0.24699919,-9.773742,0.76376661409347295474,-3.4278982,-10.175357,2.1775265,-0.10090726,-9.768704,0.85592971409347295475,-3.043629,-10.201694,1.1935096,-0.4349725,-9.750778,0.95053711409347295491,-2.6042929,-9.906608,0.3369839,-0.7007487,-9.735314,0.950275541409347295505,-2.3050177,-9.631873,0.21308395,-0.9083989,-9.724209,0.88597431409347295507,-2.2164323,-9.495404,0.40342298,-1.0771785,-9.712648,0.821303961409347295526,-1.8543092,-9.8437605,0.41359833,-1.209096,-9.7005205,0.779997351409347295528,-1.2413936,-10.919355,-0.11372458,-1.3112016,-9.690428,0.739441751409347295541,-0.35254622,-12.376825,-1.543063,-1.3394442,-9.692509,0.65693471409347295559,1.1737574,-14.268844,-3.9917328,-1.2724593,-9.713482,0.446669431409347295560,2.971803,-14.674062,-4.4633904,-1.0580683,-9.749364,0.028171911409347295576,3.221997,-12.576143,-1.7938557,-0.70638216,-9.773105,-0.397292521409347295577,3.244742,-10.433332,-0.11731588,-0.37138855,-9.781899,-0.58899521409347295592,3.554791,-8.925584,0.5530606,-0.05299378,-9.785472,-0.641949651409347295608,4.0138793,-8.156446,0.9355343,0.25545192,-9.785178,-0.596160351409347295609,4.4753613,-8.161834,1.003769,0.60345775,-9.7744055,-0.516964731409347295625,4.914099,-8.037335,1.2162545,0.9690772,-9.749457,-0.4235121409347295627,4.811747,-7.6650367,2.2134395,1.3634789,-9.706508,-0.308260771409347295640,3.4823663,-8.383297,7.97748,1.7390324,-9.65073,-0.097638251409347295658,1.9015948,-9.7324295,19.223045,1.9886245,-9.579289,0.67304281409347295659,8.04751,-7.721899,13.795989,2.0704062,-9.277525,2.41066881409347295683,7.0724716,-8.093,6.622362,3.2366672,-8.40266,3.88454371409347295683,6.3482256,-8.867524,4.4161053,3.2366672,-8.40266,3.88454371409347295686,5.6419363,-9.544485,1.2485762,3.2366672,-8.40266,3.88454371409347295705,4.648941,-10.161591,-0.65301853,3.362752,-8.420026,3.7370381409347295707,3.590704,-10.605117,-1.1031284,3.4183607,-8.544925,3.38665631409347295727,2.7910407,-10.884041,-1.3006501,3.3931613,-8.692267,3.0168411409347295729,2.344522,-10.9660425,-1.2090719,3.318805,-8.841432,2.64291551409347295735,2.2200236,-10.883442,-0.81642276,3.2130327,-8.976215,2.29659941409347295760,2.3630772,-10.829573,-0.23582886,3.1048732,-9.082642,2.00891851409347295761,2.5659857,-10.928333,0.25797522,2.9990466,-9.158547,1.81579161409347295766,2.7760768,-11.127651,0.7721301,2.9205673,-9.209962,1.6784831409347295776,2.6084828,-11.369465,1.4850036,2.8665333,-9.240276,1.60333191409347295795,2.484583,-12.156559,2.0021513,2.8017218,-9.260271,1.60253571409347295796,2.168548,-12.44925,2.255338,2.717666,-9.277465,1.64721171409347295807,1.4317327,-13.15135,1.7645266,2.6077263,-9.297216,1.71227721409347295828,0.97025025,-13.986328,-3.3680432,2.4317067,-9.342624,1.72410751409347295829,0.664391,-13.966576,-10.5704,2.2342212,-9.458592,1.30907481409347295835,1.1007342,-12.474988,-14.064139,2.0478833,-9.584835,0.327910931409347295854,2.5623944,-10.322002,-11.835137,1.9265108,-9.577918,-0.849936371409347295855,4.279037,-9.4457245,-7.9846625,1.977335,-9.438658,-1.78109961409347295870,5.7843914,-10.423157,-2.1817162,2.1798172,-9.263125,-2.36924311409347295876,6.409278,-11.617864,3.2920272,2.4469092,-9.178533,-2.43671151409347295888,5.453393,-13.356054,6.381745,2.7085707,-9.20614,-2.0201581409347295903,5.2558713,-14.025233,6.6882024,2.8205018,-9.294301,-1.35319631409347295908,6.2823853,-12.843695,5.2385135,2.9249926,-9.338748,-0.63449441409347295923,6.5858502,-11.958439,3.7433343,3.0877144,-9.307276,-0.1049012241409347295941,5.8663926,-12.409147,0.57640404,3.2463896,-9.250671,0.237509951409347295942,5.533,-13.64695,-4.271256,3.3272507,-9.220708,0.279935721409347295954,5.5270147,-14.810532,-11.016919,3.3686788,-9.209717,-0.059289811409347295955,5.9346275,-15.242086,-13.417107,3.3754191,-9.166933,-0.862704041409347295969,5.409699,-14.875175,-9.088988,3.391888,-9.043803,-1.69561671409347295975,4.7620673,-14.040197,-2.7682958,3.4002385,-8.935764,-2.1819531409347295994,4.92607,-12.70543,0.81642276,3.422199,-8.90809,-2.25940281409347295995,5.1918263,-10.06283,2.594716,3.487252,-8.930018,-2.06499671409347296007,5.771822,-8.863934,2.7156234,3.5856752,-8.956178,-1.76074891409347296024,4.739322,-10.596737,2.0332758,3.7336953,-8.949138,-1.46385041409347296046,3.3518825,-11.820174,2.6593595,3.7816231,-8.96815,-1.20084181409347296048,3.0765493,-11.112687,4.248511,3.730202,-9.025365,-0.89372931409347296049,2.7569232,-10.903194,5.046977,3.6678572,-9.07934,-0.53178691409347296055,2.1817162,-12.284649,5.1906295,3.6022906,-9.120254,-0.121862291409347296080,1.2437878,-15.887324,4.0001125,3.458845,-9.173248,0.241377151409347296080,0.4782418,-19.488802,3.1280246,3.186953,-9.261972,0.479129371409347296089,-1.4227544,-19.608511,4.95899,2.830509,-9.369623,0.607281151409347296110,-4.0587707,-19.608511,9.09617,2.403899,-9.472013,0.820161941409347296111,-3.578733,-18.392258,8.488642,1.8628383,-9.546697,1.24932221409347296115,-1.2617443,-13.8642235,6.658275,1.398831,-9.577394,1.57709031409347296142,0.6721721,-11.66874,5.3881507,1.1304332,-9.564291,1.84847041409347296143,0.66259533,-10.566211,4.7907977,1.0150663,-9.531237,2.07256841409347296159,-0.17058687,-9.448717,4.111443,0.92096204,-9.481831,2.32746151409347296160,-1.3204023,-8.863335,4.2515035,0.8504153,-9.435982,2.53168131409347296167,-2.6940753,-8.086416,3.4464533,0.7422164,-9.399451,2.69626431409347296175,-3.05141,-7.2071457,1.5245079,0.53961337,-9.395294,2.75819161409347296192,-2.2014685,-6.987478,1.939902,0.28642514,-9.432487,2.6676861409347296203,-0.65660983,-6.5265937,0.86131406,0.08640692,-9.44551,2.63538741409347296221,1.2587515,-6.11539,-0.060453594,0.007020327,-9.473261,2.53528881409347296221,1.2892777,-6.3111157,1.2575544,0.11984529,-9.502939,2.41871571409347296237,0.6757634,-6.6056023,0.8535329,0.26354071,-9.500637,2.4163711409347296237,0.29568392,-6.1584854,1.9045875,0.3532236,-9.514726,2.3485381409347296253,-1.0696096,-4.5980644,3.019687,0.37781602,-9.504644,2.38524151409347296255,-2.0649989,-4.1718965,3.0011318,0.23719649,-9.461531,2.5677941409347296270,-3.2303767,-3.2477345,3.7858315,-0.009124076,-9.408761,2.76505281409347296290,-4.2957964,-2.2505496,4.000711,-0.37703222,-9.304586,3.07455781409347296290,-5.144541,-1.7824832,3.8426938,-0.88909566,-9.140345,3.44005781409347296305,-5.849633,-1.6921021,4.1276035,-1.5258592,-8.915596,3.78870731409347296307,-6.1704564,-1.8046296,4.406528,-2.2427485,-8.600397,4.144111409347296323,-6.1746464,-2.0326772,4.51726,-2.9639082,-8.207255,4.475111409347296342,-5.6377463,-2.541445,4.277241,-3.6186461,-7.7770376,4.7532591409347296343,-5.0212393,-3.6122518,3.2112231,-4.1255693,-7.3937044,4.9480511409347296356,-4.694431,-5.2516813,0.91817635,-4.4797316,-7.1861734,4.9458361409347296356,-4.1539397,-7.6811976,-4.413711,-4.756225,-7.2160993,4.6342871409347296371,0.64703304,-12.54023,-17.630901,-4.961435,-7.652928,3.60378381409347296388,14.691421,-19.10154,-14.079701,-4.4107304,-8.728374,0.72894121409347296390,19.607914,-19.608511,0.63087213,-4.564925,-8.62702,0.952043531409347296406,19.607914,-19.608511,-2.319383,-4.7237353,-8.516418,1.15210831409347296407,18.340183,-19.252974,-6.930017,-4.795462,-8.438292,1.40327291409347296421,11.877036,-10.940904,-12.278065,-4.7474737,-8.411736,1.69546461409347296441,8.066664,-4.985925,-11.896789,4.1593194,-8.633472,-2.08173541409347296442,3.3716345,-6.2728086,-8.76637,4.5574236,-8.2283535,-2.77389841409347296457,0.40521863,-7.838018,-3.982156,4.523724,-8.081777,-3.22353891409347296457,-1.0510546,-8.384495,0.5482722,4.2038417,-8.167091,-3.4346321409347296485,-3.5452142,-10.1460285,2.6581624,3.8049977,-8.426521,-3.26896791409347296486,-6.5870476,-16.487072,4.1293993,3.1854315,-8.830787,-2.8356051409347296487,-5.0134583,-18.910004,4.787206,2.2034016,-9.314767,-2.1332021409347296504,-1.6837224,-14.966753,4.4568067,1.4541432,-9.596086,-1.40393281409347296524,1.7220296,-11.90457,3.6170402,1.0896978,-9.706367,-0.87715641409347296525,3.9223008,-11.453861,2.4821887,1.0595517,-9.736324,-0.50174641409347296540,2.1296425,-11.418547,2.9933507,1.2532011,-9.723114,-0.246827331409347296540,0.5614403,-11.803414,4.7884035,1.3054426,-9.719282,0.042174281409347296551,1.1162965,-11.620258,5.273828,1.2217544,-9.72028,0.44029871409347296556,0.65182143,-9.487623,2.9311013,1.1853224,-9.698414,0.84034451409347296570,-0.8098387,-8.206725,1.6531962,1.1306392,-9.682909,1.06457791409347296586,-1.9003977,-8.021174,1.7633295,0.9667157,-9.688751,1.16787231409347296588,-2.404377,-8.768764,1.8788497,0.7341072,-9.69528,1.2778941409347296601,-2.505532,-9.616311,1.1139023,0.44980526,-9.703332,1.34662911409347296607,-2.2230163,-9.570223,0.004189853,0.15456423,-9.71673,1.31593291409347296620,-2.1649568,-9.108142,-0.35673606,-0.09375959,-9.734109,1.18689241409347296643,-2.2936451,-8.945336,-0.25498247,-0.31192967,-9.747043,1.0335511409347296644,-2.207454,-8.92738,0.1412579,-0.52333504,-9.751458,0.89754941409347296648,-1.9021933,-8.9279785,0.51714754,-0.7158618,-9.745859,0.82230371409347296656,-1.5951369,-9.309255,0.7092823,-0.85781306,-9.737206,0.788260941409347296671,-1.2395979,-10.173561,0.51714754,-0.9750144,-9.726915,0.77899591409347296686,-0.3776853,-11.6442,-0.6925228,-1.0411215,-9.722066,0.75359111409347296689,1.0366893,-13.043013,-2.4690206,-1.0034838,-9.736428,0.604469541409347296703,-0.11192893,-12.850878,-0.89423436,-0.81913835,-9.768106,0.2889751409347296720,-0.6422446,-11.21444,0.2777274,-0.7391281,-9.777838,0.133983241409347296720,0.14065935,-10.675745,1.1959038,-0.69968855,-9.7813,0.0834970851409347296738,1.6035166,-10.104729,2.0177135,-0.6130859,-9.786278,0.152677011409347296739,3.1064768,-9.193734,3.2076318,-0.41153988,-9.794128,0.27578291409347296754,3.2692823,-8.191761,11.875839,-0.095130794,-9.791925,0.528718231409347296756,3.4769795,-8.484452,13.148357,0.26963264,-9.67142,1.60042071409347296770,5.3169236,-9.2625675,7.5453267,0.65861076,-9.414,2.6670651409347296785,6.6145806,-9.204509,5.2145715,1.1637714,-9.229289,3.1042321409347296788,6.6971807,-8.777742,2.8072014,1.6848648,-9.07259,3.3195971409347296802,5.9304376,-9.014768,1.210269,2.1171775,-8.98737,3.30380961409347296827,5.410896,-9.838373,0.75118077,2.440136,-8.958584,3.15592771409347296828,4.9422307,-10.487202,0.66858083,2.7106578,-8.963384,2.91212991409347296829,4.1982327,-10.192117,0.86729956,2.87609,-8.984775,2.67812091409347296836,3.4811692,-9.397242,1.1821371,2.964953,-9.006619,2.50205141409347296862,2.961029,-8.66701,1.412579,3.0068538,-9.0202465,2.4009071409347296863,2.5785553,-8.339603,1.2198458,3.0211253,-9.025633,2.36244131409347296870,2.4331074,-8.6334915,0.5386954,3.0113635,-9.035698,2.3362921409347296894,2.3181858,-9.293693,0.015562311,2.9829333,-9.070675,2.23502951409347296896,2.1517887,-9.832987,-0.16101007,2.9336157,-9.117304,2.10690051409347296898,2.0763714,-10.366295,-0.05865794,2.8544724,-9.173057,1.96911191409347296938,2.166154,-10.996569,-0.12808979,2.7600255,-9.230363,1.83113151409347296942,2.420538,-11.528081,-0.439336,2.6653147,-9.287327,1.67692031409347296943,2.2661119,-11.938686,-0.75357497,2.5881,-9.34094,1.48961871409347296944,1.4305356,-12.375628,-0.85173726,2.4975066,-9.396794,1.2779371409347296966,0.6500258,-13.043611,-2.4115596,2.3423722,-9.463385,1.06209061409347296967,0.6015432,-13.488933,-5.3642087,2.133921,-9.5428,0.742798151409347296968,1.3784616,-13.119028,-7.3633676,1.9471059,-9.610017,0.163603011409347296996,2.260725,-12.060192,-7.53994,1.8484894,-9.6167555,-0.521056831409347296998,3.3022027,-11.268311,-6.783372,1.8537595,-9.560795,-1.1511751409347296999,4.565144,-11.277887,-5.6586957,1.9574636,-9.465422,-1.65665381409347297031,6.2219315,-11.671733,-3.210026,2.138912,-9.358365,-2.0041071409347297032,7.6841903,-12.000338,0.55485624,2.4120526,-9.27252,-2.09111241409347297033,7.8170686,-12.652758,4.3358994,2.74803,-9.23013,-1.85025791409347297037,6.9425864,-13.914502,7.385514,3.0642505,-9.223943,-1.3036921409347297070,7.1311297,-13.652337,5.7466826,3.241393,-9.237978,-0.56878891409347297071,8.091205,-12.794614,2.3582888,3.4026728,-9.197326,-0.037361471409347297072,8.364143,-13.485341,-1.6603789,3.6051378,-9.118294,0.173473821409347297103,7.784148,-14.77821,-11.532869,3.7803495,-9.048469,0.067736151409347297104,6.7480574,-14.776414,-16.324863,3.8781075,-8.976207,-0.74726391409347297105,4.4645877,-13.53921,-9.491813,3.90602,-8.964169,-0.7463831409347297126,3.863643,-13.600263,-3.0621839,3.835957,-8.724193,-2.31176781409347297126,4.8045645,-12.794015,1.8830396,3.782379,-8.716482,-2.42629891409347297128,4.4981065,-11.177331,2.1823149,3.7851608,-8.787883,-2.14850621409347297136,3.6601357,-11.671135,0.7128736,3.7689717,-8.8561325,-1.87993171409347297153,3.0681696,-12.17272,2.168548,3.7104356,-8.9195595,-1.68656551409347297169,2.9322984,-11.88362,4.868609,3.6371899,-9.001191,-1.38556831409347297170,2.5558102,-12.177508,5.470751,3.5756335,-9.083276,-0.937710461409347297183,2.2756886,-13.758879,5.3713913,3.4742765,-9.157032,-0.498518261409347297188,1.9734207,-17.906235,4.892551,3.3356178,-9.221589,-0.079312611409347297204,-0.37708676,-19.608511,5.2941785,3.107504,-9.298288,0.235863061409347297218,-3.567959,-19.608511,9.978435,2.739916,-9.4009695,0.533882741409347297218,-4.984728,-19.608511,13.119627,3.0523274,-9.317451,0.196985331409347297236,-2.8616695,-17.372927,11.603498,3.3469744,-9.215392,-0.211387661409347297236,-0.39504328,-13.0998745,7.492056,1.2875656,-9.488892,2.11506221409347297250,0.480636,-11.038467,2.871845,1.033314,-9.455573,2.3863691409347297273,-0.42317516,-9.828198,-0.14185645,0.8785699,-9.457255,2.4410671409347297274,-1.6316484,-9.048885,-0.88286185,0.75193876,-9.478669,2.39996361409347297276,-3.5033157,-8.103774,-0.44352585,0.58619887,-9.512505,2.3106291409347297314,-4.2461166,-6.915053,1.1575965,0.3471496,-9.554304,2.18292141409347297315,-2.1859062,-5.7903767,6.0890536,0.062930435,-9.575343,2.11642381409347297317,-0.6961141,-6.1285577,1.2491747,-0.086589396,-9.50302,2.4198121409347297318,-0.6003461,-6.9425864,-0.6655881,-0.12286252,-9.521823,2.34311441409347297343,-0.024540568,-7.2268977,-0.10235212,-0.15454273,-9.569386,2.138541409347297346,1.115698,-6.925827,0.89782566,-0.14313385,-9.595387,2.01951651409347297350,1.83336,-6.597223,2.2170308,-0.02986937,-9.602332,1.99115471409347297374,1.6304513,-5.953781,3.0765493,0.16064286,-9.58365,2.0732191409347297374,0.4938041,-4.921282,3.514688,0.33779272,-9.540989,2.24183491409347297377,-1.0815806,-4.208408,3.6050692,0.3904808,-9.480968,2.47571231409347297388,-2.2266076,-3.7960067,3.513491,0.25535837,-9.411429,2.74411631409347297415,-3.043629,-3.66672,3.7541082,-0.01849588,-9.329911,3.02039861409347297416,-3.6236243,-3.566762,4.2784386,-0.3921623,-9.221693,3.31314971409347297418,-3.822343,-3.1705215,4.832696,-0.8275243,-9.059745,3.66150671409347297448,-4.1599255,-2.9041667,4.5645456,-1.2898484,-8.835512,4.0546791409347297449,-4.663306,-3.176507,3.5368345,-1.7908598,-8.583696,4.3912841409347297451,-5.291186,-4.0222588,2.0129251,-2.3431072,-8.359405,4.5607671409347297474,-5.8693852,-5.395334,-0.02873042,-2.941959,-8.213815,4.4775571409347297475,-5.8921304,-7.2089415,-3.4703953,-3.543083,-8.189789,4.0674721409347297476,-4.1335893,-8.79929,-9.824607,-4.045188,-8.350761,3.17358161409347297489,1.3718776,-10.220847,-17.04492,-4.2260966,-8.722319,1.493871409347297503,9.261371,-12.954427,-13.855844,-3.57078,-9.0814085,-0.97360661409347297524,16.28596,-17.717691,-7.1712327,-1.8806847,-9.282331,-2.543961409347297525,19.607914,-19.608511,-6.8731546,-2.0978186,-9.282432,-2.36769911409347297530,19.607914,-19.608511,-6.3578024,-2.3025448,-9.283171,-2.16597371409347297537,17.35856,-17.946936,-11.168352,-2.4731853,-9.27942,-1.98648391409347297560,8.532336,-13.672688,-12.832322,-2.543813,-9.278145,-1.90143511409347297561,3.3716345,-11.705252,-8.034941,4.1302257,-8.190234,-3.46867631409347297568,1.186327,-9.569026,-4.4526167,4.0310526,-8.157396,-3.65758161409347297594,-0.2741361,-7.8463974,-2.6982653,3.8012018,-8.207586,-3.78903581409347297596,-1.2264298,-7.7350674,-0.38307226,3.489431,-8.315574,-3.8529891409347297599,-2.540248,-11.333552,2.404377,3.1762648,-8.512019,-3.6915161409347297627,-5.3223104,-16.746841,2.902371,2.7460985,-8.853541,-3.2006451409347297629,-3.323152,-17.311874,0.024540568,2.024258,-9.244888,-2.56997871409347297629,-0.13826515,-13.07294,0.46327803,1.5066586,-9.434312,-2.2122771409347297637,1.6166847,-11.923723,3.8672342,1.3369515,-9.518105,-1.94644621409347297658,1.4496891,-9.8515415,6.0291986,1.3218977,-9.604562,-1.4749011409347297659,1.2036849,-8.3072815,5.920861,1.3229816,-9.675549,-0.896592141409347297669,0.8714894,-8.246828,5.6766524,1.3136929,-9.71131,-0.367500071409347297683,0.54049104,-8.843582,4.5902834,1.2702622,-9.723111,0.133892941409347297688,-0.3172317,-9.595961,3.4919431,1.2074254,-9.716911,0.54233561409347297702,-0.98581254,-10.241198,2.8526914,1.0745808,-9.710307,0.85182081409347297715,-1.3479356,-11.074979,1.797447,0.87927276,-9.709857,1.0563891409347297717,-1.8004397,-11.896789,0.6937199,0.6712328,-9.7163315,1.145751409347297736,-1.8112136,-11.69807,0.92775315,0.42632174,-9.734893,1.10476661409347297737,-1.7806876,-10.465055,1.3150153,0.19421361,-9.744954,1.08098781409347297752,-1.7705121,-9.320627,1.6873137,-0.013732685,-9.746157,1.08748841409347297772,-1.6154876,-8.707113,2.0033484,-0.19561335,-9.7400465,1.12410881409347297774,-1.2515689,-8.351574,2.0913353,-0.3430147,-9.727513,1.19509071409347297792,-1.0636241,-8.4826565,1.9931729,-0.45038125,-9.711671,1.28491431409347297793,-1.0540473,-9.187749,1.9794062,-0.5279537,-9.696506,1.36727861409347297797,-0.9504981,-10.037092,2.0979192,-0.6055752,-9.682123,1.43533621409347297826,-0.5105635,-10.718243,2.1930888,-0.66211206,-9.669315,1.49544181409347297827,-0.037708677,-11.209054,2.0679917,-0.6739615,-9.660788,1.54445311409347297831,0.65421563,-11.645397,1.7543513,-0.64261615,-9.659228,1.56739531409347297837,1.3425486,-12.074557,0.973243,-0.54942364,-9.667191,1.5536851409347297862,1.6567876,-11.736976,0.1436521,-0.39559636,-9.688082,1.46798151409347297863,1.9111716,-10.6398325,-0.4961983,-0.22533947,-9.714362,1.32317831409347297869,2.2822728,-9.585187,-0.7469909,-0.033422597,-9.739177,1.14791611409347297889,2.681506,-9.123106,-0.47465047,0.18614787,-9.756508,0.972787741409347297891,3.2878375,-8.970475,0.090381116,0.43191347,-9.761374,0.83631131409347297897,3.4404678,-9.108741,1.6460136,0.72000533,-9.750833,0.757114051409347297927,2.2774844,-10.024523,5.45459,1.0025455,-9.72043,0.823733571409347297929,2.7964275,-10.193314,8.241441,1.1442378,-9.660722,1.23757781409347297930,5.2079873,-9.245809,4.597466,1.3089027,-9.536402,1.87462081409347297937,5.7065797,-8.726267,2.747945,1.6676676,-9.428656,2.11889151409347297954,5.8226986,-8.356362,2.0189106,2.0335054,-9.334309,2.2149271409347297958,5.461174,-8.406042,1.2378023,2.3860044,-9.243066,2.24568841409347297970,4.809353,-8.899846,0.717662,2.691285,-9.169642,2.2011461409347297992,4.4603977,-9.375694,0.6254852,2.9135668,-9.1254635,2.09938761409347297994,4.0282445,-9.433155,0.5895722,3.067659,-9.100367,1.98575271409347297998,3.578733,-9.115923,0.39624038,3.1559877,-9.091121,1.88723531409347298021,3.4117374,-9.136872,0.23942018,3.198652,-9.097345,1.78250541409347298022,3.6230257,-9.537302,0.2693477,3.2205575,-9.107708,1.68761911409347298031,3.8055837,-10.045472,0.39863458,3.2411242,-9.116216,1.60004251409347298037,3.66253,-10.700885,0.6464345,3.2626388,-9.122002,1.52139591409347298051,3.578733,-11.4598465,0.9032126,3.2552404,-9.135008,1.45789051409347298072,3.4901476,-12.03625,1.0600328,3.223118,-9.153598,1.4119291409347298073,3.2124202,-12.295423,0.9091981,3.1692605,-9.178324,1.37278771409347298077,2.7383683,-11.996746,0.24959552,3.0859976,-9.213607,1.3253071409347298107,1.7932571,-12.479776,-0.9995792,2.982027,-9.259702,1.2392751409347298108,1.0175357,-12.926295,-4.9398365,2.8094597,-9.338833,1.03128481409347298110,0.57879823,-12.469601,-10.038289,2.6000478,-9.441916,0.51027831409347298117,1.3521254,-11.41735,-12.764088,2.4006565,-9.500656,-0.38046591409347298139,3.2309752,-10.893019,-11.241376,2.2960658,-9.429896,-1.40552621409347298140,4.975151,-11.4598465,-6.1076083,2.3491719,-9.261311,-2.2090481409347298150,6.199187,-12.073959,-0.09756372,2.508144,-9.133314,-2.54207521409347298175,7.091625,-11.95365,4.2850223,2.7125466,-9.127778,-2.34437581409347298177,6.8581905,-12.4468565,6.8222775,2.9941952,-9.155799,-1.83754161409347298178,7.2298903,-12.834717,6.9928646,3.1992192,-9.198081,-1.15356681409347298219,8.272566,-12.952631,3.8247373,3.403395,-9.184977,-0.47274731409347298222,8.336012,-13.715783,1.4149733,3.642215,-9.1045685,-0.1071884561409347298223,7.0287776,-15.10442,-3.09271,3.8200698,-9.031982,0.0270206951409347298224,4.249708,-17.033548,-11.743559,3.8541625,-9.015629,-0.185192321409347298244,2.2655134,-16.009428,-12.030864,3.6661663,-9.041329,-0.99195821409347298245,1.0181342,-13.261483,-7.1347213,3.4070795,-9.037892,-1.69668411409347298251,1.7962499,-12.110471,-2.0153193,3.197713,-9.026201,-2.11487271409347298284,2.545635,-10.398617,2.1535845,3.1062615,-9.050183,-2.14842651409347298285,2.204461,-10.3214035,1.9931729,3.0651388,-9.122741,-1.88439331409347298286,2.5360582,-10.893618,2.212841,2.990926,-9.195429,-1.63365221409347298319,3.169923,-10.905589,3.4464533,2.9551373,-9.254391,-1.33932551409347298320,3.37762,-11.30123,4.3077674,2.9729524,-9.294616,-0.970578731409347298320,3.0113072,-11.750143,5.1547165,2.985659,-9.322123,-0.59519351409347298322,2.248754,-13.663709,4.9398365,2.977724,-9.341987,-0.175564081409347298337,1.2587515,-18.259378,4.6046486,2.8822663,-9.371946,0.171878671409347298337,-0.58418524,-19.608511,6.247071,2.65022,-9.431224,0.44581311409347298349,-2.9909565,-19.608511,10.135853,2.3111002,-9.498205,0.78313481409347298369,-3.9193082,-19.594746,10.727221,2.6042995,-9.444049,0.444923761409347298402,-2.8101943,-16.423626,9.589376,2.8547316,-9.381679,0.070861881409347298403,-0.9528923,-12.246342,7.4046674,0.9874561,-9.5188465,2.14169841409347298405,-0.3321955,-10.203489,3.2375593,0.7555682,-9.467819,2.44129131409347298410,-1.2336124,-10.1382475,0.35913026,0.6249732,-9.449849,2.54560971409347298430,-2.3319526,-9.93474,-0.42556936,0.46802947,-9.470653,2.50161271409347298431,-3.5410242,-9.153631,0.40282443,0.31063467,-9.509645,2.3749861409347298432,-3.5152867,-7.3603745,4.8338933,0.082677335,-9.545276,2.24749731409347298450,-2.2349873,-5.864597,5.425261,-0.16636427,-9.503205,2.41491321409347298450,-0.5351041,-5.7335143,-0.19273324,-0.321485,-9.438712,2.64153861409347298467,-1.0073603,-6.76781,0.18315643,-0.33404216,-9.481554,2.48172191409347298470,-0.7009025,-6.859388,0.3405752,-0.4053108,-9.511882,2.35164791409347298483,-0.108337626,-6.4224463,1.0522517,-0.4533567,-9.53544,2.24504641409347298499,0.7685388,-5.3438582,1.7477672,-0.43134668,-9.541948,2.2216081409347298500,0.8194155,-4.553173,2.1523874,-0.3177699,-9.53175,2.2836721409347298518,0.1592144,-3.8133647,2.308609,-0.20111996,-9.507696,2.39450341409347298521,-1.0271125,-3.2375593,2.5151088,-0.16155046,-9.471159,2.53799721409347298538,-2.0638018,-2.6138697,2.8496985,-0.27303156,-9.41693,2.72346951409347298539,-4.76087,-2.2319946,2.8269536,-0.5194138,-9.332597,2.96702121409347298551,-5.433641,-2.4732103,2.6898856,-1.134079,-9.192977,3.22077871409347298573,-5.8741736,-2.918532,2.908955,-1.8353978,-9.001702,3.43089871409347298574,-6.030994,-3.2626984,3.2782607,-2.5583403,-8.7493,3.61594131409347298578,-6.1770406,-3.5901055,3.2375593,-3.2353966,-8.445067,3.79255131409347298611,-5.8693852,-4.38917,2.2625206,-3.849289,-8.12565,3.9149921409347298612,-4.4322658,-5.8221,0.350152,-4.3363104,-7.898482,3.8705021409347298613,-1.8471266,-8.738237,-4.1641154,-4.5742903,-7.9133167,3.55326441409347298619,3.1507695,-13.830705,-17.187975,-4.4048567,-8.354737,2.63931681409347298631,16.884508,-19.413385,-13.345281,-4.5110583,-8.23747,2.8222011409347298651,19.607914,-19.608511,1.9267339,-4.631761,-8.085923,3.05532551409347298651,19.607914,-19.608511,-0.130484,-4.7319994,-7.9319634,3.2958321409347298674,18.004396,-17.74702,-7.162853,-4.737582,-7.824089,3.53685261409347298675,11.577761,-9.455899,-13.627796,-4.6601167,-7.764929,3.76292231409347298678,7.1107793,-6.9958572,-12.086529,4.3987164,-8.495487,-2.15601251409347298713,3.6140475,-8.345589,-8.376713,4.6400247,-8.190397,-2.74918131409347298714,0.9331401,-8.983644,-2.355296,4.537956,-8.0969305,-3.16497451409347298715,-0.50158525,-9.466674,0.38965634,4.2430234,-8.231188,-3.227181409347298720,-3.3494883,-12.34211,0.3585317,3.8581347,-8.476525,-3.07143641409347298743,-5.539584,-16.16565,2.2936451,3.2090673,-8.83258,-2.8031871409347298744,-3.4237084,-14.821305,3.657143,2.3766418,-9.234341,-2.29105641409347298750,-1.0319009,-12.182297,4.3305125,1.8168503,-9.476361,-1.75158211409347298773,1.0354922,-11.525687,4.036624,1.5149045,-9.609744,-1.23623871409347298773,1.1827357,-11.832744,3.0101101,1.4356543,-9.667407,-0.80656121409347298778,-0.27712885,-11.976994,3.6140475,1.3753793,-9.698,-0.476960451409347298800,-0.43155485,-11.87943,4.501099,1.208846,-9.731145,-0.117835731409347298800,-0.24361002,-10.314819,3.1489737,1.0420704,-9.747268,0.274352371409347298821,-0.6799533,-9.245809,1.9728222,0.9107728,-9.749262,0.541077141409347298822,-1.5699978,-8.686762,1.8848352,0.7623687,-9.750141,0.723830041409347298830,-1.9955671,-8.671799,2.0907366,0.5672476,-9.751347,0.871721409347298855,-2.1619642,-9.030929,2.1481974,0.33833626,-9.749803,0.998632431409347298856,-2.2511482,-9.293693,1.0971429,0.10496245,-9.743066,1.10997861409347298858,-2.0093338,-8.844181,-0.15442601,-0.13319837,-9.74241,1.11269471409347298888,-1.8561049,-8.198944,-0.011971008,-0.33066368,-9.749489,1.00424391409347298889,-1.9393034,-8.231864,0.06703765,-0.50063366,-9.751295,0.9121411409347298890,-1.9620483,-8.616134,0.14664486,-0.66553605,-9.749495,0.82147391409347298898,-1.9500773,-9.012972,0.2885013,-0.82043743,-9.743818,0.745179651409347298921,-1.7190368,-9.820416,0.42796355,-0.9652082,-9.734636,0.68965431409347298922,-1.3431472,-10.977415,0.2645593,-1.0625889,-9.726873,0.65517541409347298930,-0.4309563,-12.155362,-0.46148238,-1.1169373,-9.724555,0.59654471409347298948,1.0253168,-13.026253,-1.4748282,-1.0666392,-9.737245,0.467721761409347298949,1.5346833,-12.582727,-1.271321,-0.8699561,-9.764848,0.247644021409347298976,1.0061632,-11.331757,-0.3333926,-0.63223153,-9.786095,0.0551385171409347298977,0.41240123,-10.641029,0.3489549,-0.45367178,-9.796068,-0.040250581409347298979,-0.5758055,-10.520123,1.0019734,-0.35593432,-9.800067,-0.0488584041409347299010,-1.2114661,-10.4249525,2.5797524,-0.3760271,-9.799394,0.02951821409347299011,3.4284968,-8.476671,6.5565214,-0.45798028,-9.792571,0.257328031409347299012,4.3161473,-7.992444,11.570579,-0.10374613,-9.768666,0.856034931409347299034,4.5100775,-9.2069025,7.4441714,0.33491936,-9.61741,1.88775811409347299035,5.16968,-9.740809,4.2413282,0.77084875,-9.468906,2.43228221409347299038,5.41329,-9.488221,2.2816741,1.2408937,-9.360682,2.64730571409347299050,5.604826,-9.391256,1.2791022,1.6578162,-9.290148,2.66743351409347299064,5.864597,-9.457695,1.4107834,2.0149665,-9.2503605,2.557561409347299085,5.474941,-9.351153,1.6490064,2.3421135,-9.203142,2.44685131409347299086,4.0533834,-9.170391,1.1133038,2.6161153,-9.156978,2.3401041409347299092,2.834735,-9.064447,0.9475053,2.7425723,-9.148183,2.22697451409347299098,2.408567,-9.037513,1.1773487,2.770092,-9.16194,2.1344371409347299121,2.4660277,-9.133281,1.198298,2.753391,-9.177071,2.09059451409347299121,2.5258827,-9.543288,1.0654198,2.7263696,-9.191774,2.061211409347299130,2.475006,-10.007763,1.0061632,2.6931705,-9.210751,2.01972461409347299149,2.3702598,-10.394426,1.0510546,2.6538782,-9.235574,1.95742541409347299168,2.0332758,-10.885837,1.1330559,2.6069615,-9.2578125,1.91495481409347299170,1.7663223,-11.201871,1.2216414,2.5259573,-9.287169,1.88106191409347299172,1.46585,-11.361086,1.1713632,2.423315,-9.320463,1.85118821409347299178,1.158195,-11.439496,0.84694886,2.301125,-9.358211,1.81634221409347299202,0.7577648,-11.750742,0.43754035,2.1623373,-9.404313,1.74745151409347299202,0.17956513,-12.601881,-0.11971009,1.9971424,-9.460109,1.6395641409347299211,-0.641646,-13.607446,-2.665345,1.7851408,-9.529679,1.47270351409347299235,-0.65660983,-13.798383,-6.907272,1.5202202,-9.625676,1.09804551409347299236,0.017956512,-12.349293,-9.483433,1.2949817,-9.713918,0.364988921409347299238,1.7226281,-10.800842,-9.77373,1.1671289,-9.723181,-0.5176071409347299250,3.5116954,-10.8864355,-8.65863,1.2188401,-9.634689,-1.36292391409347299264,4.8027687,-11.894394,-5.315128,1.4185964,-9.489088,-2.02859431409347299281,6.2847795,-12.656349,-0.7212533,1.6744875,-9.378237,-2.32704141409347299281,7.6931686,-12.961011,3.3746274,1.990459,-9.346642,-2.201991409347299298,8.992023,-13.431472,6.9425864,2.3538215,-9.36074,-1.7339131409347299312,9.011177,-13.92348,8.5886,2.790766,-9.351502,-0.96510241409347299335,9.694122,-13.728951,4.795586,3.141861,-9.28865,-0.141772871409347299336,9.593566,-14.119804,1.4981717,3.4823647,-9.163448,0.27336921409347299337,8.5060005,-15.5599165,-8.954314,3.7402384,-9.057651,0.374137281409347299338,6.417658,-17.599178,-19.420567,3.8431275,-9.018032,-0.275485751409347299350,3.9426517,-15.4084835,-14.736312,3.8398356,-9.020301,-0.245460031409347299362,3.0855274,-12.955026,-3.4446578,3.6124718,-8.785505,-2.43626621409347299378,3.8283286,-12.18948,2.2750902,3.557689,-8.7954,-2.48076461409347299379,4.4298716,-10.662578,3.632004,3.558134,-8.86037,-2.2369531409347299394,5.0918684,-10.964846,3.0843303,3.5872357,-8.933928,-1.8673751409347299398,4.5136685,-11.982381,3.3237505,3.6505713,-8.970582,-1.54025791409347299411,3.1399956,-12.415731,3.2393548,3.676487,-9.013095,-1.19077221409347299429,2.4534583,-12.493543,2.8491,3.6174626,-9.072893,-0.87577571409347299430,1.8782512,-12.4785795,3.2854433,3.5074053,-9.136985,-0.619673851409347299445,1.062427,-13.587094,3.4231098,3.3609536,-9.205906,-0.354507861409347299461,-0.7398083,-16.82645,3.6164417,3.1424117,-9.289191,-0.08092941409347299461,-3.7630866,-19.608511,8.008006,2.769586,-9.405841,0.172948351409347299482,-5.5419784,-19.608511,10.49199,2.2053246,-9.531222,0.680233841409347299482,-3.946243,-17.621923,9.730635,2.4972453,-9.47573,0.380391061409347299497,-0.95708215,-12.832921,7.2909427,1.1631445,-9.595532,1.65627491409347299498,0.7170634,-10.672752,3.9019501,0.9258844,-9.566225,1.94948141409347299512,0.008978256,-10.1065235,1.7172412,0.8009145,-9.542871,2.1124711409347299529,-1.6561891,-9.661801,-0.05566519,0.68702483,-9.548744,2.1261409347299531,-3.804985,-8.774151,0.48243165,0.5351279,-9.571713,2.06551461409347299544,-3.4099417,-6.7283053,3.8833952,0.26145956,-9.594742,2.01070571409347299559,-2.0093338,-6.0800753,6.318897,0.023907531,-9.562053,2.1764541409347299559,-0.30585927,-6.693589,0.007781155,-0.11599194,-9.483162,2.49530631409347299580,-0.16340427,-6.896498,2.0278888,-0.11151308,-9.530575,2.30784061409347299581,0.12808979,-7.141305,1.8357542,-0.111414164,-9.525557,2.3284651409347299594,0.01316811,-7.3088994,0.96785605,-0.107296504,-9.52464,2.33240751409347299598,0.45489833,-6.7253127,2.0416555,-0.08521571,-9.540394,2.26803831409347299610,0.4794389,-5.5659204,3.5535939,-0.02433644,-9.524818,2.33401731409347299627,-0.7200562,-4.735731,2.4426842,0.048241507,-9.468682,2.55188561409347299632,-1.0283096,-3.9719806,2.3415294,-0.015225882,-9.437767,2.66434051409347299642,-1.9512744,-3.5104983,3.2124202,-0.11521591,-9.396811,2.8030471409347299659,-2.4600422,-2.9700072,3.642778,-0.33891544,-9.314137,3.04997661409347299660,-2.9783869,-2.6024973,4.3514614,-0.62951547,-9.192059,3.35859421409347299686,-3.8097734,-2.565387,4.758476,-0.97330844,-9.009398,3.74883941409347299686,-4.597466,-2.585738,4.530428,-1.4203818,-8.7598505,4.17347961409347299692,-4.9069166,-2.794632,4.317344,-1.9637791,-8.471878,4.5322461409347299699,-5.2474914,-3.0424318,4.1012673,-2.5203598,-8.165221,4.81116631409347299714,-5.5629277,-3.3183637,3.3602622,-3.0836737,-7.853215,4.99883461409347299729,-5.6748567,-4.19943,1.5927427,-3.646034,-7.576919,5.0464981409347299731,-5.1140146,-6.1357403,-1.3221979,-4.17218,-7.4439564,4.83226731409347299744,-4.548983,-9.479243,-7.047931,-4.564393,-7.592775,4.20552831409347299763,1.9829975,-14.974535,-19.090168,-4.752399,-8.124308,2.7533141409347299763,16.305113,-19.54746,-11.928512,-4.8915553,-7.972686,2.9460761409347299781,19.607914,-19.608511,-1.3904326,-5.050582,-7.7932796,3.15068131409347299781,19.607914,-19.608511,-2.8700492,-5.1405888,-7.6452413,3.3608051409347299796,16.816874,-18.024748,-5.9280434,-5.06326,-7.56,3.6578941409347299799,10.64881,-9.169194,-10.398617,-4.932013,-7.5324583,3.8868651409347299814,6.88333,-6.0920463,-10.198701,4.1742277,-8.604609,-2.16954371409347299831,3.5529952,-7.2711906,-7.9691005,4.4161572,-8.324205,-2.71579381409347299832,1.3730747,-8.397662,-3.389591,4.3237414,-8.209833,-3.17399951409347299847,-0.5231331,-9.105747,0.9355343,4.0687823,-8.2815075,-3.32145451409347299862,-3.503914,-12.726379,2.7401638,3.7140663,-8.537035,-3.08141831409347299862,-4.7907977,-17.811066,2.5306711,3.064367,-8.951497,-2.57889841409347299880,-3.5098996,-15.682021,3.232771,2.2442477,-9.331557,-2.01389881409347299881,-1.6358383,-11.984776,4.176685,1.6563001,-9.54635,-1.51468381409347299897,0.13108255,-11.040262,3.887585,1.3330747,-9.658951,-1.047831409347299899,0.2789245,-11.78845,3.108871,1.21095,-9.711255,-0.628916861409347299911,-1.6286557,-12.073959,3.9193082,1.117576,-9.738696,-0.281460261409347299927,-1.2563573,-11.173739,3.393781,0.87104094,-9.767348,0.102957411409347299932,-1.2503718,-10.638037,2.211644,0.67234623,-9.775788,0.390253841409347299943,-1.8309658,-10.596737,2.0626047,0.48025736,-9.779014,0.55735771409347299962,-2.2918496,-10.714651,2.3253684,0.2583767,-9.77818,0.70058191409347299963,-2.4953568,-10.496181,1.9027919,0.026550226,-9.7708435,0.83685191409347299980,-2.4331074,-9.512163,0.52852005,-0.20300372,-9.761278,0.92011991409347299980,-2.119467,-8.106169,0.16460137,-0.41557813,-9.757541,0.887729051409347299994,-1.738789,-7.0305734,0.29867667,-0.5955746,-9.752154,0.843323051409347300013,-1.7274165,-6.879739,0.4770447,-0.7335484,-9.745205,0.81441961409347300013,-1.762731,-7.603985,0.8643068,-0.86231756,-9.736182,0.795963941409347300024,-1.6687586,-8.546103,1.2880806,-0.9820548,-9.723443,0.812773051409347300030,-1.5041572,-9.455301,1.6238673,-1.0811085,-9.708209,0.867338241409347300041,-1.1695676,-10.399215,1.6998832,-1.1565998,-9.692072,0.94678631409347300059,-0.34117374,-11.429919,1.2916719,-1.1748558,-9.68263,1.01821961409347300060,1.163582,-12.634202,-0.12988544,-1.1172724,-9.687644,1.03521531409347300075,2.8736405,-12.818556,-1.525705,-0.91560286,-9.722055,0.90205191409347300079,3.2124202,-11.126453,-1.411382,-0.573584,-9.768507,0.64627441409347300096,2.5755625,-9.020754,-0.41060558,-0.22113304,-9.79522,0.418512971409347300118,2.2188265,-8.340201,0.20111294,0.06898703,-9.802093,0.290876361409347300119,2.2960393,-8.187572,0.5518635,0.31361413,-9.798808,0.23532341409347300120,2.6629508,-8.20433,0.82240826,0.5240759,-9.789685,0.24038551409347300131,2.7880478,-8.901642,1.6801311,0.75736445,-9.7733965,0.278398571409347300149,2.8951883,-9.444528,3.0974984,0.97049224,-9.750074,0.405730961409347300151,3.810372,-9.689334,12.093113,1.1720486,-9.713495,0.66685751409347300159,6.337452,-9.059061,18.446726,1.4665579,-9.533447,1.77001871409347300182,5.917868,-9.029133,9.592369,1.9591962,-9.045709,3.24146751409347300183,4.933253,-9.713875,5.085883,2.3284929,-8.750875,3.7643971409347300191,4.3305125,-9.907207,3.0364463,2.4939113,-8.6292095,3.93542221409347300212,3.4081461,-9.564238,1.09834,2.5195951,-8.627115,3.92363761409347300213,2.5312698,-9.293693,-0.4854244,2.5582016,-8.701186,3.7303281409347300225,2.066196,-9.455301,-0.7116765,2.5272908,-8.828948,3.43989091409347300244,1.6256629,-9.837775,-0.20350714,2.484552,-8.957426,3.12440471409347300247,1.4437037,-10.143634,0.34715924,2.4079213,-9.070444,2.84593341409347300268,1.650802,-10.206482,0.6039374,2.3202188,-9.160744,2.62064221409347300269,1.9572599,-10.262746,0.6823475,2.2566879,-9.225874,2.4415151409347300272,2.2307975,-10.484808,0.8158242,2.2212481,-9.2744665,2.28488851409347300280,2.4708161,-10.836157,0.94810385,2.2044842,-9.307035,2.16557341409347300293,2.883816,-11.390414,1.210269,2.206337,-9.33021,2.06147071409347300307,3.5733461,-11.965023,1.5771804,2.2286875,-9.341695,1.98395141409347300311,4.401141,-12.425907,1.459266,2.289315,-9.337203,1.93547271409347300335,4.944625,-12.937668,0.2801216,2.396821,-9.321416,1.88064431409347300336,5.227141,-13.228563,-3.2513258,2.5241325,-9.315549,1.73772981409347300339,5.019444,-13.25071,-12.865243,2.6637325,-9.344301,1.32626381409347300367,4.531027,-12.2637,-19.503166,2.8019083,-9.396372,0.167107791409347300368,5.7161565,-10.583569,-15.105019,2.7711518,-9.392557,0.52051851409347300372,5.141548,-12.467805,0.55365914,3.0950687,-8.9497385,-2.54816251409347300380,3.7128084,-14.1186075,5.6682725,3.217054,-8.953603,-2.37780711409347300418,5.151125,-13.883377,9.8754835,3.152717,-9.107178,-1.81385971409347300419,6.3589997,-12.695853,5.932832,3.1720014,-9.234891,-0.90861771409347300420,6.932411,-12.675503,1.882441,3.2789793,-9.235726,-0.346484121409347300421,6.6486983,-13.674483,-6.88333,3.417848,-9.190077,-0.176650121409347300453,6.420052,-15.242685,-16.977283,3.498429,-9.141543,-0.602955941409347300454,4.747702,-16.48408,-14.291589,3.4904625,-9.144759,-0.600385841409347300455,3.7762547,-16.961721,-4.9679685,3.5083466,-9.136711,-0.6184091409347300460,5.0038815,-15.769409,1.7316064,3.2576036,-8.873621,-2.6109911409347300485,5.777209,-13.660118,4.0240545,3.308146,-8.938538,-2.3084891409347300486,5.533,-11.653777,3.9594111,3.383557,-9.011583,-1.87437821409347300492,4.8698063,-10.906786,4.2676644,3.4498932,-9.05705,-1.49616221409347300521,4.435259,-10.627861,4.132392,3.5040357,-9.08931,-1.12986681409347300521,3.6780925,-10.561422,4.699818,3.5477304,-9.110006,-0.76928051409347300522,2.9239187,-10.94629,4.8668137,3.558576,-9.129712,-0.394088751409347300547,2.7287915,-11.765706,4.7459064,3.5217345,-9.152469,-0.0098030171409347300548,2.148796,-13.478158,4.276643,3.449884,-9.173828,0.331042231409347300565,1.7417817,-16.662447,3.2890346,3.3012662,-9.21538,0.59061731409347300566,1.0426749,-19.58876,3.0621839,3.0802708,-9.281641,0.73037941409347300578,-1.8644845,-19.608511,4.200627,2.7912357,-9.365834,0.81271631409347300579,-5.083489,-19.608511,8.704121,2.3577254,-9.47044,0.96034231409347300599,-4.8584337,-18.72565,9.460688,2.643053,-9.420111,0.66795421409347300600,-2.6288335,-13.710396,8.194156,1.2799562,-9.569446,1.71982191409347300612,-0.6147113,-11.2210245,5.7670336,0.9155793,-9.549421,2.03486511409347300625,0.415394,-9.920973,3.2249897,0.68001086,-9.515769,2.27114681409347300650,0.4141969,-8.465898,2.147599,0.5813076,-9.487341,2.41305281409347300651,-1.1629834,-7.704541,1.839944,0.5765546,-9.463895,2.50452611409347300653,-2.918532,-7.707534,1.8674773,0.4977223,-9.465743,2.51443031409347300660,-3.578733,-7.37055,1.4047978,0.30950633,-9.475431,2.50814961409347300679,-2.991555,-6.7684083,3.1956608,0.068554625,-9.502965,2.42060521409347300680,-1.1336545,-5.3354783,1.5526398,-0.16928531,-9.490642,2.46362611409347300699,-0.24241292,-4.892551,1.1408371,-0.28471258,-9.498684,2.42163471409347300701,-0.0664391,-5.0691237,1.5664065,-0.32149607,-9.500686,2.40915181409347300713,-0.088585466,-5.6419363,1.1031284,-0.30628383,-9.484638,2.47350621409347300727,0.10534488,-5.559336,2.31639,-0.2577234,-9.484605,2.47916171409347300745,0.19273324,-4.8404775,2.9095535,-0.1944947,-9.460436,2.5754081409347300746,-0.42317516,-4.07134,3.2483332,-0.14585045,-9.414497,2.74159771409347300764,-1.483208,-3.6619315,3.3608606,-0.169405,-9.347788,2.9598271409347300765,-2.794632,-3.2495303,4.033033,-0.32868686,-9.259824,3.21216581409347300773,-4.3101616,-2.7269957,4.2742486,-0.6577856,-9.117082,3.55197621409347300780,-5.269638,-2.3798366,3.9636009,-1.1875418,-8.910689,3.9191521409347300797,-5.5898623,-2.4091654,3.7062242,-1.84791,-8.651382,4.2319271409347300811,-5.6820393,-2.794632,3.8833952,-2.5244286,-8.362127,4.4578571409347300812,-5.45459,-3.1381998,3.9815574,-3.151065,-8.034872,4.65639541409347300827,-5.1906295,-3.3596635,3.1352072,-3.6859658,-7.712016,4.80716751409347300842,-4.146757,-5.1301756,1.5406688,-4.1361423,-7.459081,4.8399191409347300843,-4.4023385,-7.0156097,-1.8435353,-4.3716407,-7.4570484,4.63158371409347300860,-2.593519,-10.887033,-13.752295,-4.6031413,-7.7078996,3.94585161409347300860,14.029424,-17.557878,-19.608511,-4.5539355,-8.533843,1.61418181409347300874,19.607914,-19.608511,-3.281852,-4.6907153,-8.405931,1.87292861409347300880,19.607914,-19.608511,-0.21188685,-4.83467,-8.252965,2.16446731409347300895,18.662802,-19.607315,-7.068282,-4.9679303,-8.110332,2.39009451409347300913,9.336788,-13.301586,-8.84059,-4.9907403,-8.030626,2.60230061409347300913,6.813898,-4.76087,-12.72997,3.8011208,-8.7943125,-2.09331151409347300920,4.099472,-4.4675803,-9.777321,4.219895,-8.395275,-2.80753761409347300942,1.5622166,-5.9160724,-2.7407625,4.3113775,-8.122649,-3.40660931409347300943,-0.59136784,-6.3709707,2.755726,4.166222,-8.153515,-3.51186131409347300960,-3.513491,-8.829816,5.5898623,3.8916702,-8.419026,-3.18516731409347300961,-6.413468,-15.369577,6.5361705,3.3362713,-8.876203,-2.5005451409347300977,-7.1460934,-17.732056,6.758233,2.3261762,-9.3928,-1.59204531409347300994,-4.745308,-14.466964,2.8904,1.3192946,-9.689274,-0.74018621409347300995,-0.7739257,-13.436858,-1.7753005,0.6753814,-9.775213,-0.39932281409347301009,1.0546459,-15.564107,-1.18094,0.4663595,-9.783815,-0.479410831409347301024,0.005386954,-14.469358,1.6633717,0.469786,-9.784889,-0.453508621409347301025,-0.712275,-12.437878,3.916914,0.4247405,-9.794795,-0.22797341409347301040,-1.0139444,-10.58716,4.537012,0.32552898,-9.800588,0.113581611409347301041,-1.3557167,-9.039907,4.012682,0.21531376,-9.794181,0.445037721409347301055,-2.0775685,-8.215703,3.6804867,0.075805694,-9.778444,0.73938051409347301060,-2.5396495,-7.8607626,3.1998506,-0.12016499,-9.752534,1.02177331409347301076,-2.6779146,-8.288726,2.4313118,-0.3485041,-9.721449,1.2419241409347301090,-2.3642743,-8.836999,1.7878702,-0.5864258,-9.69415,1.3601241409347301092,-1.774702,-8.574833,1.2240356,-0.7859117,-9.674917,1.39595781409347301108,-1.1761516,-8.100781,0.7757214,-0.9094764,-9.665917,1.38320791409347301111,-1.1408371,-8.242638,0.5638345,-0.9721078,-9.666181,1.33802941409347301123,-1.3078327,-8.664616,0.6159084,-1.0161805,-9.66929,1.28164681409347301141,-1.3628993,-9.1751795,0.75836337,-1.0595175,-9.670726,1.23487091409347301141,-1.1815386,-9.865308,0.3776853,-1.1045928,-9.669776,1.20236111409347301158,-0.7194576,-11.10311,-0.4997896,-1.1329355,-9.675474,1.12784641409347301160,0.25737667,-12.450447,-1.541866,-1.1128911,-9.696035,0.958523041409347301176,1.2988545,-13.124415,-1.8794483,-0.9937717,-9.732096,0.684923351409347301193,1.7076644,-12.537237,-0.7134721,-0.7775264,-9.767158,0.41048161409347301194,2.0231004,-11.6112795,0.45908818,