time,acc_x,acc_y,acc_z,gravity_x,gravity_y,gravity_z1409346650479,-0.38187516,-10.09156,-1.4101849,-0.33040604,-9.7250185,-1.21870061409346650498,-0.38067806,-10.151415,-1.3377602,-0.33732504,-9.721464,-1.24489161409346650499,-0.39444473,-10.125079,-1.2120646,-0.34347245,-9.719839,-1.25585841409346650507,-0.3824737,-10.048465,-1.0019734,-0.34918666,-9.719283,-1.25856651409346650514,-0.30047232,-9.966463,-0.80086046,-0.35423255,-9.721419,-1.24054321409346650533,-0.25498247,-9.968858,-0.7966706,-0.3502111,-9.7262745,-1.20305371409346650534,-0.22744916,-10.053253,-0.6937199,-0.34068486,-9.731217,-1.16521081409346650547,-0.15741876,-9.7863,-0.6745663,-0.32847157,-9.737033,-1.11923711409346650563,-0.11432313,-9.703699,-0.60932434,-0.31210876,-9.742032,-1.0797261409346650582,-0.10414778,-9.660604,-0.5231331,-0.29244158,-9.747159,-1.03814831409346650582,-0.108337626,-9.698313,-0.5033809,-0.2742205,-9.752429,-0.992640261409346650585,-0.10594343,-9.704897,-0.57760113,-0.25595638,-9.757338,-0.94829731409346650594,-0.076614454,-9.673173,-0.6512229,-0.23786081,-9.761025,-0.914433961409346650612,-0.094570965,-9.797073,-0.7541735,-0.2184264,-9.763908,-0.88812731409346650614,-0.20171149,-9.859323,-0.86370826,-0.2012099,-9.765773,-0.871559141409346650628,-0.30585927,-9.962872,-0.9540894,-0.19511758,-9.766371,-0.86619431409346650644,-0.4441244,-10.115502,-1.0187328,-0.19888335,-9.765979,-0.869766531409346650646,-0.57281274,-10.256162,-0.98940384,-0.21622065,-9.7647,-0.87992911409346650663,-0.7020996,-10.274118,-0.931943,-0.24594037,-9.763683,-0.88338691409346650681,-0.8403648,-10.3453455,-0.9660604,-0.28407815,-9.76299,-0.87963661409346650682,-0.9756372,-10.583569,-0.99179804,-0.33286557,-9.761716,-0.876640861409346650688,-1.1647792,-10.642226,-0.91458505,-0.38991827,-9.760073,-0.871377051409346650694,-1.364695,-10.460267,-0.7906851,-0.45884705,-9.758453,-0.85581091409346650713,-1.5957354,-10.356119,-0.6135142,-0.5418811,-9.756547,-0.82858161409346650714,-1.8136078,-10.313622,-0.41479546,-0.64066625,-9.754185,-0.78474361409346650730,-2.0709844,-10.258555,-0.17178397,-0.6464501,-9.758956,-0.71784491409346650749,-2.3373394,-10.242993,-0.15263036,-0.66187835,-9.763249,-0.641327861409346650750,-2.3774424,-10.267534,-1.0001777,-0.68858784,-9.765574,-0.574289861409346650754,-2.0590134,-10.137649,-1.0516531,-0.7219709,-9.764659,-0.54827771409346650785,-1.7561469,-9.887454,-0.84694886,-0.75744206,-9.761999,-0.54774591409346650786,-1.5711949,-9.610326,-0.7170634,-0.79509014,-9.758478,-0.5570571409346650788,-1.5951369,-9.841965,-0.47764325,-0.829811,-9.754468,-0.576349261409346650794,-1.283292,-9.993398,-0.31244332,-0.8588939,-9.74989,-0.61016421409346650818,-0.83378077,-9.935937,-0.26276365,-0.87834203,-9.745544,-0.650581961409346650819,-0.5189432,-9.846154,-0.2741361,-0.8878653,-9.741048,-0.702907151409346650826,-0.33997664,-9.777321,-0.36032736,-0.89507073,-9.73643,-0.755772951409346650854,-0.22565351,-9.711481,-0.4973954,-0.8988462,-9.732165,-0.80463291409346650855,-0.1604115,-9.705495,-0.6865373,-0.8958301,-9.728697,-0.84872511409346650856,-0.13826515,-9.761759,-0.9259575,-0.88625705,-9.725917,-0.889658031409346650881,-0.14544775,-9.874287,-1.1384429,-0.87100077,-9.723658,-0.92857261409346650882,-0.09636662,-9.865907,-1.3269863,-0.85279334,-9.721452,-0.96772931409346650886,0.011971008,-9.789292,-1.3694834,-0.82850826,-9.719919,-1.00356531409346650894,0.18974048,-9.707291,-1.2683283,-0.80024403,-9.719143,-1.03358281409346650926,0.2705448,-9.816227,-1.2114661,-0.7684063,-9.719271,-1.05626641409346650928,0.26276365,-9.794679,-1.2192472,-0.73395914,-9.720137,-1.07268151409346650929,0.17298107,-9.807847,-1.3617022,-0.6982638,-9.721485,-1.08421781409346650955,0.055066638,-9.907207,-1.489792,-0.6624361,-9.72306,-1.09254031409346650955,-0.039504327,-9.958083,-1.6142905,-0.62819636,-9.724718,-1.09800531409346650956,-0.19093758,-9.956886,-1.7184383,-0.5956098,-9.726041,-1.10443811409346650978,-0.3357868,-9.991004,-1.7465701,-0.5649977,-9.726796,-1.11381711409346650978,-0.39564183,-9.952697,-1.6525977,-0.5367432,-9.726842,-1.12732911409346650992,-0.46387658,-9.761759,-1.5628152,-0.5110387,-9.7262535,-1.14422681409346650994,-0.56922144,-9.614515,-1.553837,-0.488506,-9.7249155,-1.16523181409346651006,-0.6727707,-9.512163,-1.6196774,-0.46845675,-9.722945,-1.18966361409346651026,-0.83018947,-9.627085,-1.7202339,-0.4489964,-9.7205715,-1.21625411409346651028,-0.95588505,-9.97604,-2.11827,-0.43091363,-9.717782,-1.24476291409346651039,-0.97623575,-10.168175,-2.344522,-0.4127603,-9.713868,-1.28092671409346651061,-0.93014735,-10.245388,-2.4384944,-0.3939321,-9.709219,-1.32146571409346651062,-0.801459,-10.309433,-2.4378958,-0.37376392,-9.704343,-1.36251881409346651080,-0.64942724,-10.199898,-2.2810757,-0.35194868,-9.699284,-1.40371821409346651081,-0.55485624,-10.020332,-2.1290438,-0.32854325,-9.6935215,-1.44847261409346651088,-0.4770447,-9.844358,-1.8842367,-0.3055233,-9.686542,-1.49930951409346651095,-0.37469256,-9.82341,-1.520318,-0.2843297,-9.678576,-1.55392921409346651112,-0.22685061,-9.944317,-1.2318168,-0.2641048,-9.670615,-1.60618721409346651126,-0.14305355,-10.057443,-1.0971429,-0.2441938,-9.661895,-1.66089081409346651127,-0.18255788,-10.24419,-1.0516531,-0.22639541,-9.65216,-1.71899681409346651144,-0.29508537,-10.422559,-1.0265139,-0.2100117,-9.641424,-1.78022841409346651158,-0.4213795,-10.602123,-1.0462662,-0.1915183,-9.629795,-1.84411261409346651158,-0.60333884,-10.897209,-1.174356,-0.16670638,-9.617171,-1.91118091409346651175,-0.8218097,-11.156382,-1.3748703,-0.1352645,-9.603775,-1.97980141409346651176,-1.0875661,-11.373655,-1.4933833,-0.100755356,-9.589588,-2.04939841409346651190,-1.4742297,-11.639412,-1.4808137,-0.06446049,-9.575503,-2.11564661409346651194,-1.8722657,-11.935096,-1.2665327,-0.028458033,-9.562321,-2.17522171409346651213,-2.280477,-12.147581,-0.9139865,0.00584668,-9.55113,-2.22402831409346651231,-2.7365725,-12.265495,-0.49081135,0.036794484,-9.542706,-2.25960161409346651232,-3.25372,-12.29243,-0.12449849,0.061892685,-9.537397,-2.28135821409346651235,-3.8546648,-12.278664,0.065242,0.08073504,-9.534499,-2.29285741409346651267,-4.244321,-12.376227,-0.362123,0.09133973,-9.533649,-2.29599551409346651270,-4.203021,-12.554595,-0.9463082,0.09597762,-9.532539,-2.30040841409346651271,-3.8732197,-12.57734,-1.216853,0.09730653,-9.532552,-2.30030371409346651275,-3.2453403,-12.545617,-1.0354922,0.09699322,-9.534654,-2.29158741409346651293,-2.8532898,-12.539632,-0.3824737,0.09661475,-9.538789,-2.27432851409346651296,-2.658761,-12.369044,0.7763199,0.09090689,-9.544677,-2.24973081409346651318,-2.5492263,-12.099098,2.1212628,0.07821225,-9.552089,-2.21852971409346651319,-2.5390508,-11.875839,3.0142999,0.058798373,-9.561211,-2.17949411409346651329,-2.3959973,-11.645996,3.2962172,0.03795067,-9.57231,-2.13068251409346651355,-1.9716251,-11.281479,2.8401217,0.013291881,-9.586106,-2.0680411409346651356,-1.417966,-11.099519,2.1416135,-0.006754443,-9.603344,-1.98648371409346651356,-0.98581254,-10.972627,1.95307,-0.020851796,-9.625109,-1.87809231409346651378,-0.45789108,-10.636241,3.0292637,-0.03187354,-9.651484,-1.73731041409346651378,-0.20171149,-11.185112,2.5647886,-0.042324208,-9.682612,-1.55422951409346651393,-0.107739076,-11.98657,-0.3489549,-0.06090864,-9.714935,-1.33667141409346651410,-0.35793316,-12.334928,-3.2040405,-0.09533406,-9.743805,-1.10434091409346651410,-0.14963761,-12.170924,-4.2066126,-0.14310294,-9.764974,-0.891741041409346651425,0.6326678,-11.830948,-4.309563,-0.20523675,-9.780462,-0.68616631409346651426,1.3144168,-12.250531,-3.9522285,-0.2712877,-9.789834,-0.505917971409346651442,2.2050598,-12.975376,-3.4051533,-0.33418095,-9.795022,-0.340958271409346651458,2.7503393,-13.375807,-3.180697,-0.383361,-9.797656,-0.171283661409346651458,2.6803088,-13.109451,-3.390788,-0.41897273,-9.797687,0.0130828421409346651474,2.3798366,-12.889185,-3.1118636,-0.44257048,-9.794464,0.207290051409346651475,1.3814543,-12.30081,-2.5342624,-0.45659754,-9.787587,0.406242551409346651489,0.38486794,-11.520899,-2.183512,-0.4797351,-9.776351,0.60266561409346651514,-0.018555064,-11.188105,-2.742558,-0.51212347,-9.762033,0.781566261409346651515,-0.08319851,-10.861296,-3.448249,-0.5607576,-9.746537,0.92786631409346651516,-0.062249243,-10.411784,-2.670732,-0.6346898,-9.7297125,1.04892481409346651528,0.5153519,-10.144831,-2.3157916,-0.7318771,-9.710335,1.15936721409346651549,0.6961141,-9.993398,-1.4802152,-0.8345729,-9.691103,1.24754921409346651550,0.28491,-9.901819,-1.4873978,-0.9297499,-9.673472,1.31523631409346651555,-0.75596917,-10.134057,-2.6599581,-1.0187386,-9.656525,1.37262921409346651578,-0.18315643,-9.765948,-2.1984756,-1.0981828,-9.642698,1.40810111409346651578,0.59855044,-8.854955,-1.453879,-1.1561164,-9.6283655,1.45889331409346651594,1.8626889,-7.868544,-1.2826935,-1.2058527,-9.612819,1.51987331409346651615,2.0895395,-7.6644382,-0.7799112,-1.2552334,-9.5982485,1.57111861409346651615,1.9937714,-7.4112515,-0.7404069,-1.3052124,-9.5821,1.6279391409346651616,1.5951369,-6.9006877,-1.3694834,-1.3416524,-9.563819,1.70403751409346651629,0.65541273,-6.735488,-4.4939165,-1.3615961,-9.544942,1.79179481409346651642,-0.45190558,-6.7887588,-6.1076083,-1.3796147,-9.529174,1.86061761409346651673,-0.98102415,-6.821679,-3.810372,-1.4084809,-9.515404,1.90884181409346651674,-0.75477207,-6.5846534,-1.5795746,-1.4472524,-9.498619,1.96267461409346651675,0.5021838,-6.218939,-1.276708,-1.4869448,-9.486223,1.99273041409346651676,1.5149311,-6.1117983,-1.8926164,-1.5238956,-9.481746,1.98610821409346651703,2.046444,-6.0585275,-1.8261774,-1.5698607,-9.480569,1.95568991409346651704,2.1529858,-5.919664,-1.5999253,-1.6239426,-9.479366,1.91697731409346651707,1.963844,-5.9041014,-1.2910733,-1.6768136,-9.478316,1.87622811409346651730,1.6382325,-5.9543796,-0.96426475,-1.7157896,-9.480033,1.83178571409346651730,1.2695254,-6.2219315,-0.38965634,-1.7384435,-9.485122,1.78344551409346651735,0.6380547,-6.771401,0.52612585,-1.747317,-9.493167,1.73120191409346651763,-0.3369839,-7.586028,1.9686323,-1.7449372,-9.503308,1.67710921409346651764,-1.2126632,-8.758589,3.8780081,-1.7351066,-9.514015,1.62582181409346651767,-1.5466543,-10.572795,6.353613,-1.7211504,-9.523384,1.58530191409346651775,-3.645172,-12.843097,9.415796,-1.7049013,-9.529262,1.56744341409346651801,-6.353613,-15.107412,11.029489,-1.7161703,-9.522415,1.59647851409346651802,-7.4788876,-16.971897,9.31105,-1.7689434,-9.501,1.66500041409346651808,-8.151658,-17.609354,7.318476,-1.8460457,-9.478081,1.71128331409346651829,-7.6949644,-15.71554,7.0036387,-1.946339,-9.453631,1.73522561409346651829,-5.6551046,-13.403938,6.4882865,-2.0427697,-9.429674,1.75463711409346651835,-3.544017,-11.863868,5.1601033,-2.1142898,-9.412511,1.76204821409346651869,-1.4622587,-10.052654,3.3075895,-2.170606,-9.398319,1.76931361409346651870,-0.78769237,-8.670003,1.4221559,-2.212008,-9.387515,1.77537011409346651871,-1.1785458,-7.539341,0.54527944,-2.2509518,-9.37452,1.79499391409346651875,-1.2545617,-6.527791,-0.4261679,-2.2819543,-9.3607855,1.82723031409346651903,-1.2749124,-5.6485205,-1.5125369,-2.3003926,-9.349435,1.8619011409346651903,-0.41599256,-6.151303,-1.9021933,-2.3082516,-9.340832,1.89505891409346651907,1.8357542,-8.871116,-2.429516,-2.3000968,-9.337879,1.91937211409346651924,4.179079,-12.141596,-2.8532898,-2.259792,-9.348051,1.91772741409346651941,4.404134,-13.363835,-2.80361,-2.1688395,-9.375806,1.88701361409346651942,3.3842041,-12.771869,-2.961029,-2.0713186,-9.406358,1.84403691409346651959,2.336741,-13.504495,-2.3840263,-1.9830362,-9.429214,1.82424631409346651959,0.43634325,-16.853384,-0.38367084,-1.9022067,-9.450867,1.7980931409346651974,-2.5270798,-18.286913,4.5783124,-1.8188691,-9.481399,1.72196731409346651975,-2.1559787,-14.685434,6.4188547,-1.7646561,-9.510588,1.61403541409346651990,1.3383588,-10.53329,3.954024,-1.740342,-9.540065,1.45902861409346652007,4.1276035,-8.441956,1.3042414,-1.7470483,-9.563212,1.28964081409346652007,4.8482585,-6.752846,0.16819267,-1.7617227,-9.580282,1.13352951409346652024,4.06715,-5.8532248,-0.9552865,-1.7823005,-9.585999,1.04995631409346652027,3.2794578,-6.3422403,-1.5813702,-1.7899338,-9.588503,1.01348331409346652039,2.9454668,-6.976105,-2.184709,-1.7755644,-9.593717,0.98912221409346652056,2.8939912,-7.790134,-2.3750482,-1.7439669,-9.603492,0.94969611409346652057,2.7868507,-8.937555,-2.219425,-1.7064509,-9.615639,0.89324511409346652073,2.4624364,-9.910798,-1.9446903,-1.6635131,-9.628178,0.83744141409346652075,1.9608512,-10.666767,-1.977012,-1.6040398,-9.6413555,0.80108271409346652089,1.3802572,-11.279683,-2.1170728,-1.5309254,-9.654764,0.78242011409346652104,0.7308301,-11.947665,-2.4211364,-1.4357574,-9.669366,0.782542941409346652108,0.077811554,-12.397177,-2.741361,-1.3177224,-9.684974,0.79706241409346652123,-0.6075287,-12.3038025,-2.6150668,-1.182821,-9.700386,0.820868971409346652141,-1.0714053,-11.460445,-2.2146366,-1.0422707,-9.713273,0.85812931409346652141,-1.3335704,-10.363302,-1.9135658,-0.9032965,-9.72249,0.90974081409346652157,-1.411382,-9.685144,-1.6783354,-0.77225804,-9.728304,0.9664981409346652158,-1.3054385,-9.663596,-1.216853,-0.65288144,-9.731294,1.02277241409346652179,-1.1522095,-9.679757,-0.4429273,-0.5395745,-9.733916,1.06307171409346652180,-1.1150994,-9.044696,0.08379706,-0.43964434,-9.736382,1.08626751409346652188,-2.8078,-8.670003,-0.8702923,-0.35161358,-9.739121,1.09373871409346652216,-6.8929067,-9.840169,-3.1064768,-0.28023705,-9.742418,1.08495461409346652217,-6.314707,-10.281301,-3.9360676,-0.25149173,-9.746396,1.05588011409346652218,-3.5793316,-9.383475,-4.2503066,-0.22846447,-9.751715,1.01107821409346652254,-2.3247697,-8.603564,-4.5322237,-0.23591742,-9.759964,0.9261971409346652255,-1.6077064,-8.488044,-4.437054,-0.27519116,-9.768726,0.816498161409346652256,-1.1067197,-9.276933,-3.5392287,-0.33715603,-9.77744,0.67701931409346652257,-0.41000703,-9.767744,-2.831742,-0.37265757,-9.785515,0.52460181409346652286,-0.4866215,-10.524911,-2.28347,-0.36244655,-9.793149,0.365077761409346652287,-0.78050977,-11.129447,-1.6376339,-0.32518414,-9.799314,0.195225341409346652289,-0.61171854,-11.258135,-0.89184016,-0.2752508,-9.802778,0.0129179341409346652315,-0.36272156,-11.048642,-0.24720132,-0.21807314,-9.802467,-0.185657891409346652316,-0.6087258,-11.032481,0.3441665,-0.163029,-9.797188,-0.398651841409346652316,-0.83737206,-11.279683,0.7386112,-0.11493016,-9.786749,-0.613767271409346652346,-0.99060094,-11.690289,0.9720459,-0.075437516,-9.770848,-0.83380971409346652349,-1.0935516,-11.972804,1.1348516,-0.04825053,-9.749825,-1.05308541409346652349,-1.0528502,-12.027871,1.3215994,-0.038248483,-9.724447,-1.26651311409346652355,-1.1605892,-11.958439,1.6406267,-0.0430591,-9.695408,-1.47228261409346652374,-1.3323733,-11.947665,2.5270798,-0.05690467,-9.663929,-1.66602441409346652376,-1.4227544,-12.030864,4.6363716,-0.070241705,-9.6313505,-1.84458771409346652390,-1.2641385,-12.165538,6.143522,-0.07494915,-9.600264,-1.99992241409346652413,-0.89662856,-12.210428,6.76362,-0.07341624,-9.566206,-2.15700391409346652414,-0.8678981,-11.870452,7.265804,-0.052707803,-9.520962,-2.3492251409346652416,-1.4059949,-11.637616,7.2550297,0.0038482,-9.466041,-2.56210661409346652445,-2.7575219,-11.463438,6.0627174,0.10831191,-9.41959,-2.7257941409346652446,-4.6244006,-12.091916,1.3916297,0.23599984,-9.4044695,-2.7695881409346652449,-5.5419784,-12.489353,-2.183512,0.3333239,-9.428194,-2.67739491409346652456,-5.6335564,-12.352285,-3.58412,0.36279345,-9.479254,-2.48645761409346652474,-5.506664,-12.578537,-4.2820296,0.32757103,-9.529992,-2.28961541409346652477,-6.320094,-13.172299,-4.0539823,0.28218204,-9.571358,-2.11656931409346652489,-7.191583,-13.158532,-2.4785974,0.2239505,-9.595409,-2.0120481409346652514,-8.133701,-13.385982,-0.52971715,0.16675767,-9.605911,-1.96699821409346652515,-9.335591,-13.810354,7.5806413,0.087538294,-9.610064,-1.95176971409346652516,-7.4986396,-15.245678,11.956643,-0.038982056,-9.629992,-1.85259711409346652550,-4.7022123,-14.416685,10.371682,-0.16126491,-9.662218,-1.66912581409346652551,-2.1763294,-12.681488,1.2401965,-0.22554626,-9.68559,-1.51949861409346652551,-1.0307038,-11.908161,-2.9981391,-0.28807518,-9.699471,-1.41691581409346652556,-0.99538934,-13.108852,-4.024653,-0.37033862,-9.726266,-1.19708321409346652574,-0.97264445,-14.113819,-4.3059716,-0.48600423,-9.755457,-0.87477721409346652589,-0.11851298,-12.46601,-5.1690817,-0.6345999,-9.768908,-0.579757331409346652589,-0.40222588,-11.545439,-6.221333,-0.8026247,-9.766887,-0.36618521409346652607,-0.4177882,-11.680712,-6.731298,-0.99034756,-9.754318,-0.207103341409346652608,0.10414778,-12.910134,-6.2889695,-1.1761448,-9.735647,-0.065033051409346652622,1.3563153,-15.6233635,-5.04159,-1.3505307,-9.712831,0.085827451409346652637,3.3399115,-19.01894,-1.0181342,-1.508326,-9.686846,0.245724571409346652638,6.7324953,-19.608511,3.4410665,-1.6350654,-9.658991,0.448166521409346652656,9.394249,-19.608511,4.0922894,-1.7045698,-9.631683,0.70393331409346652657,5.7508726,-17.219099,2.6617537,-1.8877081,-9.576281,0.94962541409346652672,2.4648306,-14.220361,-2.4313118,0.39105013,-9.79856,-0.075157681409346652676,0.8858546,-12.412739,-7.28376,0.5751488,-9.788023,-0.18495121409346652693,0.44352585,-10.762535,-8.511387,0.60876405,-9.768595,-0.61183281409346652705,0.6051345,-9.712678,-5.6760535,0.5894339,-9.725494,-1.11252521409346652727,1.0408791,-9.070433,-3.390788,0.5613839,-9.6839485,-1.44096951409346652727,1.477821,-8.412626,-1.6484078,0.566129,-9.653686,-1.62980461409346652728,0.86729956,-7.8009076,-1.4197617,0.6231056,-9.642773,-1.67304841409346652736,-1.5664065,-7.3873096,-2.9131448,0.6585428,-9.641933,-1.66428111409346652761,-0.17657238,-5.6880245,-3.518878,0.5103978,-9.635686,-1.75026431409346652762,0.60693014,-5.403115,-5.480926,0.47487786,-9.605796,-1.91666361409346652770,1.1677719,-5.246893,-6.55712,0.50876784,-9.52466,-2.27868031409346652794,1.2952632,-4.961983,-4.1545386,0.5899185,-9.396451,-2.74392061409346652795,1.4945804,-4.71538,-1.5239093,0.6990014,-9.309747,-3.00173331409346652796,1.804031,-4.3023806,-0.4165911,0.78717387,-9.288888,-3.0442221409346652808,2.1894975,-3.539827,-0.90381116,0.8944544,-9.295913,-2.99272471409346652831,2.190096,-2.9221232,-2.3008277,1.0755837,-9.277458,-2.99036961409346652831,2.5151088,-2.4103625,-2.8921957,1.2885855,-9.201123,-3.13835241409346652836,3.8546648,-2.111686,-1.2575544,1.5584514,-9.079079,-3.36332441409346652868,4.642956,-2.2080526,-1.3377602,2.0201273,-8.972643,-3.40311341409346652869,5.3061495,-2.1374235,-1.963844,2.587291,-8.812026,-3.43868571409346652870,5.897517,-2.1877017,-2.2900538,3.2243161,-8.5608635,-3.5335231409346652932,5.8634,-2.5480292,-2.8616695,3.9042444,-8.233646,-3.62413621409346652933,5.6922145,-3.2489316,-2.7970262,4.4905643,-7.8711705,-3.7483241409346652940,5.305551,-4.311359,-2.1158757,4.9489226,-7.556111,-3.8188711409346652941,4.423288,-5.823297,-0.3890578,5.2587943,-7.375877,-3.75658731409346652943,2.6671407,-8.383896,3.7553053,5.3777313,-7.4467063,-3.4346741409346652943,-0.4997896,-12.4151325,9.184157,5.233442,-7.8939123,-2.54315661409346652944,-9.834184,-18.449718,17.296312,4.5069466,-8.659966,-0.928874851409346652968,-18.37849,-19.608511,19.608511,4.6260843,-8.574738,-1.11516611409346652968,-19.60911,-19.608511,16.799515,4.7148967,-8.501152,-1.29249781409346652969,-18.887857,-19.507956,8.154053,4.730436,-8.4665785,-1.45273451409346652992,-9.28232,-12.777855,5.096657,4.695881,-8.465382,-1.56729961409346652993,-8.494628,-12.198458,6.31351,-3.4805663,-8.383119,3.71205851409346652998,-4.2437224,-9.861717,5.450999,-3.7489674,-8.279444,3.68326471409346653026,-0.59974754,-8.249222,2.2948422,-3.7494388,-8.251582,3.7447931409346653027,0.17357962,-6.365584,1.204882,-3.5733573,-8.34041,3.720091409346653029,1.2599486,-4.4059296,1.1947067,-3.3267992,-8.446832,3.70861821409346653036,3.4572272,-5.881955,-2.6605566,-3.0097463,-8.553173,3.7356481409346653063,6.249465,-10.855909,-5.659893,-2.5439532,-8.851262,3.36954641409346653064,7.5962033,-13.731944,-6.247669,-1.75678,-9.2964325,2.58078841409346653070,5.3767786,-15.433622,-7.0982094,-0.84475833,-9.622795,1.69074151409346653094,2.8341362,-16.576855,-4.2413282,-0.20640813,-9.769228,0.83064451409346653095,-0.022146367,-18.521544,1.9913772,0.11830431,-9.800377,0.33021281409346653097,-1.021127,-16.871939,4.7800236,0.13464549,-9.798123,0.386082861409346653125,0.84096336,-13.690045,4.028843,0.048802026,-9.788917,0.58748191409346653125,2.243367,-10.811616,1.3024458,0.10413842,-9.778973,0.728859071409346653130,2.6420016,-8.852561,-0.9540894,0.22836335,-9.773108,0.77755941409346653136,2.920926,-8.08881,-2.4702177,0.39053982,-9.771683,0.72944121409346653171,3.300407,-7.678205,-2.896984,0.60911685,-9.774207,0.51404581409346653173,3.3075895,-7.8649526,-3.0831332,0.8809455,-9.7630005,0.279513421409346653175,2.4690206,-8.293514,-3.3626564,1.1421283,-9.739915,0.0010103461409346653197,2.2780828,-7.617751,-3.4183214,1.3089883,-9.7138195,-0.314134931409346653198,2.4199393,-6.76362,-2.791639,1.4504806,-9.678679,-0.62421791409346653199,2.4277205,-6.861782,-1.9818004,1.5897491,-9.638952,-0.856556061409346653225,2.3714569,-7.635708,-1.2413936,1.710733,-9.604842,-0.99538641409346653226,2.309806,-8.74961,-0.8194155,1.8097929,-9.580744,-1.05090431409346653228,2.0362685,-10.020332,-0.825401,1.8937031,-9.566218,-1.03525141409346653237,1.4431051,-11.725603,-1.0402806,1.9226954,-9.56259,-1.01513861409346653262,0.14065935,-13.874399,-1.079785,1.8642876,-9.575385,-1.00340781409346653263,-1.5424645,-14.821904,-1.1881226,1.6633222,-9.614867,-0.97880651409346653269,-2.4331074,-13.718177,-1.2240356,1.3259652,-9.668956,-0.960994361409346653302,-2.4642322,-11.899781,-0.961272,0.95363784,-9.713192,-0.95648181409346653303,-2.307412,-10.588956,-0.6619968,0.61132836,-9.742362,-0.939714251409346653303,-2.1218612,-9.7240505,-0.17058687,0.33415744,-9.758884,-0.907156051409346653324,-1.6819267,-8.509591,0.516549,0.08113807,-9.770357,-0.83900141409346653325,-1.2653356,-7.4567413,0.7733272,-0.09986118,-9.779585,-0.72120651409346653329,-1.3808558,-7.4405804,0.29867667,-0.21752661,-9.786544,-0.58875331409346653336,-2.256535,-8.024766,-1.216853,-0.3220514,-9.7886095,-0.4998081409346653356,-2.996942,-8.727464,-3.6954503,-0.48934683,-9.77857,-0.557222961409346653357,-3.0891187,-8.778939,-5.2959743,-0.7157912,-9.742184,-0.864799561409346653376,-3.5757403,-8.839393,-4.015076,-0.9428888,-9.671837,-1.31791331409346653377,-3.537433,-8.758589,-2.297835,-1.208731,-9.594132,-1.63155841409346653389,-3.5595794,-9.011177,-1.614889,-1.4522295,-9.533523,-1.78140071409346653414,-3.196858,-9.049484,-1.4987702,-1.6650717,-9.490032,-1.82681741409346653414,-2.404377,-8.625112,-1.6346412,-1.8219016,-9.460781,-1.82885181409346653417,-1.6813282,-8.480861,-1.4478935,-1.898936,-9.439626,-1.85954331409346653444,-1.4257472,-9.054273,-1.323395,-1.8966163,-9.436006,-1.88016381409346653445,-1.7034745,-9.706693,-1.1773487,-1.8476579,-9.448173,-1.86777571409346653449,-1.982399,-9.910798,-0.86131406,-1.8233699,-9.463166,-1.81498171409346653457,-2.1829133,-9.957485,-0.6404489,-1.8147053,-9.479414,-1.73721921409346653479,-2.2822728,-10.100538,-0.4201824,-1.8360254,-9.49239,-1.64132061409346653480,-2.3385365,-10.584765,-0.2693477,-1.8699423,-9.503516,-1.5352261409346653517,-2.4504654,-11.319786,-0.22026655,-1.899676,-9.5148535,-1.42450481409346653519,-2.7114334,-12.629414,0.3800795,-1.9218305,-9.525617,-1.31892311409346653520,-2.8975825,-12.987946,1.0390835,-1.9415889,-9.542253,-1.16018311409346653521,-3.2974143,-13.144167,1.4053963,-1.9667938,-9.559294,-0.960231361409346653550,-3.4691982,-13.215993,2.0368671,-2.022695,-9.565438,-0.762546061409346653550,-2.8473043,-12.94066,4.429273,-2.083514,-9.567341,-0.543455241409346653551,-2.2876596,-13.026253,8.334815,-2.0967052,-9.578613,-0.156044651409346653557,-2.6204538,-13.724761,11.020511,-2.0747135,-9.572181,0.489194271409346653570,-4.3903675,-14.061147,10.4405155,-2.0710974,-9.505907,1.23234221409346653585,-5.179257,-13.785813,4.2515035,-2.1880026,-9.382893,1.82876271409346653588,-4.3358994,-13.387178,-0.9103952,-2.3491466,-9.307588,2.0051721409346653606,-3.4674027,-13.635577,-3.8624458,-2.422607,-9.329338,1.80688331409346653610,-4.697424,-14.578893,-3.7062242,-2.4234369,-9.379975,1.52098941409346653617,-5.529409,-14.545374,-1.3623008,-2.4655993,-9.416432,1.19247981409346653640,-6.865972,-14.559739,2.3229742,-2.5472841,-9.419698,0.975223961409346653641,-8.3312235,-15.341446,6.667253,-2.7169175,-9.367976,1.01477651409346653648,-8.857349,-15.881937,9.440337,-2.9488254,-9.255873,1.34299551409346653679,-6.5864487,-15.494675,10.869676,-3.1700575,-9.105993,1.78941641409346653679,-3.5865142,-13.8720045,5.823297,-3.2677765,-8.96884,2.2476551409346653680,-2.2894554,-12.271481,-1.0079589,-3.222729,-8.935972,2.4357371409346653691,-2.2762873,-11.594521,-4.8578353,-3.20488,-8.991585,2.24733521409346653715,-2.9933507,-11.715427,-7.076063,-3.153945,-9.097935,1.85757361409346653717,-2.4049757,-10.486005,-8.272566,-3.1104152,-9.2118025,1.27999711409346653717,-1.6783354,-9.388264,-8.137293,-3.0631125,-9.296453,0.60305951409346653746,-1.1414356,-10.244789,-7.1425023,-3.003045,-9.335406,-0.0480475541409346653747,-1.0253168,-12.376825,-6.133945,-2.8820753,-9.355716,-0.57846431409346653750,-0.22026655,-14.657303,-5.134964,-2.7117953,-9.375917,-0.95327461409346653773,0.99419224,-18.20491,-3.2788591,-2.4609368,-9.41433,-1.21844081409346653774,2.528277,-19.608511,1.5765818,-2.1188626,-9.4894285,-1.27731791409346653777,4.2538977,-19.608511,5.1888337,-1.7053077,-9.606273,-0.990863861409346653808,6.1279593,-19.519926,2.5647886,-1.2125708,-9.718415,-0.50247261409346653808,3.3728316,-15.628152,-1.0462662,-0.64878684,-9.782326,-0.23575661409346653809,1.6196774,-12.802994,-5.4623713,-0.31997636,-9.798397,-0.243817091409346653818,1.2683283,-11.563994,-7.2406645,-0.12954292,-9.789415,-0.56656471409346653856,1.0019734,-10.069414,-6.0262055,-0.009865561,-9.75678,-0.987697061409346653856,1.0486604,-8.903438,-2.991555,0.05980068,-9.715696,-1.33119751409346653857,1.323395,-8.495825,-1.9267339,0.11575463,-9.693598,-1.48024881409346653858,1.2330139,-8.007407,-3.3488896,0.18898995,-9.683938,-1.53494191409346653869,1.2677298,-6.9569516,-4.747103,0.2673647,-9.659743,-1.6698131409346653887,0.9564836,-6.359598,-5.6126075,0.36158526,-9.611719,-1.91166891409346653890,1.6903064,-5.1421466,-5.026028,0.43007922,-9.53586,-2.2478491409346653909,1.8992004,-4.9787426,-4.841076,0.56393534,-9.449879,-2.55972431409346653911,1.7824832,-4.9901147,-5.498883,0.69680154,-9.3498335,-2.87497621409346653917,0.99538934,-4.8578353,-3.139397,0.8143106,-9.223949,-3.2289441409346653944,0.64703304,-4.758476,-1.6065093,0.8365698,-9.170023,-3.37361481409346653945,0.2681506,-4.373009,-1.9165585,0.80985916,-9.168263,-3.3848921409346653949,1.0474633,-3.4392707,-1.5897499,0.75736034,-9.154761,-3.43324731409346653975,1.9692309,-2.570774,-1.6771383,0.8335732,-9.132047,-3.47581221409346653976,3.1872811,-1.9387048,-1.650802,1.0459356,-9.076725,-3.56223651409346653977,4.470573,-1.5161282,-1.5580268,1.4330668,-8.985441,-3.65767031409346654010,5.5192337,-1.3425486,-3.4889505,2.0165825,-8.831543,-3.75601551409346654011,5.657499,-1.4227544,-4.2042184,2.7300875,-8.496049,-4.06622081409346654012,5.4102974,-1.8842367,-4.0916905,3.4112158,-8.065894,-4.413091409346654018,4.820725,-2.8862102,-2.9221232,3.981503,-7.6422067,-4.68131451409346654040,3.9636009,-4.4059296,-0.8451532,4.4047236,-7.3696756,-4.7388551409346654041,2.6485856,-7.2514386,3.2543187,4.6684,-7.369761,-4.4791811409346654049,-0.9672575,-12.650962,9.607333,4.6796865,-7.8402424,-3.5779181409346654075,-13.257294,-19.445108,18.742409,3.9703631,-8.804633,-1.6985431409346654077,-19.593548,-19.608511,19.495985,4.073304,-8.717913,-1.89118091409346654079,-19.60911,-19.608511,17.51179,4.180558,-8.6243,-2.07721191409346654155,-14.682442,-18.310854,8.10557,4.225821,-8.559004,-2.24861761409346654155,-6.2793927,-10.423756,4.608838,4.166694,-8.538893,-2.4282421409346654156,-5.4761376,-8.63828,5.155315,-3.512018,-8.352159,3.752011409346654157,-2.046444,-7.0515227,3.7475243,-3.715785,-8.259788,3.76021981409346654157,0.7386112,-6.7773867,2.2936451,-3.6534252,-8.274499,3.78887251409346654158,1.5598224,-6.935404,2.1996727,-3.376379,-8.386665,3.79925061409346654159,3.292626,-7.40766,2.3223755,-2.9972398,-8.513839,3.83425121409346654172,5.122993,-10.957663,2.2062569,-2.418748,-8.689711,3.84824181409346654173,4.5076833,-15.377957,-1.3623008,-1.6458573,-8.937498,3.6854681409346654190,2.8568811,-14.480132,-3.5302503,-1.009407,-9.258403,3.0713951409346654191,1.1492168,-11.934497,-3.8774097,-0.6283879,-9.489818,2.39142251409346654198,-0.107140526,-10.323798,-2.9694088,-0.46697134,-9.62713,1.80851341409346654230,-0.34955344,-11.302427,-0.7302315,-0.4250845,-9.697135,1.39831571409346654232,0.7380127,-11.965622,-0.8535329,-0.41466248,-9.725788,1.18637981409346654233,1.2000936,-12.076353,-1.7064673,-0.30103025,-9.754737,0.961702471409346654238,0.8463503,-11.914146,-1.4879963,-0.15782851,-9.780743,0.694653451409346654259,1.0354922,-10.699089,-1.5394717,-0.0675795,-9.794311,0.487148731409346654259,2.28347,-9.116522,-0.70509243,0.029452013,-9.802601,0.280293431409346654270,3.627814,-8.176797,-0.4141969,0.22699907,-9.802534,0.170884391409346654284,3.675698,-7.9128366,-0.79008657,0.5422233,-9.790907,0.1205292941409346654308,2.8580782,-8.118139,-1.4754268,0.84567344,-9.7699995,0.048209611409346654309,2.0189106,-8.517372,-2.373851,1.0736376,-9.747237,-0.095263921409346654310,1.6585833,-8.699332,-2.9269116,1.2150443,-9.7256,-0.326791581409346654318,1.7304093,-8.558673,-2.598906,1.2996111,-9.701709,-0.59855631409346654341,1.6759412,-8.498219,-1.8046296,1.3699613,-9.676163,-0.815769261409346654342,1.3192052,-8.823831,-1.3078327,1.4262998,-9.657398,-0.933131341409346654351,1.1067197,-9.427169,-0.98222125,1.4448794,-9.648958,-0.99009591409346654371,1.0486604,-10.193314,-0.7368156,1.4315178,-9.650999,-0.98964351409346654372,0.7266402,-11.058818,-0.8182184,1.4105899,-9.657568,-0.955003561409346654378,0.2148796,-11.783662,-1.0845734,1.3494463,-9.669657,-0.92038231409346654404,-0.1352724,-12.115858,-1.1791444,1.2361186,-9.6860285,-0.907352151409346654405,-0.3172317,-12.162544,-1.1976994,1.0940067,-9.703576,-0.90229081409346654422,-0.6362591,-12.073959,-1.0935516,0.93963355,-9.719878,-0.90080261409346654423,-0.79248077,-11.304822,-0.7248446,0.76674074,-9.735855,-0.89197021409346654429,-0.7469909,-10.278308,-0.5351041,0.6124223,-9.749679,-0.85970781409346654455,-0.79367787,-9.337387,-0.6171055,0.4711343,-9.760297,-0.8276571409346654457,-1.6603789,-8.983045,-2.5091233,0.35100803,-9.766202,-0.81759331409346654458,-3.1693244,-9.172187,-7.1586633,0.17293343,-9.755779,-0.98247641409346654471,-4.0827127,-9.201516,-7.282563,-0.12786505,-9.681779,-1.55473831409346654517,-3.457826,-8.702923,-4.2042184,-0.49314213,-9.566652,-2.09913091409346654518,-3.3435028,-9.217078,-2.498948,-0.7891703,-9.482858,-2.37129141409346654522,-2.7246015,-9.285313,-1.7477672,-1.0419389,-9.440056,-2.44337631409346654523,-2.023699,-9.027337,-1.1270704,-1.2038349,-9.431231,-2.40272121409346654524,-1.4694413,-8.760384,-0.4369418,-1.2969805,-9.439415,-2.32070571409346654553,-1.6136919,-8.798691,0.29987377,-1.3334339,-9.465951,-2.18817351409346654554,-1.7806876,-8.995016,0.7565677,-1.369605,-9.50313,-1.99626911409346654557,-1.9632454,-9.311649,0.8858546,-1.4052374,-9.543366,-1.76630771409346654570,-2.0338743,-9.564238,0.84814596,-1.4528935,-9.576782,-1.53125331409346654581,-2.0332758,-9.768343,0.59136784,-1.5088016,-9.600352,-1.31420581409346654582,-1.875857,-9.844358,0.51595044,-1.5565541,-9.614478,-1.14425681409346654597,-1.9500773,-10.099341,0.5734113,-1.5932754,-9.625049,-0.9951581409346654598,-2.136825,-10.553042,0.670975,-1.6293027,-9.632192,-0.858268561409346654611,-2.2343888,-11.19828,0.8798691,-1.6687174,-9.636577,-0.72263171409346654618,-2.268506,-12.127829,1.1486182,-1.6991998,-9.64081,-0.58129371409346654632,-2.2703018,-13.207614,1.4550761,-1.7159905,-9.645709,-0.431380961409346654646,-2.1877017,-13.842675,2.4025815,-1.7151244,-9.65148,-0.27871021409346654650,-1.8501194,-13.22976,3.5691562,-1.7012662,-9.657703,-0.069478031409346654666,-1.7938557,-12.503119,4.3538556,-1.6720363,-9.660813,0.208253551409346654669,-2.9029696,-12.578537,4.970961,-1.661934,-9.651607,0.50483951409346654682,-4.477157,-13.192051,4.947618,-1.7460318,-9.617335,0.79285121409346654704,-5.680842,-13.525444,3.7283707,-1.9271041,-9.557898,1.05036691409346654705,-6.2608376,-13.82831,1.4856021,-2.16397,-9.48554,1.22968971409346654710,-5.544971,-13.358448,-0.9911995,-2.4002752,-9.421033,1.28575711409346654718,-5.0559554,-13.750499,-1.5251064,-2.553659,-9.392744,1.19396381409346654738,-5.3821654,-14.182652,-1.0474633,-2.6349943,-9.389777,1.0292281409346654739,-5.2846017,-13.4739685,-0.581791,-2.7193117,-9.381186,0.87699781409346654752,-5.9639564,-13.445837,1.9183542,-2.7851224,-9.373078,0.7475971409346654771,-7.2203135,-13.876793,6.5098343,-2.9093595,-9.331819,0.789408451409346654772,-8.0445175,-13.84088,9.173983,-3.093084,-9.2350235,1.14785441409346654778,-6.5936313,-12.699445,7.9625163,-3.2966633,-9.087504,1.649141409346654805,-4.68246,-11.96622,2.8886044,-3.4385366,-8.9542,2.04184961409346654806,-3.1561563,-12.195465,-0.84694886,-3.5167773,-8.9085045,2.10742071409346654812,-3.0226796,-13.046603,-2.517503,-3.4695373,-8.972286,1.90545631409346654818,-3.247136,-14.7554655,-4.770447,-3.3973396,-9.050743,1.6469811409346654847,-2.2996306,-13.165116,-7.219715,-3.0472949,-9.321158,0.0198683381409346654848,-1.1336545,-10.758944,-7.4711065,-3.0472949,-9.321158,0.0198683381409346654850,-0.6428431,-11.476605,-6.4487824,-3.0472949,-9.321158,0.0198683381409346654878,-0.0700304,-12.959215,-5.0451818,-2.86666,-9.367184,-0.45660991409346654879,1.0241197,-15.018827,-4.31914,-2.631071,-9.415147,-0.7764521409346654880,2.4516625,-18.748394,-2.9484594,-2.312041,-9.479393,-0.982824561409346654907,4.0880995,-19.608511,0.97384155,-1.8906078,-9.564672,-1.05499831409346654908,6.233304,-19.608511,3.120842,-1.4095262,-9.669282,-0.829831841409346654910,8.089409,-19.48102,2.2409728,-0.8331907,-9.759401,-0.47988651409346654918,6.0118403,-15.618575,-0.10414778,-0.19526422,-9.802109,-0.225664471409346654937,3.1759086,-12.684481,-4.735731,0.26128274,-9.801526,-0.17954921409346654942,1.3036429,-11.299435,-6.785766,0.5040633,-9.783254,-0.45194651409346654950,1.1719618,-9.81503,-4.2610803,0.5755395,-9.751624,-0.86312521409346654975,1.9177556,-9.186552,-1.8112136,0.6153458,-9.725977,-1.09413031409346654976,2.7012582,-8.72088,-1.8148049,0.6744664,-9.711901,-1.1808731409346654978,-0.47285482,-8.430583,-7.386112,0.8041896,-9.695092,-1.23647981409346655001,-0.12808979,-4.505289,-5.1918263,0.7168597,-9.634554,-1.68281521409346655002,0.39683893,-3.9839516,-3.8833952,0.69222796,-9.577252,-1.99185011409346655018,1.1378443,-4.9063177,-3.968988,0.6961539,-9.523901,-2.23184011409346655019,0.8900445,-5.8442464,-3.4368765,0.75525576,-9.454841,-2.49118141409346655036,0.45908818,-5.6545057,-3.7301662,0.78903675,-9.404541,-2.66503291409346655038,0.3890578,-4.848857,-2.765303,0.7845742,-9.342178,-2.87724231409346655052,0.4261679,-4.135385,-1.5514427,0.7563547,-9.297764,-3.02488331409346655070,0.7745243,-3.738546,-1.6543933,0.73106474,-9.280781,-3.08270121409346655071,1.3066356,-3.5344403,-2.4522612,0.7618734,-9.25419,-3.1543481409346655078,1.9602526,-3.2190042,-3.0855274,0.8691098,-9.193191,-3.3015581409346655104,2.5312698,-2.9747956,-2.8089972,1.0686765,-9.090609,-3.5198231409346655105,3.0418332,-2.8981812,-2.9358897,1.353846,-8.976184,-3.71020841409346655112,3.2441432,-2.7647045,-3.8013937,1.6988448,-8.834435,-3.90346651409346655120,3.4506433,-2.747945,-4.250905,2.0543213,-8.619247,-4.20223241409346655142,3.7846344,-2.6737247,-4.8518496,2.4166296,-8.357478,-4.52579831409346655143,4.0575733,-2.7144263,-4.63278,2.7912107,-8.031736,-4.88577131409346655150,4.3400893,-3.4973302,-2.938284,3.167143,-7.703719,-5.1761311409346655185,4.3143516,-5.409699,-0.5446809,3.5593326,-7.5180273,-5.19430831409346655186,3.6673183,-8.710705,4.3478703,3.9057724,-7.5960627,-4.8182141409346655188,-1.4820108,-15.230116,14.111424,4.0935655,-8.1140785,-3.68440631409346655211,-13.761272,-19.608511,19.608511,3.3171127,-9.1544285,-1.16773031409346655212,-19.327791,-19.608511,19.608511,3.4286742,-9.081603,-1.39250481409346655213,-18.06485,-19.608511,13.197438,3.5238323,-9.013741,-1.58287721409346655218,-10.509348,-16.878523,6.1638722,3.5329971,-8.978193,-1.75510061409346655238,-8.091804,-10.486604,6.2823853,-2.9756615,-8.640104,3.55870991409346655239,-5.445013,-8.561666,6.177639,-3.3992727,-8.484686,3.55322651409346655250,-1.2300211,-7.9391727,3.8133647,-3.5938592,-8.365637,3.64289571409346655272,0.38845924,-8.005013,2.5731683,-3.4486387,-8.403522,3.69569131409346655273,0.26635495,-7.7308774,2.6767175,-3.1794465,-8.495469,3.72673231409346655278,1.7980455,-8.653842,2.6300306,-2.8791828,-8.583272,3.76936671409346655306,3.454833,-13.072341,0.28431144,-2.4314075,-8.72787,3.75272421409346655307,2.6725276,-17.812262,-3.2435448,-1.8412725,-9.011815,3.40107511409346655311,1.2366052,-16.44637,-3.6900635,-1.3608941,-9.337108,2.67147781409346655319,-1.543063,-12.8532715,-0.741604,-1.0833447,-9.532801,2.0303851409346655339,-2.6431987,-12.127829,2.15538,-1.0966028,-9.58672,1.75004171409346655340,0.97623575,-11.729194,-0.4141969,-1.1971271,-9.577932,1.73218861409346655353,3.354875,-11.152191,-3.3333273,-1.001253,-9.636718,1.51709161409346655381,2.8341362,-11.318588,-2.718616,-0.64818776,-9.720123,1.12670041409346655383,2.5151088,-10.566211,-1.1821371,-0.3564733,-9.765839,0.81959881409346655384,4.4999022,-7.6081743,-0.78290397,-0.09477993,-9.787351,0.607598541409346655420,5.9082913,-6.5750766,-0.7457938,0.30848113,-9.791545,0.448201451409346655421,5.73531,-7.3166804,-2.1332338,0.81733346,-9.765818,0.36220341409346655422,4.4861355,-8.835801,-3.5452142,1.3045553,-9.71832,0.150960671409346655423,3.1741128,-9.752781,-4.669292,1.6543677,-9.664408,-0.180856931409346655431,2.802413,-9.556456,-4.6818614,1.8457183,-9.612313,-0.60593941409346655462,3.205836,-9.006389,-3.484162,1.9642444,-9.555703,-1.00034611409346655464,3.4045548,-8.90643,-2.3385365,2.090536,-9.498644,-1.25531461409346655466,3.145981,-9.330204,-1.6382325,2.223881,-9.450549,-1.38270521409346655504,2.5659857,-10.025121,-1.3491327,2.3267853,-9.419136,-1.42701091409346655506,1.2892777,-11.762115,-1.1857284,2.3646421,-9.409111,-1.43091551409346655507,0.49559975,-12.959814,-0.97503865,2.2408044,-9.444992,-1.3933051409346655508,-0.7637503,-13.90672,-0.88525605,2.052452,-9.497159,-1.32732471409346655543,-1.8321629,-13.644555,-1.0007763,1.7567297,-9.566857,-1.24881591409346655544,-2.3630772,-12.148179,-0.825401,1.4059052,-9.632971,-1.1830771409346655546,-2.654571,-10.183139,-0.7858967,1.0560029,-9.686417,-1.10840261409346655549,-2.7311857,-8.474277,-0.78050977,0.7138164,-9.724554,-1.04590261409346655566,-2.4223335,-7.5327573,-0.60214174,0.3868699,-9.747227,-1.00611591409346655566,-2.19249,-7.6171527,-0.45729253,0.12215397,-9.757143,-0.97654581409346655580,-2.0979192,-8.128913,0.023343466,-0.1191697,-9.760955,-0.93806881409346655581,-2.2188265,-8.513183,-0.43754035,-0.3304463,-9.763172,-0.86119921409346655598,-2.959832,-9.178172,-1.9961656,-0.5249767,-9.756844,-0.835930051409346655599,-3.892972,-9.521142,-3.5565867,-0.7614859,-9.730065,-0.95727091409346655613,-5.553351,-9.913791,-3.8600516,-1.0497484,-9.67431,-1.21496621409346655630,-5.036802,-9.388264,-2.6671407,-1.4556887,-9.58362,-1.48512841409346655630,-4.4597993,-9.445126,-2.0440497,-1.7902634,-9.496725,-1.66661409346655647,-3.578733,-9.67018,-1.6208745,-2.027151,-9.431338,-1.76378231409346655668,-2.8329391,-9.588778,-1.0199299,-2.1753914,-9.389233,-1.81118641409346655669,-2.2158337,-9.372103,-0.54887074,-2.2320135,-9.384451,-1.76651791409346655673,-1.7034745,-9.405622,-0.29029694,-2.2334635,-9.4017,-1.67035071409346655679,-1.8022354,-9.878476,-0.2112883,-2.180288,-9.432032,-1.56636641409346655705,-2.1649568,-10.041881,-0.25857377,-2.1263068,-9.461938,-1.45634841409346655706,-2.4025815,-9.858126,-0.3716998,-2.1048293,-9.481493,-1.35698711409346655712,-2.4319103,-9.64983,-0.52253455,-2.118228,-9.489601,-1.27709761409346655736,-2.4229321,-9.625289,-0.427365,-2.1371422,-9.49207,-1.22622071409346655737,-2.581548,-10.007165,-0.06584055,-2.1629553,-9.493099,-1.17180011409346655739,-2.8496985,-10.736199,0.6171055,-2.1953964,-9.495285,-1.09095231409346655751,-3.0382419,-11.373655,1.3072342,-2.2325778,-9.501747,-0.95014161409346655778,-3.2082303,-11.849503,1.6035166,-2.2689307,-9.51008,-0.76203361409346655780,-3.151368,-12.101493,2.3834279,-2.3082864,-9.513818,-0.57399911409346655780,-2.6671407,-11.979388,4.5842977,-2.3387368,-9.51726,-0.349987361409346655806,-1.941099,-11.950658,7.4447703,-2.3284276,-9.526115,0.044211121409346655807,-2.2828712,-12.966398,8.799889,-2.2733152,-9.518497,0.63295411409346655811,-3.2028434,-14.253282,6.4362125,-2.234866,-9.467839,1.23926991409346655832,-4.2898107,-14.73691,2.0470424,-2.24928,-9.412735,1.58478441409346655833,-5.489306,-14.526819,-2.7730842,-2.3329625,-9.385552,1.6245281409346655849,-5.931036,-13.852253,-5.4114943,-2.479575,-9.389177,1.36581281409346655863,-5.073912,-13.441049,-4.168904,-2.6306949,-9.401353,0.929721831409346655864,-5.1726727,-14.37778,-0.8265981,-2.713196,-9.405695,0.58468441409346655882,-6.1584854,-15.450382,2.0177135,-2.7767706,-9.39499,0.440567051409346655882,-7.092224,-16.69417,4.770447,-2.8677077,-9.363331,0.524125161409346655899,-6.503849,-18.188751,8.975264,-2.9877725,-9.306302,0.797710061409346655899,-4.7656584,-18.842966,10.811018,-3.0256193,-9.237015,1.30137521409346655914,-2.5881321,-16.547525,9.81922,-3.0762248,-9.210161,1.37119521409346655929,-0.75118077,-13.032837,3.477578,-2.852195,-9.108301,2.2526091409346655930,-1.0893618,-11.541249,0.27712885,-2.730411,-9.117218,2.36465451409346655948,-2.171541,-11.785458,-3.402759,-2.6185155,-9.172178,2.27703291409346655963,-2.2972364,-12.29243,-8.4234,-2.5629525,-9.259399,1.96601141409346655964,-1.2234371,-10.353725,-10.895413,-2.5147302,-9.395511,1.25336021409346655984,-0.9876082,-9.611523,-7.5950065,-2.4490273,-9.489172,0.358129471409346655984,-1.1845313,-10.98759,-6.015432,-2.3645275,-9.514319,-0.239025561409346655990,-0.46208093,-13.050794,-5.103241,-2.2695227,-9.518689,-0.64356641409346656000,1.2114661,-16.494852,-2.9317,-2.1139262,-9.531314,-0.92506491409346656032,2.3546975,-19.558832,2.0368671,-1.8204522,-9.584214,-0.999592361409346656035,3.6715083,-19.608511,3.0023289,-1.4415562,-9.6737795,-0.71435981409346656036,4.794389,-19.10154,0.94331545,-1.0215371,-9.744397,-0.416600581409346656062,3.9486372,-14.535797,-1.4915876,-0.57880557,-9.785519,-0.281083641409346656063,2.7820623,-11.009138,-4.5082817,-0.24477527,-9.798297,-0.322271821409346656064,1.8046296,-9.821614,-6.491279,-0.005906594,-9.789143,-0.58569151409346656111,1.2892777,-8.974665,-7.410054,0.15585516,-9.756794,-0.97522851409346656112,1.3036429,-8.000824,-5.507861,0.25987872,-9.6993885,-1.42293081409346656113,1.7609353,-7.467515,-3.1549592,0.5875564,-9.590967,-1.95921541409346656113,2.2864625,-7.3926964,-2.15957,0.5875564,-9.590967,-1.95921541409346656113,1.8255788,-7.6584525,-2.7659016,0.5875564,-9.590967,-1.95921541409346656131,0.29029694,-7.2831616,-3.875614,0.698518,-9.560349,-2.06935021409346656144,-0.2657564,-6.4481835,-2.7748797,0.6979744,-9.518878,-2.25259541409346656162,1.4945804,-5.365406,-1.8596961,0.6504402,-9.502408,-2.33486271409346656162,2.2643163,-4.797382,-2.393603,0.7437755,-9.488497,-2.3633951409346656163,1.7675194,-4.931457,-2.566584,0.9015692,-9.445572,-2.47764751409346656181,1.1959038,-4.5034933,-1.5640123,1.0075179,-9.40019,-2.6060981409346656181,0.93972415,-3.719991,-0.4961983,1.0793232,-9.379495,-2.65152121409346656198,1.055843,-3.116652,-1.3557167,1.1164781,-9.383794,-2.6207351409346656200,2.1667526,-2.6420016,-1.5239093,1.1705334,-9.353875,-2.70283221409346656222,3.5571852,-2.1649568,-1.7597382,1.3885751,-9.294035,-2.80413031409346656223,4.305373,-1.8872294,-2.5617957,1.819481,-9.178386,-2.93548771409346656231,4.7046065,-1.8555063,-3.809175,2.36069,-8.974932,-3.16987631409346656259,4.8656163,-2.2343888,-4.2419267,2.9221842,-8.66418,-3.54446321409346656260,4.3305125,-3.1729157,-3.2800562,3.445371,-8.297163,-3.93153171409346656261,3.0310593,-4.4939165,-1.3156139,3.8283653,-8.034509,-4.11833671409346656287,1.1629834,-6.325481,0.89603,3.9830134,-8.016281,-4.0056471409346656288,-0.5267244,-8.48984,3.5500026,3.8260252,-8.29944,-3.55685781409346656291,-4.458602,-13.135788,12.723985,3.369816,-8.812185,-2.67584011409346656320,-13.119028,-19.3655,19.608511,2.229842,-9.5412655,-0.403057071409346656321,-17.411833,-19.608511,16.766594,2.2635021,-9.522343,-0.60988021409346656322,-15.156494,-19.550453,9.134478,2.2888374,-9.502351,-0.79809391409346656332,-11.266515,-14.987702,4.1425676,2.2664444,-9.495965,-0.92751471409346656354,-10.830172,-11.203667,3.5673606,-3.3468344,-8.65819,3.16304251409346656355,-8.091804,-9.980828,3.7894228,-3.872436,-8.49977,2.98806481409346656360,-4.4873323,-9.794679,2.60968,-4.109067,-8.403121,2.9450851409346656393,-1.7304093,-10.034698,1.7705121,-4.0839233,-8.423017,2.92314271409346656394,0.20350714,-10.626065,0.76315176,-3.849848,-8.542598,2.8936261409346656396,1.9818004,-15.962143,1.6106992,-3.4619439,-8.742097,2.78586981409346656416,1.9434932,-19.608511,0.3429694,-2.839388,-9.019054,2.6009431409346656417,0.11432313,-19.038692,-0.8158242,-2.236904,-9.275382,2.2658171409346656420,-2.995745,-15.772402,2.6898856,-1.9026616,-9.429454,1.90674291409346656451,-2.7443538,-12.800001,3.5871127,-1.8878732,-9.433472,1.9015681409346656451,2.3930047,-10.499771,-2.1559787,-1.9110351,-9.412211,1.98207811409346656452,5.0613422,-8.005612,-4.7698483,-1.6298828,-9.522597,1.6834591409346656460,5.1942205,-7.0108213,-2.1350293,-1.1769509,-9.655876,1.24468521409346656516,4.8344917,-6.218939,-0.10115502,-0.6879755,-9.729562,1.01621721409346656517,5.869984,-4.8961425,0.866701,-0.21928339,-9.758888,0.94148961409346656517,6.405088,-5.9029045,-0.13347675,0.3416703,-9.758375,0.90981141409346656518,6.011242,-8.1163435,-1.9871874,0.9306091,-9.729822,0.796839831409346656519,4.9613843,-9.685144,-3.435081,1.4537373,-9.683116,0.542506461409346656522,4.120421,-9.967062,-4.173692,1.8369992,-9.631513,0.172643811409346656532,4.0779243,-9.5253315,-4.3861775,2.0966718,-9.576996,-0.235590091409346656553,4.0479965,-9.129689,-3.7535098,2.309932,-9.51022,-0.62477681409346656553,3.9055414,-9.227852,-3.0065188,2.4962454,-9.437955,-0.92957861409346656559,3.7499185,-9.457695,-2.5234885,2.6370902,-9.376029,-1.14288941409346656580,3.3650506,-9.709086,-2.2146366,2.749335,-9.323471,-1.29786071409346656580,2.606687,-10.580576,-1.8052281,2.8180885,-9.286028,-1.41367211409346656594,1.4293385,-11.610083,-1.2455834,2.7967536,-9.283526,-1.47130181409346656609,0.016759412,-12.6461735,-0.93852705,2.6560438,-9.32705,-1.45669641409346656613,-1.103727,-12.911331,-1.1599907,2.3832026,-9.409686,-1.39590611409346656631,-1.6585833,-11.959636,-1.1210849,2.0299757,-9.498617,-1.35123671409346656632,-1.6651673,-10.174759,-0.89303726,1.6708909,-9.576502,-1.29195121409346656647,-1.6310499,-8.350377,-0.89303726,1.3524083,-9.636987,-1.21238881409346656663,-1.8974048,-7.7213006,-1.2096704,1.0724013,-9.680661,-1.14243341409346656664,-1.8680758,-8.347982,-1.4059949,0.79051733,-9.710729,-1.11679521409346656676,-2.1823149,-9.302073,-0.6823475,0.53042233,-9.727612,-1.12368111409346656680,-2.8700492,-9.956886,-1.3060371,0.26522008,-9.744511,-1.06983761409346656692,-5.116409,-9.67018,-4.3155484,-0.037848376,-9.747526,-1.07456111409346656710,-7.1341224,-10.280104,-2.4408886,-0.5381214,-9.695494,-1.37047241409346656711,-6.302736,-9.949704,-1.1749545,-1.1651181,-9.626736,-1.46248081409346656727,-6.2434793,-10.1382475,-2.1703439,-1.6452339,-9.543864,-1.54215031409346656742,-5.8143187,-10.197504,-3.5661635,-2.0491138,-9.42985,-1.74626851409346656743,-4.695628,-10.2417965,-3.7122097,-2.3435078,-9.312668,-1.9881081409346656758,-3.193865,-10.094553,-1.9201498,-2.5157924,-9.228298,-2.1632551409346656760,-2.5240872,-9.925163,-0.38486794,-2.5636966,-9.216663,-2.15661361409346656777,-2.2170308,-9.868899,0.6356605,-2.5636816,-9.251358,-2.00256471409346656780,-2.7491422,-10.280702,0.5542577,-2.5256274,-9.30709,-1.7803561409346656794,-3.2124202,-11.118074,0.83138657,-2.5189586,-9.347818,-1.5631811409346656815,-3.4781766,-11.95365,1.0007763,-2.5296774,-9.380487,-1.33324771409346656816,-3.454833,-12.462419,1.3150153,-2.5498319,-9.404107,-1.10973481409346656820,-3.0723593,-12.540829,2.4127567,-2.5632215,-9.42379,-0.890210871409346656855,-2.2337902,-12.477382,5.4300494,-2.5487955,-9.45032,-0.604563361409346656856,-1.216853,-12.120646,7.851186,-2.470863,-9.489795,-0.09494591409346656857,-1.0001777,-11.247959,7.0287776,-2.3190608,-9.513049,0.542425161409346656860,-1.4885949,-10.776301,5.4863133,-2.1908736,-9.505684,1.00619441409346656891,-1.9189527,-10.600926,5.390545,-2.1446834,-9.485077,1.2665081409346656892,-1.7818847,-9.79827,6.1345434,-2.1445382,-9.446753,1.5265041409346656892,-2.7742813,-10.216059,1.5071499,-2.1352396,-9.37386,1.93440211409346656912,-4.0144777,-12.306197,-1.9668367,-2.160576,-9.346992,2.03372361409346656915,-5.0613422,-14.061745,-4.4017396,-2.2062588,-9.37573,1.84350691409346656929,-5.6700683,-14.743494,-5.029619,-2.299925,-9.4335165,1.3745851409346656945,-5.2319293,-14.284406,-2.7952304,-2.4580088,-9.456601,0.83741721409346656946,-5.076905,-13.709199,-2.5013423,-2.5731711,-9.4487705,0.51953891409346656957,-6.1507044,-13.546393,-1.5837644,-2.6767373,-9.43126,0.238300341409346656960,-5.4312468,-14.155119,4.4286747,-2.8334637,-9.388204,0.059198371409346656976,-5.2594624,-14.562732,8.063671,-2.9013104,-9.361386,0.342422131409346656980,-4.696825,-15.593435,9.781511,-2.9545498,-9.309994,0.874667471409346656993,-3.6134489,-15.31092,8.307879,-2.9467754,-9.236309,1.47563551409346657009,-2.5019407,-13.433268,1.8555063,-2.8806205,-9.1846285,1.87483011409346657011,-2.19249,-12.840104,-0.14903906,-2.8273706,-9.2014885,1.87322881409346657025,-2.9945478,-13.447633,-2.5791538,-2.7872972,-9.233579,1.77267811409346657041,-3.394978,-14.192827,-6.707356,-2.7667458,-9.283528,1.52695681409346657041,-2.4534583,-13.218388,-7.732673,-2.7373645,-9.366987,0.967877151409346657068,-1.4688427,-11.270106,-6.7091517,-2.678198,-9.427906,0.335021641409346657068,-0.79966336,-10.5680065,-5.786187,-2.601583,-9.453315,-0.192347451409346657072,-0.5919664,-11.046846,-5.151125,-2.4811678,-9.46979,-0.580752551409346657080,-0.13826515,-12.822147,-4.551976,-2.3478246,-9.478022,-0.90839961409346657116,0.9103952,-16.146496,-2.3690627,-2.1679978,-9.496736,-1.13234351409346657117,2.421735,-19.327791,1.3401544,-1.8874168,-9.553737,-1.1550561409346657117,3.8977604,-19.608511,3.0358477,-1.504624,-9.648762,-0.898815451409346657120,5.058948,-19.606117,1.3910311,-1.0748883,-9.73137,-0.56165931409346657146,5.101445,-17.642872,-0.99538934,-0.6212004,-9.780043,-0.367751181409346657147,4.5274353,-13.693637,-3.934272,-0.21679829,-9.798389,-0.33901751409346657161,3.496133,-10.835558,-6.0740895,0.09940905,-9.791579,-0.53433481409346657162,2.7611132,-9.276335,-5.801151,0.3486384,-9.762089,-0.86628761409346657176,1.9680338,-8.480861,-2.9113493,0.54392713,-9.718589,-1.1931431409346657190,1.4407109,-8.423999,-1.2802993,0.66937023,-9.6918955,-1.33772641409346657192,0.107140526,-9.452309,-4.5920787,0.7438573,-9.681372,-1.37408511409346657209,-1.3670892,-9.693524,-9.25359,0.70671415,-9.646026,-1.62023591409346657214,-0.12749124,-6.42903,-7.8888946,0.5618492,-9.548654,-2.16285321409346657229,0.39683893,-5.3636103,-3.4979286,0.53561115,-9.431541,-2.63240031409346657243,0.9487024,-5.503671,-1.8405426,0.52324677,-9.381204,-2.80885221409346657250,1.3928268,-5.445013,-1.3210008,0.54867494,-9.358883,-2.87761241409346657270,1.2695254,-4.987122,-0.7966706,0.6161036,-9.354085,-2.8795621409346657270,1.4903905,-4.6154222,-0.9008184,0.67855746,-9.368549,-2.8178481409346657274,1.4736311,-4.43466,-1.2749124,0.77185476,-9.372751,-2.77959921409346657299,1.4000094,-3.8313212,-2.0895395,0.8789818,-9.363543,-2.77882171409346657300,2.19668,-2.8048072,-2.3331497,0.9953268,-9.321971,-2.87759421409346657301,3.5703533,-2.1254525,-2.0129251,1.2136499,-9.244948,-3.03782221409346657312,4.80636,-1.8058267,-1.460463,1.6258451,-9.130635,-3.18724371409346657334,5.6898203,-1.6519991,-1.6867151,2.2219133,-8.973275,-3.27320221409346657335,6.133945,-1.8980033,-2.3475149,2.945849,-8.7267475,-3.36693791409346657340,6.2686186,-2.3959973,-3.25372,3.6857762,-8.389004,-3.49429231409346657365,6.169259,-2.6779146,-3.6996403,4.3399944,-7.9867206,-3.68064791409346657366,5.7784057,-2.9227216,-3.6224272,4.871096,-7.5704393,-3.88989381409346657372,5.473145,-3.7654808,-2.9771898,5.2566977,-7.2168875,-4.0563591409346657398,5.297171,-5.889736,-1.578976,5.540281,-6.9733953,-4.1045691409346657399,3.8247373,-10.00896,1.733402,5.6896367,-6.9711494,-3.89891241409346657401,-7.591415,-18.312052,17.509995,5.5274453,-7.43878,-3.20660521409346657413,-18.72565,-19.608511,19.162592,5.648979,-7.2444897,-3.4317371409346657435,-19.60911,-19.608511,17.455526,5.7623453,-7.0534315,-3.63522821409346657436,-19.60911,-19.594147,10.903793,5.787968,-6.9543314,-3.78247281409346657441,-15.105019,-13.090897,5.1158104,5.7406216,-6.9169283,-3.9206841409346657471,-7.5590935,-7.241263,4.9266686,-3.6690917,-8.480914,3.28363251409346657472,-3.4141316,-6.8204823,2.5893292,-4.017637,-8.288578,3.3657771409346657473,0.08499416,-6.8881183,-1.1773487,-4.0598726,-8.287573,3.3172231409346657507,2.801216,-7.896077,-2.5504234,-3.8390603,-8.485229,3.07130461409346657509,4.9883194,-12.338518,-4.624999,-3.3474257,-8.799191,2.74579291409346657510,6.019622,-15.5120325,-4.8859673,-2.52971,-9.23239,2.12930461409346657537,5.2798133,-14.156316,-4.496909,-1.6274294,-9.558088,1.47132431409346657538,3.9492357,-12.836513,-3.774459,-0.9245511,-9.7195,0.92029541409346657539,2.9538465,-14.25388,-0.7469909,-0.44647595,-9.781948,0.533447561409346657541,1.0043676,-14.384962,3.0579941,-0.094013624,-9.797484,0.413348171409346657576,2.0620062,-12.510901,3.0460231,0.026270168,-9.789474,0.5795591409346657578,4.177882,-11.237784,1.882441,0.1986714,-9.780512,0.68739921409346657581,4.4436383,-9.8042555,0.6871359,0.50136983,-9.768056,0.70999771409346657608,4.2754455,-8.544308,0.17776948,0.78560036,-9.749128,0.71255061409346657609,4.2850223,-8.367735,-0.5710171,1.0775319,-9.72087,0.71692461409346657610,3.477578,-8.470686,-1.8249803,1.3756992,-9.688525,0.64056911409346657613,2.5007436,-8.248624,-2.7389667,1.6036426,-9.663663,0.46079821409346657640,2.2409728,-7.383718,-3.2944214,1.7371938,-9.649549,0.196919581409346657641,1.9925743,-7.243657,-3.4129345,1.851474,-9.629507,-0.1225191409346657642,1.7322049,-8.153454,-3.265691,1.9249618,-9.60534,-0.449795161409346657664,1.5334862,-9.189545,-2.9107506,1.9438188,-9.583349,-0.74253631409346657665,1.1372458,-9.7007065,-2.417545,1.9243594,-9.56723,-0.96711841409346657672,0.75836337,-10.168175,-1.9919758,1.8620193,-9.563171,-1.11760011409346657692,0.54527944,-10.9025955,-1.6681601,1.7521658,-9.572663,-1.21013161409346657694,-0.06404489,-12.1044855,-1.5346833,1.6380388,-9.589096,-1.23954071409346657722,-1.2360066,-13.093889,-1.4556746,1.4552637,-9.61772,-1.24580731409346657723,-2.2266076,-12.475587,-1.282095,1.177443,-9.65796,-1.22793441409346657724,-2.5031378,-10.864288,-1.158195,0.8496961,-9.696251,-1.19631111409346657754,-2.0446482,-9.510966,-1.1139023,0.5290531,-9.722198,-1.17021171409346657755,-1.3617022,-8.64666,-0.8810662,0.2716735,-9.733961,-1.16043671409346657755,-0.8948329,-8.116942,-0.58897364,0.11099399,-9.739102,-1.14366391409346657761,-0.4381389,-7.721899,-0.20231004,-1.96E-04,-9.742866,-1.11667041409346657778,-0.34476504,-7.856573,-0.29209262,-0.042379007,-9.748764,-1.06311791409346657792,-1.7429788,-8.396465,-1.1174936,-0.054918464,-9.753086,-1.02209881409346657793,-3.4446578,-9.142858,-1.5502456,-0.20014234,-9.746834,-1.06281571409346657806,-3.4219127,-9.22426,-2.2613235,-0.50845486,-9.725015,-1.15584651409346657822,-3.3028011,-9.216479,-3.6182373,-0.79861736,-9.682514,-1.3347351409346657823,-3.2980127,-9.305065,-4.4759603,-1.0499606,-9.614248,-1.62303141409346657838,-2.9466639,-9.520543,-3.9851487,-1.2603712,-9.530338,-1.93765151409346657841,-2.4821887,-9.672575,-2.6443958,-1.4221553,-9.459432,-2.16033651409346657877,-2.2373815,-9.807249,-1.1569979,-1.5258594,-9.430329,-2.21608261409346657878,-2.4025815,-10.181343,-0.18555063,-1.5975109,-9.442088,-2.11312821409346657880,-2.7443538,-10.670957,-0.005985504,-1.6655221,-9.47131,-1.92112951409346657881,-3.0083144,-10.948685,-0.050278235,-1.7430978,-9.494482,-1.72825621409346657911,-3.0358477,-10.976217,-0.0688333,-1.8355075,-9.5064745,-1.55828541409346657914,-3.1483753,-10.875661,-0.076015905,-1.9208009,-9.512437,-1.4122421409346657934,-3.1142578,-10.71106,0.21428105,-2.0166216,-9.510013,-1.28967581409346657935,-2.9191303,-10.494385,1.3449428,-2.1040733,-9.507082,-1.16562471409346657936,-2.7341783,-10.91756,4.211401,-2.1718547,-9.514719,-0.96101321409346657941,-0.85532856,-11.568184,6.593033,-2.2074566,-9.540944,-0.517609241409346657966,-0.58777654,-11.839926,4.5777135,-2.0623398,-9.58707,0.072312721409346657967,-0.9103952,-11.86686,4.0144777,-1.9243186,-9.609405,0.3559751409346657973,-1.3682863,-11.054627,6.3242836,-1.8357235,-9.617856,0.545316161409346658000,-2.2864625,-11.532869,7.1466923,-1.8100194,-9.589881,0.963533641409346658001,-3.7984009,-13.408727,4.221576,-1.8311254,-9.519198,1.48399141409346658002,-5.0900726,-14.830284,-0.91817635,-1.9353169,-9.455811,1.73568481409346658030,-5.632958,-14.504672,-5.047576,-2.0814795,-9.449959,1.5925071409346658031,-4.8243165,-14.155718,-4.0653543,-2.251038,-9.475405,1.14886651409346658033,-4.595072,-14.780604,-0.2633622,-2.353386,-9.488607,0.77348451409346658041,-4.325724,-14.619595,2.5959132,-2.4091403,-9.483167,0.66031061409346658080,-4.646547,-15.218743,2.7024553,-2.4304912,-9.467694,0.791132031409346658082,-6.1848216,-15.565903,5.553351,-2.4570453,-9.454789,0.860387861409346658084,-7.3148847,-15.12118,7.511808,-2.5870104,-9.388729,1.15306371409346658085,-6.4284315,-13.705009,4.5112743,-2.7927763,-9.274566,1.53402441409346658094,-4.896741,-11.733982,0.30765492,-2.9739676,-9.191158,1.68775811409346658104,-3.755904,-11.35929,-0.107140526,-3.1135695,-9.159338,1.60704951409346658146,-3.2704794,-11.982381,-3.0160956,-3.172787,-9.151324,1.53527431409346658147,-3.196858,-12.491747,-6.666056,-3.1575148,-9.199022,1.25637921409346658148,-2.7431567,-12.095507,-7.903858,-3.1052136,-9.274657,0.713278951409346658149,-1.7890673,-10.651803,-7.0515227,-3.0457523,-9.321283,0.086347951409346658153,-1.2802993,-10.964247,-5.855619,-2.9576147,-9.339236,-0.448993151409346658180,-0.6889315,-12.625823,-4.783615,-2.8374908,-9.349556,-0.83954211409346658181,-0.11971009,-15.041573,-4.300585,-2.658488,-9.376562,-1.08761821409346658182,0.7433996,-18.553268,-2.7455509,-2.4186995,-9.419991,-1.25859081409346658193,2.142212,-19.608511,1.2509704,-2.0948327,-9.495169,-1.2742911409346658213,4.018069,-19.608511,3.757101,-1.7064459,-9.604385,-1.0070881409346658214,5.3139305,-18.992004,2.160767,-1.2399162,-9.70816,-0.62019361409346658221,5.0810947,-14.303559,-2.0386627,-0.7530226,-9.770464,-0.37603171409346658246,3.9695864,-10.931327,-4.1581297,-0.34142625,-9.790965,-0.436816131409346658248,2.6683378,-9.731233,-4.1892543,-0.014524785,-9.78483,-0.65366161409346658254,1.3323733,-9.110536,-4.174889,0.21745676,-9.764279,-0.884272631409346658287,1.1067197,-8.580819,-2.8802247,0.3262503,-9.736699,-1.12278881409346658288,0.94930094,-8.6813755,-2.7168205,0.39195788,-9.716511,-1.2673461409346658289,1.2228385,-8.639477,-3.3614593,0.43524203,-9.6988945,-1.38289581409346658324,0.2717419,-8.195353,-5.2798133,0.50352234,-9.670201,-1.55050741409346658325,0.82719666,-6.4044895,-4.9416323,0.49672964,-9.6151495,-1.86348151409346658326,1.5346833,-4.8201265,-5.0182467,0.53696346,-9.548925,-2.16797021409346658327,2.0895395,-4.5082817,-4.4801497,0.63122284,-9.455199,-2.5241171409346658355,2.260725,-4.754286,-2.5498247,0.7859411,-9.355351,-2.83374291409346658355,2.0925324,-4.8003745,-1.3575124,0.96233755,-9.306696,-2.93763691409346658356,1.8070238,-4.5142674,-0.88645315,1.0974427,-9.295019,-2.92722251409346658384,1.2509704,-4.4723687,-0.91578215,1.1922827,-9.297746,-2.8811051409346658385,1.608305,-4.2395325,-1.536479,1.2608272,-9.305451,-2.8265341409346658385,2.6479871,-3.435081,-2.0757728,1.3711437,-9.282016,-2.8521161409346658424,3.3716345,-2.855684,-2.6330233,1.6236957,-9.202971,-2.97310231409346658424,4.514866,-2.5300727,-2.3702598,1.9763229,-9.06459,-3.17769071409346658425,5.301361,-2.31639,-3.2148144,2.4914446,-8.878154,-3.3378861409346658426,5.445612,-2.0901382,-3.9366663,3.0863695,-8.589169,-3.58760551409346658444,5.41748,-2.2882583,-3.7720647,3.6515412,-8.2247095,-3.89753651409346658446,3.53863,-4.7255554,-0.84216046,4.1612496,-7.8467,-4.1573641409346658453,2.2661119,-6.7761893,2.634819,4.355658,-7.8483357,-3.94996761409346658482,-0.56563014,-10.26933,7.5052238,4.3447695,-8.1730585,-3.23951911409346658483,-9.68694,-17.38789,18.330606,3.8203561,-8.849414,-1.80642521409346658484,-17.812262,-19.608511,19.608511,3.8770206,-8.782714,-2.00076061409346658494,-19.60911,-19.608511,18.2091,3.9299293,-8.714862,-2.1856911409346658514,-16.160862,-18.726248,8.428787,3.9243324,-8.679791,-2.3304971409346658514,-9.9712515,-11.367071,2.4690206,3.868694,-8.666873,-2.46757031409346658522,-9.616311,-8.739435,3.2489316,-3.613064,-8.377764,3.5957231409346658545,-6.2530565,-8.124723,3.7828386,-4.1226015,-8.222679,3.40030671409346658546,-2.7257986,-7.3986816,1.5275006,-4.319515,-8.151196,3.32718941409346658554,-0.110731825,-7.817667,0.16101007,-4.2421374,-8.219268,3.25857451409346658581,2.9747956,-10.052056,0.57879823,-3.9594686,-8.397041,3.15954281409346658582,4.656722,-16.848597,1.4682442,-3.339758,-8.703598,3.04364441409346658583,3.3662477,-19.575592,0.54408234,-2.459338,-9.071222,2.79910231409346658628,0.88525605,-16.97489,2.307412,-1.7806082,-9.340739,2.3980041409346658630,-0.19093758,-12.458228,0.75118077,-1.4450077,-9.433155,2.25786231409346658631,1.1821371,-11.283274,-2.7012582,-1.3216312,-9.484595,2.11332271409346658634,3.6942532,-10.84334,-4.867412,-1.1200883,-9.585412,1.74231791409346658635,4.4424415,-11.314399,-4.9458222,-0.72462535,-9.701753,1.233421409346658643,3.105878,-12.09431,-1.9147629,-0.2881237,-9.774716,0.736401441409346658655,2.961029,-10.907384,0.7637503,0.014298283,-9.794342,0.490962451409346658685,4.7979803,-8.403049,1.2126632,0.27773762,-9.79067,0.48582541409346658686,5.837064,-7.281366,-0.091578215,0.6785142,-9.771035,0.48668551409346658686,4.9320555,-7.713519,-2.5719712,1.1213547,-9.732926,0.427933751409346658716,3.4931402,-8.4587145,-4.4047327,1.4761411,-9.693061,0.189667121409346658717,2.6725276,-8.419808,-4.863222,1.7156233,-9.653235,-0.205093831409346658718,2.3373394,-7.7877398,-4.398747,1.8684328,-9.606355,-0.63030521409346658722,2.6222494,-7.438186,-3.3518825,1.9628824,-9.555289,-1.00694661409346658746,2.9005754,-7.7452426,-2.3648727,2.0643542,-9.502545,-1.2690381409346658749,2.8628666,-8.50181,-1.697489,2.1767735,-9.456174,-1.41874741409346658753,2.5516205,-9.396643,-1.3796587,2.27071,-9.423697,-1.48601021409346658777,2.106299,-10.539874,-1.2413936,2.3256567,-9.408243,-1.49889241409346658778,1.2599486,-12.307394,-1.2270284,2.3196573,-9.413253,-1.47657131409346658782,0.06464344,-14.510059,-1.3132197,2.2040558,-9.448659,-1.42667291409346658812,-1.1534066,-15.609596,-1.3856442,1.952942,-9.514239,-1.35486691409346658814,-1.9680338,-14.395138,-1.2904748,1.6079528,-9.589986,-1.27163271409346658814,-2.4235306,-11.80521,-1.1091139,1.2526714,-9.6510725,-1.2074721409346658822,-2.9694088,-9.3822775,-1.2449849,0.9103952,-9.69894,-1.12788881409346658850,-3.2279825,-8.278551,-1.501763,0.5529568,-9.729813,-1.09334471409346658850,-2.8640637,-7.577648,-1.1839328,0.19412732,-9.741511,-1.1116161409346658854,-2.6030958,-7.24665,-0.9115923,-0.11452625,-9.740411,-1.13211931409346658873,-2.3762453,-7.8356237,-0.33877954,-0.38023004,-9.732286,-1.1438671409346658874,-3.105878,-8.737639,-2.3786395,-0.5905565,-9.726598,-1.10226311409346658887,-6.461352,-10.002377,-3.2615013,-0.84418464,-9.691098,-1.24112151409346658910,-6.5577183,-9.68275,-2.8245595,-1.3748133,-9.597171,-1.4746381409346658911,-5.868787,-9.147048,-2.4498668,-1.8377705,-9.479957,-1.7098091409346658914,-4.208408,-8.432379,-1.7351977,-2.2028408,-9.367061,-1.89104241409346658922,-3.7283707,-8.996213,-1.3215994,-2.4150052,-9.305039,-1.93763221409346658943,-2.2697031,-9.841965,-0.34835634,-2.5503738,-9.27952,-1.88587161409346658944,-1.7483658,-10.204087,-0.008379706,-2.5141344,-9.319736,-1.72974661409346658955,-1.5777789,-10.645818,0.05566519,-2.4284534,-9.371942,-1.5619611409346658973,-1.4969746,-11.056423,-0.22744916,-2.3269067,-9.421628,-1.4102621409346658976,-1.8070238,-11.367071,-0.55365914,-2.2135777,-9.4642725,-1.3030771409346658989,-2.0254946,-11.155783,-0.49320555,-2.129209,-9.492143,-1.23939981409346659006,-2.0045455,-10.871471,-0.034117375,-2.079329,-9.510222,-1.18425581409346659006,-1.7705121,-10.939108,1.3275849,-2.044346,-9.527063,-1.10731161409346659021,-1.2617443,-11.600506,4.224569,-2.0042243,-9.555384,-0.92093521409346659022,-0.61171854,-12.257714,6.8947024,-1.9241779,-9.603267,-0.495200431409346659038,-0.2100912,-12.651561,8.336012,-1.7933193,-9.640432,0.128346921409346659042,-0.7661445,-13.594875,9.77373,-1.631011,-9.642146,0.734299961409346659057,-2.2008698,-13.587693,12.306197,-1.5375196,-9.59133,1.34641041409346659070,-3.774459,-12.700642,10.277111,-1.5885944,-9.451795,2.07613731409346659087,-5.2558713,-12.718598,-0.5746084,-1.7725842,-9.278396,2.63433361409346659088,-6.203975,-14.24969,-5.7335143,-2.0269458,-9.27487,2.45736771409346659105,-7.0395517,-14.355634,-6.7330937,-2.2535856,-9.337905,1.9736461409346659105,-6.6403184,-14.23293,-2.15538,-2.475731,-9.387595,1.38355241409346659118,-6.637326,-14.780604,1.2641385,-2.645116,-9.373714,1.14332631409346659122,-6.3721676,-14.839262,3.8145618,-2.787454,-9.341465,1.06654251409346659156,-5.767632,-15.534179,5.720945,-2.865175,-9.302728,1.19181851409346659158,-5.7359085,-15.401899,6.6026096,-2.8956525,-9.262601,1.4106031409346659162,-4.123414,-13.468581,7.8847046,-2.9745197,-9.195538,1.66275081409346659194,-2.8580782,-11.824364,1.5095441,-3.0120142,-9.108889,2.03133441409346659199,-2.5438392,-11.108498,-1.3706805,-3.0234451,-9.109676,2.01071051409346659203,-3.6990416,-12.071565,-3.6326025,-3.0101388,-9.149416,1.84326551409346659205,-5.0002904,-12.516288,-7.0036387,-3.0156038,-9.213171,1.48121811409346659206,-5.309142,-12.16434,-8.418014,-3.0988362,-9.262577,0.878791751409346659226,-4.018069,-11.468226,-6.5391636,-3.204543,-9.26594,0.208946851409346659226,-2.80361,-10.225636,-4.957195,-3.247818,-9.24913,-0.275055621409346659234,-1.7046716,-9.911396,-4.380192,-3.2383196,-9.237106,-0.59961721409346659255,-0.8487445,-10.808623,-4.2143936,-3.1599822,-9.244781,-0.84790381409346659256,-0.3752911,-14.128783,-3.394978,-3.000257,-9.274505,-1.0735081409346659271,0.13227965,-18.963873,-1.2982559,-2.7416685,-9.339254,-1.19664281409346659287,2.1458032,-19.608511,1.9422961,-2.394018,-9.444049,-1.11757421409346659287,5.777209,-19.608511,2.31639,-1.9558654,-9.57461,-0.81962761409346659305,7.9691005,-19.552847,-0.5883751,-1.3429435,-9.699143,-0.541762951409346659306,6.0884547,-15.67843,-1.5185224,-0.6669556,-9.772019,-0.482880121409346659327,3.6475663,-11.884817,-3.4272997,-0.16997664,-9.79238,-0.500817661409346659328,2.8880057,-10.462662,-5.761048,0.1408686,-9.782439,-0.674088661409346659335,2.9113493,-9.223662,-4.757279,0.3546876,-9.748291,-1.00768331409346659367,2.7030537,-8.322844,-2.0039468,0.5393781,-9.709777,-1.26477591409346659368,2.6856956,-8.039131,-0.39983168,0.6919795,-9.687918,-1.3549181409346659369,2.480393,-8.085817,-0.7625532,0.8482103,-9.680715,-1.31707231409346659400,1.8387469,-7.6081743,-3.4901476,0.9925667,-9.671798,-1.28124491409346659401,0.03172317,-6.4906807,-7.960122,1.092213,-9.636631,-1.45354991409346659401,0.26635495,-4.6016555,-7.578247,1.0415487,-9.542928,-2.0045211409346659403,1.2156559,-4.2305546,-4.875193,1.0037439,-9.411097,-2.56790881409346659422,0.83976626,-5.0014873,-2.4199393,1.0420935,-9.305701,-2.9134771409346659423,0.7254431,-4.9458222,-1.2779051,1.0439407,-9.2609,-3.052271409346659438,1.1569979,-4.008492,-1.4191631,1.0483055,-9.260378,-3.05235051409346659455,1.6567876,-3.6774938,-2.1829133,1.1092691,-9.249199,-3.06467061409346659456,2.2679076,-3.2381577,-2.782661,1.2311922,-9.200885,-3.1620081409346659471,3.17531,-2.556409,-3.0268695,1.4360005,-9.1083975,-3.33847171409346659484,4.311359,-2.083554,-2.4983494,1.7671319,-8.963258,-3.5647841409346659485,5.3247046,-1.7250223,-2.6240451,2.2607315,-8.779483,-3.7390031409346659512,5.8005524,-1.6142905,-3.8361096,2.8851583,-8.518277,-3.9096381409346659512,5.851429,-1.8130093,-5.044583,3.5245852,-8.126273,-4.20848751409346659515,5.3486466,-2.421735,-4.917092,4.0842443,-7.6463985,-4.584971409346659523,4.32333,-3.502717,-3.7612908,4.4976983,-7.227264,-4.86906151409346659535,3.0202854,-5.551555,-1.0127473,4.7266192,-7.0055895,-4.97505431409346659555,0.17597382,-9.885659,7.773973,4.7671013,-7.154523,-4.71783451409346659560,-7.7560163,-17.915812,18.974648,4.462162,-8.111801,-3.23390961409346659584,-17.222092,-19.608511,19.608511,4.5309334,-7.98605,-3.44442751409346659585,-19.60911,-19.608511,17.844584,4.612363,-7.8454823,-3.65306831409346659585,-18.80885,-19.608511,11.36767,4.658833,-7.75696,-3.78090291409346659614,-7.21373,-13.066356,4.9781437,4.5996556,-7.743367,-3.87992551409346659615,-3.506907,-6.5026517,3.5140896,-3.2271621,-8.487184,3.70452881409346659617,-4.3556514,-6.173449,4.298789,-3.4239337,-8.4367,3.64268661409346659623,-0.2777274,-6.0561333,3.762488,-3.618399,-8.343601,3.66904541409346659650,1.2366052,-8.226477,1.8716671,-3.4117203,-8.382622,3.7765321409346659651,1.894412,-11.391612,0.92416185,-3.0372188,-8.552437,3.71503951409346659654,4.138976,-18.216284,-0.24540567,-2.547078,-8.802655,3.49228141409346659673,4.019266,-19.608511,-3.4051533,-1.7560371,-9.1721,2.9932131409346659691,0.7200562,-16.672623,-1.0372878,-1.1429945,-9.475448,2.25385431409346659691,-3.674501,-12.309788,3.3399115,-0.9329592,-9.579282,1.88078751409346659696,-2.1841104,-10.650606,-0.24061728,-1.1193647,-9.54137,1.96968421409346659703,1.9800048,-9.487024,-4.0677485,-1.1912577,-9.569684,1.78113811409346659717,3.5924997,-7.9409685,-4.860828,-0.95353436,-9.671748,1.31090571409346659723,2.7742813,-8.228871,-3.2064347,-0.58743864,-9.753553,0.83276831409346659736,2.0470424,-8.517971,-1.2180501,-0.29626492,-9.788651,0.51467781409346659753,3.3865983,-7.4202294,-0.12988544,-0.06954379,-9.80045,0.34164461409346659755,5.0134583,-6.969521,-0.30645782,0.26418167,-9.8001995,0.238076641409346659772,5.0721164,-7.453748,-1.3802572,0.71316904,-9.779368,0.160417361409346659787,3.9522285,-8.342596,-2.6300306,1.1535399,-9.738531,0.0273877741409346659787,2.973,-8.756194,-3.288436,1.4812253,-9.691676,-0.21859951409346659803,2.4061728,-8.771158,-3.4859576,1.6710312,-9.649151,-0.52147921409346659804,2.3451207,-8.723274,-3.3997664,1.7957945,-9.604795,-0.832727731409346659818,2.3008277,-8.987833,-2.7700913,1.8857685,-9.558754,-1.11555481409346659833,2.1021092,-9.346964,-1.882441,1.9496427,-9.521335,-1.30900351409346659835,1.7256209,-9.909002,-1.2503718,1.9877644,-9.502291,-1.38767541409346659851,1.0384849,-10.998364,-1.0366893,1.9841964,-9.503208,-1.38649821409346659868,0.089782566,-12.34211,-1.1707647,1.8995924,-9.525799,-1.34947751409346659869,-0.91338795,-13.087305,-1.412579,1.7142081,-9.5672,-1.30406021409346659887,-1.6274586,-12.756307,-1.5191209,1.4383237,-9.616566,-1.27407071409346659888,-1.988983,-11.543045,-1.6154876,1.1381024,-9.661869,-1.23426451409346659902,-2.2110453,-10.251971,-1.7890673,0.83536774,-9.696402,-1.20514881409346659903,-2.4139538,-9.752182,-2.0644004,0.53899086,-9.717028,-1.20797851409346659919,-2.32058,-9.454702,-1.8668787,0.24539019,-9.722402,-1.25899211409346659934,-1.7992426,-8.876503,-0.053869538,-0.015194062,-9.718447,-1.31223261409346659935,-1.4107834,-8.69993,0.2741361,-0.19705285,-9.729047,-1.2153961409346659953,-2.36188,-8.507795,-1.8339585,-0.31436113,-9.741012,-1.08823251409346659955,-5.7095723,-9.746795,-3.7343562,-0.5234201,-9.720339,-1.18803371409346659967,-5.529409,-9.397242,-2.8862102,-1.0245918,-9.647055,-1.43350781409346659986,-4.817134,-8.644864,-3.6086605,-1.4407854,-9.563554,-1.62264921409346659987,-4.3185415,-8.662222,-4.043208,-1.758205,-9.451791,-1.93462861409346660000,-3.651756,-9.408614,-3.0280666,-2.001199,-9.334619,-2.24287991409346660004,-2.6844985,-9.983821,-1.7322049,-2.1527925,-9.2708845,-2.36358861409346660025,-2.083554,-10.415975,-0.83258367,-2.200744,-9.272389,-2.31298761409346660025,-1.774702,-10.787674,-0.1921347,-2.1874533,-9.311486,-2.1637111409346660037,-1.5837644,-10.782886,-0.08259996,-2.1282928,-9.368947,-1.96559951409346660064,-1.7345991,-11.0061455,0.25558102,-2.0520551,-9.423486,-1.77690371409346660065,-2.0488381,-11.232996,0.65421563,-1.9907241,-9.47091,-1.58406521409346660066,-2.0177135,-10.992378,1.1426327,-1.9637699,-9.507774,-1.38428441409346660103,-1.7705121,-10.655395,1.8854338,-1.9503576,-9.539507,-1.16803561409346660104,-1.192911,-10.368689,3.8055837,-1.9344813,-9.570871,-0.90916991409346660106,-0.23104046,-10.565014,7.957728,-1.8678999,-9.614375,-0.495113731409346660106,0.86729956,-10.945093,8.889072,-1.7259662,-9.649885,0.266778651409346660131,0.5327099,-12.37084,7.1526775,-1.4868386,-9.640141,1.01361811409346660131,-0.7930793,-13.600862,4.8165355,-1.3007582,-9.610057,1.45782411409346660134,-1.3623008,-12.984953,3.7116113,-1.2624626,-9.589665,1.61706241409346660220,-1.2892777,-11.775881,3.930082,-1.2937356,-9.565433,1.73179521409346660221,-2.0506337,-11.474811,1.2509704,-1.3269986,-9.517054,1.95835591409346660222,-3.1986535,-11.855488,-2.0973208,-1.3812165,-9.502245,1.99247911409346660223,-4.9440265,-12.876017,-3.2076318,-1.4695971,-9.548245,1.68572391409346660224,-6.3488245,-13.326725,-1.8471266,-1.6710197,-9.576279,1.293431409346660224,-6.4206505,-13.199234,0.9720459,-1.9292636,-9.560146,1.02562741409346660225,-5.60722,-13.286024,0.83378077,-2.1790261,-9.507633,1.01347551409346660226,-5.1247888,-13.798982,1.0241197,-2.3580842,-9.467657,0.986559571409346660246,-5.01705,-15.263635,3.482965,-2.483267,-9.439494,0.94853761409346660249,-5.1648917,-15.853207,8.023568,-2.5616443,-9.406662,1.0597521409346660249,-4.5777135,-14.711172,5.7520695,-2.6264915,-9.332708,1.47394411409346660255,-3.8259344,-13.4500265,0.55006784,-2.683036,-9.273042,1.72697391409346660281,-3.0933087,-12.807782,-2.5851393,-2.7437525,-9.271683,1.63649631409346660282,-3.0232782,-12.68867,-4.634576,-2.7591758,-9.310441,1.3685961409346660283,-4.168904,-12.421717,-5.6999955,-2.743311,-9.364779,0.97240521409346660308,-4.7243586,-11.692084,-6.825869,-2.7925994,-9.386568,0.51394351409346660308,-4.245518,-10.766127,-6.1824274,-2.8954036,-9.369474,-0.0021841761409346660315,-3.7175968,-10.272921,-5.360019,-2.9877942,-9.330347,-0.433697431409346660335,-3.0424318,-11.501745,-4.3526587,-3.0426931,-9.29179,-0.75831481409346660337,-1.965041,-13.512875,-3.3746274,-3.0237534,-9.275859,-0.99283811409346660354,-1.1121067,-16.931795,-1.8201919,-2.9016423,-9.300797,-1.1162611409346660371,0.3645172,-19.594147,0.587178,-2.6705585,-9.371592,-1.10081081409346660372,3.469797,-19.608511,3.3081882,-2.3265872,-9.484008,-0.900546971409346660390,6.6403184,-19.608511,2.533664,-1.8232017,-9.620579,-0.53921531409346660391,7.091027,-18.987816,0.52852005,-1.1658918,-9.733744,-0.255521121409346660397,4.8985367,-14.28261,-2.1493945,-0.5683365,-9.788955,-0.154210251409346660404,2.9646204,-11.403583,-5.7365074,-0.15532501,-9.802917,-0.221552941409346660419,2.0578163,-8.668207,-3.5452142,0.097973764,-9.790304,-0.55740961409346660436,2.1320367,-8.255806,-1.134253,0.24586335,-9.772765,-0.776522761409346660437,2.296638,-8.006809,-0.24959552,0.3628253,-9.76254,-0.855314251409346660459,0.4213795,-8.2354555,-3.063381,0.49208853,-9.756781,-0.856417241409346660459,-0.9828198,-6.771401,-6.8162923,0.49569795,-9.738941,-1.03812871409346660463,0.4321534,-3.8786068,-5.5707088,0.40017217,-9.683584,-1.49615421409346660489,0.9463082,-3.7984009,-4.5896845,0.4273881,-9.612257,-1.89531641409346660490,0.8912416,-5.0721164,-4.4544125,0.4835241,-9.53711,-2.2316241409346660497,0.46028528,-5.6431336,-3.2519245,0.54148966,-9.453459,-2.55133751409346660503,-0.08200141,-5.592855,-2.2583308,0.5626091,-9.399828,-2.73808931409346660524,-0.14604631,-4.9105077,-1.7753005,0.50523674,-9.377848,-2.82331731409346660525,0.43275195,-4.252701,-1.5490485,0.4243705,-9.366979,-2.87228751409346660536,1.0426749,-3.9264908,-1.8046296,0.41830346,-9.354986,-2.91198641409346660563,1.7860745,-3.6302083,-2.7611132,0.50850105,-9.328842,-2.98068881409346660564,2.6581624,-2.954445,-3.5583823,0.7013149,-9.254993,-3.1660161409346660565,3.9815574,-2.5133133,-2.5600002,1.0124451,-9.119498,-3.4612261409346660601,4.8267107,-2.3971944,-2.1948843,1.5143256,-8.978357,-3.64229511409346660601,5.2049947,-2.1086931,-2.597709,2.131314,-8.797873,-3.7716541409346660606,5.365406,-1.7058687,-3.2369606,2.7882545,-8.534655,-3.94407031409346660629,5.2995653,-1.751957,-4.11264,3.4402502,-8.175277,-4.18329331409346660630,4.947618,-2.1918917,-4.0132804,4.011229,-7.7394304,-4.49240161409346660630,4.3281183,-2.8263552,-2.779668,4.444084,-7.3557205,-4.72375871409346660637,3.4063504,-4.630386,0.005985504,4.764632,-7.117161,-4.77647351409346660658,0.93134445,-9.09258,7.753622,4.9406013,-7.2324705,-4.41047141409346660659,-10.538677,-18.223467,19.312828,4.714744,-8.126814,-2.8100691409346660664,-18.850746,-19.608511,19.608511,4.815196,-7.9865613,-3.03300451409346660694,-19.60911,-19.608511,18.778921,4.9200892,-7.8440313,-3.23021131409346660695,-16.861765,-19.120094,10.357317,4.9539886,-7.7686515,-3.35804561409346660698,-8.741829,-11.71004,4.4819455,4.8938313,-7.7461486,-3.4954271409346660704,-8.161834,-8.519767,5.2528787,-3.6409652,-8.280965,3.78673981409346660721,-4.445434,-7.979874,5.1409497,-3.9902012,-8.123697,3.7754771409346660724,-0.64583594,-7.9571295,3.1160536,-4.06024,-8.067502,3.82102871409346660735,0.88645315,-8.231265,1.614889,-3.8382509,-8.1544,3.86574551409346660759,2.8640637,-8.699332,2.546832,-3.4585044,-8.333884,3.84128641409346660760,4.557363,-11.831546,2.2254105,-2.8724732,-8.5515585,3.8457941409346660764,4.8243165,-15.567698,-3.29502,-2.1286914,-8.837724,3.67882041409346660793,4.021062,-15.105618,-6.0866594,-1.4501915,-9.239358,2.9498451409346660794,2.3834279,-11.862671,-5.309142,-0.92637366,-9.533281,2.1044661409346660796,0.91937345,-10.815806,-2.9526494,-0.622716,-9.676216,1.4674631409346660805,1.0061632,-12.327146,-0.39743748,-0.464215,-9.737666,1.06431581409346660824,0.7978677,-13.957598,-0.11432313,-0.3055068,-9.762124,0.8820381409346660825,0.8487445,-14.4053135,-0.13108255,-0.18210429,-9.777825,0.728958131409346660836,1.311424,-12.759898,0.2160767,-0.07850275,-9.788733,0.58731681409346660860,2.6850972,-9.372103,0.22565351,0.022891339,-9.793921,0.4989781409346660861,3.764882,-7.6213427,0.29209262,0.23581308,-9.792882,0.462858351409346660864,3.7535098,-7.667431,-0.9864111,0.52954525,-9.781212,0.46676151409346660900,3.0268695,-8.589199,-2.3373394,0.8376909,-9.763358,0.381470381409346660901,2.5941176,-8.792108,-3.157952,1.0746654,-9.746298,0.158590441409346660902,2.5689783,-8.127118,-3.6248214,1.254009,-9.725049,-0.145877961409346660905,2.3852234,-7.4645224,-2.1230583,1.4172543,-9.6918125,-0.48017131409346660921,1.797447,-7.9074497,-1.4969746,1.5562729,-9.660528,-0.650075441409346660924,1.5059528,-8.710106,-1.1348516,1.6272228,-9.641435,-0.75185421409346660953,1.1749545,-9.620501,-0.82899237,1.6435139,-9.634738,-0.80070381409346660954,0.74878657,-10.773908,-0.6775591,1.6277102,-9.637596,-0.79853581409346660973,0.06344634,-11.95365,-0.741604,1.552653,-9.651877,-0.775203471409346660974,-1.0354922,-13.070545,-0.9660604,1.403226,-9.6765785,-0.751786951409346660976,-2.2451627,-13.247717,-1.1444284,1.1540931,-9.710001,-0.744554641409346660984,-2.8287494,-12.412739,-0.92296475,0.82452106,-9.7427635,-0.75438371409346661011,-2.8532898,-11.23958,-0.8714894,0.48091304,-9.766161,-0.74914521409346661011,-2.658761,-10.299257,-1.0223241,0.1771458,-9.776664,-0.745544551409346661018,-2.348712,-9.340978,-0.89603,-0.1022662,-9.77639,-0.762956261409346661033,-2.0284874,-8.48984,-0.45789108,-0.33483255,-9.770055,-0.77736621409346661036,-1.8363527,-7.8452005,-0.36990416,-0.51608634,-9.763386,-0.761787241409346661050,-2.307412,-7.69257,-1.1534066,-0.6563877,-9.756146,-0.74643741409346661066,-3.0867245,-8.180388,-2.5833437,-0.82206136,-9.738718,-0.80744541409346661066,-3.2932243,-8.831612,-3.743933,-1.0391706,-9.69992,-1.00103261409346661083,-3.0412347,-9.04709,-3.3800142,-1.2551942,-9.640704,-1.28519011409346661084,-2.6617537,-8.965687,-2.2523453,-1.4254162,-9.583489,-1.51503341409346661097,-2.5420437,-9.405023,-0.85652566,-1.5600288,-9.542941,-1.63371381409346661117,-2.420538,-10.0825815,-0.3453636,-1.6710911,-9.527404,-1.61443921409346661118,-2.3265655,-10.426748,-0.2220622,-1.7405493,-9.528289,-1.53381591409346661132,-2.1505916,-10.375273,-0.037110128,-1.7814754,-9.537796,-1.42379371409346661147,-2.03567,-10.279505,0.051475335,-1.8001333,-9.5528345,-1.29355721409346661148,-2.166154,-10.436924,0.1316811,-1.8044273,-9.567584,-1.17294471409346661164,-2.3002293,-10.837354,0.17357962,-1.8183298,-9.578353,-1.05792761409346661165,-2.1775265,-11.042058,0.18255788,-1.835674,-9.586145,-0.95211211409346661179,-2.0721815,-10.955269,0.044292733,-1.8405002,-9.594008,-0.85903691409346661184,-2.1068976,-10.651803,-0.12749124,-1.8420159,-9.59955,-0.7912091409346661199,-2.1493945,-10.295067,0.10235212,-1.8519047,-9.601052,-0.74876891409346661217,-2.2613235,-10.20289,0.85473,-1.867925,-9.601714,-0.6988051409346661217,-2.3247697,-10.405799,1.99437,-1.895556,-9.603546,-0.59088631409346661235,-2.486977,-10.961852,3.4165258,-1.92647,-9.607949,-0.38264981409346661252,-1.9710265,-11.219229,5.257667,-1.957787,-9.608983,-0.0701974261409346661252,-1.0761937,-11.089942,5.9723363,-1.9441406,-9.60497,0.3677891409346661264,-1.0630256,-11.866262,5.923255,-1.8715706,-9.592805,0.803563651409346661265,-2.6731262,-14.068329,6.0968347,-1.8074249,-9.569241,1.15466391409346661282,-4.583699,-15.990274,6.7426705,-1.8524586,-9.519249,1.45694791409346661284,-5.42167,-15.749658,5.473145,-2.0139587,-9.430106,1.78534911409346661299,-5.893926,-14.380773,-0.130484,-2.2163813,-9.3313875,2.04529831409346661314,-5.7921724,-13.160927,-3.6224272,-2.411576,-9.323065,1.85342251409346661318,-5.599439,-14.238916,-0.7553706,-2.5978703,-9.338467,1.48812821409346661331,-5.701193,-15.097238,3.5996823,-2.6797123,-9.340739,1.3191281409346661346,-6.877943,-15.911266,6.2865753,-2.7144709,-9.311679,1.44729691409346661346,-7.695563,-17.417818,6.1608796,-2.8172238,-9.229612,1.74582111409346661364,-7.4088573,-16.284163,7.035362,-2.960648,-9.138384,1.97354981409346661365,-4.4687777,-13.819332,2.4929626,-3.116969,-9.031161,2.21201421409346661382,-2.939481,-12.468404,-1.6567876,-3.1838984,-9.01353,2.18848181409346661384,-3.1399956,-12.306795,-3.5577838,-3.1628728,-9.081199,1.9231361409346661398,-3.1226375,-12.44087,-6.2662244,-3.1398723,-9.15188,1.59833161409346661415,-1.951873,-10.724228,-5.6748567,-3.100846,-9.243365,1.05609421409346661418,-1.5227122,-10.753557,-5.3558292,-3.0345619,-9.307761,0.57220231409346661431,-0.9475053,-11.638214,-5.0116625,-2.938806,-9.354811,0.14604741409346661448,-0.3585317,-13.457808,-4.3538556,-2.778045,-9.402547,-0.212046861409346661448,0.7787141,-16.426619,-2.7443538,-2.5613806,-9.4536705,-0.487661151409346661463,1.8860323,-19.488802,0.64583594,-2.242477,-9.527605,-0.605335241409346661464,3.5673606,-19.608511,4.288614,-1.8555294,-9.618225,-0.465985361409346661480,5.595249,-19.608511,1.9153614,-1.405226,-9.705011,-0.092092451409346661484,5.3085437,-17.268179,-1.5879543,-0.8828269,-9.766533,0.076537811409346661497,4.1174283,-12.822745,-4.0384197,-0.44824412,-9.796395,0.0107817261409346661514,3.4278982,-11.155783,-5.557541,-0.119954705,-9.803375,-0.223176451409346661516,2.653374,-10.299257,-5.182848,0.15315643,-9.788437,-0.57743091409346661530,1.8291701,-8.920197,-3.5410242,0.34122694,-9.759728,-0.895351351409346661551,1.5346833,-8.394072,-1.6424223,0.45261022,-9.735952,-1.08479871409346661552,1.5526398,-8.822633,-2.7934349,0.53276074,-9.724066,-1.1528681409346661571,-0.40102878,-9.26556,-7.897873,0.60934275,-9.702405,-1.28934841409346661572,0.10055647,-6.4924765,-5.9920883,0.5312822,-9.628301,-1.78437111409346661576,-0.32920274,-5.109226,-4.5382094,0.5225196,-9.555853,-2.14080571409346661585,-0.37469256,-5.4264584,-3.2070332,0.4734446,-9.488019,-2.43387441409346661615,0.3286042,-5.727529,-2.0608091,0.40333706,-9.439229,-2.62843251409346661616,1.033098,-5.3648076,-1.6986861,0.39573184,-9.424329,-2.68250131409346661616,1.5562311,-4.903325,-1.4287399,0.45628014,-9.413567,-2.7105311409346661635,1.2659341,-4.5274353,-2.0961237,0.55682784,-9.405316,-2.72036031409346661650,0.9720459,-3.8385038,-2.7042508,0.64368165,-9.373567,-2.80933261409346661651,1.5520413,-2.722806,-2.160767,0.7171493,-9.315628,-2.97912451409346661662,2.6569653,-1.9913772,-1.6741456,0.873568,-9.2530575,-3.12860681409346661664,3.9234982,-1.590947,-1.5598224,1.1817536,-9.176182,-3.25138661409346661680,5.257667,-1.3215994,-1.4089876,1.6833,-9.053668,-3.37164971409346661685,5.8262897,-1.2910733,-2.1529858,2.3958554,-8.860572,-3.452611409346661699,5.872977,-1.2623428,-3.163339,3.1761494,-8.54572,-3.61291531409346661717,5.923255,-1.2425907,-4.0336313,3.9129112,-8.118323,-3.86682751409346661733,5.46297,-1.6466122,-4.378995,4.5650325,-7.5993285,-4.19298551409346661733,5.1481323,-2.1505916,-4.0958805,5.036294,-7.101159,-4.51438761409346661747,5.549161,-3.2585084,-3.072958,5.380371,-6.685475,-4.7462051409346661748,5.0140567,-6.815095,-0.93613285,5.6979957,-6.4167447,-4.74643471409346661762,-2.8125885,-16.279972,14.354436,5.7780814,-6.636762,-4.3286961409346661764,-16.238672,-19.608511,19.608511,4.762246,-8.396091,-1.73119491409346661779,-19.60911,-19.608511,19.608511,4.9233913,-8.246273,-1.9823131409346661784,-19.60911,-19.608511,15.333665,5.0393186,-8.130079,-2.16274171409346661798,-13.245921,-14.867992,6.157288,5.0295725,-8.077967,-2.3707081409346661827,-6.801927,-6.4858923,4.1635165,-3.2447786,-8.472687,3.7222791409346661827,-6.758233,-7.3166804,4.398747,-3.762117,-8.303805,3.61437341409346661828,-2.0883424,-8.011598,2.5127146,-4.0624695,-8.17539,3.58185981409346661854,1.6394296,-9.888053,0.25797522,-3.9109776,-8.257218,3.562721409346661855,5.225345,-16.655863,-0.5542577,-3.4542074,-8.531,3.3853921409346661857,5.5802855,-19.608511,-0.54408234,-2.50636,-8.992475,3.00399141409346661865,2.971803,-17.568651,-2.0973208,-1.595551,-9.335281,2.54501751409346661889,-1.0133458,-12.785037,1.4694413,-1.0990797,-9.524694,2.05975531409346661889,-2.8844144,-10.792462,-2.6048915,-1.0568597,-9.543669,1.99294051409346661899,3.1136594,-6.371569,-4.924873,-1.2175156,-9.596554,1.61065651409346661920,3.690662,-4.502895,-5.2594624,-0.90767515,-9.70091,1.11304631409346661921,2.6426,-5.6646814,-2.5917234,-0.54231447,-9.773281,0.59937851409346661925,2.5995045,-6.078878,-0.030526072,-0.24891455,-9.796505,0.37003191409346661952,4.004901,-5.703587,0.2208651,0.047558747,-9.80093,0.3315041409346661953,4.8644195,-6.682217,-1.0929531,0.48444882,-9.791481,0.25022331409346661959,4.732738,-8.593389,-2.9640217,0.9612062,-9.759252,0.0590711981409346661965,4.2102036,-10.102933,-4.0815153,1.3786448,-9.705669,-0.264024441409346661985,3.9893386,-10.533889,-4.0054994,1.705207,-9.635066,-0.654339251409346661986,3.6709096,-10.721834,-3.7834373,1.9497383,-9.560553,-0.98221191409346661997,3.0478187,-10.661979,-3.354875,2.1332731,-9.489801,-1.25028821409346662018,2.3014264,-10.548254,-2.6880898,2.2235441,-9.440413,-1.45081561409346662019,1.7340006,-10.479421,-1.8363527,2.2302387,-9.418624,-1.57670931409346662025,1.3652935,-10.517728,-1.1839328,2.1847057,-9.422974,-1.61400351409346662060,1.0109516,-10.742783,-0.86969376,2.1051025,-9.446354,-1.58281921409346662061,0.44831428,-11.2371855,-0.90740246,1.9930011,-9.482277,-1.51155031409346662062,-0.30406362,-11.660959,-1.1402385,1.829569,-9.52622,-1.4402071409346662066,-0.8379706,-11.327567,-1.0582372,1.6107912,-9.575239,-1.37496551409346662119,-1.1067197,-10.006566,-0.7080852,1.3731155,-9.622294,-1.30245831409346662121,-1.3090298,-8.56825,-0.7727286,1.1466955,-9.663178,-1.21591481409346662122,-2.212841,-8.947132,-1.4143747,0.92838824,-9.693757,-1.15739771409346662123,-2.4971523,-9.534908,-1.5741876,0.6339488,-9.716938,-1.16173321409346662125,-1.7124528,-9.141661,-2.5025394,0.33027008,-9.729375,-1.18345751409346662155,-0.801459,-8.67958,-4.348469,0.11797347,-9.717394,-1.31481741409346662157,-3.8325183,-10.05864,-4.469376,0.013548048,-9.671276,-1.62377641409346662158,-5.509058,-10.578181,-5.623381,-0.3780863,-9.60992,-1.91752291409346662159,-5.245696,-9.669582,-5.8005524,-0.84947777,-9.488431,-2.3277611409346662165,-4.6058455,-9.208698,-5.346851,-1.2117697,-9.340398,-2.73111531409346662197,-4.268263,-9.858724,-3.7726634,-1.4974861,-9.213886,-3.00536561409346662198,-3.7421372,-10.860099,-1.1091139,-1.756139,-9.154009,-3.04802681409346662198,-3.4973302,-11.456854,0.47644615,-1.9518045,-9.186831,-2.82187061409346662213,-3.590704,-11.572374,0.8439561,-2.0973146,-9.254169,-2.47629281409346662228,-3.2932243,-11.398794,0.81043726,-2.2128873,-9.311811,-2.13629081409346662228,-2.5785553,-11.242573,1.2743138,-2.2852905,-9.35328,-1.86118571409346662245,-2.195483,-11.588534,2.3900118,-2.2926323,-9.4006405,-1.59442381409346662246,-2.018312,-12.410344,3.881001,-2.2588634,-9.458705,-1.26524671409346662262,-1.5586253,-12.525267,4.703409,-2.192314,-9.520825,-0.84739471409346662265,-0.9451111,-12.038046,4.844667,-2.0953321,-9.57017,-0.43797261409346662280,-0.020350715,-11.283873,5.5760956,-1.9776145,-9.604794,-0.08608381409346662296,0.99179804,-10.62846,7.3430166,-1.8051857,-9.633858,0.31702561409346662297,1.311424,-10.359112,8.744224,-1.5664655,-9.641176,0.874247131409346662313,0.91219085,-10.614095,8.089409,-1.3210423,-9.594063,1.54245581409346662331,0.06404489,-10.86369,5.5988407,-1.1337686,-9.50617,2.12548571409346662331,-0.7044938,-10.697892,2.3666685,-1.0536789,-9.431865,2.4698331409346662344,-1.9416976,-10.702681,-2.3822308,-1.0483228,-9.411211,2.54960781409346662346,-2.8383262,-10.386047,-5.699397,-1.1048183,-9.486646,2.22560171409346662360,-3.9983168,-11.022904,-6.767211,-1.1921029,-9.602263,1.59556321409346662365,-4.863222,-12.58572,-3.233968,-1.3742876,-9.6707,0.87137381409346662381,-4.968567,-13.558364,-0.93613285,-1.5976703,-9.663614,0.48210911409346662393,-5.8717794,-14.062344,-3.544017,-1.7917426,-9.634889,0.35911391409346662397,-5.3342814,-14.050971,-0.91817635,-2.049043,-9.590098,0.0426006761409346662412,-5.3995233,-13.676279,2.8377275,-2.22863,-9.549864,-0.0608457621409346662431,-5.5270147,-13.971963,5.9962783,-2.3919024,-9.509734,0.118926241409346662431,-5.5641246,-14.699202,9.094376,-2.542008,-9.45557,0.548433241409346662447,-5.677251,-14.903307,10.1382475,-2.6492906,-9.3708315,1.1572381409346662447,-5.1140146,-14.598645,6.1985884,-2.757205,-9.245986,1.75498091409346662461,-3.9121256,-13.591285,0.84814596,-2.8468199,-9.167851,2.00411771409346662465,-2.8862102,-12.582129,-2.088941,-2.89355,-9.17307,1.91116541409346662480,-2.7449522,-13.107656,-4.18686,-2.892244,-9.220778,1.66808931409346662496,-2.6509798,-13.719375,-7.340024,-2.8495326,-9.294401,1.2902191409346662509,-2.2062569,-12.213422,-9.206305,-2.766202,-9.383072,0.69029011409346662509,-1.9183542,-11.075577,-8.311471,-2.688457,-9.430926,-0.0157398951409346662529,-1.2384008,-11.026496,-7.029975,-2.6201265,-9.431496,-0.59346911409346662530,-0.31004912,-11.741764,-6.2925606,-2.5199618,-9.417737,-1.06131431409346662544,0.87328506,-13.748703,-5.145139,-2.3681424,-9.411404,-1.40988111409346662545,1.8561049,-17.599777,-2.3463178,-2.123461,-9.43505,-1.62515811409346662562,2.8048072,-19.608511,2.9293058,-1.7780942,-9.514306,-1.57693391409346662565,4.584896,-19.608511,3.7642837,-1.3778958,-9.641138,-1.149021409346662578,5.9825115,-19.589357,1.1923125,-0.90194064,-9.738319,-0.722527861409346662592,6.4206505,-16.52897,-1.9446903,-0.41278353,-9.783511,-0.53190891409346662597,4.9601874,-12.595895,-3.9187095,0.03938918,-9.791108,-0.550479351409346662613,3.4751837,-10.699089,-5.683236,0.38622254,-9.773104,-0.712499441409346662630,2.19668,-9.936536,-6.761824,0.6404913,-9.732786,-1.01636961409346662631,1.8740613,-9.176376,-4.9464207,0.7901351,-9.673384,-1.40417911409346662649,2.5773582,-8.447941,-3.1483753,0.885674,-9.6221285,-1.67349231409346662650,3.2842462,-7.6249337,-2.8832173,1.0092955,-9.582666,-1.82325241409346662666,3.3638535,-6.503849,-2.8538885,1.1831363,-9.538376,-1.94677591409346662667,2.4277205,-5.2923827,-2.7335799,1.3749665,-9.489335,-2.05726931409346662681,2.0727801,-4.5160627,-3.0573955,1.515349,-9.443404,-2.1670841409346662695,2.6749218,-4.691438,-4.0282445,1.6249694,-9.388758,-2.3197221409346662697,2.8455088,-4.7866077,-2.7814639,1.7724519,-9.296391,-2.57020641409346662708,2.5318682,-4.421492,0.077213004,1.9492002,-9.222542,-2.7047651409346662726,1.7471687,-4.180875,-0.05686229,2.113608,-9.221463,-2.58217741409346662727,1.0468647,-4.435259,-1.7753005,2.1852117,-9.230387,-2.48901941409346662743,0.9816227,-4.2610803,-2.8951883,2.1639044,-9.214001,-2.56711321409346662749,1.447295,-3.6248214,-2.6461914,2.141583,-9.163851,-2.75823951409346662768,2.236783,-3.192668,-1.8728642,2.2001984,-9.091074,-2.94651251409346662769,2.9502552,-3.2615013,-2.4893713,2.376077,-9.00927,-3.05903861409346662777,3.870227,-3.3931823,-3.0699651,2.6299396,-8.877331,-3.23215481409346662802,4.6393642,-3.5248635,-3.4494462,2.9824624,-8.685121,-3.44151521409346662803,4.9063177,-3.9636009,-3.911527,3.4041858,-8.43931,-3.65512941409346662806,4.617218,-4.675277,-4.045004,3.794177,-8.169534,-3.8772811409346662830,3.9947255,-5.743091,-2.8592753,4.060399,-7.9532685,-4.05327941409346662831,2.9652188,-7.4483614,0.14724341,4.202404,-7.8782983,-4.0549461409346662844,0.777517,-10.092158,3.7499185,4.1920652,-8.072223,-3.6655451409346662846,-4.267066,-13.940239,8.4347725,3.8548698,-8.566648,-2.81476881409346662861,-14.035409,-18.93694,16.609177,2.805108,-9.295137,-1.37919221409346662879,-19.60911,-19.608511,19.608511,2.8811164,-9.228343,-1.6453731409346662879,-10.365098,-19.608511,3.5290532,2.9261672,-9.165586,-1.89736391409346662898,-2.6384103,-9.136273,2.7856536,2.9165583,-9.129735,-2.07654021409346662898,-8.789114,-12.391191,4.8189297,-2.3039804,-9.208468,2.4629641409346662905,-4.3646297,-9.90601,5.6161985,-2.856895,-9.028534,2.54835441409346662927,-1.2413936,-8.261791,4.26946,-2.9482741,-8.948346,2.72124551409346662927,0.7074866,-7.414244,2.7647045,-2.7867537,-8.949844,2.88178661409346662942,3.1387985,-8.416816,-0.5177461,-2.509055,-8.996704,2.98903851409346662946,5.903503,-13.611635,-5.3564277,-1.9901863,-9.182029,2.81067541409346662959,6.700772,-18.065449,-6.2422824,-1.2071508,-9.509722,2.06841591409346662981,6.2380924,-16.54154,-5.443816,-0.44755936,-9.7189045,1.23003391409346662982,3.977966,-12.57734,-1.1965023,0.15579116,-9.784776,0.63584411409346662986,0.9271546,-12.841301,4.687847,0.49915218,-9.782077,0.48189241409346663021,1.1007342,-12.76708,4.803367,0.539879,-9.761039,0.775263371409346663022,3.5009215,-11.842918,1.1767502,0.5972516,-9.737567,0.996739751409346663023,3.9318779,-11.246164,-0.8146271,0.8399112,-9.723807,0.95524951409346663026,2.9322984,-9.582792,-1.5352819,1.065299,-9.711766,0.846842171409346663053,2.6671407,-8.124125,-1.3329718,1.2090604,-9.706187,0.70603321409346663054,3.0238767,-7.6943655,-1.5975311,1.3544036,-9.696616,0.55821641409346663058,2.8233624,-7.845799,-2.7641058,1.5382906,-9.677939,0.3762291409346663096,2.5013423,-7.9708962,-3.7565024,1.6864722,-9.660047,0.098466221409346663097,2.6072857,-7.789535,-3.4302924,1.7991701,-9.636529,-0.265872121409346663098,2.823961,-7.4854717,-2.4025815,1.9215269,-9.598738,-0.585109951409346663123,2.6779146,-7.543531,-1.7274165,2.0591834,-9.555367,-0.79064071409346663124,2.2631192,-7.843405,-1.4041992,2.1757324,-9.518166,-0.91711311409346663125,1.851915,-8.097789,-1.0552444,2.2325478,-9.49703,-0.99626441409346663126,1.4520833,-8.678383,-0.7212533,2.2586114,-9.488335,-1.02008951409346663152,1.0235212,-9.588778,-0.8098387,2.229918,-9.497291,-0.999660431409346663153,0.5315128,-10.704475,-0.95468795,2.1426141,-9.519756,-0.976646961409346663159,-0.39863458,-12.08593,-1.1803415,1.9932188,-9.554177,-0.956635241409346663179,-1.8046296,-13.501502,-1.5532384,1.7465961,-9.603606,-0.94369251409346663179,-2.8101943,-13.211803,-1.6537948,1.3750732,-9.663396,-0.9478111409346663193,-3.4685998,-11.391013,-1.9752164,0.9548294,-9.713508,-0.952080671409346663208,-3.5942953,-9.647436,-2.2990322,0.5319345,-9.740237,-1.0075841409346663208,-3.008913,-8.981249,-2.3768437,0.12129911,-9.746075,-1.08153881409346663228,-2.3864205,-8.672996,-3.4171243,-0.21379766,-9.734033,-1.17186581409346663228,-1.30484,-8.584411,-5.263054,-0.46689066,-9.698517,-1.37521521409346663243,-4.18686,-9.552865,-6.5445504,-0.58825755,-9.628707,-1.76418671409346663246,-6.359598,-9.831191,-4.5160627,-0.9438854,-9.496125,-2.25900171409346663258,-5.7227407,-8.670602,-3.091513,-1.4177842,-9.35808,-2.56644151409346663280,-4.8374844,-8.50181,-1.845331,-1.7782662,-9.258269,-2.70048571409346663280,-4.1683054,-9.81503,-0.8583213,-2.0830843,-9.193219,-2.7047891409346663293,-3.3506854,-10.569802,0.08619126,-2.2761972,-9.196178,-2.53369741409346663310,-2.712032,-10.516531,0.59735334,-2.364683,-9.247236,-2.25106791409346663310,-1.7776948,-10.605117,0.31304187,-2.3868384,-9.305966,-1.96784161409346663326,-1.2378023,-10.939706,-0.092176765,-2.3164363,-9.365277,-1.75956771409346663327,-1.103727,-11.16117,-0.25797522,-2.1918466,-9.421024,-1.61570121409346663341,-1.086369,-11.073781,-0.034715924,-2.0567796,-9.469428,-1.50665461409346663346,-1.3383588,-10.980408,0.29149407,-1.938022,-9.51278,-1.3861681409346663359,-1.8860323,-11.318588,0.338181,-1.8546392,-9.546931,-1.25969051409346663377,-2.1296425,-11.988366,0.6404489,-1.8270664,-9.567164,-1.14087161409346663378,-1.3245921,-12.175115,3.7762547,-1.8221234,-9.583527,-1.00314121409346663391,-0.30885202,-11.798027,7.555502,-1.7576715,-9.628863,-0.604953051409346663410,0.66858083,-11.08276,9.037513,-1.6208979,-9.671437,0.079766181409346663411,0.80325466,-11.056423,8.450335,-1.4207422,-9.669786,0.80444461409346663425,-0.32621,-12.125435,7.8368206,-1.238115,-9.627835,1.39363291409346663426,-0.7218518,-12.12723,8.483255,-1.168895,-9.564452,1.82355051409346663440,-1.6633717,-11.401189,5.0242324,-1.1730769,-9.465403,2.28044751409346663448,-3.3303347,-11.702259,-2.7395654,-1.2607489,-9.396988,2.50549031409346663462,-4.597466,-13.493721,-7.0605006,-1.4189836,-9.453947,2.18626241409346663477,-5.0122614,-14.316129,-6.471527,-1.5822539,-9.553639,1.54753721409346663478,-4.3646297,-14.260464,-1.7423803,-1.7334932,-9.607048,0.9327441409346663492,-4.3939586,-13.932458,-0.41060558,-1.8354914,-9.6087055,0.68857891409346663508,-5.9130797,-13.404537,-0.7392098,-1.9459374,-9.592733,0.602633831409346663508,-6.3404446,-13.918093,1.412579,-2.1669238,-9.553542,0.452384831409346663527,-6.425439,-14.667479,4.8620253,-2.3762965,-9.501248,0.499860081409346663527,-6.9090676,-15.333066,8.98903,-2.5644078,-9.434703,0.76196351409346663542,-5.632958,-15.045762,9.770139,-2.762122,-9.320899,1.289151409346663556,-4.162918,-14.23293,6.8731546,-2.8631341,-9.199635,1.8274511409346663558,-3.347094,-13.189657,1.905186,-2.9012196,-9.121741,2.13240671409346663581,-3.426701,-12.516887,-1.4257472,-2.9307108,-9.126556,2.07057291409346663581,-4.0306387,-12.790424,-5.7377043,-2.9444773,-9.163563,1.87871441409346663586,-3.9354692,-13.013683,-8.400057,-2.9827585,-9.237925,1.39078571409346663615,-2.8682537,-12.424709,-7.7691846,-2.987459,-9.313963,0.70396731409346663616,-2.0757728,-11.832744,-6.071097,-2.9406326,-9.355019,0.081732821409346663618,-1.7411832,-12.019491,-5.4085016,-2.8638968,-9.371973,-0.366900241409346663627,-1.0989386,-13.038224,-5.415684,-2.7744627,-9.3797035,-0.7027721409346663648,0.18195933,-15.892711,-4.277241,-2.6336923,-9.393877,-0.9945531409346663648,1.7106571,-19.217659,-0.92655605,-2.3681922,-9.445631,-1.15850261409346663659,3.2992098,-19.608511,4.325125,-1.9908187,-9.542954,-1.06724171409346663698,5.5060654,-19.608511,4.1054573,-1.550491,-9.662721,-0.631059171409346663699,6.097433,-18.351557,0.2908955,-1.0117002,-9.751014,-0.254115671409346663700,4.9146976,-13.985729,-3.7720647,-0.5064131,-9.792354,-0.154081461409346663701,3.5571852,-11.271303,-5.595848,-0.11967165,-9.799918,-0.343061771409346663707,2.8107927,-10.132261,-5.5659204,0.17017128,-9.782266,-0.66983441409346663733,1.9452889,-9.464279,-4.4633904,0.38202423,-9.7476845,-1.00354231409346663734,1.6525977,-8.942344,-3.1334114,0.49612698,-9.714815,-1.24362531409346663738,2.1751323,-8.441357,-3.015497,0.5779156,-9.68853,-1.4031411409346663769,1.8854338,-7.957728,-5.230732,0.69404787,-9.65984,-1.54148571409346663769,0.25558102,-7.08564,-8.086416,0.7927847,-9.601661,-1.83031409346663770,0.29927522,-5.246893,-6.503849,0.7706772,-9.493766,-2.33341671409346663779,0.6147113,-4.8506527,-3.2261868,0.7513804,-9.380193,-2.76003121409346663806,1.2330139,-5.639542,-1.8201919,0.7453487,-9.323695,-2.94679361409346663807,1.3814543,-5.7347116,-0.9020155,0.8090826,-9.313696,-2.9615621409346663808,1.5352819,-5.1038394,-1.2126632,0.88739514,-9.326465,-2.8982731409346663837,1.3706805,-4.6591167,-1.055843,0.9812784,-9.325924,-2.86961081409346663839,0.7906851,-4.301782,-1.4407109,1.0535163,-9.32807,-2.83683161409346663840,0.86969376,-3.968988,-1.3305776,1.0769191,-9.319965,-2.85462381409346663861,2.0027497,-3.0597897,-1.7076644,1.1231594,-9.311088,-2.86575651409346663861,3.591901,-2.332551,-1.5849615,1.3172835,-9.258265,-2.9529181409346663879,6.1010246,-1.9602526,-2.0530279,1.7356939,-9.15602,-3.05369141409346663880,6.498462,-2.0272903,-3.305794,2.5065627,-8.930326,-3.18383121409346663887,6.510433,-2.070386,-4.3646297,3.2786124,-8.575308,-3.44749331409346663911,6.296152,-2.4157495,-4.687847,3.9808283,-8.123733,-3.78528671409346663913,5.957372,-2.8856115,-4.496909,4.545911,-7.6599236,-4.1025171409346663938,5.8508306,-3.7774518,-3.7660792,4.9698787,-7.2505255,-4.3474831409346663938,5.177461,-6.1106014,-1.9087774,5.291515,-6.9563823,-4.44736581409346663940,2.771887,-11.734581,4.5136685,5.4339037,-6.970192,-4.2496531409346663974,-11.811195,-19.451693,19.583971,5.1647735,-7.7160115,-3.15573791409346663975,-19.60911,-19.608511,19.536087,5.271072,-7.557764,-3.3565481409346663977,-19.60911,-19.608511,15.900492,5.391862,-7.3587985,-3.5980931409346663979,-19.387648,-18.18456,7.668628,5.4683557,-7.2063355,-3.78631541409346664003,-9.255385,-7.325659,3.554791,5.4214373,-7.1570077,-3.94407031409346664004,-9.835381,-7.451953,5.073912,-3.667581,-8.523743,3.17254731409346664007,-4.9386396,-6.701969,5.065532,-4.229504,-8.261258,3.16754151409346664030,-1.3497312,-7.891887,1.7052702,-4.332533,-8.168681,3.26683331409346664031,0.5351041,-10.624868,-1.3072342,-4.136636,-8.2957945,3.19975471409346664038,3.7223852,-17.87511,-2.098518,-3.7483964,-8.588596,2.890661409346664070,5.3324857,-19.608511,-1.4526819,-2.884639,-9.054376,2.42230181409346664071,3.9492357,-15.711948,-0.78649527,-1.9811164,-9.396006,1.99013321409346664072,0.7745243,-11.090541,1.6310499,-1.4082705,-9.551332,1.72022721409346664104,1.0420763,-9.840768,-0.87927055,-1.2117685,-9.575169,1.73728471409346664105,3.2004492,-8.210316,-3.627814,-1.0203192,-9.634581,1.51795341409346664107,4.020463,-7.427412,-4.171298,-0.6779016,-9.723047,1.08314491409346664108,4.1701007,-7.65127,-3.1052797,-0.26530573,-9.782819,0.62965471409346664138,3.5739446,-8.537125,-0.99898064,0.15829408,-9.800116,0.321076121409346664139,3.5314474,-8.280347,0.2645593,0.50517863,-9.791502,0.204166191409346664140,4.132392,-8.431181,-0.0664391,0.8205548,-9.770912,0.162394511409346664163,4.489128,-9.215881,-1.3790601,1.1520962,-9.738278,0.094869371409346664163,3.9695864,-9.8683,-2.6048915,1.4758152,-9.694832,-0.0509177041409346664167,3.1555579,-9.710882,-3.063381,1.7285073,-9.648937,-0.284039051409346664193,2.3918076,-9.091382,-2.8856115,1.8833658,-9.608787,-0.542749051409346664194,2.088941,-8.439561,-2.4785974,1.9671757,-9.57553,-0.780915441409346664219,2.1589713,-8.219295,-1.9955671,2.0136201,-9.5484085,-0.971402351409346664220,1.9297266,-8.448539,-1.4197617,2.0577343,-9.524339,-1.10594341409346664220,1.5340848,-8.868123,-1.0839748,2.077135,-9.512403,-1.17051451409346664227,1.0378864,-9.776124,-1.0935516,2.0610988,-9.513507,-1.18972651409346664248,0.32561144,-11.291056,-1.1749545,1.9876848,-9.529012,-1.19054891409346664249,-0.5710171,-12.631808,-1.3042414,1.8278502,-9.562205,-1.1805151409346664262,-1.3515269,-12.947245,-1.5209166,1.5691196,-9.611504,-1.15206351409346664276,-1.6490064,-11.892,-1.5400703,1.2756393,-9.65837,-1.12206461409346664291,-1.6424223,-10.0987425,-1.4640543,0.98819566,-9.695706,-1.08955871409346664291,-1.8872294,-8.974067,-1.5149311,0.7361814,-9.721328,-1.06028391409346664316,-2.2535424,-9.0842,-1.9375077,0.48563015,-9.737139,-1.05958351409346664317,-2.4313118,-9.448118,-2.1751323,0.21963966,-9.740081,-1.1193461409346664321,-2.2990322,-9.712079,-1.7980455,-0.04584493,-9.731075,-1.21428311409346664329,-2.03148,-9.919776,-1.3736732,-0.26817074,-9.721892,-1.2582831409346664359,-2.2463598,-9.34397,-2.9526494,-0.4511869,-9.712274,-1.28005271409346664362,-6.323685,-9.794081,-4.1892543,-0.64625794,-9.675668,-1.46088281409346664363,-5.547365,-9.2907,-0.6536171,-1.2038401,-9.575904,-1.73873521409346664402,-3.2387564,-8.173804,-0.96785605,-1.6298075,-9.509911,-1.75378251409346664402,-2.6689363,-8.9998045,-1.0690111,-1.8153231,-9.458213,-1.84856921409346664403,-1.846528,-9.861717,-0.66618663,-1.8992294,-9.439358,-1.86059811409346664404,-1.003769,-10.001778,-0.59256494,-1.8776562,-9.460452,-1.77331091409346664407,-0.7835025,-10.046669,-0.62488663,-1.7815073,-9.4980345,-1.66852651409346664428,-0.94690675,-10.208876,-0.521936,-1.6674116,-9.535231,-1.57146351409346664428,-1.086369,-10.416573,-0.2753332,-1.5758784,-9.5661955,-1.47475291409346664441,-1.2054806,-10.751761,0.0676362,-1.5026935,-9.593734,-1.36842571409346664468,-1.2455834,-11.009138,0.35913026,-1.4483509,-9.619103,-1.2431991409346664469,-1.2886791,-10.882844,0.6075287,-1.4097478,-9.642315,-1.0994331409346664470,-1.4640543,-10.823587,0.8678981,-1.3902038,-9.661123,-0.948918461409346664508,-1.6543933,-10.827179,1.2378023,-1.3875846,-9.675704,-0.791039051409346664510,-1.6118963,-10.752359,1.9973627,-1.4073371,-9.685232,-0.6213681409346664514,-1.8303672,-10.653001,3.2273839,-1.4170622,-9.695382,-0.402384131409346664515,-2.2709002,-11.223419,5.1002483,-1.4436201,-9.699341,-0.095595521409346664542,-2.3265655,-12.33792,6.277597,-1.4968238,-9.685391,0.350828231409346664543,-2.0320787,-12.472593,5.895722,-1.5338633,-9.650266,0.830691341409346664547,-2.0614076,-12.075755,4.3400893,-1.5566292,-9.608123,1.19634741409346664566,-2.5001452,-12.001534,1.5370775,-1.6102234,-9.572065,1.39754621409346664568,-3.164536,-12.684481,-0.6434417,-1.6838673,-9.565511,1.35498871409346664568,-4.1539397,-14.15452,-1.6514006,-1.7807305,-9.566115,1.22017371409346664593,-5.5060654,-14.501679,-3.192668,-1.896228,-9.562824,1.06164861409346664594,-6.4685345,-13.9198885,-3.357868,-2.0694582,-9.553064,0.791639151409346664617,-6.505046,-13.652935,-1.9207484,-2.2990575,-9.52111,0.482886251409346664618,-5.4683566,-13.6649065,1.7567455,-2.517768,-9.474076,0.2704271409346664620,-5.509058,-14.025832,3.3925838,-2.6402223,-9.438006,0.351602851409346664642,-5.861006,-14.97214,4.7524905,-2.7421958,-9.398252,0.568852961409346664645,-6.013636,-15.55453,8.439561,-2.8430538,-9.346858,0.85071011409346664658,-5.8987145,-15.439609,11.03727,-2.9190884,-9.264465,1.34870021409346664674,-4.8853683,-14.537593,7.301717,-2.986567,-9.140973,1.92182671409346664675,-3.6978445,-12.648567,-0.14844051,-3.052636,-9.055681,2.20146421409346664694,-3.5260606,-11.468824,-4.4119153,-3.119716,-9.066795,2.05692821409346664694,-3.788824,-11.380837,-7.1209545,-3.1702313,-9.125933,1.68445541409346664701,-3.678691,-11.432313,-8.121132,-3.1919577,-9.206712,1.10374721409346664707,-2.5037365,-10.904391,-6.8809357,-3.1913831,-9.261188,0.464596061409346664723,-1.6741456,-11.095329,-5.3025584,-3.1470227,-9.28731,-0.1118212341409346664740,-1.5197195,-12.270883,-5.142745,-3.0424304,-9.309624,-0.494876831409346664741,-0.79008657,-14.036008,-5.6664767,-2.8962445,-9.334601,-0.80458021409346664755,0.58119243,-17.223886,-5.177461,-2.6833541,-9.366842,-1.11005911409346664759,2.079364,-19.597738,-1.8902222,-2.358711,-9.425431,-1.32969161409346664774,3.7307649,-19.608511,3.8474822,-1.9528979,-9.526303,-1.26732151409346664789,5.6904187,-19.608511,4.6339774,-1.4838798,-9.658272,-0.82843351409346664790,5.333084,-17.549498,1.2437878,-0.9326225,-9.754701,-0.382637231409346664806,3.3973722,-13.497313,-3.0430303,-0.46931204,-9.793364,-0.200426711409346664807,2.5971103,-11.754931,-6.646304,-0.17422523,-9.79908,-0.343628731409346664822,2.7126305,-10.477625,-7.1622543,0.042363808,-9.778328,-0.743571761409346664842,2.528277,-9.718663,-3.8325183,0.23530251,-9.73277,-1.17822341409346664862,2.594716,-9.276335,-1.9692309,0.7156041,-9.623031,-1.74802031409346664863,2.7084408,-8.869919,-5.425261,0.7156041,-9.623031,-1.74802031409346664863,-0.06703765,-6.9850836,-7.141904,0.7156041,-9.623031,-1.74802031409346664868,1.4030021,-5.0374002,-5.781997,0.6794471,-9.538906,-2.17210031409346664889,2.1218612,-5.011064,-4.799776,0.76575935,-9.446842,-2.51817421409346664889,2.0254946,-5.5856724,-3.1304188,0.8848165,-9.3544655,-2.8074031409346664922,1.4221559,-5.641338,-0.84575176,1.0008711,-9.299224,-2.94840341409346664923,0.973243,-5.3288946,-0.29927522,1.0755349,-9.309305,-2.8897151409346664924,0.96187055,-4.848857,-0.11552023,1.0945746,-9.338188,-2.78757331409346664950,1.6980876,-4.085107,-0.007781155,1.102491,-9.37038,-2.6741141409346664951,2.6360161,-3.3812113,-0.9295488,1.232099,-9.387115,-2.55625221409346664952,3.0639796,-2.92751,-2.753332,1.4804457,-9.351878,-2.55363771409346664979,3.681085,-2.734777,-3.256713,1.7876302,-9.236448,-2.7681811409346664981,5.0421886,-2.4833858,-2.5091233,2.1762323,-9.06694,-3.03726531409346664982,5.9825115,-2.2014685,-2.1392193,2.7478297,-8.853033,-3.20056321409346664988,6.603208,-1.9087774,-2.8072014,3.4216568,-8.572974,-3.31161641409346665028,6.849811,-1.8177977,-3.5302503,4.1223154,-8.184808,-3.49082781409346665029,6.885724,-1.8351556,-3.7062242,4.7720275,-7.7248416,-3.7047191409346665030,6.425439,-2.2068555,-3.752911,5.3440657,-7.234902,-3.9073711409346665030,5.193622,-3.566762,-2.9652188,5.7768073,-6.7979198,-4.07273241409346665040,3.5990837,-6.1489086,-0.741604,5.979448,-6.5918875,-4.11869431409346665061,-2.9700072,-13.361441,11.6190605,5.9336677,-6.788075,-3.8579761409346665067,-18.84955,-19.608511,19.608511,5.0326815,-8.202756,-1.88607921409346665069,-19.60911,-19.608511,19.123686,5.1652718,-8.05989,-2.12803151409346665097,-19.60911,-19.608511,11.962628,5.251393,-7.934326,-2.37481071409346665098,-16.401478,-17.52017,6.841431,5.266963,-7.8668256,-2.55783681409346665100,-6.114791,-6.337452,4.023456,5.199286,-7.858467,-2.71704721409346665108,-6.7666125,-5.1666875,4.1772833,-3.8008587,-8.385365,3.37779951409346665123,-2.2056582,-4.008492,2.8646624,-4.1901193,-8.182641,3.41433361409346665142,1.3479356,-5.391144,-0.017357962,-4.1763744,-8.148553,3.51131771409346665143,4.9524064,-10.115502,-2.273893,-3.8563464,-8.341514,3.42317771409346665148,8.895058,-18.553268,-3.436278,-3.0519836,-8.815794,3.02284221409346665171,9.15423,-18.166603,-2.6372132,-1.7348464,-9.380072,2.27485131409346665172,6.2901664,-13.344083,-0.8463503,-0.61553633,-9.640099,1.69115641409346665191,2.7216089,-12.254722,3.7181952,0.04960136,-9.701139,1.43380861409346665192,-0.65182143,-12.211027,8.282143,0.31248453,-9.668334,1.61123491409346665215,0.58777654,-10.049662,0.97264445,0.22946137,-9.576663,2.0988681409346665216,2.259528,-10.02153,-4.148553,0.24868894,-9.606844,1.95373871409346665220,2.724003,-9.5570545,-4.96737,0.41277534,-9.687292,1.46845981409346665250,2.327164,-9.077616,-3.9522285,0.6186206,-9.738558,0.973750951409346665252,2.4899697,-9.001001,-3.3291376,0.78958505,-9.75941,0.54851041409346665252,3.067571,-9.197326,-2.7976246,0.9734856,-9.756608,0.176958161409346665341,2.9293058,-9.7084875,-3.0897174,1.1871122,-9.7337,-0.127455581409346665342,2.303222,-9.997588,-3.6212301,1.3648846,-9.701897,-0.425097051409346665342,1.9015948,-9.609129,-3.6721067,1.4720199,-9.667254,-0.740085961409346665342,1.8142064,-8.812458,-2.9508536,1.5325124,-9.63099,-1.03239371409346665343,1.839944,-8.237849,-1.988983,1.5775667,-9.59901,-1.2412271409346665343,1.7998412,-8.201338,-1.2324153,1.6239679,-9.577339,-1.34451561409346665344,1.4550761,-8.614338,-0.6452374,1.6735114,-9.566054,-1.36395261409346665344,1.01574,-9.329007,-0.52971715,1.6885356,-9.570246,-1.31514381409346665347,0.7110779,-10.281301,-1.0121487,1.6552926,-9.585892,-1.24140581409346665363,0.06464344,-12.015302,-1.2569559,1.5798402,-9.603027,-1.20681151409346665364,-0.110731825,-11.845313,-0.9900024,1.4244226,-9.631009,-1.17688871409346665368,-0.62728083,-11.52449,-1.7669208,1.2752403,-9.658484,-1.1215251409346665395,-1.0737995,-11.142614,-2.9508536,1.0929992,-9.678461,-1.14154791409346665396,-0.8170213,-10.325593,-3.9366663,0.88550186,-9.682398,-1.27963071409346665403,0.05566519,-9.563639,-5.195418,0.72142833,-9.665934,-1.48984811409346665420,-1.1390414,-9.945514,-3.843891,0.6448317,-9.6155615,-1.81537071409346665421,-2.0691888,-10.203489,-3.2549171,0.458086,-9.588672,-2.0044731409346665436,-3.132813,-10.398018,-3.466804,0.2122966,-9.560713,-2.17211151409346665451,-3.4207156,-9.440936,-2.8933928,-0.08559271,-9.517938,-2.36049411409346665451,-3.0268695,-8.576629,-2.5073278,-0.369336,-9.4843235,-2.46609261409346665473,-2.8287494,-8.573636,-2.8030117,-0.6056825,-9.459957,-2.51251721409346665474,-2.5234885,-9.083601,-2.0201077,-0.8281968,-9.428123,-2.56806661409346665490,-2.2894554,-9.785102,-1.2084733,-1.0033245,-9.424806,-2.51729681409346665491,-2.1481974,-10.307637,-0.52852005,-1.1333523,-9.445042,-2.3826691409346665505,-2.5474305,-10.596138,-0.29448682,-1.2313825,-9.477581,-2.19762661409346665522,-2.7820623,-10.468048,0.12090719,-1.3524697,-9.502623,-2.01031881409346665523,-2.6617537,-10.072407,0.30226797,-1.4826577,-9.523221,-1.81118871409346665538,-2.4313118,-9.879673,0.40701428,-1.5958155,-9.53769,-1.62978941409346665540,-2.309806,-9.822811,0.75357497,-1.6755948,-9.552403,-1.4540941409346665554,-2.337938,-9.815628,1.4586674,-1.743832,-9.5660095,-1.27314821409346665568,-2.5863364,-10.140042,2.408567,-1.8008085,-9.582739,-1.04813971409346665569,-2.6426,-10.499771,3.5272577,-1.8650869,-9.598135,-0.753432331409346665585,-2.4187422,-10.858303,4.282628,-1.9212198,-9.609216,-0.37721041409346665588,-2.0392613,-11.130045,4.602853,-1.9456648,-9.611672,0.0232594051409346665601,-1.903989,-11.2605295,4.572925,-1.9332346,-9.606258,0.39091141409346665636,-2.087744,-11.315596,4.2395325,-1.9133343,-9.5923395,0.70467761409346665637,-2.6090813,-11.915942,3.7672763,-1.9125527,-9.570779,0.95537691409346665637,-3.052607,-12.86225,3.6523547,-1.9517176,-9.543891,1.1293021409346665645,-3.3369186,-13.234549,3.413533,-2.005715,-9.513215,1.28304581409346665660,-3.643975,-12.819155,3.0065188,-2.0753617,-9.481166,1.40384761409346665661,-3.9600096,-12.4702,1.8088194,-2.1737163,-9.444604,1.49827371409346665675,-5.0757074,-13.433268,-0.12090719,-2.2798686,-9.415179,1.52544461409346665687,-6.311714,-14.418481,-0.63206923,-2.413291,-9.398554,1.41901961409346665688,-6.5696893,-14.921264,0.6171055,-2.583616,-9.376159,1.25815651409346665710,-6.443994,-14.958972,2.3157916,-2.7357748,-9.341022,1.19635451409346665710,-6.2979474,-14.586075,3.5452142,-2.842212,-9.298999,1.27312221409346665720,-6.327875,-14.446613,4.7441106,-2.9397378,-9.249193,1.40740331409346665734,-6.6002154,-15.246277,6.423643,-3.0449076,-9.183942,1.59816241409346665753,-6.1848216,-15.015236,13.095086,-3.1518462,-9.09797,1.86097011409346665753,-4.076727,-13.596073,3.0454245,-3.208477,-8.920836,2.5089341409346665772,-3.5104983,-12.232575,-3.7235823,-3.2363067,-8.9267645,2.45145061409346665773,-3.6643257,-12.249933,-4.64535,-3.2528527,-9.013219,2.08595871409346665787,-4.19943,-12.0093155,-4.8458643,-3.2768958,-9.092242,1.66236911409346665788,-4.484938,-12.0967045,-5.625177,-3.2979531,-9.155045,1.21617581409346665802,-3.2944214,-12.488156,-5.9507885,-3.339253,-9.192416,0.720603641409346665818,-2.417545,-12.138004,-5.6185927,-3.3099692,-9.2281885,0.234603351409346665820,-1.6867151,-12.246941,-4.8320975,-3.231302,-9.257331,-0.175762441409346665835,-0.9211691,-13.38658,-4.675876,-3.1025066,-9.290358,-0.483826671409346665853,0.55485624,-19.045874,-3.0615854,-2.90418,-9.336971,-0.74636671409346665854,1.9363106,-19.608511,0.3250129,-2.5348675,-9.434537,-0.85694431409346665871,3.6762967,-19.608511,3.2213984,-2.115868,-9.548877,-0.715826871409346665872,5.3061495,-19.539679,1.8016368,-1.6344345,-9.661408,-0.395206481409346665889,5.524022,-16.180016,-0.63206923,-1.1087688,-9.741805,-0.195641951409346665890,4.587889,-12.51569,-4.1659107,-0.64188427,-9.784293,-0.161172751409346665906,3.7433343,-10.359112,-7.141904,-0.27055472,-9.795704,-0.375988451409346665919,2.03567,-9.260174,-6.6103907,0.035373513,-9.773152,-0.809087461409346665922,0.9139865,-8.702923,-3.5116954,0.19671763,-9.731895,-1.19243491409346665948,-0.3681085,-9.686341,-3.7367504,0.27362463,-9.705877,-1.37530781409346665949,-0.31304187,-9.852738,-6.715736,0.24003245,-9.675715,-1.57902571409346665949,-0.39205053,-7.233482,-7.4136457,0.19228257,-9.605112,-1.96855841409346665991,0.34356794,-4.1222167,-6.697779,0.14063334,-9.502125,-2.4207911409346665992,1.489792,-3.5643678,-5.8747725,0.16399024,-9.369484,-2.89072921409346665992,2.1984756,-4.207211,-1.9829975,0.29379618,-9.227048,-3.3084221409346665993,2.284667,-4.3897686,-0.18854338,0.47930562,-9.200157,-3.36121421409346666001,0.76075757,-4.3406878,-0.19153613,0.66071814,-9.222384,-3.2682491409346666024,-0.08140286,-4.100669,-1.0360907,0.67305154,-9.259377,-3.15932871409346666024,0.5141548,-3.9683893,-1.5682021,0.60185766,-9.277625,-3.11990621409346666029,1.584363,-3.6924577,-1.8016368,0.616931,-9.272119,-3.13330911409346666052,2.724003,-3.335123,-2.315193,0.76701283,-9.241467,-3.19020371409346666052,4.1940427,-3.127426,-1.9069817,1.0645722,-9.164602,-3.32372431409346666070,5.48751,-2.9526494,-1.7441759,1.565717,-9.059729,-3.41177941409346666070,6.356007,-2.8383262,-2.0260932,2.2376764,-8.899696,-3.45811631409346666089,6.8288617,-2.7263973,-2.557606,2.9958425,