time,acc_x,acc_y,acc_z,gravity_x,gravity_y,gravity_z1409347081350,-0.19991584,-9.980229,-1.0947487,-0.22346024,-9.76896,-0.8293911409347081363,-0.23343466,-10.272921,-0.961272,-0.22592254,-9.768239,-0.8371851409347081369,-0.16879122,-10.240001,-0.86610246,-0.22893472,-9.767476,-0.84522391409347081381,-0.1388637,-10.274716,-0.80086046,-0.23153643,-9.766769,-0.852655531409347081404,-0.1592144,-10.127473,-0.78050977,-0.23491219,-9.766107,-0.85929571409347081422,-0.13347675,-9.8916445,-0.75716627,-0.24048853,-9.765512,-0.86450381409347081423,-0.110133275,-9.861118,-0.7703344,-0.24643224,-9.765023,-0.86833481409347081439,-0.13706805,-9.980828,-0.7553706,-0.25239202,-9.764539,-0.872059351409347081444,-0.16160862,-10.226832,-0.7715315,-0.25864494,-9.763977,-0.87649061409347081458,-0.1400608,-10.118495,-0.76075757,-0.26444545,-9.763297,-0.88232121409347081460,-0.078410104,-9.898827,-0.74878657,-0.26951414,-9.762529,-0.889271409347081476,-0.10534488,-10.329783,-0.82719666,-0.2739159,-9.761754,-0.89640061409347081488,-0.08200141,-10.305841,-0.86011696,-0.27872765,-9.760981,-0.90330091409347081489,0.003591303,-9.898229,-0.83138657,-0.28304437,-9.760221,-0.910147371409347081503,-0.001197101,-10.147225,-0.89662856,-0.28630087,-9.759466,-0.91717331409347081504,0.007781155,-10.271724,-0.96306765,-0.28889206,-9.758708,-0.924421371409347081519,0.022744916,-10.097546,-0.9516952,-0.29009515,-9.757895,-0.93257781409347081536,-0.025139118,-10.237606,-0.9552865,-0.29035175,-9.756946,-0.942405341409347081536,0.011971008,-10.204686,-0.9355343,-0.29096827,-9.755898,-0.95298521409347081554,0.011971008,-10.136452,-0.88944596,-0.29123396,-9.754725,-0.964838151409347081555,0.016759412,-10.084377,-0.81283146,-0.29198828,-9.753396,-0.977971409347081561,0.0664391,-9.988609,-0.79607207,-0.2929358,-9.751896,-0.992527541409347081580,0.076614454,-10.010158,-0.7739257,-0.2933404,-9.75017,-1.00923611409347081583,0.034715924,-10.044274,-0.7835025,-0.29298925,-9.74831,-1.02714411409347081600,-0.005386954,-10.008362,-0.78649527,-0.29149464,-9.74634,-1.04609781409347081613,-0.039504327,-9.946113,-0.81163436,-0.28782633,-9.744415,-1.06487851409347081613,-0.11432313,-10.038289,-0.8331822,-0.28335416,-9.742503,-1.08339971409347081630,-0.17238252,-10.065224,-0.81881696,-0.27725407,-9.74081,-1.10007611409347081630,-0.2681506,-10.001179,-0.7870938,-0.26961702,-9.73943,-1.11408291409347081649,-0.34955344,-10.020931,-0.7667431,-0.2613089,-9.738367,-1.12531341409347081651,-0.4321534,-10.027515,-0.7332243,-0.252602,-9.737663,-1.1333751409347081663,-0.5009867,-10.039486,-0.7182605,-0.24411242,-9.737375,-1.13769471409347081681,-0.5835867,-10.028712,-0.7068881,-0.23555502,-9.737521,-1.13824531409347081682,-0.6488287,-9.97604,-0.7188591,-0.22777693,-9.737888,-1.13668411409347081703,-0.7290344,-10.040085,-0.79607207,-0.2201346,-9.738716,-1.13108671409347081720,-0.7823054,-10.144831,-0.9032126,-0.21350977,-9.7399845,-1.12138491409347081721,-0.83497787,-10.198701,-1.033098,-0.20731033,-9.741726,-1.10734161409347081738,-0.85293436,-10.234613,-1.1450269,-0.20179509,-9.743885,-1.08921441409347081739,-0.8158242,-10.324995,-1.2719196,-0.19740328,-9.7463045,-1.06815361409347081758,-0.7433996,-10.418967,-1.4287399,-0.19403395,-9.748688,-1.04683541409347081758,-0.62847793,-10.476428,-1.5263035,-0.19115269,-9.750782,-1.02768711409347081763,-0.50278234,-10.468647,-1.5807717,-0.18756256,-9.752636,-1.01059871409347081780,-0.37349546,-10.414179,-1.5705963,-0.18390447,-9.754025,-0.997791771409347081783,-0.26874915,-10.381259,-1.5251064,-0.18088177,-9.754803,-0.99071671409347081799,-0.2136825,-10.373477,-1.4742297,-0.17842838,-9.755048,-0.98872931409347081801,-0.16819267,-10.365098,-1.4520833,-0.17650515,-9.754924,-0.99032161409347081810,-0.10115502,-10.289082,-1.4143747,-0.17505774,-9.75464,-0.99336461409347081828,0.095768064,-10.231023,-1.4323312,-0.17354104,-9.754329,-0.99666771409347081829,0.23163901,-10.264542,-1.4012065,-0.1703272,-9.753936,-1.00107321409347081846,0.3489549,-10.324995,-1.3700819,-0.16599691,-9.753451,-1.00649241409347081849,0.4914099,-10.381259,-1.3054385,-0.16107465,-9.752435,-1.01707341409347081861,0.61171854,-10.406996,-1.2012907,-0.1547589,-9.750671,-1.03480661409347081883,0.688333,-10.386047,-1.0905589,-0.14705417,-9.747991,-1.06086921409347081885,0.7224504,-10.284892,-0.96067345,-0.13845147,-9.744356,-1.09486451409347081904,0.7015011,-10.131064,-0.80445176,-0.13014089,-9.739886,-1.13492581409347081905,0.6548142,-9.903615,-0.6667852,-0.12177505,-9.734914,-1.17771761409347081910,0.58777654,-9.715671,-0.57999533,-0.113029875,-9.7297945,-1.22012931409347081937,0.5081693,-9.694721,-0.60812724,-0.10249957,-9.724841,-1.25990771409347081938,0.4309563,-9.691729,-0.6931214,-0.08918095,-9.720575,-1.29338381409347081947,0.36631286,-9.648633,-0.8038532,-0.07269509,-9.717531,-1.31708861409347081950,0.28311434,-9.64145,-0.91099375,-0.053306937,-9.715815,-1.33061091409347081970,0.19572599,-9.709685,-0.98341835,-0.031847674,-9.715294,-1.33509541409347081971,0.08020575,-9.880871,-1.0319009,-0.008976211,-9.715602,-1.3331911409347081982,-0.01436521,-10.059238,-1.0785879,0.015098931,-9.716146,-1.32916591409347082003,-0.076614454,-10.168175,-1.1330559,0.039337885,-9.717099,-1.32168291409347082004,-0.1316811,-10.222044,-1.1408371,0.063933834,-9.718456,-1.31070091409347082015,-0.16938977,-10.365098,-1.1246762,0.087654024,-9.720332,-1.29533451409347082031,-0.26755205,-10.54167,-1.1372458,0.11035393,-9.722668,-1.27590911409347082031,-0.34835634,-10.683527,-1.1593921,0.13081864,-9.725249,-1.25410751409347082046,-0.42078096,-10.737396,-1.1875241,0.14864816,-9.727814,-1.23204711409347082051,-0.45310268,-10.667964,-1.210269,0.16313173,-9.730112,-1.2119011409347082063,-0.4973954,-10.54586,-1.2497733,0.17645445,-9.73213,-1.19370371409347082076,-0.504578,-10.407595,-1.2282255,0.18513343,-9.73356,-1.18064481409347082095,-0.47345337,-10.283695,-1.2084733,0.19023484,-9.734321,-1.17354111409347082095,-0.40162733,-10.157401,-1.18094,0.19278643,-9.734376,-1.17266141409347082109,-0.29269117,-10.044274,-1.1719618,0.19345702,-9.73394,-1.1761721409347082110,-0.17597382,-9.942521,-1.1988965,0.19215193,-9.7332325,-1.18224111409347082129,-0.09935937,-9.929353,-1.2372037,0.18898003,-9.732337,-1.19008541409347082130,0.010175358,-10.011953,-1.3120226,0.18501316,-9.731348,-1.19877611409347082149,0.093373865,-10.0664215,-1.352724,0.18184417,-9.73024,-1.2082051409347082151,0.12868834,-10.078392,-1.435324,0.17897257,-9.729133,-1.21752061409347082166,0.1388637,-10.053253,-1.471237,0.17585868,-9.727988,-1.22707051409347082180,0.16579847,-10.043077,-1.484405,0.17340265,-9.726797,-1.23684011409347082183,0.2148796,-10.064027,-1.4149733,0.17223026,-9.725559,-1.24669291409347082204,0.29388827,-10.080188,-1.3221979,0.17186143,-9.724341,-1.25621011409347082205,0.39504328,-10.075399,-1.2156559,0.17244186,-9.723089,-1.26578041409347082210,0.48841715,-10.075998,-1.1133038,0.17303762,-9.72189,-1.27487441409347082227,0.55964464,-10.092757,-1.033098,0.17423867,-9.720704,-1.28371641409347082230,0.66738373,-10.151415,-1.0103531,0.17587504,-9.719581,-1.29198861409347082244,0.7386112,-10.21127,-1.050456,0.17769904,-9.718533,-1.29959961409347082270,0.79846627,-10.230424,-1.0977415,0.17924832,-9.717586,-1.30644321409347082272,0.8583213,-10.210671,-1.1677719,0.1806009,-9.716803,-1.31207691409347082273,0.9600749,-10.118495,-1.3742718,0.18173254,-9.716065,-1.3173751409347082282,1.033098,-9.994595,-1.4532804,0.18306437,-9.715102,-1.32427761409347082304,1.0031705,-9.912594,-1.459266,0.18590748,-9.7139435,-1.33235341409347082305,0.8972271,-9.864111,-1.4909891,0.18900195,-9.712671,-1.34115741409347082310,0.7673417,-9.880272,-1.4927847,0.19378245,-9.711342,-1.35005741409347082325,0.5943606,-9.923966,-1.5005659,0.20062633,-9.710129,-1.35776381409347082330,0.45848963,-9.925761,-1.4676456,0.2089502,-9.709216,-1.36303961409347082343,0.37229836,-9.991004,-1.4544775,0.21830928,-9.70882,-1.36438511409347082371,0.30286652,-10.034698,-1.3964181,0.22785804,-9.708945,-1.3619431409347082373,0.25797522,-10.044873,-1.3150153,0.23570086,-9.709305,-1.35804371409347082374,0.22565351,-10.07121,-1.1988965,0.24369594,-9.709802,-1.35306361409347082403,0.17717093,-10.128671,-1.1438298,0.24953356,-9.7102165,-1.34900241409347082404,0.1340753,-10.163386,-1.1659763,0.2526371,-9.7104025,-1.34709851409347082405,0.10235212,-10.134057,-1.2162545,0.25390434,-9.710333,-1.34735981409347082410,0.10235212,-10.094553,-1.3084313,0.2537807,-9.710128,-1.34884621409347082429,0.16879122,-10.07121,-1.417966,0.25332856,-9.7099695,-1.35008011409347082430,0.2693477,-10.065823,-1.4987702,0.2540829,-9.709776,-1.3513411409347082444,0.38187516,-10.034698,-1.5508442,0.25658786,-9.709437,-1.35328511409347082470,0.48123455,-9.953894,-1.5454572,0.2599205,-9.708729,-1.35773281409347082471,0.52852005,-9.917382,-1.5047557,0.2640379,-9.707569,-1.36519121409347082474,0.5638345,-9.888652,-1.4879963,0.26852265,-9.706046,-1.37511231409347082505,0.52492875,-9.909601,-1.4700398,0.2741092,-9.704281,-1.38643981409347082506,0.47046062,-10.057443,-1.4838065,0.2801818,-9.702491,-1.39770581409347082506,0.3681085,-10.11251,-1.4700398,0.28605595,-9.7008095,-1.40813661409347082510,0.28072014,-10.0903635,-1.4550761,0.29070905,-9.6992655,-1.41778771409347082526,0.18734628,-10.078392,-1.3682863,0.2951482,-9.697937,-1.42595521409347082530,0.090381116,-10.059837,-1.2785037,0.2979688,-9.696736,-1.4335021409347082544,0.019153614,-10.094553,-1.2108675,0.2983008,-9.695454,-1.44207051409347082568,-0.05566519,-10.11251,-1.1731589,0.2965148,-9.694079,-1.45167061409347082570,-0.09935937,-10.125677,-1.1629834,0.29304948,-9.692659,-1.46180861409347082572,-0.089782566,-10.094553,-1.1629834,0.28837153,-9.6913185,-1.47158181409347082606,-0.12330139,-10.081984,-1.1426327,0.28176966,-9.690236,-1.47997841409347082607,-0.11731588,-10.081984,-1.1019313,0.27403906,-9.68927,-1.48773161409347082610,-0.10115502,-10.081385,-1.0690111,0.2636331,-9.68831,-1.49583771409347082612,-0.08619126,-10.048465,-1.0085574,0.25054157,-9.687162,-1.50549171409347082628,-0.0712275,-10.0341,-0.98940384,0.23463294,-9.685809,-1.51671741409347082630,-0.05746084,-10.038289,-0.98700964,0.21686143,-9.684231,-1.52938641409347082642,-0.026934769,-9.999383,-0.99658644,0.19815935,-9.682488,-1.5429041409347082661,-0.006584055,-9.988011,-1.0121487,0.17886107,-9.680655,-1.55670231409347082664,0.023343466,-10.0748005,-1.0295067,0.15961364,-9.678783,-1.57037531409347082677,0.10055647,-10.095152,-1.0432734,0.13942719,-9.676981,-1.58335641409347082693,0.2148796,-9.993398,-1.050456,0.11883301,-9.675236,-1.5956431409347082694,0.3657143,-9.910798,-1.0217255,0.098555945,-9.673441,-1.60785841409347082712,0.52073884,-9.838972,-1.009156,0.079530925,-9.671621,-1.619831409347082713,0.6853402,-9.717466,-1.0067618,0.062389236,-9.669748,-1.6317181409347082729,0.86490536,-9.661801,-1.0636241,0.04873685,-9.667958,-1.64274561409347082730,1.2012907,-9.607931,-1.1857284,0.03984101,-9.666414,-1.65204011409347082744,1.2862848,-9.562442,-1.2324153,0.035096742,-9.664956,-1.66065721409347082763,1.3204023,-9.655217,-1.3239936,0.034860592,-9.6640415,-1.66599021409347082764,1.2910733,-9.791088,-1.3868413,0.039771162,-9.663559,-1.66866561409347082776,1.216853,-10.039486,-1.448492,0.05051789,-9.66339,-1.66935721409347082795,0.96665895,-10.356718,-1.5191209,0.06713965,-9.663526,-1.66799161409347082796,0.54408234,-10.613496,-1.5699978,0.08802666,-9.66411,-1.6636161409347082812,0.18315643,-10.727819,-1.5999253,0.11265257,-9.665314,-1.65512811409347082813,-0.074818805,-10.598533,-1.5688007,0.13784458,-9.666776,-1.64463711409347082827,-0.25917232,-10.395025,-1.4784195,0.167296,-9.668903,-1.62933031409347082830,-0.36511576,-10.208278,-1.3275849,0.19661592,-9.671736,-1.60912451409347082844,-0.48722005,-10.040085,-1.340753,0.22274902,-9.675065,-1.5855221409347082860,-0.7230489,-10.110714,-1.560421,0.24447775,-9.678612,-1.560481409347082864,-1.0588357,-10.2657385,-1.8776526,0.26095718,-9.682468,-1.53364981409347082875,-1.4879963,-10.118495,-2.12246,0.27372986,-9.687182,-1.50132231409347082891,-1.8980033,-9.952098,-2.3289597,0.28224605,-9.693187,-1.4604281409347082892,-2.273893,-9.92636,-2.1667526,0.28436172,-9.699613,-1.41670331409347082917,-2.5001452,-9.910199,-1.7633295,0.27665275,-9.707414,-1.36380711409347082918,-2.5647886,-9.907805,-1.3066356,0.25620267,-9.716222,-1.30375041409347082925,-2.4378958,-9.757569,-0.9935937,0.22121465,-9.724936,-1.24381941409347082931,-2.0578163,-9.564238,-1.0259154,0.17318974,-9.732278,-1.19295781409347082949,-1.4867992,-9.320627,-1.1372458,0.118149705,-9.737257,-1.15856741409347082951,-1.055843,-9.225458,-1.0690111,0.06299013,-9.739609,-1.14300271409347082965,-0.7236475,-9.486425,-0.8984242,0.013923312,-9.740462,-1.13736331409347082986,-0.24301147,-9.737218,-0.86610246,-0.03019757,-9.738261,-1.15574941409347082987,0.054468088,-9.967062,-0.9995792,-0.06296674,-9.732386,-1.20296881409347082992,0.16160862,-10.210073,-1.2186487,-0.08749504,-9.722385,-1.27982761409347083024,0.22625206,-10.383054,-1.4401124,-0.10209639,-9.708361,-1.38118841409347083025,0.39504328,-10.306439,-1.4736311,-0.10292846,-9.690636,-1.50046661409347083027,0.6667852,-10.123882,-1.4119805,-0.09076894,-9.670079,-1.6284121409347083031,0.93972415,-10.011953,-1.3162124,-0.07006547,-9.6476,-1.7576481409347083051,1.0809821,-9.97185,-1.2366052,-0.045674834,-9.624083,-1.88290051409347083052,1.0702082,-10.033501,-1.1785458,-0.016923077,-9.600407,-2.0005831409347083062,0.8948329,-10.022727,-1.0857705,0.014224925,-9.577729,-2.10649351409347083083,0.7092823,-9.9233675,-0.90141696,0.047436,-9.556428,-2.20063381409347083084,0.39504328,-10.068216,-0.770933,0.0819298,-9.536949,-2.2826061409347083091,0.061052144,-10.23222,-0.90500826,0.11438012,-9.519713,-2.3521061409347083119,-0.18375498,-10.318411,-0.93613285,0.14308015,-9.5049925,-2.4093671409347083121,-0.2896984,-10.412383,-0.729633,0.16754107,-9.491584,-2.46011351409347083123,-0.37708676,-10.552444,-0.5117606,0.18562369,-9.481856,-2.49607041409347083151,-0.34835634,-10.749966,-0.37588966,0.20052375,-9.47559,-2.5186131409347083152,-0.17357962,-10.8595,-0.24301147,0.20893297,-9.472395,-2.52991371409347083152,0.108337626,-10.932524,-0.16579847,0.213488,-9.4712925,-2.53366451409347083179,0.31902736,-10.784681,-0.11851298,0.2176973,-9.470955,-2.53456831409347083182,0.16220717,-10.565014,-0.16519992,0.22477469,-9.470311,-2.53634521409347083198,0.06464344,-10.527904,-0.3657143,0.2371531,-9.469838,-2.53698281409347083199,-0.08379706,-10.726623,-0.9959879,0.25689095,-9.469832,-2.53509021409347083204,-0.4189853,-10.812215,-1.2437878,0.28063583,-9.471902,-2.52481561409347083211,-0.7649474,-11.058219,-1.5245079,0.3079957,-9.477778,-2.4994471409347083226,-1.1025299,-11.508927,-1.7968484,0.33702657,-9.487441,-2.45870831409347083240,-1.5053543,-11.865664,-2.416348,0.36568084,-9.5000305,-2.4054281409347083242,-1.9003977,-11.999141,-3.4021606,0.3899996,-9.513184,-2.34896331409347083261,-1.763928,-11.740566,-3.7972038,0.4089432,-9.524334,-2.30004531409347083280,-1.7741034,-11.468226,-3.4584243,0.4278639,-9.533497,-2.25826361409347083281,-1.6160861,-11.341333,-2.8072014,0.44374564,-9.539872,-2.22807241409347083291,-1.4664485,-11.28926,-2.4307132,0.45770213,-9.539842,-2.22537831409347083292,-1.4287399,-11.321581,-2.0847511,0.47055283,-9.53142,-2.25854831409347083308,-1.436521,-11.422736,-1.7669208,0.4856373,-9.518409,-2.30964881409347083311,-1.4921862,-11.638813,-1.5304934,0.5042213,-9.504582,-2.36201551409347083325,-1.5921441,-11.798027,-1.2515689,0.5236042,-9.490838,-2.41252061409347083346,-1.6226702,-11.939884,-0.98341835,0.5421236,-9.476417,-2.46455651409347083347,-1.804031,-12.252327,-0.6500258,0.5623029,-9.461493,-2.51681731409347083362,-2.2008698,-12.800599,-0.02873042,0.57978845,-9.444176,-2.57717231409347083363,-2.6372132,-13.373412,1.1540052,0.5949191,-9.4251375,-2.6425851409347083379,-2.9771898,-13.760076,3.551798,0.606727,-9.406534,-2.70543581409347083393,-3.7972038,-13.770251,6.901885,0.6108739,-9.394087,-2.74743371409347083393,-4.4753613,-13.066955,10.118495,0.59608287,-9.394863,-2.74802161409347083409,-4.7147818,-12.3277445,12.149377,0.5642584,-9.413213,-2.69135861409347083411,-4.160524,-11.66515,10.517728,0.5219576,-9.452252,-2.55985761409347083426,-3.240552,-10.9582615,2.4438813,0.50184876,-9.488601,-2.4258981409347083442,-2.7874494,-10.664372,-3.0101101,0.47002137,-9.524981,-2.2856531409347083444,-2.6366146,-11.9057665,-4.982932,0.4098542,-9.579685,-2.0571921409347083456,-2.540248,-12.74673,-4.325724,0.30855274,-9.636414,-1.79296141409347083477,-1.6023195,-12.995129,-3.1322143,0.17873803,-9.68087,-1.55537831409347083478,-0.9235633,-12.783241,-2.6258407,0.036711775,-9.712405,-1.35581721409347083491,-0.24361002,-13.290214,-2.1380222,-0.12117051,-9.73388,-1.18629181409347083491,0.9403227,-14.31972,-2.0446482,-0.28397125,-9.749465,-1.0186751409347083509,2.3277626,-15.42644,-2.5432408,-0.44496262,-9.759369,-0.85270991409347083511,4.2131963,-16.1866,-2.6964695,-0.60632867,-9.763607,-0.68902041409347083525,5.8867435,-16.566679,-2.4510639,-0.7578554,-9.76336,-0.52233811409347083541,6.2165446,-15.8556,-2.2391772,-0.89107615,-9.7602,-0.338937371409347083543,4.3873744,-14.423269,-2.3050177,-1.0053324,-9.754108,-0.130528421409347083555,1.9692309,-12.966398,-3.481768,-1.1082836,-9.743357,0.095310391409347083582,-0.01616086,-12.173319,-4.815338,-1.1960721,-9.72888,0.29783261409347083584,-1.6172832,-11.533468,-5.7143607,-1.2895505,-9.710446,0.463344661409347083584,-2.4355016,-10.953473,-4.981137,-1.3917835,-9.690549,0.571484741409347083599,-2.5127146,-10.157999,-3.9630024,-1.5197698,-9.667174,0.63752811409347083626,-2.0494366,-9.711481,-2.8550856,-1.6702092,-9.639173,0.68348731409347083627,-0.374094,-8.800487,-1.9560628,-1.8341941,-9.606041,0.72807931409347083628,0.29807812,-8.604761,-2.1416135,-1.9961128,-9.5689535,0.788081051409347083652,0.7870938,-8.541913,-3.0508115,-2.1435452,-9.530473,0.86352941409347083652,2.3690627,-7.5584946,-5.711368,-2.2727385,-9.493715,0.93509531409347083653,2.554613,-6.4416,-4.8560395,-2.3672168,-9.465695,0.983508351409347083681,2.4636335,-5.9124813,-3.1920695,-2.4717844,-9.434922,1.02123511409347083682,1.6801311,-5.6964045,-2.741361,-2.5963109,-9.398561,1.04719731409347083685,1.4634558,-5.7664347,-1.2838906,-2.7247047,-9.360334,1.06326121409347083691,2.1080947,-5.5246205,-0.78529817,-2.8348582,-9.323336,1.0997091409347083712,3.1477766,-4.961983,-1.0809821,-2.9159777,-9.290338,1.16494231409347083712,4.1066546,-4.5406036,-1.283292,-2.974843,-9.260852,1.24792271409347083731,4.975151,-4.0497923,-1.584363,-3.0236084,-9.233685,1.32938461409347083733,5.728726,-3.5248635,-1.7369933,-3.0613825,-9.210833,1.39959681409347083745,6.283582,-3.1824925,-2.2822728,-3.092962,-9.193198,1.44536361409347083758,6.542156,-2.955642,-2.967613,-3.1141446,-9.182827,1.46567871409347083781,6.59004,-2.7126305,-3.0891187,-3.1180995,-9.182275,1.46070621409347083781,6.5403605,-2.8137856,-2.5474305,-3.0997388,-9.192219,1.43706291409347083783,6.0250087,-3.8696284,-1.6543933,-3.0533395,-9.213566,1.39916841409347083791,4.643554,-5.554548,0.492607,-2.9904587,-9.240037,1.35988441409347083821,1.7202339,-8.406042,4.3700166,-2.8976724,-9.276746,1.30991131409347083822,-2.3612814,-12.039842,9.247005,-2.7722635,-9.321451,1.26313541409347083824,-9.296086,-17.241245,16.260221,-2.6330352,-9.361779,1.26278011409347083852,-16.133327,-19.608511,14.136564,-2.4962811,-9.41004,1.17903151409347083853,-19.534891,-19.608511,10.406398,-2.3672094,-9.448605,1.13604061409347083854,-18.483835,-19.364902,6.341043,-2.2791538,-9.471731,1.12346921409347083897,-12.379818,-15.035586,2.1883004,-2.2583942,-9.4848585,1.05238541409347083898,-8.463503,-12.393585,2.2110453,-3.4814951,-8.788425,2.61020021409347083899,-6.282984,-11.077373,2.9741971,-3.7880433,-8.715783,2.41997031409347083900,-3.964798,-10.108319,3.2202013,-3.9133723,-8.673009,2.37378261409347083904,-2.27928,-8.405443,2.835932,-3.8640745,-8.672956,2.45339751409347083912,-0.5177461,-5.9962783,1.2066777,-3.7463377,-8.688023,2.5794631409347083933,3.1322143,-4.7309427,-2.2164323,-3.575279,-8.742501,2.63750961409347083947,6.1866174,-9.078813,-4.5441947,-3.1797712,-8.95277,2.43050341409347083948,7.12694,-12.093711,-5.1170077,-2.4174426,-9.319303,1.86466171409347083986,6.2674217,-12.026075,-3.6858735,-1.4994048,-9.616124,1.20513981409347083987,4.7800236,-12.66413,-3.1190462,-0.7090106,-9.753454,0.73335931409347083988,3.4763808,-14.653711,-3.8624458,-0.12632866,-9.799013,0.365762231409347083989,1.2384008,-18.097172,-2.4169466,0.2542515,-9.803302,-0.0322241081409347083992,-1.2294226,-19.280506,2.1679497,0.3491968,-9.796955,-0.261034041409347084013,0.38367084,-15.516223,5.470751,0.20451164,-9.803363,-0.150482241409347084014,4.3795934,-9.822212,4.2676644,0.174766,-9.80385,0.156101841409347084023,6.129755,-6.7504516,2.0009542,0.47128636,-9.785593,0.436409321409347084046,5.9585695,-5.801749,0.59017074,0.88105875,-9.748746,0.596729041409347084047,4.981137,-5.907693,-1.0324994,1.3352839,-9.690135,0.69908291409347084052,3.9378633,-6.030994,-2.3822308,1.7374034,-9.630481,0.636910861409347084080,2.7844565,-6.5786676,-3.6954503,2.0377846,-9.583239,0.423503641409347084081,2.2619221,-6.917447,-3.9486372,2.2038674,-9.555537,0.071078451409347084083,2.404377,-7.294534,-3.34051,2.2942443,-9.529421,-0.311385931409347084092,2.3415294,-7.937377,-1.8920178,2.3746812,-9.493856,-0.630876241409347084112,1.827973,-9.901819,-1.7597382,2.4186308,-9.471062,-0.78716281409347084113,1.5358804,-11.258135,-1.7435774,2.379345,-9.471782,-0.891307651409347084142,0.81642276,-12.723387,-1.8064252,2.282921,-9.487883,-0.968901751409347084143,-0.15682021,-13.476961,-2.0667946,2.102347,-9.524756,-1.01466331409347084146,-0.9684546,-12.627619,-1.9812019,1.8422384,-9.573494,-1.06054251409347084161,-1.3431472,-10.840346,-1.5161282,1.5499372,-9.621331,-1.09455591409347084178,-1.3545196,-9.647436,-1.4939818,1.2665429,-9.662586,-1.09575941409347084179,-1.1348516,-9.324817,-2.6240451,1.0201198,-9.689416,-1.11578741409347084184,-0.43993455,-9.04709,-4.0198646,0.79850984,-9.695581,-1.23631061409347084192,-0.4165911,-9.126099,-8.355764,0.65790766,-9.670789,-1.48775261409347084209,-3.630807,-10.851121,-12.281656,0.5201971,-9.561178,-2.11746051409347084226,-6.823475,-11.261127,-7.6680293,0.08486009,-9.347675,-2.96380381409347084227,-6.3703723,-9.973646,-2.1517887,-0.55730647,-9.213052,-3.31353191409347084241,-5.319318,-9.105149,0.33159694,-1.101749,-9.175351,-3.28169061409347084244,-3.6332011,-8.4108305,1.110311,-1.5212568,-9.1902685,-3.06515381409347084257,-2.3451207,-8.728063,1.5023615,-1.7405118,-9.249416,-2.754871409347084275,-1.6394296,-9.880871,1.376666,-1.841934,-9.326515,-2.40702921409347084276,-1.4155718,-10.890625,0.99419224,-1.8154898,-9.411535,-2.07301971409347084290,-1.3551182,-11.23958,0.60932434,-1.7385204,-9.485286,-1.78250361409347084292,-1.2210429,-11.08276,0.48841715,-1.6580206,-9.540179,-1.55123461409347084306,-1.0761937,-10.855909,0.46986207,-1.586462,-9.580924,-1.36361481409347084326,-0.84335756,-10.720038,0.62728083,-1.5241008,-9.611446,-1.21145021409347084326,-0.4405331,-10.666767,1.073201,-1.4512203,-9.640632,-1.05952661409347084340,-0.20829555,-11.034876,1.2808979,-1.3579084,-9.67059,-0.89787711409347084357,-0.08200141,-11.657368,1.1186907,-1.2479486,-9.698947,-0.73716861409347084357,0.14544775,-11.971607,1.2066777,-1.1269355,-9.722776,-0.60666591409347084376,0.26874915,-12.09431,1.8112136,-0.99196553,-9.7445135,-0.480432571409347084376,0.33638534,-11.965023,2.4774003,-0.8582453,-9.764016,-0.312726831409347084392,0.12928689,-11.6669445,2.9574378,-0.7305133,-9.77898,-0.0910503941409347084393,0.022744916,-11.251551,3.8235402,-0.63478494,-9.784735,0.162521631409347084406,0.33039984,-10.958859,5.8185086,-0.57154375,-9.778946,0.464663361409347084431,0.91219085,-10.851719,6.3248825,-0.49008802,-9.750596,0.92522571409347084431,0.14664486,-10.547057,5.2157683,-0.3800421,-9.699725,1.39329741409347084433,-1.9063832,-10.270527,2.0482395,-0.3490031,-9.642967,1.74979441409347084444,-3.5655649,-10.828975,-1.0845734,-0.48003072,-9.620523,1.8399681409347084465,-4.481347,-12.37084,-2.8808231,-0.71843326,-9.63881,1.65757971409347084466,-4.6902413,-13.904925,-2.7060466,-0.9890961,-9.669686,1.29970671409347084473,-4.8841715,-14.681245,-1.3808558,-1.2348157,-9.68171,0.95399121409347084493,-5.153519,-15.027805,-2.1206641,-1.4624113,-9.669337,0.731903251409347084494,-5.322909,-14.759056,-2.5767596,-1.6734122,-9.651749,0.462422881409347084513,-6.201581,-14.496891,0.6380547,-1.8770941,-9.623517,0.186572951409347084514,-6.9102645,-14.900913,3.1920695,-2.120991,-9.572853,0.179654551409347084526,-7.0156097,-15.131953,7.2604165,-2.3865483,-9.504802,0.365418551409347084549,-6.2099605,-14.820707,12.170326,-2.6313577,-9.408713,0.8499861409347084549,-4.317344,-14.944009,4.268263,-2.7984998,-9.257788,1.62239371409347084553,-0.7697359,-13.05618,-2.3786395,-2.832177,-9.227432,1.73310281409347084581,-0.7368156,-13.374011,-5.969942,-2.7102597,-9.307081,1.48428291409347084582,-0.9792285,-13.52724,-7.331644,-2.5796714,-9.406157,1.0197441409347084586,-0.89064306,-12.570756,-7.8266454,-2.4238784,-9.490615,0.472675381409347084593,-1.1372458,-11.328165,-7.642292,-2.2834325,-9.536413,-0.1146621561409347084614,-1.371279,-11.926117,-6.8827314,-2.2055476,-9.532313,-0.66403091409347084615,-1.0737995,-13.669695,-5.8358665,-2.1380916,-9.509497,-1.0809331409347084625,-0.092775315,-16.318878,-5.016451,-2.032224,-9.498581,-1.34813021409347084649,1.6011224,-19.440918,-1.780089,-1.8344392,-9.513796,-1.51423971409347084650,4.2676644,-19.608511,4.5046906,-1.5333709,-9.582752,-1.41067351409347084652,8.066066,-19.608511,4.6279917,-1.0908272,-9.702603,-0.916508141409347084681,8.3150625,-18.655022,1.0217255,-0.4507786,-9.78448,-0.4807711409347084682,4.5681367,-14.674661,-2.585738,0.12183804,-9.799886,-0.34316991409347084684,2.8030117,-12.865841,-5.5258174,0.43415496,-9.785629,-0.47259531409347084692,2.7252002,-11.09114,-7.268198,0.6368478,-9.756013,-0.76484751409347084713,3.2513258,-9.49301,-5.389348,0.79493326,-9.706478,-1.15011351409347084714,3.8001966,-8.310274,-3.5314474,0.9407528,-9.657237,-1.42236971409347084725,4.1491513,-7.5321584,-2.6198552,1.1135362,-9.612446,-1.59100381409347084748,4.1371803,-6.8689647,-2.8868086,1.318124,-9.565068,-1.71533271409347084749,2.9508536,-6.4565635,-3.6727054,1.5409305,-9.506478,-1.85008251409347084752,2.0021513,-5.549161,-2.3439236,1.6844951,-9.447989,-2.0170221409347084780,0.712275,-5.3169236,-3.4021606,1.7697406,-9.417962,-2.083371409347084781,1.0666169,-5.583278,-6.293758,1.7352661,-9.38201,-2.26652171409347084784,1.2844892,-5.5623293,-5.791574,1.7132998,-9.268684,-2.7067451409347084794,0.919972,-5.659294,-2.6138697,1.7214322,-9.1529665,-3.07087761409347084812,0.5446809,-5.583877,-0.57041854,1.7053318,-9.130377,-3.1461861409347084813,0.8738836,-4.9823337,-1.389834,1.6317744,-9.175062,-3.05384281409347084826,2.0428526,-3.8402996,-1.7729063,1.5937936,-9.182607,-3.05122351409347084839,2.9562407,-2.8095956,-2.3654714,1.7260158,-9.140213,-3.1060811409347084861,3.9258924,-2.1140802,-2.3588872,2.0062952,-9.03318,-3.24759551409347084862,5.249287,-1.4239515,-2.441487,2.424554,-8.875325,-3.39419251409347084864,6.306926,-0.7086837,-3.7989995,3.0201814,-8.622012,-3.56508781409347084872,7.107786,-0.260968,-5.3875523,3.7354774,-8.191444,-3.88803671409347084890,7.693767,-0.10235212,-6.0411696,4.4772325,-7.5654197,-4.34617231409347084893,7.8715367,-0.62129533,-5.743091,5.179759,-6.819996,-4.77788731409347084923,7.2753806,-2.1505916,-4.0934863,5.7578897,-6.113708,-5.0635671409347084925,6.0327897,-3.9294837,-1.2150574,6.159325,-5.682404,-5.09346961409347084926,3.620033,-6.8222775,5.602432,6.412163,-5.6564083,-4.8020391409347084953,-1.2946646,-12.9484415,18.349161,6.5577383,-6.2668123,-3.72740441409347084954,-13.512875,-19.242798,19.560627,6.6308036,-6.1036,-3.86637851409347084955,-19.589357,-19.608511,14.334684,6.6961784,-5.9507666,-3.98998051409347084975,-19.60911,-19.608511,14.51784,6.6906834,-5.8816237,-4.10020261409347084976,-12.0159,-19.496584,6.535572,6.5516925,-5.8513083,-4.3598111409347084994,-3.8420951,-14.107834,5.7418942,6.380578,-5.810378,-4.65812641409347084995,-3.4392707,-8.696938,7.119757,-2.5917368,-8.755937,3.57587531409347085006,1.9512744,-5.5862713,2.5552118,-2.6950183,-8.63131,3.79575541409347085025,3.667917,-6.256049,1.5370775,-2.3979118,-8.67581,3.89239261409347085026,6.9707184,-11.683105,-0.020949265,-1.9010508,-8.789847,3.91087821409347085061,9.535507,-18.048689,-3.5565867,-1.0301279,-9.075324,3.57039761409347085062,7.450157,-18.474857,-2.5019407,-0.019869946,-9.421958,2.71968871409347085063,0.35553896,-17.378912,6.2327056,0.6048273,-9.56807,2.06315831409347085066,-6.452972,-14.239514,4.349067,0.5564151,-9.530984,2.24078871409347085073,-3.8007953,-9.351153,-8.274361,0.010644656,-9.529965,2.31301161409347085096,0.700304,-9.162011,-7.3442135,-0.2805228,-9.687752,1.49638021409347085097,2.5157075,-8.747814,-5.0942626,-0.20297629,-9.771131,0.808815241409347085104,2.1787236,-9.09258,-3.620033,0.02429536,-9.799858,0.364157141409347085122,3.1669302,-8.617331,-2.6994624,0.20994982,-9.804309,0.0428852031409347085126,4.684854,-7.815273,-1.4167689,0.48677924,-9.791892,-0.228726921409347085141,5.170877,-8.48984,-1.5077485,0.8861419,-9.758847,-0.38736211409347085155,4.7830167,-10.114903,-2.3654714,1.2871909,-9.708792,-0.50290221409347085155,3.9384618,-10.714052,-3.1836896,1.6080097,-9.651137,-0.66351711409347085170,3.0011318,-9.77792,-3.763685,1.828058,-9.595172,-0.872495951409347085173,2.6198552,-8.802881,-3.1070752,1.9575156,-9.541841,-1.13659231409347085189,2.7204118,-8.356961,-2.0679917,2.0460627,-9.497354,-1.33578521409347085204,2.6312277,-8.11395,-1.3371617,2.1426206,-9.461677,-1.43396321409347085205,2.2691047,-8.108562,-0.9552865,2.2329953,-9.435418,-1.46869131409347085220,1.8088194,-8.659229,-0.9187749,2.2921433,-9.421188,-1.468911409347085224,1.2336124,-10.059837,-1.01574,2.2977383,-9.422474,-1.45182851409347085239,0.82240826,-11.412561,-1.1300632,2.2096663,-9.448566,-1.41857561409347085259,0.5614403,-12.2224,-1.2318168,2.0726063,-9.48563,-1.37751409347085259,0.5470751,-11.895591,-0.97025025,1.7461476,-9.567437,-1.25916661409347085265,0.45429978,-10.994773,-0.7332243,1.7461476,-9.567437,-1.25916661409347085273,0.2693477,-10.4488945,-0.9235633,1.6060753,-9.603012,-1.17179451409347085288,-0.20530279,-10.411186,-1.049259,1.4749647,-9.631623,-1.10757841409347085304,-0.48482585,-10.420164,-1.3946224,1.3190196,-9.659189,-1.0633261409347085306,-0.4961983,-9.892242,-1.7579426,1.1504798,-9.679714,-1.07235921409347085320,-0.7703344,-9.221268,-3.3806129,0.9964838,-9.691838,-1.11608851409347085340,-1.839944,-9.7479925,-5.1601033,0.82561433,-9.68101,-1.32921681409347085341,-3.0238767,-10.092757,-6.1662664,0.5619031,-9.643842,-1.6884851409347085355,-3.6577415,-9.654019,-4.6058455,0.20631504,-9.5761595,-2.10356931409347085355,-4.238934,-9.76116,-2.1619642,-0.18454877,-9.5159645,-2.36277841409347085372,-4.4657845,-9.953295,-0.061052144,-0.5967112,-9.485165,-2.41785551409347085373,-3.891775,-10.4010105,0.5835867,-0.9640391,-9.489328,-2.2789591409347085387,-4.020463,-11.009736,0.7870938,-1.2116855,-9.515895,-2.0371491409347085403,-3.6709096,-11.198878,0.3824737,-1.457576,-9.536999,-1.75826871409347085405,-2.8921957,-10.881048,0.36750996,-1.6343085,-9.54744,-1.53161631409347085419,-2.100912,-10.320207,0.9935937,-1.7398244,-9.5563755,-1.34873461409347085439,-1.6765398,-9.72824,1.2521675,-1.777627,-9.575688,-1.14744991409347085440,-1.638831,-9.329605,1.2814964,-1.7718318,-9.597933,-0.95430041409347085452,-2.0841527,-9.811439,1.2024878,-1.7535608,-9.616854,-0.78200381409347085453,-1.8567034,-10.372879,1.6250644,-1.7719846,-9.624835,-0.626923141409347085469,-1.3964181,-10.069414,1.9758149,-1.7543814,-9.638003,-0.448791241409347085473,-1.1683705,-10.068815,2.343325,-1.7166601,-9.651883,-0.254212081409347085493,-1.1821371,-10.173561,2.60549,-1.6724933,-9.662899,-0.039190441409347085494,-1.1031284,-10.101735,2.5384524,-1.6298198,-9.668622,0.178411871409347085507,-1.1647792,-10.005967,2.006341,-1.5816861,-9.671142,0.371050981409347085519,-1.8034325,-10.13705,1.240795,-1.5461569,-9.671283,0.496083141409347085533,-2.1027076,-10.690709,0.9756372,-1.57052,-9.664893,0.54192141409347085534,-1.3455414,-11.186908,1.283292,-1.6095845,-9.658011,0.549972531409347085553,-1.0660183,-11.460445,1.4395138,-1.5656229,-9.66143,0.61316931409347085553,-1.5029601,-12.474988,1.2030864,-1.5004145,-9.665648,0.70312611409347085569,-2.7102363,-13.930662,0.3309984,-1.4580888,-9.666603,0.77533091409347085599,-4.0156746,-14.691421,-0.50397944,-1.4890547,-9.663442,0.755648261409347085600,-5.0308166,-14.565724,-1.1007342,-1.6081808,-9.650788,0.66816351409347085601,-5.786187,-13.9151,-2.0009542,-1.7998549,-9.624641,0.545128051409347085611,-5.774216,-13.330317,-1.8950106,-2.0419846,-9.585146,0.354496751409347085629,-5.5270147,-13.263279,-0.15622166,-2.2643101,-9.54008,0.173680161409347085630,-6.4302273,-14.232332,3.719991,-2.440041,-9.497167,0.142965871409347085634,-7.7667904,-16.185402,9.179968,-2.638723,-9.436226,0.40639821409347085659,-6.095039,-17.314268,14.628572,-2.8434584,-9.33055,1.01290571409347085660,-2.7030537,-16.218323,8.930971,-2.8381429,-9.32938,1.03827231409347085667,-0.8403648,-14.236522,-1.4377182,-2.7725708,-9.131586,2.25773861409347085675,-0.44651863,-13.014282,-4.57113,-2.679733,-9.213298,2.02596641409347085694,-1.2707225,-12.139201,-5.7179523,-2.5368974,-9.338346,1.59054321409347085697,-1.5688007,-11.807006,-5.5641246,-2.450475,-9.425796,1.14887731409347085705,-1.5310919,-11.530476,-5.957971,-2.3665133,-9.492398,0.681465451409347085729,-1.2946646,-11.456255,-5.9867015,-2.3031366,-9.530549,0.185959221409347085730,-1.1210849,-12.145785,-5.49589,-2.2368593,-9.544362,-0.268313681409347085734,-0.76434886,-12.985552,-5.3821654,-2.1459143,-9.548972,-0.61851711409347085761,0.45549688,-14.832678,-4.8745947,-2.024339,-9.551345,-0.91883741409347085762,1.5891514,-18.94412,-3.3446999,-1.8109579,-9.570046,-1.14237261409347085765,3.7924154,-19.608511,0.2184709,-1.5010726,-9.615127,-1.21098391409347085774,7.8116817,-19.608511,2.8616695,-1.0780783,-9.693296,-1.02380181409347085799,7.920019,-19.545065,3.1352072,-0.4362667,-9.772822,-0.687040031409347085800,4.547188,-16.120758,-1.3138182,0.14360972,-9.798178,-0.381399961409347085806,2.7210102,-12.769475,-6.2512608,0.47375354,-9.786466,-0.413572041409347085832,1.7130513,-10.308834,-8.360553,0.6529708,-9.755832,-0.75350481409347085834,1.3269863,-9.5732155,-5.429451,0.7197408,-9.701092,-1.24144451409347085838,1.3006501,-9.276933,-2.1960814,0.75914776,-9.658207,-1.52088921409347085868,2.3953989,-8.558673,-2.0739772,0.7522124,-9.643853,-1.61266211409347085869,3.7044287,-7.1209545,-4.277241,0.8397575,-9.624425,-1.68393221409347085869,2.9293058,-5.9627595,-7.025785,1.0541377,-9.563816,-1.89542151409347085874,1.6502035,-5.181651,-6.0944405,1.2342662,-9.451294,-2.30651761409347085889,0.36990416,-5.112818,-3.9630024,1.3196536,-9.343696,-2.66912581409347085908,0.374094,-4.7800236,-2.9233203,1.2652225,-9.28471,-2.89202211409347085908,0.16879122,-4.6722846,-2.508525,1.2025933,-9.248576,-3.03117281409347085914,1.2773066,-4.425682,-2.493561,1.1387945,-9.221199,-3.1373631409347085937,1.5658079,-3.8480806,-2.0608091,1.1886108,-9.178462,-3.24244281409347085938,2.4480712,-2.677316,-1.7046716,1.2858918,-9.141745,-3.3083811409347085959,3.7588966,-1.4059949,-2.086547,1.5087175,-9.083213,-3.3748221409347085960,4.9069166,-0.5758055,-2.2918496,1.9064505,-8.946081,-3.53602481409347085968,5.687426,-0.35075054,-2.2535424,2.4814594,-8.716589,-3.74617461409347085996,6.3260794,-0.3645172,-2.5366566,3.1875212,-8.398328,-3.93423341409347085997,6.6486983,-0.6997054,-2.9496565,3.9568086,-7.9794383,-4.1039821409347085998,6.485294,-0.9552865,-3.6589386,4.6885605,-7.476363,-4.27689551409347086005,6.2728086,-1.2180501,-4.039018,5.297611,-6.9366207,-4.47090441409347086029,6.241684,-1.453879,-4.0276456,5.775815,-6.412414,-4.6573971409347086030,6.5589156,-2.4408886,-3.690662,6.162793,-5.930223,-4.798211409347086035,6.463746,-4.9302597,-2.267309,6.4740353,-5.5710998,-4.8187241409347086063,4.956596,-9.625888,6.14412,6.660031,-5.557264,-4.575061409347086064,-2.2104468,-18.608334,19.608511,6.736713,-6.3568316,-3.22146031409347086067,-15.076288,-19.608511,18.082209,6.8536425,-6.163106,-3.34874461409347086099,-19.60911,-19.608511,19.284098,6.9911537,-5.946032,-3.45526671409347086100,-19.436129,-19.608511,10.135853,7.1010747,-5.8019085,-3.47605661409347086100,-11.963227,-13.804368,4.3101616,7.070911,-5.742813,-3.63218051409347086106,-9.446322,-8.110358,5.876568,-2.626174,-8.705368,3.67289661409347086135,-4.981137,-6.6588736,5.5587378,-3.3696454,-8.457403,3.64529781409347086136,-0.6194997,-6.989872,2.678513,-3.5860536,-8.315975,3.76233481409347086137,1.3000516,-7.8835077,-0.16340427,-3.3814447,-8.386859,3.79430991409347086160,3.7822402,-8.173804,-1.2000936,-3.0225306,-8.593634,3.6309991409347086161,6.694188,-12.628816,-2.380435,-2.397333,-8.89027,3.37435721409347086166,5.8226986,-16.655863,-3.3925838,-1.4440268,-9.279494,2.82421041409347086187,3.9516299,-14.4370365,-2.1499932,-0.6705046,-9.5564575,2.09640931409347086188,1.3844471,-11.192294,-0.090381116,-0.20561141,-9.666241,1.64070031409347086204,-1.4137762,-11.407174,-0.34117374,-0.05370273,-9.694346,1.47890011409347086220,-0.21667525,-11.562798,-2.2960393,-0.17990796,-9.719039,1.29550161409347086221,1.6861166,-10.110714,-4.1677065,-0.18048762,-9.759128,0.94723641409347086236,1.508347,-10.479421,-2.7114334,-0.003185736,-9.793888,0.50016781409347086236,1.4856021,-10.633847,-0.5722142,0.13826694,-9.803108,0.224388021409347086252,3.0352492,-8.564658,0.004788403,0.27425227,-9.802199,0.10979251409347086254,4.270657,-7.517793,-0.050876785,0.5362581,-9.791924,0.0320288761409347086268,4.525041,-8.063073,-1.228824,0.88544935,-9.766594,0.0078068741409347086283,3.7660792,-9.154829,-2.6276364,1.2550889,-9.725618,-0.086559511409347086286,3.4213142,-9.072827,-3.3997664,1.520778,-9.682788,-0.318217221409347086310,3.1842883,-8.791509,-2.8832173,1.7442514,-9.63124,-0.60597151409347086311,3.0280666,-8.6017685,-2.3636756,1.9187025,-9.581476,-0.82722071409347086314,2.8209682,-8.643666,-2.1290438,2.0639873,-9.535525,-0.99201671409347086337,2.5605986,-8.606557,-1.8058267,2.1783957,-9.495164,-1.12554371409347086339,2.3349452,-8.565256,-1.0965444,2.260236,-9.466001,-1.20687991409347086362,2.2212207,-8.868722,-0.6242881,2.3131027,-9.454296,-1.19843011409347086363,2.0949266,-9.694721,-1.5897499,2.342241,-9.454915,-1.1352831409347086366,1.174356,-12.126033,-2.0548236,2.325333,-9.45374,-1.17897651409347086392,0.66139823,-12.501923,-2.2990322,2.1813977,-9.483417,-1.21519411409347086393,0.047285482,-12.456433,-2.8939912,1.9983996,-9.515731,-1.27580261409347086394,-0.4381389,-11.969811,-3.269881,1.7777965,-9.542732,-1.39503231409347086422,-0.6703765,-11.164762,-2.9747956,1.5404823,-9.560179,-1.54928351409347086423,-0.79248077,-10.231621,-2.7246015,1.3168603,-9.572771,-1.6728111409347086426,-1.0576386,-9.729437,-3.3255463,1.1092912,-9.580538,-1.77570451409347086434,-2.6042929,-10.335769,-2.1200657,0.8993342,-9.573917,-1.92398071409347086461,-3.8253357,-10.943297,-0.43993455,0.5646835,-9.59479,-1.94718741409347086462,-3.7128084,-10.63684,-0.034715924,0.15527254,-9.634829,-1.82108441409347086467,-3.0951042,-9.767744,0.1340753,-0.19899946,-9.659059,-1.68326411409347086495,-2.9287071,-9.173384,-0.33877954,-0.4747772,-9.674086,-1.53526781409347086496,-3.3542767,-9.272144,-0.6368576,-0.7215154,-9.67435,-1.43414841409347086499,-3.5224693,-9.317635,-0.22864626,-0.9794677,-9.661717,-1.36464061409347086519,-3.165733,-9.094974,0.12988544,-1.2283851,-9.647143,-1.26257551409347086519,-2.72939,-9.22426,0.20350714,-1.424483,-9.635301,-1.14114991409347086534,-2.8532898,-9.595362,0.18375498,-1.5751575,-9.625529,-1.01905021409347086534,-2.468422,-9.072228,0.6572084,-1.7157547,-9.612551,-0.90855981409347086552,-2.0901382,-8.764574,1.1031284,-1.8037884,-9.6079855,-0.77675541409347086554,-2.2385786,-9.387066,1.4012065,-1.8432863,-9.610894,-0.63513861409347086570,-2.180519,-10.3214035,1.6837224,-1.8745586,-9.613478,-0.48732411409347086587,-1.8189948,-10.988788,1.769315,-1.8788974,-9.619494,-0.32482411409347086588,-1.3401544,-11.286267,1.7172412,-1.845851,-9.630083,-0.157314141409347086619,-0.94690675,-11.112687,1.7238252,-1.7766283,-9.644361,-0.0166641341409347086621,-0.6805518,-10.62008,1.8082209,-1.6867675,-9.659864,0.1106950041409347086622,-0.6919243,-10.506954,1.9835961,-1.5867782,-9.6746025,0.233673741409347086642,-0.8038532,-10.480618,2.112883,-1.4955592,-9.685208,0.36113691409347086643,-0.87927055,-10.489596,1.857302,-1.4225503,-9.690698,0.486958181409347086648,-0.98461545,-10.612898,1.3491327,-1.3673563,-9.69343,0.581468941409347086657,-1.216853,-10.697892,1.1109096,-1.3313255,-9.695875,0.622872351409347086671,-1.1264719,-11.077373,1.3796587,-1.3179338,-9.696824,0.63643211409347086685,-1.38325,-12.3277445,2.256535,-1.2956173,-9.696402,0.686695751409347086689,-2.0392613,-14.146739,2.9801826,-1.2863333,-9.6872015,0.82086871409347086708,-3.2962172,-14.932037,1.7818847,-1.3095448,-9.665611,1.01558921409347086709,-4.5232453,-14.436438,-0.7158663,-1.4111607,-9.64254,1.09563841409347086714,-4.421492,-14.100053,-1.3132197,-1.5882871,-9.629492,0.959474561409347086736,-4.0857053,-14.500483,-0.1376666,-1.7341532,-9.6207905,0.776836631409347086737,-4.5136685,-15.181034,0.90859956,-1.835089,-9.608143,0.697453261409347086755,-6.0567317,-16.80969,2.4612393,-1.9470906,-9.58649,0.691713871409347086756,-7.1047935,-18.492813,5.722142,-2.1312294,-9.538499,0.80329381409347086767,-6.564901,-18.33719,9.662399,-2.3303208,-9.461269,1.10652221409347086791,-5.385158,-16.180016,11.1174755,-2.4669104,-9.35473,1.60429931409347086791,-3.554791,-13.611036,4.0581717,-2.5633042,-9.2208,2.13931871409347086794,-2.367267,-12.958018,1.4221559,-2.6242123,-9.172694,2.26839281409347086830,-2.5671828,-12.651561,-1.2090719,-2.6060202,-9.174956,2.28018021409347086832,-0.5781997,-13.184869,-8.023568,-2.5667598,-9.234079,2.07699681409347086833,-0.15143326,-10.361506,-8.670003,-2.4239814,-9.40047,1.38777361409347086835,-0.51235914,-10.2735195,-7.6967597,-2.3127246,-9.507675,0.6525551409347086859,-0.7697359,-11.37186,-6.71813,-2.2112186,-9.554071,0.0246183091409347086859,-0.008379706,-12.582727,-6.4338183,-2.1000156,-9.568678,-0.447993371409347086868,1.1115081,-15.536573,-4.408922,-1.9376794,-9.576536,-0.840080141409347086886,2.1679497,-19.378668,-0.32022446,-1.6869487,-9.605754,-1.02668341409347086887,4.751293,-19.608511,3.2076318,-1.3475449,-9.673444,-0.88261351409347086901,6.4900823,-19.608511,3.0550013,-0.86190516,-9.753996,-0.53578971409347086922,4.2622776,-16.864159,-1.4101849,-0.32200506,-9.79825,-0.246977451409347086923,1.2054806,-12.589311,-5.448006,-0.002812135,-9.801845,-0.306951171409347086928,0.08259996,-10.894217,-7.1305313,0.11488222,-9.784399,-0.650198761409347086934,0.2633622,-9.773131,-7.08145,0.16402188,-9.745714,-1.07913971409347086955,1.3545196,-8.644265,-5.1463366,0.18936281,-9.690095,-1.49552971409347086956,2.8766334,-7.5746555,-3.393781,0.25014606,-9.641761,-1.77321271409347086966,3.657143,-6.989872,-2.9508536,0.42050216,-9.608089,-1.9178521409347086994,3.3435028,-6.2482677,-2.4127567,0.6483571,-9.569508,-2.04317761409347086995,1.6663644,-5.731719,-2.9622262,0.8625985,-9.533808,-2.12903931409347086996,2.7012582,-5.3995233,-4.368221,0.9490204,-9.496798,-2.25401231409347087022,2.7527335,-5.8891377,-4.0719385,1.1252745,-9.416994,-2.49487451409347087023,2.0231004,-5.9250507,-2.2876596,1.3067719,-9.339574,-2.68981271409347087026,1.2826935,-5.5946507,-1.6950948,1.4194236,-9.30633,-2.747341409347087035,0.94690675,-4.9961004,-1.9937714,1.4368656,-9.29519,-2.77583841409347087055,1.2036849,-4.1042604,-2.7144263,1.4315916,-9.275231,-2.8444761409347087055,2.1936872,-3.2106245,-2.5390508,1.456986,-9.221414,-3.0021851409347087067,3.3237505,-2.392406,-2.4558525,1.6244771,-9.141864,-3.15560171409347087089,4.297592,-1.6777369,-2.7688942,1.9514419,-9.017062,-3.32488271409347087090,5.3558292,-1.5741876,-2.7766755,2.422486,-8.8136635,-3.55264641409347087095,6.239888,-1.3293805,-2.303222,3.034386,-8.534716,-3.7578611409347087129,6.823475,-1.0893618,-2.3038206,3.7627394,-8.186912,-3.87126231409347087130,7.1131735,-0.5979519,-3.1663318,4.519959,-7.76056,-3.93878671409347087131,6.8492126,-0.7637503,-3.626617,5.2401295,-7.19768,-4.11154561409347087135,6.2285156,-1.678934,-3.3123782,5.8246446,-6.622553,-4.28785231409347087162,4.996699,-3.016694,-2.3529017,6.229377,-6.183098,-4.3743111409347087163,3.3794158,-5.16968,-0.7793127,6.4293237,-6.0029263,-4.33578631409347087169,1.745373,-8.987833,3.7152026,6.3928037,-6.206208,-4.0971409347087193,-5.539584,-17.996017,18.162415,6.092975,-6.9899864,-3.19157841409347087194,-18.086996,-19.608511,19.608511,6.205796,-6.8053155,-3.36840921409347087195,-19.60911,-19.608511,19.22484,6.3101563,-6.6191516,-3.54106931409347087225,-18.98542,-19.592352,9.989208,6.355994,-6.503991,-3.67013171409347087226,-13.569139,-13.43207,6.1129956,6.255922,-6.470781,-3.89394571409347087229,-8.634089,-8.426393,7.48607,-3.4267669,-8.406483,3.70927261409347087235,-2.8802247,-7.234679,4.382586,-3.8789387,-8.15687,3.81964781409347087259,0.83617496,-7.1353197,-0.06344634,-3.8485718,-8.122756,3.92169641409347087262,3.378817,-7.3071036,-1.4443022,-3.5201085,-8.323876,3.80687791409347087267,5.9106855,-10.427347,0.09816227,-2.9793706,-8.641262,3.5527931409347087289,5.7664347,-16.486473,-2.2703018,-2.114783,-8.991159,3.29501941409347087291,3.6194344,-14.488512,-2.3720553,-1.2402669,-9.359807,2.65068981409347087295,0.9103952,-12.524069,-0.60932434,-0.73770356,-9.543977,2.13042621409347087327,-1.7280151,-13.441647,1.0199299,-0.57317203,-9.608653,1.87500771409347087328,-0.29688102,-11.271901,-2.2056582,-0.6522325,-9.625728,1.75794611409347087329,1.2252327,-8.37372,-3.5110967,-0.60723215,-9.689803,1.38180391409347087335,1.7615339,-7.630321,-2.291251,-0.45804474,-9.74945,0.953335941409347087359,2.1859062,-7.5112095,-1.2120646,-0.27047738,-9.780511,0.66246791409347087360,2.8538885,-6.6403184,-0.49799395,-0.05952442,-9.79422,0.489987761409347087368,3.506907,-6.5816603,-0.16280572,0.2225887,-9.796915,0.375923571409347087389,3.6373909,-7.752425,-0.61171854,0.567592,-9.785187,0.313608861409347087390,3.4129345,-8.810063,-1.4347254,0.90692586,-9.761843,0.23304071409347087395,3.5805287,-8.5143795,-1.3060371,1.195914,-9.733161,0.075789111409347087422,3.7367504,-8.245032,-1.0546459,1.475095,-9.694925,-0.0541080241409347087423,3.6032736,-8.723274,-1.1001357,1.7399156,-9.649941,-0.147249831409347087427,3.1238346,-9.347562,-1.1168951,1.9587095,-9.606185,-0.23468321409347087436,2.4474726,-9.859323,-1.1216835,2.1073947,-9.572342,-0.315527261409347087457,1.9339164,-10.068216,-1.2228385,2.1710057,-9.555425,-0.388563281409347087458,1.7818847,-10.324396,-1.1474211,2.1723738,-9.551593,-0.467209521409347087470,1.4927847,-11.358691,-1.3084313,2.1452084,-9.554337,-0.532114271409347087490,0.801459,-12.720992,-1.5448587,2.0670946,-9.567375,-0.60239421409347087491,-0.059855044,-13.319543,-1.6112977,1.9076836,-9.595123,-0.68173431409347087495,-0.75477207,-12.724584,-1.4305356,1.6812787,-9.632401,-0.74868721409347087530,-1.0893618,-11.2605295,-1.3964181,1.4251188,-9.670349,-0.78980131409347087531,-1.2449849,-10.011953,-1.7465701,1.174623,-9.701324,-0.82155081409347087532,-1.2419921,-9.087791,-2.4355016,0.9372119,-9.722389,-0.87588621409347087536,-0.52133745,-8.085817,-4.920683,0.7263081,-9.729254,-0.9922161409347087554,0.6655881,-7.7889366,-8.883087,0.60342807,-9.6934,-1.35802561409347087555,-1.5286977,-9.238626,-7.2047515,0.5977248,-9.562413,-2.09126161409347087567,-3.426701,-9.637859,-4.3861775,0.37478033,-9.45539,-2.57401231409347087582,-3.6834793,-9.613318,-4.2898107,0.017401364,-9.394193,-2.81411651409347087608,-2.8927941,-9.382876,-3.1717186,-0.352194,-9.315415,-3.0445671409347087610,-2.4378958,-9.376891,-0.1340753,-0.6175802,-9.281055,-3.10660121409347087610,-2.7724855,-9.914988,0.31004912,-0.813646,-9.3472185,-2.8526921409347087617,-3.3075895,-10.766127,-0.1352724,-1.0077351,-9.417662,-2.54214721409347087638,-2.9825768,-11.01273,-0.022146367,-1.2091206,-9.46379,-2.26827881409347087639,-1.9195513,-10.563218,0.3369839,-1.3536853,-9.49736,-2.03422571409347087648,-1.198298,-10.791864,-0.092176765,-1.3908336,-9.53566,-1.8185541409347087661,-0.96546185,-11.373655,-0.70509243,-1.3686668,-9.565986,-1.67005921409347087682,-1.127669,-11.652579,-0.5057751,-1.3082783,-9.587938,-1.59067931409347087683,-1.4580688,-11.764508,0.24600422,-1.2589723,-9.607214,-1.51223241409347087697,-1.697489,-12.194268,1.0247183,-1.2459236,-9.62765,-1.38794841409347087698,-1.5795746,-12.549807,2.32058,-1.2606031,-9.649967,-1.20804191409347087720,-1.0845734,-12.395381,3.6990416,-1.2713401,-9.6790085,-0.933192731409347087721,-0.25139117,-11.869853,5.3265004,-1.2356778,-9.711961,-0.566826641409347087728,-0.10534488,-11.495759,6.9383965,-1.1591215,-9.737033,-0.130373521409347087755,1.0289081,-10.71525,9.920973,-1.0782799,-9.739421,0.389085831409347087755,0.8319851,-11.263522,9.150041,-0.9120593,-9.695865,1.15272451409347087756,0.12449849,-11.371261,6.3589997,-0.7830685,-9.60715,1.80549991409347087782,-1.8710686,-11.030087,1.5089456,-0.73365563,-9.528679,2.19918421409347087783,-3.6463692,-11.757924,-4.1018662,-0.855003,-9.516193,2.20939681409347087798,-5.006874,-13.412916,-7.835025,-1.0727123,-9.582849,1.78569451409347087799,-5.395932,-14.841657,-7.373543,-1.3180171,-9.665953,1.00128891409347087820,-4.8494554,-15.062521,-4.7494974,-1.5540838,-9.675122,0.383691881409347087821,-4.3065705,-14.565126,-2.7641058,-1.7060773,-9.657107,0.0024731121409347087829,-3.537433,-13.623008,-2.3493104,-1.815392,-9.633905,-0.250184151409347087854,-4.7500963,-13.5296335,0.6913257,-1.8880174,-9.612556,-0.45225511409347087856,-5.679645,-14.824897,4.396951,-2.045721,-9.583992,-0.364057181409347087857,-5.7179523,-15.932215,8.160637,-2.2152083,-9.553179,-0.0030552961409347087870,-4.982932,-15.835849,10.418368,-2.335882,-9.507435,0.568100331409347087903,-4.0037036,-15.635933,8.684967,-2.399773,-9.426706,1.24445651409347087904,-3.264494,-14.884752,3.90614,-2.4309912,-9.343215,1.7219181409347087905,-2.747945,-13.565547,0.45489833,-2.4650686,-9.308819,1.85464761409347087908,-2.8209682,-12.698247,-0.1604115,-2.4970407,-9.314079,1.78412331409347087916,-2.3882163,-12.864644,-1.6035166,-2.520783,-9.324997,1.69129251409347087941,-1.1306617,-13.3943615,-4.3538556,-2.487696,-9.37002,1.47799521409347087942,-0.4818331,-12.000936,-6.8611836,-2.3746731,-9.456756,1.04933891409347087949,0.029927522,-11.219229,-6.8958993,-2.2386746,-9.535533,0.482005541409347087973,-0.16699557,-12.075755,-6.4062853,-2.0945206,-9.580112,-0.069212651409347087974,0.39145198,-13.690045,-5.645528,-1.944825,-9.597726,-0.52120821409347087981,1.553837,-17.56925,-4.3819876,-1.7533877,-9.6106825,-0.85489481409347088010,3.4380736,-19.608511,-0.10594343,-1.4734429,-9.640616,-1.02851951409347088011,6.9371996,-19.608511,5.057751,-1.0892893,-9.707019,-0.870404541409347088012,8.672397,-19.322405,3.7565024,-0.5112497,-9.785374,-0.394338341409347088016,5.0463786,-14.609419,-1.0827777,0.107775606,-9.805666,-0.0876332741409347088044,1.2042835,-12.176909,-5.93343,0.42424235,-9.796605,-0.130144391409347088045,-0.6937199,-10.823587,-9.188348,0.5244795,-9.78058,-0.485358921409347088048,-0.020350715,-9.690532,-6.806117,0.49378875,-9.738007,-1.04775261409347088071,1.8255788,-8.917204,-3.6607344,0.46105626,-9.687648,-1.45165071409347088073,3.1944637,-8.292317,-4.7979803,0.522646,-9.654418,-1.63995981409347088076,2.5677812,-7.0329676,-5.789778,0.6847144,-9.598318,-1.89046251409347088102,1.1869255,-6.0507464,-6.9665284,0.8191929,-9.520844,-2.20291571409347088103,1.8303672,-5.6323595,-5.931036,0.8548823,-9.412845,-2.6149471409347088108,2.9783869,-5.9837084,-1.4431051,0.9527245,-9.303363,-2.95130251409347088116,2.8461072,-6.0489507,-0.81761986,1.1594939,-9.289004,-2.9223911409347088140,2.521693,-5.503671,-0.99658644,1.3467678,-9.289742,-2.83854251409347088141,2.100912,-4.944625,-1.4616601,1.4867126,-9.285686,-2.78138851409347088148,2.4103625,-4.07553,-1.6687586,1.5943227,-9.266598,-2.78545021409347088166,2.7030537,-3.4488475,-1.9829975,1.7567519,-9.223589,-2.83012581409347088191,2.7156234,-3.3147724,-2.9167361,1.9651965,-9.152351,-2.92282341409347088192,3.1346085,-3.1310172,-2.919729,2.1680713,-9.03997,-3.12231331409347088193,3.6290112,-2.8048072,-3.2728736,2.4315712,-8.90119,-3.3206461409347088196,5.810129,-1.9357121,-2.3517046,2.7575922,-8.713726,-3.55486581409347088214,6.5098343,-1.198298,-3.0723593,3.3874485,-8.438853,-3.67169761409347088216,6.8366427,-0.95588505,-3.8414967,4.088632,-8.030606,-3.86818891409347088229,6.758233,-1.0271125,-4.5902834,4.7667637,-7.5152946,-4.11930661409347088245,6.6247563,-1.3126211,-4.252701,5.337863,-6.947315,-4.40595251409347088249,6.302736,-2.5474305,-3.3363202,5.7997136,-6.4404106,-4.5885511409347088259,5.644929,-5.1900306,-2.007538,6.138572,-6.097093,-4.61668731409347088280,1.6065093,-12.356475,9.21229,6.2837524,-6.099088,-4.4142951409347088281,-14.25388,-19.608511,19.570204,5.9742208,-7.274287,-2.75024271409347088299,-18.612524,-19.608511,13.224373,6.1263447,-7.072191,-2.93638781409347088300,-19.60911,-19.608511,14.465168,6.283638,-6.871345,-3.07748631409347088318,-18.19773,-18.23364,5.8693852,6.3378515,-6.7815104,-3.1643621409347088319,-10.086772,-9.629479,4.709395,6.2448916,-6.746957,-3.41324951409347088328,-8.172607,-6.5271926,7.3753386,-3.5474322,-8.689197,2.84323621409347088350,-4.581305,-5.925649,6.704962,-3.9971023,-8.387681,3.13693331409347088351,-0.7206547,-6.7708025,3.7565024,-4.1306314,-8.223731,3.38799641409347088356,4.76506,-9.096769,-0.6859388,-3.9178445,-8.263268,3.54108451409347088392,9.433753,-18.094778,-3.0400376,-3.222916,-8.627036,3.3700811409347088393,10.165182,-19.363705,-1.9494787,-1.913968,-9.221944,2.73182851409347088394,7.1808095,-13.779828,-0.59136784,-0.6924711,-9.53914,2.1669531409347088396,2.967613,-10.447099,1.5628152,0.028860623,-9.626571,1.87047591409347088418,0.34237084,-11.455058,1.6232687,0.30659837,-9.626082,1.84795311409347088419,0.7386112,-10.422559,-2.2457612,0.31265002,-9.634676,1.80156491409347088430,1.5089456,-9.589376,-4.6860514,0.34556693,-9.695859,1.42873871409347088450,2.1152773,-8.858546,-4.211401,0.44507572,-9.754945,0.901850041409347088451,2.6390088,-8.528147,-3.318962,0.60141486,-9.776645,0.475317421409347088456,3.256713,-8.6299,-2.4390929,0.8027621,-9.772853,0.131723181409347088491,3.1794999,-9.020155,-2.1799207,1.052062,-9.749199,-0.129167651409347088492,2.5767596,-9.528923,-2.469619,1.2701263,-9.718551,-0.327002021409347088493,2.2104468,-9.354146,-2.6755204,1.4209436,-9.6886215,-0.530988451409347088496,2.19668,-8.136695,-2.545635,1.5281616,-9.658683,-0.73819271409347088515,2.2774844,-7.4848733,-1.8644845,1.6253041,-9.626152,-0.93059921409347088537,2.1775265,-7.864354,-1.1348516,1.7251091,-9.596345,-1.05098091409347088538,2.0530279,-8.525154,-0.6003461,1.8134241,-9.576291,-1.08468441409347088539,1.7651252,-9.222465,-0.54887074,1.8847358,-9.56595,-1.05393331409347088549,1.3180081,-10.076596,-0.5859809,1.900385,-9.567179,-1.01391821409347088562,0.7787141,-11.30123,-0.7080852,1.8707119,-9.577608,-0.969672741409347088579,0.46627077,-12.267291,-0.6979098,1.7675126,-9.601236,-0.9287341409347088579,0.28550854,-12.730569,-0.93254155,1.6268519,-9.630982,-0.87631051409347088594,-0.049081136,-12.743138,-1.8477252,1.4707065,-9.659291,-0.83994981409347088596,0.27473465,-11.8578825,-3.5284548,1.2983514,-9.680346,-0.88068571409347088617,0.7787141,-10.85531,-5.1439424,1.1780457,-9.676657,-1.071409347088618,0.6452374,-10.100538,-7.454347,1.118203,-9.641207,-1.40255151409347088628,-1.2198458,-10.234613,-6.157288,1.0484525,-9.557199,-1.93160931409347088650,-1.9069817,-10.075998,-3.2680852,0.8236231,-9.492243,-2.3214921409347088651,-1.8363527,-9.405622,-1.620276,0.5525312,-9.470797,-2.48376441409347088656,-2.8921957,-8.46889,-0.62847793,0.3167973,-9.477241,-2.50038481409347088688,-2.4061728,-7.9421654,-0.50757074,0.015119097,-9.507864,-2.4022261409347088689,-2.268506,-8.297705,-0.009576807,-0.2121322,-9.535748,-2.27923921409347088690,-2.3421278,-9.006987,0.012569559,-0.41055357,-9.572577,-2.0898711409347088696,-2.0901382,-9.959281,-0.21188685,-0.5967384,-9.601838,-1.90235341409347088714,-1.7142484,-10.740988,-0.22804771,-0.7394155,-9.625455,-1.72460731409347088730,-1.5448587,-10.955269,-0.12270284,-0.83071506,-9.646016,-1.5603351409347088732,-1.553837,-10.832565,0.031124622,-0.9010138,-9.66271,-1.41089441409347088746,-1.6591818,-10.534488,0.25917232,-0.962619,-9.675489,-1.27620481409347088758,-1.7537527,-10.296265,0.5979519,-1.0208912,-9.685914,-1.14509941409347088759,-2.0147207,-10.4249525,0.92176765,-1.0757141,-9.695375,-1.00644031409347088777,-2.1380222,-10.605117,1.1252748,-1.1453937,-9.701695,-0.857647361409347088778,-1.8423382,-10.502166,1.340753,-1.2211121,-9.705376,-0.69639941409347088791,-1.7124528,-10.644621,1.7980455,-1.263959,-9.70954,-0.54559391409347088796,-1.7178397,-10.923545,2.4636335,-1.2957436,-9.71372,-0.367507041409347088811,-1.6089035,-11.088745,3.0358477,-1.3249972,-9.71573,-0.139130231409347088834,-1.1282675,-10.948685,3.6433764,-1.3389994,-9.714089,0.1181482451409347088835,-1.4514848,-10.954071,3.235165,-1.3164508,-9.709593,0.401407571409347088838,-1.4329298,-10.830172,2.392406,-1.3342601,-9.696733,0.60291271409347088862,-0.99778354,-10.694301,3.2172086,-1.347529,-9.687815,0.707659071409347088863,-0.11192893,-10.38485,4.5142674,-1.3247327,-9.676703,0.88141811409347088888,0.22146365,-10.284293,5.1613,-1.2336255,-9.657583,1.17458621409347088889,-0.9636662,-11.81359,3.8247373,-1.1172146,-9.621448,1.53296361409347088891,-2.3558946,-13.573328,0.16639702,-1.0855331,-9.587041,1.75518431409347088898,-3.4745853,-14.374787,-3.0867245,-1.1404572,-9.598354,1.65569511409347088910,-4.5765166,-14.4130945,-5.3474493,-1.2647011,-9.63589,1.3116971409347088926,-5.3767786,-14.293385,-3.870227,-1.4564497,-9.665485,0.79216981409347088928,-5.2026005,-14.258668,-1.1127052,-1.6948019,-9.649969,0.419707781409347088944,-5.233725,-13.98154,0.39444473,-1.8858556,-9.620311,0.252121841409347088948,-6.055535,-14.635157,1.0462662,-2.0646296,-9.584014,0.233242361409347088959,-6.4487824,-15.828666,2.9735985,-2.2808886,-9.533148,0.295014051409347088977,-5.773019,-16.918028,6.8665705,-2.470893,-9.477705,0.488066431409347088978,-4.563947,-17.201141,10.2974615,-2.56062,-9.423649,0.89913381409347089000,-3.233968,-15.287577,10.027515,-2.5732877,-9.348015,1.47079041409347089001,-1.893215,-13.311762,3.9366663,-2.5440476,-9.266496,1.95710791409347089008,-1.5460558,-12.12723,-0.8984242,-2.502052,-9.245669,2.10421511409347089037,-1.584363,-11.654974,-3.5859156,-2.469205,-9.283193,1.9737611409347089038,-1.0007763,-11.911752,-5.4659624,-2.4156587,-9.358721,1.65810451409347089039,-0.20290859,-11.51192,-6.265626,-2.314965,-9.458619,1.16011121409347089067,0.074818805,-10.972028,-6.2859764,-2.1808853,-9.54244,0.596623841409347089068,-0.22804771,-12.0093155,-5.8933277,-2.0326738,-9.593327,0.082038231409347089070,-0.0724246,-13.073539,-6.019622,-1.8894259,-9.616624,-0.347818581409347089077,0.89303726,-15.378556,-5.0613422,-1.7414306,-9.62276,-0.735040961409347089103,2.088941,-19.203892,-0.973243,-1.5150704,-9.635979,-1.01137841409347089104,4.209007,-19.608511,4.542998,-1.2058618,-9.688469,-0.92186351409347089109,7.1951747,-19.608511,5.473145,-0.77789897,-9.764967,-0.45900811409347089129,3.6733038,-13.03583,-3.5583823,-0.20110272,-9.804588,-0.0011222821409347089129,1.5239093,-10.837953,-6.963536,0.07721359,-9.80395,-0.216707411409347089154,0.6194997,-9.412804,-7.9984293,0.22120939,-9.781798,-0.661718551409347089155,0.6242881,-8.668207,-5.561132,0.291027,-9.733241,-1.16177361409347089157,1.8142064,-8.106767,-2.8568811,0.32319728,-9.686232,-1.4976131409347089187,1.9458874,-8.293514,-4.9374423,0.42429802,-9.659785,-1.63674721409347089188,1.447295,-7.3047094,-4.7884035,0.5210258,-9.602298,-1.92218571409347089191,0.83737206,-5.427655,-6.002862,0.5803886,-9.54332,-2.1814251409347089197,1.7579426,-4.845266,-5.663484,0.61230505,-9.446555,-2.5608781409347089214,3.0214825,-5.5946507,-3.5326445,0.73887056,-9.335084,-2.91215781409347089217,2.6420016,-5.6880245,-2.3259668,0.9852548,-9.270515,-3.0425681409347089229,1.8010383,-5.337274,-1.5699978,1.1791441,-9.237599,-3.07356121409347089244,1.2988545,-5.026028,-0.7074866,1.2834321,-9.224067,-3.07242421409347089265,1.3263878,-4.673482,-0.4973954,1.3093086,-9.2411375,-3.00956181409347089266,1.7663223,-4.4023385,-1.1851299,1.3506092,-9.260889,-2.92953971409347089271,2.420538,-4.0138793,-1.5598224,1.4629172,-9.248226,-2.91557361409347089277,3.0992942,-3.5805287,-1.809418,1.6692398,-9.20458,-2.9427381409347089300,3.9336734,-3.1543608,-1.7328035,1.97247,-9.123697,-3.00631121409347089301,4.7058034,-2.8766334,-1.9560628,2.3880289,-9.004306,-3.06434251409347089309,5.501277,-2.5157075,-2.4313118,2.893076,-8.825461,-3.14829161409347089333,6.137536,-1.9446903,-3.4452562,3.4838157,-8.5558605,-3.2909941409347089335,6.5469446,-1.6579847,-4.0946836,4.1276155,-8.157256,-3.54857161409347089337,6.297349,-1.7190368,-4.2544966,4.7578173,-7.6635733,-3.84749561409347089373,5.8999114,-2.1637597,-4.297592,5.277137,-7.164199,-4.1226791409347089374,5.4162827,-3.3979707,-3.6074634,5.653702,-6.719894,-4.36452671409347089375,4.079121,-6.655282,-1.7932571,5.88159,-6.4563365,-4.46015641409347089377,-0.7278373,-14.035409,9.466075,5.8246098,-6.6546626,-4.2378941409347089402,-15.832257,-19.608511,19.591154,5.152262,-7.961716,-2.49712541409347089403,-19.560627,-19.608511,17.056293,5.3060102,-7.7872252,-2.71584081409347089409,-19.60911,-19.608511,15.3528185,5.4341793,-7.639585,-2.87695311409347089428,-17.68058,-17.791313,6.7480574,5.443896,-7.585943,-2.997981409347089428,-8.640674,-9.396643,4.6399627,5.3513846,-7.574495,-3.1874891409347089444,-7.4806833,-7.41185,6.747459,-3.7992718,-8.479063,3.13710451409347089460,-3.750517,-7.821857,5.4085016,-4.13043,-8.260036,3.29874941409347089460,0.3752911,-7.495647,1.3066356,-4.099294,-8.206794,3.4662251409347089479,3.3207579,-7.711125,-1.2018893,-3.8029504,-8.357733,3.44329121409347089479,5.9226565,-10.395025,-2.5378537,-3.2540643,-8.655498,3.26555131409347089494,6.612785,-15.020623,-2.5396495,-2.3978364,-9.071485,2.85112831409347089497,5.6245785,-15.18702,-2.7802668,-1.4490532,-9.4248495,2.28972551409347089511,4.4304705,-12.68867,-2.0470424,-0.7219211,-9.619384,1.76541341409347089524,3.6128504,-12.039842,-1.3204023,-0.22775976,-9.70169,1.41271051409347089529,2.1092918,-12.486361,0.36032736,0.122041374,-9.737935,1.15245091409347089558,0.9528923,-11.815386,-0.40102878,0.29332134,-9.746248,1.04641871409347089559,1.6412252,-10.63684,-1.5873557,0.34848845,-9.761587,0.871996761409347089561,2.0811598,-10.081984,-1.9692309,0.45787627,-9.776391,0.618800041409347089605,2.7814639,-9.179968,-0.9516952,0.5852902,-9.782055,0.37313191409347089606,3.1358056,-8.546701,-0.9032126,0.7808638,-9.772226,0.253423571409347089615,3.277662,-9.279327,-0.92535895,1.0148613,-9.752758,0.155521991409347089635,3.4045548,-9.578004,-1.0785879,1.2421427,-9.72749,0.0585755261409347089639,3.2531216,-9.187749,-1.4867992,1.4536612,-9.698201,-0.0463747981409347089640,2.7700913,-8.772355,-1.5999253,1.644181,-9.666061,-0.185393971409347089641,2.244564,-8.775348,-1.5957354,1.7805343,-9.638154,-0.325660531409347089642,1.8710686,-8.903438,-1.4341269,1.861783,-9.617594,-0.453953741409347089654,1.4526819,-8.987833,-1.1444284,1.9036046,-9.6042185,-0.552902161409347089657,0.99179804,-9.269152,-0.75477207,1.8997866,-9.601341,-0.61274491409347089675,0.6925228,-10.052056,-0.6488287,1.8438406,-9.61149,-0.62439511409347089677,0.46567222,-11.095928,-0.7787141,1.7432039,-9.63019,-0.62538411409347089691,-0.260968,-12.161946,-1.0726024,1.6209272,-9.652073,-0.616831361409347089707,-1.1055226,-12.299014,-1.4496891,1.4273717,-9.681885,-0.62779991409347089709,-1.7926586,-11.210251,-1.3982137,1.1778911,-9.713113,-0.662098471409347089722,-2.3983915,-10.302849,-1.6106992,0.90133256,-9.741294,-0.682028351409347089729,-2.6641479,-9.835979,-2.248754,0.5906349,-9.762415,-0.718883041409347089741,-2.0147207,-9.272144,-4.031237,0.2729384,-9.768399,-0.82112931409347089758,0.9756372,-8.562862,-10.90918,0.03078728,-9.744205,-1.10449621409347089759,-1.9309237,-10.493188,-16.329054,0.081502885,-9.5956545,-2.02167491409347089788,-5.625177,-11.385028,-7.467515,-0.16197102,-9.256398,-3.23469521409347089789,-4.231153,-9.445126,-1.3760674,-0.6640112,-9.108923,-3.57170181409347089790,-2.8113914,-7.952341,1.7597382,-1.0026882,-9.083613,-3.55710151409347089808,-2.1619642,-7.805696,2.835932,-1.2257775,-9.162638,-3.2732151409347089810,-2.2218192,-8.581417,2.309806,-1.358964,-9.303462,-2.78733351409347089822,-2.3995886,-10.191518,0.97743285,-1.4430245,-9.420781,-2.3101851409347089829,-2.180519,-11.471219,0.2777274,-1.5068146,-9.484241,-1.98722361409347089843,-1.4987702,-11.81778,0.23523031,-1.5334722,-9.531563,-1.72283331409347089858,-1.0175357,-11.62744,0.2705448,-1.491352,-9.573801,-1.51281871409347089859,-1.0630256,-11.250354,0.01316811,-1.421209,-9.610059,-1.34065131409347089874,-1.0384849,-11.351509,-0.2148796,-1.3657858,-9.633699,-1.22346571409347089877,-1.1671734,-11.841722,-0.16280572,-1.3071678,-9.650882,-1.14989021409347089893,-1.2934675,-12.481572,0.38307226,-1.2633911,-9.66396,-1.08724521409347089906,-1.1252748,-13.040618,1.38325,-1.2360125,-9.6778965,-0.990468261409347089909,-0.20829555,-12.949638,2.9161377,-1.1941259,-9.700528,-0.802629231409347089925,0.2220622,-12.604874,4.9039235,-1.0963705,-9.730237,-0.539293941409347089940,0.5793968,-11.832744,7.469909,-0.98793435,-9.755376,-0.16429041409347089940,1.1917139,-11.054627,10.557831,-0.86461425,-9.761158,0.377654341409347089960,1.5891514,-10.821792,14.247894,-0.70859605,-9.711547,1.16366971409347089961,0.4950012,-11.404779,16.2692,-0.561426,-9.537831,2.21020051409347089973,-2.3409307,-11.011532,5.595848,-0.5603183,-9.21926,3.2957051409347089977,-3.9019501,-10.398018,-4.9039235,-0.7695,-9.145231,3.45586511409347089991,-4.502895,-11.2312,-10.532692,-1.0190716,-9.272512,3.02528981409347090006,-4.791396,-13.597869,-11.071387,-1.2376091,-9.499976,2.09503751409347090009,-4.270657,-15.113399,-7.053318,-1.3966049,-9.654837,1.00199681409347090024,-4.1078515,-15.379753,-4.03004,-1.5039868,-9.686908,0.26876491409347090039,-5.309142,-13.435661,0.81343,-1.6219486,-9.670431,-0.149749831409347090040,-4.519056,-13.338098,4.43885,-1.8497125,-9.629728,-0.131443191409347090057,-3.9797618,-14.03481,8.32404,-1.9790444,-9.603376,0.170009361409347090057,-4.667496,-14.903307,11.217434,-2.034679,-9.5645,0.742174451409347090074,-5.3755813,-15.396513,10.338761,-2.1227846,-9.457358,1.49081961409347090077,-4.8548427,-15.391725,5.407903,-2.2694516,-9.314814,2.06258321409347090089,-3.3476925,-14.459781,1.5251064,-2.3973377,-9.242076,2.23767541409347090108,-2.802413,-13.791799,-0.04309563,-2.463659,-9.241203,2.1681591409347090111,-2.416348,-13.496115,-2.1697452,-2.49863,-9.263063,2.03048751409347090125,-2.0775685,-13.612832,-4.696825,-2.4660587,-9.323141,1.77988031409347090141,-1.3545196,-13.472173,-6.7851677,-2.384427,-9.415738,1.35232071409347090142,-0.6799533,-12.240356,-7.065888,-2.2677193,-9.50848,0.785280051409347090158,-0.5859809,-10.934917,-6.269217,-2.1559186,-9.564641,0.20003041409347090159,-0.6422446,-11.752538,-5.895722,-2.0646734,-9.583068,-0.268882421409347090175,0.009576807,-13.116035,-5.602432,-1.967892,-9.58509,-0.65102941409347090180,0.6847417,-16.102203,-4.720767,-1.8158071,-9.588554,-0.965835331409347090198,2.1493945,-19.325996,-1.5628152,-1.5975212,-9.605122,-1.1661721409347090199,4.0743327,-19.608511,2.4666264,-1.274395,-9.661992,-1.09189451409347090209,6.55293,-19.608511,2.920926,-0.86235714,-9.738878,-0.762216571409347090230,7.632715,-18.501793,0.20231004,-0.33866262,-9.79056,-0.447910931409347090231,4.973954,-13.575722,-3.5871127,0.18404768,-9.798478,-0.3554081409347090238,2.203264,-11.194689,-7.5016327,0.51170725,-9.778346,-0.54084641409347090262,1.6334441,-9.618706,-7.6907744,0.6794452,-9.733518,-0.98356041409347090263,2.657564,-8.323442,-3.6337996,0.7947068,-9.668334,-1.436031409347090276,3.2914288,-7.9828672,-1.1288661,0.9207987,-9.626226,-1.63042271409347090279,3.503914,-7.8757267,-2.3139958,1.0545233,-9.613257,-1.62594121409347090294,2.9771898,-7.349002,-4.8626237,1.2233748,-9.576664,-1.72082481409347090307,2.046444,-5.57849,-4.429273,1.3685936,-9.509415,-1.96682791409347090310,1.8567034,-5.0421886,-4.039018,1.4634417,-9.447388,-2.18531821409347090322,2.1027076,-5.2139726,-4.525041,1.5387518,-9.380907,-2.40857391409347090336,1.5095441,-5.257068,-3.7002387,1.6278822,-9.28917,-2.68918471409347090338,0.51116204,-5.28939,-1.5717934,1.6633466,-9.21885,-2.90111611409347090360,0.30945057,-4.8506527,-1.1941081,1.6039767,-9.220252,-2.92994761409347090361,0.961272,-4.0138793,-1.7471687,1.5207106,-9.236942,-2.9217661409347090376,1.6813282,-3.4793737,-2.6354175,1.5404695,-9.214777,-2.98081091409347090378,1.9758149,-3.0603883,-3.5901055,1.6414042,-9.141699,-3.14730741409347090393,2.4833858,-2.5498247,-3.144784,1.795928,-9.012433,-3.42360141409347090405,3.490746,-1.9614497,-2.4714148,2.0306988,-8.866943,-3.66386991409347090425,4.7830167,-1.7136499,-2.1517887,2.412752,-8.6942835,-3.84167081409347090425,5.7383027,-1.8088194,-2.504335,2.9743195,-8.461603,-3.96548721409347090440,5.969343,-1.9357121,-3.317765,3.6412635,-8.138504,-4.0836671409347090441,5.895722,-1.970428,-3.5033157,4.2610154,-7.7452097,-4.24569131409347090455,5.6898203,-2.179322,-3.3931823,4.8038244,-7.322689,-4.4126961409347090458,5.4605756,-2.9813797,-2.7401638,5.258676,-6.931521,-4.5244661409347090471,5.33488,-4.332308,-1.4969746,5.6065383,-6.66214,-4.5114271409347090486,-0.7260417,-7.385514,15.355811,5.8656797,-6.5842357,-4.29092361409347090490,-12.434286,-19.608511,19.488802,5.7233524,-7.7760825,-1.7164311409347090507,-18.356344,-19.608511,19.406202,5.869594,-7.6243997,-1.89388841409347090509,-19.60911,-19.608511,16.291346,6.0085807,-7.4669943,-2.07638261409347090523,-16.289549,-18.75019,7.469909,6.0976443,-7.358206,-2.20134851409347090541,-9.956886,-11.704654,5.8221,6.087722,-7.2987247,-2.41633181409347090541,-6.405088,-8.591593,7.4232225,-3.420613,-8.31812,3.90879321409347090558,-1.4921862,-7.359776,5.759252,-3.7588315,-8.13081,3.99142891409347090559,1.6543933,-6.0268044,2.9221232,-3.697865,-8.097765,4.11368471409347090574,3.5511997,-5.170877,1.09834,-3.3575158,-8.18111,4.2387391409347090578,5.1355624,-7.6171527,0.19931729,-2.8211498,-8.357396,4.28549151409347090601,5.7628436,-12.594698,-3.5685577,-2.0824888,-8.659137,4.10523751409347090602,5.9262476,-16.254833,-5.2289367,-1.2745441,-9.126757,3.35383941409347090610,5.237316,-15.295358,-4.896741,-0.51928604,-9.492268,2.40782211409347090626,3.0442274,-13.207015,-4.9901147,0.04191592,-9.6646595,1.6622291409347090637,0.7308301,-13.371018,-2.5390508,0.33478683,-9.746527,1.03128311409347090638,-1.7118542,-13.849858,-0.83617496,0.3882665,-9.775807,0.67322431409347090657,-1.673547,-12.349891,-2.8455088,0.21777599,-9.792084,0.487930241409347090658,-1.091756,-10.788872,-2.3241713,0.06538992,-9.804968,0.169510771409347090674,-0.2801216,-8.850765,-1.0265139,-0.03204773,-9.806335,-0.0719388651409347090691,0.8391677,-7.466318,-0.2124854,-0.072447546,-9.805213,-0.151447881409347090692,2.3421278,-6.9826894,0.1592144,-0.006133973,-9.805193,-0.16905661409347090711,3.3620577,-7.8888946,0.06404489,0.2138036,-9.803068,-0.156705651409347090713,3.8833952,-8.922591,-0.16639702,0.5270634,-9.791503,-0.138074591409347090718,3.8205473,-9.348161,-0.39983168,0.87496585,-9.766593,-0.136017081409347090740,3.3614593,-9.153631,-0.80445176,1.191575,-9.732758,-0.154804781409347090741,2.8832173,-9.153631,-1.0720038,1.4271492,-9.699917,-0.212770641409347090759,2.72939,-9.288305,-1.2419921,1.5987011,-9.671059,-0.291864631409347090759,2.5743654,-9.309854,-1.1815386,1.7321925,-9.645154,-0.375424981409347090774,2.2756886,-9.562442,-1.1773487,1.8360628,-9.623081,-0.44221011409347090786,1.8261774,-10.283096,-1.4012065,1.9015588,-9.607286,-0.50451431409347090790,1.2659341,-11.276092,-1.4939818,1.9096603,-9.601035,-0.58628251409347090809,0.5638345,-12.188881,-1.4766239,1.8486357,-9.607618,-0.668292641409347090810,-0.076614454,-12.6778965,-1.1546037,1.7061665,-9.629099,-0.73472651409347090820,-0.3633201,-12.247539,-0.97144735,1.519892,-9.658351,-0.75935711409347090842,-0.4321534,-11.341932,-0.79966336,1.3225273,-9.687131,-0.762107251409347090843,-0.82121116,-10.645219,-0.8571242,1.1418593,-9.711769,-0.74033561409347090858,-1.0953473,-10.111312,-1.2330139,0.94873196,-9.7345,-0.71404031409347090859,-0.87208796,-9.461287,-1.8046296,0.7558952,-9.7508745,-0.72074121409347090874,-0.44651863,-8.842984,-2.7012582,0.60244924,-9.75574,-0.7956051409347090894,0.18674773,-8.441956,-4.757279,0.50369585,-9.745148,-0.97404961409347090894,-0.688333,-8.836999,-5.064934,0.4716619,-9.702566,-1.34467041409347090898,-2.730587,-9.419987,-2.8772318,0.36160555,-9.64536,-1.73396311409347090922,-2.4774003,-9.288904,-2.5222914,0.06872618,-9.617858,-1.91376451409347090923,-1.8483237,-9.002198,-1.7531542,-0.18348873,-9.586251,-2.05924961409347090939,-1.5634137,-8.963891,-0.7392098,-0.3563108,-9.575244,-2.08761931409347090939,-1.8938135,-8.727464,-1.1959038,-0.47749025,-9.591767,-1.9850371409347090964,-2.3570917,-8.389283,-0.40701428,-0.6182327,-9.598121,-1.91422091409347090965,-2.7102363,-8.526351,-0.17776948,-0.7965448,-9.610038,-1.78412331409347090971,-2.5133133,-8.726267,-0.5105635,-0.9935383,-9.617493,-1.6392281409347090994,-1.75076,-8.751406,-0.46866497,-1.156881,-9.61336,-1.55413561409347090994,-1.1917139,-9.052477,-0.3561375,-1.2371323,-9.615298,-1.47849381409347090998,-1.1593921,-10.019135,-0.41958386,-1.2504065,-9.624501,-1.40566471409347091027,-1.5041572,-11.068993,-0.5859809,-1.2350366,-9.634978,-1.34620651409347091028,-1.7531542,-11.674128,-0.6733692,-1.2295117,-9.641642,-1.30286371409347091030,-1.8058267,-11.902175,-0.62129533,-1.240952,-9.645366,-1.26385681409347091038,-1.9075803,-12.318767,-0.47524905,-1.2598286,-9.649515,-1.2124751409347091060,-2.2104468,-13.03583,-0.1412579,-1.2876579,-9.652816,-1.15563951409347091061,-2.5701754,-13.818733,0.41958386,-1.3352062,-9.656206,-1.07018771409347091072,-2.789245,-14.2868,1.1049241,-1.3992417,-9.660478,-0.94217161409347091088,-2.5629928,-13.563751,2.5498247,-1.4697741,-9.664781,-0.77600951409347091090,-2.2415714,-12.534245,6.3871317,-1.5291686,-9.673161,-0.5118841409347091105,-2.3253684,-13.421296,10.475231,-1.577669,-9.678817,0.043088031409347091121,-1.9165585,-15.006258,10.414778,-1.6115438,-9.635215,0.857884651409347091121,-2.653374,-16.150686,8.620323,-1.5781556,-9.559594,1.51458561409347091135,-3.1358056,-15.067309,5.263054,-1.6237195,-9.48765,1.87574421409347091139,-4.1491513,-12.014703,-0.2669535,-1.7544273,-9.443345,1.97879081409347091152,-5.6982,-11.923723,-3.104681,-1.9677418,-9.431469,1.82913911409347091158,-6.3727665,-13.659519,-1.6980876,-2.2033498,-9.426562,1.56702841409347091170,-6.4218473,-14.342465,1.5370775,-2.3643212,-9.415689,1.38750421409347091186,-7.065289,-15.693993,5.1906295,-2.4884334,-9.383628,1.38766371409347091193,-7.680599,-17.116747,6.8647747,-2.6347208,-9.303985,1.63232531409347091213,-5.819107,-14.945804,7.855376,-2.7973244,-9.204886,1.90143051409347091214,-2.9532478,-13.567343,3.8283286,-2.8623362,-9.104028,2.25700971409347091219,-1.7423803,-13.749901,1.8088194,-2.8335853,-9.09374,2.3334651409347091245,-1.7046716,-14.337078,-0.95708215,-2.7591264,-9.124464,2.30255461409347091246,-1.1587936,-15.0104475,-5.3833623,-2.6586132,-9.20309,2.09888481409347091253,-0.20350714,-13.518261,-7.7847466,-2.5169218,-9.347587,1.5678521409347091259,0.5374983,-10.638636,-7.6009917,-2.3640344,-9.4741,0.90728551409347091274,0.5662287,-10.055647,-7.079654,-2.1823866,-9.556652,0.27925241409347091292,0.31364042,-11.346122,-5.922058,-2.0103638,-9.594786,-0.26251991409347091293,0.81343,-13.697826,-4.735731,-1.8416464,-9.610553,-0.64496611409347091299,1.95307,-18.092981,-3.208829,-1.6359701,-9.627727,-0.894910041409347091328,4.8057613,-19.608511,0.96306765,-1.3370692,-9.665496,-0.98023331409347091329,9.189545,-19.608511,3.0723593,-0.86701214,-9.73807,-0.76724991409347091331,8.289325,-19.06024,2.779668,-0.14805676,-9.79494,-0.455633071409347091339,4.4753613,-14.343064,-1.3718776,0.41387424,-9.795713,-0.207577751409347091365,1.0684125,-12.068572,-6.8905125,0.73545027,-9.775525,-0.26191961409347091366,-0.46686932,-10.609905,-10.0664215,0.81468344,-9.75011,-0.66486911409347091373,0.29927522,-8.7532015,-7.633912,0.7363025,-9.696887,-1.26438221409347091400,1.4496891,-7.579444,-4.413711,0.6697937,-9.631663,-1.71838741409347091401,1.8608932,-7.2939353,-4.308366,0.67399454,-9.582565,-1.97243821409347091402,1.9734207,-6.193201,-4.4322658,0.7385313,-9.527535,-2.20251409347091430,0.6997054,-5.461174,-4.997896,0.856406,-9.465431,-2.41713361409347091433,1.22224,-5.0439844,-4.638766,0.8772452,-9.392175,-2.68102551409347091434,2.1260512,-4.9781437,-2.8802247,0.9441024,-9.312852,-2.9240171409347091439,2.0560207,-5.2528787,-1.1881226,1.0862533,-9.263494,-3.02954441409347091465,1.4951789,-5.2199583,-1.2084733,1.2033343,-9.262645,-2.98760371409347091466,1.4131776,-4.6806645,-2.0506337,1.2514445,-9.263896,-2.9638721409347091471,1.567005,-3.9492357,-2.891597,1.3036495,-9.232794,-3.03750541409347091495,2.1308396,-3.0705638,-3.0998926,1.3917589,-9.163284,-3.20432041409347091496,2.556409,-2.7132292,-2.9735985,1.5602238,-9.060741,-3.4116071409347091499,3.4877534,-2.248754,-2.907758,1.7900954,-8.937012,-3.61881181409347091531,4.560954,-2.0099323,-2.9233203,2.1443214,-8.768508,-3.83217361409347091537,5.7418942,-1.8728642,-2.5905263,2.640594,-8.538503,-4.0362971409347091538,6.4846954,-1.5023615,-2.6844985,3.2921565,-8.246073,-4.1634591409347091539,6.711546,-1.0169371,-3.7313633,4.020913,-7.8589735,-4.27073341409347091570,6.5247984,-0.94092125,-4.530428,4.712094,-7.341977,-4.47905351409347091572,6.2763996,-1.2982559,-4.5364137,5.278741,-6.770721,-4.73947951409347091573,5.5659204,-2.5264814,-3.657143,5.71168,-6.262554,-4.9322981409347091602,4.643554,-4.633379,-0.34476504,5.9851775,-5.952327,-4.9917781409347091602,1.6651673,-11.018116,13.025655,6.17508,-6.060869,-4.61569551409347091603,-9.838373,-19.421165,18.867506,6.047023,-7.3591,-2.3341409347091626,-19.33318,-19.608511,17.908628,6.1655903,-7.200307,-2.51225881409347091626,-19.60911,-19.608511,18.255789,6.272281,-7.0588794,-2.64596061409347091631,-14.161104,-19.109919,8.446145,6.2832913,-6.9895144,-2.79952621409347091639,-9.61272,-12.76708,5.065532,6.2241855,-6.9526095,-3.0151511409347091651,-7.2071457,-8.59698,7.441179,-3.083263,-8.55862,3.6624981409347091673,-3.2118216,-7.921815,6.0920463,-3.4977756,-8.341573,3.78868221409347091674,-0.1400608,-7.788338,2.1338322,-3.499207,-8.255791,3.97087481409347091694,2.0141222,-8.698134,0.85891986,-3.2168005,-8.353945,4.00426961409347091694,6.363788,-14.981717,-0.5710171,-2.7342458,-8.571052,3.90273881409347091699,7.3579803,-19.608511,-2.718616,-1.8032103,-9.005228,3.4387051409347091728,3.3345244,-19.583372,-1.3323733,-0.87601495,-9.394181,2.6743931409347091729,-2.847903,-16.597204,7.343615,-0.46415526,-9.557837,2.14539051409347091733,-4.188656,-11.254543,3.6020765,-0.5751007,-9.487278,2.4147881409347091739,1.6370354,-10.159795,-8.720282,-0.8382238,-9.446488,2.49632361409347091769,4.677073,-9.260772,-10.472239,-0.67547685,-9.635628,1.6937551409347091771,4.1096473,-8.052897,-7.611766,-0.2716708,-9.771595,0.78263571409347091772,3.2692823,-7.603386,-1.8028339,0.10541929,-9.805581,0.099189861409347091798,4.2395325,-4.672883,1.0833763,0.40258932,-9.797484,-0.132678871409347091799,5.0661306,-3.4985273,0.87328506,0.77979743,-9.775245,-0.083103811409347091800,5.514445,-4.973954,-0.90141696,1.226154,-9.729413,-0.0742278551409347091830,5.2421045,-7.4046674,-2.8694508,1.7111067,-9.654771,-0.167097271409347091831,4.9996915,-9.002198,-4.2239704,2.1345174,-9.562102,-0.424783171409347091832,4.369418,-8.722076,-4.656722,2.463181,-9.458364,-0.80157651409347091839,4.3742065,-7.8571715,-4.3861775,2.6901674,-9.353796,-1.19996561409347091854,3.5733461,-8.576031,-2.7617116,2.9053884,-9.237343,-1.5493911409347091869,3.0603883,-9.500193,-2.0171149,3.0053325,-9.177634,-1.70569681409347091871,2.618658,-10.362105,-1.3096284,3.0131028,-9.164664,-1.76083421409347091886,1.9608512,-11.414955,-1.0049661,2.9829826,-9.182304,-1.71974471409347091903,1.06123,-12.680889,-1.2593501,2.8613446,-9.235343,-1.64060391409347091904,0.18375498,-13.703812,-1.7555484,2.6394744,-9.3140545,-1.56586291409347091921,-0.6015432,-14.10125,-1.9500773,2.343438,-9.400875,-1.5173161409347091922,-1.2449849,-13.7684555,-1.5221137,2.0098894,-9.484161,-1.47695711409347091936,-1.5747862,-12.447454,-0.6368576,1.6667227,-9.560902,-1.40769411409347091939,-1.6609775,-10.685322,-0.10055647,1.3581737,-9.624766,-1.29985871409347091955,-2.1535845,-9.797073,-0.29867667,1.0859551,-9.676198,-1.1671751409347091971,-2.9496565,-9.722853,-1.2695254,0.7985598,-9.714866,-1.07428931409347091973,-3.3363202,-9.560047,-1.666963,0.46312994,-9.736216,-1.07795721409347091991,-3.5116954,-9.2069025,-1.5113398,0.118082926,-9.740909,-1.12745981409347091992,-3.4314895,-9.214086,-0.9235633,-0.22664063,-9.733306,-1.17550861409347091999,-3.0897174,-8.772355,-1.7130513,-0.54462534,-9.721239,-1.17101661409347092019,-3.2393548,-8.620922,-4.197634,-0.80878735,-9.693679,-1.2445191409347092020,-5.1996074,-9.326612,-3.4877534,-1.0557741,-9.628086,-1.53483941409347092038,-4.92607,-8.756194,-1.821389,-1.4499842,-9.542538,-1.73433551409347092039,-4.2197804,-8.252813,-0.6667852,-1.774918,-9.471134,-1.82145381409347092064,-3.7403417,-8.307879,0.31124622,-2.024024,-9.420853,-1.82244051409347092067,-3.5075054,-9.03871,1.1474211,-2.2246027,-9.4003105,-1.68989491409347092072,-2.9855695,-9.7084875,1.2605472,-2.3707044,-9.405931,-1.44173431409347092097,-2.3157916,-10.724228,0.6697779,-2.4325695,-9.425761,-1.18660281409347092098,-1.7118542,-11.827955,0.093373865,-2.3966346,-9.45531,-1.01174661409347092100,-1.1504139,-12.333132,-0.012569559,-2.2895448,-9.493504,-0.895396951409347092127,-0.98581254,-12.304999,0.18555063,-2.1320922,-9.537627,-0.81133741409347092128,-1.0289081,-12.157756,0.43514615,-1.9751294,-9.577968,-0.72922851409347092131,-1.0372878,-12.145186,0.7823054,-1.8369015,-9.611786,-0.640105251409347092140,-0.98940384,-12.183494,1.4730326,-1.7159746,-9.640565,-0.53416651409347092161,-0.57760113,-11.523891,2.618658,-1.6126571,-9.665619,-0.38151861409347092162,-0.11192893,-10.374675,3.7217865,-1.5069808,-9.688963,-0.153070511409347092172,-0.50278234,-9.937134,4.128801,-1.3900579,-9.706421,0.153399591409347092200,-1.299453,-9.985018,4.5681367,-1.3325589,-9.705317,0.448874831409347092201,-1.6525977,-9.925761,5.9759274,-1.3470672,-9.685436,0.74034841409347092201,-2.4289176,-9.89763,7.7093296,-1.3951447,-9.638758,1.14818571409347092224,-4.2838254,-11.182119,3.9282866,-1.5123525,-9.53519,1.72143451409347092225,-5.787384,-13.290214,-1.5436616,-1.733161,-9.450148,1.96500421409347092232,-6.6085954,-14.951191,-4.5567646,-1.9872935,-9.440342,1.76096221409347092240,-5.659893,-14.647726,-5.2020016,-2.2307298,-9.465957,1.26090261409347092259,-4.144363,-13.792996,-3.5745432,-2.3836558,-9.479654,0.79038061409347092260,-3.4039562,-13.079524,-2.8263552,-2.4435925,-9.489427,0.387332261409347092274,-3.891775,-13.24233,-1.2802993,-2.4506354,-9.495105,0.088061731409347092292,-4.168904,-15.073894,2.7820623,-2.485845,-9.486234,-0.0482680651409347092293,-5.0212393,-17.126324,7.667431,-2.498203,-9.482026,0.143294961409347092300,-5.530606,-17.829021,9.546281,-2.5264773,-9.450536,0.68896191409347092329,-3.1920695,-14.969148,2.5905263,-2.590415,-9.368973,1.29711781409347092330,-2.5408466,-13.306375,-0.8900445,-2.5729103,-9.367549,1.34146951409347092333,-2.2774844,-12.808979,-1.2916719,-2.5815296,-9.378468,1.2451581409347092363,-2.1739352,-13.487137,-2.9700072,-2.572304,-9.393566,1.1465311409347092364,-1.0905589,-13.463793,-5.751471,-2.5067263,-9.4379,0.90151691409347092365,0.5722142,-12.048222,-7.0461354,-2.3754325,-9.50533,0.420021061409347092374,0.504578,-11.264719,-7.338228,-2.1790917,-9.560394,-0.144302091409347092397,0.49081135,-11.597513,-6.801927,-2.0018537,-9.576829,-0.668826941409347092398,0.8379706,-13.852253,-5.8885393,-1.8161764,-9.576521,-1.07802561409347092400,1.6262615,-18.17618,-4.039018,-1.608749,-9.577565,-1.36108091409347092428,3.7463272,-19.608511,0.825401,-1.324431,-9.6084585,-1.44698981409347092430,7.478289,-19.608511,5.0559554,-0.9322949,-9.691129,-1.17610371409347092433,8.396465,-19.42775,4.3341036,-0.3257564,-9.777878,-0.676267271409347092458,4.2957964,-14.836269,-2.1811178,0.2690946,-9.798544,-0.29418581409347092460,1.5574282,-11.637616,-6.108207,0.55316186,-9.783412,-0.386333321409347092461,0.22625206,-10.191518,-9.245809,0.6676788,-9.756784,-0.72785251409347092473,0.7044938,-9.082404,-6.9222355,0.66939497,-9.701602,-1.26540221409347092508,1.9285295,-8.484452,-3.09271,0.6698931,-9.6409,-1.66574241409347092509,2.3247697,-8.078036,-3.5631707,0.7307968,-9.610618,-1.80896561409347092510,2.9430726,-6.939594,-5.6269727,0.81327313,-9.568545,-1.98793551409347092513,2.0404584,-5.448006,-5.3259015,0.9692693,-9.484204,-2.2979871409347092521,1.371279,-4.5663414,-5.761048,1.0803989,-9.397642,-2.58600451409347092545,2.4480712,-4.892551,-4.6381674,1.1466879,-9.286978,-2.93386441409347092546,2.6503813,-5.2594624,-3.4494462,1.3115661,-9.18908,-3.16401171409347092551,2.0506337,-5.221754,-2.782661,1.471063,-9.121751,-3.28634331409347092568,1.6418238,-4.781221,-1.5161282,1.5738039,-9.073282,-3.37180641409347092592,1.7429788,-3.9833531,-1.0672154,1.6151198,-9.059612,-3.38898091409347092593,1.9111716,-3.0256724,-1.9267339,1.6972699,-9.0490885,-3.37693551409347092594,2.3540988,-2.0404584,-2.1865046,1.8266221,-8.989711,-3.46682981409347092629,2.9771898,-1.8076223,-2.472612,2.0432143,-8.887399,-3.60691051409347092630,3.6284127,-1.6298528,-2.698864,2.3535898,-8.738275,-3.7780381409347092631,4.571728,-1.3126211,-1.9393034,2.744661,-8.53695,-3.96959921409347092634,5.527613,-0.8595184,-2.3493104,3.283452,-8.296811,-4.0684531409347092652,6.3422403,-0.25677812,-3.5901055,3.947384,-7.931819,-4.2041421409347092653,6.7324953,-0.016759412,-4.5298295,4.669466,-7.3744197,-4.47039271409347092676,6.257845,-0.7966706,-4.244321,5.3457255,-6.6856165,-4.784991409347092676,5.663484,-1.9692309,-3.371036,5.8443613,-6.1023083,-4.97751671409347092680,4.730344,-4.0946836,-1.9740193,6.176656,-5.7350664,-5.01281551409347092706,3.3740287,-7.7213006,2.5450363,6.3150415,-5.734921,-4.8374971409347092707,-2.3953989,-16.200365,16.714521,6.266679,-6.388013,-4.0115351409347092713,-15.781979,-19.608511,16.60319,6.38387,-6.1837707,-4.1445891409347092720,-19.60911,-19.608511,19.608511,6.4991574,-5.9794297,-4.2635381409347092743,-19.552248,-19.608511,14.328698,6.521979,-5.8457565,-4.41149851409347092744,-12.126632,-15.716139,3.417723,6.378575,-5.7619853,-4.72055961409347092754,-8.948329,-8.646061,4.124611,-3.0931463,-8.636754,3.4654451409347092767,-1.4682442,-6.625355,3.1016884,-3.6914556,-8.455662,3.32345411409347092786,2.0709844,-9.130288,1.0737995,-3.5924056,-8.487065,3.35182621409347092787,6.091448,-16.27339,0.026934769,-3.1273003,-8.703456,3.26193621409347092802,7.1808095,-19.608511,-0.34237084,-2.15528,-9.099976,2.9522231409347092802,5.7227407,-18.094778,-1.951873,-1.1650482,-9.40401,2.52540061409347092816,1.9231426,-12.931084,1.5915456,-0.4847012,-9.579456,2.0419311409347092820,-2.156577,-10.997167,6.5870476,-0.25393093,-9.598981,1.99135151409347092838,1.234211,-9.123106,-1.9949685,-0.40737012,-9.511525,2.35272931409347092850,3.1495724,-7.991845,-5.400122,-0.28356925,-9.59425,2.01006961409347092852,4.1341877,-7.1143703,-5.071518,-0.003145678,-9.703917,1.41576291409347092864,3.7606924,-7.8009076,-2.1146786,0.35671562,-9.758993,0.897333441409347092886,3.9294837,-7.6931686,-0.427365,0.67107916,-9.760583,0.67162561409347092886,4.2778397,-7.6081743,-0.16938977,0.9982737,-9.739368,0.564386841409347092899,4.2880154,-8.747216,-0.56802434,1.342431,-9.703743,0.45348381409347092900,4.155137,-9.651027,-1.4867992,1.641585,-9.662353,0.338414221409347092912,4.0001125,-9.188946,-1.9853917,1.8953993,-9.620187,0.172786431409347092920,3.4033577,-8.44375,-1.726818,2.1151125,-9.575817,-0.0204722961409347092935,3.1998506,-8.133701,-1.6543933,2.275447,-9.537359,-0.177541511409347092949,3.2615013,-8.258799,-1.7998412,2.4109974,-9.500394,-0.31621291409347092952,2.8562827,-8.702923,-1.5239093,2.542972,-9.459778,-0.46507251409347092965,2.2176294,-9.005191,-1.0839748,2.6187403,-9.43301,-0.575256651409347092984,1.7513585,-9.32362,-0.8283938,2.625131,-9.42758,-0.632303661409347092984,1.5885528,-10.040085,-0.66379243,2.5764673,-9.439175,-0.658961361409347093002,1.2366052,-11.422736,-0.7433996,2.4903042,-9.462235,-0.659444151409347093003,0.7098808,-12.5025215,-1.365892,2.3427722,-9.500048,-0.65644031409347093016,0.16639702,-12.70543,-2.3475149,2.1418943,-9.544638,-0.694680331409347093020,-0.07182605,-11.852495,-4.369418,1.9104218,-9.585156,-0.80342771409347093035,0.46507367,-10.666168,-8.411429,1.6914802,-9.600516,-1.06741941409347093048,0.45789108,-10.328587,-9.685743,1.543198,-9.539846,-1.66741821409347093053,-1.673547,-11.020511,-7.6351094,1.3942469,-9.416419,-2.35743761409347093064,-3.156755,-11.131242,-6.775591,1.0840881,-9.321182,-2.84792691409347093085,-3.627814,-10.539874,-6.1524997,0.69321424,-9.25358,-3.17193031409347093086,-3.5889084,-9.267955,-3.9558198,0.3004124,-9.168486,-3.4668451409347093100,-3.544017,-7.9445596,-1.3640964,-0.06339016,-9.139293,-3.55523181409347093101,-3.269881,-7.28795,-0.2657564,-0.41161373,-9.175843,-3.43582321409347093116,-3.3153708,-8.128315,0.3309984,-0.7222114,-9.232823,-3.225491409347093121,-3.0585926,-9.63726,0.8595184,-0.999927,-9.303347,-2.93568521409347093137,-3.071761,-10.41358,1.4197617,-1.1992491,-9.385137,-2.5790331409347093156,-3.0364463,-10.539874,1.1803415,-1.370587,-9.459722,-2.19215421409347093157,-2.8532898,-11.490373,0.7200562,-1.5124271,-9.507242,-1.86956991409347093176,-2.4893713,-12.538434,0.82240826,-1.6214056,-9.535987,-1.61443841409347093200,-2.0919337,-12.904149,1.4532804,-1.6662011,-9.565072,-1.37970381409347093201,-1.678934,-12.403761,2.35769,-1.664344,-9.598242,-1.12876321409347093202,-1.2844892,-11.59871,3.0280666,-1.6282343,-9.632949,-0.851783451409347093203,-1.0672154,-11.328764,3.4823663,-1.5676988,-9.663257,-0.57809511409347093215,-1.074398,-10.738593,3.582923,-1.4996792,-9.686382,-0.308722261409347093235,-0.8810662,-10.256162,4.059369,-1.4514465,-9.69855,-0.042567811409347093236,-0.7685388,-9.987412,4.6806645,-1.4023098,-9.702031,0.273001551409347093251,-0.1376666,-9.9473095,6.242881,-1.3475323,-9.691764,0.651354971409347093252,-0.17836803,-10.213664,6.769605,-1.2495959,-9.6569805,1.16259121409347093263,-0.12808979,-10.190321,5.9477954,-1.1661197,-9.592817,1.66985871409347093286,-0.75716627,-9.815628,2.5558102,-1.0919731,-9.528832,2.04433731409347093287,-1.5729905,-9.386468,-1.9728222,-1.0825498,-9.516502,2.10585881409347093302,-2.5965118,-10.155006,-3.7355533,-1.1259116,-9.571125,1.8155631409347093304,-3.5452142,-11.823167,-3.7068229,-1.2224858,-9.6365,1.34676481409347093318,-4.0162735,-13.938444,-2.2942438,-1.3683426,-9.66501,0.941076761409347093334,-4.8320975,-15.367783,-1.75076,-1.5026401,-9.666591,0.685207551409347093335,-5.4917,-15.305532,-3.3740287,-1.681265,-9.648777,0.494807721409347093352,-6.2165446,-14.36102,-5.266645,-1.9055815,-9.617852,0.18995151409347093371,-6.482301,-13.016078,-2.19249,-2.178248,-9.558747,-0.236545491409347093373,-5.9262476,-13.069348,-0.033518825,-2.4459019,-9.488405,-0.397678881409347093374,-5.2863975,-14.323312,1.9985598,-2.638619,-9.43726,-0.382377861409347093381,-4.8877625,-15.577873,7.2083426,-2.729207,-9.415784,-0.254549921409347093408,-4.3299136,-17.376518,14.199411,-2.761191,-9.405196,0.297486571409347093408,-2.983774,-18.251,13.492524,-2.7795107,-9.400301,0.281216981409347093415,-1.8776526,-15.908273,3.654749,-2.8350644,-9.383892,0.274504931409347093445,-1.8902222,-13.901932,-2.0841527,-2.5050888,-9.252351,2.07097391409347093446,-3.0496144,-12.957419,-3.8013937,-2.4895413,-9.304786,1.84215461409347093447,-3.1992521,-12.374432,-5.29777,-2.5107512,-9.356442,1.52429751409347093453,-2.3056161,-11.825561,-5.9585695,-2.5091066,-9.417542,1.088431409347093469,-1.216853,-10.807426,-6.1123967,-2.4883192,-9.468665,0.56835341409347093489,-1.1013328,-10.998962,-5.8364654,-2.4265354,-9.50152,0.0583159961409347093490,-0.80086046,-11.347319,-6.4272346,-2.346622,-9.514553,-0.370171871409347093493,-0.05327099,-13.000515,-6.571485,-2.2326782,-9.517278,-0.77905781409347093501,0.7505822,-17.16463,-5.249287,-2.058457,-9.519213,-1.14791451409347093514,2.3918076,-19.608511,-1.2306197,-1.7950896,-9.546197,-1.34840431409347093529,4.9559975,-19.608511,4.2544966,-1.4250969,-9.625824,-1.21777471409347093536,6.8228765,-19.546862,3.1549592,-0.92820966,-9.733624,-0.751917841409347093555,4.1802764,-15.492879,-1.073201,-0.3565832,-9.790964,-0.424534171409347093556,1.7381904,-12.650363,-4.699219,-0.009423662,-9.796369,-0.448866071409347093561,1.30484,-10.916363,-7.917625,0.16749285,-9.778524,-0.723062931409347093599,1.7495629,-9.999383,-6.613982,0.27620897,-9.73002,-1.19198391409347093600,3.4344823,-9.378088,-4.883573,0.35933673,-9.675446,-1.55789411409347093601,4.619612,-8.371924,-4.3526587,0.53964216,-9.623707,-1.80651409347093604,4.282628,-6.8929067,-5.020641,0.80933654,-9.565116,-2.00597741409347093618,2.7287915,-4.7518916,-5.3995233,1.0752755,-9.478534,-2.27411061409347093632,2.1260512,-3.942053,-5.1768627,1.2340056,-9.376831,-2.592811409347093633,3.1238346,-4.437054,-3.1280246,1.3454691,-9.269701,-2.90391541409347093658,2.6922798,-5.033809,-0.83018947,1.5546541,-9.19394,-3.03726121409347093659,2.154183,-4.914099,-0.32800564,1.7247233,-9.185433,-2.9704521409347093661,2.0326772,-3.3746274,-2.0524294,1.8255167,-9.198131,-2.86920121409347093689,1.851915,-3.09271,-2.558803,1.9340383,-9.142146,-2.97507021409347093690,2.393603,-2.7521348,-1.5711949,2.0397446,-9.066779,-3.13103721409347093693,3.496133,-2.367267,-0.8900445,2.2401276,-8.998433,-3.19067761409347093701,4.4316673,-2.1583729,-1.8231846,2.5903628,-8.906675,-3.18300821409347093714,5.2648497,-2.4881742,-3.1507695,3.044724,-8.72524,-3.28180531409347093732,6.0022635,-2.2960393,-3.2172086,3.5576358,-8.443639,-3.4955141409347093734,6.530185,-1.958457,-2.224812,4.146072,-8.09169,-3.67491561409347093756,6.542156,-1.7711107,-2.707842,4.785851,-7.71373,-3.71004061409347093757,6.84203,-1.7465701,-3.1507695,5.3425946,-7.296736,-3.79272061409347093761,7.2382703,-2.1679497,-2.9891608,5.8532667,-6.82502,-3.91519551409347093783,7.24665,-3.2531216,-2.8054059,6.318801,-6.3813353,-3.93975831409347093784,6.4308257,-5.7395,-2.2278047,6.66353,-6.0613823,-3.87652181409347093798,2.879626,-12.46601,7.421427,6.7657585,-6.0507994,-3.71251081409347093809,-13.116035,-19.608511,19.501371,6.4293394,-7.0318365,-2.32104751409347093822,-17.577032,-19.608511,6.0166287,6.593687,-6.8292522,-2.46069051409347093822,-19.60911,-19.608511,15.209167,6.7410545,-6.649479,-2.55206181409347093834,-19.111116,-18.312052,8.353969,6.8279505,-6.5262127,-2.63780761409347093846,-13.585897,-7.7488337,2.6431987,6.7973437,-6.5083847,-2.75815961409347093862,-9.115923,-6.1890116,6.7085533,-3.7342222,-8.699952,2.5567141409347093863,-4.197634,-7.3819222,5.2810106,-4.310242,-8.353871,2.7937471409347093880,-0.7110779,-9.476849,2.8568811,-4.316268,-8.296064,2.95220971409347093881,3.2202013,-12.934076,0.86729956,-3.9533122,-8.4416685,3.0462991409347093898,9.60015,-18.330606,-2.3355439,-3.2183828,-8.782277,2.9468661409347093901,8.895657,-18.583794,-2.1416135,-1.9297408,-9.304574,2.42310051409347093914,5.306748,-13.6014595,-0.53570265,-0.88356036,-9.576198,1.91994171409347093930,0.7266402,-11.219229,3.4440591,-0.30816597,-9.659183,1.66602061409347093933,-0.9139865,-10.107122,-2.0524294,-0.19300863,-9.638267,1.79915311409347093944,0.521936,-9.220071,-7.892486,-0.25336042,-9.69025,1.4849991409347093962,1.1115081,-8.10138,-7.33763,-0.19453222,-9.778614,0.71501641409347093963,1.3455414,-6.9240313,-4.223372,-0.065246746,-9.806265,0.057418171409347093983,1.3221979,-6.7546415,-1.2779051,0.08135682,-9.801222,-0.31590721409347093984,2.0685902,-6.3488245,-0.34955344,0.20717673,-9.795417,-0.421045151409347093996,2.734777,-6.3883286,-0.5530606,0.41008872,-9.786448,-0.47714291409347094001,2.618658,-7.705738,-1.4449008,0.6738234,-9.767538,-0.55818341409347094015,2.7263973,-9.920375,-3.4955344,0.9093927,-9.739716,-0.693801761409347094026,3.9474401,-11.058219,-4.299388,1.1215131,-9.691013,-0.99842711409347094033,4.9398365,-10.323199,-3.0400376,1.4036342,-9.613998,-1.33088211409347094044,4.525041,-9.672575,-1.6053122,1.7405474,-9.533129,-1.50344411409347094065,3.7882257,-9.618107,-0.7691373,2.0084233,-9.477454,-1.52134921409347094066,3.4111388,-9.496002,-0.38187516,2.19749,-9.446381,-1.45167121409347094078,3.0771477,-9.218275,-0.31184477,2.3387375,-9.428669,-1.3419811409347094081,2.6898856,-9.157822,-0.7625532,2.439324,-9.419145,-1.22465991409347094094,1.8297687,-9.927557,-1.858499,2.4946237,-9.413308,-1.15622991409347094111,1.2372037,-10.899005,-2.463035,2.4438076,-9.42158,-1.19667591409347094113,0.8403648,-11.597513,-1.7657237,2.3126926,-9.442168,-1.29123751409347094128,0.6943185,-11.561002,-1.8417397,2.1386783,-9.479725,-1.31576651409347094135,0.45070848,-10.994174,-2.5701754,1.9716303,-9.511065,-1.35008541409347094144,-0.32022446,-10.638037,-3.139397,1.8092343,-9.526917,-1.46114051409347094160,-1.3605051,-10.393828,-2.6593595,1.5986041,-9.538759,-1.62078631409347094161,-1.6747441,-10.150817,-2.1883004,1.3228295,-9.561613,-1.7309161409347094175,-2.0326772,-9.689334,-2.3253684,1.0463445,-9.58189,-1.8063651409347094181,-2.7970262,-9.34038,-3.0262709,0.7610555,-9.59222,-1.89221551409347094195,-3.9414546,-9.601347,-3.256713,0.42429274,-9.585636,-2.02630831409347094209,-4.138976,-9.8515415,-2.5683799,0.008987608,-9.567689,-2.15165781409347094215,-3.5362358,-9.399037,-1.5765818,-0.38149408,-9.551726,-2.18846631409347094226,-3.122039,-9.57561,-1.1833342,-0.688653,-9.547189,-2.13244181409347094233,-2.9358897,-10.100538,-0.5189432,-0.93857294,-9.546136,-2.03979971409347094242,-3.153762,-10.630256,0.37110126,-1.1381005,-9.555866,-1.88694541409347094261,-2.8933928,-10.4644575,0.7260417,-1.3218789,-9.574,-1.66178121409347094262,-2.5246856,-10.192117,0.9804256,-1.4631121,-9.589787,-1.43726681409347094277,-2.2870612,-9.945514,1.2737153,-1.566481,-9.603558,-1.21991941409347094281,-2.0021513,-9.603143,1.5304934,-1.6345813,-9.617674,-0.999457061409347094294,-1.7986441,-9.68275,1.5286977,-1.6799738,-9.629033,-0.79359141409347094310,-1.7136499,-9.983223,1.5879543,-1.6899163,-9.639559,-0.627302471409347094315,-1.5921441,-10.113108,1.7345991,-1.681239,-9.649334,-0.48389881409347094327,-1.5298948,-10.167576,2.005144,-1.6627915,-9.658794,-0.336482381409347094334,-1.3736732,-10.240001,2.405574,-1.6428298,-9.666885,-0.151060331409347094346,-1.0390835,-10.357317,2.996942,-1.6093913,-9.673352,0.080671621409347094367,-0.8595184,-10.476428,3.304597,-1.5477641,-9.677557,0.345975581409347094367,-1.0474633,-10.476428,2.8508956,-1.4752955,-9.6746,0.629267041409347094385,-1.5089456,-10.468048,2.0937295,-1.4265406,-9.666354,0.83483051409347094385,-2.0153193,-10.722432,1.4107834,-1.4271404,-9.657528,0.930479351409347094395,-2.1918917,-11.210251,1.1677719,-1.4717624,-9.649689,0.94222651409347094411,-2.328361,-11.664551,0.9475053,-1.521616,-9.642956,0.931919041409347094413,-2.4744074,-12.328941,0.94570965,-1.5725533,-9.635703,0.92232411409347094425,-2.546832,-13.120824,0.17956513,-1.6198326,-9.626779,0.93364571409347094443,-3.429694,-14.340071,-0.8391677,-1.6464845,-9.628604,0.86573421409347094443,-4.608838,-14.5567465,-2.8413188,-1.7313573,-9.624609,0.73464291409347094461,-5.5898623,-13.952809,-2.9281087,-1.880886,-9.6136,0.459719451409347094462,-6.239888,-13.459004,-1.614889,-2.090834,-9.579115,0.198330631409347094480,-6.265626,-13.339893,0.14425065,-2.3321846,-9.5251255,0.0576484721409347094481,-6.589442,-14.4531975,1.5340848,-2.554362,-9.467877,0.07013621409347094495,-6.1979895,-16.71093,3.518878,-2.759298,-9.408411,0.196059751409347094512,-5.8484364,-18.119917,8.868123,-2.8623583,-9.368973,0.44682431409347094514,-4.147356,-18.508377,11.419145,-2.8783033,-9.321285,0.99970781409347094530,-1.5735891,-15.676036,9.217078,-2.934547,-9.2968025,1.06221071409347094533,0.59855044,-13.489531,3.8426938,-2.6543236,-9.212101,2.0644941409347094546,0.46208093,-13.528437,0.12749124,-2.462238,-9.230848,2.21341441409347094563,0.016759412,-13.697826,-4.8165355,-2.2608252,-9.300236,2.1365041409347094563,0.79248077,-13.306973,-8.741829,-2.0806594,-9.436652,1.67058051409347094580,0.7224504,-10.228029,-7.6482773,-1.8796993,-9.582891,0.89738491409347094582,0.12389994,-11.862072,-6.2063694,-1.7148987,-9.651151,0.291169081409347094594,0.25438392,-14.141353,-5.204396,-1.5784757,-9.67697,-0.187256261409347094613,1.5568297,-18.048092,-3.6768951,-1.4180484,-9.690394,-0.50573711409347094615,3.6553473,-19.608511,1.5478514,-1.1657968,-9.714346,-0.66540861409347094629,5.704784,-19.608511,4.079121,-0.79643035,-9.763777,-0.45250881409347094644,5.849633,-17.99482,1.0672154,-0.33227557,-9.800404,-0.109722361409347094645,3.5272577,-12.780848,-3.8786068,0.080041796,-9.806318,-0.009768531409347094662,0.985214,-10.144831,-6.3248825,0.31803223,-9.798274,-0.251051571409347094662,-0.82719666,-9.257779,-7.2604165,0.37894934,-9.7786,-0.637013141409347094677,-0.26276365,-8.145074,-7.2304893,0.34105495,-9.740241,-1.08708741409347094682,1.400608,-7.1502833,-5.3396683,0.32907954,-9.680233,-1.53466461409347094694,2.5605986,-7.0784574,-4.0773253,0.38929173,-9.622842,-1.84924961409347094709,2.441487,-7.5267715,-4.5819035,0.521069,-9.572837,-2.06389431409347094713,0.99299514,-7.109582,-4.302979,0.6670133,-9.509206,-2.30227851409347094726,0.50038815,-5.081693,-2.9508536,0.7183877,-9.453746,-2.5061921409347094745,0.54049104,-4.3885717,-4.200627,0.73438996,-9.417592,-2.63439921409347094745,1.3676877,-4.607641,-4.6393642,0.7513017,-9.33926,-2.89554551409347094763,2.0488381,-4.778228,-2.2463598,0.83283645,-9.235009,-3.19239261409347094764,1.9482816,-4.7279496,-1.2761095,0.99078566,-9.194854,-3.26242021409347094776,1.8166006,-4.100669,-0.92296475,1.1275954,-9.184755,-3.24641131409347094782,1.5658079,-3.6888664,-0.8583213,1.2438793,-9.181985,-3.21159241409347094796,1.8309658,-3.366846,-0.95827925,1.3464123,-9.182088,-3.16967631409347094812,2.597709,-3.165733,-1.0235212,1.5048145,-9.167812,-3.13960741409347094814,3.6673183,-3.1794999,-1.122282,1.7713937,-9.1265135,-3.12078451409347094827,4.656722,-3.2225955,-2.6557682,2.1830318,-9.044062,-3.09995991409347094844,5.955577,-2.8646624,-4.035427,2.6976519,-8.848119,-3.25635981409347094844,7.3885064,-2.2762873,-4.24492,3.3416393,-8.50195,-3.56661461409347094861,8.432379,-1.9003977,-4.0880995,4.1226234,-8.018498,-3.85721091409347094862,8.867524,-2.2535424,-3.918111,4.937905,-7.433095,-4.0665191409347094876,8.085219,-3.3321302,-3.0867245,5.6462946,-6.8457055,-4.17445561409347094882,6.129755,-5.4563856,-0.31483752,6.11762,-6.4649534,-4.1169831409347094894,2.6449943,-9.350554,5.883152,6.3380623,-6.475271,-3.75103381409347094910,-5.48332,-17.175404,18.68016,6.164574,-7.155609,-2.6392521409347094916,-17.868526,-19.608511,18.294096,6.2621417,-6.9959764,-2.83060221409347094926,-19.60911,-19.608511,14.887146,6.349923,-6.841261,-3.00765871409347094941,-18.86631,-19.434334,9.537901,6.3659186,-6.7753015,-3.1210221409347094942,-11.519103,-12.348694,5.105635,6.280674,-6.7877254,-3.26348521409347094958,-8.842984,-6.688801,3.8420951,-3.1648374,-8.684119,3.27723431409347094962,-9.346365,-5.762245,3.8534677,-3.7302732,-8.479764,3.21699521409347094976,-7.035362,-7.9649105,1.9746178,-4.1918344,-8.239911,3.2715131409347094992,-4.4364557,-9.503783,-1.2515689,-4.3773975,-8.173427,3.19435381409347094994,-1.0977415,-9.191938,-3.157952,-4.3439636,-8.305051,2.88557081409347095008,2.0763714,-11.730989,-2.7862523,-4.0790725,-8.569628,2.46840551409347095014,2.9340942,-16.980276,-3.1304188,-3.4874465,-8.935001,2.04300051409347095025,1.8686744,-12.887389,-1.8183962,-2.7306116,-9.2940235,1.5281631409347095044,1.246182,-11.932103,-0.22146365,-2.2488556,-9.466506,1.22404611409347095044,1.0109516,-14.348451,1.0079589,-1.8970472,-9.55468,1.1312441409347095059,1.5352819,-13.438056,-1.2354081,-1.5655627,-9.617611,1.10498951409347095062,2.6300306,-11.122863,-1.276708,-1.2626414,-9.68609,0.86936591409347095075,3.8139634,-9.952697,1.6962919,-0.93483305,-9.740807,0.64279811409347095093,5.101445,-7.821857,2.7263973,-0.54651934,-9.768942,0.66295481409347095096,5.370793,-6.9126587,2.5007436,-0.07953071,-9.774756,0.786264961409347095110,5.0721164,-8.35337,1.2521675,0.40308836,-9.752883,0.94295541409347095115,4.5699325,-9.706693,-0.60693014,0.8427058,-9.720097,0.989935161409347095125,4.3783965,-9.022549,-2.553416,1.205685,-9.692624,0.87737441409347095143,4.408324,-7.3460093,-3.1932666,1.5355982,-9.666934,0.6022581409347095144,4.380192,-6.4583592,-2.942474,1.8629462,-9.623744,0.288687771409347095159,4.0904937,-6.6145806,-2.4708161,2.1819005,-9.560839,0.0080944591409347095162,3.6475663,-7.627328,-1.9883845,2.457546,-9.490979,-0.228450451409347095175,3.210026,-8.598776,-1.541866,2.6533582,-9.431669,-0.41678631409347095189,2.8473043,-9.405023,-1.3251907,2.7504325,-9.397146,-0.546962861409347095194,2.5767596,-10.523713,-1.2521675,2.7986858,-9.377782,-0.62847271409347095207,1.9261353,-11.743559,-1.541866,2.7793946,-9.378888,-0.694135551409347095225,1.1923125,-12.841301,-2.011728,2.6646209,-9.406333,-0.76880181409347095225,0.08678981,-13.859435,-2.3774424,2.4700904,-9.450868,-0.86611241409347095242,-0.8822633,-13.417107,-2.3989902,2.1790204,-9.512314,-0.96859311409347095243,-0.9804256,-11.190498,-2.1140802,1.8453372,-9.573923,-1.05126081409347095266,-0.8726865,-9.709685,-2.2583308,1.1138048,-9.640586,-1.4102931409347095267,-0.7691373,-9.56723,-3.9492357,1.1138048,-9.640586,-1.4102931409347095277,0.11671733,-8.977059,-6.235698,1.1138048,-9.640586,-1.4102931409347095297,0.5614403,-7.9032598,-8.677185,0.99087775,-9.578644,-1.85422331409347095297,-2.396596,-9.667188,-8.474277,0.9195282,-9.42336,-2.55443791409347095309,-2.7491422,-9.858126,-6.5906386,0.6131473,-9.264453,-3.15663581409347095314,-2.60968,-9.288904,-5.6898203,0.3544079,-9.146067,-3.52054861409347095326,-2.96881,-9.604341,-3.731962,0.107816964,-9.067261,-3.7341091409347095343,-3.1908724,-10.262746,-1.5436616,-0.19303748,-9.069704,-3.72472671409347095343,-3.0639796,-10.666168,-0.31184477,-0.4783483,-9.144632,-3.5095981409347095359,-2.5600002,-10.408194,-0.15981296,-0.7376887,-9.240385,-3.200231409347095362,-2.0859482,-10.208278,0.095768064,-0.9175879,-9.319187,-2.91224481409347095376,-1.9871874,-10.866084,-0.23343466,-1.0244244,-9.388352,-2.64192151409347095391,-1.9829975,-11.5616,-0.219668,-1.0966206,-9.439481,-2.42157441409347095397,-2.2631192,-11.638813,0.23163901,-1.1576335,-9.483085,-2.213911409347095407,-2.5031378,-11.435306,0.9403227,-1.2414886,-9.520247,-1.99849031409347095425,-2.819771,-11.406575,2.3187842,-1.3364909,-9.558339,-1.73849621409347095426,-3.0532057,-11.649587,3.9612067,-1.4539217,-9.596148,-1.40373461409347095441,-2.9945478,-12.006922,4.538808,-1.5760324,-9.631203,-0.96250941409347095443,-3.0376434,-12.471995,4.5807066,-1.6789646,-9.64646,-0.54525371409347095458,-2.8772318,-12.243349,5.195418,-1.7742437,-9.642638,-0.204874931409347095463,-2.3110032,-11.209652,10.208876,-1.8522927,-9.628912,0.153147071409347095475,-0.6721721,-11.8022175,12.976573,-1.8963925,-9.574139,0.953913451409347095492,-0.062249243,-12.233772,10.664971,-1.7899952,-9.448955,1.91925451409347095494,-1.2731167,-11.495759,2.6258407,-1.649769,-9.3260565,2.54427271409347095506,-2.5821466,-10.573992,-5.4761376,-1.6142067,-9.324586,2.5723231409347095526,-3.7253778,-11.3880205,-9.788095,-1.698454,-9.441205,2.03697351409347095527,-4.778228,-13.903728,-8.923788,-1.8105305,-9.564976,1.18472831409347095543,-4.0132804,-15.198392,-4.4681787,-1.9315444,-9.605941,0.406754761409347095544,-3.870227,-15.095442,-0.74639237,-1.9747102,-9.605745,0.0240478161409347095556,-4.1820717,-14.1664915,-0.8206126,-2.0274966,-9.5946455,-0.0494569841409347095563,-5.2887917,-13.113641,0.33518824,-2.118956,-9.574635,-0.0822919161409347095576,-4.4633904,-13.54759,2.6551697,-2.285895,-9.536217,-0.0754302141409347095589,-3.791817,-15.312117,5.327099,-2.3498943,-9.520206,0.118721661409347095595,-4.0695443,-17.093403,9.461885,-2.3379397,-9.512616,0.46321141409347095607,-4.0683475,-17.430986,11.747749,-2.3343565,-9.464125,1.0730861409347095628,-3.9893386,-16.32247,5.5581393,-2.3345482,-9.359394,1.76692721409347095629,-3.6332011,-14.450803,0.38486794,-2.383956,-9.304027,1.9804621409347095641,-3.3327289,-12.539033,-1.2599486,-2.468362,-9.304107,1.87381881409347095643,-3.9444473,-11.730989,-1.1318588,-2.5279448,-9.329672,1.6544221409347095655,-3.7104142,-12.146384,-2.1039047,-2.6205473,-9.329864,1.50225811409347095663,-2.4827871,-12.425308,-5.1642933,-2.661645,-9.354502,1.2567081409347095677,-1.0324994,-12.11107,-6.362591,-2.6279175,-9.415365,0.784430741409347095690,-0.8230068,-11.370064,-6.4739213,-2.5217242,-9.473326,0.259651061409347095696,-0.65660983,-11.701062,-6.1985884,-2.4035559,-9.505137,-0.213792981409347095706,-0.06464344,-13.535021,-5.3235073,-2.269862,-9.520921,-0.60844581409347095726,0.6476316,-17.62731,-3.679888,-2.0867956,-9.540446,-0.89194361409347095726,2.0602105,-19.608511,0.9163807,-1.822914,-9.582131,-1.01496091409347095740,5.7496753,-19.608511,4.2778397,-1.4787554,-9.662171,-0.791279551409347095743,8.48984,-19.608511,1.5957354,-0.9282421,-9.755185,-0.380931171409347095756,6.517017,-15.998654,-1.4688427,-0.2788649,-9.800595,-0.202363241409347095763,3.572149,-12.162544,-5.0523643,0.1831047,-9.801534,-0.258495451409347095776,1.8656816,-10.737994,-7.315483,0.4588712,-9.780181,-0.554858571409347095790,1.5107412,-9.91439,-5.771822,0.5949847,-9.739035,-0.98366851409347095794,2.5917234,-8.76996,-3.6912606,0.6710759,-9.697877,-1.29276191409347095805,3.5781345,-7.949348,-4.1252093,0.7856324,-9.661669,-1.48503461409347095827,3.028665,-7.3442135,-5.8693852,0.97496265,-9.60711,-1.70975461409347095827,1.9249382,-5.498883,-7.52737,1.1359646,-9.52177,-2.05326131409347095842,0.362123,-3.9336734,-7.083844,1.2358396,-9.3934555,-2.53103021409347095843,0.0676362,-4.6220064,-3.0244753,1.2058513,-9.2565155,-3.00553731409347095856,0.6769605,-5.6431336,0.18974048,1.1311044,-9.211242,-3.16923451409347095863,1.1001357,-5.66947,-0.05925649,1.1195583,-9.265099,-3.0124611409347095877,1.5358804,-5.1182046,-1.115698,1.1509671,-9.3050165,-2.87442851409347095890,1.2940661,-4.587889,-2.1547816,1.2213812,-9.309304,-2.8311611409347095897,0.7697359,-4.1293993,-2.5408466,1.2768481,-9.278432,-2.90701871409347095916,1.3192052,-3.4518404,-2.4169466,1.2858438,-9.234467,-3.04000621409347095917,3.9151182,-2.8921957,-1.8309658,1.3663402,-9.174118,-3.18418721409347095924,4.9182887,-1.6543933,-2.0308816,1.7823325,-9.071926,-3.27015041409347095954,5.895123,-1.2557588,-2.7832594,2.366152,-8.883909,-3.4129031409347095955,6.3793507,-1.0151415,-3.8235402,3.0778985,-8.575318,-3.6277831409347095956,6.739079,-0.8415619,-4.620809,3.812169,-8.124451,-3.95361851409347095980,6.811504,-0.9864111,-5.2235494,4.52844,-7.555488,-4.31024931409347095981,6.642114,-1.1480197,-5.1038394,5.1291223,-6.932917,-4.6687421409347095983,6.331466,-1.780089,-4.4963107,5.6030293,-6.34008,-4.9578061409347096016,5.731719,-4.1060557,-2.92751,5.957359,-5.871093,-5.11962271409347096017,4.281431,-9.26197,0.50517654,6.155849,-5.7542458,-5.0164271409347096018,-11.245565,-18.97764,19.269135,6.052789,-6.348475,-4.38532161409347096024,-18.730438,-19.608511,18.684948,6.1556277,-6.11803,-4.56600241409347096046,-19.60911,-19.608511,15.569493,6.2708774,-5.8418236,-4.76650761409347096046,-19.435532,-19.448698,9.587581,6.338898,-5.664384,-4.88912531409347096057,-11.350311,-10.561422,5.026028,6.252646,-5.630134,-5.03751409347096079,-7.7290816,-6.308123,6.7767878,-3.6323187,-8.589489,3.03271531409347096082,-4.293402,-5.989694,6.92044,-4.135169,-8.301079,3.18792221409347096102,-0.1376666,-6.0998273,3.8187518,-4.204953,-8.153805,3.46471261409347096104,2.2056582,-6.5247984,-0.30226797,-3.9216294,-8.215228,3.64708921409347096104,4.75668,-8.081628,-3.9444473,-3.4842234,-8.454833,3.5420881409347096130,7.93618,-13.472173,-7.240066,-2.7600565,-8.898123,3.06200621409347096130,8.302493,-16.268002,-5.881955,-1.6196747,-9.452614,2.04820921409347096144,6.1159883,-12.764088,-3.4715924,-0.5395215,-9.717733,1.20207171409347096144,3.9935284,-11.099519,-2.8550856,0.15847923,-9.775451,0.76540221409347096158,3.2746694,-13.410522,-2.0991163,0.5767334,-9.780248,0.42960021409347096173,1.6101006,-15.933413,0.8110358,0.83536965,-9.769368,0.178925661409347096177,0.80205756,-14.500483,1.666963,0.8858253,-9.764807,0.185052041409347096191,1.8920178,-11.945271,1.4293385,0.8472703,-9.767191,0.233446361409347096196,2.944868,-10.003573,0.6171055,0.90341544,-9.761472,0.260569931409347096215,3.6332011,-8.624513,0.43754035,1.0381454,-9.747242,0.289711271409347096216,3.875614,-8.313866,-0.18734628,1.2532176,-9.719676,0.35738371409347096225,3.757101,-8.841188,-1.1749545,1.5117837,-9.682801,0.35811671409347096242,3.6355953,-8.866327,-2.0231004,1.7449673,-9.646949,0.248726341409347096243,3.4979286,-8.228272,-2.9819782,1.942195,-9.612233,0.0570627821409347096263,2.9514523,-7.8446016,-3.1705215,2.12796,-9.570461,-0.220167191409347096263,2.4450784,-7.93618,-2.6731262,2.2536907,-9.530929,-0.502677141409347096277,2.2146366,-8.36175,-2.2104468,2.3221626,-9.500062,-0.725793841409347096294,2.0231004,-8.744224,-1.6005238,2.3563726,-9.477254,-0.894173561409347096316,1.6585833,-9.322423,-1.0893618,2.362471,-9.466204,-0.9899891409347096317,1.2886791,-10.271724,-0.90979666,2.324113,-9.472882,-1.01656131409347096318,0.9451111,-11.444882,-0.92895025,2.2326598,-9.495554,-1.00998781409347096324,0.504578,-12.442666,-1.0971429,2.0907784,-9.530822,-0.98106681409347096349,-0.21068975,-12.865841,-1.429937,1.9062966,-9.571863,-0.957016051409347096350,-0.8607155,-12.270284,-1.5556326,1.6687765,-9.616608,-0.952080371409347096358,-1.4275428,-11.36767,-1.7860745,1.4051584,-9.658602,-0.95255271409347096382,-1.42455,-9.467272,-1.7567455,1.1240746,-9.69312,-0.97481771409347096384,-0.7116765,-8.754398,-2.0799627,0.87780637,-9.713958,-1.01926591409347096386,0.8403648,-8.51019,-3.630807,0.71671647,-9.716431,-1.1169781409347096419,0.05925649,-8.587403,-6.326678,0.7186878,-9.684276,-1.36700381409347096420,-4.4382515,-10.386645,-9.58818,0.6377158,-9.607389,-1.86058121409347096421,-3.271078,-9.914988,-4.7979803,0.12965463,-9.461626,-2.57511431409347096424,-2.4037786,-9.03452,-1.2665327,-0.17188202,-9.380742,-2.85350971409347096452,-2.617461,-9.324219,0.4201824,-0.3700085,-9.375726,-2.85118271409347096453,-2.460641,-9.94312,0.7086837,-0.6065018,-9.426418,-2.63537431409347096455,-1.7675194,-10.02572,0.40701428,-0.79734164,-9.496058,-2.31506161409347096472,-1.3126211,-9.755175,-0.093373865,-0.8834334,-9.549771,-2.04739431409347096477,-1.2808979,-9.509171,-0.18375498,-0.9159568,-9.588524,-1.84162971409347096490,-1.2605472,-9.298481,-0.011971008,-0.9494962,-9.613793,-1.68635331409347096514,-1.1971009,-9.036914,0.18136078,-0.9706062,-9.634596,-1.55012171409347096515,-0.99898064,-9.044696,0.37588966,-0.99084526,-9.652908,-1.41774621409347096516,-0.9720459,-9.431359,0.5033809,-1.0014306,-9.671166,-1.27911409347096524,-1.0965444,-9.739613,0.5494693,-1.008859,-9.687892,-1.13901521409347096549,-1.271321,-10.081385,0.5847838,-1.023269,-9.700965,-1.00728081409347096550,-1.4993688,-10.583569,0.92057055,-1.0444962,-9.711252,-0.878058251409347096556,-1.6112977,-11.023503,1.8794483,-1.0831615,-9.719046,-0.73301791409347096584,-1.9141643,-11.57836,3.0909145,-1.1231763,-9.728635,-0.51238841409347096586,-2.1637597,-12.287642,4.1024647,-1.1825948,-9.732996,-0.201605111409347096588,-2.3983915,-12.987946,4.3718123,-1.2518492,-9.725239,0.151610961409347096622,-2.4756045,-13.414712,4.5244427,-1.3343332,-9.704795,0.454897171409347096623,-2.9107506,-13.63857,4.4915223,-1.4214418,-9.677264,0.707410041409347096625,-3.6523547,-13.817536,7.2622123,-1.5371786,-9.640226,0.93460961409347096625,-5.1744685,-15.015835,9.543886,-1.6998075,-9.562271,1.35794761409347096652,-6.0998273,-15.649101,6.8324533,-1.9338577,-9.4211645,1.91630831409347096653,-7.069479,-14.654908,-2.6527755,-2.1845746,-9.301655,2.2084441409347096657,-7.40347,-13.84088,-7.8009076,-2.4691267,-9.306941,1.85867241409347096680,-5.8813562,-14.6585,-4.3197384,-2.7294025,-9.34339,1.1923891409347096681,-4.472967,-14.886548,1.8243817,-2.8056042,-9.36353,0.789459351409347096684,-4.5555673,-14.924855,6.5367694,-2.7582517,-9.37402,0.8307811409347096716,-6.1279593,-16.33085,10.8152075,-2.7173512,-9.340326,1.24285481409347096718,-6.6121864,-16.656462,13.561955,-2.7501464,-9.233708,1.82912831409347096719,-5.2660465,-15.191809,3.731962,-2.7072074,-9.225392,1.9322421409347096724,-4.763264,-14.30775,-5.920861,-2.886301,-9.026169,2.52348041409347096750,-4.960786,-13.5697365,-7.680599,-3.0364635,-9.113618,1.97288181409347096751,-4.180875,-11.712435,-6.839037,-3.15997,-9.185296,1.34733821409347096756,-2.6431987,-11.062409,-4.3101616,-3.2145367,-9.230001,0.802632751409347096775,-1.9578584,-11.700463,-4.355053,-3.1737716,-9.267774,0.45381111409347096796,-1.8938135,-11.921329,-5.2702365,-3.0703912,-9.312526,0.141192441409347096797,-1.6651673,-11.526884,-5.965752,-2.973847,-9.342054,-0.229466931409347096798,-1.0516531,-12.118851,-5.8388596,-2.8784654,-9.356406,-0.585213361409347096804,-0.09935937,-15.112201,-5.1840453,-2.7435877,-9.371799,-0.901366651409347096825,3.405752,-19.608511,2.1589713,-2.5029142,-9.413399,-1.13741771409347096826,7.533954,-19.608511,2.498948,-1.9793794,-9.569716,-0.820333841409347096844,9.222465,-19.158401,0.95109665,-1.2416803,-9.712491,-0.54419341409347096870,6.467936,-14.763247,-2.2619221,-0.5003639,-9.785166,-0.413013821409347096871,3.6822822,-12.522273,-6.2207346,-0.013751462,-9.793561,-0.50632631409347096872,2.380435,-11.030087,-7.575254,0.29480684,-9.765227,-0.850778041409347096878,2.178125,-9.524733,-6.019023,0.5131012,-9.712852,-1.25206171409347096905,2.220622,-8.652645,-3.34051,0.6606436,-9.659775,-1.55649291409347096906,2.610877,-8.192958,-3.751714,0.7599946,-9.624666,-1.72006261409347096906,2.4492683,-7.1065893,-5.345654,0.87070775,-9.576329,-1.92514861409347096926,1.7543513,-5.231331,-5.5168395,0.9772456,-9.498073,-2.2365171409347096927,-0.038307227,-4.595072,-4.6405616,1.0623386,-9.405763,-2.56387451409347096941,-1.2868834,-5.035605,-3.5835214,1.00501,-9.330882,-2.84516381409347096955,-0.94211835,-5.177461,