time,acc_x,acc_y,acc_z,gravity_x,gravity_y,gravity_z
1409523392542,-1.678934,1.7429788,9.13388,-1.932729,1.8304647,9.438451
1409523392542,-1.5574282,1.9405005,9.336788,-1.9171618,1.8366735,9.440419
1409523392558,-1.5682021,2.1667526,9.314642,-1.8898958,1.8407245,9.445127
1409523392561,-1.7938557,2.1499932,9.376891,-1.8607922,1.8388557,9.451267
1409523392573,-2.0428526,1.9452889,9.445126,-1.8518194,1.8274679,9.455237
1409523392592,-2.1122844,1.780089,9.539098,-1.870757,1.8085397,9.455149
1409523392594,-1.9859903,1.7717092,9.582792,-1.9015176,1.7870157,9.453105
1409523392614,-1.7531542,1.8339585,9.689334,-1.92674,1.7647986,9.452171
1409523392615,-1.6262615,1.8842367,9.776124,-1.9438661,1.7449449,9.452351
1409523392621,-1.6292542,1.8920178,9.671976,-1.9477034,1.7278363,9.454703
1409523392646,-1.7154455,1.8830396,9.6049385,-1.9425052,1.7132565,9.4584255
1409523392647,-1.8022354,1.9249382,9.648633,-1.9345564,1.7007363,9.462314
1409523392655,-1.7741034,1.9841946,9.591172,-1.927389,1.6907071,9.465573
1409523392662,-1.7597382,2.0416555,9.629479,-1.9192494,1.6835899,9.468494
1409523392693,-1.9057846,2.0332758,9.581595,-1.9114217,1.6779176,9.471085
1409523392694,-2.1272483,1.9865888,9.511565,-1.9066992,1.6739388,9.47274
1409523392695,-2.2529438,1.9883845,9.472659,-1.9100187,1.6716765,9.472471
1409523392716,-2.280477,2.0153193,9.504981,-1.9206135,1.6709344,9.47046
1409523392717,-2.2505496,2.0099323,9.557653,-1.933442,1.671144,9.467813
1409523392722,-2.2463598,1.9728222,9.613917,-1.9426537,1.6709847,9.465955
1409523392744,-2.2505496,1.9506758,9.631275,-1.9464765,1.6688855,9.46554
1409523392745,-2.1859062,1.91596,9.625289,-1.9462332,1.6636561,9.466511
1409523392753,-2.0494366,1.8908207,9.816826,-1.9427072,1.6568103,9.468434
1409523392762,-1.7806876,1.7465701,9.897031,-1.9360977,1.6478755,9.471348
1409523392781,-1.75076,1.6639702,9.919776,-1.9231093,1.6374935,9.475793
1409523392782,-1.8423382,1.6089035,9.860519,-1.9067552,1.6279582,9.48074
1409523392793,-1.9219455,1.5825673,9.715072,-1.8932459,1.6221067,9.484448
1409523392810,-2.0153193,1.6160861,9.633669,-1.8872343,1.6224074,9.485596
1409523392825,-2.0416555,1.6831238,9.514558,-1.88932,1.6296281,9.483943
1409523392826,-2.018312,1.7262194,9.36911,-1.8938826,1.640507,9.481156
1409523392842,-1.9835961,1.7375919,9.285313,-1.8974171,1.6555405,9.477837
1409523392843,-1.9434932,1.7208325,9.260772,-1.8962561,1.6705012,9.475443
1409523392857,-1.8896236,1.6992847,9.235035,-1.8898524,1.6817892,9.474726
1409523392861,-1.8561049,1.6621746,9.202713,-1.8796033,1.6879017,9.4756775
1409523392873,-1.9117701,1.6579847,9.257181,-1.8683314,1.6885673,9.477788
1409523392885,-1.8908207,1.6801311,9.258378,-1.858873,1.6851839,9.480249
1409523392903,-1.8076223,1.6699557,9.257779,-1.8523265,1.6796777,9.482509
1409523392904,-1.7112557,1.6472107,9.2625675,-1.8486513,1.6734756,9.484322
1409523392924,-1.632247,1.6077064,9.137471,-1.8454925,1.6671652,9.486048
1409523392925,-1.4580688,1.5711949,8.907029,-1.8425341,1.6619159,9.487544
1409523392939,-1.2072762,1.6005238,8.63828,-1.8373796,1.6581486,9.4892025
1409523392941,-0.85293436,1.6412252,8.439561,-1.8300165,1.6552894,9.491124
1409523392963,-0.53570265,1.6286557,8.246229,-1.8194005,1.6513082,9.493859
1409523392964,-0.2645593,1.5903485,7.9170265,-1.8042867,1.6434458,9.498106
1409523392973,-0.07062895,1.5562311,7.6668324,-1.7841538,1.6326201,9.503775
1409523392997,-0.02932897,1.532289,7.586028,-1.7628402,1.612879,9.51112
1409523392998,0.023343466,1.4993688,7.4711065,-1.7425971,1.5800734,9.520352
1409523393002,0.10354923,1.4323312,7.405266,-1.72611,1.5291017,9.5316725
1409523393026,0.03232172,1.3874398,7.7147164,-1.713382,1.4559901,9.545407
1409523393027,-0.08678981,1.4203602,8.131308,-1.704995,1.3576516,9.56139
1409523393044,-0.4890157,1.2204443,8.746617,-1.6994674,1.2340662,9.579106
1409523393045,-0.9636662,0.95827925,9.339182,-1.6971318,1.0846175,9.59759
1409523393061,-1.1587936,0.641646,9.703699,-1.6996055,0.9235585,9.613988
1409523393062,-1.2216414,0.34715924,10.408792,-1.7044278,0.7478857,9.628395
1409523393075,-1.0109516,0.17956513,10.745177,-1.7122743,0.56911695,9.639223
1409523393089,-0.80205756,0.018555064,10.880449,-1.7178177,0.39829516,9.646805
1409523393093,-0.6925228,-0.14185645,10.949882,-1.712464,0.24582884,9.652845
1409523393112,-0.57041854,-0.26036942,10.955269,-1.692265,0.11911405,9.658801
1409523393114,-0.45549688,-0.26396075,10.795456,-1.6532764,0.024958309,9.666253
1409523393122,-0.3477578,-0.054468088,10.540473,-1.5940424,-0.05042611,9.676099
1409523393144,-0.5602432,-0.02633622,10.37228,-1.5241207,-0.08842384,9.687085
1409523393145,-1.1528081,0.02633622,10.213066,-1.4570994,-0.09684721,9.697312
1409523393154,-1.477821,0.16340427,9.829993,-1.4080279,-0.08370505,9.704681
1409523393175,-1.7902644,0.21667525,9.717466,-1.384485,-0.056884903,9.708262
1409523393176,-2.0428526,0.19812019,9.862315,-1.3897387,-0.023821492,9.707649
1409523393194,-2.2146366,0.1376666,9.812635,-1.4198195,0.0116188675,9.703318
1409523393196,-2.3523033,0.13467385,9.759365,-1.465669,0.04616811,9.696395
1409523393202,-2.345719,0.12449849,9.46009,-1.5210497,0.07901492,9.68765
1409523393227,-2.1547816,-0.04309563,8.932767,-1.5790472,0.10932328,9.67807
1409523393228,-1.869273,-0.31244332,8.516175,-1.6364005,0.13629723,9.668195
1409523393241,-1.5556326,-0.5410896,8.240842,-1.6834651,0.15842457,9.659774
1409523393242,-1.3311762,-0.6997054,8.228871,-1.7098354,0.17170236,9.654914
1409523393263,-1.3862427,-0.74878657,8.670602,-1.7046158,0.16961613,9.655874
1409523393264,-1.7322049,-0.6027403,9.3733,-1.6641445,0.14764309,9.663292
1409523393274,-2.0907366,-0.31902736,9.595961,-1.5954456,0.10563751,9.675422
1409523393295,-2.3732524,-0.21068975,9.48882,-1.5173421,0.05728162,9.688384
1409523393296,-2.6521769,-0.33877954,9.6528225,-1.4453467,-0.004678276,9.6995535
1409523393302,-2.819771,-0.52253455,9.759963,-1.396493,-0.07204203,9.706442
1409523393330,-2.6868927,-0.7577648,10.180744,-1.3698674,-0.13458939,9.709569
1409523393330,-1.6663644,-0.84096336,10.404602,-1.3543948,-0.18720005,9.710868
1409523393334,-1.2336124,-0.6266823,10.208876,-1.3407929,-0.22676705,9.711912
1409523393342,-1.1348516,-0.65421563,9.8042555,-1.3316351,-0.25273907,9.712531
1409523393359,-1.1893197,-0.8499416,9.598354,-1.3232378,-0.27401343,9.713101
1409523393385,-1.2521675,-1.039682,9.703699,-1.3148006,-0.290883,9.713757
1409523393388,-2.1829133,-2.2212207,9.686341,-1.3014255,-0.3090339,9.714997
1409523393389,-5.3725886,-5.559935,8.084022,-1.2827045,-0.34399065,9.716312
1409523393395,-2.7665,-1.6639702,9.085397,-1.2817043,-0.42484593,9.713244
1409523393435,-0.84814596,-0.14844051,9.432556,-1.2440038,-0.47712302,9.715719
1409523393441,-0.89662856,-1.0839748,10.462063,-1.1939272,-0.52950895,9.719287
1409523393443,-1.5221137,-1.0354922,11.23539,-1.1420252,-0.60047066,9.721399
1409523393447,-2.1559787,-1.1569979,12.244546,-1.0943934,-0.6737498,9.722075
1409523393448,-1.8148049,-0.97982705,12.719795,-1.0574123,-0.7464603,9.720857
1409523393464,-1.0636241,-0.4225766,11.739968,-1.0360742,-0.7915164,9.71959
1409523393465,-0.62608373,0.20949265,10.729615,-1.0138377,-0.7879199,9.722227
1409523393473,-0.74399817,0.18255788,9.767744,-0.9660339,-0.74202496,9.730702
1409523393494,-0.4333505,-0.2657564,8.916606,-0.90938866,-0.6848464,9.740348
1409523393497,0.15203181,-0.9804256,8.665813,-0.8708891,-0.64038,9.746889
1409523393503,0.37110126,-1.6938977,9.303867,-0.8511672,-0.609059,9.750638
1409523393542,0.23642741,-1.6244658,9.446921,-0.83148503,-0.6021465,9.752766
1409523393544,-0.08439561,-1.1067197,9.416395,-0.7995588,-0.61705464,9.754503
1409523393546,-0.49320555,-0.78410107,9.674371,-0.7493701,-0.6486945,9.756435
1409523393547,-0.83258367,-0.7218518,10.098145,-0.698249,-0.69260526,9.75721
1409523393570,-1.2856863,-0.96546185,10.183139,-0.6598178,-0.74396956,9.756103
1409523393571,-1.1438298,-0.7224504,9.791088,-0.6336007,-0.79828095,9.753548
1409523393574,-0.78529817,-0.21906945,9.14226,-0.6133122,-0.8448178,9.750923
1409523393594,-0.62009823,-0.16340427,8.931569,-0.6028354,-0.88333064,9.748164
1409523393595,-0.5979519,-0.41359833,8.968081,-0.59902483,-0.91245973,9.745715
1409523393602,-0.32022446,-0.56982,8.979453,-0.6012366,-0.94033563,9.742929
1409523393628,5.985504E-4,-0.6476316,9.029732,-0.5938915,-0.9753811,9.739933
1409523393629,0.28311434,-0.676362,9.088389,-0.5696978,-1.0207881,9.736725
1409523393634,2.2080526,-0.6943185,6.919243,-0.52852726,-1.0743556,9.733284
1409523393642,0.51355624,-1.3126211,9.812635,-0.46491626,-1.1337978,9.729787
1409523393663,0.55844754,0.717662,9.672575,-0.398611,-1.1964638,9.725224
1409523393664,1.1091139,2.166154,9.354745,-0.30669713,-1.246543,9.722265
1409523393678,0.99898064,1.5478514,9.227253,-0.18989326,-1.2793293,9.72099
1409523393708,1.2372037,1.0001777,9.139865,-0.044633765,-1.2915574,9.721126
1409523393710,1.8118122,0.8984242,9.572019,0.14291626,-1.2690432,9.723142
1409523393712,2.6264393,0.78170687,10.09156,0.4046682,-1.2089664,9.723427
1409523393746,4.0396166,0.93014735,9.673772,0.71209437,-1.118792,9.716563
1409523393750,5.0451818,1.5664065,8.946533,1.0342433,-0.9968089,9.700882
1409523393752,4.559757,0.8002619,8.026561,1.3499317,-0.850315,9.676003
1409523393755,3.9073372,0.12988544,7.6345105,1.6494648,-0.677479,9.643167
1409523393757,3.0777464,0.11971009,7.914034,1.9277769,-0.4749757,9.603565
1409523393767,2.295441,-0.11492168,7.8942814,2.203385,-0.2349005,9.553025
1409523393774,1.5951369,-0.34476504,7.993641,2.5060391,0.0430591,9.480944
1409523393789,1.5436616,1.5921441,7.8170686,2.8529463,0.35074207,9.37593
1409523393805,1.8471266,5.3408656,8.921992,3.2290392,0.653669,9.236688
1409523393806,2.142212,5.1259856,9.233239,3.592098,0.91965336,9.078627
1409523393825,2.8263552,2.3008277,8.096592,3.91948,1.152912,8.9150915
1409523393829,3.004723,2.0566192,8.502409,4.2506056,1.343036,8.734929
1409523393857,2.8245595,1.8459295,8.002021,4.586488,1.5648718,8.52559
1409523393858,3.1118636,2.5785553,6.857592,4.9074454,1.8396438,8.288733
1409523393859,4.561553,3.9863458,5.1756654,5.2058163,2.1902518,8.017023
1409523393878,5.675455,4.5418005,3.196858,5.4886885,2.6111794,7.695871
1409523393879,5.7263317,4.1024647,2.1068976,5.739946,3.0714302,7.3341475
1409523393883,6.2686186,3.2022448,3.4003649,5.9540353,3.5300467,6.9468427
1409523393909,6.9425864,4.1826706,4.6561236,6.13169,3.9600453,6.5491066
1409523393910,7.7410526,4.9787426,5.473145,6.281708,4.3257775,6.164266
1409523393930,8.246828,5.329493,5.8741736,6.4090166,4.6022263,5.823607
1409523393931,8.558673,5.6156,6.039374,6.512862,4.8010473,5.5410256
1409523393935,8.718486,5.486912,6.2021794,6.591435,4.960943,5.302115
1409523393958,8.423999,4.663306,6.081272,6.6502566,5.119552,5.0729346
1409523393959,8.719683,4.267066,5.493496,6.7006664,5.2886834,4.8271403
1409523393972,9.487623,4.425682,5.0906715,6.757022,5.4566283,4.553928
1409523393989,10.136452,4.7722425,5.1463366,6.8118978,5.61338,4.272983
1409523393989,10.713454,5.1379566,5.673061,6.870732,5.7366447,4.0067873
1409523394004,11.1899,5.4007206,6.320094,6.9322405,5.815366,3.7810006
1409523394005,11.444882,5.719149,6.8743515,6.997435,5.853309,3.5979261
1409523394021,11.689092,6.0202203,7.2502413,7.0658007,5.863411,3.4446
1409523394023,11.763311,6.001665,7.327454,7.138657,5.857749,3.3010223
1409523394036,11.493964,5.671265,7.3244615,7.2119193,5.8466105,3.1584418
1409523394053,10.945093,5.6066217,6.9743094,7.2848983,5.829899,3.0187674
1409523394054,10.633847,5.531803,6.2063694,7.353025,5.813517,2.8820872
1409523394068,10.593145,5.3276973,5.632958,7.422581,5.791037,2.745831
1409523394074,10.57878,4.9901147,5.433641,7.500107,5.750262,2.6178775
1409523394088,10.585364,4.729147,5.517438,7.5863833,5.6851997,2.5091183
1409523394105,10.706271,4.7219644,5.9388175,7.6775255,5.599735,2.4225948
1409523394113,10.6715555,4.6621094,6.085462,7.771121,5.499447,2.3529005
1409523394123,10.402207,4.3041763,6.05733,7.8653793,5.394667,2.2811725
1409523394124,10.057443,4.0892963,5.9561753,7.959293,5.282039,2.2181292
1409523394138,9.954493,4.3544545,5.916671,8.05365,5.16385,2.1549377
1409523394157,9.799467,4.56275,5.4821234,8.147326,5.0401506,2.0948381
1409523394157,9.259575,4.3999443,4.8602295,8.239048,4.9137735,2.0355093
1409523394170,8.928576,4.3406878,4.433463,8.327477,4.7884407,1.9734071
1409523394174,8.709507,4.1940427,4.0222588,8.410591,4.666476,1.9121546
1409523394187,8.563461,4.086902,3.7116113,8.490643,4.542636,1.8557532
1409523394206,8.604162,4.291008,3.5302503,8.566958,4.4180217,1.8051895
1409523394207,8.654441,4.335301,3.0879216,8.641419,4.2912426,1.7554245
1409523394221,8.662222,4.185065,2.7682958,8.713054,4.1631346,1.7092024
1409523394223,8.574833,3.99293,2.8299465,8.780836,4.035061,1.6690074
1409523394239,8.452729,3.7600937,3.1507695,8.843605,3.9089577,1.6374052
1409523394253,8.288726,3.791817,3.620033,8.903781,3.7820656,1.6090612
1409523394254,8.1642275,4.1653123,3.618836,8.963101,3.652713,1.5782613
1409523394269,8.0445175,4.6285906,2.8443117,9.020255,3.5232215,1.5467093
1409523394290,7.885902,4.860828,2.0805612,9.077381,3.3909416,1.5076747
1409523394291,7.8344264,5.167286,1.151611,9.130797,3.2569501,1.480278
1409523394312,7.969699,5.6161985,0.25318682,9.177215,3.1300888,1.466852
1409523394313,8.024167,5.768829,0.011971008,9.216112,3.017424,1.4590466
1409523394314,8.142081,5.5910597,-0.15801731,9.246963,2.922246,1.4575914
1409523394323,8.749012,5.2905874,0.014963761,9.270407,2.8473487,1.4569013
1409523394343,9.2787285,4.8680105,1.0019734,9.288754,2.7934067,1.4444063
1409523394344,9.144653,4.459201,1.8986019,9.307417,2.7459137,1.4150343
1409523394354,8.721478,4.0940847,2.77069,9.322803,2.714633,1.3735106
1409523394375,8.328829,3.9390604,3.3345244,9.338149,2.6974976,1.3011092
1409523394376,8.525154,3.899556,3.7427359,9.353866,2.6893225,1.2013072
1409523394383,9.232041,3.8313212,4.032434,9.370053,2.6790674,1.0932176
1409523394413,9.822811,3.4919431,4.0922894,9.38605,2.6579223,1.0039392
1409523394414,10.2896805,2.9191303,4.034828,9.401071,2.6231964,0.9534653
1409523394415,10.412982,2.3199813,4.091092,9.412385,2.5789971,0.9623896
1409523394423,10.190321,1.9261353,3.6326025,9.423972,2.5221372,0.99898356
1409523394444,10.235811,2.160767,2.059612,9.432446,2.4551861,1.0823247
1409523394445,9.932944,3.2734723,0.3573346,9.439127,2.3799856,1.1869825
1409523394456,9.044097,2.8042088,1.1468226,9.443374,2.305007,1.2961627
1409523394476,9.187749,2.0691888,1.9177556,9.444278,2.2313442,1.4131883
1409523394476,10.007165,1.9997569,2.0512323,9.443988,2.168653,1.5094444
1409523394483,10.432136,2.1769278,2.1739352,9.450253,2.1112435,1.551054
1409523394510,10.331579,2.247557,2.4702177,9.467524,2.051154,1.5261633
1409523394511,10.113108,2.3241713,2.5851393,9.489416,1.9788755,1.4850681
1409523394517,10.037092,2.2679076,2.8508956,9.515967,1.9009876,1.4152654
1409523394523,10.107122,2.1739352,2.741361,9.54348,1.8224343,1.3308296
1409523394546,9.968259,2.11827,2.0919337,9.57039,1.7448964,1.2382933
1409523394547,9.779716,2.3187842,1.4197617,9.59586,1.6692536,1.1417042
1409523394554,9.723452,2.4983494,0.79367787,9.618527,1.5983459,1.048621
1409523394574,9.712678,2.3361423,0.55365914,9.638285,1.5303483,0.96535224
1409523394589,9.980229,2.123657,0.516549,9.656396,1.4617157,0.88758004
1409523394591,10.602722,2.166154,0.7284359,9.672221,1.3924414,0.8244169
1409523394608,10.834361,2.146402,1.4030021,9.6855955,1.3249571,0.77725226
1409523394608,10.491392,1.6292542,2.2457612,9.696968,1.2608613,0.7412591
1409523394615,9.97185,0.9624691,2.64679,9.707103,1.2021573,0.7052466
1409523394623,9.611523,0.84455466,2.4534583,9.71704,1.1493723,0.65458626
1409523394639,9.226655,1.1168951,2.0410569,9.72686,1.0994103,0.59149176
1409523394661,8.986037,1.5682021,1.6286557,9.735345,1.0506661,0.5381154
1409523394662,8.797494,1.8902222,1.1306617,9.742836,1.0038611,0.4897055
1409523394663,8.78672,2.095525,0.25677812,9.748582,0.9656182,0.45069525
1409523394703,8.855554,2.2894554,-1.0049661,9.75259,0.94775313,0.39896667
1409523394704,8.866926,2.457648,-1.4107834,9.754182,0.9610405,0.32052082
1409523394705,8.907627,2.5635915,-1.4395138,9.752276,1.00688,0.22289734
1409523394705,9.327211,2.6964695,-1.3449428,9.746289,1.0806495,0.111535765
1409523394723,9.822811,2.7754784,-0.97623575,9.735831,1.1763794,-0.01051891
1409523394724,9.81503,2.594716,-0.6679823,9.721879,1.2800622,-0.13008718
1409523394735,9.467272,2.40318,-0.21906945,9.704015,1.3941947,-0.24233474
1409523394760,9.115324,2.3642743,0.008978256,9.682532,1.5158278,-0.3481766
1409523394761,8.457518,2.472612,-0.12689269,9.657585,1.64161,-0.45450795
1409523394763,8.21271,2.9215245,-0.28431144,9.629182,1.7697684,-0.56318736
1409523394798,9.0842,3.5128925,-0.95588505,9.596611,1.9050616,-0.66798264
1409523394799,10.046669,3.50571,-1.3874398,9.55834,2.053263,-0.76982343
1409523394801,10.54586,3.335123,-1.3030443,9.516272,2.2051868,-0.86494607
1409523394804,10.778696,3.3782187,-1.1540052,9.469295,2.3649852,-0.95379484
1409523394840,10.6954975,3.3387144,-0.7302315,9.4193125,2.523352,-1.0390557
1409523394841,10.304645,2.9466639,-0.5105635,9.369104,2.668467,-1.126738
1409523394845,10.104729,2.634819,-0.5686229,9.320502,2.7961621,-1.2166159
1409523394871,10.226234,2.397793,-0.4890157,9.271622,2.9131098,-1.3119451
1409523394872,10.131663,2.463035,-0.50158525,9.220953,3.024719,-1.4126302
1409523394873,9.098565,2.3744495,-1.3204023,9.165088,3.1417284,-1.5169421
1409523394897,7.711125,2.1481974,-2.3469162,9.102455,3.2654853,-1.628599
1409523394898,7.466318,2.9652188,-2.6916811,9.027161,3.4075196,-1.7520185
1409523394900,8.088212,4.1198225,-2.8263552,8.9399605,3.5622559,-1.8862168
1409523394903,8.853758,5.1882353,-2.8407204,8.843371,3.7188365,-2.0335846
1409523394919,8.995614,5.849035,-3.341707,8.736153,3.878629,-2.1923232
1409523394938,8.564658,5.8203044,-3.675698,8.609699,4.0549393,-2.36664
1409523394939,7.342418,4.3700166,-4.4059296,8.455463,4.2564626,-2.5608644
1409523394953,6.613384,3.4805708,-2.9233203,8.273854,4.463545,-2.7911446
1409523394955,4.1395745,5.3923407,-0.17717093,8.063623,4.6941695,-3.0188024
1409523394973,4.630386,4.8428717,-10.041282,7.8025103,4.953732,-3.2789876
1409523394975,6.2458735,3.6529531,-5.5910597,7.4766874,5.19353,-3.646479
1409523394983,7.2191167,3.6128504,-2.77069,7.2568755,5.3895626,-3.80273
1409523395005,7.9289975,3.954024,-2.4073699,7.1780243,5.56827,-3.6933327
1409523395006,7.701548,3.8115692,-2.134431,7.0905933,5.7443175,-3.5912015
1409523395022,6.555923,3.4219127,-1.899799,6.968412,5.9223595,-3.5408046
1409523395040,3.739743,2.971803,-1.9806033,6.836583,6.1048484,-3.4874575
1409523395040,0.85532856,2.5635915,-2.0608091,6.6854877,6.3042912,-3.42499
1409523395043,2.956839,3.1663318,-1.6274586,6.5123177,6.52066,-3.3527718
1409523395071,6.715137,4.0276456,-0.9307459,6.3306084,6.7409,-3.2640574
1409523395073,6.323685,3.627814,-0.88765025,6.1815753,6.937244,-3.1357899
1409523395091,5.977723,3.4159272,-0.89184016,6.067045,7.108951,-2.9705555
1409523395092,6.2225304,3.3435028,-0.006584055,5.9556007,7.2829895,-2.7675436
1409523395095,5.2247467,2.4157495,0.50637364,5.8406634,7.4600906,-2.5306194
1409523395103,4.550779,1.4401124,0.62847793,5.6938753,7.654846,-2.2701411
1409523395120,2.980781,0.4866215,0.33039984,5.50977,7.866001,-1.9846501
1409523395140,0.92655605,-0.6338649,0.29927522,5.273884,8.09595,-1.676938
1409523395141,0.48123455,-0.8379706,0.36631286,4.9854007,8.336983,-1.3456819
1409523395143,0.19871874,-0.7164649,0.49200845,4.650759,8.576627,-0.9911081
1409523395155,0.016759412,-0.46627077,0.7685388,4.285474,8.798667,-0.62335
1409523395171,1.1025299,2.4157495,1.785476,3.8999429,8.994299,-0.25181416
1409523395193,10.9187565,18.789696,11.581951,8.5341835,4.7941127,-0.59545594
1409523395194,18.690336,19.608511,19.600132,8.324949,5.178126,-0.2293131
1409523395195,-6.0303955,19.608511,14.532206,8.094084,5.534687,0.15307084
1409523395204,-17.419014,18.358738,2.4013844,7.7789145,5.946262,0.5484883
1409523395225,-9.057863,5.288193,-0.037708677,7.2398343,6.5357833,1.019184
1409523395226,-2.3295584,-0.6895301,-0.81043726,0.38190877,8.952726,3.9841213
1409523395237,0.13706805,-1.6555905,-1.0761937,0.37938306,9.017121,3.8364022
1409523395258,0.3196259,-1.6867151,-1.1492168,-0.121678755,9.091793,3.6735365
1409523395259,-0.02633622,-0.99060094,-1.1976994,0.8973475,9.023742,3.733261
1409523395264,-0.66498953,0.3286042,-1.4036007,0.56934595,9.092791,3.628688
1409523395298,-1.1845313,2.979584,-1.9764135,0.31546298,9.15786,3.4934897
1409523395299,-1.4221559,7.2167225,-4.7680526,0.74560505,9.420817,2.619669
1409523395300,-1.0510546,13.11005,-8.917204,0.46250442,9.7338705,1.0991856
1409523395304,-1.0384849,17.274166,-11.544841,0.30944327,9.754988,-0.95646197
1409523395326,-2.790442,16.48408,-9.932944,0.16302578,9.482234,-2.496204
1409523395327,-4.11683,12.691663,-6.3601966,-0.22202626,9.260822,-3.2184303
1409523395336,-3.53863,9.656414,-3.376423,-0.7286701,9.156492,-3.4348328
1409523395357,-2.6964695,8.292916,-2.0685902,-1.1604736,9.142246,-3.3530588
1409523395357,-2.0219033,8.4347725,-1.2419921,-1.4077896,9.17157,-3.1734576
1409523395364,-1.5370775,9.467871,-0.62608373,-1.4992162,9.2340355,-2.9419968
1409523395393,-1.3192052,10.296863,-0.26156655,-1.4937507,9.320937,-2.6569235
1409523395394,-1.4131776,10.292074,0.026934769,-1.4578862,9.408438,-2.350797
1409523395395,-1.8058267,9.858126,0.3812766,-1.450881,9.477915,-2.0577812
1409523395406,-2.207454,9.555259,0.58538234,-1.490157,9.527253,-1.7836031
1409523395430,-2.4408886,9.587581,0.7152678,-1.5920773,9.557888,-1.5107799
1409523395431,-2.4372973,9.822212,0.7254431,-1.695283,9.576544,-1.2594638
1409523395436,-2.308609,9.96766,0.7326257,-1.7718513,9.5893345,-1.0371157
1409523395459,-2.1188686,9.8677025,0.7870938,-1.8181834,9.59968,-0.84307
1409523395460,-1.9093759,9.662998,0.7493851,-1.8411717,9.608677,-0.6736846
1409523395464,-1.8255788,9.55885,0.59615624,-1.8463054,9.616407,-0.5350462
1409523395493,-1.7753005,9.69113,0.26396075,-1.8472856,9.621833,-0.42222792
1409523395494,-1.6873137,9.911396,-0.077811554,-1.8369176,9.626097,-0.36655194
1409523395496,-1.5508442,10.0903635,-0.35314476,-1.8131703,9.631239,-0.34939766
1409523395506,-1.4030021,10.155006,-0.5255273,-1.7739828,9.638337,-0.35474402
1409523395530,-1.258153,10.102334,-0.6434417,-1.7229528,9.647051,-0.369087
1409523395535,-1.1282675,10.031705,-0.6889315,-1.6653754,9.656357,-0.38950726
1409523395540,-1.0869676,9.96347,-0.6859388,-1.6034657,9.665949,-0.4107219
1409523395564,-1.1988965,9.882666,-0.6290765,-1.5470594,9.674292,-0.4302236
1409523395565,-1.3461399,9.817424,-0.60214174,-1.5100787,9.679456,-0.44517305
1409523395566,-1.5532384,9.539098,-0.60932434,-1.493919,9.6813965,-0.45732817
1409523395588,-1.6214731,9.435549,-0.65062433,-1.5029002,9.679252,-0.47305533
1409523395589,-1.6861166,9.408614,-0.6817489,-1.5159914,9.676063,-0.49596596
1409523395600,-1.690905,9.520543,-0.75477207,-1.5319602,9.672114,-0.52315354
1409523395606,-1.721431,9.582193,-0.87567925,-1.543786,9.6684065,-0.5559224
1409523395623,-1.7357962,9.589376,-1.0414777,-1.5549387,9.664111,-0.5979244
1409523395624,-1.7292122,9.645041,-1.3012487,-1.568533,9.65867,-0.64822483
1409523395636,-1.7226281,9.633071,-1.6340426,-1.5755291,9.652147,-0.7240125
1409523395660,-1.6537948,9.534309,-1.9728222,-1.5800375,9.643323,-0.8247569
1409523395661,-1.5436616,9.435549,-2.0757728,-1.5772163,9.632548,-0.947005
1409523395664,-1.4987702,9.423578,-1.9033904,-1.5627728,9.622715,-1.06371
1409523395697,-1.5514427,9.564238,-1.8154035,-1.5442499,9.616158,-1.1468261
1409523395698,-1.5448587,9.507974,-2.1589713,-1.5294287,9.6110525,-1.2078502
1409523395699,-1.4508862,9.249998,-2.2852654,-1.5149589,9.601644,-1.2975904
1409523395731,-1.3557167,9.31105,-2.1643584,-1.4992744,9.589716,-1.3999773
1409523395732,-1.2539631,9.564836,-2.0608091,-1.4703736,9.582017,-1.4809949
1409523395733,-0.9032126,9.930551,-2.2104468,-1.4310399,9.577316,-1.54839
1409523395736,-0.3728969,10.010158,-2.7473464,-1.3602774,9.574997,-1.6246464
1409523395761,0.32022446,10.395025,-3.3321302,-1.2455279,9.569762,-1.7431808
1409523395761,0.7338228,10.529699,-3.4727895,-1.0716856,9.562442,-1.8925122
1409523395764,0.7374141,10.493188,-2.8329391,-0.87981504,9.554855,-2.0251105
1409523395791,0.57879823,10.115502,-1.7621324,-0.7214897,9.555973,-2.0816371
1409523395792,0.5482722,9.741408,-0.8242039,-0.59806496,9.576643,-2.025
1409523395796,0.533907,9.638457,-0.18914193,-0.49625793,9.6096945,-1.8915329
1409523395824,0.47405192,9.767146,0.26874915,-0.39971128,9.646799,-1.7175272
1409523395825,0.6290765,10.078392,0.51235914,-0.30802843,9.682882,-1.522265
1409523395826,0.9020155,10.342952,0.5859809,-0.20359454,9.714693,-1.3242731
1409523395868,1.2324153,10.702681,0.65062433,-0.08022388,9.739727,-1.1409173
1409523395869,1.4736311,10.80623,0.6572084,0.060875617,9.758374,-0.96996456
1409523395870,1.5801731,10.800244,0.61052144,0.2068658,9.770795,-0.81188864
1409523395871,1.4454993,10.458471,0.45729253,0.33620822,9.777067,-0.6828806
1409523395904,1.1121067,10.117896,0.19812019,0.43212798,9.779711,-0.5838891
1409523395905,0.64942724,9.915586,-0.12509704,0.4836869,9.780919,-0.5196905
1409523395906,0.39743748,9.99639,-0.4782418,0.4881886,9.782285,-0.48882866
1409523395906,0.338181,10.226832,-0.78769237,0.47434244,9.782943,-0.4892878
1409523395917,0.23343466,10.348937,-0.92057055,0.4629174,9.782273,-0.5130501
1409523395933,0.073621705,10.275913,-0.94690675,0.4447066,9.781458,-0.5438186
1409523395936,-0.14963761,10.216658,-0.84096336,0.41042995,9.780973,-0.57836336
1409523395963,-0.28909984,10.0748005,-0.81761986,0.3567343,9.782014,-0.5961029
1409523395963,-0.3657143,10.008362,-0.8750807,0.2933581,9.783118,-0.6123183
1409523395965,-0.3633201,10.040085,-0.9008184,0.22925387,9.783401,-0.6347519
1409523395981,-0.272939,10.098145,-0.8870517,0.17213206,9.783075,-0.6574404
1409523395985,-0.23702596,10.076596,-0.82480246,0.12888707,9.782573,-0.6745662
1409523395997,-0.23463176,10.006566,-0.8098387,0.091496386,9.782455,-0.6823507
1409523396017,-0.24420857,10.015544,-0.82480246,0.058734808,9.782177,-0.68987656
1409523396019,-0.22625206,10.029311,-0.86011696,0.027192252,9.782055,-0.6935807
1409523396037,-0.18076223,10.001179,-0.9068039,-5.143793E-4,9.7815895,-0.70065093
1409523396038,-0.15442601,9.993398,-0.98102415,-0.02067454,9.780752,-0.7119678
1409523396045,-0.15382746,9.955689,-1.0552444,-0.035463527,9.779479,-0.7286397
1409523396067,-0.15263036,9.908403,-1.1546037,-0.049285132,9.777662,-0.75186396
1409523396068,-0.1592144,9.967062,-1.3239936,-0.061382983,9.7751045,-0.7835563
1409523396080,-0.17238252,9.994595,-1.4933833,-0.07279548,9.771297,-0.8287581
1409523396085,-0.17298107,9.98442,-1.578976,-0.084058344,9.766128,-0.88662136
1409523396098,-0.08439561,9.956287,-1.4682442,-0.09469693,9.760349,-0.94712174
1409523396116,0.05566519,9.94312,-1.2425907,-0.09422815,9.756035,-0.9906002
1409523396117,0.12629414,9.943718,-1.0821792,-0.0802306,9.754316,-1.0086123
1409523396140,0.2837129,9.916184,-0.98940384,-0.061536126,9.75414,-1.0116087
1409523396141,0.3890578,10.110714,-1.0708067,-0.029604573,9.754617,-1.0084574
1409523396145,0.45070848,10.299856,-1.0749966,0.010556466,9.754299,-1.0118896
1409523396166,0.47405192,10.134057,-0.99060094,0.05305676,9.754208,-1.0114316
1409523396167,0.53450555,9.73662,-0.94690675,0.09381664,9.754507,-1.005591
1409523396182,0.55365914,9.64564,-0.95109665,0.13601035,9.754663,-0.9992329
1409523396185,0.46267948,9.813234,-0.97743285,0.17586774,9.754603,-0.99355704
1409523396200,0.39085343,9.89344,-0.9684546,0.2041282,9.754538,-0.98879844
1409523396211,0.40222588,9.780912,-0.9636662,0.22354719,9.754599,-0.9839586
1409523396217,0.46387658,9.753978,-0.94810385,0.24280368,9.754322,-0.9821422
1409523396232,0.53091425,9.827001,-0.9139865,0.26650253,9.753847,-0.98073596
1409523396249,0.60693014,9.861118,-0.8810662,0.29350862,9.753735,-0.97411877
1409523396256,0.6099229,9.863512,-0.87448215,0.32624564,9.7534485,-0.96655446
1409523396274,0.53091425,9.943718,-0.9032126,0.3562053,9.753192,-0.9585122
1409523396274,0.43394905,10.055647,-0.93493575,0.3746876,9.752989,-0.953536
1409523396276,0.3196259,10.143036,-0.96785605,0.38162208,9.752915,-0.95151585
1409523396285,0.2160767,10.222044,-0.96905315,0.3766934,9.752983,-0.9527866
1409523396299,0.1412579,10.269928,-0.96067345,0.36176556,9.753361,-0.9547186
1409523396313,0.16101007,10.286688,-0.93613285,0.34094462,9.754202,-0.95378673
1409523396319,0.18555063,10.2974615,-0.8948329,0.32334232,9.754861,-0.95316875
1409523396330,0.18734628,10.223241,-0.90500826,0.31081134,9.755711,-0.94862676
1409523396348,0.16579847,10.144233,-0.90500826,0.2988327,9.7564,-0.94538295
1409523396349,0.093373865,10.1621895,-0.8984242,0.28539953,9.757197,-0.9412822
1409523396361,0.046686932,10.163386,-0.8750807,0.26576838,9.75834,-0.9351994
1409523396365,-0.006584055,10.329783,-0.80684596,0.24321635,9.7597885,-0.9261694
1409523396381,-0.090979666,10.166379,-0.7308301,0.21721448,9.761953,-0.9096523
1409523396385,-0.093972415,10.093356,-0.7164649,0.18698534,9.764361,-0.8903154
1409523396399,-0.11252748,9.952098,-0.76434886,0.15810645,9.766517,-0.8720922
1409523396421,-0.12389994,9.862315,-0.8583213,0.13160744,9.767796,-0.8621147
1409523396422,-0.15981296,9.72824,-0.9995792,0.107702255,9.76798,-0.8633513
1409523396426,-0.23044191,9.728839,-1.0648212,0.08226123,9.766902,-0.8782019
1409523396455,-0.30286652,9.858724,-1.1480197,0.0519336,9.76547,-0.89625764
1409523396456,-0.38606504,9.883265,-1.1971009,0.017105449,9.7634945,-0.91885453
1409523396457,-0.5189432,9.770737,-1.1420342,-0.023065526,9.761142,-0.9433853
1409523396465,-0.61112,9.680955,-1.0642227,-0.07228052,9.75907,-0.96214235
1409523396489,-0.63206923,9.568427,-0.9923966,-0.12541093,9.757706,-0.97048247
1409523396490,-0.3561375,9.689933,-0.93373865,-0.17599282,9.756666,-0.9730764
1409523396499,-0.074220255,10.035895,-0.9091981,-0.19245033,9.756787,-0.96874654
1409523396523,-0.010773907,10.220248,-0.8690952,-0.17806846,9.758107,-0.95813835
1409523396524,-0.019752163,9.970055,-0.86011696,-0.16033436,9.759948,-0.9424004
1409523396525,0.06823475,9.980229,-0.96785605,-0.1475418,9.761367,-0.92970836
1409523396558,0.12030864,9.97604,-1.0313023,-0.12627017,9.761666,-0.9296884
1409523396559,0.13227965,9.880871,-1.0462662,-0.100249015,9.76155,-0.9340777
1409523396560,0.12330139,9.863512,-1.0851719,-0.07548019,9.76125,-0.9395133
1409523396565,0.0676362,9.995792,-1.1587936,-0.055050563,9.760522,-0.94848
1409523396584,0.010773907,10.122087,-1.1875241,-0.042088207,9.759139,-0.9632391
1409523396598,-0.010175358,10.0029745,-1.1378443,-0.035037413,9.757577,-0.9792101
1409523396598,0.038307227,9.783905,-1.0217255,-0.030893736,9.75636,-0.99140716
1409523396614,0.08319851,9.697714,-0.95229375,-0.022528058,9.756033,-0.99483687
1409523396632,0.13946225,9.81503,-0.9115923,-0.011525018,9.756394,-0.991475
1409523396632,0.10115502,9.973646,-0.87208796,0.0056271926,9.757029,-0.98526603
1409523396651,0.0724246,10.002377,-0.86490536,0.016585516,9.758104,-0.974437
1409523396652,0.14604631,10.007763,-0.88525605,0.023709085,9.759211,-0.96312845
1409523396665,0.25318682,9.990405,-0.92535895,0.038422085,9.760001,-0.95460945
1409523396666,0.26874915,9.813833,-0.96067345,0.062671855,9.760357,-0.9497008
1409523396680,0.21308395,9.722255,-1.0594343,0.08540566,9.760265,-0.94885105
1409523396699,0.14724341,9.759365,-1.292869,0.100329384,9.759139,-0.95892
1409523396700,-0.059855044,9.589975,-1.352724,0.10624036,9.75606,-0.98915166
1409523396728,-0.13946225,9.385271,-1.2797008,0.090517014,9.752675,-1.0234756
1409523396729,-0.1328782,9.3583355,-1.1360487,0.06718261,9.750034,-1.0501063
1409523396731,0.06344634,9.482236,-1.0205284,0.04613865,9.748991,-1.0608715
1409523396746,0.31663316,9.582193,-0.94810385,0.046472996,9.749333,-1.0577114
1409523396746,0.45669398,9.625888,-0.89782566,0.072482176,9.750383,-1.0465105
1409523396768,0.5434838,9.692925,-0.80564886,0.110630125,9.751704,-1.0307525
1409523396769,0.6015432,9.589376,-0.6835446,0.15484716,9.753588,-1.0069537
1409523396777,0.6488287,9.609727,-0.6099229,0.1711638,9.755631,-0.9842585
1409523396807,0.61530983,9.68275,-0.63087213,0.1894298,9.757927,-0.95779294
1409523396808,0.5129577,9.727641,-0.75956047,0.20846945,9.760117,-0.9311403
1409523396808,0.4902128,9.759365,-0.88046765,0.2251058,9.761816,-0.9092126
1409523396817,0.56084174,9.953295,-1.0031705,0.24436551,9.762787,-0.89369
1409523396838,0.6476316,10.111911,-1.0845734,0.26908815,9.762909,-0.8852071
1409523396839,0.6039374,9.97604,-1.1031284,0.30138534,9.7624035,-0.8803706
1409523396845,0.48722005,9.980828,-1.1330559,0.33431992,9.761391,-0.8796914
1409523396869,0.37828386,10.178948,-1.1617863,0.36808074,9.75996,-0.8820966
1409523396870,0.3716998,10.1861315,-1.1073183,0.4008353,9.758155,-0.8877686
1409523396877,0.3681085,10.11251,-1.0001777,0.43400165,9.756003,-0.89577335
1409523396903,0.32800564,10.119094,-0.8655039,0.46816638,9.753491,-0.90589654
1409523396904,0.31483752,10.172963,-0.80325466,0.5004586,9.750782,-0.9177036
1409523396906,0.29269117,10.272323,-0.78888947,0.53038204,9.747853,-0.93190587
1409523396936,0.25617957,10.356119,-0.79846627,0.55808717,9.744831,-0.9472055
1409523396938,0.23882163,10.387244,-0.7966706,0.5832637,9.741587,-0.96522146
1409523396938,0.25737667,10.429143,-0.8122329,0.6050006,9.738228,-0.98553914
1409523396946,0.31004912,10.422559,-0.87927055,0.6231868,9.734784,-1.0079619
1409523396969,0.40521863,10.294469,-0.9528923,0.6391136,9.7311325,-1.0329528
1409523396977,0.51714754,10.1460285,-1.0007763,0.6539649,9.727302,-1.0593959
1409523396979,0.66858083,10.076596,-1.0151415,0.66780835,9.7236,-1.0844481
1409523397007,0.82779527,10.055049,-1.039682,0.68161684,9.720245,-1.1057376
1409523397008,0.9888053,10.128072,-1.062427,0.69700086,9.717029,-1.124263
1409523397009,1.1384429,10.203489,-1.0809821,0.71227294,9.714522,-1.1362875
1409523397038,1.2665327,10.167576,-1.0690111,0.7267302,9.712902,-1.1409585
1409523397039,1.3497312,10.199299,-1.055843,0.7402619,9.712271,-1.1376301
1409523397040,1.4502877,10.313622,-1.0510546,0.7514432,9.712678,-1.126773
1409523397046,1.4939818,10.326791,-1.0384849,0.7608441,9.714033,-1.1086282
1409523397069,1.4137762,10.280702,-1.0121487,0.7684622,9.716146,-1.0846205
1409523397070,1.2300211,10.208278,-1.0013748,0.7732363,9.718675,-1.0582157
1409523397077,1.0181342,10.108319,-1.0696096,0.76919895,9.721982,-1.0304351
1409523397102,0.9115923,9.895834,-1.1653777,0.7573104,9.72563,-1.0044883
1409523397103,0.7906851,9.845556,-1.1959038,0.74325496,9.729015,-0.9819476
1409523397106,0.6398504,9.888053,-1.2336124,0.7292095,9.732103,-0.96166766
1409523397117,0.53570265,9.900622,-1.2431892,0.71478,9.7348175,-0.9448911
1409523397136,0.48602295,9.865308,-1.2808979,0.69981885,9.7371235,-0.9322457
1409523397138,0.46028528,9.860519,-1.3311762,0.6854732,9.738917,-0.9241346
1409523397146,0.45250413,9.902418,-1.3724761,0.6714991,9.740433,-0.9183801
1409523397169,0.4417302,9.979631,-1.3587095,0.6588114,9.741585,-0.91537344
1409523397170,0.40462008,9.980828,-1.400608,0.6471891,9.742614,-0.91271186
1409523397177,0.3800795,10.122087,-1.4425066,0.6354297,9.743601,-0.91041297
1409523397208,0.36032736,10.223241,-1.4000094,0.62349635,9.7445965,-0.90801585
1409523397210,0.35194764,10.159196,-1.3551182,0.61223674,9.745611,-0.9047762
1409523397212,0.37588966,10.077793,-1.2659341,0.6017045,9.74649,-0.9023916
1409523397246,0.4369418,9.958682,-1.1965023,0.5921908,9.747286,-0.90007156
1409523397249,0.480636,9.876082,-1.1216835,0.5855898,9.747723,-0.8996661
1409523397253,0.50397944,9.907805,-1.0079589,0.5811039,9.747766,-0.90207374
1409523397254,0.5398925,10.048465,-0.789488,0.5774679,9.747585,-0.90637535
1409523397266,0.6404489,10.308834,-0.74639237,0.57465166,9.747353,-0.9106651
1409523397267,0.7110779,10.359112,-0.6679823,0.57325643,9.746801,-0.9174014
1409523397281,0.789488,10.380061,-0.6326678,0.5726374,9.745896,-0.92736393
1409523397303,0.842759,10.348338,-0.587178,0.57275665,9.744566,-0.9411566
1409523397305,0.8451532,10.296863,-0.5805939,0.5737597,9.74304,-0.9562126
1409523397309,0.8714894,10.229825,-0.5434838,0.5753595,9.741091,-0.9749279
1409523397329,0.8882488,10.1699705,-0.53929394,0.5775231,9.73884,-0.99592465
1409523397330,0.91937345,10.113707,-0.5243302,0.5795359,9.736351,-1.0188134
1409523397355,0.9756372,10.01734,-0.5093664,0.5816256,9.733732,-1.0423768
1409523397355,1.0217255,9.874287,-0.5057751,0.58507836,9.731017,-1.0655266
1409523397358,1.0767922,9.802461,-0.53809685,0.58907944,9.728433,-1.0867313
1409523397366,1.0815806,9.807249,-0.5847838,0.5932985,9.725899,-1.106939
1409523397378,1.0708067,9.806051,-0.6266823,0.59700406,9.72369,-1.1241946
1409523397438,1.1306617,9.754577,-0.66618663,0.59891343,9.72209,-1.1369485
1409523397439,1.1725603,9.712079,-0.6919243,0.5994979,9.721349,-1.142961
1409523397441,1.2000936,9.749189,-0.7146692,0.5988731,9.721745,-1.1399199
1409523397443,1.2072762,9.830592,-0.7344214,0.5977806,9.723463,-1.1257759
1409523397447,1.1468226,9.888652,-0.7673417,0.59626263,9.726449,-1.1004795
1409523397449,1.0163386,9.966463,-0.8265981,0.59371936,9.730445,-1.0659873
1409523397450,0.89064306,10.119692,-0.86370826,0.58980304,9.734807,-1.027638
1409523397469,0.7344214,10.220847,-0.943914,0.5834367,9.739742,-0.98357236
1409523397470,0.5626374,10.242993,-1.033098,0.5752511,9.744701,-0.93823063
1409523397477,0.39803603,10.178948,-1.1049241,0.56624275,9.7491665,-0.89638114
1409523397497,0.22864626,10.099341,-1.1677719,0.5579548,9.752873,-0.86054075
1409523397498,0.08319851,10.061034,-1.192911,0.5497145,9.755757,-0.8327274
1409523397511,-0.048482586,10.031705,-1.2366052,0.5414231,9.75782,-0.813758
1409523397528,-0.20051439,9.951499,-1.2252327,0.53274727,9.759078,-0.80433166
1409523397529,-0.3465607,9.859323,-1.2204443,0.52178925,9.76003,-0.79996824
1409523397546,-0.44532153,9.787497,-1.2186487,0.51011574,9.760332,-0.80380356
1409523397546,-0.48841715,9.6845455,-1.2443863,0.49731913,9.760094,-0.8146575
1409523397561,-0.4961983,9.629479,-1.240795,0.4846873,9.759384,-0.83060503
1409523397566,-0.44352585,9.709086,-1.2360066,0.47328883,9.758379,-0.8487715
1409523397580,-0.4201824,9.862315,-1.2138603,0.46412793,9.757334,-0.8656925
1409523397595,-0.45789108,10.003573,-1.1905168,0.45653704,9.7565365,-0.8786217
1409523397598,-0.52612585,10.0269165,-1.1665748,0.4491475,9.7559805,-0.8885279
1409523397612,-0.5494693,9.939528,-1.1474211,0.43988517,9.755932,-0.89369863
1409523397626,-0.50637364,9.844358,-1.1420342,0.4286302,9.756316,-0.894972
1409523397626,-0.39025488,9.81084,-1.2018893,0.41724694,9.756922,-0.8937581
1409523397641,-0.2765303,9.765948,-1.2856863,0.40833735,9.757486,-0.891708
1409523397646,-0.16998832,9.742006,-1.328782,0.40196753,9.757879,-0.8902878
1409523397669,-0.012569559,9.811439,-1.2958617,0.39666095,9.758159,-0.8896005
1409523397674,0.14784196,9.947908,-1.2306197,0.39308864,9.758479,-0.8876761
1409523397678,0.20350714,10.061034,-1.1827357,0.39185178,9.758868,-0.8839485
1409523397707,0.18136078,10.113108,-1.1713632,0.39312226,9.759426,-0.87720037
1409523397708,0.17657238,10.0903635,-1.1414356,0.3952885,9.760067,-0.8690463
1409523397709,0.2184709,10.03769,-1.0749966,0.3988424,9.760638,-0.8609727
1409523397727,0.29568392,10.0029745,-1.033098,0.40460342,9.760906,-0.8552157
1409523397727,0.35314476,9.9790325,-0.997185,0.41262776,9.760695,-0.8538183
1409523397742,0.3890578,9.915586,-0.8948329,0.42193976,9.760018,-0.85697633
1409523397746,0.43275195,9.808446,-0.80564886,0.43091655,9.759238,-0.8613931
1409523397769,0.4405331,9.753978,-0.7188591,0.4394532,9.758335,-0.86731416
1409523397770,0.43514615,9.76954,-0.6428431,0.4466288,9.757556,-0.872368
1409523397778,0.40222588,9.779117,-0.5979519,0.45358345,9.756935,-0.87572634
1409523397803,0.38367084,9.826403,-0.60932434,0.4600699,9.756409,-0.87819093
1409523397804,0.33399114,9.872491,-0.6548142,0.46578738,9.755911,-0.8807034
1409523397806,0.2717419,9.93474,-0.78170687,0.47150254,9.755288,-0.8845422
1409523397826,0.15682021,9.943718,-0.961272,0.4770365,9.754476,-0.8905239
1409523397827,0.12389994,9.81922,-0.9768343,0.48195702,9.753484,-0.89871675
1409523397842,0.14305355,9.739613,-0.9283517,0.48818305,9.752279,-0.9083467
1409523397846,0.17118542,9.710882,-0.8074445,0.4964096,9.750922,-0.91841865
1409523397863,0.2208651,9.745598,-0.74399817,0.50602233,9.749537,-0.9278234
1409523397877,0.26755205,9.844358,-0.6715736,0.5174509,9.748042,-0.93718195
1409523397881,0.27473465,9.900622,-0.6338649,0.5299825,9.746507,-0.9460988
1409523397900,0.2837129,9.962872,-0.59855044,0.54199415,9.744938,-0.95542353
1409523397900,0.28311434,9.939528,-0.5859809,0.55286914,9.74341,-0.9647157
1409523397906,0.26156655,9.92636,-0.5530606,0.5633026,9.741919,-0.97370785
1409523397928,0.22445641,9.892242,-0.5506664,0.5724863,9.740577,-0.98173916
1409523397928,0.20290859,9.85633,-0.58418524,0.5793074,9.739483,-0.9885611
1409523397941,0.1945289,9.761759,-0.65660983,0.58371145,9.738702,-0.99366444
1409523397946,0.18255788,9.662399,-0.7374141,0.5869959,9.73812,-0.9974444
1409523397967,0.17776948,9.551069,-0.79487497,0.5906585,9.737626,-1.000082
1409523397968,0.21068975,9.474455,-0.8607155,0.59559625,9.737188,-1.0014219
1409523397979,0.25857377,9.490017,-0.9068039,0.60145754,9.736684,-1.0028024
1409523398004,0.320823,9.533711,-0.87448215,0.6088351,9.736115,-1.0038651
1409523398005,0.37110126,9.589376,-0.830788,0.61775696,9.735535,-1.0040594
1409523398007,0.40940848,9.7324295,-0.80564886,0.6274115,9.734961,-1.0036397
1409523398030,0.38726214,9.852738,-0.8050503,0.6370044,9.734418,-1.0028746
1409523398031,0.3429694,9.883863,-0.8655039,0.64689654,9.733783,-1.0027072
1409523398050,0.26396075,9.889849,-0.9391256,0.65747696,9.732947,-1.003906
1409523398051,0.17836803,9.869498,-1.01574,0.66872346,9.731894,-1.006695
1409523398060,0.077811554,9.827001,-1.0133458,0.67940295,9.730735,-1.0107461
1409523398075,-0.020350715,9.881469,-0.98461545,0.690596,9.72952,-1.0148497
1409523398078,-0.10414778,10.018537,-0.94930094,0.7011764,9.728371,-1.0186112
1409523398092,-0.18315643,10.164583,-0.88525605,0.7107541,9.727278,-1.0223937
1409523398117,-0.24061728,10.247183,-0.8415619,0.7192913,9.726255,-1.026147
1409523398118,-0.22924481,10.23222,-0.8726865,0.7262699,9.725218,-1.0310528
1409523398121,-0.18674773,10.204087,-0.89303726,0.73121554,9.723908,-1.0398731
1409523398127,-0.16519992,10.121488,-0.943914,0.735003,9.722407,-1.0511571
1409523398147,-0.17298107,9.968858,-1.0408791,0.7346274,9.720734,-1.0667988
1409523398148,-0.16220717,9.72824,-1.1366472,0.72902185,9.719128,-1.0851191
1409523398158,-0.12868834,9.498397,-1.2551602,0.71684974,9.717795,-1.1049621
1409523398183,-0.14604631,9.390059,-1.3383588,0.6972081,9.716872,-1.125468
1409523398184,-0.12509704,9.303269,-1.4275428,0.6702137,9.716528,-1.144673
1409523398187,0.092176765,9.233837,-1.5107412,0.6372326,9.716834,-1.1608118
1409523398235,0.39444473,9.261371,-1.555034,0.6023747,9.717667,-1.1723852
1409523398236,0.6452374,9.348759,-1.5747862,0.56959903,9.718583,-1.1811428
1409523398238,0.84694886,9.486425,-1.5412674,0.5389175,9.720071,-1.1832898
1409523398241,1.0869676,9.662998,-1.4933833,0.5125778,9.722194,-1.1775442
1409523398242,1.4580688,9.863512,-1.460463,0.49521104,9.724949,-1.1621176
1409523398251,1.8579005,10.208278,-1.3874398,0.49332947,9.72812,-1.136093
1409523398283,2.2397757,10.723629,-1.3605051,0.5105404,9.73149,-1.0990138
1409523398284,2.6018987,11.179725,-1.2491747,0.54538494,9.734859,-1.0514132
1409523398286,2.8311436,11.6585655,-1.0402806,0.5920757,9.737722,-0.9983013
1409523398289,2.6952724,11.843517,-0.8295909,0.64195585,9.740628,-0.9372664
1409523398346,2.0949266,11.83813,-0.5482722,0.68254095,9.743668,-0.8749314
1409523398350,1.4341269,11.741764,-0.19752164,0.6995231,9.747539,-0.8164305
1409523398351,1.0217255,11.403583,0.016759412,0.6908324,9.752356,-0.76465416
1409523398353,0.93493575,10.758346,0.12509704,0.66794896,9.757126,-0.7229865
1409523398354,1.1384429,10.189124,-0.19931729,0.64470136,9.760717,-0.69507253
1409523398373,1.2515689,9.7084875,-0.4973954,0.62899524,9.762334,-0.6867415
1409523398373,1.0546459,9.325416,-0.7356185,0.6181424,9.762906,-0.68843836
1409523398374,0.83378077,9.11712,-0.9487024,0.6049536,9.76237,-0.70750636
1409523398379,0.7739257,9.077017,-1.3664906,0.5866443,9.761162,-0.7388832
1409523398424,1.0348936,9.140464,-2.4420857,0.5677935,9.759013,-0.7808314
1409523398426,1.021127,9.1033535,-2.6563668,0.55505174,9.755161,-0.836132
1409523398427,0.8583213,8.950723,-2.5875335,0.54400283,9.750767,-0.8927682
1409523398428,0.62967503,8.78672,-2.3175871,0.5299208,9.746778,-0.94336206
1409523398429,0.41060558,8.718486,-1.9722236,0.5102511,9.743322,-0.9887942
1409523398449,0.27832595,8.815451,-1.5167267,0.48538554,9.740888,-1.0246445
1409523398450,0.2777274,9.10455,-1.039682,0.4608476,9.73917,-1.051933
1409523398459,0.28790274,9.31524,-0.54288524,0.43877253,9.737375,-1.0776939
1409523398488,0.24181437,9.487623,0.049679685,0.42064506,9.73465,-1.1090724
1409523398489,0.31483752,9.738416,0.5093664,0.40441376,9.730435,-1.1512878
1409523398490,0.44532153,9.947908,0.9624691,0.38938424,9.7239895,-1.2094727
1409523398524,0.6075287,10.065823,1.4024036,0.3764815,9.71488,-1.284428
1409523398525,0.789488,10.168175,2.0009542,0.36502135,9.704465,-1.3640076
1409523398526,1.0552444,10.318411,2.4522612,0.35759297,9.691904,-1.4524213
1409523398528,1.1043255,10.45907,1.8010383,0.35502136,9.676913,-1.5497347
1409523398555,1.1186907,10.405201,0.21188685,0.35681495,9.656854,-1.6698091
1409523398556,1.4873978,10.146626,-1.2641385,0.36369684,9.628079,-1.8270634
1409523398559,2.099715,9.830592,-2.1481974,0.38101563,9.590113,-2.0136926
1409523398578,2.3989902,9.560646,-2.2068555,0.41135204,9.546331,-2.2065263
1409523398579,1.7525556,9.472659,-1.4047978,0.4442796,9.50438,-2.3748193
1409523398594,1.0193313,9.53012,-0.7110779,0.46343002,9.467089,-2.5159113
1409523398622,0.35553896,9.437943,-0.43993455,0.46417233,9.444531,-2.599178
1409523398622,-0.030526072,9.415796,-0.7074866,0.44582918,9.438031,-2.6258686
1409523398623,-0.0035913025,9.333796,-1.3425486,0.41926003,9.444561,-2.6067016
1409523398628,-0.008978256,9.390657,-1.882441,0.39425182,9.458909,-2.5581164
1409523398658,-0.09636662,9.874287,-2.3600843,0.3710022,9.477211,-2.493035
1409523398659,-0.13826515,10.338163,-2.7204118,0.3446043,9.498055,-2.4163153
1409523398661,-0.2621651,10.499173,-2.7090392,0.31842035,9.518996,-2.3361692
1409523398682,-0.3513491,10.574591,-2.504335,0.28638476,9.540409,-2.2514415
1409523398684,-0.31064767,10.432734,-2.2762873,0.24910453,9.5587635,-2.1767774
1409523398688,-0.046088383,10.309433,-2.3211784,0.20144933,9.571797,-2.1237922
1409523398722,0.45190558,10.48002,-2.557606,0.14428864,9.579315,-2.094352
1409523398723,0.96546185,10.67814,-2.895787,0.0859443,9.581759,-2.0863564
1409523398724,1.3874398,10.977415,-3.2962172,0.03340075,9.579583,-2.0978312
1409523398727,1.673547,11.398794,-3.445855,-0.010966215,9.573763,-2.1244586
1409523398754,2.0392613,11.902175,-3.0789435,-0.0471905,9.566684,-2.155624
1409523398754,2.5504234,12.423512,-2.3594859,-0.07183073,9.559397,-2.1870475
1409523398758,3.3614593,13.0280485,-0.97982705,-0.07791005,9.553612,-2.2119756
1409523398777,5.395334,13.698425,2.557606,-0.059116498,9.551889,-2.2199829
1409523398794,6.8569937,14.033014,4.237737,0.005335224,9.561002,-2.1812003
1409523398794,6.855198,14.021044,2.4253263,0.1034934,9.569107,-2.1428683
1409523398809,6.555324,13.854647,0.9516952,0.18485622,9.552381,-2.2109475
1409523398810,6.951565,13.184869,1.5676036,0.22638328,9.518984,-2.346934
1409523398825,7.6764092,12.398374,3.6870706,0.2518249,9.471138,-2.530712
1409523398827,7.515998,12.187085,9.288904,0.26762775,9.430505,-2.6766272
1409523398843,5.816713,12.987347,8.97287,0.30137044,9.441725,-2.633135
1409523398859,4.950012,12.800599,2.9771898,0.32906246,9.50427,-2.39394
1409523398860,3.7535098,11.2689085,0.8690952,0.3709709,9.571176,-2.1036506
1409523398874,3.180697,11.561002,-0.25378537,0.44350103,9.622386,-1.8393942
1409523398879,3.0550013,11.605294,-1.2557588,0.54004157,9.658642,-1.6091584
1409523398893,1.6208745,11.358093,-0.5255273,0.64372635,9.686118,-1.3910998
1409523398910,-0.16639702,12.0488205,0.08319851,0.7583888,9.708392,-1.1585977
1409523398911,-0.7685388,13.509882,-1.5346833,0.8764327,9.725158,-0.90750283
1409523398924,-0.1412579,13.303382,-3.8067808,1.0031542,9.731821,-0.6750896
1409523398927,-0.4890157,14.3179245,-5.3223104,1.1619548,9.725599,-0.48267335
1409523398941,-0.90021986,16.416443,-5.061941,1.3326457,9.710564,-0.31520563
1409523398957,-0.5638345,19.091364,-4.8081555,1.4969673,9.690761,-0.13661183
1409523398961,-1.1504139,18.788498,-5.395932,1.6446953,9.667636,0.04682254
1409523398972,-3.347094,16.54154,-5.115212,1.7655791,9.643598,0.23263036
1409523398979,-5.427655,14.512454,-4.3640313,1.8019761,9.63011,0.42925403
1409523398993,-4.56275,12.637196,-3.4213142,1.733409,9.631722,0.6289874
1409523399009,-1.1857284,11.862671,-3.153762,1.6260136,9.636699,0.8127137
1409523399009,2.416348,11.923723,-0.94092125,1.5611128,9.6341095,0.9577333
1409523399036,2.8401217,11.360487,-1.6681601,1.5973312,9.614363,1.0876466
1409523399038,1.4694413,9.900622,-4.988918,1.717802,9.580985,1.1934255
1409523399040,0.24480712,8.356362,-5.7945666,1.8569872,9.546622,1.2585827
1409523399062,-0.8146271,7.6770077,-3.8546648,2.0013838,9.511242,1.3042815
1409523399062,-1.7381904,6.525397,-0.2717419,2.1377027,9.475014,1.35083
1409523399073,-1.7537527,5.363012,1.7681179,2.275532,9.433522,1.4145772
1409523399096,-1.3443443,4.55856,0.5746084,2.4226258,9.386173,1.4835929
1409523399096,-0.5069722,4.4921207,-1.0642227,2.5781832,9.334744,1.5446414
1409523399100,0.073621705,4.4927197,-1.6436194,2.7222655,9.282904,1.6085268
1409523399138,0.076614454,4.2413282,-1.4790181,2.8350847,9.233742,1.6943092
1409523399139,-0.20470424,3.7565024,-1.0875661,2.9205818,9.184586,1.8121725
1409523399141,-0.521936,3.2513258,-1.9003977,2.9844804,9.136059,1.9482604
1409523399143,-0.8391677,3.0304608,-2.9460652,3.0224383,9.089905,2.099732
1409523399168,-1.4981717,2.6449943,-3.544017,3.0470767,9.048211,2.2395515
1409523399169,-2.6503813,2.2307975,-3.4195185,3.0667975,9.012098,2.3552556
1409523399169,-3.6379895,2.315193,-2.5953147,3.07994,8.981963,2.4512644
1409523399197,-4.061165,2.5540147,-1.846528,3.0889606,8.9573345,2.528812
1409523399198,-3.8163576,3.1531637,-1.2946646,3.1041377,8.934967,2.5886438
1409523399210,-3.517681,3.3129766,-1.0061632,3.1245875,8.917403,2.624364
1409523399212,-3.2638955,3.0334535,-1.2425907,3.1582255,8.906403,2.6214502
1409523399239,-3.2273839,2.8491,-1.5071499,3.1895063,8.9058,2.5853734
1409523399240,-3.2231941,3.3261447,-1.4095862,3.199136,8.9195385,2.5254216
1409523399241,-3.0992942,4.5154643,-0.5530606,3.1779459,8.949078,2.4464386
1409523399269,-2.8281507,6.241085,1.3754689,3.1258833,8.992765,2.3514693
1409523399269,-2.3648727,8.687361,5.9358244,3.043602,9.048414,2.2434497
1409523399270,-0.22804771,14.366407,12.151173,2.9302273,9.106558,2.1574922
1409523399302,8.239645,19.608511,16.888699,2.7630687,9.163542,2.13667
1409523399303,18.058266,19.608511,13.756484,2.6637607,9.232415,1.9588981
1409523399304,19.557634,19.608511,7.53575,2.5838206,9.279872,1.8380042
1409523399308,14.833876,16.878523,2.110489,2.5641818,9.299961,1.762409
1409523399333,8.222886,11.163564,2.0685902,2.6234212,9.311986,1.6046792
1409523399334,4.1419687,9.488221,4.4101195,3.7090225,8.6887665,2.630375
1409523399339,3.300407,10.373477,6.1902084,3.7104168,8.663697,2.7099009
1409523399366,2.1176715,9.922171,4.803367,3.5989256,8.620508,2.98412
1409523399367,1.1360487,7.363966,0.9624691,3.4438052,8.617543,3.169946
1409523399368,0.9367314,6.9605427,-4.0803185,3.2896192,8.68659,3.1451435
1409523399403,-1.1905168,11.705851,-8.564059,3.165934,8.883742,2.688192
1409523399403,-2.1972785,16.347609,-8.248025,2.7819672,9.248281,1.7030473
1409523399404,-2.4516625,16.927006,-3.0442274,2.2164168,9.523971,0.74286175
1409523399408,-2.3427265,15.157691,6.6002154,1.6614785,9.657132,0.38685608
1409523399425,-1.1941081,13.019669,7.5920134,1.2364031,9.687031,0.8961693
1409523399429,-2.5492263,10.998364,0.44113165,0.9649521,9.654163,1.4270184
1409523399442,-2.3505075,11.935096,-2.4169466,0.64096755,9.701619,1.2799045
1409523399463,-1.0372878,12.8832,-0.52852005,0.37870312,9.756612,0.9140622
1409523399464,-2.441487,10.414778,-0.6655881,0.27710268,9.770222,0.7977306
1409523399468,-2.983774,7.9116397,-2.2146366,0.05404548,9.782351,0.68781465
1409523399495,-1.4323312,7.4004774,-2.712032,-0.21656616,9.7948265,0.4299634
1409523399496,-1.0588357,7.7159133,-2.15538,-0.3275189,9.800017,0.15105757
1409523399501,-1.7058687,8.08462,-1.5915456,-0.40579307,9.798093,-0.05590486
1409523399508,-2.8592753,7.840412,-1.1414356,-0.56496966,9.788404,-0.19580987
1409523399521,-3.383007,6.5307837,-0.9756372,-0.8397836,9.766401,-0.2873007
1409523399541,-2.2888567,7.147889,-1.027711,-1.1488204,9.732682,-0.35431302
1409523399542,-1.1168951,8.57184,-0.98102415,-1.3000454,9.711298,-0.4134938
1409523399563,-0.7781156,10.048465,-0.9044097,-1.2861084,9.711159,-0.4579445
1409523399564,-1.2731167,11.206659,-0.83258367,-1.2236494,9.717784,-0.48761594
1409523399568,-1.8950106,12.121843,-0.878672,-1.2185417,9.717357,-0.5084603
1409523399598,-1.905186,12.761694,-0.94570965,-1.2807401,9.708542,-0.52376825
1409523399600,-1.2210429,12.561179,-1.2617443,-1.3282448,9.700975,-0.5452169
1409523399601,-0.25857377,11.550227,-1.6226702,-1.2845439,9.703901,-0.59550947
1409523399608,0.670975,10.353725,-1.6041151,-1.1415392,9.716293,-0.67895025
1409523399625,1.5478514,9.340978,-2.4552538,-0.92766845,9.733136,-0.7588832
1409523399644,2.72939,9.03452,-4.404134,-0.6591193,9.741425,-0.9168489
1409523399645,3.459023,9.138069,-4.9559975,-0.30440453,9.722043,-1.248836
1409523399648,3.3566709,8.965687,-3.2680852,0.073591456,9.675319,-1.5978719
1409523399659,2.396596,8.22528,-3.4320881,0.39856443,9.634806,-1.7838384
1409523399670,1.6226702,7.6321163,-3.5895069,0.57028073,9.582461,-2.0054011
1409523399693,1.4323312,7.439383,-4.0563765,0.6327008,9.522413,-2.256933
1409523399694,0.6997054,6.8186865,-4.1371803,0.69317955,9.449184,-2.5303795
1409523399718,0.5105635,7.3005195,-3.6661212,0.70994717,9.380019,-2.7715719
1409523399719,1.0815806,8.546701,-2.758719,0.7041028,9.332916,-2.9276762
1409523399720,1.3748703,9.426571,-1.7304093,0.7390236,9.322899,-2.9508958
1409523399749,1.0372878,9.43076,-0.3333926,0.8022027,9.350173,-2.8462486
1409523399750,0.3549404,9.045893,0.6769605,0.81610656,9.415456,-2.6179302
1409523399750,-0.26276365,8.602366,1.021127,0.7518232,9.496458,-2.3286066
1409523399760,-0.6183026,8.367735,0.9959879,0.62660044,9.570311,-2.046188
1409523399771,-0.7302315,8.814852,0.86610246,0.48549104,9.628373,-1.7969811
1409523399790,-0.5746084,9.794679,0.6500258,0.35882485,9.673305,-1.5712469
1409523399790,-0.13587095,10.833763,0.36750996,0.26670155,9.706487,-1.3723543
1409523399820,0.47884035,11.625047,-0.05207389,0.22579905,9.729709,-1.2050693
1409523399821,1.0516531,12.061988,-0.46148238,0.2542536,9.741458,-1.0999004
1409523399822,1.4131776,12.245145,-0.5979519,0.33277825,9.745369,-1.0427958
1409523399846,1.5209166,12.391191,-0.65301853,0.42767102,9.745753,-1.0038854
1409523399854,1.560421,12.810176,-0.37229836,0.64877605,9.76059,-0.69308937
1409523399855,1.5795746,12.983756,1.4281414,0.64877605,9.76059,-0.69308937
1409523399875,2.7539306,12.62702,7.9942393,0.64877605,9.76059,-0.69308937
1409523399876,5.5587378,12.798205,8.716091,0.82149905,9.771864,0.078958385
1409523399893,6.6905966,13.823522,-3.316568,1.2079318,9.699872,0.7897911
1409523399894,6.025607,12.846089,-4.3382936,1.6267577,9.666701,0.2809116
1409523399900,6.0878563,10.331579,5.755661,1.926936,9.611898,-0.2620964
1409523399908,9.713276,13.311762,12.776657,2.2729023,9.533017,0.35479602
1409523399926,10.751163,16.236279,4.341286,2.857528,9.245089,1.5916187
1409523399928,6.6804214,14.211383,-4.292804,3.2562642,9.06604,1.8368574
1409523399940,5.1379566,13.135788,-6.3548098,3.2890527,9.14546,1.3088547
1409523399967,5.245097,12.303204,-7.181408,3.2997706,9.208529,0.69633394
1409523399968,4.1581297,10.982801,-5.01705,3.3562472,9.2144375,0.011100948
1409523399970,2.9759927,10.726024,-0.19153613,3.3831797,9.196187,-0.393245
1409523400006,2.8341362,12.242152,4.7267528,3.332604,9.216301,-0.35210693
1409523400006,2.8898015,13.728951,7.0048356,3.2589996,9.248661,0.10758155
1409523400007,2.6234465,13.713388,4.7387238,3.1751604,9.25134,0.708129
1409523400008,1.5915456,12.430696,1.9907787,3.0681877,9.25307,1.0664494
1409523400020,0.18255788,11.137826,0.08559271,2.9126358,9.290287,1.173663
1409523400039,0.15801731,11.118074,-1.3383588,2.6898947,9.359423,1.1558658
1409523400042,1.9740193,10.424355,-2.585738,2.502839,9.428922,1.0008137
1409523400061,2.6862943,9.8042555,-2.8089972,2.4942932,9.454569,0.7483388
1409523400062,1.6681601,10.092757,-2.6569653,2.5496402,9.457383,0.4771268
1409523400069,1.3263878,10.846333,-3.5248635,2.4987648,9.480128,0.23178208
1409523400091,1.8698715,18.429367,-5.1235914,2.4054086,9.506878,-0.06069018
1409523400092,1.271321,19.608511,-3.5314474,2.243671,9.537686,-0.4109059
1409523400111,-0.3489549,19.608511,-1.2449849,2.0493133,9.573459,-0.5653066
1409523400112,-4.992509,19.421764,-5.21098,1.763445,9.631857,-0.53661346
1409523400120,-7.8068933,12.352883,-8.57184,1.1889493,9.700173,-0.8145152
1409523400147,-7.304111,8.455123,-6.739079,0.48186406,9.692227,-1.4138256
1409523400148,-3.7367504,9.413403,-0.5883751,-0.1674962,9.625865,-1.8668355
1409523400149,-1.7058687,9.465476,-0.4818331,-0.45134836,9.6436825,-1.7222224
1409523400181,-0.7703344,9.197925,-5.2798133,-0.49634123,9.671829,-1.5426553
1409523400182,-0.30226797,8.55987,-7.687183,-0.48299718,9.626639,-1.8069056
1409523400183,0.046088383,7.04015,-6.754043,-0.45811963,9.527759,-2.276475
1409523400189,-0.035314474,5.0583496,-3.596091,-0.40218964,9.420705,-2.6942499
1409523400224,-0.789488,4.1222167,-1.1839328,-0.35636255,9.369736,-2.8725324
1409523400226,-1.1174936,3.7163997,0.6500258,-0.42984828,9.374271,-2.847568
1409523400227,-1.4951789,3.4859576,0.6536171,-0.5488786,9.42492,-2.6532996
1409523400247,-1.0342951,3.2722752,-0.45070848,-0.67940515,9.463481,-2.4801927
1409523400248,-0.2136825,3.582923,-2.086547,-0.74631155,9.462112,-2.4661372
1409523400251,-0.08020575,4.0587707,-2.3959973,-0.70856565,9.423877,-2.6189473
1409523400271,-0.65301853,3.8833952,-1.3976152,-0.6577835,9.37286,-2.8084183
1409523400272,-1.2180501,3.4883518,-1.1540052,-0.6824556,9.357087,-2.8547418
1409523400297,-1.5179238,3.1387985,-1.7154455,-0.8037241,9.345914,-2.8597822
1409523400298,-2.284667,2.6048915,-2.2152352,-0.98352885,9.299884,-2.9521604
1409523400300,-3.5380316,1.775899,-2.5582044,-1.2886859,9.198584,-3.1457434
1409523400330,-4.1742907,1.3922282,-2.372654,-1.8030548,9.013236,-3.4177423
1409523400331,-3.9875429,1.5023615,-1.6382325,-2.4265206,8.767638,-3.6620903
1409523400332,-3.3806129,1.9590555,-1.8543092,-3.0105815,8.542579,-3.7591412
1409523400361,-2.9987376,2.28347,-2.6964695,-3.4469407,8.3237095,-3.8736093
1409523400362,-2.9735985,2.461838,-2.9095535,-3.7666643,8.077559,-4.0909233
1409523400363,-3.268684,3.2615013,-1.3982137,-4.03973,7.822426,-4.319794
1409523400369,-3.3441012,5.1996074,3.040636,-4.3342395,7.7093306,-4.236858
1409523400396,-3.064578,9.850943,12.296021,-4.62234,7.9928074,-3.3044493
1409523400397,5.3061495,19.445705,19.608511,-4.5531917,8.662962,-0.62605274
1409523400402,19.452888,19.608511,19.608511,-4.6752024,8.57709,-0.8639435
1409523400423,18.127699,19.608511,15.9340105,-4.796581,8.486238,-1.0709665
1409523400423,8.815451,17.258602,6.3793507,-4.862587,8.437541,-1.1547998
1409523400441,5.9723363,7.9708962,1.578976,2.3450212,8.410254,4.4653015
1409523400441,2.6192567,3.0753522,6.0040593,2.863315,8.443945,4.083091
1409523400455,1.7142484,3.5009215,4.882974,3.0825233,8.249504,4.314411
1409523400471,-0.207697,3.881001,4.732738,3.0949707,8.114638,4.55458
1409523400472,-1.4987702,3.9199066,2.6390088,2.9052894,8.016153,4.8446846
1409523400490,-1.4532804,6.2542534,-5.1062336,2.5412488,8.06369,4.9688377
1409523400498,-2.0949266,10.916962,-12.479177,2.2515638,8.560045,4.2221403
1409523400532,-3.9193082,13.781624,-10.418967,1.825784,9.335907,2.3828025
1409523400534,-3.9175124,14.468161,-3.4398694,1.1058979,9.708846,0.82806647
1409523400535,-3.0585926,14.667479,2.7569232,0.4621955,9.788895,0.36649626
1409523400537,-0.5117606,16.81029,7.57286,0.04961188,9.785326,0.6444468
1409523400540,-3.2034419,15.579669,-1.0630256,-0.009383915,9.726949,1.2477254
1409523400559,-2.5384524,14.16709,-5.923255,-0.32300037,9.75838,0.9165476
1409523400561,-0.6266823,13.160927,-4.0258503,-0.52765983,9.789207,0.25176388
1409523400569,-0.7505822,10.779893,-2.6168625,-0.50524515,9.7929325,-0.116530485
1409523400595,-1.2078748,9.364322,-2.3744495,-0.5174856,9.788767,-0.28746903
1409523400596,-1.0899603,9.344569,-2.1458032,-0.6014496,9.777548,-0.4563318
1409523400601,-0.7230489,9.790489,-1.590947,-0.6643482,9.765263,-0.6072151
1409523400629,-1.1438298,9.34397,-0.9708488,-0.6901309,9.757565,-0.69570935
1409523400630,-2.030283,8.189965,-0.37110126,-0.76883876,9.749351,-0.7276297
1409523400631,-2.5366566,7.2502413,-0.5279215,-0.9242853,9.737448,-0.7058584
1409523400658,-1.1737574,8.488044,-0.8158242,-1.1340473,9.714935,-0.71016157
1409523400660,-0.670975,9.555259,-0.86011696,-1.1635598,9.709815,-0.7321488
1409523400661,-0.8750807,10.069414,-0.88286185,-1.1119657,9.714542,-0.74938107
1409523400669,-1.4083891,10.642825,-1.079785,-1.0884548,9.715961,-0.7653401
1409523400698,-1.697489,11.190498,-1.2886791,-1.130872,9.70885,-0.7935814
1409523400699,-1.388637,11.130045,-1.283292,-1.1928498,9.698414,-0.8296175
1409523400703,-0.6254852,10.533889,-1.3664906,-1.1989648,9.695428,-0.85529876
1409523400735,0.16819267,9.922171,-1.2132617,-1.1318141,9.700083,-0.8931885
1409523400738,0.96426475,9.3499565,-1.1947067,-0.9760933,9.715693,-0.90714324
1409523400739,1.7675194,8.730456,-1.7058687,-0.7584159,9.733337,-0.92591935
1409523400741,2.4702177,8.608353,-2.5330653,-0.49033904,9.74295,-1.0024295
1409523400765,2.783858,8.495825,-2.8508956,-0.18211803,9.736143,-1.1596335
1409523400765,2.4091654,7.8948803,-1.8650831,0.120985806,9.7142725,-1.3374097
1409523400770,1.8716671,6.8958993,-1.8082209,0.34736001,9.698029,-1.4135113
1409523400787,2.4833858,6.6121864,-2.7012582,0.5048358,9.677836,-1.5016663
1409523400789,3.9653966,7.4764934,-4.8338933,0.7123758,9.626058,-1.7326158
1409523400803,4.4759603,8.291719,-5.16968,1.0585461,9.50077,-2.1875224
1409523400818,3.6595373,8.523358,-4.1162314,1.4245772,9.355486,-2.5721283
1409523400823,2.779668,9.239823,-2.5234885,1.66405,9.266644,-2.7442057
1409523400835,2.1416135,9.463082,-0.8158242,1.7671199,9.257856,-2.7091966
1409523400855,1.6675615,9.585187,0.81163436,1.7897242,9.3045845,-2.5282414
1409523400855,1.4909891,9.877279,1.8195933,1.7674227,9.384843,-2.2296424
1409523400870,1.6579847,10.212467,2.0614076,1.7311604,9.472993,-1.8536102
1409523400870,2.0338743,10.994773,1.9931729,1.7203912,9.538841,-1.4903557
1409523400889,1.9937714,11.802815,1.3150153,1.733787,9.580976,-1.1701508
1409523400890,1.8171991,12.171523,0.79248077,1.7239497,9.60714,-0.94934785
1409523400902,1.9009962,12.167333,0.50757074,1.6843606,9.62784,-0.79873675
1409523400917,2.0003555,11.764508,0.40342298,1.6534553,9.641793,-0.6872335
1409523400921,1.99437,11.3138,0.55725044,1.6455894,9.649367,-0.59344435
1409523400934,1.7459716,11.217434,1.5705963,1.6489161,9.654166,-0.49856284
1409523400958,0.81881696,10.166978,6.925827,1.6322789,9.66449,-0.3220194
1409523400959,0.53570265,9.025542,8.787319,1.5546856,9.677021,0.3295723
1409523400961,1.9440918,10.852917,4.589086,1.4718524,9.635594,1.0767264
1409523400969,3.6816838,13.409326,-3.0472202,1.5094147,9.609106,1.2478526
1409523401001,3.5087025,12.794614,-2.9101522,1.6737419,9.642857,0.61990124
1409523401002,2.8616695,9.677961,4.5256395,1.7827482,9.640814,0.2165794
1409523401004,4.685453,11.756727,8.263587,1.8768069,9.589789,0.8269886
1409523401020,6.299743,14.890738,5.3378725,2.0900702,9.446617,1.6010695
1409523401021,6.2021794,15.544354,-3.235165,2.3387644,9.300848,2.0481195
1409523401036,5.2875943,14.174871,-6.2740054,2.4848874,9.35066,1.600276
1409523401054,4.9242744,12.998719,-5.78499,2.5726817,9.421399,0.8882082
1409523401055,4.9284644,11.3407345,-4.381389,2.670611,9.432328,0.26339814
1409523401069,4.0623617,10.900801,-3.6655228,2.8075063,9.394705,-0.16686171
1409523401070,2.902371,11.725004,-4.6962266,2.8781424,9.362734,-0.47529784
1409523401089,2.4127567,12.382812,-2.4169466,2.8361287,9.352371,-0.8123662
1409523401090,2.9981391,13.143569,3.7708676,2.7454693,9.36887,-0.9257924
1409523401103,4.06296,13.661315,8.474277,2.732845,9.406383,-0.47107175
1409523401117,3.5553896,13.514071,7.677606,2.8070278,9.390407,0.33353403
1409523401123,1.3317747,12.082339,4.563947,2.8263743,9.339549,0.9771529
1409523401135,0.3489549,11.083957,1.2234371,2.671304,9.344322,1.3107889
1409523401153,0.6596026,10.129269,-0.1412579,2.4611773,9.396151,1.3510417
1409523401153,3.2716765,9.728839,-1.2509704,2.3333046,9.439744,1.2717332
1409523401167,3.8337154,8.904634,-2.0883424,2.4302652,9.437696,1.0927447
1409523401169,2.569577,8.957906,-2.397793,2.5976956,9.418888,0.84078157
1409523401184,1.8028339,9.619304,-2.9771898,2.6292107,9.430005,0.5767241
1409523401210,1.5717934,11.663952,-5.9747305,2.575575,9.457803,0.29459393
1409523401211,-0.1592144,19.608511,-5.29358,2.4829066,9.484682,-0.2153294
1409523401211,-1.471237,19.608511,-2.2583308,2.134164,9.555357,-0.5575842
1409523401221,-4.192846,19.608511,-8.001422,1.7451916,9.631724,-0.59545904
1409523401244,-5.053561,14.656704,-8.389283,1.2162889,9.672377,-1.065917
1409523401245,-3.8977604,9.165603,-4.1575313,0.7174039,9.654855,-1.5618933
1409523401251,-1.7998412,9.414001,-0.46088383,0.29345542,9.63643,-1.795409
1409523401275,-0.30346507,10.621876,-2.2319946,0.06828327,9.661348,-1.6805012
1409523401275,0.4201824,10.812814,-4.9027267,0.03983955,9.663258,-1.6704031
1409523401281,0.6266823,9.299079,-4.669292,0.09259865,9.619778,-1.9030792
1409523401317,-1.0594343,6.206968,-2.472612,0.17083661,9.567734,-2.1446896
1409523401318,-0.9187749,4.951209,-1.0953473,0.11216172,9.546311,-2.2418194
1409523401319,-1.460463,3.6326025,-1.9357121,0.040212184,9.548439,-2.235194
1409523401322,-1.6980876,2.8646624,-2.0907366,-0.10984701,9.524416,-2.3332038
1409523401351,-0.8936358,2.980781,-0.8559271,-0.2761993,9.488543,-2.462051
1409523401351,-0.59256494,3.0867245,-0.38726214,-0.33998796,9.483588,-2.4731278
1409523401352,-0.6787562,3.269881,-0.58897364,-0.36859512,9.492829,-2.4332495
1409523401371,-0.9888053,3.265691,-0.724246,-0.4245666,9.49663,-2.4091816
1409523401373,-1.1719618,3.0202854,-0.7637503,-0.53329015,9.49332,-2.400595
1409523401386,-1.0588357,2.7395654,-1.8291701,-0.6727299,9.482248,-2.4093113
1409523401401,-1.4670471,2.3253684,-2.2876596,-0.7898614,9.431036,-2.5694554
1409523401402,-2.0871453,2.2146366,-2.1763294,-0.9799583,9.34105,-2.820439
1409523401417,-2.8844144,2.167351,-2.321777,-1.2720329,9.2304535,-3.05795
1409523401435,-3.366846,2.2176294,-2.055422,-1.7017854,9.075507,-3.3029556
1409523401435,-3.3943794,2.6288335,-1.4628572,-2.2059865,8.89571,-3.488603
1409523401452,-3.229778,3.0244753,-1.4137762,-2.6902065,8.740029,-3.541902
1409523401452,-3.6739025,3.156755,-1.9261353,-3.1068792,8.5977955,-3.549038
1409523401478,-4.4400473,3.5230677,-1.9428947,-3.5522895,8.40136,-3.6012204
1409523401479,-4.8320975,4.602853,-0.56982,-4.0372467,8.168668,-3.6254504
1409523401484,-5.08708,5.8065376,3.7044287,-4.503422,8.044333,-3.3434
1409523401517,-4.280833,9.066243,14.772224,-4.9527884,8.14254,-2.3107035
1409523401518,3.681085,18.328812,19.608511,-4.961267,8.4423,0.53273445
1409523401519,18.97824,19.608511,16.597204,-5.1090155,8.364303,0.32679582
1409523401524,19.594147,19.608511,13.214198,-5.2692027,8.269158,0.1639763
1409523401556,15.917252,19.54327,8.088212,-5.396792,8.188086,0.017013049
1409523401557,10.21965,13.24233,1.7770962,-5.478891,8.131584,-0.1716998
1409523401558,5.563526,6.6103907,4.988918,3.2477434,8.4233675,3.830071
1409523401562,3.2507274,7.0006456,6.52001,3.6563468,8.2737665,3.7876525
1409523401570,1.6286557,7.3765354,3.1878796,3.6329584,8.162713,4.0425396
1409523401591,0.25677812,8.516175,-4.2054152,3.4827616,8.197212,4.104447
1409523401592,-0.7882909,14.586075,-8.504205,3.278759,8.525333,3.5691493
1409523401603,-3.086126,17.572842,-7.303512,2.8546512,9.048714,2.4783378
1409523401626,-4.0779243,13.669096,-2.8514943,2.178277,9.440592,1.5168139
1409523401628,-2.0099323,10.751163,-2.8574798,1.562989,9.618993,1.0965484
1409523401631,-1.8579005,9.947908,-5.647323,1.1903572,9.704133,0.76371926
1409523401656,-2.2439656,10.478224,-5.815516,0.90273345,9.763316,0.1819811
1409523401656,-1.6304513,10.326192,-3.05141,0.60838103,9.780722,-0.3711445
1409523401664,-2.1877017,9.506777,0.16938977,0.3980084,9.780462,-0.5954623
1409523401670,-2.557606,8.697536,0.11851298,0.14703414,9.792342,-0.5087214
1409523401690,-2.3008277,8.676587,-1.5167267,-0.1240316,9.794203,-0.47811097
1409523401691,-1.6980876,9.328408,-1.763928,-0.34042564,9.782076,-0.60456276
1409523401702,-1.7633295,9.973646,-1.70946,-0.47453403,9.76551,-0.7616259
1409523401724,-2.777274,9.950302,-1.7836803,-0.61242557,9.748462,-0.87340266
1409523401725,-3.675698,9.069835,-1.7908629,-0.85806954,9.720243,-0.97518384
1409523401730,-3.858256,7.9673047,-1.6579847,-1.1822342,9.675736,-1.0737021
1409523401763,-3.6272156,7.6015906,-1.4532804,-1.4938496,9.6235485,-1.1515906
1409523401764,-3.3877954,7.7159133,-1.2808979,-1.7461756,9.574657,-1.2029946
1409523401765,-2.8670566,7.9996266,-1.2198458,-1.9451796,9.532303,-1.2336426
1409523401771,-2.6725276,8.6496525,-1.1192893,-2.07593,9.501834,-1.255421
1409523401810,-2.7569232,9.838972,-1.4407109,-2.1593578,9.483045,-1.2567507
1409523401811,-2.842516,11.098322,-2.0386627,-2.2165372,9.467305,-1.275739
1409523401812,-2.3870192,11.334151,-2.5210943,-2.241608,9.453303,-1.3343979
1409523401813,-1.429937,10.378864,-2.939481,-2.2060168,9.447865,-1.4288949
1409523401847,-0.3842694,9.278131,-2.8030117,-2.0898328,9.453472,-1.5603993
1409523401849,0.219668,8.582615,-1.9758149,-1.8963796,9.475316,-1.671092
1409523401851,0.7344214,8.902839,-1.003769,-1.6879232,9.507497,-1.7113746
1409523401853,1.5861586,10.077793,-0.46507367,-1.4369462,9.5647335,-1.6190867
1409523401879,3.1292217,11.605294,-1.0468647,-1.1171012,9.632137,-1.4643685
1409523401880,4.283227,12.164939,-2.6886885,-0.6687721,9.687571,-1.3689889
1409523401887,3.1872811,9.618107,-3.530849,-0.16467881,9.697914,-1.4469793
1409523401929,3.2650926,8.22109,-3.1501708,0.15215017,9.666481,-1.6451176
1409523401930,4.505289,8.222886,-2.9311013,0.4247817,9.621939,-1.846139
1409523401931,5.391742,8.636484,-4.0378213,0.8130206,9.547928,-2.0848167
1409523401932,5.2049947,9.012374,-2.835932,1.2430396,9.4371,-2.3593235
1409523401933,4.670489,9.487623,-0.78050977,1.6414418,9.34561,-2.4770236
1409523401958,4.381389,9.832987,0.46447513,1.9360725,9.3281,-2.3256278
1409523401959,4.144962,9.965266,0.9115923,2.1781933,9.339909,-2.047433
1409523401965,3.6164417,9.530719,1.0857705,2.359738,9.352504,-1.7699513
1409523401971,2.9101522,8.899846,1.2156559,2.4704852,9.367634,-1.5213628
1409523402005,2.2990322,8.735844,1.5741876,2.5119116,9.391833,-1.2861359
1409523402007,2.0386627,9.289502,1.5825673,2.497692,9.427106,-1.0303452
1409523402009,2.0045455,10.043077,1.2336124,2.455418,9.461254,-0.7912011
1409523402011,1.8459295,10.630256,1.0079589,2.3946292,9.490751,-0.6014888
1409523402056,-0.3645172,10.126875,2.9538465,2.3202434,9.517603,-0.44955125
1409523402057,-1.1851299,9.718663,4.1892543,2.0651436,9.586,-0.11898761
1409523402058,2.094328,11.574768,1.4263457,1.766967,9.641805,0.2895184
1409523402059,4.335301,13.182474,-1.5065514,1.8018183,9.635329,0.29031187
1409523402062,4.931457,13.295601,-2.767697,2.0135627,9.597411,-0.07503887
1409523402092,4.7387238,13.283031,-3.3159695,2.200264,9.545434,-0.46250325
1409523402093,4.0898952,12.747329,-1.0845734,2.307983,9.500107,-0.7691364
1409523402094,3.918111,11.112687,6.1507044,2.3527973,9.489777,-0.7608125
1409523402102,5.140351,12.0170965,12.235568,2.4530003,9.494853,-0.030915363
1409523402125,7.076063,14.028825,12.855067,2.6545284,9.36522,1.1901736
1409523402126,8.7532015,15.155296,5.018845,2.912444,9.105294,2.186709
1409523402130,8.404246,14.767436,-4.923077,3.1597536,8.992255,2.3077438
1409523402158,4.775235,12.852674,-7.892486,3.364627,9.063759,1.642553
1409523402159,3.5954924,14.004284,-8.016984,3.3784568,9.16215,0.9008035
1409523402162,3.3279405,15.011644,-4.766257,3.279108,9.240926,0.15219167
1409523402195,2.7401638,13.8402815,3.1148565,3.158531,9.281616,-0.21369332
1409523402196,2.7335799,11.007941,9.269751,3.057231,9.317398,0.09894816
1409523402197,3.8205473,10.752958,5.505467,3.048075,9.279191,0.8810443
1409523402204,3.6002808,10.839748,1.8608932,3.1299002,9.20496,1.2817212
1409523402222,2.7443538,8.942344,2.6761189,3.1616402,9.185037,1.3451872
1409523402222,2.902371,8.161235,3.1681273,3.1346579,9.168419,1.5114275
1409523402230,4.643554,10.314221,0.21428105,3.1563535,9.132707,1.6737633
1409523402257,4.2437224,10.094553,-2.7778726,3.2819026,9.112713,1.5355697
1409523402258,3.0119057,8.738836,-3.7672763,3.3868284,9.129187,1.1652303
1409523402264,2.2170308,8.449737,-3.70802,3.3987193,9.163494,0.8059097
1409523402289,1.9255368,10.277111,-3.6343982,3.3501647,9.203339,0.49530017
1409523402291,1.7609353,15.659875,-3.9318779,3.2410724,9.253716,0.18595761
1409523402292,-0.023343466,19.608511,-4.050989,3.000609,9.335592,-0.115944445
1409523402303,-1.0791864,19.608511,-2.0530279,2.5848827,9.452553,-0.3715107
1409523402325,-2.854487,19.608511,-6.976105,2.1551573,9.557312,-0.42830974
1409523402326,-5.2079873,10.501567,-10.113707,1.6677347,9.624347,-0.8723494
1409523402331,-5.3875523,7.5106106,-4.2940006,1.1068581,9.614782,-1.5815326
1409523402352,-3.675698,7.8948803,-1.091756,0.54658645,9.62504,-1.7972875
1409523402353,-2.219425,8.292317,-3.9923313,0.18274479,9.651825,-1.7260643
1409523402382,-1.0708067,8.258799,-5.8651958,-0.0053179804,9.616976,-1.9194037
1409523402384,-0.5895722,6.9725137,-4.104859,-0.092454635,9.541824,-2.2617357
1409523402386,-0.23403321,5.679645,-1.074398,-0.09524112,9.480116,-2.507737
1409523402408,-0.9696517,4.919486,1.0247183,-0.08162183,9.480879,-2.5053263
1409523402409,-0.2124854,4.848857,1.7202339,-0.17830592,9.530487,-2.3039997
1409523402410,-0.37708676,5.1122193,-0.9343372,-0.19932078,9.594315,-2.019843
1409523402432,-0.777517,5.1960163,-1.5310919,-0.21453221,9.595792,-2.011256
1409523402432,-0.5662287,5.1702785,-0.6985083,-0.25397733,9.581155,-2.0754218
1409523402447,-0.60812724,4.210802,-0.3286042,-0.27141088,9.588099,-2.0408514
1409523402451,-0.4285621,3.4632127,-0.9008184,-0.31464854,9.600325,-1.976146
1409523402473,-0.5291186,2.6964695,-1.3174095,-0.36095232,9.594286,-1.9974486
1409523402474,-1.423353,1.9997569,-2.486977,-0.4226311,9.569785,-2.1002321
1409523402482,-1.9901801,1.809418,-3.0603883,-0.6088514,9.488744,-2.4007192
1409523402509,-3.132813,1.7932571,-3.0220811,-0.8829113,9.355913,-2.8031757
1409523402510,-4.24492,1.5867572,-1.875857,-1.3485125,9.17295,-3.1951337
1409523402511,-4.0258503,1.5574282,-0.7116765,-2.030529,8.976753,-3.3860404
1409523402542,-3.2920272,1.4562732,-0.5793968,-2.700349,8.810204,-3.3554175
1409523402543,-2.509722,1.62686,-0.7613561,-3.2317932,8.647176,-3.309416
1409523402544,-1.9261353,2.6384103,-0.45310268,-3.6016083,8.499678,-3.3097284
1409523402551,-1.447295,4.51726,1.4676456,-3.8005517,8.452247,-3.2071319
1409523402587,-0.9576807,7.0982094,6.6307416,-3.8096805,8.639534,-2.6486213
1409523402588,-0.2633622,12.552799,14.836269,-3.5973976,9.068857,-0.99244237
1409523402598,8.84478,19.5313,19.607914,-2.8719022,9.201766,1.8027977
1409523402599,19.60133,19.608511,10.185533,-3.066319,9.179713,1.5814384
1409523402638,18.49461,19.608511,6.6612678,-3.278311,9.140066,1.3719621
1409523402639,10.16578,18.259378,6.4978633,-3.4680321,9.088819,1.2395648
1409523402640,5.7203465,9.2865095,5.4025164,3.0881815,8.546845,3.6857777
1409523402641,4.8027687,4.9763484,5.1559134,3.3995264,8.444142,3.6482978
1409523402646,3.0843303,5.671864,5.581483,3.7194934,8.270442,3.7330334
1409523402653,-0.15143326,6.823475,4.9338512,3.7467587,8.140253,3.9835255
1409523402668,-2.2349873,8.462905,0.91937345,3.4244561,8.153619,4.238159
1409523402699,-3.7217865,14.232332,-4.3275194,2.927243,8.41977,4.0876775
1409523402699,-5.7544637,19.32839,-6.373365,2.2626147,8.963143,3.2730782
1409523402700,-4.960786,18.095377,-2.7593174,1.4129755,9.453434,2.192366
1409523402728,-2.819771,13.441049,0.90261406,0.76486796,9.640697,1.6255262
1409523402729,0.38726214,12.058995,-1.3748703,0.42603186,9.675092,1.5432038
1409523402730,-0.6799533,12.207436,-5.305551,0.41364336,9.712988,1.287311
1409523402731,-2.6276364,10.800842,-5.2965727,0.3025703,9.776899,0.7007672
1409523402752,-1.882441,9.75697,-0.62249243,0.03606456,9.804484,0.20299922
1409523402753,-2.1649568,8.508394,0.18794483,-0.13588096,9.804414,0.15937106
1409523402762,-1.8423382,8.319851,-1.3012487,-0.32289848,9.79924,0.20258152
1409523402781,-1.1294646,9.062652,-1.6304513,-0.47902873,9.794819,0.04978524
1409523402782,-1.3994108,9.913791,-1.389834,-0.5536239,9.789908,-0.14687547
1409523402796,-2.211644,10.068216,-1.2707225,-0.6510981,9.780891,-0.2839917
1409523402816,-3.0831332,9.582792,-1.1162965,-0.8295706,9.763973,-0.3834304
1409523402817,-3.2734723,8.738237,-1.2282255,-1.0752456,9.737138,-0.44989395
1409523402832,-2.5474305,8.194156,-1.769315,-1.3095818,9.705066,-0.5167701
1409523402833,-1.6244658,8.010401,-2.2176294,-1.4535302,9.677088,-0.64158225
1409523402849,-1.2946646,7.8206596,-2.349909,-1.4966958,9.659125,-0.7947237
1409523402851,-1.5131354,7.402273,-2.6372132,-1.5136812,9.641296,-0.9615483
1409523402865,-1.4939818,7.3699512,-2.4690206,-1.56913,9.611231,-1.1543212
1409523402884,-1.2156559,8.315661,-1.7136499,-1.6215868,9.581122,-1.3202192
1409523402885,-1.9632454,11.6585655,-1.1294646,-1.6182423,9.571561,-1.3917176
1409523402899,-1.8632874,12.411542,-1.316811,-1.6402768,9.574419,-1.3455049
1409523402915,-0.7966706,11.687296,-1.9716251,-1.6377897,9.580433,-1.3051316
1409523402916,0.57281274,10.3226,-2.12246,-1.5265604,9.592206,-1.3526169
1409523402933,1.8710686,9.249998,-1.8986019,-1.2938174,9.616556,-1.4206744
1409523402934,2.8263552,8.911219,-1.541866,-0.9541192,9.649882,-1.4628196
1409523402947,3.8654387,9.481039,-1.365892,-0.554137,9.682291,-1.454837
1409523402951,4.666898,9.491214,-0.6344634,-0.09525223,9.703243,-1.4171792
1409523402963,4.9823337,8.789114,-0.9259575,0.38796005,9.709321,-1.3224832
1409523402978,4.398747,8.200141,-1.6250644,0.84525007,9.6824665,-1.3060572
1409523402985,3.5577838,8.028955,-1.5969325,1.2047001,9.63485,-1.3743212
1409523403006,3.4314895,8.555081,-2.5103204,1.4246044,9.5881815,-1.4858173
1409523403007,3.7349546,9.32362,-1.7848774,1.6028032,9.531661,-1.6579689
1409523403011,3.1675289,9.257779,-0.8631097,1.8060243,9.488396,-1.6967554
1409523403035,2.8772318,9.095572,0.032920275,1.9580489,9.471473,-1.6209947
1409523403035,3.067571,9.546281,0.4914099,2.0730867,9.471769,-1.469123
1409523403045,3.2309752,10.126276,0.99898064,2.1904814,9.470387,-1.2976526
1409523403070,3.289633,10.398617,1.8124107,2.302958,9.4704685,-1.0849015
1409523403070,3.0873232,10.310031,2.1470003,2.3850179,9.477295,-0.8142191
1409523403072,2.5019407,9.816227,1.8752584,2.437503,9.483755,-0.53606224
1409523403083,1.774702,9.430161,1.311424,2.426507,9.496121,-0.32577962
1409523403100,1.050456,9.533113,1.0085574,2.3555458,9.517416,-0.20144948
1409523403120,-1.496376,8.881889,2.046444,2.230499,9.548832,-0.122818135
1409523403121,-2.5258827,9.013571,2.0524294,1.8975104,9.621198,0.048879184
1409523403123,0.973243,11.836334,-0.9331401,1.4997998,9.689391,0.19151582
1409523403132,3.6822822,14.184448,-4.396353,1.4467806,9.699338,-0.0064884853
1409523403158,3.5511997,14.456788,-6.5487404,1.6519854,9.648655,-0.5871628
1409523403159,2.867655,14.185645,-6.8641763,1.7416621,9.56644,-1.2728944
1409523403165,2.7641058,11.599907,0.7422025,1.677669,9.497439,-1.776069
1409523403195,2.415151,9.264363,8.389283,1.678637,9.550066,-1.465874
1409523403196,4.6537294,11.3167925,14.507666,1.7543198,9.639976,-0.4045032
1409523403197,7.029975,14.472351,13.35366,2.0667667,9.522343,1.1062766
1409523403239,8.086416,15.14991,6.0645127,2.4277935,9.254297,2.1527193
1409523403241,8.839393,15.592837,-2.554613,2.6755745,9.123533,2.4026706
1409523403242,6.8109055,13.822325,-7.1544733,2.9701533,9.160571,1.8527012
1409523403243,4.755483,12.4630165,-6.8486137,3.1156342,9.232157,1.1092668
1409523403244,4.1934443,12.6778965,-6.4380083,3.1504238,9.27483,0.47196227
1409523403262,2.486977,13.099276,-7.1742253,3.1536975,9.285183,-0.0998679
1409523403263,1.0007763,13.019071,-2.6725276,3.0360374,9.301098,-0.6651812
1409523403282,1.3640964,12.212823,3.6661212,2.821541,9.360063,-0.7736475
1409523403304,2.3133974,11.814787,6.7642183,2.6717465,9.427128,-0.40181583
1409523403308,2.565387,10.999561,5.851429,2.6561692,9.435751,0.28593203
1409523403309,1.8052281,10.044873,2.819771,2.6811037,9.399878,0.7901675
1409523403312,0.42078096,9.105747,2.0087352,2.64215,9.392288,0.9871067
1409523403341,0.4441244,9.279925,2.2224178,2.5071418,9.4160595,1.1056539
1409523403342,2.5737667,10.174759,1.3413515,2.382432,9.432234,1.2358634
1409523403346,2.3690627,9.721058,-0.10115502,2.433112,9.417558,1.2489889
1409523403367,1.2192472,9.422979,-1.1821371,2.4656844,9.423843,1.1322435
1409523403368,0.9391256,9.993997,-2.0799627,2.3831198,9.463928,0.96187377
1409523403372,1.0199299,13.570933,-2.961029,2.2730575,9.512999,0.71167004
1409523403383,0.32621,19.112911,-2.9358897,2.1255155,9.564349,0.41927463
1409523403406,-0.5021838,19.608511,0.41599256,1.8692993,9.625238,0.17577568
1409523403407,-2.260725,19.608511,-3.5613751,1.5747485,9.676627,0.23120822
1409523403412,-3.5739446,19.117102,-8.267777,1.190233,9.733967,-0.0598397
1409523403435,-4.0863037,11.715427,-10.538078,0.7460557,9.755767,-0.66243327
1409523403436,-3.7954082,7.647679,-7.0808516,0.36999068,9.70623,-1.350038
1409523403443,-0.44951138,7.784148,-2.267309,0.025958618,9.649799,-1.7467302
1409523403470,-0.054468088,8.403648,-5.433641,-0.018287936,9.646372,-1.7656615
1409523403471,-0.6362591,6.5666966,-5.9962783,-0.007842677,9.588091,-2.0588398
1409523403472,-0.7404069,5.434838,-3.5511997,-0.04289134,9.498538,-2.4385095
1409523403504,0.5506664,4.927267,-1.1671734,-0.08145444,9.4479685,-2.626723
1409523403505,0.52971715,4.3281183,-1.3784616,-0.0217212,9.451831,-2.6139731
1409523403505,-0.41120413,4.3915644,-1.9488802,0.027985813,9.443553,-2.6436536
1409523403512,-0.44771573,4.4556093,-0.6171055,-0.007787074,9.421902,-2.7199373
1409523403531,-0.36032736,4.5447936,0.6362591,-0.04424911,9.435045,-2.6736438
1409523403532,-0.18136078,4.69084,0.8912416,-0.050934944,9.488688,-2.4764156
1409523403550,-0.14185645,4.665102,-0.427365,-0.048099723,9.547998,-2.236922
1409523403560,-0.6500258,3.9217024,-2.0685902,-0.05773637,9.566562,-2.1559246
1409523403563,-1.1815386,3.1992521,-3.1711202,-0.13688718,9.530376,-2.3072908
1409523403577,-2.1458032,2.7263973,-3.4278982,-0.2802613,9.44235,-2.6332326
1409523403594,-3.0986955,2.6048915,-3.0585926,-0.56234497,9.319781,-2.9993103
1409523403595,-3.9252937,2.6749218,-2.4432828,-0.99012893,9.177742,-3.3104544
1409523403609,-4.39755,2.7084408,-2.3014264,-1.5555873,9.02575,-3.5051913
1409523403612,-4.6279917,2.532467,-1.9452889,-2.1814568,8.835889,-3.6522224
1409523403628,-4.3143516,2.6551697,-1.2958617,-2.824814,8.617159,-3.7330153
1409523403632,-3.911527,3.2034419,-1.1360487,-3.3848796,8.426969,-3.70124
1409523403645,-3.3740287,3.9803603,-0.9804256,-3.8168948,8.274938,-3.6231403
1409523403667,-2.6725276,5.257068,0.7870938,-4.095602,8.192952,-3.5031369
1409523403668,-2.0165164,7.7428484,6.522404,-4.1965423,8.321403,-3.051834
1409523403672,-0.10654198,16.395493,16.868347,-4.124192,8.747128,-1.6276459
1409523403702,8.482059,19.608511,19.504364,-4.23786,8.647729,-1.8514107
1409523403703,19.285295,19.608511,11.258734,-4.3807807,8.5233965,-2.081075
1409523403706,17.976265,19.608511,10.421362,-4.502816,8.431869,-2.190578
1409523403712,10.214263,15.407287,7.5626845,-4.484059,8.408011,-2.317106
1409523403734,7.043741,7.8146744,4.1892543,2.7860613,8.577509,3.8515687
1409523403735,4.1461587,4.3119574,6.6762314,3.3240547,8.462084,3.6761634
1409523403744,4.007295,5.482722,7.225701,3.54574,8.260934,3.9185545
1409523403768,2.707842,7.056311,2.2337902,3.5971608,8.074579,4.246411
1409523403769,0.31543607,8.896853,-6.8929067,3.5449693,8.118851,4.205694
1409523403772,-2.2894554,15.012842,-10.721235,3.353815,8.558452,3.4169009
1409523403805,-5.037999,19.488802,-6.758233,2.748569,9.173145,2.114042
1409523403806,-4.560954,18.5401,1.0247183,1.8391207,9.554291,1.2261999
1409523403807,-1.5945383,14.322713,2.8113914,1.1406817,9.669451,1.1708734
1409523403812,-0.11911154,13.602657,-0.011971008,0.86334103,9.684638,1.2778151
1409523403833,-3.2142158,11.7681,-5.279215,0.74364686,9.714844,1.1131968
1409523403834,-2.9173348,10.770915,-2.6246436,0.3988852,9.784404,0.5260714
1409523403844,-2.7150247,9.521142,-1.690905,0.12529059,9.802334,0.2625537
1409523403869,-2.2104468,7.8062944,-2.2230163,-0.10569179,9.805044,0.14250769
1409523403870,-1.6795325,7.699753,-2.5731683,-0.2967623,9.802032,-0.04969558
1409523403872,-1.7196354,8.129512,-1.9560628,-0.43775672,9.792597,-0.289521
1409523403902,-1.9405005,8.67958,-1.2348095,-0.57823914,9.779263,-0.44947666
1409523403904,-2.4779987,8.823232,-0.74639237,-0.72602004,9.765665,-0.5244944
1409523403904,-2.7856536,8.465299,-0.6913257,-0.9253979,9.747416,-0.5494442
1409523403912,-2.4851813,8.070255,-1.0151415,-1.1413656,9.723439,-0.56781054
1409523403930,-1.6681601,8.437765,-1.3144168,-1.3104072,9.698936,-0.6195458
1409523403945,-1.0654198,9.26197,-1.3497312,-1.3765961,9.684576,-0.6959797
1409523403946,-1.0139444,9.667188,-1.4191631,-1.3688614,9.680402,-0.7658063
1409523403961,-0.97503865,9.694122,-1.4359225,-1.3651762,9.675051,-0.8367199
1409523403963,-1.0522517,10.029909,-1.5179238,-1.352956,9.671234,-0.89840454
1409523403976,-1.5682021,11.3802395,-1.407192,-1.3594342,9.6641655,-0.9624237
1409523403993,-2.6850972,13.391369,-1.5035586,-1.3965688,9.655284,-0.99773884
1409523403994,-2.8981812,13.818135,-2.0165164,-1.5021243,9.636838,-1.0224481
1409523404010,-1.6274586,11.911752,-2.4582467,-1.5805458,9.618371,-1.0766737
1409523404013,1.1587936,9.078215,-2.3948002,-1.5209689,9.617822,-1.1638434
1409523404027,2.042254,8.7053175,-2.384625,-1.2309865,9.648052,-1.253072
1409523404046,2.742558,8.684967,-2.0135236,-0.8931682,9.67425,-1.3347398
1409523404047,3.4446578,8.870518,-0.56084174,-0.5398512,9.691776,-1.3958741
1409523404062,4.1437645,9.01417,1.204882,-0.15115926,9.717067,-1.313837
1409523404079,4.1036615,8.6017685,0.4177882,0.25983226,9.742379,-1.0903738
1409523404080,3.0885203,7.7069354,-0.78529817,0.62524045,9.736184,-0.9930612
1409523404094,3.020884,7.65965,-2.5959132,0.85437244,9.710791,-1.068181
1409523404095,3.2794578,8.141483,-3.383007,1.0574272,9.659097,-1.3244089
1409523404110,3.2231941,8.808268,-4.0815153,1.2976182,9.588921,-1.5934714
1409523404112,3.1364043,9.726444,-3.376423,1.5251249,9.506514,-1.8629522
1409523404126,2.814384,9.850345,-0.81522566,1.6887197,9.446376,-2.021042
1409523404144,2.468422,9.534908,0.7433996,1.7952012,9.451436,-1.9021016
1409523404144,2.421735,9.227852,1.3365631,1.8544031,9.488773,-1.6415669
1409523404157,2.4983494,9.196728,1.4149733,1.9165024,9.520382,-1.3637135
1409523404164,2.441487,9.100361,1.460463,1.9913446,9.536758,-1.1203395
1409523404175,2.207454,8.813056,1.4269443,2.0552573,9.54678,-0.89738566
1409523404193,1.9596541,8.65863,1.2683283,2.0882971,9.556372,-0.6965511
1409523404194,1.9015948,8.6095495,1.1145009,2.0937054,9.566114,-0.52558964
1409523404223,1.6142905,8.409634,1.3551182,2.093937,9.572473,-0.39188495
1409523404224,0.219668,8.186374,2.3906105,2.0754073,9.581371,-0.24573271
1409523404225,0.01616086,9.144054,1.5699978,1.9241023,9.61604,-0.0019349136
1409523404256,1.7477672,11.501146,-0.9983821,1.7481034,9.648981,0.10815277
1409523404256,3.3824084,13.61403,-3.1669302,1.7384505,9.650487,-0.12771219
1409523404257,3.834314,14.987104,-4.4526167,1.8484304,9.613623,-0.5761467
1409523404264,3.3291376,15.39771,-4.5005007,1.9190812,9.563537,-1.0130574
1409523404315,3.0657754,13.887567,1.1324574,1.9055805,9.526741,-1.3342905
1409523404315,3.0484173,12.394184,11.798626,1.915533,9.561034,-1.0429635
1409523404316,4.8362875,13.381792,16.434998,1.9978225,9.599041,0.1935504
1409523404317,7.141305,14.498089,11.592126,2.2202852,9.403545,1.6775142
1409523404318,8.602366,14.889541,3.8097734,2.5217564,9.156496,2.4432993
1409523404340,8.247426,14.425065,-3.8774097,2.784402,9.078977,2.4473798
1409523404341,6.6002154,12.404958,-8.206126,2.9856691,9.142536,1.9157776
1409523404344,5.2678423,11.679515,-8.674192,3.1593666,9.207881,1.1847847
1409523404360,4.223372,13.376405,-8.488044,3.2736118,9.235572,0.39757398
1409523404378,2.8820202,13.017275,-4.238934,3.2724445,9.239003,-0.31984308
1409523404379,2.3535004,10.926538,3.4614172,3.1712897,9.258098,-0.63317573
1409523404396,3.3010056,9.428367,7.825448,3.1005228,9.299617,-0.2725421
1409523404399,4.4538136,9.048885,6.0920463,3.1722617,9.268893,0.44131637
1409523404415,5.0080714,9.866506,2.1254525,3.3421264,9.171806,0.93731445
1409523404416,4.64535,10.279505,1.2641385,3.4971845,9.102516,1.0412952
1409523404427,4.656722,11.301829,1.2521675,3.5692544,9.068276,1.0941578
1409523404450,4.0839095,11.379641,0.85054016,3.6263568,9.045173,1.0976253
1409523404452,3.305794,9.891046,-0.13108255,3.6204746,9.048902,1.0862373
1409523404453,2.8341362,9.892242,-1.5089456,3.5967116,9.067662,1.0057459
1409523404483,2.7970262,12.756307,-2.7485435,3.540862,9.107505,0.82828856
1409523404484,2.3080103,18.301277,-4.337695,3.4182901,9.174013,0.5684382
1409523404487,1.3281834,19.608511,-3.4512417,3.1461117,9.285592,0.22396585
1409523404493,0.6398504,19.608511,-3.50571,2.8277996,9.390096,0.004188392
1409523404529,-1.496376,19.608511,-7.9331875,2.498278,9.481295,-0.1845245
1409523404533,-3.8845923,16.943167,-12.046426,2.0559764,9.563677,-0.6924078
1409523404535,-5.159505,10.370484,-11.051037,1.4957626,9.583034,-1.4486356
1409523404571,-5.125387,8.424597,-5.617396,0.95506626,9.535251,-2.0826104
1409523404573,-3.8193502,8.329428,-2.6868927,0.50555533,9.51715,-2.3105617
1409523404575,-2.4480712,8.921394,-4.5483847,0.21224006,9.519221,-2.3472846
1409523404576,-1.6843209,8.715493,-5.919664,0.049892157,9.471929,-2.53978
1409523404578,-2.4307132,5.09127,-3.0280666,-0.06594255,9.395607,-2.8086803
1409523404632,-1.3826514,5.1247888,0.04309563,-0.24151158,9.346418,-2.9591448
1409523404635,-2.4654293,5.149329,1.697489,-0.36120436,9.378855,-2.8420074
1409523404636,-2.8736405,4.5124717,1.062427,-0.5863062,9.449251,-2.5570033
1409523404638,-1.9818004,3.940856,-0.9588778,-0.84352887,9.489441,-2.325795
1409523404640,-0.4201824,3.9755719,-1.6184803,-0.9940179,9.476416,-2.3194523
1409523404642,0.27712885,4.0198646,-1.4251486,-0.9418407,9.457028,-2.4182475
1409523404646,-0.581791,3.8642416,-1.4443022,-0.81520945,9.451217,-2.4860194
1409523404684,-0.8846575,3.9845502,-1.9859903,-0.8269722,9.432181,-2.553527
1409523404686,-1.2791022,4.0258503,-2.9029696,-0.89375913,9.394573,-2.6671374
1409523404690,-2.7431567,3.3943794,-3.1190462,-1.0130606,9.319219,-2.8803263
1409523404692,-4.0880995,2.7216089,-2.5157075,-1.3324054,9.19665,-3.133164
1409523404694,-4.2999864,2.1374235,-1.1121067,-1.8532847,9.040278,-3.3179984
1409523404734,-4.1862617,2.0973208,-0.688333,-2.4341366,8.897622,-3.3283188
1409523404736,-4.174889,2.132635,-1.1001357,-3.0005064,8.746555,-3.2657495
1409523404742,-4.0587707,2.2613235,-1.3509283,-3.5328224,8.555086,-3.2403865
1409523404743,-3.918111,2.8119898,-1.377863,-4.006727,8.334083,-3.2649088
1409523404747,-3.2770636,3.6828809,-0.24540567,-4.3991976,8.132637,-3.2676694
1409523404770,-2.235586,4.9841294,2.4666264,-4.6447134,8.074431,-3.0660415
1409523404770,-1.1558008,7.4723034,8.513782,-4.6946115,8.270752,-2.3928404
1409523404773,1.0839748,15.960347,18.113333,-4.4444747,8.71757,-0.6488305
1409523404796,12.280459,19.608511,18.912397,-4.6064053,8.616364,-0.8424411
1409523404797,19.607914,19.608511,1.6035166,-4.76992,8.507264,-1.0220984
1409523404804,19.607914,19.608511,0.8343793,-4.8879704,8.4163,-1.2016916
1409523404813,14.596251,16.349405,4.5298295,-4.895027,8.384841,-1.3796871
1409523404825,5.456984,7.1706343,6.4457893,-4.807962,8.382751,-1.6683465
1409523404841,1.7112557,3.2435448,7.716512,3.8822782,8.565224,2.7812355
1409523404869,1.0690111,4.7500963,5.313332,3.9112365,8.398594,3.2150002
1409523404870,-0.7164649,7.3873096,1.5544355,3.7702858,8.334465,3.534405
1409523404871,-2.8987796,12.0488205,-4.1958385,3.4374096,8.4772415,3.5342584
1409523404873,-7.3100963,18.67597,-7.81228,2.8296452,8.937164,2.8793364
1409523404901,-6.803124,18.401834,-2.6443958,1.7451991,9.484938,1.7778213
1409523404902,-3.9187095,12.8832,3.5924997,0.8501986,9.682558,1.30216
1409523404906,-0.66738373,10.579379,1.9213469,0.38864714,9.6820135,1.5092965
1409523404913,-0.9900024,10.782288,-5.17387,0.28877485,9.681212,1.5366046
1409523404926,-2.0410569,10.749367,-6.4284315,0.16755189,9.76451,0.8925664
1409523404941,-1.9548657,11.277288,-3.6337996,-0.041642364,9.804093,0.22001904
1409523404945,-1.7866731,10.684724,-1.7357962,-0.22297809,9.803798,-0.079027526
1409523404964,-1.578976,9.64564,-0.52073884,-0.37157837,9.797719,-0.19244872
1409523404967,-1.5316905,9.284116,0.094570965,-0.5017386,9.791901,-0.19318515
1409523404973,-1.7220296,9.870695,0.19033903,-0.61675096,9.7856655,-0.1753471
1409523404998,-1.9057846,10.465055,0.091578215,-0.7296913,9.778069,-0.1652643
1409523404999,-1.714847,10.246585,-0.15801731,-0.8431238,9.768891,-0.16824065
1409523405005,-1.2192472,8.852561,-0.51355624,-0.9293309,9.760667,-0.1899959
1409523405034,-0.8984242,7.632715,-1.3784616,-0.97629714,9.755056,-0.23694062
1409523405035,-0.676362,7.455544,-2.4438813,-0.99826527,9.749097,-0.35914183
1409523405037,-0.5243302,7.724293,-2.8526914,-1.0039755,9.738156,-0.5750888
1409523405045,-0.6631939,8.048708,-2.870648,-0.988992,9.722682,-0.8134821
1409523405070,-0.40880993,8.794501,-2.7760768,-0.9906819,9.702256,-1.0272138
1409523405071,-0.24720132,10.329783,-2.5133133,-0.96542543,9.684982,-1.1997901
1409523405074,-0.7589619,12.263102,-2.4313118,-0.9165951,9.676435,-1.3026341
1409523405106,-1.1246762,12.747927,-2.168548,-0.90976167,9.669916,-1.3547895
1409523405106,-1.0576386,11.729793,-1.3652935,-0.92539036,9.666784,-1.3665003
1409523405107,-0.6123171,10.8229885,-1.5688007,-0.9288205,9.672415,-1.323663
1409523405125,0.02932897,10.222643,-1.4047978,-0.87565655,9.679516,-1.307893
1409523405126,0.43275195,9.457097,-1.448492,-0.7641093,9.688673,-1.3100059
1409523405146,2.3301568,9.281123,-2.131438,-0.6383713,9.689036,-1.3731295
1409523405147,2.3822308,9.293693,-2.1667526,-0.35006973,9.682999,-1.5124159
1409523405153,2.2828712,8.981249,-2.6324248,-0.081307724,9.670947,-1.6237444
1409523405173,2.5061307,8.540716,-2.6330233,0.14354587,9.644763,-1.7687104
1409523405174,2.8461072,8.224682,-2.9759927,0.36317384,9.614632,-1.8966671
1409523405192,2.9287071,8.301296,-2.3660698,0.6101212,9.566795,-2.067504
1409523405193,2.4073699,7.961918,-0.9068039,0.85749155,9.531288,-2.1423383
1409523405209,1.941099,7.9810715,-0.3357868,1.0397722,9.531969,-2.0569038
1409523405225,1.9303252,8.580819,-0.10055647,1.1541829,9.548665,-1.9134371
1409523405225,2.2146366,9.504382,0.1316811,1.249137,9.5678005,-1.7513539
1409523405242,2.4768016,9.97185,0.6063316,1.3608912,9.583911,-1.5706865
1409523405246,2.5887306,9.813234,1.5765818,1.487494,9.598546,-1.3511755
1409523405271,2.4486697,9.470264,2.023699,1.6055671,9.616133,-1.0594877
1409523405273,2.2008698,9.2625675,2.0123265,1.7044272,9.627581,-0.75829893
1409523405274,1.8770541,9.267356,1.6681601,1.764159,9.633641,-0.5010786
1409523405296,0.4782418,9.157223,1.8363527,1.7810268,9.638347,-0.3172405
1409523405298,-0.825401,9.209895,2.0757728,1.6589386,9.664226,-0.14517844
1409523405306,0.32680854,10.5440645,0.79248077,1.4200943,9.703245,0.027919982
1409523405335,2.2852654,12.406155,-1.30484,1.317823,9.717679,0.021489218
1409523405335,3.2243912,13.329718,-3.2638955,1.4087238,9.702009,-0.23860228
1409523405336,2.9334955,13.447034,-3.7666779,1.5350384,9.665032,-0.6333827
1409523405369,3.0292637,13.514071,-2.28347,1.5887423,9.625441,-0.99858564
1409523405371,3.2908301,11.636418,4.0467997,1.612859,9.6069565,-1.1293569
1409523405372,4.409521,9.824008,14.40651,1.7135617,9.635218,-0.6297867
1409523405376,7.4830775,12.064383,16.137518,2.001153,9.564977,0.82280636
1409523406036,8.940548,14.452599,8.298303,2.4797447,9.221875,2.231206
1409523406045,8.907627,15.4084835,-1.335366,2.8500085,8.993711,2.676006
1409523406054,7.203554,15.094843,-6.5577183,3.0581322,9.021377,2.3308785
1409523406060,4.956596,12.956223,-7.5644803,3.196529,9.141416,1.5450377
1409523406060,3.436278,11.894993,-7.0545154,3.2172189,9.226071,0.83635557
1409523406064,2.6856956,12.228385,-5.097854,3.1921823,9.271063,0.16663375
1409523406148,2.4953568,12.885593,0.20111294,3.1147988,9.293987,-0.30033204
1409523406149,3.2267854,12.443265,6.9587474,3.0218868,9.326441,-0.23685455
1409523406150,4.0258503,11.971607,7.3507977,3.0223017,9.320503,0.40532166
1409523406152,3.8827965,11.941081,2.432509,3.100439,9.24871,1.0094666
1409523406153,2.9999347,10.472239,0.99778354,3.129135,9.224762,1.1325513
1409523406154,2.2068555,9.239823,1.4790181,3.1229022,9.223656,1.1584723
1409523406154,2.995745,9.77792,0.93373865,3.0665662,9.231332,1.244629
1409523406155,3.5697548,10.755353,-0.7009025,3.074337,9.228865,1.2437477
1409523406156,2.3828292,10.136452,-1.8590976,3.1262724,9.2344265,1.0593243
1409523406156,1.929128,9.5570545,-1.9919758,3.0977983,9.268389,0.81914794
1409523406172,2.2517467,10.70687,-2.4331074,3.0302575,9.305909,0.62288904
1409523406173,2.5091233,15.652692,-3.2878375,2.9644692,9.338851,0.41001567
1409523406173,1.6897079,19.608511,-4.559757,2.8233025,9.390594,0.12694412
1409523406180,0.2825158,19.608511,-4.1934443,2.5701191,9.461989,-0.18874651
1409523406199,-1.3784616,19.608511,-6.7229185,2.2556932,9.534847,-0.4110054
1409523406200,-3.5895069,18.554464,-9.339182,1.8761104,9.592788,-0.7931134
1409523406212,-5.849633,10.714052,-9.764751,1.3680851,9.616283,-1.3512387
1409523406228,-6.55293,6.4002995,-4.0043025,0.75798947,9.584256,-1.9333645
1409523406233,-4.1060557,6.9611416,1.1833342,0.17425197,9.578751,-2.094648
1409523406243,-2.5629928,8.418014,-2.0506337,-0.16514131,9.624929,-1.8718629
1409523406265,-1.9189527,8.891466,-4.7740383,-0.30456427,9.614077,-1.9097509
1409523406265,-2.03148,7.152079,-4.4903255,-0.39648056,9.552882,-2.1807373
1409523406279,-2.56419,4.811148,-2.5438392,-0.5164153,9.485846,-2.4336073
1409523406280,-1.353921,4.3664255,0.053869538,-0.7273466,9.4430895,-2.5435116
1409523406297,-1.596334,3.8750155,1.3293805,-0.8356911,9.46599,-2.4221954
1409523406300,-1.5825673,3.8456864,-0.38187516,-0.9551436,9.511853,-2.1869454
1409523406314,0.08439561,5.2486887,-0.87807345,-1.0617431,9.512318,-2.13516
1409523406335,-0.24540567,4.709395,-0.5770026,-0.9506204,9.525469,-2.1288872
1409523406336,-0.6560113,4.1144357,-0.90500826,-0.9036222,9.535781,-2.1030314
1409523406340,-1.1552023,3.5781345,-1.4957775,-0.9245348,9.529854,-2.1207361
1409523406361,-1.3461399,3.1370027,-2.2146366,-1.0395396,9.497837,-2.2092626
1409523406362,-1.8243817,2.794632,-2.9388826,-1.1779386,9.434219,-2.4038193
1409523406383,-2.6970682,2.5115175,-3.8594532,-1.3765235,9.323355,-2.7112045
1409523406384,-3.8959646,2.3199813,-3.828927,-1.6944486,9.132219,-3.1467137
1409523406392,-4.231153,2.2104468,-1.9656396,-2.1796925,8.878654,-3.5480795
1409523406411,-3.8654387,2.1559787,-0.9648633,-2.7322302,8.673593,-3.6707082
1409523406414,-3.4745853,1.9626468,-0.7625532,-3.2459302,8.513463,-3.6270247
1409523406431,-2.9191303,2.1888988,-0.65062433,-3.7120812,8.3546095,-3.5484288
1409523406432,-2.2343888,3.3063924,-0.49559975,-4.066301,8.22805,-3.4546764
1409523406445,-1.1540052,5.09546,1.5640123,-4.2177696,8.209192,-3.315114
1409523406466,-0.13946225,8.409634,7.439383,-4.1080484,8.46297,-2.7699196
1409523406466,1.1240777,16.073473,16.712725,-3.6759214,9.025995,-1.0905967
1409523406481,11.984177,19.608511,19.132664,-3.7985036,8.951028,-1.2731283
1409523406482,19.607914,19.608511,-0.05746084,-3.9496176,8.8576,-1.4539058
1409523406497,18.001404,19.608511,2.1733365,-4.0820074,8.778648,-1.5629996
1409523406512,9.057863,16.419436,8.523358,-4.119357,8.727944,-1.7390455
1409523406513,4.422689,8.930372,6.9916677,3.1937633,8.838026,2.8034933
1409523406526,3.5452142,6.1626754,5.519832,3.3600273,8.710615,3.0009606
1409523406551,2.6527755,7.0066314,6.455965,3.5411863,8.5977125,3.1160426
1409523406552,0.90500826,8.948329,7.0245876,3.4950871,8.501755,3.4168608
1409523406553,-0.65780693,8.987235,5.507262,3.2296321,8.460628,3.762668
1409523406561,-1.453879,8.933964,-0.5907693,2.8429782,8.49232,3.9960449
1409523406586,-3.4039562,12.978968,-9.31524,2.4708295,8.736733,3.7060618
1409523406587,-3.8474822,17.73086,-10.4728365,1.9258442,9.277316,2.528418
1409523406594,-2.818574,17.69734,-4.794389,1.319761,9.639568,1.2277356
1409523406622,-0.8750807,14.417284,-2.0727801,0.8876016,9.743824,0.66366446
1409523406623,-1.3263878,13.050195,-2.597709,0.69953036,9.771042,0.45583594
1409523406624,-1.5610195,14.296975,-1.9177556,0.50119084,9.791707,0.20416057
1409523406632,-1.6059108,12.794614,0.47165772,0.288845,9.802358,0.027565943
1409523406651,-1.4682442,10.414778,1.5514427,0.11660057,9.805759,0.06237225
1409523406656,-1.7741034,8.407239,0.30645782,-0.021205138,9.804832,0.18757956
1409523406661,-1.6765398,8.055291,-0.6410475,-0.17791545,9.8033285,0.18303351
1409523406676,-1.8058267,9.141661,-0.6356605,-0.31269225,9.801332,0.08052812
1409523406680,-2.0817583,10.677541,-0.6027403,-0.4476241,9.796431,-0.002418021
1409523406698,-1.827973,11.128249,-0.32621,-0.59498113,9.788396,-0.060607303
1409523406717,-1.3509283,9.753379,-0.15682021,-0.7102026,9.780489,-0.089612745
1409523406718,-1.0283096,8.095993,-0.44352585,-0.7870095,9.774499,-0.10093059
1409523406721,-0.5805939,7.5985975,-0.9379285,-0.8445249,9.769309,-0.13328896
1409523406732,-0.40880993,7.955932,-1.6962919,-0.85804415,9.766872,-0.20579861
1409523406759,-0.61411273,8.176199,-2.416348,-0.84792835,9.763841,-0.34472597
1409523406760,-0.51595044,8.407239,-2.6138697,-0.85886884,9.753743,-0.54520655
1409523406761,-0.10055647,8.876503,-2.4241292,-0.8619322,9.740001,-0.7482201
1409523406779,0.05865794,9.869498,-2.3630772,-0.81067663,9.730279,-0.913718
1409523406781,-1.009156,11.323976,-2.1769278,-0.75001657,9.722748,-1.0373206
1409523406797,-1.7615339,11.66515,-1.7184383,-0.7960086,9.710594,-1.1140461
1409523406815,-1.632247,10.445902,-1.9069817,-0.8995246,9.699397,-1.1326846
1409523406816,-0.5895722,9.083003,-2.0500352,-0.95103306,9.689321,-1.176009
1409523406826,0.6961141,8.455722,-1.9710265,-0.8752199,9.687738,-1.245846
1409523406844,1.893215,8.5886,-1.6394296,-0.6788836,9.692569,-1.3280171
1409523406847,2.8419175,9.109339,-0.9223662,-0.3965892,9.701734,-1.3745844
1409523406859,3.3051953,9.391854,-0.25318682,-0.07073811,9.710702,-1.3666259
1409523406860,3.0591912,8.952518,-1.3976152,0.26767552,9.715859,-1.3041625
1409523406874,1.70946,7.653664,-2.280477,0.5261479,9.695495,-1.375124
1409523406881,1.3742718,7.5710645,-2.8622682,0.6281721,9.663854,-1.5445932
1409523406895,1.1833342,8.234857,-3.0508115,0.7028914,9.624664,-1.7441801
1409523406908,2.1691468,9.680356,-2.0721815,0.7631864,9.586778,-1.9187648
1409523406912,2.4809916,9.928755,-0.4381389,0.9159467,9.569457,-1.9382839
1409523406933,2.5384524,9.673772,0.32022446,1.0761551,9.582387,-1.7861046
1409523406934,2.759916,9.603143,0.6362591,1.2285844,9.600655,-1.5774785
1409523406940,2.9508536,9.536704,0.88944596,1.3870404,9.610597,-1.3722067
1409523406967,3.0148985,9.645041,1.1312603,1.5553002,9.611365,-1.1717972
1409523406968,2.846706,9.846753,1.1641805,1.7075688,9.608163,-0.96842384
1409523406972,2.4462755,9.990405,0.9516952,1.8111279,9.606197,-0.78177255
1409523406980,2.1619642,10.290877,0.6314707,1.8516456,9.609115,-0.63774294
1409523407003,2.1978772,10.76493,0.45190558,1.8553485,9.614451,-0.53890276
1409523407004,2.3971944,11.1970825,0.29927522,1.8616925,9.617235,-0.46181688
1409523407014,2.4953568,11.388618,0.18614918,1.8864396,9.6147175,-0.41104996
1409523407029,2.0961237,11.096526,0.60932434,1.9187417,9.609588,-0.38028163
1409523407049,-0.94570965,9.277532,3.572149,1.9137353,9.612901,-0.31649113
1409523407049,-1.721431,8.998607,3.513491,1.6559248,9.665808,0.021644553
1409523407066,1.5981296,11.564592,-0.29508537,1.3510447,9.708108,0.31255803
1409523407066,4.611831,14.261063,-4.2718544,1.3812699,9.708177,0.117481306
1409523407074,6.196194,14.952388,-4.895544,1.6289699,9.660674,-0.43382952
1409523407100,5.5192337,13.03583,6.6109896,1.9401457,9.564771,-0.95989263
1409523407101,6.940192,12.801797,17.49503,2.1762445,9.557193,-0.3072833
1409523407101,10.314819,14.478935,16.472107,2.125426,9.55704,-0.5620524
1409523407112,10.269928,14.72853,4.2239704,2.0734622,9.572256,-0.49302903
1409523407135,7.387908,13.78701,-7.4854717,3.351677,8.806859,2.7158606
1409523407136,6.599617,13.091495,-10.627263,3.428751,8.988367,1.9035008
1409523407141,5.7903767,13.7923975,-10.336368,3.5352192,9.101451,0.91443807
1409523407161,3.9731777,13.530232,-1.4969746,3.599376,9.122148,0.036052436
1409523407162,2.1733365,11.80521,9.196728,3.530627,9.1486225,-0.08819661
1409523407180,1.690905,11.298238,9.201516,3.4138656,9.170659,0.644149
1409523407181,2.1110873,11.996147,3.2609026,3.325023,9.122263,1.3780226
1409523407195,1.5077485,10.623073,2.8191724,3.2415278,9.123883,1.5548681
1409523407208,2.100912,10.718243,1.4389153,3.1037061,9.150308,1.676089
1409523407212,4.201824,11.352706,-2.5145104,3.002384,9.183011,1.6817851
1409523407233,3.269881,9.505579,-4.8057613,3.0709794,9.213866,1.3580034
1409523407234,2.2319946,8.855554,-5.0242324,3.1348047,9.252956,0.85216296
1409523407241,1.5508442,9.74859,-4.7734394,3.1144292,9.289955,0.4092245
1409523407266,1.714847,12.598887,-4.4406457,3.014039,9.331896,0.040763095
1409523407266,1.6992847,17.775152,-4.470573,2.8735785,9.371929,-0.2825687
1409523407272,0.46866497,19.608511,-4.8877625,2.639877,9.427877,-0.56266195
1409523407294,-2.2786815,19.608511,-3.3746274,2.3175178,9.494983,-0.80301034
1409523407295,-4.234744,19.608511,-6.6504936,1.8475244,9.589968,-0.8885807
1409523407317,-5.3163247,15.59583,-8.435969,1.333094,9.639987,-1.2099247
1409523407318,-5.9956794,9.4295635,-7.979874,0.79787356,9.628195,-1.6827554
1409523407321,-6.178836,7.301717,-4.7979803,0.24691944,9.568308,-2.1346896
1409523407342,-5.3594203,6.463746,-1.893215,-0.26809564,9.521779,-2.3311536
1409523407343,-3.8313212,7.0347633,-3.4207156,-0.66686386,9.503879,-2.3242176
1409523407356,-2.047641,8.10557,-4.9972973,-0.9053112,9.453101,-2.4473755
1409523407361,-1.8154035,7.593809,-3.651756,-0.9688949,9.38221,-2.68436
1409523407376,-2.0566192,5.7023897,0.006584055,-1.0341477,9.342048,-2.797689
1409523407394,-0.95468795,5.3821654,2.0308816,-1.1718122,9.368726,-2.6503236
1409523407395,-0.86610246,4.9895163,1.3628993,-1.2159224,9.445547,-2.3395681
1409523407410,-0.40462008,4.3766007,-0.6314707,-1.2428058,9.499375,-2.0946758
1409523407412,0.42556936,3.8217444,-1.7651252,-1.2071611,9.5082855,-2.0750058
1409523407424,1.3078327,4.155137,-2.3600843,-1.0678494,9.494161,-2.2115617
1409523407458,0.97623575,4.495114,-1.0109516,-0.8200371,9.471058,-2.4076934
1409523407458,0.08259996,4.189853,-1.6843209,-0.63670284,9.483778,-2.4130785
1409523407459,-0.9768343,3.5924997,-1.7118542,-0.5870174,9.467515,-2.488361
1409523407461,-2.0913353,3.039439,-2.1230583,-0.68862486,9.43602,-2.5802555
1409523407476,-3.1789012,2.7263973,-2.4438813,-0.9526631,9.366307,-2.745014
1409523407493,-3.9983168,2.4881742,-2.429516,-1.3781606,9.245804,-2.9641528
1409523407494,-4.1742907,1.9967642,-1.9231426,-1.9319618,9.074935,-3.1754456
1409523407509,-3.8414967,1.7950528,-1.3611037,-2.5174358,8.877912,-3.318976
1409523407513,-3.4985273,2.3223755,-1.3652935,-3.0538065,8.6845875,-3.3797295
1409523407526,-3.3435028,2.6994624,-1.0947487,-3.4962234,8.503718,-3.4108024
1409523407542,-3.3824084,3.5356374,-0.11611878,-3.8666527,8.3594265,-3.3674006
1409523407543,-2.9592333,5.0559554,2.1332338,-4.19659,8.288299,-3.140566
1409523407566,-2.0452468,7.9744873,9.496002,-4.3829594,8.413381,-2.4849792
1409523407567,1.5933412,16.63192,18.96926,-4.2593346,8.818759,-0.50790864
1409523407573,16.806099,19.608511,17.065271,-4.3960476,8.737936,-0.7025754
1409523407594,19.607914,19.608511,6.3500214,-4.551956,8.640625,-0.8886346
1409523407595,16.45894,19.608511,11.07438,-4.6804047,8.5589285,-1.0044589
1409523407623,9.589975,15.368979,6.0848637,-4.7533226,8.490842,-1.2173325
1409523407623,6.655881,7.2406645,4.466982,3.0788686,8.509724,3.7783017
1409523407624,2.9119477,4.4322658,6.232107,3.605356,8.35766,3.6498394
1409523407644,1.2060791,5.9747305,5.127183,3.7939062,8.188739,3.8368256
1409523407645,-1.1270704,8.107366,-0.14963761,3.6162212,8.154211,4.074577
1409523407664,-3.353678,15.0104475,-6.0501475,3.245352,8.397073,3.889379
1409523407664,-5.6904187,19.608511,-7.1646485,2.5722141,8.974288,3.0027092
1409523407674,-3.4847605,19.608511,-0.8415619,1.6687981,9.463151,1.9581288
1409523407693,1.3760674,17.507002,6.157288,1.1062872,9.61492,1.5810864
1409523407693,2.3612814,11.081563,-9.152434,1.0209812,9.575168,1.8558532
1409523407716,-2.0931308,9.099164,-9.905411,1.1124364,9.694747,0.97198963
1409523407717,-3.2345665,8.27077,-5.4964886,0.8469696,9.7696905,0.07855233
1409523407721,-3.402759,6.703166,-0.4758476,0.5133445,9.787292,-0.34027538
1409523407751,-2.882619,5.5497594,1.009156,0.18024069,9.80031,-0.30301166
1409523407753,-2.5115175,5.0601454,-0.9451111,-0.10302871,9.804117,-0.19774741
1409523407754,-2.6372132,5.7137623,-1.661576,-0.35136905,9.795656,-0.30335578
1409523407761,-2.7754784,7.311892,-0.7882909,-0.60883236,9.774126,-0.5159045
1409523407777,-2.9269116,9.0315275,0.20709845,-0.861571,9.751282,-0.5835912
1409523407797,-2.9059622,9.910798,0.40701428,-1.1007395,9.731551,-0.50567967
1409523407798,-2.2290018,9.702502,-0.4902128,-1.3068444,9.710226,-0.41721287
1409523407801,-1.2629414,9.464878,-1.8183962,-1.4226924,9.692574,-0.44762272
1409523407825,-0.7858967,9.5492735,-2.7982233,-1.4264389,9.682455,-0.6210654
1409523407826,-0.7433996,9.671976,-3.3435028,-1.3801677,9.669989,-0.8699872
1409523407843,-0.8439561,9.467871,-3.484162,-1.3256959,9.649989,-1.1360604
1409523407845,-0.7858967,9.354745,-3.2435448,-1.3065774,9.621652,-1.3737042
1409523407864,-0.5805939,9.610924,-2.9041667,-1.2819233,9.597101,-1.5565013
1409523407864,-0.5734113,10.548254,-2.9131448,-1.2359573,9.5832615,-1.6744865
1409523407873,-1.2240356,12.46182,-2.6713305,-1.1828824,9.574364,-1.7614527
1409523407889,-1.8004397,13.572729,-2.2290018,-1.1829484,9.570707,-1.7811731
1409523407893,-1.3676877,12.084733,-1.5292963,-1.2163754,9.574754,-1.7363436
1409523407908,-0.29927522,10.13286,-0.20171149,-1.1921594,9.590349,-1.665645
1409523407929,0.52492875,9.613917,0.11492168,-1.09433,9.628432,-1.5053627
1409523407930,1.3030443,9.774927,-1.4059949,-0.9119671,9.671868,-1.339272
1409523407933,1.7483658,9.358934,-1.7034745,-0.6740439,9.690281,-1.3470471
1409523407941,2.0494366,9.275736,-2.179322,-0.42916286,9.693319,-1.4232993
1409523407964,2.0099323,9.351153,-1.8183962,-0.19390228,9.678362,-1.5691054
1409523407965,1.7723078,8.574235,-1.7172412,-0.0043283845,9.664459,-1.6639142
1409523407975,2.566584,8.546103,-2.4558525,0.14222206,9.647648,-1.7530186
1409523407999,3.1052797,8.690952,-1.5310919,0.3662211,9.617725,-1.8803301
1409523407999,2.654571,7.3627687,0.31244332,0.65179247,9.59941,-1.8965521
1409523408009,2.7048495,7.6249337,0.02932897,0.8815359,9.615432,-1.7136893
1409523408030,3.016694,8.4347725,-0.3633201,1.09694,9.6193285,-1.5606527
1409523408031,3.2160115,9.3421755,-0.28072014,1.324871,9.607064,-1.4558402
1409523408035,3.277662,9.770139,0.6787562,1.5445495,9.591293,-1.3385965
1409523408042,2.9592333,9.655815,1.1127052,1.7367022,9.584915,-1.1330012
1409523408066,2.373851,9.248801,0.96665895,1.8659033,9.583779,-0.9165037
1409523408067,1.8417397,8.945336,0.2837129,1.9226354,9.587062,-0.749748
1409523408073,1.596334,9.153631,-0.45789108,1.920359,9.592623,-0.6813329
1409523408092,1.091756,9.746795,-0.2088941,1.8908731,9.596856,-0.7037926
1409523408095,0.61770403,10.327988,0.36391866,1.8120868,9.61286,-0.69259167
1409523408113,1.2958617,11.3167925,0.10594343,1.6918966,9.639723,-0.619361
1409523408114,2.5971103,12.332533,-0.6967127,1.6407986,9.6505375,-0.58761054
1409523408122,3.6978445,12.683284,-0.41958386,1.7055128,9.634257,-0.66537577
1409523408147,3.654749,12.488156,0.27473465,1.8435739,9.605969,-0.7049502
1409523408147,2.7748797,11.750143,1.2599486,1.9587092,9.585552,-0.6716215
1409523408156,2.2092497,11.737574,2.0919337,1.9822856,9.589635,-0.5290093
1409523408179,2.146402,11.850699,4.89315,1.9598993,9.60438,-0.2917077
1409523408180,2.971803,12.4869585,7.9972324,1.9522067,9.608253,0.2018281
1409523408182,4.8997335,13.590686,7.8757267,2.0074263,9.553167,0.9367992
1409523408193,6.302736,14.0234375,4.6166196,2.170371,9.433121,1.5735589
1409523408213,6.939594,13.971364,0.8631097,2.3724809,9.335806,1.8396807
1409523408215,6.5906386,13.39496,-2.8042088,2.5748584,9.298036,1.7569959
1409523408222,5.7059813,12.892178,-6.439804,2.7657216,9.31056,1.354493
1409523408240,5.3127337,12.758701,-6.67683,2.8998535,9.339454,0.73201317
1409523408242,4.7979803,13.359646,-5.276222,3.013123,9.331233,0.139917
1409523408262,3.4488475,13.433866,-4.1533413,3.0622933,9.311518,-0.29732117
1409523408264,2.693477,12.738949,-1.5628152,3.0041943,9.316067,-0.59675854
1409523408275,3.043629,11.807006,3.5769374,2.9244065,9.337708,-0.65226567
1409523408304,2.7449522,10.893618,6.857592,2.901708,9.361915,-0.32410073
1409523408306,1.039682,9.721058,6.463746,2.9229012,9.356205,0.2974388
1409523408306,0.24779987,9.486425,3.7989995,2.849398,9.34377,0.86331034
1409523408350,1.1725603,10.381857,2.6180596,2.6979458,9.3533945,1.1855235
1409523408350,2.8269536,11.176133,1.4933833,2.590248,9.362088,1.3462145
1409523408351,1.9069817,10.313622,-0.99778354,2.6061435,9.356325,1.3555813
1409523408352,1.0827777,9.69951,-2.6408045,2.5676012,9.393673,1.1561677
1409523408354,0.54647654,10.0664215,-2.9388826,2.4651608,9.453766,0.84833795
1409523408373,0.3477578,13.56016,-2.7234044,2.3204505,9.511736,0.559245
1409523408375,-0.08678981,19.121891,-3.3871968,2.11984,9.570651,0.28158626
1409523408391,-1.4502877,19.608511,-4.4663835,1.838604,9.632752,0.0035348963
1409523408407,-2.690484,19.608511,-6.7881603,1.5028079,9.686287,-0.29631007
1409523408408,-4.032434,19.604322,-8.522161,1.1366794,9.715263,-0.70140743
1409523408421,-4.3502645,14.237121,-10.015544,0.7124983,9.710628,-1.1689751
1409523408422,-4.608838,9.0554695,-4.993706,0.29405922,9.652103,-1.7090371
1409523408436,-3.004723,8.546701,-0.018555064,-0.12097368,9.616268,-1.9191515
1409523408442,-1.6154876,8.892065,0.0664391,-0.36780632,9.6406,-1.7589685
1409523408457,-1.0588357,8.64666,-3.3051953,-0.45212755,9.659767,-1.6293647
1409523408481,-0.58298814,8.348581,-7.3603745,-0.48562926,9.629163,-1.7927086
1409523408483,-1.4269443,6.1357403,-7.597999,-0.46767625,9.52937,-2.2677655
1409523408484,-1.9387048,4.2179847,-4.507085,-0.53248197,9.395005,-2.7605696
1409523408494,-0.9504981,3.8624458,-0.52373165,-0.693707,9.304669,-3.018658
1409523408519,-0.75596917,3.6302083,2.1529858,-0.78717697,9.321451,-2.9430127
1409523408520,0.17657238,3.8385038,2.083554,-0.8470314,9.408997,-2.6312978
1409523408522,0.8367735,4.1796775,-0.96665895,-0.7765238,9.493209,-2.333743
1409523408549,0.62847793,4.2239704,-2.8652608,-0.613156,9.494335,-2.3774002
1409523408550,-0.29448682,2.980781,-0.93254155,-0.4604157,9.436222,-2.6298525
1409523408554,-0.5374983,2.8341362,-1.282095,-0.4558517,9.42964,-2.6541548
1409523408571,-1.2473791,2.5210943,-2.1817162,-0.5178314,9.413747,-2.6988158
1409523408575,-2.544438,1.8219875,-2.396596,-0.6875325,9.349746,-2.877493
1409523408588,-3.775656,1.70946,-2.3169887,-1.0504085,9.233429,-3.1322203
1409523408594,-4.506486,2.070386,-2.1386206,-1.6016815,9.067418,-3.3744507
1409523408615,-4.9081135,2.5067291,-1.8561049,-2.2689333,8.854292,-3.5530114
1409523408616,-4.655525,2.9562407,-1.0881647,-2.9600132,8.617248,-3.6265378
1409523408622,-4.225766,3.781043,0.3345897,-3.558472,8.424446,-3.540674
1409523408651,-3.6475663,5.0200424,3.0921116,-4.03074,8.347875,-3.1994588
1409523408652,-2.2278047,6.6510925,6.3751607,-4.3521357,8.459715,-2.379607
1409523408654,0.108337626,8.817246,9.764751,-4.332269,8.737943,-1.0247961
1409523408682,4.051588,16.084846,13.496714,-3.7422647,9.033697,0.7470877
1409523408683,12.190677,19.608511,11.33894,-2.322286,9.206349,2.4536738
1409523408684,18.810045,19.608511,8.204929,-2.4833267,9.221079,2.2305102
1409523408717,16.941969,19.608511,7.277775,-2.6204364,9.231955,2.0185883
1409523408718,13.215395,14.115016,3.719991,-2.652323,9.257999,1.8506807
1409523408718,10.603919,7.5004354,5.0918684,3.6174593,8.616558,2.9730976
1409523408722,7.829638,6.2285156,8.511986,4.206121,8.354223,2.9471848
1409523408749,6.001665,8.464102,8.279748,4.4588118,8.067003,3.348558
1409523408750,3.8642416,10.118495,3.0364463,4.4636145,7.9044847,3.71021
1409523408755,1.2336124,11.369465,-4.183269,4.3461823,7.9919167,3.6620178
1409523408775,-1.1348516,15.449185,-9.746795,4.0686483,8.365431,3.1041994
1409523408775,-2.859874,17.617733,-8.84478,3.5358474,8.915932,2.0431228
1409523408790,-2.634819,15.572487,-3.9019501,2.8406456,9.321736,1.0983481
1409523408806,-1.9710265,12.457031,-2.9789855,2.2644923,9.516991,0.6851296
1409523408806,-2.4821887,11.273697,-4.883573,1.8632511,9.6195135,0.40454528
1409523408829,-3.520075,10.967239,-3.8923733,1.482177,9.693946,-0.030810662
1409523408829,-2.8275523,11.106103,2.1787236,1.0520747,9.743266,-0.36372417
1409523408834,-2.8311436,9.922769,5.866991,0.7216259,9.779055,-0.14055417
1409523408842,-4.5441947,7.479486,1.3210008,0.43068215,9.789362,0.39156267
1409523408858,-2.819771,6.7971387,-2.5240872,0.0058894963,9.796663,0.44242996
1409523408881,-1.359308,7.023989,-3.1124623,-0.2481601,9.803111,0.08842477
1409523408882,-1.6705543,7.5351515,-2.6072857,-0.33814162,9.797329,-0.26157647
1409523408883,-2.9125464,8.214506,-1.8291701,-0.4800554,9.782827,-0.48600954
1409523408911,-3.66672,8.536526,-0.7930793,-0.75011015,9.7585945,-0.6144736
1409523408912,-3.2704794,7.9822683,0.073023155,-1.0958974,9.725613,-0.61794347
1409523408914,-2.3900118,7.5830355,0.41000703,-1.3666724,9.696459,-0.5303791
1409523408922,-1.3323733,8.154651,0.31902736,-1.5122631,9.680177,-0.42149046
1409523408939,-0.45789108,9.218874,-0.21308395,-1.5241945,9.681353,-0.34445694
1409523408942,-0.18315643,9.97604,-0.7410054,-1.4371351,9.694953,-0.33606112
1409523408958,-0.10295067,10.518925,-1.3186066,-1.331725,9.708399,-0.3793547
1409523408982,0.43394905,11.12406,-1.9458874,-1.2324698,9.717261,-0.47566012
1409523408983,0.27353755,12.121244,-2.6449943,-1.0705434,9.728984,-0.60926205
1409523408984,-1.0271125,13.835493,-2.8892028,-0.95273054,9.728813,-0.7828586
1409523409012,-1.9093759,14.496293,-2.0392613,-0.9657415,9.713231,-0.9438663
1409523409013,-1.2797008,12.514492,-1.0456676,-1.0465072,9.700572,-0.9869736
1409523409014,-0.04129998,9.75697,-0.56802434,-1.0356282,9.706346,-0.9405827
1409523409022,0.89064306,8.1720085,-0.10295067,-0.8993619,9.725604,-0.8798557
1409523409040,1.8608932,8.283937,-0.13826515,-0.69634676,9.748862,-0.80322355
1409523409042,2.8275523,9.038112,0.2184709,-0.44624054,9.768741,-0.73688066
1409523409056,3.6607344,10.018537,-1.6226702,-0.11280455,9.785669,-0.63116044
1409523409070,3.4913447,9.874885,-1.7926586,0.26787528,9.777618,-0.7048191
1409523409074,2.4821887,7.828441,-0.30047232,0.57895494,9.754827,-0.8237601
1409523409089,2.77069,7.3747396,-1.0324994,0.7546876,9.736433,-0.89594686
1409523409108,2.9071593,7.342418,-4.876989,0.9543442,9.699477,-1.0861845
1409523409109,2.9891608,8.025364,-3.9402575,1.1622499,9.604967,-1.6013008
1409523409125,2.8688521,8.377911,-1.8507179,1.3510396,9.5263195,-1.8958731
1409523409125,2.368464,8.702325,-0.8038532,1.5148133,9.496173,-1.9231261
1409523409138,2.0973208,9.003994,-0.11432313,1.6134578,9.504125,-1.7996519
1409523409142,1.9524715,9.427768,0.31783026,1.6736078,9.527061,-1.6138666
1409523409155,1.7711107,9.675568,0.6159084,1.7088594,9.552789,-1.4122499
1409523409170,1.501763,9.713276,0.9475053,1.7173429,9.578995,-1.2099485
