time,acc_x,acc_y,acc_z,gravity_x,gravity_y,gravity_z
1409347885720,-1.276708,2.8532898,8.975264,-1.4260849,2.7831306,9.294668
1409347885746,-1.3730747,2.6839,8.883685,-1.4282933,2.7692616,9.2984705
1409347885746,-1.4287399,2.585738,8.969876,-1.4248972,2.755429,9.3031
1409347885749,-1.3838485,2.6090813,9.534908,-1.4217861,2.7378435,9.308766
1409347885757,-1.536479,2.5677812,9.818622,-1.4275225,2.714185,9.314815
1409347885784,-1.8381484,2.4211364,9.7803135,-1.4477812,2.6872365,9.3195
1409347885784,-1.8567034,2.3409307,9.743802,-1.4762735,2.6564844,9.323845
1409347885789,-1.6346412,2.3612814,9.69951,-1.5131762,2.6278622,9.32604
1409347885805,-1.5131354,2.3888147,9.668983,-1.5494487,2.6076434,9.32576
1409347885808,-1.4622587,2.3894134,9.3661175,-1.5722891,2.5964518,9.32506
1409347885824,-1.3964181,2.344522,9.214086,-1.5767838,2.5904882,9.325958
1409347885838,-1.3072342,2.3187842,9.1751795,-1.5696335,2.5853214,9.328598
1409347885839,-1.2988545,2.3475149,9.150639,-1.5578399,2.5795603,9.33217
1409347885855,-1.4209588,2.4001873,9.211691,-1.5439535,2.5734298,9.336169
1409347885857,-1.5664065,2.4833858,9.293094,-1.5315267,2.5656898,9.340345
1409347885870,-1.6693572,2.5187001,9.3104515,-1.5232338,2.5570612,9.344067
1409347885878,-1.7070658,2.529474,9.294291,-1.5218074,2.548206,9.346718
1409347885894,-1.7004818,2.5258827,9.357738,-1.5269567,2.5407488,9.347908
1409347885908,-1.6747441,2.5797524,9.51336,-1.5353985,2.535085,9.3480625
1409347885909,-1.7160441,2.5600002,9.378088,-1.5431032,2.5303981,9.348064
1409347885922,-1.7603368,2.4887726,9.337387,-1.5502989,2.525563,9.348181
1409347885936,-1.6525977,2.4546554,9.390657,-1.5577735,2.5188086,9.348761
1409347885937,-1.4975731,2.4708161,9.442732,-1.5651741,2.5106,9.349733
1409347885954,-1.4275428,2.409764,9.403227,-1.5672437,2.5007308,9.352032
1409347885957,-1.4383167,2.327164,9.384672,-1.5616822,2.4878488,9.356396
1409347885974,-1.4083891,2.2840683,9.509171,-1.553533,2.4722419,9.361887
1409347885979,-1.407192,2.3139958,9.557653,-1.54693,2.4546936,9.367597
1409347885993,-1.4173675,2.3157916,9.570223,-1.5434924,2.437708,9.372599
1409347886008,-1.4059949,2.2643163,9.601347,-1.5439621,2.4216473,9.376683
1409347886010,-1.447295,2.2337902,9.627085,-1.5469944,2.407747,9.379763
1409347886019,-1.5023615,2.2242134,9.566631,-1.5547774,2.3975067,9.381099
1409347886036,-1.477821,2.2254105,9.564238,-1.5662345,2.3913217,9.380772
1409347886037,-1.4437037,2.183512,9.524733,-1.5806636,2.3878582,9.379233
1409347886053,-1.472434,2.1362264,9.420585,-1.5967569,2.3868663,9.3767605
1409347886057,-1.5149311,2.1003134,9.374496,-1.6126362,2.3877153,9.373826
1409347886071,-1.4975731,2.1428106,9.3343935,-1.6272688,2.3891637,9.370927
1409347886077,-1.4802152,2.1529858,9.224859,-1.6410515,2.3921723,9.367756
1409347886090,-1.4389153,2.1003134,9.11293,-1.6525326,2.3955355,9.364878
1409347886107,-1.4371196,2.0721815,9.09258,-1.6619714,2.3989177,9.362341
1409347886109,-1.459266,2.0787656,9.076419,-1.6716714,2.4023902,9.359723
1409347886122,-1.4652514,2.0847511,9.073426,-1.6831756,2.4053814,9.356894
1409347886137,-1.3688848,2.0739772,9.069835,-1.6965092,2.407329,9.353984
1409347886138,-1.30484,2.0787656,9.167398,-1.7102901,2.4093304,9.350959
1409347886153,-1.4466964,2.0925324,9.238028,-1.7237208,2.4089887,9.34858
1409347886157,-1.5664065,2.166154,9.281123,-1.7381527,2.4083323,9.346076
1409347886171,-1.6364368,2.2463598,9.348759,-1.7536376,2.409925,9.3427725
1409347886191,-1.733402,2.3421278,9.405622,-1.7702237,2.4145207,9.338457
1409347886192,-1.8166006,2.36188,9.141062,-1.7869892,2.425599,9.332392
1409347886206,-1.83336,2.380435,8.940548,-1.8034061,2.4472415,9.323579
1409347886210,-1.75076,2.4785974,8.7292595,-1.8191575,2.4814317,9.311474
1409347886222,-1.632247,2.6300306,8.432379,-1.8362551,2.5230148,9.296932
1409347886239,-1.6567876,2.754529,8.328231,-1.8519022,2.5773501,9.278907
1409347886240,-1.8004397,2.8281507,8.337209,-1.8665377,2.639556,9.258465
1409347886256,-1.9560628,2.8628666,8.330027,-1.8834858,2.701624,9.237104
1409347886260,-2.171541,2.949058,8.605359,-1.9053398,2.7585123,9.215784
1409347886272,-2.343325,3.039439,8.762778,-1.9308378,2.8106935,9.194686
1409347886292,-2.4187422,3.0963013,8.680179,-1.9562016,2.8598943,9.17413
1409347886293,-2.36188,3.1016884,8.558074,-1.9771905,2.9073443,9.1546955
1409347886305,-2.1906946,3.1130607,8.469488,-1.9943235,2.9548554,9.135748
1409347886321,-1.9812019,3.0663738,8.145074,-2.0070493,3.0033276,9.117136
1409347886322,-1.8303672,2.9855695,7.838018,-2.0123067,3.0506616,9.100246
1409347886338,-1.6208745,3.0813377,7.8368206,-2.0083954,3.090458,9.087673
1409347886339,-1.3904326,3.2866404,7.9996266,-1.995843,3.116003,9.081714
1409347886355,-1.3371617,3.3093853,8.393473,-1.9748027,3.120818,9.08466
1409347886357,-1.4095862,3.0891187,8.839992,-1.9438617,3.102178,9.097708
1409347886371,-1.5532384,2.8323407,9.154829,-1.9048293,3.0705996,9.116657
1409347886395,-1.5849615,2.6874914,9.254189,-1.8635926,3.0199115,9.142076
1409347886396,-1.532289,2.6390088,9.387066,-1.8188969,2.9582822,9.171182
1409347886398,-1.6059108,2.694674,9.672575,-1.7721503,2.8925862,9.20124
1409347886409,-1.6316484,2.7539306,10.033501,-1.7261053,2.8259857,9.230642
1409347886421,-1.5987282,2.7084408,10.347141,-1.6794457,2.7597067,9.259258
1409347886440,-1.602918,2.634819,10.486005,-1.6318274,2.6951506,9.286748
1409347886442,-1.5095441,2.5803509,10.389638,-1.5854646,2.6347337,9.312082
1409347886463,-1.5065514,2.5073278,10.103531,-1.5404263,2.5789912,9.3352165
1409347886464,-1.7238252,2.5181017,9.717466,-1.4968092,2.5347207,9.354418
1409347886469,-1.9710265,2.610877,9.464279,-1.4574794,2.502205,9.369371
1409347886488,-2.0069396,2.6449943,9.557653,-1.4228964,2.476811,9.381426
1409347886491,-1.8908207,2.505532,9.986216,-1.3938278,2.4512548,9.392496
1409347886505,-1.8249803,2.3523033,10.384252,-1.3678145,2.4197242,9.404489
1409347886525,-1.7525556,2.212841,10.588357,-1.343141,2.3829963,9.417414
1409347886526,-1.673547,2.1045034,10.613496,-1.3225287,2.3445625,9.42997
1409347886544,-1.6986861,2.0721815,10.487801,-1.3095669,2.307373,9.440946
1409347886544,-1.7501614,2.0506337,10.366295,-1.3002656,2.2748907,9.4501095
1409347886551,-1.8297687,2.0392613,10.398018,-1.2954984,2.2460215,9.457666
1409347886558,-1.9219455,2.0057425,10.493188,-1.2903107,2.2188284,9.464792
1409347886575,-2.0141222,1.9422961,10.556035,-1.282023,2.1905098,9.472511
1409347886587,-2.03148,1.8423382,10.446501,-1.2708368,2.160344,9.480943
1409347886589,-1.9434932,1.7286136,10.272323,-1.2579921,2.1307728,9.489345
1409347886603,-1.7848774,1.6525977,10.0825815,-1.2434964,2.101938,9.497682
1409347886618,-1.6579847,1.5334862,10.00477,-1.2263663,2.075457,9.50573
1409347886619,-1.620276,1.4311341,9.794679,-1.2053094,2.0493393,9.514085
1409347886640,-1.4921862,1.395221,9.492412,-1.1824069,2.0237138,9.522442
1409347886641,-1.3640964,1.4281414,9.233837,-1.1594317,2.0015762,9.5299425
1409347886659,-1.3245921,1.4891934,9.091981,-1.1375148,1.9848722,9.536076
1409347886660,-1.4197617,1.5598224,9.022549,-1.1169258,1.9722562,9.541125
1409347886674,-1.5388732,1.5783775,9.024943,-1.0998951,1.9613703,9.545346
1409347886687,-1.6035166,1.6190789,9.052477,-1.0886903,1.9503334,9.548892
1409347886692,-1.6101006,1.6603789,9.048885,-1.081809,1.9375551,9.552275
1409347886700,-1.5101427,1.673547,8.969278,-1.0817896,1.9235429,9.555109
1409347886717,-1.3970166,1.6334441,8.861539,-1.0857728,1.9092432,9.557525
1409347886718,-1.2497733,1.6705543,8.711902,-1.0913004,1.8949966,9.55973
1409347886735,-1.1378443,1.7190368,8.735844,-1.0952663,1.8824532,9.561755
1409347886738,-1.1282675,1.7753005,8.862138,-1.0976114,1.870466,9.563838
1409347886760,-1.1390414,1.7675194,8.878299,-1.100687,1.8584465,9.565827
1409347886761,-1.1055226,1.8082209,8.9363575,-1.1042548,1.8450015,9.568019
1409347886770,-0.97982705,1.8291701,8.972271,-1.1095783,1.8300451,9.570274
1409347886799,-0.8511387,1.8650831,8.987833,-1.1167163,1.8139426,9.57251
1409347886800,-0.79726917,1.8908207,9.15842,-1.122353,1.7981759,9.574824
1409347886802,-0.8098387,1.8980033,9.381081,-1.1249623,1.7809705,9.577734
1409347886835,-0.81343,1.9003977,9.592968,-1.1405413,1.7104131,9.588746
1409347886837,-0.84575176,1.8860323,9.780912,-1.1405413,1.7104131,9.588746
1409347886838,-0.84814596,1.863886,9.936536,-1.1405413,1.7104131,9.588746
1409347886840,-0.842759,1.8483237,10.07121,-1.1506671,1.6839112,9.592226
1409347886860,-0.8343793,1.7830818,10.173561,-1.164144,1.6585383,9.59502
1409347886861,-0.84575176,1.7124528,10.2178545,-1.1793473,1.6332929,9.597493
1409347886871,-0.88166475,1.6753427,10.241198,-1.193833,1.6083547,9.599914
1409347886896,-0.93613285,1.6454151,10.318411,-1.2069471,1.5831128,9.602469
1409347886897,-1.0097545,1.6154876,10.406996,-1.2189302,1.5566508,9.605282
1409347886899,-1.1408371,1.5939398,10.436924,-1.2283735,1.5292875,9.608474
1409347886924,-1.1755531,1.5819688,10.355521,-1.2369281,1.501512,9.611756
1409347886924,-1.1994951,1.5891514,10.219051,-1.2426072,1.4758307,9.615001
1409347886941,-1.1839328,1.6154876,10.061633,-1.2474698,1.4553326,9.617495
1409347886943,-1.0989386,1.5771804,9.844957,-1.2515248,1.4414767,9.619055
1409347886955,-1.06123,1.5155296,9.564238,-1.2536013,1.4324127,9.620138
1409347886968,-1.0516531,1.4610616,9.345766,-1.2548339,1.4271004,9.620768
1409347886972,-0.9935937,1.3880384,9.189545,-1.2560725,1.4233524,9.6211605
1409347886988,-1.0097545,1.3323733,9.073426,-1.2555996,1.418681,9.621913
1409347886991,-1.0420763,1.3640964,8.985439,-1.2543421,1.4113529,9.623154
1409347887001,-1.055843,1.4185646,9.017162,-1.250347,1.4018062,9.625069
1409347887018,-1.1049241,1.5095441,9.10455,-1.2433921,1.3898518,9.627704
1409347887019,-1.1647792,1.578976,9.221268,-1.2353369,1.3759211,9.630741
1409347887037,-1.2449849,1.6514006,9.416395,-1.230014,1.3606313,9.6335945
1409347887039,-1.3210008,1.6921021,9.677363,-1.2305936,1.3449126,9.635727
1409347887051,-1.3688848,1.7316064,9.915586,-1.2388278,1.3295232,9.636808
1409347887070,-1.3431472,1.6938977,10.100538,-1.2508479,1.3150764,9.637237
1409347887070,-1.2096704,1.5101427,10.078991,-1.2694011,1.3022959,9.636547
1409347887084,-1.163582,1.412579,10.053851,-1.2924775,1.2911711,9.634976
1409347887107,-1.1665748,1.3988123,10.102933,-1.3173643,1.2820513,9.632823
1409347887109,-1.2312182,1.4107834,10.2417965,-1.3407068,1.2740067,9.63067
1409347887140,-1.347337,1.3958195,10.359112,-1.3595998,1.2647806,9.629236
1409347887142,-1.4856021,1.3575124,10.457274,-1.373701,1.2526085,9.628827
1409347887146,-1.5879543,1.3557167,10.505757,-1.3843002,1.2388498,9.629088
1409347887147,-1.5999253,1.3090298,10.411186,-1.3940496,1.2236551,9.629625
1409347887172,-1.5047557,1.210269,10.175956,-1.4005831,1.2094113,9.630476
1409347887173,-1.3724761,1.1091139,9.944916,-1.403513,1.1983159,9.631437
1409347887177,-1.270124,1.0121487,9.712678,-1.4032102,1.191436,9.632335
1409347887202,-1.240795,0.95947635,9.574412,-1.3999846,1.1882546,9.633197
1409347887203,-1.2886791,0.9271546,9.485229,-1.3946102,1.1879991,9.634008
1409347887204,-1.3269863,0.91578215,9.426571,-1.3899635,1.1888044,9.63458
1409347887224,-1.3491327,0.88046765,9.370906,-1.386773,1.1912179,9.634742
1409347887225,-1.3820529,0.8571242,9.317635,-1.387532,1.1939521,9.634294
1409347887240,-1.4347254,0.87448215,9.263765,-1.3940338,1.197012,9.632976
1409347887242,-1.484405,0.92655605,9.255983,-1.4059007,1.2008978,9.630768
1409347887255,-1.4981717,0.95588505,9.320627,-1.4205705,1.2044283,9.628174
1409347887281,-1.484405,0.9307459,9.302073,-1.4351811,1.2055084,9.625871
1409347887282,-1.412579,0.9044097,9.290101,-1.4472047,1.2026674,9.624426
1409347887283,-1.3587095,0.88765025,9.351153,-1.4550488,1.1977795,9.623854
1409347887314,-1.34195,0.89603,9.424176,-1.460724,1.189138,9.624064
1409347887315,-1.359308,0.9247604,9.498397,-1.463564,1.1779233,9.625013
1409347887316,-1.3263878,0.919972,9.528923,-1.4648424,1.1657822,9.626296
1409347887320,-1.2593501,0.92416185,9.473258,-1.4662983,1.1545423,9.627429
1409347887354,-1.2503718,0.9367314,9.473856,-1.4681265,1.1452032,9.628265
1409347887356,-1.2551602,0.99060094,9.494805,-1.4699818,1.1374962,9.628897
1409347887364,-1.283292,1.0690111,9.484032,-1.4717566,1.1307899,9.6294155
1409347887409,-1.2898762,1.1366472,9.493608,-1.4726709,1.1256714,9.629875
1409347887410,-1.3078327,1.146224,9.437943,-1.472876,1.1222459,9.630243
1409347887411,-1.276708,1.0953473,9.306262,-1.4717438,1.1202711,9.630647
1409347887412,-1.2366052,1.0468647,9.14226,-1.46905,1.1203867,9.631044
1409347887413,-1.151611,1.0103531,9.039907,-1.4662323,1.1232746,9.631137
1409347887414,-1.0773908,1.0450691,9.087791,-1.4634414,1.1275691,9.631061
1409347887419,-1.0540473,1.0947487,9.320028,-1.4604344,1.1301591,9.631213
1409347887446,-1.0899603,1.1348516,9.622296,-1.458032,1.1305963,9.631525
1409347887447,-1.1713632,1.1701661,9.901221,-1.4568567,1.1254386,9.632307
1409347887453,-1.1893197,1.1821371,10.143634,-1.4606215,1.1165172,9.632775
1409347887477,-1.1510124,1.1713632,10.26095,-1.4696873,1.105383,9.632681
1409347887478,-1.1049241,1.115698,10.280104,-1.4812533,1.0941457,9.632192
1409347887480,-1.0636241,1.062427,10.270527,-1.4931277,1.0845255,9.631447
1409347887491,-1.050456,1.0660183,10.237606,-1.5041596,1.0772544,9.630546
1409347887510,-1.0390835,1.086369,10.222643,-1.5129191,1.0718467,9.629777
1409347887513,-1.1330559,1.1300632,10.213066,-1.5162641,1.0671425,9.629774
1409347887519,-1.3227965,1.1803415,9.807847,-1.5172554,1.0642256,9.62994
1409347887546,-1.4664485,1.3934253,9.415796,-1.5143297,1.0656677,9.630241
1409347887547,-1.4915876,1.4760253,9.123106,-1.5094807,1.074869,9.62998
1409347887551,-1.4873978,1.5029601,8.957307,-1.5019525,1.0911357,9.629327
1409347887582,-1.4850036,1.4466964,8.897452,-1.4914298,1.1123637,9.628534
1409347887583,-1.4514848,1.4024036,8.9040365,-1.4803315,1.1350094,9.6276045
1409347887584,-1.3676877,1.4107834,8.871715,-1.4711514,1.1573931,9.626347
1409347887628,-1.1767502,1.4556746,8.800487,-1.4621893,1.1800334,9.624963
1409347887631,-1.0474633,1.5442601,8.692149,-1.4529492,1.2049515,9.623275
1409347887632,-1.0498575,1.6897079,8.59279,-1.4427861,1.2341639,9.621102
1409347887634,-1.1270704,1.9351135,8.7370405,-1.4319503,1.2695348,9.618117
1409347887636,-1.2060791,2.0973208,9.037513,-1.4217932,1.3120266,9.613921
1409347887640,-1.1528081,1.5951369,9.00579,-1.4158787,1.3597533,9.608161
1409347887657,-1.0803835,1.483208,8.887876,-1.4179524,1.4059011,9.60121
1409347887659,-0.9163807,2.232593,9.172785,-1.4315774,1.4537903,9.592052
1409347887670,-0.81402856,2.160767,9.127894,-1.4487926,1.5149298,9.579999
1409347887687,-1.0749966,1.7232267,9.0315275,-1.4726357,1.5816989,9.56556
1409347887709,-1.3575124,1.8644845,9.416994,-1.493952,1.6491276,9.550858
1409347887710,-1.311424,2.1440077,9.548077,-1.5112884,1.7211899,9.535402
1409347887712,-1.292869,2.4672248,9.546879,-1.5293118,1.8011898,9.517736
1409347887719,-1.460463,2.3870192,9.76535,-1.5490336,1.8900484,9.497294
1409347887748,-1.6986861,2.146402,9.871892,-1.5797955,1.9792578,9.474026
1409347887750,-1.8058267,2.1350293,9.758167,-1.6192946,2.0685592,9.448245
1409347887753,-1.8668787,2.3241713,9.5798,-1.6691514,2.1586144,9.419379
1409347887788,-1.9297266,2.6940753,9.702502,-1.7215852,2.250038,9.388496
1409347887793,-1.7872716,2.9161377,9.789292,-1.7744802,2.3418808,9.356132
1409347887794,-1.6358383,2.823961,9.663596,-1.8212976,2.432157,9.324048
1409347887814,-1.5316905,2.4642322,9.646837,-1.8576578,2.5158544,9.2946205
1409347887815,-1.2192472,2.1625626,9.737817,-1.8864675,2.588113,9.268943
1409347887816,-1.1653777,2.0458453,9.728839,-1.9095432,2.65245,9.246001
1409347887819,-1.5610195,2.2110453,9.691729,-1.9301157,2.7062485,9.226118
1409347887840,-6.755839,2.6593595,9.726444,-1.9538866,2.7512157,9.207798
1409347887840,-4.5657425,3.29502,10.717644,-2.0366445,2.7871194,9.179021
1409347887852,-4.086902,4.441244,10.188525,-2.1069112,2.8219314,9.152487
1409347887885,-2.1218612,4.1557355,9.537302,-2.1623938,2.8645308,9.126275
1409347887886,-0.3716998,3.1352072,8.321647,-2.1708598,2.8837032,9.118223
1409347887887,0.12808979,2.4851813,8.582615,-2.1745646,2.8834927,9.117408
1409347887914,-0.3878607,1.839944,9.570223,-2.1848125,2.861976,9.121737
1409347887914,-1.757344,1.3970166,10.237008,-2.2217767,2.8234332,9.12482
1409347887915,-3.5356374,0.8714894,10.263943,-2.2920427,2.7656834,9.125126
1409347887920,-5.5988407,0.20649989,9.43076,-2.3973105,2.6993089,9.11795
1409347887947,-6.911462,0.17896658,8.564059,-2.538647,2.6472979,9.094914
1409347887948,-6.618172,1.287482,8.763377,-2.6914964,2.6328533,9.055071
1409347887952,-5.4162827,2.1625626,8.904634,-2.797897,2.6707258,9.011625
1409347887977,-4.0216603,2.813187,8.536526,-2.816154,2.7376645,8.985814
1409347887977,-2.6114755,3.484162,7.2664022,-2.7730665,2.8420305,8.966791
1409347887979,-1.4119805,4.143166,7.687782,-2.6632931,2.965507,8.960079
1409347888023,-0.038307227,2.5103204,7.9631147,-2.533317,3.0769286,8.960201
1409347888031,-0.9307459,1.1988965,8.19236,-2.4056997,3.1300774,8.976949
1409347888032,-2.132635,-1.0749966,8.173206,-2.2895155,3.1158564,9.012211
1409347888033,-2.8281507,-3.5236664,5.841852,-2.1974256,3.0373547,9.061798
1409347888054,-2.4157495,-2.5151088,10.771513,-2.140399,2.9332917,9.109604
1409347888055,-0.320823,-1.5041572,7.6907744,-2.0872104,2.7876227,9.167502
1409347888057,1.0007763,0.09995792,6.096236,-2.0227275,2.709477,9.205308
1409347888075,1.4676456,0.27832595,5.267244,-1.8835078,2.7185068,9.232145
1409347888075,0.79008657,-1.0714053,6.2512608,-1.6817938,2.7586067,9.25916
1409347888079,-0.51954174,-1.4670471,6.463746,-1.4838653,2.7748559,9.288095
1409347888107,-0.82240826,-0.717662,5.568913,-1.2746732,2.7438984,9.32827
1409347888108,-0.30885202,0.641646,4.8578353,-1.0541062,2.6587248,9.3803215
1409347888113,-0.28072014,0.7374141,4.9919105,-0.87527806,2.5451982,9.430071
1409347888119,-0.3728969,-0.35314476,5.079299,-0.7453463,2.3593428,9.489381
1409347888136,1.3760674,-2.067393,4.1335893,-0.7467609,2.0995812,9.550105
1409347888167,1.9668367,-3.3836055,5.1571107,-0.8481993,1.7768376,9.606966
1409347888168,1.2850877,-3.3560722,7.2143283,-1.001374,1.4034252,9.653913
1409347888169,0.3357868,-2.944868,8.804677,-1.1648413,0.9862874,9.687144
1409347888196,-0.599149,-2.8712463,9.91439,-1.3094573,0.5293351,9.704407
1409347888197,-1.6376339,-3.4051533,10.83077,-1.4502372,0.055654522,9.698665
1409347888198,-3.164536,-4.6261964,10.975619,-1.6072987,-0.41955814,9.664934
1409347888199,-5.6999955,-6.5655,9.18715,-1.7817148,-0.8773912,9.60344
1409347888221,-7.9092455,-7.0634937,6.925827,-1.9849653,-1.3111762,9.513733
1409347888222,-9.0429,-6.1985884,6.3643866,-2.2267294,-1.7131109,9.395601
1409347888240,-8.689157,-5.2397103,6.4787097,-2.5283325,-2.097215,9.2401085
1409347888240,-8.055291,-5.0200424,7.04015,-2.8957007,-2.4968827,9.030552
1409347888252,-7.717709,-5.4683566,8.130111,-3.310555,-2.9334345,8.7524605
1409347888272,-8.025364,-6.302736,9.089587,-3.7565136,-3.3817775,8.403724
1409347888273,-8.833407,-7.845799,10.228628,-4.204052,-3.859383,7.9750547
1409347888280,-9.34038,-8.445546,12.127829,-4.65506,-4.3431516,7.4590774
1409347888321,-9.582792,-8.003218,12.592304,-5.0769796,-4.77452,6.8991756
1409347888322,-9.973047,-7.092224,11.497555,-5.4596024,-5.1060863,6.3475204
1409347888323,-9.894637,-5.722142,10.476428,-5.8003774,-5.313964,5.8555784
1409347888331,-9.378088,-4.207211,9.464279,-6.1123137,-5.4052663,5.439955
1409347888360,-8.935161,-3.4075475,8.063671,-6.4093575,-5.4258103,5.0646925
1409347888361,-8.655039,-3.2261868,7.350199,-6.6909127,-5.3883862,4.7294145
1409347888362,-8.585009,-3.667917,7.2071457,-6.964209,-5.3138185,4.408346
1409347888364,-8.88608,-4.805163,6.70975,-7.217139,-5.24189,4.075032
1409347888372,-9.243414,-5.632958,5.7263317,-7.4361978,-5.203056,3.7150447
1409347888391,-9.057863,-5.997475,5.12838,-7.630094,-5.19125,3.317073
1409347888392,-8.754398,-5.931036,4.71538,-7.810406,-5.183399,2.881029
1409347888400,-8.835801,-5.659294,4.173692,-7.9766493,-5.162655,2.4270265
1409347888420,-9.375694,-5.6646814,4.2461166,-8.119138,-5.1265054,1.9922146
1409347888421,-10.428544,-5.403713,4.510676,-8.23951,-5.0766435,1.5838428
1409347888436,-11.250953,-4.7668557,4.7668557,-8.337116,-5.012358,1.240631
1409347888452,-11.335946,-4.3358994,4.348469,-8.420946,-4.930984,0.9713063
1409347888453,-10.126875,-5.2259436,4.197634,-8.497374,-4.8352203,0.76530856
1409347888467,-9.349358,-5.9597664,4.0934863,-8.564183,-4.739061,0.6053515
1409347888487,-8.752005,-6.0250087,3.54282,-8.625103,-4.6420536,0.47886473
1409347888488,-8.150461,-5.3276973,1.745373,-8.683236,-4.541935,0.37764615
1409347888503,-8.048109,-4.0521865,0.59256494,-8.741279,-4.436642,0.27685267
1409347888504,-8.304887,-3.0496144,0.19273324,-8.800304,-4.3235674,0.17830373
1409347888519,-8.536526,-2.9322984,-0.11552023,-8.8515415,-4.2209263,0.06630612
1409347888520,-8.963891,-3.4219127,-0.50517654,-8.883797,-4.152737,-0.057654902
1409347888535,-9.3182335,-4.0761285,-0.56922144,-8.897405,-4.1203666,-0.17078912
1409347888553,-9.45171,-4.638766,0.024540568,-8.898662,-4.1118007,-0.27804595
1409347888553,-9.6049385,-5.6120086,0.6841431,-8.890448,-4.1202426,-0.3923615
1409347888565,-9.8276,-6.4577603,0.82480246,-8.876394,-4.138853,-0.49991995
1409347888571,-10.064626,-6.8162923,0.87567925,-8.857498,-4.1650834,-0.60597706
1409347888583,-9.953894,-6.5643024,1.1474211,-8.842542,-4.182859,-0.6953747
1409347888599,-9.57142,-6.120178,1.1354501,-8.839484,-4.1761255,-0.7706606
1409347888600,-9.176975,-5.5844755,0.7260417,-8.8507595,-4.140161,-0.83275926
1409347888614,-8.661025,-5.155315,0.088585466,-8.872942,-4.0827093,-0.8790847
1409347888620,-8.541913,-4.982932,-0.3274071,-8.895684,-4.0233393,-0.9219246
1409347888634,-9.221268,-4.644751,-0.51595044,-8.910301,-3.9787478,-0.9728785
1409347888658,-10.175357,-3.7882257,-0.5602432,-8.920939,-3.939264,-1.0341437
1409347888659,-10.861895,-2.9741971,-0.12090719,-8.929005,-3.9049027,-1.093184
1409347888661,-10.9834,-2.533664,0.99060094,-8.938721,-3.8673651,-1.1459318
1409347888695,-10.110714,-1.9428947,1.8884265,-8.951823,-3.825764,-1.1826938
1409347888696,-8.81964,-1.6765398,2.4732103,-8.968289,-3.7800868,-1.2046342
1409347888696,-7.972093,-1.9602526,2.5390508,-8.98662,-3.733966,-1.2118472
1409347888700,-7.713519,-2.296638,1.8914193,-9.002823,-3.6967769,-1.205574
1409347888779,-7.597999,-2.5486276,0.82779527,-9.014424,-3.6695566,-1.2020413
1409347888779,-7.3789296,-2.7593174,-0.26156655,-9.017323,-3.6634974,-1.198786
1409347888781,-7.3029137,-2.7754784,-1.0205284,-9.010773,-3.6755853,-1.210964
1409347888782,-7.575853,-2.846706,-1.3377602,-8.995962,-3.7026563,-1.2382991
1409347888782,-8.15106,-3.1741128,-1.0444705,-8.9728985,-3.7470653,-1.2716075
1409347888789,-8.666411,-3.1429882,-0.6787562,-8.943212,-3.8080947,-1.299145
1409347888790,-8.581417,-3.1310172,-0.58119243,-8.913472,-3.871464,-1.3161142
1409347888790,-8.03554,-3.0963013,-0.26156655,-8.888063,-3.9262989,-1.3254741
1409347888948,-7.455544,-2.992752,0.3417723,-8.864982,-3.9770458,-1.328756
1409347888948,-7.189788,-3.116652,0.5662287,-8.843481,-4.0259404,-1.3247793
1409347888949,-6.8683662,-2.961029,0.15502456,-8.819299,-4.086499,-1.3003441
1409347888949,-6.1704564,-2.5743654,0.0712275,-8.787237,-4.16934,-1.2535775
1409347888950,-5.3444567,-1.8076223,0.43394905,-8.742513,-4.279286,-1.1944058
1409347888950,-4.6800656,-0.98341835,1.3431472,-8.681145,-4.4207726,-1.1246653
1409347888951,-4.3305125,-1.407192,1.91596,-8.597287,-4.604618,-1.0268985
1409347888951,-4.3795934,-4.3406878,3.5260606,-8.4959755,-4.8162303,-0.8903394
1409347888952,-5.369596,-8.632295,4.89315,-8.344211,-5.1020555,-0.71665746
1409347888952,-6.5738792,-11.86327,4.258686,-8.12005,-5.475277,-0.50645125
1409347888954,-7.5884223,-12.464214,2.4319103,-7.835278,-5.8883204,-0.32630643
1409347888956,-7.1251445,-11.4837885,-1.228824,-7.552254,-6.250357,-0.2585973
1409347888956,-4.574721,-9.069236,-2.4522612,-7.3152266,-6.522281,-0.3430792
1409347888956,-3.9193082,-7.69257,-3.7708676,-7.120028,-6.7255793,-0.49213266
1409347888957,-4.2957964,-7.0982094,-5.1559134,-6.9439564,-6.8949437,-0.6415646
1409347888957,-6.1076083,-10.477625,-7.249643,-6.770225,-7.0540853,-0.7578476
1409347889005,-5.609016,-11.370064,-6.7546415,-6.5760994,-7.220447,-0.88907886
1409347889006,-2.8054059,-8.804078,-5.6616883,-6.3656154,-7.395885,-0.974812
1409347889007,-1.1174936,-7.7853456,-4.0497923,-6.189258,-7.544581,-0.9709662
1409347889007,-0.7505822,-8.71669,-1.8950106,-6.09311,-7.6379557,-0.8402684
1409347889008,-1.6861166,-10.614095,-0.061650693,-6.035403,-7.706038,-0.60106623
1409347889008,-2.806603,-11.581352,0.30166942,-5.9351373,-7.80028,-0.31645176
1409347889013,-3.2866404,-11.550227,-0.19393034,-5.771649,-7.9282875,-0.026609775
1409347889020,-3.8474822,-10.824784,0.12150574,-5.5813336,-8.06122,0.18924634
1409347889059,-4.582502,-10.225636,1.5077485,-5.377304,-8.195364,0.3016614
1409347889060,-5.0427876,-10.028712,2.5833437,-5.1745043,-8.324084,0.3233097
1409347889060,-4.747103,-9.698911,2.7042508,-4.972747,-8.446952,0.30198577
1409347889061,-4.0037036,-9.214684,2.9400797,-4.7746305,-8.561616,0.26832616
1409347889083,-3.99293,-9.231443,3.232771,-4.5904856,-8.662979,0.224956
1409347889083,-5.161899,-9.733627,3.9402575,-4.4217815,-8.75156,0.16866997
1409347889096,-5.771223,-10.860698,3.9965212,-4.2619524,-8.831452,0.10779321
1409347889100,-6.335656,-11.352107,2.9963434,-4.0961447,-8.910033,0.057201207
1409347889116,-6.2327056,-11.219828,2.6198552,-3.9272962,-8.985908,0.0139537575
1409347889121,-5.4408236,-10.755353,2.3127987,-3.766217,-9.054611,-0.0019673775
1409347889133,-4.565144,-10.353725,1.6585833,-3.6288893,-9.110497,0.019485626
1409347889147,-4.0360255,-10.256162,1.115698,-3.5270402,-9.150124,0.07495784
1409347889154,-3.8187518,-10.133459,0.6356605,-3.4576335,-9.175811,0.1402139
1409347889167,-3.828927,-9.452907,0.17717093,-3.4100573,-9.192594,0.19524445
1409347889181,-3.6942532,-8.670602,-0.18136078,-3.3753583,-9.20421,0.24465358
1409347889183,-3.0220811,-8.536526,-0.51116204,-3.365677,-9.206348,0.2928604
1409347889201,-3.004723,-9.22426,-0.54168814,-3.3804107,-9.199801,0.32690418
1409347889203,-3.5182793,-9.697714,-0.7721301,-3.4114797,-9.187919,0.33815235
1409347889213,-3.4344823,-9.440936,-1.3605051,-3.4438221,-9.176516,0.31941864
1409347889231,-3.2531216,-9.575011,-1.650802,-3.4763808,-9.16571,0.27373224
1409347889232,-2.8095956,-8.070854,-1.4281414,-3.5202386,-9.150426,0.21910259
1409347889247,-2.6013002,-6.5858502,-1.3706805,-3.5728252,-9.1309,0.17883122
1409347889263,-2.1260512,-5.7269306,-2.1308396,-3.6471372,-9.101784,0.16222557
1409347889264,-1.1671734,-4.821324,-3.3183637,-3.7365966,-9.065079,0.18052213
1409347889282,-0.41718966,-3.9432502,-2.8790276,-3.8273096,-9.026315,0.2184225
1409347889282,0.2801216,-2.717419,-1.1288661,-3.9016988,-8.993678,0.24675745
1409347889297,0.6859388,-1.5610195,0.31423897,-3.936241,-8.978972,0.23336822
1409347889300,0.7032967,-1.0923545,1.0229226,-3.9186728,-8.988116,0.16777003
1409347889316,0.6943185,-0.7823054,1.2479776,-3.8401353,-9.023368,0.050759662
1409347889331,0.50637364,-0.682946,1.2443863,-3.7310553,-9.06855,-0.10507249
1409347889332,-1.353921,-1.9213469,1.0971429,-3.5649543,-9.131107,-0.29043502
1409347889346,-3.3411086,-3.5966895,0.15382746,-2.7319753,-9.411074,-0.37201422
1409347889352,-3.9803603,-4.7949877,-2.0404584,-3.0899088,-9.301412,-0.32645708
1409347889363,-5.625177,-9.340978,-5.753267,-3.4607604,-9.149547,-0.6923254
1409347889378,-5.620987,-19.608511,-12.126033,-3.7108533,-8.940594,-1.5702783
1409347889380,-0.9864111,-19.608511,-9.54209,-3.5182362,-8.977682,-1.7870766
1409347889397,0.59017074,-18.416199,-2.5689783,-2.6053965,-8.886232,-3.2275572
1409347889400,0.62368953,-8.684967,0.8846575,-2.0344226,-9.136462,-2.9251668
1409347889414,0.98222125,-4.1718965,1.1192893,-1.7165589,-9.329016,-2.4886339
1409347889429,1.5520413,-3.0496144,1.204882,-1.4478343,-9.454341,-2.165551
1409347889433,1.6927006,-3.108871,1.2360066,-1.194322,-9.536392,-1.9496671
1409347889445,1.1198878,-7.474099,1.7513585,-0.9319346,-9.599107,-1.7773644
1409347889462,0.7278373,-15.706562,3.079542,-0.6621198,-9.674989,-1.4582734
1409347889463,0.47405192,-19.608511,4.3041763,-0.3639888,-9.757537,-0.9101545
1409347889481,1.6124948,-18.194138,4.200627,-0.13068639,-9.800044,-0.33526385
1409347889482,3.2878375,-12.448053,3.5212722,0.08717223,-9.805749,0.10030082
1409347889496,4.3598413,-8.728661,2.0428526,0.34281844,-9.788857,0.4807762
1409347889500,5.2899885,-7.268198,0.664391,0.6454956,-9.757565,0.7373199
1409347889513,5.9005103,-7.4687123,-0.7799112,1.0499948,-9.71686,0.8065482
1409347889529,5.728726,-8.801085,-1.9231426,1.524005,-9.663666,0.6792511
1409347889532,4.7506948,-10.01734,-2.4588451,1.9491539,-9.601445,0.42832434
1409347889544,3.5607765,-10.277111,-2.4570496,2.2216234,-9.550164,0.17072701
1409347889561,2.5037365,-10.000581,-2.456451,2.3597074,-9.518,-0.09944106
1409347889561,2.1440077,-9.516354,-2.5851393,2.3769097,-9.508706,-0.32438672
1409347889577,2.393603,-9.357139,-2.5474305,2.3445358,-9.506749,-0.5433549
1409347889580,2.2786815,-9.618107,-2.3798366,2.321646,-9.499394,-0.7361184
1409347889596,2.0500352,-9.894637,-2.1841104,2.2810807,-9.495812,-0.8925126
1409347889600,1.9536686,-9.9951935,-2.0536265,2.2287652,-9.496162,-1.0128683
1409347889614,1.8339585,-9.993398,-1.946486,2.1748717,-9.498164,-1.1068996
1409347889627,1.7591397,-9.964667,-1.7956513,2.1158843,-9.50159,-1.1887931
1409347889633,1.666963,-10.042479,-1.5795746,2.0580056,-9.508654,-1.2330865
1409347889645,1.5089456,-10.137649,-1.3162124,1.9919413,-9.518805,-1.2629211
1409347889662,1.246182,-10.228029,-1.0947487,1.9186027,-9.533382,-1.2664747
1409347889663,1.0121487,-10.329185,-1.0109516,1.8292128,-9.553253,-1.2488984
1409347889677,0.878672,-10.444106,-1.0241197,1.7271194,-9.575314,-1.2250845
1409347889681,1.0372878,-10.540473,-0.985214,1.6212376,-9.596656,-1.2025703
1409347889697,1.3239936,-10.546458,-0.81043726,1.5431523,-9.6132,-1.1728127
1409347889702,1.287482,-10.36031,-0.581791,1.4974189,-9.624985,-1.1348107
1409347889712,0.7565677,-10.148422,-0.34476504,1.4665687,-9.636162,-1.0788723
1409347889729,0.15622166,-10.319608,-0.31184477,1.4077241,-9.652671,-1.0073028
1409347889734,-0.34356794,-10.602722,-0.5129577,1.307183,-9.674201,-0.9335315
1409347889744,-0.62009823,-10.752958,-0.724246,1.1645697,-9.697533,-0.8786728
1409347889760,-0.7823054,-10.55005,-0.8415619,1.0001607,-9.718844,-0.8450565
1409347889761,-0.93493575,-10.186729,-0.89184016,0.8320697,-9.736104,-0.82844955
1409347889777,-0.84814596,-10.199299,-0.98820674,0.66398823,-9.749121,-0.8271416
1409347889781,-0.6218939,-10.339958,-1.0462662,0.51798093,-9.7573395,-0.8345311
1409347889794,-0.52732295,-10.242993,-1.0127473,0.40456456,-9.7614565,-0.8489295
1409347889815,-0.7266402,-10.17416,-0.9247604,0.3147225,-9.7635355,-0.8629593
1409347889816,-0.5883751,-10.150817,-0.86610246,0.21967575,-9.765429,-0.8709413
1409347889829,-0.30226797,-9.993997,-0.7637503,0.14529066,-9.766558,-0.8738573
1409347889832,0.26994625,-10.288484,-0.6745663,0.09896248,-9.76769,-0.86764807
1409347889852,0.39743748,-10.170568,-0.6907272,0.11049788,-9.769083,-0.8504007
1409347889854,0.49440265,-10.102933,-0.75716627,0.1366963,-9.770145,-0.8342507
1409347889861,0.6087258,-10.022727,-0.84934306,0.16927388,-9.77024,-0.82714146
1409347889882,0.78649527,-10.001179,-1.0181342,0.2111486,-9.7692585,-0.8290939
1409347889882,0.92057055,-9.938332,-1.1815386,0.26590005,-9.766491,-0.8457972
1409347889894,1.0193313,-9.937134,-1.3365631,0.3272339,-9.762023,-0.87532794
1409347889910,1.0815806,-10.029311,-1.4694413,0.39251974,-9.755816,-0.9167154
1409347889915,1.103727,-10.093356,-1.572392,0.45852908,-9.7480955,-0.9668382
1409347889927,1.1456255,-10.096947,-1.6292542,0.51998466,-9.73941,-1.0217055
1409347889943,1.1665748,-10.02572,-1.590947,0.57869774,-9.730051,-1.0777876
1409347889943,1.1821371,-9.929952,-1.5011644,0.6328968,-9.72112,-1.1267991
1409347889960,1.1911154,-9.917382,-1.3814543,0.6826405,-9.713258,-1.1649039
1409347889961,1.1563994,-9.903017,-1.2886791,0.7274074,-9.707413,-1.1863323
1409347889978,1.0540473,-9.885659,-1.1402385,0.76517045,-9.703344,-1.1958282
1409347889981,1.0582372,-10.031705,-1.0791864,0.7902407,-9.70205,-1.1900021
1409347889995,0.93373865,-10.034698,-0.9672575,0.81277436,-9.701683,-1.1777775
1409347890014,0.8026561,-9.978435,-0.87448215,0.82030135,-9.703699,-1.1557403
1409347890015,0.7350199,-9.9928,-0.8038532,0.8148878,-9.707501,-1.1272771
1409347890025,0.6326678,-10.040684,-0.75596917,0.8020814,-9.712168,-1.0958374
1409347890042,0.5410896,-10.052056,-0.7038953,0.7826507,-9.717501,-1.0621026
1409347890042,0.50397944,-10.092158,-0.6901286,0.75125283,-9.723924,-1.0253289
1409347890061,0.51475334,-10.160394,-0.6973112,0.72097886,-9.7298765,-0.99000627
1409347890061,0.55126494,-10.331579,-0.700304,0.69384545,-9.73496,-0.9589171
1409347890078,0.6194997,-10.541072,-0.7146692,0.67313045,-9.739224,-0.9299346
1409347890081,0.7164649,-10.735002,-0.7338228,0.65713894,-9.742766,-0.90390784
1409347890095,0.8182184,-10.854712,-0.7314286,0.6510224,-9.745215,-0.88166356
1409347890110,0.8924387,-10.873865,-0.6769605,0.654815,-9.746696,-0.8622723
1409347890115,1.0193313,-10.845135,-0.61770403,0.66520375,-9.747827,-0.84129214
1409347890129,1.1528081,-10.894217,-0.5482722,0.68581396,-9.748363,-0.81824076
1409347890133,1.2006922,-10.78109,-0.427365,0.7165546,-9.74843,-0.7906275
1409347890144,1.2036849,-10.445902,-0.25139117,0.7499831,-9.748857,-0.75347066
1409347890162,1.2192472,-10.092158,-0.046686932,0.7836549,-9.7496195,-0.7079414
1409347890163,1.1240777,-9.932944,0.12988544,0.81722826,-9.750875,-0.6503624
1409347890175,0.9600749,-9.704897,0.30705637,0.84086,-9.753219,-0.5814303
1409347890181,0.7679402,-9.379285,0.39205053,0.84878176,-9.756956,-0.5017919
1409347890193,0.7565677,-9.106945,0.45669398,0.8414358,-9.761493,-0.41909212
1409347890210,0.8379706,-8.744822,0.40342298,0.83426476,-9.765354,-0.3351051
1409347890215,0.8924387,-8.660426,0.19033903,0.8378584,-9.767318,-0.2605122
1409347890225,0.82480246,-8.8645315,-0.023942016,0.84863037,-9.7675,-0.21496268
1409347890245,0.8002619,-9.013571,-0.22325931,0.85265833,-9.767697,-0.18835735
1409347890245,1.0779893,-9.404425,-0.3321955,0.85226464,-9.7678,-0.18479507
1409347890263,1.6112977,-9.702502,-0.45848963,0.87196755,-9.765909,-0.19245683
1409347890263,2.0470424,-9.968858,-0.78170687,0.9388097,-9.759319,-0.21145634
1409347890279,2.2655134,-10.272323,-1.1755531,1.0437415,-9.747564,-0.2568501
1409347890281,2.2224178,-10.474034,-1.9614497,1.1621134,-9.731911,-0.33140206
1409347890295,2.1320367,-10.540473,-2.079364,1.2647798,-9.713125,-0.4753222
1409347890312,1.8507179,-10.424355,-2.0452468,1.3400508,-9.694842,-0.6202405
1409347890313,1.6286557,-10.287286,-1.977012,1.3861642,-9.679366,-0.74754316
1409347890325,1.5155296,-10.149619,-1.8986019,1.4064999,-9.666856,-0.862606
1409347890341,1.436521,-10.093356,-1.7950528,1.4150543,-9.656245,-0.9617221
1409347890342,1.3245921,-9.968259,-1.6639702,1.413275,-9.648342,-1.0404506
1409347890360,1.2192472,-9.887454,-1.5394717,1.4014226,-9.643518,-1.0995299
1409347890361,1.0773908,-9.871892,-1.4389153,1.3823836,-9.641365,-1.1417087
1409347890379,0.919972,-9.885659,-1.3198037,1.3505975,-9.642498,-1.1698271
1409347890383,0.81163436,-9.861717,-1.2252327,1.3099649,-9.646267,-1.1848733
1409347890396,0.7577648,-9.814431,-1.1216835,1.261489,-9.651917,-1.1914493
1409347890409,0.7104794,-9.8437605,-1.079785,1.2114304,-9.65868,-1.1885926
1409347890415,0.59615624,-9.850345,-1.0432734,1.1591048,-9.666064,-1.1807033
1409347890426,0.49559975,-9.803658,-1.0426749,1.1011876,-9.67419,-1.1695524
1409347890446,0.4866215,-9.820416,-1.0893618,1.0402339,-9.682119,-1.1596924
1409347890447,0.50158525,-9.932345,-1.1623849,0.9830064,-9.688769,-1.1540487
1409347890461,0.4141969,-10.102933,-1.2587515,0.93399835,-9.693793,-1.1525729
1409347890462,0.28072014,-10.165182,-1.3365631,0.8769155,-9.69836,-1.1589593
1409347890475,0.12749124,-10.1460285,-1.4119805,0.81548214,-9.702507,-1.1690811
1409347890482,-0.02633622,-10.168773,-1.484405,0.74652344,-9.706083,-1.1853293
1409347890493,-0.18555063,-10.228029,-1.5664065,0.6700313,-9.709054,-1.2065403
1409347890510,-0.33638534,-10.331579,-1.6460136,0.58656454,-9.711244,-1.2321079
1409347890517,-0.42916065,-10.427347,-1.6687586,0.49721828,-9.712475,-1.2613684
1409347890527,-0.4225766,-10.480618,-1.7016789,0.4059547,-9.712935,-1.2901427
1409347890546,-0.36032736,-10.45907,-1.6675615,0.32582492,-9.712289,-1.3174642
1409347890546,-0.24959552,-10.430939,-1.5424645,0.2592416,-9.711119,-1.3406553
1409347890560,-0.019153614,-10.351331,-1.4449008,0.20929712,-9.710809,-1.3515834
1409347890562,0.25198972,-10.327988,-1.4664485,0.18619521,-9.710564,-1.3567053
1409347890575,0.3274071,-10.280104,-1.7274165,0.19122547,-9.70895,-1.3675148
1409347890582,0.25258827,-10.19451,-2.106299,0.20407164,-9.703603,-1.4031483
1409347890596,-0.14903906,-10.122087,-2.111686,0.2104574,-9.693615,-1.4696786
1409347890608,-0.521936,-9.860519,-1.3096284,0.17803821,-9.685275,-1.5277891
1409347890613,-0.5859809,-9.774328,-0.676362,0.11377558,-9.689067,-1.5097911
1409347890630,-0.66738373,-9.920375,-0.7152678,0.043448243,-9.7010355,-1.4347137
1409347890645,-0.7457938,-9.874885,-0.89662856,-0.034784608,-9.710206,-1.3715163
1409347890646,-0.7290344,-9.555259,-1.0714053,-0.11277225,-9.714461,-1.336763
1409347890660,-0.6476316,-9.362526,-1.062427,-0.17939927,-9.714247,-1.3310207
1409347890662,-0.50278234,-9.348759,-0.96067345,-0.23383974,-9.712264,-1.3370222
1409347890678,-0.45010993,-9.752781,-0.87089086,-0.26462504,-9.71297,-1.3261137
1409347890682,-0.5033809,-10.26514,-0.7272388,-0.2897668,-9.713628,-1.3159862
1409347890695,-0.53689975,-10.534488,-0.44771573,-0.31000456,-9.717407,-1.2830846
1409347890710,-0.5231331,-10.585963,-0.0700304,-0.3280366,-9.725165,-1.2181673
1409347890726,-0.50397944,-10.468647,0.21667525,-0.34430444,-9.736895,-1.1156751
1409347890726,-0.5590461,-10.301053,0.44711718,-0.36063212,-9.749603,-0.9927555
1409347890739,-0.65900403,-10.381857,0.480636,-0.38158014,-9.761689,-0.85685426
1409347890742,-0.8714894,-10.514735,0.338181,-0.40816778,-9.770936,-0.72978795
1409347890759,-0.61770403,-10.304046,0.18914193,-0.45124602,-9.775843,-0.63221866
1409347890762,-0.08439561,-9.958682,0.01436521,-0.46489334,-9.779889,-0.55500495
1409347890776,0.35913026,-9.631873,-0.20410569,-0.4286898,-9.78454,-0.49939257
1409347890794,0.66259533,-9.416994,-0.52073884,-0.35686266,-9.78896,-0.46830857
1409347890795,0.9415198,-9.333197,-0.8888474,-0.25997898,-9.791883,-0.47093964
1409347890811,1.2473791,-9.3343935,-1.073201,-0.1391906,-9.792351,-0.51077557
1409347890825,1.4706384,-9.405622,-1.1019313,0.0035283933,-9.79046,-0.5632882
1409347890826,1.5514427,-9.454104,-1.0301052,0.15702845,-9.785971,-0.61685807
1409347890843,1.4335283,-9.551069,-0.9564836,0.29995948,-9.780465,-0.6503287
1409347890843,1.287482,-9.561244,-0.98461545,0.42306125,-9.774646,-0.66911143
1409347890862,1.1073183,-9.496002,-1.043872,0.51990235,-9.7688465,-0.6853735
1409347890863,0.9792285,-9.426571,-1.1162965,0.5911116,-9.763545,-0.70299435
1409347890875,0.7290344,-9.494805,-1.3060371,0.64272845,-9.758661,-0.7251416
1409347890894,0.30286652,-9.689334,-1.6017209,0.69212383,-9.758317,-0.6831125
1409347890896,-0.073023155,-9.896433,-2.1098902,0.736099,-9.758218,-0.636994
1409347890915,-0.15622166,-10.159795,-2.6479871,0.7729771,-9.757724,-0.59975576
1409347890915,-0.2705448,-10.5123415,-2.878429,0.8085399,-9.756358,-0.5745663
1409347890922,-0.7966706,-10.946889,-2.7712884,0.83788264,-9.754781,-0.55908936
1409347890945,-1.340753,-11.334151,-2.8724434,0.84954065,-9.754268,-0.55037177
1409347890946,-1.54845,-11.851897,-3.1465795,0.8447925,-9.754363,-0.55601025
1409347890963,-1.5286977,-12.06139,-3.032855,0.82793653,-9.754326,-0.58142257
1409347890964,-1.7112557,-12.066178,-3.0340521,0.8031208,-9.754225,-0.6168508
1409347890982,-2.3415294,-11.880029,-4.2957964,0.76742786,-9.754546,-0.65594304
1409347890983,-2.6833014,-11.474212,-5.5521536,0.71598685,-9.7529335,-0.7335104
1409347890997,-1.9494787,-11.017518,-5.3235073,0.6568311,-9.747787,-0.84830254
1409347891015,-1.3563153,-11.222222,-4.533421,0.6160513,-9.738014,-0.9807963
1409347891015,-1.2653356,-12.142793,-3.4063504,0.58482784,-9.722193,-1.1433791
1409347891022,-1.5047557,-12.97358,-2.5145104,0.55928695,-9.69932,-1.3344538
1409347891048,-1.9201498,-13.683461,-1.6603789,0.44226363,-9.608512,-1.9108275
1409347891050,-2.7353754,-14.529213,-0.85473,0.44226363,-9.608512,-1.9108275
1409347891056,-3.8546648,-15.439609,0.38067806,0.44226363,-9.608512,-1.9108275
1409347891062,-4.832696,-16.321274,1.8632874,0.34568268,-9.589515,-2.0228896
1409347891086,-5.792771,-16.860567,7.045537,0.20526601,-9.5831175,-2.0717323
1409347891087,-6.5122285,-16.961721,17.690157,0.004437617,-9.604529,-1.9807574
1409347891099,-4.789002,-15.955559,15.665261,-0.06103055,-9.564588,-2.1645622
1409347891117,-2.5127146,-14.63755,6.005855,-0.1346446,-9.531961,-2.3008697
1409347891118,-2.2379801,-14.610616,6.664859,-2.0868928,-9.406042,1.828018
1409347891122,-1.7986441,-13.903728,5.511452,-2.0580764,-9.332283,2.2007284
1409347891148,-1.6885108,-13.4422455,1.8076223,-1.971907,-9.299505,2.4085608
1409347891150,-1.858499,-13.8325,-0.39145198,-1.899891,-9.325673,2.3648727
1409347891154,-1.5795746,-14.12998,-2.2361844,-1.8491691,-9.381864,2.1752238
1409347891163,-0.55246204,-14.194623,-3.8857894,-1.795381,-9.459472,1.8615472
1409347891182,0.16938977,-13.880983,-5.1666875,-1.6828135,-9.552457,1.4453806
1409347891183,0.480636,-13.836092,-5.475539,-1.536454,-9.638097,0.95747983
1409347891194,3.2603042,-13.618219,-5.683236,-1.3796009,-9.697243,0.48019308
1409347891210,4.288614,-12.935872,-5.363012,-1.040639,-9.7511425,0.05157669
1409347891214,3.994127,-12.519879,-4.9972973,-0.6645547,-9.778884,-0.3196272
1409347891229,2.492364,-12.717401,-4.461595,-0.32507965,-9.781208,-0.6266381
1409347891246,0.18914193,-13.7086,-2.7521348,-0.09832911,-9.767237,-0.87279665
1409347891247,-3.039439,-15.441403,1.0684125,-0.046197105,-9.7582245,-0.9722615
1409347891260,-3.809175,-16.180016,0.86610246,-0.23364344,-9.771968,-0.7902103
1409347891262,-1.3970166,-14.656106,-0.84455466,-0.48020074,-9.773321,-0.6496096
1409347891274,0.78649527,-12.604275,-3.1226375,-0.57708,-9.768395,-0.64486843
1409347891293,0.92535895,-11.930905,-5.2157683,-0.50322515,-9.761055,-0.7993709
1409347891296,1.5113398,-11.241376,-5.8502316,-0.4480823,-9.735884,-1.0872823
1409347891309,3.2094274,-9.752182,-5.421071,-0.3064267,-9.701571,-1.3985778
1409347891326,3.7463272,-8.27496,-3.2291796,-0.032720074,-9.663215,-1.6708164
1409347891326,3.8899791,-7.630321,-3.6876693,0.24914296,-9.6406555,-1.7793504
1409347891340,3.9695864,-5.999271,-5.007473,0.520752,-9.60069,-1.9302793
1409347891342,3.2662897,-5.0583496,-4.8901567,0.79374886,-9.519292,-2.2188828
1409347891361,2.321777,-4.655525,-2.574964,1.0210458,-9.425201,-2.5086758
1409347891363,1.2521675,-4.0096893,-3.1639376,1.1740271,-9.379065,-2.6125042
1409347891378,0.8146271,-4.26946,-3.1896753,1.2273326,-9.317869,-2.8002508
1409347891395,0.8511387,-4.6417584,-2.6850972,1.2178029,-9.255856,-3.0027497
1409347891395,0.7529764,-4.9601874,-2.0003555,1.2290801,-9.2103815,-3.1350687
1409347891412,1.4945804,-4.8386817,-1.4083891,1.2382909,-9.19624,-3.1727264
1409347891427,2.8508956,-4.630386,-1.8387469,1.3268098,-9.191016,-3.1520097
1409347891428,4.1503487,-4.518457,-2.0284874,1.5716181,-9.141323,-3.1838107
1409347891456,5.0757074,-4.2479124,-1.7351977,1.9729099,-9.051743,-3.216206
1409347891457,5.4019175,-3.7457285,-1.8459295,2.474317,-8.927524,-3.216752
1409347891458,5.113416,-3.567959,-2.022502,3.0111144,-8.75725,-3.227094
1409347891465,4.887164,-3.3369186,-2.1721394,3.4836864,-8.567005,-3.2620192
1409347891487,4.4963107,-3.0232782,-2.6689363,3.9086757,-8.358959,-3.3197103
1409347891488,4.188656,-2.943671,-2.689287,4.260209,-8.129244,-3.4549072
1409347891495,3.8313212,-3.304597,-2.2212207,4.5480103,-7.9089894,-3.596371
1409347891508,3.1747115,-4.3209357,-1.3180081,4.75542,-7.75863,-3.6551435
1409347891526,2.2284033,-5.8879404,0.27473465,4.8464117,-7.739701,-3.5748706
1409347891527,0.23822308,-8.1402855,3.4272997,4.7703066,-7.9274983,-3.2510495
1409347891548,-4.0815153,-11.993155,12.74254,4.3825326,-8.419425,-2.4651709
1409347891548,-13.786412,-18.501793,18.386272,3.291256,-9.23254,-0.3133996
1409347891555,-19.492992,-19.608511,13.867815,3.38022,-9.190628,-0.5261802
1409347891577,-16.423626,-19.608511,8.070255,3.4551034,-9.149316,-0.72297466
1409347891577,-13.464392,-19.574394,4.1814733,3.4750543,-9.127119,-0.8888714
1409347891617,-9.304466,-16.501436,4.995502,3.4814656,-9.113271,-0.9990397
1409347891618,-5.799355,-13.262082,4.8159366,-3.5799572,-8.7375555,2.6475306
1409347891619,-3.4715924,-10.913968,4.8823757,-3.6105638,-8.699311,2.7306035
1409347891619,-2.1158757,-8.801085,5.1361613,-3.5178967,-8.672978,2.9281783
1409347891623,0.43993455,-7.0712748,3.0986955,-3.37301,-8.645206,3.170738
1409347891651,4.431069,-9.206305,-1.1486182,-3.097238,-8.704467,3.2878203
1409347891651,6.859388,-11.730989,-4.654328,-2.5168405,-8.985735,3.0153697
1409347891656,3.6212301,-15.607203,-4.4035354,-1.7230558,-9.358816,2.3693926
1409347891677,-0.142455,-17.604565,1.3760674,-1.198276,-9.582323,1.7069299
1409347891678,-3.809175,-19.036896,8.3821,-0.99020994,-9.629717,1.5679338
1409347891697,1.8124107,-14.295179,-0.05805939,-1.0830451,-9.552331,1.936589
1409347891697,4.4759603,-10.3226,-3.678691,-0.8309851,-9.622499,1.6992296
1409347891703,5.3318872,-7.6841903,-0.99419224,-0.47886664,-9.706396,1.3141408
1409347891727,6.0124393,-6.041768,0.3537433,-0.07027999,-9.73414,1.1882597
1409347891728,5.5503583,-5.0900726,-0.53211135,0.44724402,-9.732494,1.1175468
1409347891745,5.0020857,-5.21098,-1.5298948,0.93111414,-9.712474,0.98552865
1409347891746,4.5286326,-5.7083755,-2.907758,1.3463837,-9.684383,0.75522685
1409347891769,4.096479,-6.691794,-3.9959226,1.7277404,-9.643775,0.4276821
1409347891770,3.7056258,-7.491457,-3.9965212,2.0518963,-9.589559,0.021674657
1409347891777,3.5942953,-7.6788034,-3.328539,2.300266,-9.526526,-0.35283262
1409347891800,3.306991,-7.635708,-2.5198972,2.5058794,-9.460068,-0.63090754
1409347891801,3.3249476,-8.167819,-2.2499511,2.652064,-9.405316,-0.822785
1409347891803,3.493739,-9.579201,-2.7820623,2.7663524,-9.355907,-0.9923066
1409347891843,3.1507695,-11.561002,-3.13401,2.8385203,-9.311242,-1.1891195
1409347891844,2.043451,-13.877392,-3.2381577,2.8326516,-9.287558,-1.3739635
1409347891845,0.9068039,-15.1139965,-3.163339,2.6726284,-9.311987,-1.5212908
1409347891847,0.6488287,-13.5457945,-2.5504234,2.4097707,-9.366923,-1.6199208
1409347891871,0.9576807,-10.893618,-1.7561469,2.1717608,-9.418568,-1.6566377
1409347891872,0.84096336,-9.422979,-1.2503718,2.0091066,-9.459337,-1.6293619
1409347891874,0.6697779,-8.714894,-1.2886791,1.8738278,-9.498094,-1.5637618
1409347891895,0.50397944,-8.941745,-1.8363527,1.7650506,-9.522758,-1.5401658
1409347891909,0.5758055,-9.266159,-2.498948,1.6572886,-9.542646,-1.536782
1409347891909,0.39025488,-9.070433,-2.4678235,1.5582731,-9.547567,-1.6081423
1409347891923,-1.3772645,-9.704897,-3.7786489,1.4565824,-9.549197,-1.6916215
1409347891924,-5.993884,-11.783064,-4.931457,1.1847003,-9.549849,-1.888725
1409347891946,-6.2315083,-11.860276,-3.4261026,0.48014793,-9.557788,-2.1420853
1409347891947,-3.8217444,-9.871294,-1.2372037,-0.17616467,-9.53353,-2.291537
1409347891957,-2.3469162,-8.48146,-0.59974754,-0.5515008,-9.514113,-2.312545
1409347891985,-2.1978772,-8.433576,-1.8644845,-0.7221666,-9.520466,-2.2382162
1409347891988,-2.5121162,-8.9124155,-2.3211784,-0.89041245,-9.500492,-2.262347
1409347891989,-2.4037786,-9.560047,-1.7423803,-1.0282196,-9.480841,-2.286229
1409347891997,-1.7351977,-9.872491,-0.4950012,-1.1368057,-9.478928,-2.2423193
1409347892019,-1.2976574,-10.253169,0.16938977,-1.188725,-9.506511,-2.0936925
1409347892020,-1.0313023,-10.421362,0.40043023,-1.2034646,-9.54612,-1.8957026
1409347892023,-0.94331545,-10.354323,0.97384155,-1.1904395,-9.584691,-1.6990905
1409347892055,-0.866701,-10.020332,2.030283,-1.1650553,-9.626426,-1.4645588
1409347892057,-0.7445967,-9.876082,2.7311857,-1.1413532,-9.670302,-1.1631684
1409347892059,-0.86131406,-10.263344,2.707842,-1.1090808,-9.708772,-0.8246561
1409347892097,-1.1474211,-10.784083,2.3780408,-1.0845422,-9.731888,-0.53341955
1409347892098,-1.0869676,-11.123461,2.1416135,-1.0816622,-9.741944,-0.3081006
1409347892100,-0.866701,-11.498753,2.1092918,-1.0728747,-9.747062,-0.11880539
1409347892101,-0.50996494,-12.075156,2.2014685,-1.0398729,-9.751119,0.0688518
1409347892104,0.6835446,-12.630611,4.325724,-0.9700556,-9.755184,0.25646427
1409347892148,1.7124528,-12.452842,6.149507,-0.80302006,-9.754914,0.6059511
1409347892149,2.5013423,-12.037448,6.9012866,-0.5676693,-9.729649,1.0872421
1409347892150,1.3437457,-11.686098,3.6272156,-0.3011318,-9.67499,1.5729898
1409347892150,-0.8726865,-11.923124,-0.3705027,-0.16518585,-9.651058,1.7320982
1409347892155,-2.1751323,-12.516887,-2.0572178,-0.21776558,-9.677108,1.5737029
1409347892172,-3.4685998,-13.512276,-1.7794905,-0.35412315,-9.710214,1.3254161
1409347892175,-5.505467,-14.205398,-1.9794062,-0.5728148,-9.7260475,1.1163726
1409347892191,-8.267777,-14.400525,-4.835689,-0.93113947,-9.723536,0.86960435
1409347892214,-7.0227923,-13.590686,-4.785411,-1.4632471,-9.687787,0.41961575
1409347892217,-5.083489,-12.802994,-3.5182793,-1.836928,-9.633068,0.009872465
1409347892217,-4.3089647,-13.381193,-1.4772224,-2.054009,-9.583782,-0.32026887
1409347892223,-4.5741224,-14.4107,3.0178912,-2.1828864,-9.548231,-0.4865252
1409347892247,-5.577293,-15.772402,14.7411,-2.2788818,-9.5349245,-0.24959177
1409347892248,-5.1780596,-16.229694,18.884865,-2.2763674,-9.533665,-0.31271723
1409347892257,-3.9175124,-13.393763,6.3242836,-2.291363,-9.527586,-0.3809967
1409347892279,-4.526837,-12.021885,-4.374805,-2.505664,-9.207711,2.2605567
1409347892280,-4.733337,-12.466608,-7.157466,-2.6817946,-9.24048,1.8952302
1409347892283,-4.4885297,-13.116634,-7.3909006,-2.849081,-9.287085,1.342823
1409347892312,-3.6649241,-12.635998,-6.546346,-2.918201,-9.333768,0.7316124
1409347892313,-2.4145525,-12.230181,-4.835689,-2.9236689,-9.358444,0.2050825
1409347892317,-1.7938557,-12.511499,-3.743933,-2.8584085,-9.379535,-0.15563428
1409347892324,-0.6607997,-13.700221,-3.352481,-2.754407,-9.403374,-0.40025035
1409347892343,0.20290859,-15.939398,-4.481347,-2.5561635,-9.450375,-0.57169425
1409347892346,1.714847,-19.186533,-4.0665517,-2.2849324,-9.502897,-0.8027764
1409347892366,4.6160207,-19.608511,-0.8972271,-1.9139184,-9.572629,-0.9338501
1409347892367,8.952518,-19.608511,2.2732944,-1.4047117,-9.669769,-0.8322855
1409347892379,7.9930425,-18.963873,0.66379243,-0.6720178,-9.768843,-0.5371207
1409347892397,3.7762547,-15.766417,-2.955642,-0.06742621,-9.799037,-0.3804362
1409347892398,1.1797429,-14.222157,-4.485537,0.24520256,-9.790111,-0.5137815
1409347892403,0.6775591,-12.942456,-4.605247,0.35445553,-9.7690325,-0.7815261
1409347892424,1.2683283,-11.395802,-4.88896,0.3861042,-9.745559,-1.0224596
1409347892424,2.0272903,-10.435727,-5.145738,0.40505922,-9.710959,-1.3052262
1409347892443,2.6138697,-9.789292,-5.133168,0.46815792,-9.670099,-1.562184
1409347892446,2.6928782,-8.97287,-6.0663085,0.58088267,-9.622835,-1.7983361
1409347892464,3.977966,-7.4705076,-5.4821234,0.7202888,-9.555133,-2.085913
1409347892465,2.528277,-6.3350577,-4.6525326,0.9605717,-9.481162,-2.3141413
1409347892475,2.147599,-5.544971,-3.7325604,1.0865126,-9.41865,-2.5057795
1409347892496,2.1829133,-5.227141,-3.6373909,1.1892378,-9.361368,-2.6685066
1409347892497,2.0530279,-5.120599,-2.6898856,1.30182,-9.295079,-2.8420315
1409347892503,1.6238673,-4.8536453,-2.9167361,1.4129093,-9.250543,-2.9328375
1409347892521,0.97862995,-4.6124296,-3.6709096,1.4777544,-9.197887,-3.0635786
1409347892524,0.7428011,-4.5256395,-1.7735049,1.4659102,-9.127119,-3.2737195
1409347892548,1.7244238,-3.9492357,-1.1145009,1.4459368,-9.1191635,-3.3046231
1409347892549,3.2704794,-3.1747115,-1.5676036,1.5451775,-9.110843,-3.2825844
1409347892557,4.8386817,-2.5049336,-3.198055,1.8410181,-9.0423975,-3.3190556
1409347892580,5.8412538,-0.8283938,-2.9538465,2.330726,-8.847844,-3.528996
1409347892580,6.4523735,-0.5009867,-3.6804867,2.990318,-8.547244,-3.7647061
1409347892584,6.9342065,-0.42078096,-4.3993454,3.7078698,-8.117988,-4.064527
1409347892615,6.893505,-0.7188591,-4.124611,4.418283,-7.5684996,-4.4007983
1409347892617,6.905476,-0.5363012,-3.7128084,5.044052,-7.0148087,-4.6390033
1409347892618,6.599617,-0.8583213,-2.8790276,5.6218286,-6.449129,-4.793141
1409347892624,6.5307837,-1.9446903,-1.7357962,6.1128955,-5.9664674,-4.817074
1409347892646,5.5725045,-4.5160627,0.41240123,6.527799,-5.662875,-4.6357417
1409347892647,3.2291796,-8.889072,8.604162,6.7520237,-5.766968,-4.1620502
1409347892656,-5.01705,-17.671003,19.608511,6.747246,-6.6390676,-2.5627778
1409347892680,-18.469471,-19.608511,17.51538,6.8422346,-6.476734,-2.721423
1409347892681,-19.60911,-19.608511,19.151817,6.948472,-6.292237,-2.880437
1409347892684,-15.67005,-19.56003,9.360131,7.017199,-6.153028,-3.0115707
1409347892713,-6.0244102,-13.143569,3.526659,6.959046,-6.111915,-3.2228205
1409347892714,-4.502895,-6.413468,4.5483847,-2.4295187,-8.7281065,3.7533975
1409347892716,-4.9661727,-3.8097734,6.76362,-2.788041,-8.595363,3.8101134
1409347892724,-1.3874398,-2.7246015,6.0501475,-3.0477352,-8.323187,4.195982
1409347892750,1.6663644,-2.778471,2.2547395,-2.944318,-8.14709,4.5963354
1409347892751,3.8708255,-4.297592,0.008978256,-2.6320045,-8.175823,4.7327433
1409347892756,7.4974427,-8.707113,-3.177704,-2.0780578,-8.397312,4.6192217
1409347892784,9.351752,-14.01027,-6.401497,-1.0193744,-8.911307,3.9648297
1409347892785,7.704541,-15.313314,-6.2009826,0.20866965,-9.414883,2.736204
1409347892786,4.669292,-14.523228,-4.538808,1.042249,-9.608796,1.6598699
1409347892808,2.7102363,-14.238916,-2.5372553,1.3884835,-9.657325,0.98923403
1409347892809,1.3700819,-15.468937,-0.97025025,1.4939792,-9.673175,0.6067314
1409347892823,0.5931635,-15.691598,-0.74519527,1.4024521,-9.697651,0.3988491
1409347892824,0.4309563,-14.155119,0.024540568,1.2558383,-9.723078,0.23456366
1409347892841,1.6639702,-10.957064,-0.15083471,1.1413658,-9.738436,0.17483722
1409347892854,3.4141316,-8.608951,-0.8403648,1.1605802,-9.7369175,0.12592736
1409347892857,4.1958385,-7.7063365,-1.2671312,1.3449028,-9.713896,0.04305267
1409347892875,4.10845,-7.369353,-1.8489223,1.6160873,-9.672358,-0.064464584
1409347892877,3.7900212,-7.189189,-2.0470424,1.8787475,-9.622746,-0.2084484
1409347892890,3.2609026,-6.9360023,-1.8794483,2.1171956,-9.568478,-0.36347997
1409347892907,2.7976246,-6.7324953,-1.7262194,2.302028,-9.519227,-0.50535077
1409347892908,2.8580782,-7.2322845,-1.809418,2.4343948,-9.478244,-0.6379656
1409347892923,3.1064768,-8.279748,-2.2541409,2.545718,-9.4387665,-0.7741949
1409347892924,2.9658175,-9.70789,-2.5809495,2.642034,-9.397164,-0.93984663
1409347892938,2.529474,-11.353903,-2.4791958,2.6812558,-9.367276,-1.1114737
1409347892962,1.4413095,-13.18427,-2.260725,2.6297734,-9.366263,-1.2360475
1409347892963,0.29568392,-13.863027,-2.1242554,2.4544542,-9.40508,-1.3001939
1409347892964,-0.27952304,-12.968193,-2.2164323,2.1792417,-9.467782,-1.3350723
1409347892995,-0.31304187,-11.5616,-2.6042929,1.8902383,-9.525165,-1.3669816
1409347892996,-0.1364695,-10.250774,-3.6577415,1.6387197,-9.563014,-1.4260995
1409347892997,-0.5177461,-9.69113,-4.0575733,1.4385055,-9.569531,-1.5890821
1409347893005,-1.875857,-9.84795,-2.496554,1.2327847,-9.558157,-1.81445
1409347893031,-1.775899,-8.627506,-1.1677719,0.9399322,-9.576814,-1.8898566
1409347893032,-1.2395979,-8.232463,-1.002572,0.69870096,-9.59454,-1.9044644
1409347893045,-1.2497733,-8.067862,-1.2252327,0.5340589,-9.609692,-1.8812209
1409347893073,-2.2152352,-8.365341,-1.8130093,0.37568274,-9.621846,-1.8572426
1409347893080,-2.0111294,-8.016386,-1.228824,0.12939328,-9.622951,-1.8848032
1409347893080,-2.019509,-8.255806,-1.0217255,-0.07283727,-9.627452,-1.8647386
1409347893099,-1.9806033,-9.105747,-1.8100165,-0.26469782,-9.632384,-1.8214066
1409347893099,-1.6394296,-10.05445,-1.6873137,-0.44300535,-9.6222515,-1.8402287
1409347893100,-1.0103531,-10.7194395,-1.34195,-0.56426996,-9.618994,-1.8239813
1409347893104,-0.7811083,-10.942101,-0.9959879,-0.61301035,-9.626409,-1.7683054
1409347893123,-0.7236475,-10.64881,-0.7763199,-0.63331664,-9.638564,-1.6933403
1409347893124,-0.6727707,-9.985617,-0.48362875,-0.6404449,-9.650798,-1.619363
1409347893137,-0.5554548,-9.808446,-0.047884032,-0.63673955,-9.663511,-1.5432242
1409347893159,-0.4225766,-10.243592,0.2789245,-0.6205989,-9.680164,-1.4421023
1409347893159,-0.52492875,-10.505158,0.44113165,-0.59136444,-9.700093,-1.3148687
1409347893164,-0.7062895,-10.624868,0.8265981,-0.57505965,-9.719577,-1.1702675
1409347893187,-0.83138657,-10.785878,1.2030864,-0.5770193,-9.737504,-1.0091748
1409347893187,-0.9211691,-11.133038,1.3748703,-0.59231764,-9.7538595,-0.8257161
1409347893209,-0.90620536,-11.523293,1.4939818,-0.61996436,-9.766202,-0.63822836
1409347893210,-0.8403648,-11.713632,1.9183542,-0.64655304,-9.774602,-0.45774353
1409347893218,-0.93134445,-11.608287,2.3995886,-0.6661117,-9.780539,-0.26030385
1409347893225,-0.8798691,-11.237784,3.1190462,-0.69313556,-9.782006,-0.047736272
1409347893242,-0.8415619,-10.664372,3.472191,-0.71408266,-9.778484,0.20422742
1409347893256,-1.4155718,-10.372879,3.110068,-0.7340295,-9.768145,0.46360183
1409347893256,-3.1531637,-11.270106,1.8614918,-0.8051507,-9.7506075,0.6691353
1409347893269,-5.197812,-13.054983,0.5327099,-1.013791,-9.72611,0.73850745
1409347893286,-6.3063273,-14.131776,-0.45669398,-1.3489962,-9.689049,0.6877068
1409347893286,-6.4110737,-13.782222,2.1769278,-1.7161677,-9.637342,0.588877
1409347893304,-6.153697,-13.958795,2.6677392,-2.0575297,-9.557539,0.76838726
1409347893305,-6.0998273,-14.610616,0.3609259,-2.311951,-9.4806385,0.9709689
1409347893319,-5.187038,-15.331869,1.8207904,-2.4906828,-9.4402685,0.92098325
1409347893325,-4.292804,-15.892711,5.9878983,-2.547605,-9.42486,0.92310476
1409347893338,-4.5699325,-16.6822,10.2495775,-2.5220354,-9.398788,1.2134622
1409347893352,-5.349245,-16.482882,10.594941,-2.5126884,-9.308632,1.7905763
1409347893356,-5.0092683,-14.788385,5.53719,-2.555557,-9.1753435,2.335081
1409347893369,-4.675277,-13.648147,-0.82240826,-2.6484926,-9.096418,2.532005
1409347893386,-5.141548,-13.063962,-3.8827965,-2.7847347,-9.109182,2.3320472
1409347893386,-5.5431757,-11.343129,-3.9456444,-2.9350593,-9.157433,1.9228251
1409347893402,-4.9542017,-11.733982,-4.9338512,-3.0890722,-9.181718,1.5244975
1409347893404,-4.213795,-12.914324,-6.678027,-3.199293,-9.2103815,1.0506207
1409347893417,-3.0226796,-12.2319765,-6.745663,-3.2295654,-9.246701,0.48869473
1409347893442,-2.0602105,-12.10269,-5.861604,-3.1979825,-9.270515,-0.028509617
1409347893443,-1.1438298,-12.34211,-5.146935,-3.0992312,-9.29397,-0.43275285
1409347893445,-0.5638345,-13.772047,-4.483143,-2.9347103,-9.328167,-0.7369909
1409347893458,-0.8439561,-17.809269,-3.2609026,-2.7138314,-9.375232,-0.95421803
1409347893477,0.13347675,-19.608511,0.17597382,-2.465318,-9.436311,-1.0240201
1409347893478,7.460931,-19.598337,2.4384944,-2.163057,-9.528138,-0.8403177
1409347893485,4.1515455,-15.638327,-1.7830818,-1.4309357,-9.686841,-0.53655624
1409347893512,1.9680338,-12.797606,-6.1405287,-1.0113938,-9.737852,-0.5672121
1409347893513,0.7320272,-12.444462,-6.654085,-0.72821665,-9.734873,-0.934011
1409347893519,0.97264445,-11.837532,-4.723161,-0.5222763,-9.702162,-1.3287913
1409347893543,1.6621746,-10.745177,-2.8353333,-0.3724334,-9.670113,-1.5876442
1409347893544,3.4859576,-8.848371,-2.6030958,-0.25084496,-9.653177,-1.7098637
1409347893545,5.9783216,-6.5750766,-3.6900635,-0.013181553,-9.642081,-1.7889946
1409347893556,6.271611,-5.571307,-4.417302,0.40133625,-9.599692,-1.9634737
1409347893576,3.9001546,-5.7921724,-4.5753193,0.8551155,-9.523383,-2.1781516
1409347893578,2.134431,-5.407305,-4.247314,1.1305186,-9.444813,-2.384924
1409347893585,2.1721394,-4.5364137,-2.5504234,1.2562635,-9.376101,-2.5847495
1409347893609,2.3259668,-4.693234,-2.497751,1.3818498,-9.329043,-2.688837
1409347893610,2.3199813,-4.610634,-2.2619221,1.501315,-9.274509,-2.810681
1409347893617,1.941099,-4.395156,-3.2142158,1.6301839,-9.224465,-2.9020946
1409347893644,1.2509704,-4.5423994,-2.510919,1.7194501,-9.147692,-3.0876567
1409347893645,1.963844,-3.5727475,-1.276708,1.7560915,-9.108801,-3.1806111
1409347893646,3.3105824,-2.3840263,-1.963844,1.8905286,-9.081852,-3.18061
1409347893659,4.5406036,-1.4263457,-2.8443117,2.1997614,-8.96726,-3.3044918
1409347893681,5.579687,-1.2138603,-3.1573534,2.682748,-8.735401,-3.5589347
1409347893682,6.70975,-1.3066356,-2.8449101,3.3187308,-8.404686,-3.8102107
1409347893685,7.338228,-1.3335704,-2.5767596,4.0714164,-7.994105,-3.9608426
1409347893722,7.451354,-1.3335704,-2.4001873,4.8209686,-7.5325117,-4.0236735
1409347893725,6.819285,-1.8082209,-2.4271219,5.5018325,-7.0367594,-4.047743
1409347893726,6.2584434,-1.8531121,-2.445677,6.0141716,-6.611969,-4.035094
1409347893754,4.9099092,-2.4390929,-1.8148049,6.407632,-6.2357736,-4.028372
1409347893755,4.1599255,-3.3943794,-0.7009025,6.629673,-6.039383,-3.9678304
1409347893756,3.1741128,-5.8023477,2.7335799,6.7539916,-6.0359006,-3.7579136
1409347893772,0.92535895,-11.228208,13.866019,6.7348804,-6.4448333,-3.0456362
1409347893772,-13.88637,-19.421764,19.552847,6.217711,-7.560205,-0.594775
1409347893785,-19.60911,-19.608511,19.608511,6.3237543,-7.459106,-0.73637307
1409347893786,-19.129072,-19.608511,15.118187,6.4282484,-7.3580437,-0.84094876
1409347893802,-11.173141,-17.886482,5.016451,6.4549117,-7.3106384,-1.0291046
1409347893805,-7.4310036,-9.79827,4.0934863,-2.4684024,-8.574772,4.0682507
1409347893820,-5.602432,-4.011485,6.282984,-2.9857373,-8.473159,3.9320898
1409347893836,-1.9375077,-2.3469162,5.3636103,-3.3253522,-8.212404,4.203433
1409347893837,1.2449849,-3.4955344,3.0544028,-3.3167763,-8.020162,4.565785
1409347893852,5.7143607,-8.367136,0.62967503,-3.0151656,-8.039715,4.737316
1409347893869,13.661315,-17.519571,-3.739743,-2.2125554,-8.40959,4.533628
1409347893870,12.545617,-19.608511,-3.7217865,-2.226819,-8.377499,4.585759
1409347893886,3.3602622,-19.608511,7.1131735,-2.225783,-8.362419,4.613702
1409347893886,-5.305551,-17.89546,13.249513,0.9468127,-9.38131,2.6953595
1409347893901,-1.8171991,-9.713875,-8.013393,1.0288234,-9.381773,2.6635065
1409347893905,0.5506664,-7.789535,-11.939884,0.21961218,-9.483967,2.4852626
1409347893917,2.171541,-7.257424,-7.385514,0.23867783,-9.701868,1.4096764
1409347893935,2.7042508,-6.83784,-3.435081,0.42833123,-9.77444,0.6687588
1409347893939,5.13257,-6.3224883,-1.9470845,0.6743045,-9.779891,0.2635241
1409347893951,5.717354,-6.630143,-2.1859062,1.1407439,-9.740077,3.629881E-4
1409347893967,5.5826797,-8.264784,-3.1944637,1.6244793,-9.6680565,-0.24523762
1409347893967,4.9643774,-9.86471,-4.0701427,2.043667,-9.575888,-0.5442501
1409347893993,4.0342298,-10.241198,-4.243124,2.354536,-9.478467,-0.8860995
1409347893994,3.3135753,-9.503185,-3.769072,2.5408554,-9.395598,-1.1988404
1409347894000,3.1741128,-8.498219,-2.7880478,2.634457,-9.335972,-1.4386241
1409347894041,3.117849,-8.12592,-2.0518308,2.7227802,-9.287631,-1.5801117
1409347894042,2.9981391,-8.395866,-1.6514006,2.7866223,-9.25621,-1.6515765
1409347894043,2.80361,-9.177573,-1.5658079,2.8276904,-9.238065,-1.6830671
1409347894044,2.2703018,-10.666767,-1.6986861,2.838627,-9.232606,-1.6945676
1409347894045,1.1671734,-13.082517,-2.1398177,2.7716026,-9.2534075,-1.692064
1409347894074,-0.1448492,-14.912285,-2.469619,2.558366,-9.314888,-1.6905636
1409347894075,-0.19153613,-13.277644,-1.939902,2.2186654,-9.402268,-1.6867899
1409347894077,0.2208651,-10.24419,-0.9307459,1.9440362,-9.467846,-1.6586131
1409347894085,0.11252748,-8.670602,-0.9367314,1.7701972,-9.520537,-1.5479528
1409347894109,-0.34237084,-8.728063,-1.5526398,1.6021268,-9.565134,-1.4531907
1409347894110,-0.8834604,-8.957906,-2.011728,1.4114319,-9.5994215,-1.424545
1409347894119,-1.043872,-9.348759,-3.5410242,1.195105,-9.623655,-1.458566
1409347894141,-0.59017074,-9.020754,-7.9702973,0.9699045,-9.61818,-1.6493385
1409347894142,-4.76506,-10.787076,-6.6349316,0.7748104,-9.512109,-2.2560732
1409347894146,-5.4408236,-10.83496,-1.9243397,0.20663054,-9.448787,-2.6169
1409347894175,-4.1198225,-9.127894,-0.076614454,-0.33488867,-9.4407015,-2.6327527
1409347894176,-3.6445735,-8.462306,-0.25857377,-0.68825936,-9.431087,-2.5983226
1409347894179,-3.6978445,-8.956709,-0.7954735,-0.97591686,-9.426802,-2.5205882
1409347894186,-3.4063504,-9.774328,-0.39743748,-1.2423736,-9.426504,-2.4016478
1409347894208,-2.8802247,-10.578181,-0.29388827,-1.4382527,-9.446998,-2.203648
1409347894210,-2.2146366,-11.088146,-0.17298107,-1.5547315,-9.475013,-1.9943212
1409347894217,-1.4030021,-11.130644,0.030526072,-1.5955148,-9.5084715,-1.7926732
1409347894245,-0.89423436,-10.900801,0.14724341,-1.5600599,-9.546587,-1.61224
1409347894246,-0.7870938,-10.795456,0.4261679,-1.4810222,-9.585198,-1.4494638
1409347894247,-0.8050503,-10.691308,0.65900403,-1.3987942,-9.620382,-1.289188
1409347894281,-0.8858546,-10.688913,1.0181342,-1.3268466,-9.650352,-1.1316288
1409347894282,-0.7128736,-11.171345,1.8459295,-1.2735546,-9.675776,-0.96325344
1409347894282,0.034715924,-11.471817,2.8491,-1.209198,-9.704382,-0.73019964
1409347894286,0.8026561,-11.623849,3.7014358,-1.0895528,-9.736237,-0.43466473
1409347894304,1.3856442,-11.705851,4.6483426,-0.91230375,-9.763653,-0.09587277
1409347894305,1.6011224,-11.649587,5.269039,-0.71456003,-9.777163,0.25865304
1409347894318,0.9044097,-11.789049,5.455787,-0.51267976,-9.772687,0.63415116
1409347894337,0.41180268,-11.590929,7.8529816,-0.3818353,-9.746131,1.0185894
1409347894338,0.3728969,-11.079168,8.53054,-0.31664675,-9.667961,1.6126461
1409347894358,-1.5867572,-10.596737,2.3385365,-0.28462613,-9.542493,2.2428157
1409347894359,-3.2848446,-10.809821,-1.6190789,-0.40410864,-9.512179,2.3506474
1409347894366,-4.785411,-12.038645,-3.2225955,-0.63407594,-9.555494,2.1120775
1409347894389,-6.558317,-13.360843,-3.9671922,-0.9460139,-9.61859,1.6607702
1409347894390,-8.836999,-14.251486,-6.306926,-1.3748074,-9.638973,1.1706848
1409347894397,-6.8480153,-13.961787,-4.875193,-1.9051975,-9.605187,0.5300903
1409347894419,-6.2488666,-14.193426,-2.971803,-2.221829,-9.551516,0.049179956
1409347894420,-6.4960675,-14.7877865,0.8002619,-2.455844,-9.490318,-0.27036864
1409347894435,-6.913856,-16.515802,9.071032,-2.651146,-9.4384775,-0.23868996
1409347894437,-5.683236,-17.294516,17.40405,-2.8035142,-9.3871,0.43939236
1409347894461,-3.5236664,-16.670227,12.865243,-2.8145046,-9.386434,0.37925124
1409347894462,-2.1871033,-15.256452,2.7048495,-2.6956644,-9.15536,2.254589
1409347894466,-1.9231426,-13.715184,-3.3267434,-2.6240923,-9.173489,2.2653081
1409347894497,-2.0949266,-13.372813,-3.0226796,-2.60992,-9.24617,1.9664745
1409347894498,-2.4887726,-13.004705,-3.29502,-2.5717509,-9.313083,1.6801727
1409347894499,-1.9015948,-13.253103,-4.799776,-2.5213902,-9.381395,1.342531
1409347894527,-1.5221137,-12.6767,-6.9006877,-2.4312437,-9.455852,0.9199397
1409347894528,-1.1109096,-12.017695,-6.8168907,-2.3605576,-9.511099,0.3703117
1409347894529,-0.36511576,-12.306197,-5.753267,-2.270625,-9.539224,-0.13367529
1409347894560,0.047285482,-13.016078,-4.9853263,-2.135648,-9.555924,-0.5419198
1409347894561,0.6326678,-14.2460985,-4.4657845,-1.9673402,-9.570952,-0.8347502
1409347894562,1.4670471,-18.799273,-2.6833014,-1.7586097,-9.591392,-1.0406091
1409347894566,4.3394904,-19.608511,1.0259154,-1.4739234,-9.637533,-1.0563623
1409347894597,8.593389,-19.608511,4.088698,-1.0198518,-9.718874,-0.82084197
1409347894597,6.7564373,-17.780539,0.36391866,-0.3340078,-9.7922,-0.41429797
1409347894599,2.8862102,-13.090897,-3.8097734,0.15983488,-9.800146,-0.31935
1409347894615,0.92296475,-11.762115,-7.559692,0.35315937,-9.786942,-0.51133364
1409347894618,-0.11492168,-11.183316,-8.938153,0.44079673,-9.747944,-0.9765642
1409347894632,-0.08798691,-10.784083,-6.747459,0.4388348,-9.678025,-1.5210631
1409347894637,0.81761986,-9.553463,-3.4967315,0.39727557,-9.612798,-1.8991307
1409347894661,3.1914709,-7.406463,-1.1294646,0.38797435,-9.581128,-2.054718
1409347894662,4.5902834,-5.951387,-2.873042,0.55467504,-9.573843,-2.050421
1409347894666,4.056975,-5.5096564,-5.4725466,0.8629364,-9.529779,-2.1468585
1409347894695,2.1493945,-5.9705405,-5.898116,1.1437507,-9.430093,-2.4363077
1409347894696,2.5091233,-5.466561,-3.0735564,1.2599506,-9.337018,-2.720853
1409347894697,3.2794578,-4.9428296,-2.782661,1.3928576,-9.288859,-2.8191187
1409347894721,2.6449943,-5.1726727,-2.8191724,1.5849372,-9.2223015,-2.9338634
1409347894722,2.1338322,-4.772841,-1.8100165,1.7152845,-9.158503,-3.057779
1409347894726,1.8800468,-4.0198646,-1.501763,1.8251112,-9.125353,-3.0931046
1409347894738,2.144606,-3.0921116,-1.75076,1.928037,-9.09766,-3.1121745
1409347894758,2.710835,-2.3181858,-2.4181437,2.0718691,-9.041495,-3.1826293
1409347894759,3.3704374,-1.929128,-2.6408045,2.297413,-8.927267,-3.3460658
1409347894766,3.9510314,-1.7579426,-2.8030117,2.623938,-8.759167,-3.5443368
1409347894800,4.4621935,-1.4454993,-3.0753522,3.02904,-8.538485,-3.7536101
1409347894801,5.771822,-0.91099375,-2.9173348,3.4936147,-8.248189,-3.9915433
1409347894803,6.409278,-0.57161564,-3.228581,4.127112,-7.8472233,-4.1902742
1409347894837,6.39192,-0.6075287,-3.5936968,4.8048825,-7.336338,-4.3888044
1409347894840,6.0118403,-1.2066777,-2.8963854,5.405149,-6.778201,-4.5837483
1409347894842,5.783793,-1.839944,-1.6651673,5.8817983,-6.3408833,-4.622558
1409347894844,4.9015293,-3.6709096,0.37349546,6.2953176,-6.0281873,-4.4944806
1409347894847,3.9055414,-6.4008985,13.41112,6.5603895,-6.0545692,-4.058801
1409347894871,-10.730213,-18.98961,18.31325,6.8828015,-6.7975955,-1.6093835
1409347894872,-19.60911,-19.608511,18.88666,6.967628,-6.679363,-1.7345536
1409347894877,-19.529503,-19.608511,14.343662,7.057603,-6.551111,-1.8556828
1409347894886,-12.575544,-18.265366,4.841076,7.102605,-6.4516172,-2.024851
1409347894910,-10.374675,-12.31278,4.905121,7.0375433,-6.4256597,-2.313923
1409347894911,-6.6989765,-9.001001,7.181408,-3.1254802,-8.571033,3.5971034
1409347894918,-2.107496,-7.303512,5.504868,-3.444993,-8.365909,3.783382
1409347894942,1.1540052,-5.602432,3.2411506,-3.3793802,-8.309204,3.9632456
1409347894946,3.4368765,-5.2564697,1.536479,-3.0524316,-8.349015,4.1408944
1409347894947,8.07265,-10.873267,-0.78290397,-2.5211422,-8.498081,4.1948605
1409347894973,11.026496,-16.76001,-3.651756,-1.4514924,-8.929226,3.7858267
1409347894974,9.211691,-19.085379,-3.6577415,-0.16389877,-9.374176,2.8754754
1409347894978,0.60812724,-19.608511,7.7865424,0.6887164,-9.566979,2.0418015
1409347894986,-8.659827,-18.783709,13.139977,0.6565306,-9.511019,2.2977972
1409347895010,-2.9586349,-10.333973,-12.846687,0.7485484,-9.515073,2.2524345
1409347895011,-0.6961141,-8.684368,-16.191986,-0.2820704,-9.650661,1.7191796
1409347895024,1.6298528,-6.8785415,-7.4088573,-0.36357057,-9.792864,0.3715037
1409347895047,2.5570073,-4.789002,-1.2695254,-0.20842034,-9.801389,-0.24434389
1409347895047,3.8845923,-3.8947675,0.43754035,0.03721563,-9.797544,-0.42090663
1409347895048,4.8853683,-3.0591912,-0.023343466,0.41151482,-9.788227,-0.4377993
1409347895073,5.519832,-3.5224693,-1.4460979,0.90999043,-9.7541895,-0.44507632
1409347895074,6.055535,-5.0541596,-3.843891,1.4719054,-9.677569,-0.59038377
1409347895079,5.8268886,-7.2819643,-6.0824695,2.0707316,-9.536297,-0.97030574
1409347895087,4.8745947,-9.284714,-6.097433,2.570142,-9.337417,-1.5418817
1409347895104,4.2131963,-10.115502,-4.8494554,2.860622,-9.162639,-2.0082986
1409347895106,3.9426517,-9.655815,-3.4973302,3.0035481,-9.056288,-2.2655585
1409347895118,3.9312792,-9.248801,-2.7623103,3.073428,-9.001948,-2.3852391
1409347895133,3.8492777,-9.726444,-2.3768437,3.1261456,-8.966268,-2.4502392
1409347895159,3.6020765,-10.506954,-2.0320787,3.1702168,-8.952074,-2.445504
1409347895160,3.264494,-11.401787,-1.6573862,3.1731532,-8.960856,-2.409259
1409347895161,2.7138276,-12.239758,-1.2228385,3.1392546,-8.997319,-2.3159776
1409347895166,1.9470845,-12.7497225,-1.2503718,3.0465593,-9.064551,-2.1731915
1409347895194,0.7529764,-13.352463,-1.721431,2.882875,-9.150299,-2.0326035
1409347895194,-0.07062895,-12.897565,-1.7184383,2.6164083,-9.252238,-1.928962
1409347895199,-0.06404489,-11.009736,-0.98102415,2.3142855,-9.35129,-1.8351691
1409347895217,-0.110731825,-9.233837,-0.338181,2.0813384,-9.425577,-1.731158
1409347895218,-0.5686229,-9.095572,-0.6266823,1.8835844,-9.493789,-1.5781182
1409347895232,-1.4323312,-9.79827,-0.93493575,1.6587697,-9.55332,-1.4672885
1409347895247,-2.1308396,-10.09156,-0.9235633,1.3661638,-9.61118,-1.388953
1409347895247,-2.304419,-9.595362,-0.87687635,1.025765,-9.662561,-1.3240479
1409347895265,-1.1779473,-8.872313,-1.5520413,0.68937224,-9.698677,-1.2770231
1409347895266,-0.943914,-9.120711,-1.4754268,0.482135,-9.705836,-1.3170669
1409347895280,-3.6942532,-10.599131,0.9415198,0.32541385,-9.708367,-1.3461452
1409347895304,-3.852869,-10.497377,1.9542671,-0.059346803,-9.735308,-1.1792513
1409347895305,-4.0378213,-9.902418,0.035913024,-0.39855802,-9.749212,-0.9820285
1409347895306,-4.362834,-9.918579,-2.0590134,-0.7319056,-9.731962,-0.961058
1409347895343,-2.7814639,-10.151415,-0.46387658,-1.0649189,-9.686268,-1.1011608
1409347895344,-1.9482816,-9.816826,0.18854338,-1.2248162,-9.671425,-1.0647776
1409347895345,-1.5059528,-9.406818,0.15083471,-1.3081304,-9.6708975,-0.96589416
1409347895347,-1.3581109,-9.247604,0.088585466,-1.3392777,-9.675238,-0.87551486
1409347895397,-1.1300632,-9.237429,0.3184288,-1.3475825,-9.680805,-0.7977408
1409347895398,-1.0199299,-9.3978405,0.6500258,-1.3238155,-9.691134,-0.7070031
1409347895399,-1.1204864,-9.749788,0.8714894,-1.2906348,-9.703248,-0.5929982
1409347895401,-1.2497733,-10.237008,0.91099375,-1.2682222,-9.712887,-0.47101513
1409347895402,-1.0714053,-10.779893,1.0893618,-1.2557436,-9.719457,-0.3545402
1409347895429,-0.7739257,-11.029489,1.638831,-1.2243806,-9.7271385,-0.23260655
1409347895430,-0.16639702,-10.98759,2.0632033,-1.1739076,-9.735885,-0.069768
1409347895431,0.14724341,-11.306019,2.142212,-1.0798764,-9.7463875,0.11038404
1409347895458,-0.051475335,-11.171345,1.9883845,-0.9603765,-9.755889,0.2658729
1409347895459,-0.41000703,-10.108319,2.2050598,-0.8825238,-9.759591,0.3767224
1409347895461,-1.6657659,-10.384252,2.1763294,-0.8497921,-9.757046,0.4983262
1409347895467,-3.6176388,-12.565968,1.0749966,-0.9279785,-9.743234,0.61532634
1409347895521,-5.519832,-14.9787245,-0.05925649,-1.1406364,-9.720111,0.62349594
1409347895522,-6.5188127,-15.466543,-0.19512744,-1.4519798,-9.683876,0.5335593
1409347895524,-6.573281,-13.567941,-0.40761283,-1.7985609,-9.629119,0.46438134
1409347895526,-6.4044895,-12.34211,-1.3383588,-2.125188,-9.565793,0.38673815
1409347895528,-5.927445,-13.187861,1.151611,-2.4338512,-9.495842,0.27520642
1409347895531,-4.329315,-13.760674,3.8420951,-2.6382515,-9.438615,0.35011187
1409347895559,-3.46022,-14.850635,5.2169657,-2.6650143,-9.419457,0.5847261
1409347895560,-3.899556,-16.39729,8.397662,-2.60453,-9.410911,0.9064067
1409347895561,-3.804985,-17.26399,10.317812,-2.5546138,-9.358464,1.4364876
1409347895567,-3.8881836,-15.721525,7.2023573,-2.488296,-9.271976,2.0023081
1409347895587,-4.510676,-13.915699,2.304419,-2.4942534,-9.198254,2.3111074
1409347895587,-4.0653543,-12.794614,-1.8243817,-2.586653,-9.183254,2.2687974
1409347895598,-3.0843303,-12.409746,-1.7328035,-2.6759465,-9.210869,2.0419645
1409347895616,-2.4133554,-12.968792,-0.85413146,-2.6911395,-9.253987,1.8143523
1409347895636,-1.6292542,-14.076709,-2.1511903,-2.6289103,-9.306065,1.6298443
1409347895637,-1.2378023,-12.68508,-6.031593,-2.5046558,-9.38459,1.3515035
1409347895640,-0.74519527,-11.358093,-7.4124484,-2.4120953,-9.470309,0.8157291
1409347895648,-0.50278234,-11.775283,-6.694188,-2.3152347,-9.527277,0.20265667
1409347895688,-0.25378537,-12.609063,-5.1583076,-2.1785786,-9.55697,-0.29746726
1409347895689,-0.077213004,-14.120403,-3.7762547,-2.0217419,-9.574341,-0.64412683
1409347895690,0.23762453,-18.795681,-2.0667946,-1.8523039,-9.595322,-0.8180222
1409347895693,2.7102363,-19.608511,0.53211135,-1.6290529,-9.637352,-0.7987745
1409347895699,8.379706,-19.608511,2.9843724,-1.2522892,-9.708376,-0.59125036
1409347895715,7.4711065,-17.847576,1.5424645,-0.5427457,-9.787912,-0.2694326
1409347895731,2.943671,-12.522872,-4.1282024,0.043857556,-9.80554,-0.14092882
1409347895732,-0.85054016,-11.493365,-10.286688,0.31221476,-9.792603,-0.4216966
1409347895747,-2.1152773,-11.880029,-9.680356,0.2794076,-9.744127,-1.0697103
1409347895748,-0.142455,-10.851121,-4.203021,0.14022096,-9.662127,-1.6715375
1409347895764,2.3822308,-8.76637,-1.050456,0.08928046,-9.621114,-1.8964753
1409347895767,3.6942532,-7.2382703,-3.582923,0.18461598,-9.620286,-1.8937718
1409347895785,3.7630866,-6.0920463,-6.9186444,0.4187696,-9.585561,-2.0278075
1409347895787,2.6246436,-5.4091,-4.71119,0.69314563,-9.488008,-2.380677
1409347895800,2.3768437,-5.108628,-2.8179753,0.8629212,-9.416202,-2.600173
1409347895819,1.5113398,-4.988918,-2.1051018,0.98773766,-9.372506,-2.7112558
1409347895820,1.3796587,-4.9524064,-3.3865983,1.0495392,-9.346259,-2.7778287
1409347895827,1.2617443,-4.957195,-2.878429,1.0807872,-9.281216,-2.9767988
1409347895859,1.7058687,-4.233547,-1.6903064,1.123544,-9.229811,-3.1174774
1409347895861,3.086126,-2.9921536,-1.7064673,1.2433388,-9.205132,-3.1448424
1409347895862,4.3598413,-2.0530279,-1.9297266,1.5307997,-9.1390505,-3.210109
1409347895869,4.9781437,-1.666963,-2.1799207,1.9742569,-9.009708,-3.3313446
1409347895904,5.069722,-1.447295,-2.4642322,2.5193806,-8.817531,-3.4748085
1409347895906,5.265448,-0.9660604,-2.871845,3.0782828,-8.5714445,-3.6366065
1409347895950,5.5006785,-0.5363012,-3.3734303,3.6653237,-8.238619,-3.8549902
1409347895954,5.6497173,-0.5518635,-3.554791,4.263756,-7.8054585,-4.131051
1409347895955,6.1806316,-0.83378077,-3.098097,4.8294573,-7.314573,-4.398158
1409347895957,5.905897,-1.2916719,-2.7922378,5.4020033,-6.8112187,-4.5382934
1409347895959,6.534375,-1.240795,-2.7850552,5.8667426,-6.3736773,-4.596519
1409347895959,7.056311,-2.0638018,-2.7850552,6.336109,-5.900813,-4.6048384
1409347895976,6.8785415,-4.699818,0.017357962,6.729774,-5.523019,-4.514064
1409347895977,5.0362034,-13.564948,17.128119,7.023702,-5.548186,-4.006951
1409347895980,-14.1664915,-19.608511,17.97806,7.116019,-5.343995,-4.119999
1409347896007,-19.60911,-19.608511,11.435306,7.242846,-5.085012,-4.2254295
1409347896009,-19.587563,-19.608511,12.406155,7.3585696,-4.890538,-4.2549367
1409347896011,-11.026496,-17.26459,5.2301335,7.339385,-4.8063703,-4.382082
1409347896043,-6.7187285,-9.330803,5.201403,-2.2387981,-8.999234,3.189347
1409347896044,-3.855862,-4.950012,7.074866,-2.8121927,-8.826229,3.218639
1409347896046,0.9223662,-3.0974984,4.7500963,-3.0294087,-8.601628,3.6062522
1409347896048,3.4488475,-4.578911,2.480393,-2.767594,-8.517436,3.9955084
1409347896073,5.865794,-9.173384,0.4866215,-2.2151563,-8.595386,4.169274
1409347896074,8.090606,-16.988058,-3.891775,-1.3416945,-8.894726,3.9056523
1409347896079,5.0559554,-18.454506,-6.1117983,-0.28372607,-9.36199,2.9056885
1409347896118,2.0560207,-13.392566,-4.7159786,0.2666583,-9.632514,1.8204292
1409347896120,-2.3068132,-9.273342,-1.8177977,0.45183632,-9.727434,1.1589907
1409347896121,-5.107431,-8.834005,-3.2555158,0.20078766,-9.763795,0.8935307
1409347896122,-1.6190789,-8.818443,-5.146935,-0.31118807,-9.787814,0.52177536
1409347896127,1.3162124,-7.5692687,-4.209007,-0.4474214,-9.796438,-0.0042610187
1409347896153,2.070386,-7.373543,-2.814384,-0.28156477,-9.795107,-0.38343644
1409347896153,1.2521675,-8.454525,-1.6531962,-0.04215718,-9.787384,-0.6129814
1409347896161,1.8501194,-8.93935,-1.2306197,0.11489596,-9.77734,-0.7488807
1409347896182,4.174889,-8.2169,-1.009156,0.3256275,-9.762654,-0.8688725
1409347896182,5.3318872,-8.731055,-1.4670471,0.73456866,-9.733553,-0.9427365
1409347896204,5.4899044,-9.706693,-1.9692309,1.2231373,-9.678084,-1.0044988
1409347896207,4.8039656,-10.080787,-2.634819,1.666389,-9.60173,-1.0955706
1409347896209,4.3185415,-9.673173,-2.818574,2.0008407,-9.520556,-1.2353312
1409347896244,3.7822402,-9.306262,-2.6114755,2.2490132,-9.444075,-1.3862942
1409347896245,3.1866825,-8.848969,-2.0805612,2.4151545,-9.382847,-1.5164462
1409347896246,2.4013844,-8.7951,-1.6376339,2.5127401,-9.343832,-1.5966543
1409347896248,2.521693,-10.272921,-1.3634979,2.529053,-9.333572,-1.630559
1409347896274,2.6030958,-11.443686,-1.0217255,2.520743,-9.339579,-1.6088828
1409347896276,2.3535004,-12.277467,-0.825401,2.4945562,-9.360703,-1.5247315
1409347896282,1.9416976,-11.808203,-1.1671734,2.4307413,-9.394458,-1.4163597
1409347896310,1.6023195,-10.656591,-1.1390414,2.3461926,-9.425706,-1.3497596
1409347896311,1.2922704,-10.028712,-0.90381116,2.2607245,-9.455097,-1.2886548
1409347896311,0.6835446,-10.320805,-1.0672154,2.1704412,-9.48641,-1.2114389
1409347896337,0.05626374,-10.672752,-1.5771804,2.0331583,-9.523351,-1.1586347
1409347896339,-0.3764882,-10.509947,-2.0392613,1.8466579,-9.561463,-1.1570228
1409347896342,-0.6961141,-10.202292,-2.0081367,1.6332264,-9.593307,-1.213032
1409347896348,-0.7194576,-10.2178545,-3.3105824,1.411986,-9.622873,-1.2557915
1409347896384,0.7553706,-9.437943,-5.7179523,1.1927359,-9.627856,-1.4325334
1409347896384,-2.3594859,-10.616488,-3.8253357,1.1213062,-9.567417,-1.8378327
1409347896385,-5.2439003,-11.375451,-1.5448587,0.7627941,-9.564027,-2.0292678
1409347896388,-6.588843,-11.3562975,-2.504335,0.19589783,-9.590096,-2.0401113
1409347896445,-6.1477113,-10.298658,-1.1264719,-0.42081454,-9.5596285,-2.1463327
1409347896447,-5.5383873,-9.593566,0.095169514,-0.9492564,-9.5344095,-2.089098
1409347896449,-4.6471453,-9.108142,0.5267244,-1.3797745,-9.519703,-1.9083732
1409347896451,-3.6391866,-8.777742,0.93972415,-1.7264929,-9.501283,-1.7074094
1409347896453,-3.105878,-8.750209,1.0821792,-1.9374552,-9.497759,-1.4863527
1409347896455,-2.9251158,-8.948329,0.89603,-2.0633326,-9.502293,-1.2725865
1409347896504,-2.5659857,-9.269152,0.7541735,-2.1435342,-9.507405,-1.0885419
1409347896505,-2.2942438,-10.056845,0.8451532,-2.172837,-9.51756,-0.93017346
1409347896505,-2.2056582,-10.901998,1.3569138,-2.1612103,-9.534079,-0.7752122
1409347896506,-2.066196,-11.459248,2.8658595,-2.1316502,-9.554223,-0.585925
1409347896507,-1.8016368,-11.692682,4.0144777,-2.0787635,-9.57977,-0.27771473
1409347896508,-1.2569559,-11.273099,3.8989575,-2.0126998,-9.597477,0.08876427
1409347896532,-1.0013748,-10.722432,3.4985273,-1.9353175,-9.606646,0.37053055
1409347896533,-1.311424,-10.420763,2.8520927,-1.8724952,-9.610152,0.55596477
1409347896549,-1.6071079,-10.005967,2.0129251,-1.8423543,-9.608126,0.6782463
1409347896550,-1.7998412,-9.582792,1.7830818,-1.8279465,-9.605039,0.75645727
1409347896559,-1.8076223,-9.858126,2.046444,-1.8280288,-9.59747,0.8469166
1409347896584,-2.706645,-11.258734,2.1583729,-1.8260882,-9.588919,0.942566
1409347896585,-4.2718544,-13.293206,2.6150668,-1.874934,-9.56812,1.0517226
1409347896588,-5.561132,-14.371795,2.124854,-2.0139806,-9.523443,1.1909215
1409347896621,-6.6079965,-13.893553,-2.180519,-2.2145476,-9.464225,1.3017743
1409347896622,-6.865972,-12.634202,-5.8903346,-2.480641,-9.427695,1.0655307
1409347896623,-6.266823,-12.787432,-2.0207062,-2.7628179,-9.395157,0.51794684
1409347896628,-5.3265004,-14.293385,1.3150153,-2.957926,-9.345728,0.28010583
1409347896653,-5.910087,-16.830639,4.0587707,-3.0179067,-9.324071,0.35262328
1409347896654,-5.1601033,-19.41039,11.299435,-3.0556076,-9.300095,0.58472306
1409347896660,-4.0037036,-19.570204,12.199655,-3.1084297,-9.2819395,0.5947017
1409347896684,-2.777274,-18.129494,7.33763,-3.197319,-9.250066,0.6195402
1409347896685,-1.9590555,-15.867572,0.76075757,-2.7494566,-9.137099,2.2636886
1409347896688,-1.8339585,-13.157335,-2.5983074,-2.6683042,-9.1791725,2.189362
1409347896713,-2.8257565,-12.750321,-2.0111294,-2.5951357,-9.267873,1.8820705
1409347896714,-2.3127987,-14.375984,-4.274847,-2.5598,-9.330754,1.5983877
1409347896730,-1.1935096,-13.337499,-6.8504095,-2.4705286,-9.414292,1.1991404
1409347896731,-0.26156655,-12.026075,-7.735666,-2.3685405,-9.494978,0.63701177
1409347896747,0.320823,-11.973403,-6.877943,-2.2445376,-9.546233,0.04355923
1409347896748,0.8086416,-13.005303,-4.8979383,-2.075966,-9.57365,-0.45385823
1409347896762,0.7194576,-15.926828,-2.9538465,-1.8637974,-9.5991745,-0.7432785
1409347896776,1.2186487,-19.504963,0.35314476,-1.6518068,-9.631171,-0.82610655
1409347896780,3.7223852,-19.608511,2.4744074,-1.3906744,-9.686193,-0.6435097
1409347896793,5.813122,-19.351734,1.043872,-0.99726355,-9.748973,-0.36522523
1409347896811,2.8377275,-14.364612,-3.876811,-0.51408905,-9.790855,-0.21276203
1409347896812,0.4225766,-11.444882,-7.831434,-0.2796753,-9.793983,-0.41241217
1409347896836,-0.83737206,-10.848128,-7.8410106,-0.1833486,-9.763223,-0.9034641
1409347896842,0.08798691,-10.397419,-4.5280337,-0.11053631,-9.663998,-1.6629313
1409347896843,2.1643584,-9.327211,-3.3446999,-0.11053631,-9.663998,-1.6629313
1409347896849,5.3923407,-7.378331,-4.063559,0.023856385,-9.634282,-1.8304242
1409347896870,5.2223525,-6.0411696,-3.86903,0.38272128,-9.589287,-2.0173006
1409347896871,3.8025908,-5.019444,-5.3061495,0.7502187,-9.531318,-2.182104
1409347896884,3.934272,-4.144363,-5.1122193,1.0196186,-9.441838,-2.4459064
1409347896907,2.4708161,-4.5112743,-3.4620156,1.2961197,-9.331248,-2.7236512
1409347896909,1.436521,-5.1050367,-0.89662856,1.4368168,-9.260636,-2.8890364
1409347896910,1.0995371,-4.6698904,-0.9923966,1.4885929,-9.263784,-2.8525026
1409347896935,1.1671734,-3.8630445,-1.75076,1.5068682,-9.2633095,-2.8444386
1409347896936,1.7555484,-3.0202854,-1.5029601,1.5349119,-9.236566,-2.9155269
1409347896943,2.6360161,-2.4552538,-1.7675194,1.6562428,-9.197092,-2.9733412
1409347896974,3.0945058,-2.3439236,-2.6330233,1.9050498,-9.114796,-3.075982
1409347896975,3.441665,-2.1332338,-2.930503,2.2092285,-8.974326,-3.2788932
1409347896976,4.2413282,-1.532289,-2.7521348,2.5645547,-8.789137,-3.51348
1409347896980,5.141548,-1.2252327,-2.731784,3.0465178,-8.541163,-3.7333128
1409347897020,5.9849057,-1.0408791,-2.5139117,3.641925,-8.209259,-3.9388862
1409347897022,6.2967505,-0.6985083,-2.8119898,4.33255,-7.7955227,-4.077901
1409347897023,6.8785415,-0.35254622,-3.1531637,5.0239377,-7.288056,-4.220746
1409347897024,7.023391,-0.5141548,-3.3518825,5.7053475,-6.688003,-4.346268
1409347897028,6.9545574,-1.1779473,-3.1010897,6.28599,-6.063683,-4.45965
1409347897049,6.628946,-2.6581624,-2.6078842,6.7446914,-5.542458,-4.467741
1409347897050,6.237494,-5.1182046,-2.1188686,7.033548,-5.256373,-4.3669353
1409347897061,4.1533413,-13.135788,13.740324,7.123614,-5.3020062,-4.1609173
1409347897078,-13.069947,-19.608511,16.980875,6.999067,-6.64811,-1.7280285
1409347897081,-19.60911,-19.608511,17.674595,7.173482,-6.4206786,-1.867202
1409347897106,-19.60911,-19.608511,15.160684,7.311181,-6.2079306,-2.044165
1409347897109,-16.563686,-16.494852,4.4077253,7.3370047,-6.0993867,-2.2663264
1409347897110,-9.046491,-4.979341,-0.22445641,7.1916747,-6.148909,-2.577035
1409347897145,-6.75524,-3.7391446,7.2843585,-3.680786,-8.556039,3.0686135
1409347897146,-2.7760768,-4.0054994,7.7440453,-4.105318,-8.222757,3.4209635
1409347897147,0.5835867,-6.1524997,5.4091,-3.9937038,-8.021004,3.9854996
1409347897160,5.3049526,-11.494562,1.1474211,-3.534954,-8.03962,4.3633685
1409347897161,7.892486,-18.905214,-1.292869,-2.5950716,-8.498519,4.1486373
1409347897181,4.0372224,-12.385205,0.17058687,-1.4062171,-9.085162,3.4136152
1409347897194,0.22864626,-9.506178,-4.3329067,-0.82069975,-9.283035,3.0532112
1409347897195,-0.18914193,-9.66659,-8.034941,-0.7173732,-9.482603,2.3949924
1409347897208,-0.57520694,-9.546281,-8.280347,-0.6926868,-9.677508,1.4270362
1409347897209,0.076614454,-7.9990277,-4.744709,-0.6965701,-9.768836,0.50497836
1409347897227,0.8463503,-7.074866,-1.4736311,-0.6068758,-9.787848,0.009246114
1409347897228,1.2749124,-6.4427967,0.10295067,-0.45420188,-9.795147,-0.13849165
1409347897245,2.7539306,-4.8338933,0.40821138,-0.27435383,-9.802033,-0.1235482
1409347897260,4.103063,-5.1146135,-0.45190558,0.06851678,-9.805403,-0.14060163
1409347897261,4.4418426,-7.414244,-2.1535845,0.5651395,-9.786566,-0.2723419
1409347897274,3.8720226,-10.381259,-3.7253778,1.0509757,-9.734956,-0.5445172
1409347897280,3.5978866,-11.598111,-3.8869865,1.402772,-9.6619,-0.92213035
1409347897293,3.7672763,-11.128249,-3.028665,1.6639767,-9.584507,-1.240475
1409347897310,4.0653543,-10.180145,-1.9925743,1.887919,-9.519794,-1.4070094
1409347897311,4.1533413,-9.629479,-1.3293805,2.0972927,-9.471117,-1.4386443
1409347897324,3.6894648,-9.541492,-1.0486604,2.293197,-9.427998,-1.4228514
1409347897328,2.9855695,-10.064027,-1.2294226,2.4321516,-9.402279,-1.3609558
1409347897340,2.556409,-10.8182,-1.4526819,2.4881706,-9.391377,-1.3346978
1409347897364,2.0739772,-11.720815,-1.4850036,2.4921439,-9.391885,-1.3236715
1409347897365,1.513734,-12.370241,-1.4784195,2.4275947,-9.411876,-1.3014488
1409347897369,1.3892355,-11.791444,-1.5346833,2.297329,-9.448704,-1.2706836
1409347897381,1.4089876,-10.596737,-1.7184383,2.171214,-9.480107,-1.2584839
1409347897397,0.7685388,-9.955689,-1.9027919,2.0763807,-9.49785,-1.2844828
1409347897410,-0.0053869537,-9.8515415,-2.0201077,1.9513247,-9.518605,-1.3262328
1409347897410,-0.33039984,-9.554062,-2.4432828,1.7730589,-9.5471525,-1.3705928
1409347897424,-0.4141969,-9.320627,-3.7511156,1.5806913,-9.568252,-1.4561619
1409347897428,-1.0827777,-9.61691,-4.252701,1.3837869,-9.564418,-1.6665616
1409347897444,-2.148796,-10.420164,-3.0627825,1.1261284,-9.5506525,-1.9202251
1409347897462,-2.509722,-10.802039,-2.1176715,0.789246,-9.553084,-2.0702872
1409347897463,-3.027468,-10.599131,0.25558102,0.46207714,-9.559557,-2.138164
1409347897480,-2.834735,-10.005369,0.2801216,0.1459335,-9.611928,-1.9390535
1409347897498,-3.2255883,-9.607931,-0.85772276,-0.14464492,-9.642314,-1.7819297
1409347897498,-4.6232033,-9.685743,-1.7022774,-0.4353215,-9.6463,-1.711664
1409347897502,-5.2002063,-9.674371,-1.6944963,-0.8209302,-9.624075,-1.695177
1409347897508,-4.587889,-9.386468,-0.78050977,-1.2281712,-9.583386,-1.6794934
1409347897525,-3.7858315,-9.139266,-0.22445641,-1.5641743,-9.547898,-1.6004409
1409347897528,-2.9442697,-9.045893,0.14065935,-1.8058039,-9.521373,-1.50099
1409347897542,-2.1930888,-9.085397,0.28909984,-1.9374167,-9.512301,-1.3902912
1409347897562,-1.9476831,-9.675568,0.3441665,-1.9730093,-9.522143,-1.267444
1409347897565,-2.0769699,-10.554239,0.44532153,-1.9667864,-9.538039,-1.1523668
1409347897578,-1.9776106,-11.225813,0.46148238,-1.949844,-9.555339,-1.0314969
1409347897580,-1.5634137,-11.444284,0.694917,-1.9183218,-9.573642,-0.91424024
1409347897593,-1.513734,-11.494562,1.091756,-1.8589075,-9.596536,-0.78828067
1409347897617,-1.6005238,-11.434708,1.7956513,-1.8050401,-9.617866,-0.6394302
1409347897617,-1.5095441,-11.543045,4.6136265,-1.7640456,-9.636549,-0.4420595
1409347897623,-0.50038815,-11.546038,4.466982,-1.7193162,-9.654756,-0.0056837997
1409347897629,-0.4201824,-11.258734,4.332308,-1.5980583,-9.668933,0.35822833
1409347897644,-0.16879122,-10.548254,4.995502,-1.4974384,-9.670138,0.6453709
1409347897657,0.19871874,-10.554838,9.309255,-1.3959072,-9.659162,0.96042275
1409347897664,-1.1402385,-12.883798,5.480926,-1.2734959,-9.580813,1.6603088
1409347897681,-4.11683,-14.985907,-0.33758244,-1.2335242,-9.529196,1.9604162
1409347897682,-5.6161985,-14.94341,-3.5751417,-1.3890101,-9.541844,1.7872452
1409347897689,-6.1477113,-13.484742,-6.237494,-1.6334707,-9.561518,1.4420569
1409347897712,-5.887342,-12.822745,-4.4196963,-1.9140003,-9.579341,0.8620953
1409347897713,-5.139154,-13.371018,-1.4323312,-2.184705,-9.549345,0.45548293
1409347897730,-6.447585,-14.128783,1.1713632,-2.3466685,-9.51823,0.25845826
1409347897731,-7.555502,-15.811308,7.9954367,-2.5513077,-9.465012,0.27342567
1409347897742,-7.0928226,-17.128119,15.262437,-2.7585638,-9.375379,0.8142486
1409347897772,-5.747281,-16.395493,9.498397,-2.7570782,-9.37468,0.82721055
1409347897773,-5.173271,-15.103223,2.034473,-2.927059,-9.0944395,2.2122085
1409347897774,-4.698621,-12.882002,-3.232771,-3.0164423,-9.086042,2.1249213
1409347897818,-3.7511156,-11.73518,-2.9879637,-3.1405556,-9.108248,1.8295155
1409347897832,-3.2782607,-13.00291,-1.5286977,-3.204704,-9.144751,1.5079118
1409347897835,-3.0454245,-14.995483,-2.9580362,-3.1596298,-9.195772,1.2747052
1409347897837,-2.1906946,-14.20001,-5.4683566,-3.0524085,-9.268388,0.97476393
1409347897838,-0.97503865,-12.500726,-5.896919,-2.9392204,-9.340297,0.5387157
1409347897841,-0.2160767,-12.13561,-5.9519854,-2.8027296,-9.397235,0.08393595
1409347897868,0.38845924,-13.002311,-5.3438582,-2.6126645,-9.44581,-0.34791577
1409347897869,0.6979098,-15.020024,-3.6864722,-2.3737075,-9.491447,-0.6695915
1409347897869,1.1444284,-18.932749,-1.5598224,-2.097829,-9.543346,-0.83309335
1409347897870,3.2998085,-19.608511,0.08559271,-1.7842907,-9.610846,-0.78634155
1409347897893,6.5265937,-19.608511,2.5504234,-1.3598462,-9.691817,-0.6244262
1409347897894,5.4061074,-17.10238,0.374094,-0.769073,-9.771315,-0.31672806
1409347897908,1.7136499,-12.4468565,-5.2002063,-0.305059,-9.799262,-0.2275865
1409347897909,-1.6723499,-11.6442,-10.075399,-0.102594845,-9.79003,-0.5613882
1409347897924,-2.5929205,-11.653178,-9.601946,-0.14034049,-9.733577,-1.1866735
1409347897929,0.05566519,-10.289082,-5.479729,-0.2789356,-9.641234,-1.7717806
1409347897941,2.9759927,-7.773973,-1.0295067,-0.2637658,-9.579056,-2.0838726
1409347897957,4.4526167,-6.6642604,-0.17537527,-0.10074761,-9.578074,-2.1025565
1409347897962,5.556942,-6.1225724,-3.9905357,0.20013767,-9.592838,-2.0267673
1409347897975,4.6339774,-5.895722,-4.1623197,0.633914,-9.541823,-2.1730561
1409347897991,2.4049757,-5.595249,-6.527791,0.9779858,-9.481432,-2.3057325
1409347897991,2.6731262,-5.2498856,-2.8652608,1.0936376,-9.365548,-2.6945987
1409347898007,2.0751743,-5.7802014,-0.24779987,1.2405896,-9.312471,-2.8123283
1409347898009,1.5280992,-5.729325,-0.5243302,1.3449355,-9.327511,-2.7127626
1409347898030,1.46585,-4.903325,-2.1404164,1.3950738,-9.343444,-2.6313941
1409347898030,2.005144,-4.0898952,-2.4756045,1.4467171,-9.315112,-2.7029808
1409347898042,2.8179753,-3.3800142,-2.3786395,1.5755011,-9.255945,-2.8311908
1409347898064,3.7116113,-2.6288335,-2.0482395,1.8143598,-9.166457,-2.9756565
1409347898066,4.581305,-2.0733786,-2.1853075,2.1805134,-9.04398,-3.1019688
1409347898070,6.245275,-2.0123265,-3.6750996,2.6695216,-8.862679,-3.2399037
1409347898095,6.757634,-1.6885108,-3.6649241,3.3172772,-8.527635,-3.5278199
1409347898096,6.637924,-1.6160861,-3.6224272,4.0116615,-8.113176,-3.7753544
1409347898102,6.52001,-1.4550761,-3.702633,4.638611,-7.666585,-3.9846115
1409347898109,6.244078,-1.4957775,-3.252523,5.190235,-7.1926637,-4.182992
1409347898126,5.409699,-2.2780828,-2.058415,5.6597095,-6.7514896,-4.307606
1409347898156,4.291008,-3.6721067,-0.8158242,5.9994783,-6.479577,-4.2651763
1409347898158,3.417723,-5.985504,1.5292963,6.1713824,-6.4552426,-4.0514536
1409347898160,3.9175124,-10.667366,11.416751,6.1663876,-6.781842,-3.48607
1409347898165,-7.615357,-19.235615,19.608511,6.0600495,-7.5769153,-1.4270675
1409347898194,-19.60911,-19.608511,19.608511,6.1609325,-7.462551,-1.5885984
1409347898196,-19.60911,-19.608511,14.231733,6.273402,-7.333554,-1.7417881
1409347898196,-17.430387,-18.234838,2.4372973,6.3303,-7.246698,-1.8928918
1409347898210,-12.843695,-11.035474,2.7850552,6.2328963,-7.264884,-2.1314018
1409347898211,-8.084022,-7.6919713,6.1501055,-3.5722358,-8.584782,3.116254
1409347898225,-2.677316,-6.0758853,5.0002904,-3.9862173,-8.374779,3.184895
1409347898243,0.091578215,-5.7987566,3.477578,-3.8985507,-8.300099,3.475638
1409347898244,2.0578163,-6.3464303,2.3415294,-3.6066077,-8.335023,3.700024
1409347898260,5.7646394,-9.562442,0.3585317,-3.111073,-8.47431,3.8311462
1409347898279,9.861717,-15.528193,-3.433884,-2.2361116,-8.8302355,3.6327863
1409347898280,7.9289975,-16.66963,-4.4621935,-0.9876053,-9.331047,2.8507166
1409347898282,2.4253263,-15.632341,-2.4636335,-0.11966303,-9.599685,2.0005343
1409347898289,-1.7998412,-13.855246,-1.3317747,0.12815438,-9.69142,1.493437
1409347898304,-1.3928268,-13.937246,-4.349067,-0.028797057,-9.733031,1.1990366
1409347898309,-0.08080431,-13.965977,-5.3223104,-0.12746085,-9.780373,0.7060209
1409347898324,-0.24241292,-11.847109,-3.5212722,-0.13654314,-9.803426,0.2111258
1409347898338,-0.20949265,-8.810662,-0.28431144,-0.15103053,-9.805227,-0.071372464
1409347898341,1.7447745,-7.3148847,0.32142156,-0.14630583,-9.804904,-0.11325462
1409347898358,4.5382094,-5.7227407,-0.20470424,0.03474866,-9.805065,-0.17293197
1409347898361,6.4350157,-5.599439,-1.3281834,0.44470426,-9.793652,-0.23879853
1409347898374,6.563704,-7.413047,-2.6928782,1.0189009,-9.748005,-0.32963088
1409347898394,5.605425,-9.327211,-3.752911,1.5925623,-9.661012,-0.54679334
1409347898395,4.541202,-9.644443,-3.9989154,2.0241532,-9.558348,-0.84332484
1409347898402,3.6661212,-9.314043,-3.2573113,2.3102937,-9.463112,-1.1324515
1409347898410,3.4739866,-9.161413,-2.1972785,2.4707315,-9.397144,-1.3264854
1409347898426,3.4290953,-9.35235,-1.7058687,2.5786214,-9.356466,-1.4062743
1409347898447,3.0346506,-9.697116,-1.4107834,2.659442,-9.328956,-1.4381793
1409347898448,2.6839,-9.927557,-1.1617863,2.6955912,-9.317311,-1.4463363
1409347898449,2.433706,-10.255563,-1.1031284,2.6932352,-9.320489,-1.4301527
1409347898473,1.8447324,-10.982801,-0.8559271,2.676478,-9.330504,-1.3958926
1409347898473,1.1563994,-11.438298,-0.6841431,2.5883038,-9.364208,-1.3351635
1409347898492,0.85054016,-10.75655,-0.705691,2.4325535,-9.417728,-1.248791
1409347898493,0.5650316,-9.665991,-0.6099229,2.267319,-9.469493,-1.1654925
1409347898509,0.3764882,-8.871116,-0.7044938,2.1038601,-9.517358,-1.0789382
1409347898511,-0.108936176,-8.945934,-1.2246342,1.9555492,-9.556598,-1.0087972
1409347898525,-0.7368156,-9.589376,-1.6711528,1.7730879,-9.593334,-0.9972458
1409347898540,0.46267948,-9.768942,-5.3713913,1.532534,-9.629713,-1.044194
1409347898543,0.7272388,-8.494029,-7.8332295,1.3993323,-9.598371,-1.4434516
1409347898556,-2.3080103,-10.222643,-4.167108,1.2869644,-9.497807,-2.075031
1409347898572,-3.004723,-10.611102,-1.1318588,0.9015695,-9.492604,-2.2908518
1409347898572,-3.0855274,-10.069414,0.95708215,0.5190365,-9.521945,-2.287685
1409347898587,-3.5338416,-10.231621,-0.019153614,0.1825947,-9.570683,-2.1305156
1409347898589,-3.7948096,-10.972627,-2.1619642,-0.17282063,-9.5999975,-1.9951296
1409347898601,-3.8468835,-11.358093,-2.956839,-0.5014707,-9.586952,-2.0023174
1409347898609,-3.7421372,-10.524911,-1.8483237,-0.79770815,-9.564152,-2.0151994
1409347898623,-3.0538042,-9.024943,-1.1300632,-1.0555592,-9.556537,-1.9310073
1409347898639,-2.2230163,-8.163031,-0.9427169,-1.2613825,-9.547023,-1.8530073
1409347898643,-1.2575544,-8.191162,-0.7505822,-1.3890063,-9.536133,-1.8174841
1409347898656,-0.50517654,-9.01417,-0.50996494,-1.4041647,-9.539926,-1.7856507
1409347898678,-0.56802434,-10.5045595,-0.39743748,-1.3201132,-9.56332,-1.7235403
1409347898678,-1.2401965,-12.200851,-0.43754035,-1.219686,-9.592551,-1.6327074
1409347898683,-1.8650831,-13.348871,-0.18674773,-1.1793369,-9.616442,-1.5177529
1409347898691,-2.1003134,-13.434464,0.25677812,-1.1803998,-9.635638,-1.3897929
1409347898712,-1.8477252,-13.081918,0.9056068,-1.2155969,-9.652066,-1.2370604
1409347898713,-1.6693572,-12.740745,1.5382746,-1.248433,-9.669483,-1.0549501
1409347898722,-1.8088194,-12.194866,3.0107086,-1.2790414,-9.686,-0.8460736
1409347898744,-1.8740613,-11.470022,6.853402,-1.3229059,-9.701777,-0.5439035
1409347898745,-2.1158757,-11.241376,8.728661,-1.3675559,-9.710693,0.050858326
1409347898750,-2.533664,-11.143812,11.080365,-1.4241495,-9.674461,0.73958915
1409347898786,-3.7044287,-12.612655,15.604808,-1.4997127,-9.571543,1.5188197
1409347898791,-6.3566055,-14.157514,2.5929205,-1.6608851,-9.336006,2.5001712
1409347898792,-7.740454,-13.493721,-8.214506,-2.010312,-9.294818,2.3948662
1409347898795,-7.3645644,-12.726977,-9.370307,-2.4120135,-9.360962,1.6507435
1409347898821,-5.705383,-12.964602,-2.4510639,-2.7255666,-9.375344,0.91901743
1409347898823,-5.0661306,-13.741521,1.4927847,-2.8628135,-9.355045,0.67661226
1409347898824,-6.3643866,-13.39496,4.8626237,-2.8851893,-9.347507,0.68570393
1409347898849,-6.449381,-14.693814,9.018958,-2.9983578,-9.284184,0.99205726
1409347898850,-5.7418942,-16.451159,8.911219,-3.0623648,-9.191286,1.5207071
1409347898851,-4.3478703,-17.261595,7.815273,-3.0794508,-9.099506,1.9713829
1409347898877,-2.8802247,-16.479889,4.357447,-3.0323565,-9.033906,2.315976
1409347898878,-2.4331074,-14.322713,-0.7068881,-2.9438572,-9.035656,2.4209502
1409347898882,-2.3181858,-13.259687,-1.9782091,-2.889333,-9.111575,2.1912005
1409347898890,-2.2547395,-13.548189,-0.8086416,-2.8306344,-9.195933,1.8954508
1409347898915,-2.4678235,-14.55914,-4.359243,-2.730716,-9.262611,1.7081063
1409347898916,-1.5586253,-14.982914,-7.7823524,-2.651342,-9.355081,1.2740633
1409347898924,-0.12090719,-13.199833,-8.029554,-2.5323348,-9.452601,0.6371708
1409347898952,0.35673606,-12.076952,-6.899491,-2.3742428,-9.514896,0.009260288
1409347898953,0.48722005,-12.134413,-6.2422824,-2.1876674,-9.5471525,-0.48614982
1409347898953,0.4165911,-13.255498,-5.5563436,-1.9885317,-9.564043,-0.86325526
1409347898981,0.51954174,-16.505028,-4.24492,-1.8011364,-9.572075,-1.1409032
1409347898982,1.3509283,-19.608511,-0.86251116,-1.5958272,-9.593048,-1.2637719
1409347898983,5.41748,-19.608511,4.4322658,-1.3329169,-9.650935,-1.1194675
1409347898991,3.3243492,-13.620015,-2.6844985,-0.82390165,-9.7507515,-0.6437645
1409347899025,-0.017357962,-11.655573,-8.792108,-0.52396,-9.766036,-0.72138184
1409347899026,-1.5688007,-11.019313,-8.954913,-0.42842853,-9.718116,-1.2430022
1409347899027,-0.9020155,-10.433931,-2.8329391,-0.4015091,-9.636541,-1.7737675
1409347899049,1.0055647,-9.5809965,-1.2330139,-0.3898156,-9.614038,-1.8943956
1409347899050,3.3249476,-8.648455,-3.2549171,-0.33284342,-9.61454,-1.9026957
1409347899051,4.301183,-7.5345526,-4.6603136,-0.12584844,-9.596243,-2.0166
1409347899077,4.349067,-6.6175733,-5.7843914,0.18843992,-9.54891,-2.2255812
1409347899077,2.8485014,-5.9082913,-6.009446,0.5285846,-9.466751,-2.5043166
1409347899081,2.4756045,-5.29777,-4.979341,0.7497513,-9.365137,-2.8111393
1409347899090,2.1200657,-5.0583496,-2.9053638,0.91399294,-9.272105,-3.0599113
1409347899116,2.135628,-5.097854,-2.2996306,1.0318004,-9.225904,-3.1604586
1409347899117,1.9566613,-5.0020857,-2.60968,1.1473633,-9.187909,-3.2305217
1409347899122,1.6394296,-4.6058455,-2.9580362,1.2477149,-9.137167,-3.3355346
1409347899147,1.8561049,-4.0898952,-1.7405846,1.3170506,-9.079773,-3.4631624
1409347899148,2.9400797,-3.3488896,-1.01574,1.4504493,-9.052644,-3.4808395
1409347899150,3.9785647,-2.60549,-2.1571758,1.7118961,-9.019197,-3.4487457
1409347899187,5.0062757,-1.9907787,-2.7712884,2.1036367,-8.892183,-3.5600815
1409347899188,5.8364654,-1.6843209,-3.0442274,2.6405158,-8.671023,-3.7431853
1409347899189,6.302736,-1.2401965,-3.4542346,3.2897463,-8.358816,-3.9342258
1409347899190,6.5206084,-0.56323594,-4.1395745,3.9655075,-7.94476,-4.1624465
1409347899211,6.508039,0.09756372,-4.735132,4.6173344,-7.418904,-4.4509015
1409347899212,6.279991,0.35434186,-5.0062757,5.206313,-6.78678,-4.796282
1409347899224,6.5098343,-0.2873042,-4.8584337,5.691244,-6.110923,-5.141673
1409347899244,6.3781533,-1.6059108,-3.6194344,6.1074996,-5.4947286,-5.355077
1409347899245,6.6415157,-3.6008794,1.204882,6.446571,-5.1109548,-5.337628
1409347899250,5.8226986,-8.628104,14.13836,6.902268,-5.1502156,-4.6908793
1409347899276,-6.2165446,-18.725052,19.608511,7.3364577,-6.1199045,-2.2121336
1409347899277,-19.426552,-19.608511,19.608511,7.4448695,-5.9502473,-2.3106039
1409347899283,-19.60911,-19.608511,15.9100685,7.5492654,-5.775164,-2.4138067
1409347899291,-16.186,-19.245192,7.433398,7.619194,-5.6452312,-2.4999394
1409347899314,-8.327632,-12.066776,4.642956,7.546754,-5.5895495,-2.8237996
1409347899315,2.0590134,-1.4879963,2.484583,-2.645354,-8.648586,3.7913632
1409347899322,-3.8373067,-5.7760115,2.0392613,-2.5606964,-8.612886,3.928285
1409347899355,-0.6811504,-7.347805,4.6513352,-2.7420259,-8.576034,3.8863003
1409347899355,7.1407065,-14.812327,3.5344403,-2.5050159,-8.582025,4.030401
1409347899356,12.090718,-19.608511,0.98222125,-1.4666764,-8.89839,3.8520007
1409347899376,5.969942,-19.608511,4.3101616,-1.5016707,-8.906074,3.8206325
1409347899377,-10.226234,-19.603724,11.654375,0.43598172,-9.285712,3.1234374
1409347899382,-14.252084,-13.377602,-3.3488896,0.46951517,-9.277896,3.1417491
1409347899390,-3.9217024,-7.383718,-10.195109,-1.4448851,-9.2398815,2.9508107
1409347899410,3.1974564,-5.080496,-9.717466,-1.7552627,-9.435878,2.0133712
1409347899412,5.0559554,-3.3411086,-5.466561,-1.435518,-9.636614,1.1159518
1409347899423,4.460996,-3.342904,-3.6792896,-0.8796283,-9.748736,0.5989838
1409347899439,4.590882,-4.044405,-2.4732103,-0.36697453,-9.79751,0.21092181
1409347899463,5.415086,-4.871003,-2.3187842,0.18332009,-9.804324,-0.10962416
1409347899465,7.5788455,-7.7494326,-2.4025815,0.7950915,-9.764979,-0.42825085
1409347899466,6.7869635,-8.637681,-3.496133,1.5751681,-9.6558695,-0.6733499
1409347899471,5.7562594,-8.675988,-4.0958805,2.175295,-9.512688,-0.97326374
1409347899498,5.2726307,-8.765172,-3.9480386,2.602151,-9.364966,-1.3025469
1409347899499,4.5777135,-9.333796,-3.3075895,2.9265776,-9.223861,-1.5893261
1409347899502,4.095282,-9.326612,-2.4079683,3.113094,-9.12688,-1.7830081
1409347899528,3.8283286,-8.933964,-1.6089035,3.2130187,-9.07568,-1.8651837
1409347899530,3.550601,-8.643666,-1.2689269,3.2989464,-9.043777,-1.8701451
1409347899531,3.1453824,-8.936956,-1.2030864,3.3489835,-9.028087,-1.8569788
1409347899573,2.7263973,-9.838972,-1.1779473,3.347846,-9.033698,-1.8315655
1409347899576,2.0099323,-11.536461,-1.0085574,3.2880588,-9.064202,-1.7886592
1409347899577,1.1174936,-13.230358,-1.4287399,3.1228545,-9.138938,-1.7023423
1409347899578,0.48482585,-13.343485,-1.8076223,2.8484004,-9.240961,-1.6314535
1409347899603,0.7338228,-11.773487,-1.1755531,2.5481687,-9.333848,-1.59891
1409347899604,1.3413515,-9.655217,-0.5518635,2.332803,-9.408369,-1.4869605
1409347899605,0.9804256,-8.944139,-0.4878186,2.2262285,-9.456505,-1.3374673
1409347899643,-0.60094464,-10.344149,-1.845331,2.1160932,-9.499246,-1.2069968
1409347899645,-2.0350714,-11.034277,-2.3175871,1.8577485,-9.553188,-1.2065394
1409347899647,-2.7641058,-11.349713,-3.8893807,1.4914457,-9.611248,-1.2529385
1409347899669,-2.0919337,-10.577583,-9.187749,1.0684128,-9.639038,-1.455266
1409347899670,-4.881179,-12.016499,-6.7947445,0.7027435,-9.545671,-2.1346438
1409347899672,-7.4735007,-12.054207,-3.401562,0.13460457,-9.48905,-2.471881
1409347899673,-7.269395,-11.019313,-1.0947487,-0.5834063,-9.447588,-2.5638077
1409347899696,-7.353192,-10.779295,-0.27114335,-1.1754358,-9.390847,-2.5691845
1409347899697,-5.6898203,-10.012551,-0.374094,-1.6871829,-9.341204,-2.4628682
1409347899704,-4.2610803,-9.419388,-0.18315643,-2.0239062,-9.311549,-2.3171687
1409347899722,-3.2064347,-9.242816,-0.2172738,-2.2271724,-9.304163,-2.1546786
1409347899723,-2.8688521,-9.273342,-0.53450555,-2.3162572,-9.314714,-2.0103292
1409347899744,-2.7335799,-9.282919,-0.52612585,-2.3682222,-9.324457,-1.9016868
1409347899769,-2.473809,-9.583989,-0.21068975,-2.3943675,-9.339443,-1.7922552
1409347899770,-2.2212207,-10.149021,0.2813187,-2.390148,-9.364206,-1.6640959
1409347899771,-2.4516625,-11.104307,0.60333884,-2.3565612,-9.4009285,-1.496519
1409347899772,-3.0597897,-12.949638,2.6036944,-2.3274422,-9.437031,-1.3022455
1409347899787,-2.5498247,-14.329896,6.7342906,-2.3181355,-9.483489,-0.9274024
1409347899791,-0.008978256,-13.035232,9.093777,-2.2523525,-9.541313,-0.24629934
1409347899805,1.8124107,-12.206239,9.931747,-2.0429964,-9.57925,0.48428866
1409347899820,1.7926586,-12.302606,9.349358,-1.7210099,-9.5827875,1.1741846
1409347899825,0.66020113,-11.787253,6.4338183,-1.4508327,-9.546221,1.7132246
1409347899840,0.11252748,-10.971429,6.4404025,-1.3033699,-9.506092,2.0262926
1409347899855,-1.5107412,-10.276512,2.6473885,-1.208708,-9.4288225,2.409715
1409347899856,-4.458602,-10.827179,-3.819949,-1.2403541,-9.392453,2.5325334
1409347899871,-7.315483,-12.389994,-6.332065,-1.4476621,-9.459739,2.1419618
1409347899871,-8.733449,-13.652337,-3.681085,-1.8284459,-9.522007,1.4692004
1409347899884,-8.397064,-14.075512,-2.9903579,-2.2803388,-9.481463,1.0355093
1409347899903,-8.096592,-13.538612,-2.920926,-2.6561499,-9.417848,0.6475928
1409347899903,-7.2490444,-12.706028,1.9859903,-2.9679172,-9.339768,0.3613393
1409347899918,-6.47033,-14.55914,4.783615,-3.1766357,-9.267087,0.44776985
1409347899922,-5.4887075,-15.951369,8.462905,-3.262763,-9.221132,0.7038999
1409347899937,-4.123414,-15.927426,10.894217,-3.25577,-9.170096,1.2164292
1409347899955,-3.6631286,-15.61618,7.129933,-3.1756184,-9.089646,1.861227
1409347899956,-3.8043866,-14.360422,-0.7637503,-3.107951,-9.0366,2.2024698
1409347899967,-3.7606924,-13.183672,-4.0797195,-3.094004,-9.094357,1.9723616
1409347899971,-3.1896753,-12.360664,-2.822764,-3.112218,-9.159382,1.6094123
1409347899992,-2.7168205,-12.562376,-2.3349452,-3.0999248,-9.210359,1.3153449
1409347899993,-1.7417817,-13.277045,-5.7161565,-3.0373654,-9.265195,1.0492629
1409347900005,-0.22505496,-12.732964,-7.3711486,-2.9036062,-9.350161,0.56032723
1409347900031,0.45489833,-11.894394,-6.9090676,-2.712612,-9.4240055,-0.015259382
1409347900032,0.81402856,-11.265318,-6.625355,-2.5032825,-9.467356,-0.5226211
1409347900033,1.0043676,-12.275072,-6.271013,-2.2772365,-9.491685,-0.94472766
1409347900081,1.0139444,-16.592417,-5.662287,-2.0389605,-9.506042,-1.2838173
1409347900083,1.4239515,-19.608511,-1.6424223,-1.7647923,-9.529005,-1.5013158
1409347900084,3.448249,-19.608511,5.6006365,-1.4687843,-9.598257,-1.3735108
1409347900085,6.3781533,-19.608511,5.650316,-1.055339,-9.717557,-0.79103726
1409347900086,4.5220485,-15.588647,-0.5770026,-0.49266598,-9.789699,-0.29907832
1409347900105,2.4223335,-12.339716,-6.5601125,-0.12627646,-9.801302,-0.2982391
1409347900106,0.7218518,-12.110471,-8.963293,0.096181326,-9.781171,-0.699904
1409347900119,0.9900024,-12.1523695,-6.305729,0.18424363,-9.728388,-1.222669
1409347900136,3.3572693,-10.724228,-3.5051112,0.2615195,-9.677453,-1.5648944
1409347900137,4.390966,-9.029133,-2.60968,0.45920333,-9.643696,-1.72007
1409347900153,5.6485205,-7.7572136,-3.5404258,0.6979159,-9.612534,-1.8117747
1409347900154,4.4298716,-6.356007,-4.6297874,1.0532,-9.552767,-1.9508462
1409347900171,3.1771057,-5.469554,-6.459556,1.3401707,-9.471141,-2.161442
1409347900171,2.658761,-5.374983,-4.9536033,1.5175159,-9.35612,-2.5160635
1409347900186,2.7455509,-4.8141413,-2.2343888,1.6366239,-9.266982,-2.759519
1409347900208,2.0231004,-4.4155064,-2.2188265,1.7645886,-9.223309,-2.8261628
1409347900209,1.1546037,-4.095282,-2.594716,1.8462238,-9.174418,-2.9311943
1409347900211,0.5602432,-3.705027,-1.881244,1.8445933,-9.124151,-3.0850873
1409347900223,1.1384429,-3.044826,-0.5201403,1.8142344,-9.104813,-3.1593232
1409347900235,2.1936872,-2.5911248,-1.0115502,1.866823,-9.110261,-3.1126447
1409347900264,3.9354692,-1.8800468,-1.857302,2.0504456,-9.065086,-3.1289434
1409347900265,5.035605,-1.3054385,-2.92751,2.4731352,-8.916474,-3.2481472
1409347900266,5.93343,-0.65301853,-3.0304608,3.0442119,-8.646449,-3.484549
1409347900271,7.1550717,-0.22864626,-2.8018146,3.7376518,-8.258173,-3.7420473
1409347900295,7.9092455,-0.1388637,-2.327164,4.572115,-7.7355022,-3.9278731
1409347900295,7.715315,-0.37708676,-2.3702598,5.4252667,-7.126145,-3.9943655
1409347900304,7.0724716,-1.0618285,-2.6048915,6.137498,-6.511426,-4.012838
1409347900326,5.9585695,-1.7196354,-2.565387,6.6414323,-5.989714,-4.0230713
1409347900327,5.0463786,-2.5767596,-2.6168625,6.9448977,-5.626862,-4.034512
1409347900331,4.1772833,-4.453215,-2.858677,7.0846357,-5.4312487,-4.059543
1409347900356,-2.9951463,-12.442068,13.748105,7.005413,-5.512016,-4.0880613
1409347900357,-18.35395,-19.608511,17.099388,6.281043,-7.325802,-1.7468642
1409347900365,-19.60911,-19.608511,14.440627,6.433548,-7.1543574,-1.8960528
1409347900371,-13.129802,-16.21533,3.8815994,6.5258303,-7.0416455,-1.9997932
1409347900394,-4.71538,-6.337452,3.2800562,-1.8945222,-9.252714,2.6397803
1409347900395,-2.8089972,-2.0925324,6.727108,-2.4121428,-9.101683,2.7406774
1409347900403,-2.5288756,-2.7665,5.571307,-2.7340696,-8.807661,3.3347237
1409347900433,1.7399861,-2.3104045,2.520496,-2.8682992,-8.579628,3.785926
1409347900434,5.501277,-5.149928,0.0023942017,-2.4692252,-8.599043,4.016189
1409347900435,10.890026,-14.206594,-1.5101427,-1.5430177,-8.881279,3.8616552
1409347900461,12.864644,-19.086576,-0.9163807,0.10452508,-9.313943,3.0675619
1409347900462,10.181941,-15.856199,-1.6717514,0.0766694,-9.308392,3.085188
1409347900463,6.393117,-12.609662,-2.0620062,2.3096585,-9.378202,1.6985855
1409347900471,1.7316064,-12.962807,1.3814543,2.6703465,-9.346252,1.2989275
1409347900494,0.7589619,-11.944673,1.3102269,2.526218,-9.387062,1.2929314
1409347900495,0.17238252,-10.68652,-2.0278888,2.3127708,-9.446528,1.258789
1409347900504,0.78290397,-9.5492735,-4.960786,2.0819879,-9.541524,0.89165574
1409347900532,1.3359646,-8.848371,-5.336077,1.9769931,-9.5997715,0.32595572
1409347900533,1.8142064,-8.444349,-3.6661212,1.9476863,-9.610018,-0.1563374
1409347900535,2.484583,-8.504205,-2.695871,1.9624622,-9.59725,-0.46036476
1409347900560,2.8443117,-9.197925,-2.6072857,2.0407898,-9.566941,-0.6922528
1409347900561,2.791639,-9.640852,-2.6013002,2.134515,-9.529034,-0.90098846
1409347900564,2.2511482,-9.247604,-2.4301147,2.202209,-9.496129,-1.0696687
1409347900572,1.8656816,-8.741829,-1.9087774,2.2271519,-9.473193,-1.2119571
1409347900589,1.9177556,-9.070433,-1.2988545,2.2245083,-9.462772,-1.2953333
1409347900592,2.2517467,-9.68694,-1.0821792,2.2190912,-9.462355,-1.3076276
1409347900605,2.3026235,-10.295666,-1.0480618,2.23405,-9.461303,-1.2896476
1409347900624,1.8489223,-11.165958,-1.1109096,2.2441287,-9.461908,-1.2674984
1409347900625,0.4997896,-13.193249,-1.407192,2.2035422,-9.474582,-1.2438351
1409347900632,-0.8242039,-14.850635,-1.5269021,2.0177917,-9.518099,-1.2266684
1409347900654,-1.536479,-14.489709,-1.4951789,1.7044826,-9.582073,-1.2037544
1409347900655,-1.6346412,-12.697649,-1.2779051,1.3812752,-9.636899,-1.1801193
1409347900674,-1.4820108,-10.960655,-1.2707225,1.0842168,-9.679662,-1.1397432
1409347900681,-1.2401965,-9.659407,-1.3359646,0.8268591,-9.709636,-1.0998492
1409347900686,-1.5215151,-8.564658,-1.970428,0.61580724,-9.727616,-1.0792004
1409347900712,-0.9475053,-7.4806833,-3.6655228,0.40512657,-9.73175,-1.1398683
1409347900713,0.7769185,-6.223727,-4.4442368,0.26509297,-9.705117,-1.3823072
1409347900714,0.97982705,-6.599617,-4.736928,0.303947,-9.649581,-1.7215041
1409347900735,-2.7204118,-8.852561,-5.429451,0.36575347,-9.568449,-2.1169355
1409347900736,-4.7860093,-9.816826,-4.0982747,0.07816315,-9.471206,-2.541763
1409347900752,-4.0198646,-8.550891,-2.8820202,-0.35409695,-9.397345,-2.78117
1409347900753,-3.3650506,-7.1820064,-2.544438,-0.70105976,-9.344191,-2.8922331
1409347900768,-3.4093432,-7.1867948,-2.8072014,-0.99997115,-9.300398,-2.9450061
1409347900797,-3.4847605,-8.030152,-2.2774844,-1.2740595,-9.258882,-2.9698992
1409347900798,-2.4103625,-9.027936,-1.6370354,-1.5166318,-9.242256,-2.9070454
1409347900801,-1.3395559,-9.880272,-1.2575544,-1.6202155,-9.260052,-2.7922668
1409347900804,-0.62967503,-10.642226,-1.3132197,-1.6026664,-9.30614,-2.6453035
1409347900833,-0.08080431,-11.27669,-1.4808137,-1.4947362,-9.358448,-2.5210319
1409347900834,-0.28670564,-11.69388,-1.3599066,-1.3184575,-9.410798,-2.422589
1409347900835,-0.59495914,-12.090718,-1.1378443,-1.1733046,-9.455519,-2.3209765
1409347900859,-0.8355764,-12.859856,-0.8242039,-1.0749929,-9.494296,-2.2075157
1409347900860,-0.9068039,-13.239936,-0.20530279,-1.0142031,-9.531666,-2.0710192
1409347900864,-0.75357497,-13.080721,0.8607155,-0.9788158,-9.57476,-1.880492
1409347900889,-0.736217,-13.138781,2.3133974,-0.9368009,-9.623477,-1.6375304
1409347900890,-1.2779051,-13.665504,3.2722752,-0.91224146,-9.677981,-1.2941673
1409347900893,-1.5514427,-13.131,7.8691425,-0.9322772,-9.720357,-0.9032738
1409347900944,-1.2509704,-11.530476,14.41908,-0.9706394,-9.757071,-0.16673802
1409347900945,-1.644218,-11.307815,16.652271,-0.9937663,-9.701057,1.0355139
1409347900945,-3.0148985,-12.378023,15.170859,-1.0543116,-9.49094,2.2317898
1409347900946,-5.7454853,-12.023083,-1.5496471,-1.22785,-9.233907,3.0655732
1409347900947,-6.625953,-10.616488,-10.359711,-1.6453534,-9.314935,2.5875032
1409347900952,-4.969764,-11.09473,-11.101315,-2.0306563,-9.450701,1.6525946
1409347900967,-5.073313,-13.483545,-6.342839,-2.2241483,-9.520067,0.76931566
1409347900982,-5.342661,-14.772823,-0.44771573,-2.3518615,-9.516496,0.27466422
1409347900984,-5.5641246,-13.818135,1.489792,-2.444424,-9.4944515,0.22487785
1409347900997,-6.381146,-13.980941,2.6013002,-2.5456016,-9.465819,0.29764026
1409347901003,-6.981492,-15.418659,7.3873096,-2.705194,-9.415741,0.4428387
1409347901015,-6.9012866,-16.135124,11.248558,-2.8580492,-9.338033,0.8961647
1409347901037,-5.729325,-15.851411,8.592192,-2.9757986,-9.21663,1.5390766
1409347901038,-4.9853263,-15.811308,6.0447607,-3.035178,-9.110322,1.9900066
1409347901044,-4.859631,-14.674661,-0.21428105,-3.0879529,-9.034157,2.2402987
1409347901052,-4.419098,-12.597093,-6.2063694,-3.173429,-9.045781,2.0672636
1409347901067,-3.7223852,-12.415731,-4.0563765,-3.2481565,-9.129285,1.5086439
1409347901082,-3.2112231,-12.80479,-2.782661,-3.2413154,-9.187602,1.1190248
1409347901085,-2.552219,-12.17272,-6.273407,-3.1749346,-9.238983,0.8551861
1409347901098,-1.532289,-11.349114,-7.946954,-3.0887682,-9.298835,0.4019562
1409347901122,-0.65062433,-11.021109,-7.2909427,-2.9799814,-9.341239,-0.17701508
1409347901123,-0.3465607,-12.253524,-6.117784,-2.8290367,-9.364839,-0.6831675
1409347901124,-0.14185645,-14.931438,-5.149329,-2.6334949,-9.386656,-1.0610536
1409347901132,0.6452374,-18.759169,-3.8947675,-2.3983855,-9.421772,-1.2838701
1409347901154,2.4319103,-19.608511,0.65541273,-2.088146,-9.487186,-1.3428859
1409347901155,6.30513,-19.608511,5.7616463,-1.6882857,-9.599481,-1.081685
1409347901164,5.8029466,-18.927362,3.0657754,-1.0568666,-9.735293,-0.52676266
1409347901192,2.4552538,-14.629769,-3.6475663,-0.54312897,-9.788761,-0.23569047
1409347901193,-0.24540567,-13.105262,-7.6147585,-0.26842487,-9.794564,-0.40599984
1409347901194,-1.1246762,-12.290036,-8.115147,-0.19101883,-9.766597,-0.86456335
1409347901222,0.39145198,-11.127052,-3.8839936,-0.22556992,-9.707556,-1.3721756
1409347901223,2.5767596,-10.313622,-2.1978772,-0.22525516,-9.676719,-1.575042
1409347901224,3.7325604,-9.378687,-4.0043025,-0.09981179,-9.670501,-1.6253695
1409347901232,3.7379475,-8.009203,-5.732916,0.14463468,-9.643704,-1.7743846
1409347901257,4.2922053,-5.8622026,-3.3602622,0.41482788,-9.57948,-2.0571442
1409347901258,4.2610803,-5.651513,-4.6004586,0.7559163,-9.529498,-2.1880765
1409347901266,3.743933,-5.823297,-5.695207,1.0721877,-9.440078,-2.430176
1409347901298,2.8975825,-5.683236,-2.9376855,1.3110917,-9.323549,-2.7427814
1409347901298,1.6747441,-4.9164934,-2.582745,1.4685885,-9.272098,-2.835815
1409347901299,1.09834,-4.473566,-1.6382325,1.503341,-9.228932,-2.9558718
1409347901324,1.0468647,-4.1156325,-1.7022774,1.5002912,-9.21367,-3.004628
1409347901326,1.6585833,-3.6445735,-2.5408466,1.5223162,-9.195999,-3.0473797
1409347901327,2.3247697,-3.2190042,-3.330933,1.609543,-9.136147,-3.1797178
1409347901332,3.4320881,-2.6491842,-2.44029,1.7848628,-9.023338,-3.4005911
1409347901363,4.68246,-2.0470424,-1.8896236,2.1127234,-8.895721,-3.5458314
1409347901364,5.499481,-1.5406688,-2.9801826,2.620967,-8.721071,-3.6392071
1409347901365,5.969343,-0.8559271,-3.6403837,3.218306,-8.4226265,-3.8564546
1409347901394,6.0878563,-0.40222588,-3.5332432,3.8623002,-8.003952,-4.1460567
1409347901394,5.988497,-0.4878186,-3.470994,4.514648,-7.513861,-4.3966165
1409347901395,5.9448028,-0.36631286,-3.6062663,5.09411,-7.013723,-4.585643
1409347901414,5.6401405,-0.54408234,-3.6236243,5.609655,-6.466086,-4.784549
1409347901415,4.9081135,-1.6980876,-2.955642,6.0293493,-5.9487066,-4.9426975
1409347901433,4.4939165,-3.6774938,-1.3611037,6.297015,-5.6384654,-4.972493
1409347901433,4.368221,-8.175002,6.215946,6.4617076,-5.6502156,-4.742549
1409347901452,-4.654328,-18.761562,19.607914,6.610933,-6.4163275,-3.3610606
