time,acc_x,acc_y,acc_z,gravity_x,gravity_y,gravity_z
1409346517951,-1.6579847,0.8295909,9.231443,-1.3690286,0.839801,9.674238
1409346517951,-1.7040731,0.87208796,9.163208,-1.3517969,0.8270698,9.677757
1409346517976,-1.6627731,0.94331545,9.323022,-1.3387121,0.81703156,9.6804285
1409346517976,-1.5035586,1.003769,9.65821,-1.3340429,0.810764,9.6816
1409346517977,-1.2593501,1.050456,10.095152,-1.3410676,0.80880237,9.680793
1409346517986,-1.1198878,0.95947635,10.377667,-1.3618933,0.8115433,9.677656
1409346518010,-1.4041992,0.75716627,10.199898,-1.3984988,0.8197786,9.67174
1409346518011,-1.6879122,0.55246204,9.891046,-1.4532806,0.83025664,9.6627655
1409346518019,-1.6609775,0.5386954,9.799467,-1.5144316,0.84790605,9.651836
1409346518048,-1.4383167,0.6931214,9.611523,-1.5727016,0.87344444,9.640233
1409346518049,-1.3784616,0.86131406,9.325416,-1.6100198,0.90332174,9.631315
1409346518049,-1.4550761,0.9504981,9.335591,-1.6213024,0.9302771,9.626855
1409346518075,-1.5765818,1.0193313,9.454104,-1.615872,0.945729,9.626264
1409346518076,-1.6095021,1.1073183,9.558251,-1.6046447,0.9470509,9.628011
1409346518078,-1.567005,1.1150994,9.619903,-1.5929867,0.93887025,9.630748
1409346518086,-1.5616181,1.0540473,9.622895,-1.5836362,0.9282552,9.633318
1409346518108,-1.4598645,0.9923966,9.725247,-1.5757525,0.91699296,9.63569
1409346518109,-1.30484,0.9780314,9.798869,-1.5688579,0.9088953,9.637582
1409346518120,-1.2539631,0.91458505,9.859323,-1.5615019,0.9057653,9.6390705
1409346518144,-1.3311762,0.83617496,9.801263,-1.5568019,0.90728027,9.6396885
1409346518145,-1.3461399,0.81402856,9.833585,-1.5585691,0.91290426,9.638872
1409346518147,-1.3305776,0.91697925,9.825804,-1.5659554,0.92276776,9.636736
1409346518179,-1.3700819,0.95708215,9.633071,-1.5739264,0.9351934,9.634239
1409346518180,-1.4628572,0.93732995,9.488221,-1.5809609,0.9501848,9.631619
1409346518184,-1.5496471,0.92296475,9.486425,-1.584675,0.9648675,9.62955
1409346518187,-1.5664065,0.9684546,9.498995,-1.5859784,0.97581375,9.628232
1409346518212,-1.5496471,1.0163386,9.523536,-1.584215,0.9816643,9.627928
1409346518213,-1.5340848,1.0097545,9.642648,-1.5778781,0.983321,9.6287985
1409346518218,-1.54845,1.0319009,9.735423,-1.5685152,0.98074085,9.630591
1409346518245,-1.541866,1.0522517,9.815628,-1.5590125,0.9757253,9.632644
1409346518246,-1.5664065,1.0648212,9.932944,-1.552495,0.97075456,9.634199
1409346518249,-1.6220716,1.0426749,9.989208,-1.5485266,0.96767384,9.635147
1409346518271,-1.6675615,0.9888053,9.920973,-1.5507784,0.9678367,9.6347685
1409346518272,-1.661576,0.9672575,9.907207,-1.5585188,0.97114706,9.633186
1409346518289,-1.666963,0.9768343,9.913192,-1.5692341,0.9777202,9.630781
1409346518290,-1.7381904,1.0684125,9.920375,-1.5813591,0.9869662,9.627855
1409346518300,-1.846528,1.1887212,9.896433,-1.593236,0.99786115,9.624773
1409346518329,-1.9782091,1.3186066,9.923966,-1.6042632,1.0096619,9.621711
1409346518330,-2.0614076,1.4149733,9.928156,-1.6164246,1.0213281,9.6184435
1409346518331,-2.087744,1.4466964,9.935339,-1.6301686,1.0324379,9.614937
1409346518360,-2.0518308,1.4460979,9.898827,-1.6438152,1.0423459,9.611544
1409346518361,-1.9452889,1.3916297,9.8515415,-1.6556712,1.0512338,9.60854
1409346518361,-1.9099745,1.347337,9.902418,-1.6641852,1.059585,9.606152
1409346518366,-1.8782512,1.353921,9.901819,-1.6700932,1.0677345,9.604224
1409346518385,-1.8842367,1.3455414,9.809045,-1.6753492,1.0761276,9.602372
1409346518386,-1.9153614,1.3515269,9.761759,-1.6811978,1.0850997,9.60034
1409346518400,-1.8650831,1.3491327,9.755175,-1.6875688,1.0968889,9.597881
1409346518417,-1.9081788,1.34195,9.630676,-1.6934457,1.1118686,9.595122
1409346518420,-1.9973627,1.3389573,9.454104,-1.6979219,1.129044,9.592325
1409346518439,-2.0590134,1.3275849,9.378687,-1.7007211,1.1479338,9.589587
1409346518439,-2.0775685,1.3245921,9.346964,-1.7026578,1.1669793,9.586945
1409346518447,-2.0308816,1.3389573,9.388862,-1.7029961,1.1830496,9.584914
1409346518476,-1.9620483,1.2797008,9.462483,-1.6999111,1.1966488,9.583774
1409346518476,-1.9183542,1.1965023,9.61272,-1.6948696,1.2035793,9.583798
1409346518480,-1.8357542,1.1474211,9.741408,-1.6891401,1.2039882,9.584759
1409346518487,-1.7100586,1.086369,9.883863,-1.6837395,1.201434,9.58603
1409346518517,-1.6472107,1.0031705,9.967062,-1.679457,1.1989267,9.587095
1409346518519,-1.654992,0.9427169,9.940725,-1.6782068,1.1977423,9.587461
1409346518520,-1.650802,0.8714894,9.891046,-1.6813053,1.1986086,9.586811
1409346518552,-1.6172832,0.81343,9.837176,-1.6874324,1.2017089,9.585346
1409346518553,-1.6220716,0.8331822,9.721058,-1.6935751,1.2058464,9.583743
1409346518553,-1.7645266,0.86610246,9.689933,-1.6992283,1.2121111,9.581952
1409346518572,-1.9488802,0.98581254,9.791088,-1.7035828,1.2178973,9.580445
1409346518573,-2.0189106,1.1162965,9.800066,-1.7073505,1.2219467,9.579258
1409346518578,-1.9626468,1.1270704,9.727641,-1.710823,1.2237402,9.578409
1409346518587,-1.8285716,1.0696096,9.568427,-1.7144217,1.224013,9.577731
1409346518607,-1.6962919,1.0295067,9.308656,-1.715571,1.2248603,9.577417
1409346518607,-1.5053543,1.0821792,9.273342,-1.7112387,1.2263329,9.578004
1409346518619,-1.4760253,1.1115081,9.266159,-1.7004523,1.2284907,9.579648
1409346518636,-1.5352819,1.1659763,9.333796,-1.6877176,1.2297622,9.5817375
1409346518661,-1.6262615,1.2276269,9.425373,-1.6742088,1.2280413,9.584328
1409346518662,-1.7465701,1.2719196,9.543288,-1.663106,1.2211454,9.587141
1409346518662,-1.8722657,1.3215994,9.724648,-1.6572018,1.2092295,9.589673
1409346518667,-1.9656396,1.4053963,9.917382,-1.6566669,1.1937416,9.591705
1409346518708,-1.9919758,1.4879963,10.092757,-1.6596926,1.177167,9.59323
1409346518710,-1.988983,1.5215151,10.219051,-1.6644487,1.1615009,9.5943165
1409346518711,-2.0284874,1.489792,10.250176,-1.6705424,1.149221,9.594736
1409346518712,-2.0512323,1.429937,10.179547,-1.6816039,1.1421821,9.593644
1409346518746,-2.067393,1.4203602,10.028712,-1.699512,1.1419564,9.590515
1409346518746,-2.100912,1.4395138,9.841965,-1.7253711,1.1508437,9.584834
1409346518749,-2.1146786,1.4610616,9.722255,-1.7568849,1.1680701,9.577023
1409346518749,-2.1308396,1.4431051,9.67018,-1.7892123,1.1893617,9.568413
1409346518765,-2.1547816,1.4802152,9.582193,-1.8190124,1.2103139,9.5601635
1409346518767,-2.1984756,1.4730326,9.509171,-1.8451353,1.2282615,9.552865
1409346518782,-2.1625626,1.4425066,9.518747,-1.8691103,1.2404023,9.546634
1409346518798,-2.0404584,1.4377182,9.506178,-1.888174,1.247061,9.542014
1409346518799,-1.9387048,1.4047978,9.419388,-1.9017217,1.2512673,9.538772
1409346518819,-1.8710686,1.3449428,9.2494,-1.9082109,1.2568387,9.536743
1409346518821,-1.8195933,1.2683283,9.106346,-1.908747,1.2656422,9.535472
1409346518837,-1.8249803,1.186327,9.027936,-1.907202,1.2776626,9.534178
1409346518853,-1.8243817,1.1647792,8.839393,-1.9067918,1.2906144,9.532516
1409346518854,-1.8357542,1.1186907,8.68796,-1.9071503,1.3058025,9.530375
1409346518859,-1.8890251,1.062427,8.656237,-1.9086528,1.3219014,9.527854
1409346518867,-1.8842367,1.0324994,8.694544,-1.9117302,1.3379415,9.524998
1409346518883,-1.8662802,1.0145429,8.706514,-1.9148066,1.3528407,9.522276
1409346518888,-1.8363527,0.96426475,8.69155,-1.9174626,1.3657366,9.519899
1409346518901,-1.7681179,0.8846575,8.717887,-1.921674,1.3752941,9.517674
1409346518931,-1.6496049,0.78410107,8.737639,-1.9280435,1.381024,9.515556
1409346518932,-1.477821,0.6817489,8.740632,-1.9349362,1.3848078,9.513606
1409346518932,-1.3497312,0.6242881,8.7849245,-1.9396011,1.3859955,9.512485
1409346518957,-1.3204023,0.623091,8.887876,-1.9400519,1.3837907,9.5127125
1409346518957,-1.3204023,0.6584055,8.9842415,-1.9377344,1.3776697,9.514073
1409346518961,-1.2856863,0.7068881,9.027337,-1.9346315,1.3674133,9.516185
1409346518967,-1.258153,0.76075757,9.160215,-1.9317778,1.3528647,9.518844
1409346518983,-1.2707225,0.8206126,9.305065,-1.9293125,1.3343825,9.521952
1409346518997,-1.3102269,0.8822633,9.363723,-1.9257007,1.3140427,9.525511
1409346518999,-1.299453,0.88286185,9.318831,-1.921837,1.2904174,9.52952
1409346519016,-1.2958617,0.8499416,9.229049,-1.9171294,1.2652733,9.533838
1409346519034,-1.2743138,0.79367787,9.147048,-1.9113976,1.2414136,9.538126
1409346519035,-1.3186066,0.75836337,9.151836,-1.9041505,1.2197738,9.542366
1409346519046,-1.3227965,0.75956047,9.231443,-1.8958293,1.1992265,9.546626
1409346519047,-1.2689269,0.7739257,9.364322,-1.8872527,1.1787795,9.550871
1409346519065,-1.2336124,0.7811083,9.493608,-1.8813466,1.1580012,9.554578
1409346519067,-1.2054806,0.7469909,9.620501,-1.8803409,1.1364591,9.557362
1409346519082,-1.240795,0.6973112,9.725247,-1.8818285,1.112276,9.559914
1409346519099,-1.3221979,0.6655881,9.744401,-1.8885366,1.0854936,9.561669
1409346519100,-1.4508862,0.7020996,9.706094,-1.8981193,1.0575558,9.562902
1409346519115,-1.5586253,0.7158663,9.67018,-1.9082688,1.0309218,9.56379
1409346519133,-1.6124948,0.7260417,9.637859,-1.9177468,1.00556,9.564595
1409346519133,-1.6663644,0.741604,9.660604,-1.9272896,0.98054504,9.565275
1409346519149,-1.7423803,0.82899237,9.671976,-1.9388053,0.9558137,9.56545
1409346519150,-1.7316064,0.95468795,9.908403,-1.952819,0.9316287,9.564986
1409346519165,-1.6376339,1.0684125,10.144233,-1.9721181,0.90886533,9.563216
1409346519167,-1.5532384,1.1252748,10.199299,-1.9976834,0.88935995,9.559743
1409346519183,-1.5957354,1.1456255,10.047866,-2.0301847,0.87619543,9.55411
1409346519198,-1.7112557,1.1653777,9.745,-2.0727682,0.8732022,9.545237
1409346519201,-1.8668787,1.2114661,9.536704,-2.1278453,0.88237685,9.532265
1409346519216,-2.1332338,1.3874398,9.470264,-2.1937551,0.90130407,9.515539
1409346519232,-2.5079262,1.6699557,9.55047,-2.26732,0.92400074,9.496098
1409346519233,-2.7874494,1.9387048,9.539697,-2.3461776,0.94995785,9.474356
1409346519249,-3.0023289,2.0380642,9.488221,-2.4326692,0.97649133,9.449814
1409346519249,-3.0903158,2.095525,9.464279,-2.5279675,1.003223,9.421959
1409346519267,-3.122039,2.0991163,9.407417,-2.6324656,1.0310932,9.39028
1409346519268,-3.1693244,2.1290438,9.383475,-2.7473564,1.0620551,9.3538475
1409346519281,-3.2650926,2.1398177,9.47206,-2.8721318,1.096812,9.3122635
1409346519295,-3.5218706,2.0578163,9.405622,-3.009491,1.1329298,9.264439
1409346519299,-4.007295,1.8393455,9.348161,-3.1538093,1.1699034,9.211689
1409346519313,-4.1892543,1.7824832,9.333197,-3.3173509,1.2056776,9.149422
1409346519330,-4.234744,1.9237411,9.333796,-3.4978585,1.2428429,9.076933
1409346519331,-4.259285,2.1996727,9.19972,-3.6911924,1.2850913,8.99411
1409346519356,-4.38498,2.404377,9.149442,-3.8885128,1.3332462,8.9035
1409346519357,-4.6399627,2.256535,9.121908,-4.0844464,1.3840722,8.807498
1409346519359,-4.9637785,2.0141222,8.924985,-4.2740917,1.4304093,8.709561
1409346519368,-5.2498856,1.9722236,8.69155,-4.4510546,1.4729966,8.613291
1409346519388,-5.3157263,2.1290438,8.428188,-4.6183987,1.5130653,8.517713
1409346519389,-5.2127757,2.0991163,7.9248075,-4.762841,1.5543928,8.430278
1409346519400,-5.1571107,1.9835961,7.908048,-4.8824606,1.594085,8.354093
1409346519419,-5.0140567,1.83336,8.157643,-4.97755,1.6234479,8.292093
1409346519420,-4.8943467,1.5634137,8.458116,-5.053615,1.6365025,8.243375
1409346519428,-6.2225304,1.525705,8.678383,-5.117203,1.6337559,8.204599
1409346519457,-6.38354,2.0201077,8.335413,-5.183522,1.624078,8.164794
1409346519459,-4.426879,2.0697873,7.8595657,-5.248735,1.6119214,8.125446
1409346519460,-5.1840453,1.875857,8.473679,-5.286512,1.6067753,8.101942
1409346519468,-5.922058,2.0404584,7.3765354,-5.2986927,1.6101931,8.093302
1409346519504,-5.4102974,2.360683,7.3352356,-5.3023086,1.624295,8.088114
1409346519506,-5.273229,2.1906946,7.1407065,-5.3028393,1.6544352,8.081655
1409346519509,-5.415684,1.6124948,6.408081,-5.325029,1.6908333,8.0595
1409346519510,-5.363012,0.92775315,6.6187706,-5.367111,1.7085303,8.027792
1409346519557,-5.1379566,0.350152,8.231265,-5.4105,1.7071034,7.9989176
1409346519557,-4.9105077,0.30466217,9.487623,-5.445246,1.6685255,7.9834642
1409346519558,-4.848857,0.29987377,9.518148,-5.457663,1.60872,7.9872603
1409346519559,-4.907515,-0.034117375,9.190144,-5.4610186,1.5495775,7.9966545
1409346519561,-4.9984946,-0.3274071,9.289502,-5.4819045,1.4999942,7.991816
1409346519568,-5.6760535,-0.48961425,9.576208,-5.535968,1.4600062,7.9618983
1409346519613,-6.5966244,0.46327803,8.520964,-5.633749,1.4280049,7.8988643
1409346519614,-6.6762314,-0.31543607,9.989806,-5.7764416,1.4169024,7.797147
1409346519615,-6.0800753,0.37828386,8.874108,-5.9184346,1.4006207,7.6929054
1409346519617,-6.481104,1.1971009,7.6375036,-6.056149,1.3882062,7.587249
1409346519650,-6.5445504,0.9588778,7.2203135,-6.1549397,1.3648794,7.511605
1409346519650,-6.996456,0.38726214,7.8625584,-6.179011,1.3601335,7.49268
1409346519651,-6.217742,0.29448682,7.9750857,-6.1655827,1.38336,7.499486
1409346519651,-5.367202,-0.7278373,5.9837084,-6.120463,1.4416398,7.5254235
1409346519670,-5.8346696,-0.6051345,11.385626,-6.0334396,1.5353631,7.576982
1409346519670,-5.445013,0.11971009,11.490971,-5.8878694,1.6314235,7.670844
1409346519681,-2.0045455,2.0937295,7.0820484,-5.725174,1.7768329,7.7611628
1409346519710,-2.2349873,3.016694,7.325659,-5.5191936,2.0337346,7.8468347
1409346519711,-3.6529531,2.7371712,6.27221,-5.226709,2.356276,7.9561214
1409346519711,-4.3795934,2.4582467,5.6485205,-4.936567,2.6665304,8.043029
1409346519737,-4.449624,2.3780408,5.801151,-4.6587424,2.9269803,8.117838
1409346519737,-4.2598834,2.6126726,5.9771247,-4.3577957,3.1140997,8.214767
1409346519741,-3.767875,3.0544028,5.556942,-4.0559287,3.2226045,8.326743
1409346519748,-3.5290532,3.5116954,5.478532,-3.779921,3.301245,8.425222
1409346519768,-4.132991,3.8474822,6.3925185,-3.5228553,3.3376086,8.521751
1409346519769,-4.445434,4.3837833,6.9796963,-3.3354719,3.3418994,8.595158
1409346519779,-3.7852328,4.803367,7.6800003,-3.2250323,3.3099303,8.649504
1409346519800,-3.4644098,4.5537715,8.331821,-3.179121,3.2271166,8.69766
1409346519816,-3.6649241,3.5745432,8.958505,-3.2075446,3.071567,8.743427
1409346519817,-4.4244847,2.5300727,10.651205,-3.3274093,2.8298588,8.780127
1409346519833,-4.131195,1.0031705,11.757326,-3.5356603,2.5429378,8.786522
1409346519834,-3.208829,-0.7679402,11.058818,-3.7916527,2.1867845,8.775633
1409346519850,-3.2106245,-0.56922144,11.009138,-4.1007266,1.8041633,8.723498
1409346519851,-4.6830587,0.13108255,10.329185,-4.422138,1.4481361,8.63238
1409346519866,-6.873753,0.6410475,9.94312,-4.745251,1.1455923,8.505327
1409346519882,-8.147469,1.0522517,9.948506,-5.0551353,0.90596914,8.354353
1409346519883,-8.642469,2.2511482,9.612122,-5.307836,0.74989116,8.211878
1409346519898,-8.53892,3.5350387,8.755595,-5.477152,0.7055689,8.103911
1409346519899,-6.694188,3.8630445,8.12592,-5.5632234,0.72713166,8.043147
1409346519911,-4.787805,3.7487214,7.6530657,-5.59329,0.84588575,8.010616
1409346519930,-4.0545807,3.0190883,7.9888525,-5.5412717,1.0268523,8.0256
1409346519931,-4.2275615,1.9991584,7.98167,-5.438435,1.2101486,8.070276
1409346519946,-4.8542438,0.10534488,6.915053,-5.334989,1.3369728,8.119162
1409346519948,-4.1395745,1.252766,8.247426,-5.266297,1.3860383,8.155698
1409346519960,-3.1334114,2.0817583,8.110957,-5.2239394,1.4153856,8.177868
1409346519977,-3.840898,1.3605051,7.3232646,-5.17649,1.4637457,8.1995
1409346519981,-4.7818193,0.7799112,7.3747396,-5.111454,1.5412853,8.226048
1409346519993,-5.421071,0.4794389,7.9691005,-5.016373,1.6115252,8.270996
1409346520020,-5.773019,0.57400984,8.220491,-4.9341226,1.6607722,8.310635
1409346520020,-6.244078,1.0187328,8.246828,-4.854351,1.702336,8.349114
1409346520021,-5.901707,1.7238252,7.9702973,-4.7503953,1.7463676,8.399663
1409346520028,-4.3885717,1.7956513,7.8206596,-4.617254,1.794991,8.463413
1409346520056,-3.3435028,0.9223662,7.5285673,-4.4609256,1.8404751,8.537165
1409346520057,-3.0059202,-0.31543607,7.1185603,-4.293966,1.8770299,8.614465
1409346520062,-2.7898436,-1.3311762,6.933608,-4.123613,1.901503,8.691978
1409346520085,-2.645593,-1.3611037,7.0287776,-3.9443638,1.9149563,8.771849
1409346520086,-2.873042,-1.0851719,6.2351,-3.749643,1.9228722,8.855119
1409346520088,-2.669535,-0.90381116,6.5924344,-3.5335352,1.9266053,8.942746
1409346520121,-2.0859482,-0.866701,7.295731,-3.2974439,1.9156034,9.034806
1409346520122,-1.4796166,-0.63206923,7.00304,-3.0544517,1.8851335,9.12617
1409346520123,-0.85293436,-0.16460137,6.47033,-2.7969553,1.8486881,9.215735
1409346520128,-0.1945289,-0.16519992,6.3087215,-2.5223658,1.7923176,9.305678
1409346520156,0.670975,-0.7469909,6.96593,-2.2244565,1.7011945,9.398304
1409346520156,1.2312182,-1.3449428,7.9625163,-1.9218278,1.5539023,9.490119
1409346520162,1.2006922,-1.7022774,9.706693,-1.6174697,1.3498244,9.57769
1409346520186,0.96665895,-1.804031,10.430939,-1.3013439,1.096653,9.657859
1409346520187,0.338181,-2.107496,10.790069,-0.9854674,0.81694216,9.722749
1409346520188,0.038905777,-2.3529017,11.559206,-0.6883213,0.5280967,9.768199
1409346520220,-0.16101007,-2.1392193,12.04463,-0.42578465,0.24021387,9.794457
1409346520222,-0.30526072,-1.5292963,11.277288,-0.18532299,-0.012946708,9.804891
1409346520223,-0.25318682,-1.1486182,10.386047,0.038501322,-0.20674823,9.804395
1409346520228,-0.84694886,-1.4149733,10.474034,0.2553341,-0.3499282,9.797078
1409346520253,-1.5951369,-1.6124948,11.11568,0.43473098,-0.46708345,9.785869
1409346520254,-1.5711949,-1.4772224,11.170148,0.56697947,-0.574741,9.773361
1409346520260,-0.3705027,-1.4077905,9.797672,0.6762047,-0.67872286,9.759737
1409346520280,1.2773066,-2.3277626,8.787319,0.7805041,-0.78421867,9.744035
1409346520282,2.2780828,-2.6521769,8.366538,0.86752367,-0.8930417,9.727295
1409346520302,2.9514523,-1.6705543,8.213309,0.9459929,-0.98907024,9.710676
1409346520303,2.9287071,-0.3345897,8.655039,1.0339261,-1.0610296,9.694101
1409346520308,2.7724855,0.18794483,10.707469,1.1686213,-1.1265496,9.67138
1409346520390,3.0418332,0.20470424,12.868236,1.3463646,-1.2131926,9.637731
1409346520390,3.5685577,0.31124622,13.810952,1.5491822,-1.3326004,9.591381
1409346520392,3.9576154,0.14664486,13.430873,1.7600391,-1.4683753,9.535016
1409346520393,3.7732618,-0.46866497,12.782044,1.9434582,-1.6085236,9.476603
1409346520394,3.2848446,-0.7739257,11.677719,2.095681,-1.7334769,9.421973
1409346520397,2.8532898,-0.85054016,10.781689,2.187249,-1.8216163,9.384457
1409346520398,2.2703018,-0.9127894,9.992201,2.2404597,-1.8718055,9.362001
1409346520401,2.1374235,-0.90859956,9.536105,2.2774823,-1.9014645,9.347079
1409346520435,2.4768016,-1.0761937,9.606734,2.3145106,-1.9276425,9.332611
1409346520436,2.6940753,-1.2946646,9.693524,2.359542,-1.9630902,9.313927
1409346520438,3.1693244,-1.6184803,10.010158,2.4160066,-2.0125396,9.288864
1409346520440,4.518457,-1.7064673,10.404602,2.4895155,-2.070702,9.256614
1409346520441,5.831078,-1.3676877,10.278308,2.57714,-2.1392238,9.216966
1409346520464,6.331466,-1.0151415,10.243592,2.688654,-2.2086043,9.16862
1409346520466,5.85921,-0.9900024,10.452486,2.815574,-2.2674196,9.116015
1409346520480,5.6856303,-0.7745243,11.760319,2.944855,-2.3134844,9.063443
1409346520481,6.0321913,-0.70509243,12.932281,3.076693,-2.3463686,9.011044
1409346520500,5.604826,-0.94570965,12.844294,3.2129698,-2.3774238,8.95517
1409346520500,4.1611223,-1.6753427,12.239159,3.3362703,-2.4136944,8.900211
1409346520508,3.6553473,-2.6168625,10.842142,3.4399023,-2.444632,8.852188
1409346520533,3.6092591,-2.6677392,9.378687,3.5267053,-2.445869,8.817622
1409346520533,3.465607,-2.2349873,8.693945,3.6123507,-2.411836,8.79229
1409346520541,3.9869444,-1.785476,8.385692,3.7005806,-2.367086,8.767724
1409346520569,5.8651958,-2.767697,9.39365,3.7897072,-2.3383589,8.73731
1409346520570,6.329072,-2.794632,9.594165,3.8756173,-2.342906,8.698319
1409346520572,5.932832,-2.5558102,9.913192,3.957331,-2.3630311,8.655981
1409346520606,4.915296,-2.657564,10.524911,4.043204,-2.3824806,8.6108465
1409346520607,3.5751417,-2.9101522,10.40939,4.1265388,-2.3944302,8.567892
1409346520609,3.098097,-3.3255463,9.19134,4.217782,-2.3916218,8.524133
1409346520611,6.3703723,-4.9943047,-0.6596026,4.32272,-2.370624,8.477301
1409346520649,8.999206,-7.165247,-13.493122,4.460671,-2.347787,8.411938
1409346520650,10.128072,-5.015254,2.3630772,4.698523,-2.3977923,8.267096
1409346520651,6.649895,-5.7640405,9.176975,4.825518,-2.4337575,8.183006
1409346520652,3.4632127,-6.1046157,9.020155,4.879463,-2.5428514,8.117581
1409346520661,0.59855044,-3.9977183,6.260239,4.9136314,-2.7534623,8.027767
1409346520669,-2.5540147,-0.9983821,7.325659,4.9645085,-2.9183853,7.9376993
1409346520680,-1.762731,-3.3393128,14.741698,5.012295,-3.0344436,7.8638062
1409346520697,1.9009962,-6.7851677,13.983933,4.9749055,-3.1562283,7.8395743
1409346520714,5.28939,-6.5936313,11.900978,4.9213786,-3.3183024,7.8063617
1409346520714,8.459313,-4.036624,10.243592,4.904534,-3.4365819,7.765683
1409346520732,9.533711,-3.0765493,11.705252,4.9610014,-3.4908483,7.705376
1409346520732,9.86471,-2.8951883,10.818799,5.0252757,-3.522522,7.649107
1409346520740,8.31207,-2.6725276,8.5778265,5.0943365,-3.5378125,7.5961843
1409346520762,5.6203885,-2.754529,7.086837,5.1649466,-3.52094,7.556236
1409346520763,3.2160115,-3.3608606,6.6121864,5.227098,-3.4673898,7.5382385
1409346520777,1.614889,-3.769072,7.235876,5.259276,-3.3963335,7.5481997
1409346520782,0.587178,-3.4320881,8.234857,5.2551017,-3.3355148,7.5781684
1409346520796,0.712275,-2.9783869,9.301474,5.225643,-3.298688,7.614571
1409346520812,2.5881321,-2.558803,10.586561,5.1998754,-3.2718577,7.6437316
1409346520813,4.276643,-3.093907,11.123461,5.1771107,-3.264747,7.662203
1409346520829,5.2277393,-3.721188,10.341754,5.168751,-3.2807608,7.661006
1409346520830,5.795764,-3.8827965,7.479486,5.1717668,-3.303461,7.6492066
1409346520844,6.203975,-3.9318779,4.028843,5.1867657,-3.305151,7.638314
1409346520861,6.421249,-4.216788,3.513491,5.2103887,-3.280262,7.632962
1409346520862,6.2458735,-3.8414967,5.0798974,5.2423706,-3.2532594,7.6226144
1409346520876,5.9226565,-3.383007,5.6359506,5.2874894,-3.2480588,7.5936136
1409346520894,5.8813562,-3.526659,6.479907,5.342667,-3.2563348,7.5513296
1409346520895,6.042965,-3.7193923,6.7684083,5.399606,-3.2918158,7.495238
1409346520911,6.151303,-3.803788,6.2925606,5.4468975,-3.3422732,7.438474
1409346520911,5.873575,-3.6260185,5.3139305,5.4906673,-3.3904128,7.384312
1409346520927,5.04997,-2.9299042,5.2923827,5.5398326,-3.4237761,7.3320117
1409346520929,3.9953241,-1.8291701,5.66528,5.59034,-3.4456043,7.2832894
1409346520958,3.7732618,-1.7585411,6.333262,5.6388974,-3.472903,7.2327156
1409346520959,4.104859,-2.9011738,6.885724,5.6791716,-3.5108747,7.1826982
1409346520961,4.7734394,-3.8307228,6.845621,5.69803,-3.5813353,7.1328025
1409346520974,5.8095303,-4.177882,5.876568,5.7064805,-3.6748757,7.078259
1409346520980,6.5750766,-4.76925,5.6305637,5.711267,-3.777945,7.0198965
1409346520993,6.508039,-5.403713,5.9280434,5.7166862,-3.8938172,6.9518404
1409346521009,5.791574,-5.303157,5.979519,5.711083,-4.0226793,6.8827295
1409346521009,5.282806,-4.7297454,6.0507464,5.693219,-4.153759,6.8193784
1409346521024,4.4526167,-4.7201686,7.029975,5.6627793,-4.2849493,6.763323
1409346521029,3.809175,-4.9853263,9.509171,5.609264,-4.4207754,6.720364
1409346521051,4.7925935,-4.9146976,8.556278,5.531222,-4.56603,6.68785
1409346521052,5.90889,-4.859032,6.075287,5.453338,-4.709821,6.6519976
1409346521063,7.055712,-4.9787426,6.118981,5.3993707,-4.8413515,6.6014023
1409346521083,7.047333,-5.9250507,7.442376,5.3601804,-4.960654,6.5445223
1409346521084,6.1662664,-6.7564373,8.012196,5.3040547,-5.086651,6.4933333
1409346521089,5.1786585,-6.904279,8.186973,5.2286716,-5.227842,6.4421315
1409346521118,4.4915223,-6.5349736,8.41921,5.1574283,-5.3657885,6.3858933
1409346521119,4.3957543,-6.229114,8.326435,5.0960464,-5.4942656,6.325641
1409346521123,4.8841715,-6.3470287,8.094197,5.0449142,-5.6048803,6.2693334
1409346521129,5.3498435,-6.621763,7.3418193,5.0101852,-5.6997466,6.2113867
1409346521154,5.5096564,-6.389526,5.9585695,4.990872,-5.778719,6.153697
1409346521155,5.3223104,-5.710171,5.1624975,4.980319,-5.845002,6.0994067
1409346521161,5.4234653,-5.7095723,5.1642933,4.9676766,-5.899756,6.0568514
1409346521181,5.679645,-6.2434793,5.09127,4.952038,-5.9488926,6.021494
1409346521182,5.663484,-6.6067996,4.408922,4.94762,-5.9981165,5.976122
1409346521189,5.5000796,-6.353613,3.6936548,4.9587674,-6.044407,5.9199796
1409346521216,5.378574,-5.951387,3.6954503,5.001821,-6.0752587,5.8517866
1409346521217,5.105635,-5.4234653,5.213374,5.0725117,-6.0853047,5.780059
1409346521221,4.6154222,-5.04578,7.1071877,5.167401,-6.0757294,5.705599
1409346521229,4.4047327,-5.131373,7.6333137,5.2901063,-6.053173,5.6164284
1409346521254,4.4538136,-6.167464,7.741651,5.4323144,-6.034743,5.4992948
1409346521254,4.0581717,-7.337031,6.994062,5.547951,-6.033424,5.384089
1409346521262,3.347094,-7.073669,4.7459064,5.598339,-6.0458364,5.3175983
1409346521284,3.626617,-5.8604074,3.945046,5.6207976,-6.063507,5.273606
1409346521285,4.0940847,-4.109049,3.1651347,5.6054597,-6.0715938,5.2806206
1409346521290,4.5238442,-2.8502972,2.9173348,5.5790577,-6.086057,5.2919197
1409346521319,5.8663926,-3.1597476,6.0280013,5.5723753,-6.1199474,5.2597775
1409346521320,7.4627266,-4.8279076,8.25401,5.6010723,-6.1601663,5.181769
1409346521322,7.813477,-7.6243353,8.069058,5.6552706,-6.2069755,5.065746
1409346521329,7.143699,-7.9236107,7.909844,5.704457,-6.2740097,4.9260893
1409346521355,7.097611,-6.435614,6.118981,5.746301,-6.3527446,4.774206
1409346521356,7.235876,-6.31351,4.3526587,5.7432656,-6.430075,4.673267
1409346521363,6.8127007,-6.3865333,3.721188,5.679563,-6.50797,4.6431966
1409346521378,6.3643866,-6.455366,3.41473,5.579797,-6.5837145,4.6573553
1409346521396,5.7299232,-6.053739,3.1268275,5.482362,-6.6582766,4.6670594
1409346521397,5.243302,-5.222951,2.7102363,5.408385,-6.7378764,4.63905
1409346521401,4.18686,-4.349666,1.9973627,5.352985,-6.8285346,4.5702376
1409346521409,3.1974564,-4.1772833,2.054225,5.3032203,-6.927161,4.478914
1409346521428,3.3476925,-4.2341456,1.6573862,5.24304,-7.041721,4.369792
1409346521431,2.8856115,-4.177882,1.6154876,5.1738186,-7.17137,4.239511
1409346521451,2.553416,-4.0533834,1.4664485,5.091901,-7.315856,4.089154
1409346521452,2.3762453,-3.8474822,0.87089086,4.999491,-7.474942,3.9116127
1409346521461,2.135628,-3.6314054,0.59136784,4.89626,-7.6486316,3.7007403
1409346521485,1.8339585,-3.1932666,-0.015562311,4.778463,-7.8359847,3.4545674
1409346521486,1.4981717,-2.7144263,-0.08678981,4.6511974,-8.023325,3.1879444
1409346521490,1.3808558,-2.255338,-0.40222588,4.5079465,-8.217342,2.885152
1409346521520,1.3581109,-2.132635,-0.98102415,4.3519735,-8.4108,2.547385
1409346521522,1.4107834,-2.396596,-1.3389573,4.184259,-8.596815,2.1810875
1409346521523,1.2378023,-2.9376855,-1.8058267,4.008164,-8.767762,1.7975928
1409346521553,1.6346412,-4.71957,-1.6017209,3.824604,-8.9219885,1.3931625
1409346521554,6.039374,-13.892954,1.0133458,3.626999,-9.060081,0.96447825
1409346521554,5.4144874,-19.608511,-11.105505,3.407086,-9.180927,0.52224135
1409346521562,0.46627077,-19.608511,-16.649878,3.1606572,-9.283101,0.06833187
1409346521584,9.240421,-19.608511,-6.3111157,2.8811429,-9.367386,-0.34855425
1409346521584,19.254768,-19.608511,0.25617957,2.546589,-9.44472,-0.69464767
1409346521590,16.455946,-12.509106,0.54527944,1.9907125,-9.553473,-0.968807
1409346521622,11.946468,-3.3782187,0.39205053,4.321714,-8.601854,-1.8711644
1409346521623,8.777742,-0.6512229,1.893215,4.9831233,-8.284309,-1.645926
1409346521624,5.5623293,-1.2018893,3.3022027,5.720792,-7.842209,-1.3938082
1409346521653,2.8209682,-3.5523968,7.386112,6.125783,-7.583083,-1.0686364
1409346521654,-0.5291186,-6.8288617,14.791977,6.335686,-7.4785786,-0.3167904
1409346521654,-3.0747535,-7.9828672,17.377714,6.097753,-7.584697,1.2083769
1409346521676,-2.328361,-6.381146,14.726735,5.4276733,-7.6436243,2.8785007
1409346521677,-1.2078748,-5.881955,10.473435,4.7837534,-7.5466237,4.0416036
1409346521695,-0.41718966,-6.939594,7.1329255,4.1926026,-7.4995246,4.727536
1409346521696,-0.17477672,-8.963891,4.7500963,3.5126767,-7.5561004,5.1707683
1409346521713,-0.52073884,-11.092935,3.3662477,2.8618379,-7.7329683,5.308623
1409346521713,-1.3551182,-12.125435,2.1745336,2.3217275,-8.017233,5.148198
1409346521723,-2.2667105,-11.771691,1.2737153,1.9061817,-8.32557,4.8188963
1409346521743,-2.4127567,-10.330381,0.41599256,1.4881159,-8.603923,4.4641247
1409346521743,-2.3624785,-9.251195,-0.2681506,1.1646292,-8.825747,4.1134167
1409346521773,-2.3062148,-9.274539,-0.7457938,0.8862062,-9.012048,3.7640448
1409346521774,-2.223615,-9.969456,-1.0444705,0.6174726,-9.184217,3.3821962
1409346521774,-2.0847511,-10.655993,-0.87208796,0.35860273,-9.341043,2.964236
1409346521801,-2.131438,-11.368867,-0.78410107,0.1270701,-9.463338,2.5689452
1409346521802,-2.3558946,-11.751939,-0.5315128,-0.08808365,-9.555788,2.2021694
1409346521802,-2.2457612,-11.40059,-0.42556936,-0.29418167,-9.619235,1.8852544
1409346521810,-1.7136499,-10.704475,-0.11851298,-0.4684797,-9.66129,1.6156733
1409346521831,-0.7565677,-9.671378,0.17597382,-0.5886834,-9.687148,1.4082001
1409346521832,0.0017956513,-9.191938,0.48123455,-0.6213199,-9.705199,1.2623233
1409346521843,0.16460137,-9.430161,1.0217255,-0.5764187,-9.719226,1.1724983
1409346521872,0.42197806,-9.444528,1.7286136,-0.4997402,-9.726051,1.1509081
1409346521872,0.18614918,-10.375872,2.4678235,-0.39649028,-9.7238865,1.2079815
1409346521873,0.035913024,-10.861895,3.1172507,-0.311096,-9.7129345,1.3162483
1409346521904,0.12389994,-10.59973,2.8993783,-0.24506286,-9.69245,1.4719934
1409346521905,0.073621705,-10.4171715,1.8495208,-0.18769729,-9.674134,1.5957093
1409346521905,-0.08259996,-10.258555,1.1629834,-0.15795565,-9.672745,1.6073078
1409346521910,-0.1933318,-10.1699705,0.96546185,-0.1558952,-9.682122,1.5500301
1409346521931,-0.31004912,-10.416573,1.3449428,-0.16712563,-9.692649,1.4815605
1409346521931,-0.22744916,-10.476428,1.6938977,-0.18684798,-9.696486,1.4538248
1409346521942,0.0011971008,-10.291476,1.5460558,-0.19224867,-9.695674,1.4585387
1409346521967,0.16280572,-9.935339,1.186327,-0.1833426,-9.696808,1.4521251
1409346521967,0.2124854,-9.60853,0.6955156,-0.16008359,-9.701995,1.4198856
1409346521970,0.15622166,-9.651027,0.47285482,-0.12903087,-9.7122135,1.3515435
1409346522000,-0.0017956513,-9.935339,0.57999533,-0.09826778,-9.723643,1.2694461
1409346522001,-0.14664486,-10.25676,0.87807345,-0.081205584,-9.732538,1.2006199
1409346522002,-0.22625206,-10.455479,1.1599907,-0.08072978,-9.737037,1.1636075
1409346522010,-0.13946225,-10.381857,1.4634558,-0.08914281,-9.738075,1.1542689
1409346522025,0.23702596,-9.8754835,1.8555063,-0.097998604,-9.735423,1.175726
1409346522057,0.19572599,-9.941324,2.0841527,-0.07291122,-9.728023,1.2371974
1409346522058,0.06284779,-10.027515,2.2864625,-0.052687928,-9.718228,1.3128794
1409346522059,-0.07182605,-10.117298,2.3666685,-0.040856913,-9.706436,1.3977909
1409346522092,-0.14604631,-10.176555,2.4001873,-0.038831834,-9.694168,1.4805311
1409346522092,-0.1388637,-10.102933,2.224812,-0.044516604,-9.68178,1.5593482
1409346522093,-0.1436521,-10.071808,1.9315223,-0.05234452,-9.672039,1.6184276
1409346522094,-0.18614918,-10.101735,1.7070658,-0.061265495,-9.667703,1.6438271
1409346522119,-0.20171149,-10.086173,1.6005238,-0.07397154,-9.666428,1.6507882
1409346522119,-0.17118542,-10.0341,1.6005238,-0.08628917,-9.667144,1.6459938
1409346522122,-0.10654198,-9.959281,1.6932992,-0.09289193,-9.668334,1.6386274
1409346522151,-0.035913024,-9.915586,1.763928,-0.09258535,-9.668352,1.6385382
1409346522152,0.0664391,-9.973646,1.8309658,-0.08706103,-9.667527,1.6436906
1409346522152,0.16699557,-10.034698,1.7950528,-0.071379766,-9.665953,1.6536788
1409346522176,0.29987377,-10.049063,1.7417817,-0.04703209,-9.6649885,1.6601818
1409346522177,0.42197806,-9.9928,1.6747441,-0.014047522,-9.665022,1.660585
1409346522196,0.5231331,-9.934141,1.6591818,0.027513739,-9.665919,1.6551888
1409346522196,0.62967503,-9.909601,1.6639702,0.07450024,-9.666649,1.6494645
1409346522204,0.7278373,-9.90601,1.70946,0.12711422,-9.666842,1.6451182
1409346522212,0.7667431,-9.970055,1.7363948,0.18466333,-9.66587,1.6453695
1409346522232,0.81522566,-10.073604,1.7884687,0.24094373,-9.66423,1.647727
1409346522233,0.88046765,-10.101137,1.8237832,0.29617637,-9.661703,1.653532
1409346522242,0.93014735,-10.078991,1.8118122,0.3518059,-9.658458,1.6615756
1409346522270,0.9498995,-10.10413,1.8243817,0.4080942,-9.654971,1.6689547
1409346522271,0.9463082,-10.20289,1.8405426,0.4607903,-9.65112,1.6774764
1409346522271,0.931943,-10.298658,1.8285716,0.50728524,-9.647429,1.6852751
1409346522301,0.91219085,-10.318411,1.7908629,0.5461206,-9.644623,1.6892002
1409346522302,0.83378077,-10.247183,1.6992847,0.57739276,-9.642865,1.6888384
1409346522303,0.7404069,-10.090961,1.6184803,0.5969167,-9.642862,1.6820529
1409346522311,0.62847793,-9.991004,1.5676036,0.60731125,-9.644155,1.670887
1409346522351,0.46686932,-10.041282,1.6418238,0.6067557,-9.646132,1.6596316
1409346522352,0.2765303,-10.094553,1.7753005,0.59073246,-9.647833,1.6555266
1409346522353,0.10414778,-10.038888,1.8710686,0.55952835,-9.648417,1.6629375
1409346522354,0.005985504,-9.973646,1.87047,0.51592004,-9.647988,1.6794465
1409346522378,-0.046088383,-9.931747,1.8106151,0.46571606,-9.647759,1.6953639
1409346522379,-0.022744916,-9.913192,1.7232267,0.41346887,-9.648256,1.706045
1409346522384,0.077213004,-9.949105,1.6424223,0.36691257,-9.649692,1.7085762
1409346522390,0.16819267,-9.992201,1.5771804,0.33594754,-9.652142,1.7010857
1409346522411,0.219668,-9.992201,1.5951369,0.31471857,-9.655168,1.687926
1409346522412,0.25857377,-9.964069,1.6956934,0.30207947,-9.657393,1.67747
1409346522422,0.29388827,-10.032902,1.821389,0.29589406,-9.65761,1.6773237
1409346522447,0.35075054,-10.080787,1.9003977,0.293909,-9.655774,1.6882036
1409346522447,0.41958386,-10.092158,1.9081788,0.2973492,-9.652732,1.7049258
1409346522451,0.46806642,-10.075998,1.8848352,0.3066542,-9.649587,1.7209975
1409346522480,0.46507367,-9.987412,1.8776526,0.3194579,-9.647057,1.7328111
1409346522481,0.39564183,-9.931747,1.881244,0.3312658,-9.6444,1.7453378
1409346522482,0.3196259,-10.022727,1.894412,0.33614948,-9.641865,1.7583622
1409346522491,0.23582886,-10.108918,1.8722657,0.33359835,-9.63974,1.770453
1409346522511,0.17836803,-10.070611,1.7447745,0.32351038,-9.638866,1.7770792
1409346522511,0.022744916,-9.986814,1.654992,0.30887365,-9.640393,1.7713847
1409346522524,-0.020350715,-9.881469,1.5969325,0.28093117,-9.643522,1.7589675
1409346522543,-0.12030864,-9.955689,1.5867572,0.25066286,-9.646974,1.7445552
1409346522544,-0.19632454,-10.011953,1.6011224,0.21271688,-9.650724,1.7287791
1409346522551,-0.2220622,-9.877877,1.5951369,0.17201866,-9.654192,1.7138866
1409346522577,-0.24480712,-9.752182,1.5759833,0.13298516,-9.657129,1.7007506
1409346522577,-0.21428105,-9.716867,1.555034,0.09398177,-9.659656,1.6889714
1409346522584,-0.13587095,-9.683349,1.5155296,0.060223877,-9.661861,1.6778561
1409346522591,-0.050278235,-9.630077,1.4867992,0.036132805,-9.664188,1.6650997
1409346522614,0.011372458,-9.624092,1.5280992,0.022318507,-9.666698,1.6507084
1409346522615,0.11432313,-9.615114,1.5705963,0.015439269,-9.668195,1.6420022
1409346522624,0.22864626,-9.604341,1.5921441,0.02124854,-9.669133,1.6363953
1409346522646,0.34476504,-9.60853,1.6406267,0.037137307,-9.669685,1.6328518
1409346522646,0.4830302,-9.576208,1.6472107,0.06371932,-9.669297,1.6343266
1409346522651,0.6356605,-9.625888,1.7292122,0.10173048,-9.668445,1.6374428
1409346522707,0.7589619,-9.673772,1.8357542,0.15300182,-9.6661625,1.6468958
1409346522708,0.8762778,-9.615712,1.9327193,0.21199791,-9.662104,1.6640915
1409346522712,0.98222125,-9.570822,1.9847932,0.278162,-9.656064,1.689218
1409346522713,1.0546459,-9.652225,2.0350714,0.34741175,-9.648604,1.7187626
1409346522714,1.0660183,-9.760562,2.1134815,0.4194155,-9.640478,1.7480446
1409346522745,1.0923545,-9.7402115,2.1691468,0.48554277,-9.631307,1.781166
1409346522748,1.1025299,-9.833585,2.1829133,0.54759765,-9.621276,1.8170316
1409346522749,1.1001357,-10.086772,2.2098482,0.60205114,-9.611761,1.8498601
1409346522750,1.050456,-10.312426,2.2176294,0.6480989,-9.603158,1.8787563
1409346522751,0.9504981,-10.50037,2.2026656,0.6815049,-9.5963955,1.901351
1409346522772,0.8355764,-10.523713,2.2254105,0.69851476,-9.592201,1.9162881
1409346522772,0.801459,-10.323199,2.3600843,0.7013132,-9.589012,1.9311651
1409346522789,0.6099229,-10.218452,2.520496,0.7002809,-9.583032,1.9609985
1409346522791,0.3226187,-10.161591,2.7329812,0.6801681,-9.575398,2.004872
1409346522805,0.055066638,-10.498574,2.9831753,0.63952893,-9.56585,2.0629845
1409346522821,-0.17657238,-10.866084,3.072958,0.5802806,-9.554902,2.1301465
1409346522825,-0.32202014,-11.269507,3.003526,0.502524,-9.545248,2.1922822
1409346522838,-0.45789108,-11.61547,2.9364884,0.41508594,-9.539424,2.2355058
1409346522842,-0.5566519,-11.896789,2.8269536,0.3237021,-9.537325,2.2594328
1409346522855,-0.492607,-12.031462,2.5845408,0.232187,-9.537949,2.2680428
1409346522872,-0.25617957,-11.885416,2.2649148,0.15496552,-9.542884,2.2538292
1409346522872,0.12629414,-11.555016,2.019509,0.106022626,-9.551869,2.2183213
1409346522886,0.641646,-11.510124,1.8650831,0.09667788,-9.562592,2.1720734
1409346522891,1.0935516,-11.749545,1.899799,0.13716274,-9.574165,2.118241
1409346522903,1.5598224,-12.180501,1.8459295,0.2173232,-9.584105,2.0659332
1409346522920,1.99437,-12.699445,1.7345991,0.33316374,-9.593538,2.0058448
1409346522924,2.4025815,-12.920309,1.6310499,0.46856648,-9.602551,1.9343861
1409346522938,2.7659016,-12.762891,1.8124107,0.6254694,-9.608907,1.8569071
1409346522965,3.0819361,-12.653356,2.3080103,0.79607004,-9.606969,1.8007798
1409346522966,3.228581,-12.644977,2.4851813,0.9732386,-9.5925045,1.790829
1409346522966,3.177704,-12.586917,1.3006501,1.1414415,-9.571367,1.8045553
1409346522971,2.947861,-12.288838,-0.5105635,1.2871026,-9.564027,1.7444571
1409346522998,2.48159,-11.932701,-2.7018566,1.399564,-9.57921,1.5653636
1409346522999,1.9895816,-11.5616,-7.6225395,1.4687773,-9.618562,1.2232593
1409346523003,0.33159694,-10.625467,-8.653243,1.5163422,-9.676002,0.49607846
1409346523023,-0.25318682,-10.412383,-5.673061,1.4363234,-9.696555,-0.29011106
1409346523023,-0.61171854,-10.718841,-1.7836803,1.3118489,-9.685042,-0.8058348
1409346523042,-0.44592008,-10.971429,0.48722005,1.1553558,-9.689365,-0.9755776
1409346523057,-0.8230068,-11.489176,1.9656396,1.0152798,-9.711044,-0.91390115
1409346523058,-0.83138657,-12.473192,3.7780502,0.8463737,-9.746302,-0.68090665
1409346523073,-1.0301052,-13.666702,4.5962687,0.6895,-9.778001,-0.29277006
1409346523074,-1.447295,-14.553754,4.584896,0.53592855,-9.791437,0.10474253
1409346523089,-1.8130093,-14.697406,4.5394063,0.36950436,-9.789482,0.44706982
1409346523091,-2.0506337,-13.904326,4.259285,0.36539224,-9.792085,0.38983724
1409346523106,-2.1392193,-12.380417,3.080739,0.35114217,-9.795408,0.31154025
1409346523121,-1.8315643,-11.153987,1.3257892,0.32975072,-9.799329,0.18661797
1409346523123,-1.411382,-10.488997,0.44113165,0.31069618,-9.801704,0.021335341
1409346523138,-1.0995371,-9.926959,1.4933833,0.30242577,-9.800862,-0.14844109
1409346523152,-0.6572084,-9.489418,3.0963013,0.3122674,-9.797421,-0.2887839
1409346523152,-0.89902276,-9.274539,3.252523,0.3503291,-9.792694,-0.3883622
1409346523170,-1.0767922,-9.144653,2.7605145,0.3964853,-9.787241,-0.47234863
1409346523171,-0.90500826,-8.87351,2.4480712,0.4445108,-9.78118,-0.5488982
1409346523187,-0.3854665,-8.429385,2.6761189,0.49337214,-9.774538,-0.62080055
1409346523192,-0.05626374,-7.967903,3.1190462,0.54388124,-9.766946,-0.69379157
1409346523215,0.08319851,-7.675811,3.3093853,0.5928262,-9.758402,-0.7697654
1409346523215,0.2765303,-7.6135616,3.1705215,0.6441744,-9.749,-0.84405667
1409346523226,0.6183026,-7.6668324,2.858677,0.70142627,-9.738769,-0.9136647
1409346523254,0.8690952,-7.578247,2.36188,0.77211106,-9.728311,-0.9665423
1409346523254,0.5434838,-7.3807254,1.3461399,0.85107005,-9.717891,-1.0043191
1409346523255,-0.11731588,-7.033566,0.37110126,0.9249147,-9.707258,-1.041191
1409346523273,-1.0672154,-6.755839,-0.47345337,0.98725927,-9.696858,-1.0801079
1409346523273,-1.6154876,-6.5481415,-0.45070848,1.0342999,-9.686752,-1.1258129
1409346523291,-1.9045875,-6.3883286,-0.05267244,1.0738243,-9.67625,-1.1779069
1409346523317,-1.9045875,-6.238691,0.48722005,1.1087481,-9.665458,-1.2328897
1409346523318,-1.7106571,-6.1489086,1.3922282,1.1425288,-9.6537075,-1.2926562
1409346523318,-1.3940239,-6.217143,2.1960814,1.1720234,-9.642154,-1.3511552
1409346523323,-1.2802993,-6.4380083,2.7341783,1.1915748,-9.632344,-1.4030288
1409346523352,-1.3317747,-6.729502,3.1441853,1.196459,-9.626028,-1.4416779
1409346523353,-0.8463503,-7.0090256,3.0789435,1.1876047,-9.624637,-1.4582076
1409346523353,0.05207389,-7.4405804,2.891597,1.1760929,-9.626885,-1.4526684
1409346523374,0.9504981,-7.868544,2.146402,1.1717917,-9.632378,-1.419377
1409346523374,2.1188686,-8.722076,0.22146365,1.1818235,-9.63741,-1.3762367
1409346523386,3.1854854,-9.94312,-2.0009542,1.212722,-9.64123,-1.3215116
1409346523413,3.7774518,-11.029489,-2.9430726,1.266993,-9.641223,-1.2696315
1409346523414,4.2580876,-11.66874,-2.8921957,1.3351047,-9.63803,-1.2232331
1409346523414,4.7285485,-12.441469,-2.9095535,1.4119337,-9.633079,-1.1750194
1409346523424,4.747702,-14.2700405,-4.805163,1.4917823,-9.627117,-1.1240972
1409346523449,4.699818,-15.684415,-8.020576,1.5630519,-9.617373,-1.1105937
1409346523450,4.1820717,-14.620193,-4.299388,1.6259432,-9.598626,-1.1802751
1409346523452,6.797737,-12.477382,-4.969166,1.6760622,-9.591775,-1.1657887
1409346523477,5.485116,-12.099098,-3.9857473,1.7853582,-9.570568,-1.1777707
1409346523478,3.7373488,-10.817602,-1.9470845,1.8579947,-9.557563,-1.1710069
1409346523484,2.0272903,-9.596559,2.7563248,1.9091285,-9.5511875,-1.1403797
1409346523512,-4.0827127,-11.599907,4.128801,1.9478999,-9.551131,-1.0732892
1409346523512,-6.335656,-15.176845,4.709395,1.8803856,-9.572997,-0.9961384
1409346523513,-7.354389,-18.471865,4.3023806,1.7313132,-9.610802,-0.8974498
1409346523549,-6.8557963,-17.640478,2.0290859,1.5249908,-9.65484,-0.7929741
1409346523549,-5.445612,-13.879786,-2.0709844,1.3624887,-9.68007,-0.7811928
1409346523550,-2.7635074,-11.748946,-3.7175968,1.2594682,-9.687299,-0.8604529
1409346523551,-2.6761189,-10.538078,-0.0712275,1.187692,-9.692436,-0.9036038
1409346523572,-3.2704794,-8.999206,1.3371617,1.1205536,-9.707604,-0.82289404
1409346523572,-3.3931823,-7.9074497,2.1625626,1.0746245,-9.720267,-0.729378
1409346523587,-3.6128504,-7.9206176,2.4558525,1.0523341,-9.725645,-0.6890518
1409346523604,-3.2333694,-7.820061,2.030283,1.0327947,-9.728768,-0.6743923
1409346523604,-2.136825,-7.3729444,1.192911,1.0204312,-9.73096,-0.66144574
1409346523618,-1.572392,-7.4746976,0.3764882,1.0124112,-9.732597,-0.64960897
1409346523623,-1.9482816,-8.358757,-0.017956512,0.99143916,-9.735782,-0.6340395
1409346523638,-2.3535004,-9.266758,0.14065935,0.9515406,-9.741183,-0.6118068
1409346523657,-2.4181437,-9.781511,0.3333926,0.9023016,-9.747568,-0.58410937
1409346523657,-2.1272483,-10.139444,0.4417302,0.8432225,-9.754267,-0.5600544
1409346523669,-1.7328035,-10.605117,0.79008657,0.7658871,-9.761475,-0.5453746
1409346523671,-1.2138603,-10.96305,1.2180501,0.6760951,-9.768676,-0.5350404
1409346523702,-0.6871359,-10.961254,1.4766239,0.56597704,-9.77612,-0.526817
1409346523703,-0.10594343,-10.490194,1.0971429,0.43921328,-9.78273,-0.525081
1409346523705,0.7410054,-9.894637,0.7086837,0.3059829,-9.787244,-0.53537625
1409346523729,1.8106151,-9.5492735,0.46208093,0.17595395,-9.789333,-0.55534154
1409346523729,2.5145104,-9.210494,0.5518635,0.05682108,-9.788812,-0.58852327
1409346523732,2.834735,-8.738836,1.8207904,-0.049507253,-9.785726,-0.63837165
1409346523760,2.8778305,-8.057686,2.4420857,-0.13684797,-9.781258,-0.6918559
1409346523760,2.516306,-7.967903,4.694431,-0.21659255,-9.775917,-0.74493414
1409346523765,1.5993267,-8.429385,8.157045,-0.27466422,-9.772063,-0.77570987
1409346523772,0.9600749,-8.713697,9.866506,-0.31646365,-9.77332,-0.74327075
1409346523788,1.8782512,-8.5473,8.152257,-0.3465645,-9.778923,-0.6503407
1409346523804,3.3674448,-8.4904375,4.537611,-0.36314476,-9.784824,-0.5438239
1409346523804,3.6942532,-9.394249,3.0029275,-0.3762547,-9.78969,-0.43679225
1409346523819,3.1064768,-10.2735195,3.281852,-0.38342327,-9.794194,-0.31167585
1409346523837,2.1176715,-11.104307,3.578733,-0.38764587,-9.797346,-0.17930268
1409346523838,1.4502877,-11.624448,2.932897,-0.38943392,-9.798814,-0.044568334
1409346523852,0.688333,-12.0571995,2.356493,-0.3923805,-9.79843,0.08497867
1409346523852,-0.090979666,-11.807604,1.7124528,-0.40399843,-9.795839,0.22074944
1409346523867,-0.22685061,-10.993576,1.073201,-0.42661595,-9.790632,0.36318633
1409346523872,0.10414778,-10.250176,0.51595044,-0.45534432,-9.782188,0.52137554
1409346523888,0.6063316,-9.737218,0.16879122,-0.4901013,-9.769161,0.7026141
1409346523907,0.90740246,-9.609129,0.026934769,-0.525628,-9.750534,0.90619314
1409346523907,0.8523358,-9.921572,0.024540568,-0.5551525,-9.727033,1.1166985
1409346523912,1.0726024,-10.386047,0.1340753,-0.57329863,-9.697865,1.3390815
1409346523940,1.1965023,-10.887033,0.3645172,-0.57398164,-9.663778,1.565985
1409346523941,1.13964,-11.367071,0.6853402,-0.5636882,-9.624983,1.7923049
1409346523945,1.1025299,-11.7860565,1.0594343,-0.547792,-9.581732,2.0151284
1409346523952,1.0941502,-12.103887,1.2892777,-0.52912676,-9.533667,2.235984
1409346523976,0.9343372,-12.463615,1.0163386,-0.51199853,-9.48063,2.4547675
1409346523977,0.8403648,-12.601881,0.12749124,-0.50200146,-9.423744,2.6667244
1409346523984,0.7146692,-12.601881,-0.54887074,-0.49665657,-9.364363,2.8692217
1409346524009,0.45310268,-12.462419,-1.5191209,-0.504006,-9.301882,3.064534
1409346524009,0.16460137,-12.241553,-3.537433,-0.52810967,-9.237859,3.2486107
1409346524012,0.1328782,-11.655573,-6.136339,-0.5728946,-9.177238,3.4088805
1409346524041,0.7110779,-11.212646,-8.119935,-0.64044076,-9.126775,3.5301826
1409346524041,2.0278888,-11.210251,-7.505822,-0.72969246,-9.095991,3.591781
1409346524043,3.4105403,-11.739968,-4.614824,-0.83345485,-9.088794,3.587417
1409346524052,4.1581297,-12.66413,-1.745373,-0.9277907,-9.087804,3.5667067
1409346524077,4.64535,-13.170504,0.41599256,-1.0017874,-9.116975,3.4709644
1409346524078,4.446631,-13.548787,2.3942018,-1.0195084,-9.167846,3.3289053
1409346524084,2.9574378,-14.65012,5.529409,-0.9826988,-9.221628,3.1884615
1409346524108,3.7074213,-14.535198,8.292916,-0.9218203,-9.261253,3.0902743
1409346524109,5.61141,-14.174871,4.9158945,-0.83078593,-9.2808695,3.0570645
1409346524112,6.730101,-14.17966,2.7431567,-0.7308298,-9.300582,3.022493
1409346524145,6.5110316,-13.068151,1.1988965,-0.6298501,-9.320502,2.9836082
1409346524146,5.617396,-10.821193,-4.96318,-0.5427739,-9.33448,2.9569027
1409346524147,4.050989,-10.291476,-12.816162,-0.46506405,-9.368093,2.8623312
1409346524152,2.5785553,-10.721834,-7.9062524,-0.37905163,-9.444886,2.6116729
1409346524180,1.5095441,-11.542446,-1.4676456,-0.31122312,-9.51165,2.3668644
1409346524181,0.9044097,-12.310986,0.5518635,-0.24577919,-9.587875,2.045143
1409346524186,1.0265139,-13.207015,0.23163901,-0.1517413,-9.663873,1.6604007
1409346524213,0.58418524,-12.76349,1.3449428,-0.014210604,-9.716228,1.3285636
1409346524214,0.1945289,-13.196241,2.3241713,0.14278321,-9.747747,1.0636853
1409346524215,-0.60214174,-14.865599,2.9987376,0.3009075,-9.761884,0.8862705
1409346524241,-1.8650831,-17.263391,3.3261447,0.46452802,-9.767478,0.74226564
1409346524242,-3.2118216,-19.110518,3.1489737,0.62732846,-9.768783,0.5896633
1409346524246,-4.2173862,-19.226038,4.162918,0.7731635,-9.767613,0.40783525
1409346524252,-4.7746367,-18.376097,5.891532,0.88895756,-9.763763,0.22148645
1409346524277,-4.1401734,-16.354193,7.253234,0.96856767,-9.758627,0.037999477
1409346524278,-2.4636335,-13.513473,7.511808,1.0302838,-9.75141,-0.13753918
1409346524284,-0.28311434,-10.817602,6.1507044,1.1050866,-9.738952,-0.31935063
1409346524311,1.062427,-9.4535055,4.1299977,1.1802815,-9.722545,-0.4994117
1409346524312,1.3982137,-8.930971,3.4943373,1.2633603,-9.703262,-0.648855
1409346524313,1.6921021,-8.710705,3.799598,1.3686943,-9.680497,-0.7648563
1409346524343,1.6525977,-8.857947,4.518457,1.5007182,-9.652178,-0.86815006
1409346524344,1.2258313,-9.077616,5.3528366,1.6439393,-9.619029,-0.9706366
1409346524344,0.7308301,-8.971074,5.674258,1.779289,-9.584932,-1.0647168
1409346524352,-0.05267244,-8.505402,5.6904187,1.9020416,-9.5509615,-1.1540236
1409346524367,-0.3453636,-7.2059484,4.4915223,2.0001473,-9.521417,-1.2298183
1409346524382,-0.9744401,-6.5164185,2.777274,2.0818727,-9.4940195,-1.3037606
1409346524384,-2.1481974,-6.0447607,1.2216414,2.1582813,-9.467722,-1.3691149
1409346524409,-2.5139117,-5.5485625,-0.025737667,2.2454228,-9.440747,-1.4144903
1409346524409,-2.2852654,-5.494693,-0.044292733,2.3437276,-9.412689,-1.4417502
1409346524412,-2.0338743,-5.3779755,2.0141222,2.4376788,-9.384622,-1.4686676
1409346524443,-1.7543513,-4.908712,3.8762126,2.5142717,-9.358211,-1.5075626
1409346524444,-1.8417397,-4.284424,4.3718123,2.569523,-9.333512,-1.566356
1409346524445,-2.4744074,-3.755904,3.8899791,2.6086438,-9.312289,-1.6268483
1409346524452,-3.4075475,-3.5290532,3.6822822,2.6362922,-9.294082,-1.6853409
1409346524475,-5.668871,-4.033033,3.8833952,2.6652405,-9.280569,-1.7140392
1409346524476,-6.578069,-3.9959226,3.2279825,2.683328,-9.278002,-1.69966
1409346524486,-7.9673047,-4.8961425,2.0033484,2.6936123,-9.283038,-1.6553081
1409346524504,-8.372523,-5.8586116,-0.86131406,2.6739433,-9.301225,-1.5835514
1409346524522,-6.605004,-7.0048356,-5.5060654,2.6345143,-9.323768,-1.5156106
1409346524523,-2.7629087,-8.508394,-7.4112515,2.5743783,-9.350622,-1.4521856
1409346524524,3.5128925,-10.364499,-11.138425,2.4978669,-9.382214,-1.3802558
1409346524532,14.249091,-13.491925,-8.076839,2.4178114,-9.404998,-1.3676977
1409346524557,19.346945,-18.002003,-3.0723593,2.444934,-9.398538,-1.3638868
1409346524557,17.96609,-19.608511,-4.472967,2.293078,-9.443947,-1.3130423
1409346524564,10.922947,-19.564219,-7.307702,2.177917,-9.475883,-1.2785634
1409346524589,5.861604,-16.367361,-6.570288,2.162486,-9.494282,-1.1630291
1409346524589,2.2415714,-11.349713,-1.1109096,3.020614,-9.142863,-1.8585858
1409346524592,6.5325794,-9.642049,-6.803723,2.9583387,-9.189434,-1.7242188
1409346524637,5.977723,-9.2907,-9.629479,3.1856263,-9.029971,-2.1170278
1409346524638,3.6727054,-8.578424,-4.3766007,3.3033788,-8.831795,-2.6939685
1409346524639,1.2868834,-7.1754227,1.9363106,3.313994,-8.784486,-2.8320775
1409346524640,-1.2437878,-9.01776,5.251083,3.2407765,-8.894033,-2.5620255
1409346524669,-4.5842977,-15.86398,5.1780596,2.9089425,-9.146323,-2.0132713
1409346524670,-5.659893,-19.552847,3.582923,2.1642196,-9.469383,-1.3480829
1409346524671,-4.1252093,-19.558233,2.1158757,1.3626088,-9.670679,-0.8897684
1409346524694,-1.1749545,-18.015171,1.2084733,0.818959,-9.7508545,-0.64850265
1409346524695,1.8291701,-14.885949,-1.1121067,0.58988416,-9.7760935,-0.50041825
1409346524696,-0.6913257,-13.186066,0.6793547,0.6298815,-9.775601,-0.4596063
1409346524719,-3.7660792,-12.367249,2.2379801,-0.056170363,-9.806373,-0.04823387
1409346524719,-3.8385038,-10.770915,0.7978677,-0.056170363,-9.806373,-0.04823387
1409346524733,-3.095703,-7.7470384,-0.6015432,-0.056170363,-9.806373,-0.04823387
1409346524734,-3.3441012,-6.5427547,0.44771573,-0.29905018,-9.801334,-0.12178965
1409346524748,-3.3446999,-6.218939,1.2826935,-0.58554465,-9.788854,-0.07655338
1409346524752,-2.8431146,-5.385158,1.34195,-0.85464686,-9.769178,0.05595438
1409346524769,-1.7914615,-5.2887917,0.6536171,-1.0752522,-9.746016,0.17152964
1409346524782,-1.4059949,-6.0728927,0.05686229,-1.2097664,-9.729292,0.21846646
1409346524786,-2.0219033,-7.442376,0.0035913025,-1.2918625,-9.718926,0.20963356
1409346524806,-2.4013844,-8.774749,0.109534726,-1.400901,-9.704186,0.1914244
1409346524807,-2.0727801,-9.794081,0.4878186,-1.5230262,-9.685905,0.1844567
1409346524813,-1.5556326,-10.716447,1.1971009,-1.5904561,-9.674456,0.21393529
1409346524840,-1.0372878,-11.651981,1.7040731,-1.6000988,-9.670123,0.3143203
1409346524841,-0.107739076,-12.562975,1.3575124,-1.5439166,-9.673856,0.45080012
1409346524846,0.7990648,-12.982558,0.41838676,-1.3886867,-9.693201,0.5327337
1409346524853,1.3970166,-12.4947405,-0.664391,-1.157887,-9.724888,0.5062066
1409346524872,1.7076644,-11.153389,-1.1127052,-0.89360994,-9.758941,0.36731583
1409346524873,2.0883424,-9.530719,-0.7769185,-0.6360244,-9.784203,0.18767473
1409346524884,2.695871,-8.690353,0.6488287,-0.38574544,-9.798809,0.07039085
1409346524909,2.3415294,-9.09258,2.1733365,-0.099214114,-9.805882,0.072339885
1409346524910,1.555034,-9.508572,3.2872388,0.13280804,-9.803015,0.23165432
1409346524913,-0.074818805,-9.658808,8.992023,0.27852088,-9.789421,0.5099324
1409346524944,0.18734628,-8.1642275,17.161638,0.26839814,-9.711829,1.3336992
1409346524945,3.277662,-6.7923503,7.5812397,0.2975459,-9.37983,2.846163
1409346524946,3.256713,-7.845799,2.5540147,0.5765965,-9.175451,3.413064
1409346524953,3.667917,-9.433155,3.8983588,0.7965175,-9.149771,3.437682
1409346524972,3.0825348,-10.190321,4.394557,1.0432193,-9.091246,3.5258105
1409346524973,2.1374235,-10.26095,3.292626,1.1999993,-9.052769,3.5746017
1409346524985,1.4425066,-10.149021,2.333748,1.2924157,-9.064405,3.5123496
1409346525002,0.84216046,-10.455479,1.7788919,1.3285306,-9.102477,3.3985703
1409346525020,0.6871359,-10.694301,1.4664485,1.2898455,-9.161109,3.2528086
1409346525020,0.8295909,-10.891224,1.3533225,1.2222922,-9.22527,3.093668
1409346525042,1.3102269,-10.821792,1.2779051,1.167,-9.282858,2.938885
1409346525042,1.638831,-10.722432,1.1791444,1.1605407,-9.329698,2.7893152
1409346525048,1.6394296,-11.148601,1.0462662,1.1946306,-9.363796,2.6575472
1409346525054,1.4879963,-12.003929,1.0785879,1.2264649,-9.3965845,2.5239644
1409346525069,1.371279,-12.604275,1.3090298,1.2408725,-9.430421,2.3870075
1409346525091,1.5334862,-12.722189,1.8818425,1.2355238,-9.45924,2.2730258
1409346525091,1.7471687,-12.850878,3.6978445,1.2332082,-9.473495,2.2141511
1409346525093,1.6095021,-13.551182,6.257246,1.2347391,-9.450939,2.3077168
1409346525122,2.9508536,-14.741698,1.9716251,1.2058965,-9.383088,2.583381
1409346525123,4.811747,-15.2809925,-6.7893577,1.2830341,-9.401359,2.4776328
1409346525125,4.177882,-14.450204,-17.026365,1.5194972,-9.53067,1.740067
1409346525133,2.079364,-12.151173,-19.608511,1.4600328,-9.4484215,2.1831264
1409346525156,3.3381157,-11.182119,-16.357185,1.3002684,-9.3653755,2.601818
1409346525157,4.64535,-13.043611,-5.841852,1.961765,-9.300333,-2.4136417
1409346525165,4.671686,-14.909891,0.9588778,2.100724,-9.162835,-2.7928112
1409346525191,4.2275615,-15.445594,4.168904,2.1395543,-9.221328,-2.5612137
1409346525192,3.8307228,-15.017032,5.187038,2.138959,-9.3500185,-2.0426497
1409346525193,3.8145618,-14.182054,5.7466826,2.1677113,-9.460169,-1.4059306
1409346525221,5.117606,-12.732365,4.4837413,2.1930103,-9.524801,-0.7995488
1409346525222,7.507618,-10.550649,1.151611,2.3292298,-9.518971,-0.36645958
1409346525226,8.331821,-9.078813,-1.42455,2.661047,-9.435115,-0.26047173
1409346525233,7.687183,-9.121908,-3.8762126,3.0742924,-9.305365,-0.35962942
1409346525258,5.8813562,-10.1382475,-3.9791632,3.4380903,-9.161675,-0.64313483
1409346525259,4.5657425,-10.47164,-2.6408045,3.6388984,-9.059011,-0.9290368
1409346525267,3.9378633,-11.051635,-0.7918822,3.7012491,-9.019046,-1.0620512
1409346525287,3.34051,-12.29662,1.0755951,3.7074773,-9.015502,-1.0703852
1409346525288,2.7742813,-12.192472,2.5246856,3.6205146,-9.068969,-0.90336865
1409346525293,2.3331497,-11.971607,3.608062,3.49956,-9.137575,-0.65435123
1409346525320,1.6903064,-13.218388,4.0456023,3.3654828,-9.204189,-0.35611236
1409346525320,0.92775315,-15.804126,4.7070007,3.1760287,-9.277984,-0.047338676
1409346525327,0.47046062,-18.723255,4.8985367,2.9091847,-9.361216,0.27329117
1409346525333,-1.371279,-19.608511,3.8420951,2.5934222,-9.441534,0.54949445
1409346525358,-3.5571852,-19.608511,1.9800048,2.1895506,-9.532071,0.7182567
1409346525359,-4.8883615,-19.608511,2.235586,1.6955367,-9.63025,0.7442142
1409346525365,-5.222951,-18.72206,4.675277,1.1691376,-9.70574,0.77595925
1409346525393,-4.540005,-15.086464,5.934029,0.68761784,-9.738253,0.929521
1409346525394,-4.2700586,-12.801797,6.0447607,0.31649435,-9.733617,1.1519176
1409346525395,-3.8055837,-10.936115,5.3115363,-5.265081E-4,-9.703784,1.4166762
1409346525422,-2.6491842,-9.35235,4.156933,-0.26811773,-9.658162,1.6788043
1409346525423,-1.5101427,-8.109161,3.0759506,-0.43573478,-9.620195,1.852669
1409346525426,-0.74399817,-7.5920134,3.767875,-0.5237978,-9.591146,1.9763469
1409346525434,-0.93134445,-7.8505874,4.1371803,-0.5445916,-9.557395,2.1283822
1409346525471,-0.85891986,-7.2460513,4.4364557,-0.56370866,-9.519576,2.2869837
1409346525472,-0.66379243,-6.385336,5.16968,-0.57736546,-9.470249,2.4802048
1409346525473,-0.52732295,-5.3743844,5.6425347,-0.59452856,-9.39261,2.7560534
1409346525474,-0.39683893,-4.531027,6.0387754,-0.61624473,-9.28666,3.0900786
1409346525486,-0.7799112,-4.472967,4.143166,-0.62428993,-9.154871,3.4596248
1409346525494,-1.4137762,-4.5783124,3.196858,-0.6691904,-9.06657,3.6769388
1409346525527,-1.8531121,-4.9039235,2.5061307,-0.7732102,-9.006047,3.803112
1409346525528,-1.8393455,-4.8518496,2.5013423,-0.91948247,-8.972885,3.8486722
1409346525529,-1.584363,-4.38498,2.72939,-1.0636215,-8.937152,3.8944094
1409346525534,-1.7561469,-4.103063,2.7168205,-1.1762317,-8.883842,3.9829898
1409346525560,-2.071583,-3.9935284,2.4666264,-1.3038217,-8.821632,4.080348
1409346525560,-2.8054059,-4.124611,2.991555,-1.4625238,-8.761011,4.156453
1409346525571,-3.8594532,-4.2054152,3.7618895,-1.7002839,-8.666954,4.261846
1409346525606,-4.799776,-4.276643,3.6888664,-2.0586507,-8.505308,4.4262934
1409346525609,-5.747281,-4.606444,3.3327289,-2.5030131,-8.319575,4.548625
1409346525610,-6.6367273,-5.5461683,2.2080526,-3.0168235,-8.125993,4.586656
1409346525611,-6.9306154,-7.304111,-0.47764325,-3.5706751,-7.985408,4.4332747
1409346525615,-4.8219223,-10.118495,-6.6708446,-4.0733676,-8.009226,3.9281535
1409346525657,4.5962687,-14.75367,-17.57344,-4.267402,-8.400269,2.7194052
1409346525658,13.912107,-19.51394,-12.033856,-4.273885,-8.304617,2.9895892
1409346525658,15.9262295,-19.608511,-4.8003745,-4.2854447,-8.184773,3.2885933
1409346525659,14.772823,-19.608511,-8.406042,-4.2836156,-8.06851,3.5665333
1409346525665,11.479599,-17.155653,-9.507974,-4.270014,-7.9913497,3.75176
1409346525683,2.4732103,-10.9834,-1.1408371,-4.3251557,-7.935426,3.806896
1409346525722,1.4287399,-8.540716,0.40462008,2.5640385,-9.232641,-2.0867236
1409346525723,5.715558,-7.1820064,-5.7598505,2.4994373,-9.283137,-1.9356016
1409346525724,1.9967642,-7.088034,0.6739678,2.7240012,-9.146769,-2.2554016
1409346525727,-0.008379706,-7.247847,3.781043,2.699035,-9.204505,-2.040266
1409346525730,-1.9883845,-9.095572,5.019444,2.5605896,-9.333267,-1.5823677
1409346525734,-4.502895,-14.10963,4.8069587,2.179747,-9.502605,-1.0581319
1409346525759,-5.7347116,-17.51179,2.7994204,1.4826952,-9.67848,-0.5468603
1409346525760,-5.5940523,-18.2917,0.093972415,0.7458494,-9.774409,-0.27392274
1409346525766,-5.122993,-19.351135,-2.8820202,0.13771789,-9.802477,-0.25071806
1409346525797,-3.539827,-19.407398,-4.4035354,-0.33160073,-9.791819,-0.425114
1409346525798,-0.45489833,-15.856199,0.23762453,-0.5850731,-9.766459,-0.666597
1409346525799,0.7326257,-13.254301,0.16519992,-0.57359535,-9.779326,-0.45404053
1409346525822,1.1007342,-9.643845,0.44113165,-0.4593942,-9.792856,-0.24352427
1409346525822,0.2148796,-7.4950485,1.168969,-0.31602615,-9.799785,-0.18637599
1409346525826,-0.7553706,-6.794146,1.5077485,-0.25217342,-9.800665,-0.23190059
1409346525834,-1.1923125,-5.969942,1.4137762,-0.27788332,-9.800058,-0.22809272
1409346525852,-1.0869676,-5.0080714,1.0289081,-0.3546084,-9.799021,-0.15440662
1409346525854,-0.7332243,-4.459201,0.46148238,-0.43958956,-9.79657,-0.06615522
1409346525867,-0.33279404,-4.43885,0.040102877,-0.4957708,-9.79409,-0.020479025
1409346525881,-0.5662287,-5.2157683,0.19393034,-0.514411,-9.793145,-0.007071336
1409346525902,-1.1456255,-6.293758,0.107140526,-0.55105954,-9.791131,0.021622583
1409346525903,-0.9959879,-7.466318,0.020350715,-0.64248604,-9.785508,0.03790367
1409346525906,-0.24361002,-8.919599,0.7038953,-0.71158135,-9.7806835,0.04738045
1409346525914,1.1450269,-10.201694,1.2144588,-0.68928033,-9.781487,0.13341977
1409346525944,1.8800468,-11.596914,0.79726917,-0.50174785,-9.790235,0.264535
1409346525946,2.5252843,-11.903971,0.5057751,-0.24277255,-9.79817,0.32760364
1409346525947,3.0998926,-12.1044855,0.7278373,0.048811816,-9.800706,0.33792827
1409346525971,3.2010477,-11.804013,1.4993688,0.3601735,-9.793334,0.3623063
1409346525972,2.7527335,-10.827777,2.4049757,0.64377487,-9.775278,0.44709247
1409346525974,2.0147207,-9.8437605,3.2273839,0.8558974,-9.750309,0.6076884
1409346526007,1.127669,-9.392453,3.8780081,0.98251045,-9.72083,0.84292376
1409346526008,0.19153613,-9.4774475,4.981137,1.0126387,-9.687787,1.1365417
1409346526009,-0.4225766,-9.485229,5.2462945,0.9425702,-9.641898,1.5217506
1409346526014,-0.59615624,-9.387665,4.1862617,0.813079,-9.58812,1.8913559
1409346526037,-0.74639237,-9.59177,4.024653,0.6665736,-9.547296,2.1389728
1409346526038,-0.56323594,-9.572019,3.8947675,0.49609953,-9.507946,2.3501556
1409346526048,0.31184477,-8.941745,3.5164838,0.3466931,-9.469488,2.5256653
1409346526078,1.7711107,-8.534132,4.042011,0.29672334,-9.434103,2.6608334
1409346526080,3.2010477,-8.424597,5.530606,0.40128583,-9.376747,2.843587
1409346526081,3.2513258,-8.931569,4.3526587,0.6440993,-9.265314,3.1479318
1409346526108,2.4887726,-9.576807,2.4331074,0.8844331,-9.190909,3.3038363
1409346526108,1.9626468,-9.414599,1.5233108,1.0293201,-9.194915,3.2502997
1409346526109,1.0019734,-9.252991,1.453879,1.1330163,-9.219555,3.1442757
1409346526114,0.8511387,-8.983644,1.0522517,1.1183081,-9.257303,3.0367944
1409346526129,0.92416185,-9.087791,0.33638534,1.0887126,-9.308662,2.886849
1409346526144,0.35254622,-9.785102,0.14065935,1.0721853,-9.37631,2.6656337
1409346526145,-0.18674773,-10.766725,0.58657944,1.0003213,-9.451302,2.4171536
1409346526161,0.050876785,-11.492168,1.134253,0.87622917,-9.514085,2.2101605
1409346526180,0.9756372,-12.170924,1.0564415,0.7815265,-9.553277,2.0723164
1409346526180,1.6334441,-13.114839,0.99778354,0.76715726,-9.584495,1.928547
1409346526196,2.0805612,-13.979744,1.316811,0.8067156,-9.607738,1.7919164
1409346526196,2.5881321,-13.970765,0.74998367,0.87754536,-9.617895,1.7018847
1409346526210,2.8287494,-13.495517,0.16400282,0.99311966,-9.626336,1.5867411
1409346526214,2.9819782,-13.299191,0.8888474,1.127261,-9.631632,1.4599094
1409346526229,3.4398694,-14.587273,3.3871968,1.2684867,-9.619952,1.4205132
1409346526246,4.8662148,-16.713324,-2.5187001,1.4213802,-9.571734,1.591215
1409346526247,7.4866686,-16.173431,-16.253637,1.6215719,-9.590857,1.2475442
1409346526262,8.536526,-12.631209,-19.53908,1.637662,-9.528782,1.6403488
1409346526266,6.8881183,-11.932103,-11.128249,1.597544,-9.4578285,2.0415013
1409346526279,4.2957964,-13.651139,-0.7146692,2.6276557,-9.196239,-2.1667929
1409346526295,2.8401217,-14.139557,4.135385,2.7007802,-9.164374,-2.2114382
1409346526296,3.8594532,-13.354857,5.2582655,2.6095443,-9.26969,-1.8529829
1409346526310,5.627571,-12.8532715,5.559336,2.5972233,-9.362012,-1.3332523
1409346526314,7.611766,-12.062587,1.1013328,2.7416968,-9.381778,-0.7973165
1409346526329,6.889914,-11.778873,-6.223727,3.0153143,-9.312626,-0.5943769
1409346526346,4.796783,-10.924743,-5.393538,3.2235231,-9.211687,-0.96132165
1409346526347,3.4123359,-11.153987,-0.32441434,3.318209,-9.135245,-1.3065894
1409346526361,3.5703533,-10.729615,3.9636009,3.3331378,-9.129699,-1.3073452
1409346526366,3.1094694,-10.199898,4.378995,3.3523784,-9.165172,-0.9651982
1409346526379,2.1362264,-10.562619,3.5996823,3.3332596,-9.204871,-0.574554
1409346526394,1.3664906,-11.266515,3.2028434,3.2364075,-9.253914,-0.24726386
1409346526394,0.6841431,-12.542624,3.2064347,3.0697777,-9.313799,-0.0013730419
1409346526412,-0.7823054,-19.198505,5.1475334,2.8393133,-9.383532,0.24090339
1409346526414,-2.4881742,-19.608511,3.6224272,2.4126725,-9.4895115,0.54641455
1409346526427,-3.954024,-19.608511,2.665345,1.9389193,-9.587831,0.6960384
1409346526453,-4.2838254,-19.323004,4.895544,1.4424905,-9.668861,0.77633774
1409346526454,-4.300585,-16.593016,6.4828997,0.9919264,-9.705352,0.9962945
1409346526456,-3.515885,-13.368025,6.567295,0.59509736,-9.706241,1.2669421
1409346526502,-2.1853075,-10.6877165,6.439804,0.28607115,-9.680341,1.5425764
1409346526503,-0.8499416,-9.301474,5.6886234,0.107175596,-9.63914,1.8016375
1409346526504,0.43155485,-8.309675,4.4514194,0.0019938042,-9.586717,2.065247
1409346526505,0.8846575,-7.5650787,4.198831,0.008290274,-9.540267,2.2701595
1409346526507,1.0480618,-7.1951747,4.59986,0.07211597,-9.4921255,2.4626691
1409346526523,0.6434417,-7.9074497,5.005079,0.16506752,-9.4356,2.6669407
1409346526562,0.37828386,-8.210915,5.6880245,0.22962213,-9.377425,2.8603446
1409346526563,1.1827357,-7.423821,6.952163,0.2587994,-9.304747,3.0862737
1409346526563,1.54845,-6.0226145,5.663484,0.33670902,-9.185921,3.4169967
1409346526564,-0.31663316,-5.2157683,2.6198552,0.4297668,-9.0777,3.6852489
1409346526566,-2.058415,-5.6898203,-1.5424645,0.35901305,-9.055249,3.7475274
1409346526580,-2.9502552,-6.181829,-2.0817583,0.14729938,-9.175842,3.4572554
1409346526597,-2.4678235,-5.221155,0.010773907,-0.1402553,-9.30955,3.0794477
1409346526597,-1.8285716,-4.281431,0.94570965,-0.38653636,-9.357525,2.908213
1409346526609,-1.5370775,-3.8145618,1.7561469,-0.5613571,-9.364543,2.8566794
1409346526614,-1.2000936,-3.265691,2.8933928,-0.6881275,-9.336788,2.9191236
1409346526629,-1.5837644,-2.8700492,4.0737343,-0.77862513,-9.263176,3.123732
1409346526642,-2.866458,-3.086126,4.683657,-0.9339664,-9.121644,3.4776013
1409346526648,-3.9378633,-3.34051,4.4580035,-1.2420956,-8.918336,3.8846972
1409346526663,-5.0242324,-3.639785,4.349067,-1.6735414,-8.690033,4.22528
1409346526677,-6.069301,-3.9995139,2.944868,-2.2247176,-8.429769,4.489993
1409346526678,-6.3464303,-4.5860934,-0.11791443,-2.887225,-8.210695,4.518718
1409346526705,-5.1882353,-5.713164,-3.027468,-3.5640516,-8.143371,4.141672
1409346526706,-2.484583,-6.618172,-2.4079683,-4.026094,-8.280525,3.375481
1409346526708,3.4973302,-7.289147,-0.85772276,-4.054422,-8.49798,2.741601
1409346526714,7.2861543,-10.742185,-5.145738,-3.2354336,-8.9386635,2.4088678
1409346526730,7.5866265,-16.135723,-11.963826,-1.820637,-9.536406,1.3829806
1409346526745,9.742006,-18.731636,-9.0237465,-0.49704352,-9.784572,-0.43069458
1409346526746,11.448474,-19.379866,-4.9518075,-0.5462668,-9.788556,-0.23700331
1409346526760,10.073005,-19.608511,-3.6074634,-0.5559863,-9.790852,-0.022740107
1409346526778,7.9511437,-18.672379,-3.2369606,-0.5140655,-9.791204,0.19606015
1409346526778,10.620679,-14.805743,-9.11293,2.64974,-9.343276,-1.3610438
1409346526794,9.3182335,-11.770494,-12.491747,3.1031795,-9.120788,-1.8308097
1409346526794,6.5457473,-9.954493,-10.073604,3.4120173,-8.847359,-2.5005584
1409346526816,3.2357635,-9.81503,-3.328539,3.5485504,-8.633182,-3.007714
1409346526817,0.56443304,-11.227011,4.146757,3.4728034,-8.6338825,-3.0929122
1409346526828,-2.03567,-14.683041,6.7444663,3.1982079,-8.88425,-2.6480088
1409346526847,-3.2154129,-16.980276,5.6281695,2.6848254,-9.228793,-1.9471695
1409346526847,-2.8808231,-19.218258,4.8189297,2.1108751,-9.487174,-1.3069608
1409346526866,-1.8291701,-19.542671,4.313154,1.5734583,-9.643952,-0.8299514
1409346526867,-0.8343793,-17.626112,2.6701334,1.2008218,-9.722008,-0.45933616
1409346526875,-0.6769605,-13.483545,0.3250129,0.9822122,-9.755277,-0.20043431
1409346526899,-5.7263317,-10.203489,-0.35314476,0.851899,-9.769347,-0.06701266
1409346526900,-6.9342065,-7.179612,-2.1045034,0.41816127,-9.797695,-0.026743557
1409346526907,-7.00723,-5.473145,0.62967503,-0.082249686,-9.804532,-0.18656845
1409346526936,-5.8604074,-5.451597,2.461838,-0.61990994,-9.786339,-0.116928674
1409346526937,-3.426701,-4.6830587,1.6250644,-1.0832344,-9.745999,0.111740455
1409346526937,-1.9776106,-4.5459905,0.3465607,-1.3470068,-9.710016,0.26754156
1409346526977,-1.5029601,-4.9661727,-0.3250129,-1.5033069,-9.687317,0.25760958
1409346526977,-1.602918,-5.7921724,-0.011971008,-1.6103402,-9.672214,0.15953457
1409346526978,-1.7537527,-7.0545154,0.12868834,-1.6920906,-9.659019,0.10294031
1409346526979,-1.6795325,-8.887876,-0.16519992,-1.7574118,-9.647586,0.07733749
1409346527004,-1.0271125,-10.717644,3.304597,-1.7802258,-9.643648,0.03580245
1409346527005,-0.14425065,-11.434109,4.4484267,-1.7015905,-9.650623,0.37475866
1409346527008,0.42317516,-12.116456,3.2968156,-1.5375342,-9.655157,0.76441926
1409346527015,1.0929531,-13.037625,1.7956513,-1.3231698,-9.666575,0.9884034
1409346527028,1.8076223,-13.61762,0.5482722,-1.053975,-9.693113,1.0502762
1409346527043,2.393603,-13.372813,0.004189853,-0.7494018,-9.728286,0.9845122
1409346527046,3.1872811,-12.676101,0.40402153,-0.4402708,-9.757984,0.87082195
1409346527058,3.6750996,-11.52449,2.4061728,-0.105488084,-9.773166,0.80282986
1409346527077,3.5649664,-9.995792,4.4681787,0.23301965,-9.760697,0.91915935
1409346527077,3.4512417,-8.592192,4.5238442,0.5336656,-9.716095,1.2178254
1409346527096,3.288436,-7.413047,3.7295678,0.80496293,-9.655004,1.5176731
1409346527097,2.9029696,-7.012018,2.9293058,1.04824,-9.590737,1.7576472
1409346527109,3.17531,-7.153875,3.13401,1.2347955,-9.534584,1.9332293
1409346527125,3.4614172,-7.2951326,3.4410665,1.4267298,-9.468693,2.1162899
1409346527129,3.6008794,-7.4405804,2.1571758,1.6271652,-9.391272,2.3079748
1409346527143,3.3063924,-8.9040365,2.297835,1.8368676,-9.340271,2.357043
1409346527148,3.116652,-9.918579,3.900753,1.978042,-9.307019,2.3742683
1409346527162,3.3506854,-9.629479,3.063381,2.0704868,-9.248563,2.5194366
1409346527176,2.6862943,-9.268554,1.5927427,2.1809535,-9.208417,2.572718
1409346527177,1.9153614,-9.465476,1.0109516,2.2321448,-9.214673,2.505533
1409346527190,1.2623428,-10.176555,0.9600749,2.2069132,-9.248455,2.4012473
1409346527195,0.99658644,-10.072407,0.8900445,2.1070828,-9.299239,2.2923245
1409346527217,1.4802152,-8.996213,0.8391677,1.9917634,-9.349745,2.1875863
1409346527218,2.0260932,-8.136096,0.9307459,1.94712,-9.377998,2.1052961
1409346527227,2.1972785,-7.993641,0.88405895,1.9753777,-9.385819,2.043205
1409346527252,2.2667105,-8.37013,0.9415198,2.0245855,-9.387446,1.9867755
1409346527253,2.48159,-9.170391,1.1198878,2.079128,-9.387029,1.9316639
1409346527255,2.7138276,-10.724228,1.3096284,2.136754,-9.3838825,1.8834605
1409346527283,2.8293478,-12.253524,1.6005238,2.176035,-9.385976,1.8272198
1409346527284,2.5492263,-13.071144,2.0614076,2.1874309,-9.392514,1.7793822
1409346527287,1.7788919,-13.297995,1.941099,2.1519985,-9.403441,1.7648203
1409346527296,2.079364,-13.32912,1.2988545,2.0429296,-9.430532,1.7498207
1409346527321,3.0172927,-13.669096,-0.12569559,1.9717189,-9.459674,1.6725036
1409346527322,3.1280246,-14.803947,-2.7611132,1.9685961,-9.489203,1.5000215
1409346527328,2.920926,-15.548544,-6.069301,1.9673414,-9.540137,1.1339041
1409346527352,2.947861,-15.557523,-8.672397,1.9671632,-9.591494,0.5513038
1409346527352,3.7469256,-15.10861,-11.254543,1.9768978,-9.603639,-0.1799965
1409346527355,4.1802764,-15.000871,-11.513716,2.0296538,-9.5366125,-1.0506629
1409346527384,3.0747535,-15.248671,-1.3215994,2.0786338,-9.403695,-1.8493853
1409346527384,4.1611223,-14.707581,1.1240777,2.054781,-9.421436,-1.7846079
1409346527387,5.461174,-13.804967,2.0805612,2.1305153,-9.43677,-1.6058202
1409346527436,6.413468,-13.01129,0.1412579,2.2920215,-9.43702,-1.3636954
1409346527438,5.946,-12.106281,-4.6686935,2.5066476,-9.397688,-1.2532377
1409346527439,4.787206,-11.295245,-4.3341036,2.6844842,-9.31555,-1.4779847
1409346527440,4.337096,-10.685921,-0.4201824,2.804594,-9.24702,-1.6725072
1409346527441,4.027047,-10.788872,1.5328877,2.919303,-9.220967,-1.6191946
1409346527475,3.968988,-11.007941,2.4534583,2.9970264,-9.225361,-1.4425358
1409346527476,3.4404678,-9.61691,4.072537,3.0451841,-9.247718,-1.1734347
1409346527477,2.6886885,-9.0429,4.425682,3.0959022,-9.273376,-0.7682862
1409346527477,2.168548,-10.222044,4.302979,3.0985668,-9.297615,-0.35163143
1409346527504,1.738789,-12.402563,4.3209357,3.037046,-9.324521,0.0075847562
1409346527504,1.0408791,-15.592238,4.787805,2.9082654,-9.360265,0.31276333
1409346527507,-0.033518825,-19.106926,5.1541176,2.6796372,-9.41385,0.6077607
1409346527530,-1.9620483,-19.608511,4.584896,2.3464906,-9.481242,0.8777321
1409346527531,-4.073136,-19.608511,5.2840033,1.9255966,-9.556608,1.0647587
1409346527535,-4.8201265,-19.463064,6.3368535,1.428564,-9.616409,1.2861735
1409346527570,-3.870227,-15.77719,5.465364,0.9427526,-9.642182,1.519854
1409346527571,-2.022502,-12.021885,5.218761,0.5672966,-9.648854,1.6577604
1409346527571,-0.641646,-10.089166,4.7506948,0.33085606,-9.631125,1.8172388
1409346527576,-0.35314476,-8.798093,3.9665937,0.21210021,-9.5978155,2.0018282
1409346527600,-0.830788,-8.512584,3.5194764,0.16031814,-9.563876,2.1626298
1409346527601,-1.3736732,-8.747814,3.2902317,0.108426765,-9.535534,2.2874088
1409346527619,-1.9333179,-8.616732,3.8564603,0.01274287,-9.516268,2.3687296
1409346527637,-1.9231426,-7.6788034,4.6698904,-0.119900785,-9.483754,2.4928796
1409346527638,-0.9475053,-5.715558,5.070919,-0.26486412,-9.42526,2.6953158
1409346527638,0.4201824,-4.1515455,5.2606597,-0.3406514,-9.342166,2.962821
1409346527678,0.87927055,-4.4520183,4.282628,-0.30505425,-9.240906,3.2684886
1409346527679,-0.94092125,-4.955399,1.8698715,-0.22125572,-9.163931,3.4847963
1409346527679,-1.9075803,-5.1367598,1.003769,-0.29827166,-9.153262,3.5070252
1409346527680,-2.1481974,-5.021838,0.85772276,-0.46223965,-9.173521,3.435585
1409346527694,-2.15538,-4.924873,0.87448215,-0.6496536,-9.18711,3.3682888
1409346527695,-2.1206641,-4.8135424,1.1803415,-0.8282103,-9.202179,3.2870002
1409346527731,-2.1859062,-4.474763,1.9261353,-1.0106665,-9.204129,3.2300096
1409346527744,-2.520496,-4.123414,2.5384524,-1.2091055,-9.170319,3.257869
1409346527746,-3.008913,-4.0701427,2.8072014,-1.4488567,-9.097826,3.3616643
1409346527746,-3.5691562,-3.892972,3.6553473,-1.740639,-8.995656,3.4955285
1409346527758,-4.0240545,-3.7523127,4.672883,-2.0885615,-8.824742,3.7325873
1409346527759,-4.701015,-4.1557355,4.537012,-2.4519753,-8.579558,4.0680947
1409346527773,-5.2941785,-5.1900306,2.1027076,-2.8597157,-8.316767,4.338643
1409346527775,-5.2385135,-6.7330937,-3.4446578,-3.3024924,-8.195241,4.2546406
1409346527790,-3.3728316,-8.298902,-4.941034,-3.7557466,-8.376573,3.4493175
1409346527796,2.0494366,-9.513959,-4.048595,-3.8798208,-8.665342,2.4554467
1409346527813,8.931569,-13.595474,-8.677784,-3.2405486,-9.10437,1.6672348
1409346527825,14.011467,-18.641254,-8.04751,-1.6479806,-9.662242,0.3092146
1409346527827,14.416087,-19.608511,-7.5016327,-1.711215,-9.643054,0.5036158
1409346527848,11.426328,-19.17157,-8.117541,-1.7300231,-9.627878,0.6938117
1409346527849,7.3352356,-14.784794,-4.4143095,-1.6958567,-9.620868,0.8563655
1409346527857,9.216479,-12.0805435,-10.807426,2.7797832,-9.243941,-1.7299539
1409346527885,5.807136,-11.593323,-10.404003,3.1760182,-8.989179,-2.2973773
1409346527886,4.219182,-10.086772,-6.275801,3.2281468,-8.821653,-2.8156466
1409346527887,3.6254199,-7.741651,0.19871874,3.2400422,-8.734068,-3.064083
1409346527915,2.367267,-6.5499372,6.3248825,3.2844846,-8.762239,-2.9335518
1409346527916,-1.1911154,-11.139024,8.487445,3.29229,-8.935672,-2.3420057
1409346527916,-4.0438066,-16.385319,6.697779,2.9296672,-9.243262,-1.4661338
1409346527928,-4.3263226,-17.580624,5.0679264,2.2209249,-9.522796,-0.74449646
1409346527948,-3.3201592,-15.711948,4.4047327,1.5551962,-9.67942,-0.24609366
1409346527949,-2.0763714,-14.596849,4.471172,1.0727915,-9.747183,0.10921719
1409346527956,-0.7170634,-15.71554,2.3481133,0.75254333,-9.76785,0.43951324
1409346527979,-0.66139823,-14.602236,-2.566584,0.57892394,-9.770793,0.6056771
1409346527979,-4.07553,-13.069348,-5.8903346,0.460222,-9.788456,0.38039678
1409346527988,-6.9503675,-9.97185,-4.4759603,0.11257979,-9.805992,0.015867213
1409346528014,-6.0699,-6.7905545,-0.31663316,-0.38179553,-9.796707,-0.22173524
1409346528015,-4.2437224,-5.6066217,2.1529858,-0.7972413,-9.771837,-0.21446356
1409346528016,-2.7269957,-5.5647235,2.4271219,-1.1181597,-9.742324,-0.08496392
1409346528058,-1.9500773,-6.0561333,1.7136499,-1.3453716,-9.713829,0.043548804
1409346528059,-2.0572178,-6.779182,1.0139444,-1.4861494,-9.692443,0.13527124
1409346528060,-2.1057005,-8.02716,0.49679685,-1.5986922,-9.673596,0.19000567
1409346528061,-2.047641,-9.425373,-0.39384618,-1.6809515,-9.659337,0.20493513
1409346528094,-1.6729485,-10.400413,-0.81522566,-1.7343401,-9.651164,0.13233346
1409346528099,-1.1420342,-11.48319,0.1604115,-1.7410634,-9.650822,0.027023617
1409346528099,-0.7266402,-12.103288,1.3072342,-1.6890234,-9.660057,0.029493814
1409346528116,0.02813187,-12.553398,1.4197617,-1.5991288,-9.674433,0.13601458
1409346528117,1.276708,-12.919711,0.85054016,-1.4391661,-9.697409,0.24393414
1409346528117,2.6366146,-12.737153,0.41060558,-1.1789579,-9.731155,0.2916761
1409346528127,3.1429882,-11.536461,0.52732295,-0.8245636,-9.767669,0.28834942
1409346528143,3.2094274,-10.201095,0.8810662,-0.46695277,-9.791057,0.29588565
1409346528160,3.015497,-9.725247,1.2042835,-0.122308575,-9.8001795,0.33455753
1409346528160,2.4271219,-10.089166,1.9764135,0.1850649,-9.796577,0.4039899
1409346528175,1.6825253,-10.62008,3.378817,0.41024962,-9.782997,0.54319775
1409346528176,1.4856021,-10.031107,7.5584946,0.53667676,-9.759232,0.7998419
1409346528208,3.3195608,-7.4507556,15.808914,0.6291113,-9.684097,1.4116954
1409346528210,4.936844,-6.7384806,9.057265,0.8885699,-9.38536,2.7010815
1409346528211,4.3879733,-7.5884223,4.502895,1.2451005,-9.152614,3.2938976
1409346528246,4.3143516,-8.033744,3.0801406,1.5168145,-9.034879,3.498662
1409346528247,4.010886,-8.766968,2.8724434,1.7174762,-8.960178,3.5966456
1409346528249,3.4272997,-9.297284,3.1998506,1.8747082,-8.927779,3.5986989
1409346528250,1.9195513,-9.52593,2.741361,1.9806008,-8.91765,3.5669487
1409346528256,0.9983821,-9.536704,1.7034745,1.9623886,-8.951487,3.491461
1409346528278,0.5117606,-9.970055,1.1192893,1.8925011,-9.024112,3.3397985
1409346528278,0.53929394,-10.202292,0.516549,1.7743814,-9.11932,3.1400588
1409346528289,0.6967127,-10.462063,0.19273324,1.656412,-9.2207575,2.8990235
1409346528315,1.0235212,-10.64043,0.2621651,1.5531242,-9.312471,2.6525593
1409346528316,1.3874398,-10.7990465,0.50757074,1.4927344,-9.382196,2.4323924
1409346528316,1.6819267,-10.948086,0.6655881,1.4736724,-9.429395,2.2550387
1409346528351,1.8650831,-11.0378685,0.8822633,1.4865055,-9.460935,2.1098402
1409346528352,2.1775265,-11.44189,1.532289,1.5144337,-9.479809,2.002531
1409346528352,2.5372553,-11.787253,2.3876176,1.5578488,-9.481494,1.9608151
1409346528356,2.8898015,-12.07336,4.408922,1.6126728,-9.465977,1.9912184
1409346528379,3.8313212,-12.612056,5.067328,1.6829575,-9.408087,2.1968102
1409346528380,5.0601454,-13.924079,0.8451532,1.8066239,-9.32967,2.421515
1409346528390,5.5976434,-14.718355,-6.669049,1.9961911,-9.330982,2.2623816
1409346528419,4.5938745,-14.398729,-16.895882,2.2037385,-9.427893,1.5584484
1409346528420,3.958214,-12.807183,-19.608511,2.1277995,-9.351839,2.045957
1409346528421,5.103241,-13.216592,-14.614207,1.9847696,-9.264594,2.5295007
1409346528454,6.8318543,-13.998898,-3.7175968,2.6210756,-9.148811,-2.3663552
1409346528455,6.8587894,-13.788208,1.6843209,2.808278,-9.0674925,-2.4626288
1409346528455,5.0374002,-14.182054,3.8732197,2.9829602,-9.058449,-2.2840426
1409346528456,5.0421886,-13.427281,5.01286,2.9827816,-9.151215,-1.8784845
1409346528473,4.9703627,-13.788208,7.0820484,3.0236237,-9.234518,-1.3235627
1409346528476,6.5020533,-13.867815,4.4903255,3.0662882,-9.292549,-0.6456307
1409346528492,8.016386,-12.283452,-2.5917234,3.2050269,-9.264741,-0.25050503
1409346528508,6.2243257,-11.102511,-6.8731546,3.451208,-9.16977,-0.41818917
1409346528510,5.0900726,-10.177153,-2.337938,3.5821226,-9.089314,-0.850394
1409346528524,5.213374,-10.342353,0.80086046,3.685632,-9.032362,-1.0014807
1409346528541,5.1481323,-11.736976,1.6927006,3.8157547,-8.98702,-0.91863286
1409346528542,4.681263,-12.61445,1.5161282,3.8801262,-8.975389,-0.746597
1409346528556,3.515885,-12.352285,2.0009542,3.869204,-8.992531,-0.5779577
1409346528557,2.315193,-12.652758,2.5725696,3.7822015,-9.038971,-0.402887
1409346528578,1.110311,-14.287997,2.682703,3.610123,-9.115589,-0.2084294
1409346528579,-0.25019407,-17.672201,2.473809,3.3402097,-9.220234,-0.026674656
1409346528589,-1.988983,-19.608511,1.7226281,2.941524,-9.354364,0.11706863
1409346528607,-4.709395,-19.608511,1.8405426,2.4574811,-9.491684,0.1977195
1409346528608,-6.6445084,-19.608511,3.6828809,1.863246,-9.624196,0.27119625
1409346528623,-6.535572,-19.443312,6.845621,1.2176565,-9.72024,0.4523729
1409346528640,-5.6748567,-16.401478,8.216302,0.6517197,-9.752782,0.79302585
1409346528640,-4.622605,-12.546215,8.125322,0.20799948,-9.734406,1.1697953
1409346528663,-3.1783028,-9.859323,7.426215,-0.12834932,-9.680862,1.5603882
1409346528663,-1.6334441,-8.667608,5.0062757,-0.3487173,-9.609731,1.9240173
1409346528668,-0.54527944,-7.993641,3.3051953,-0.44760627,-9.555047,2.1612751
1409346528691,0.40880993,-7.7943234,3.7541082,-0.4619158,-9.52529,2.2860239
1409346528693,0.40581718,-8.101978,4.083311,-0.39264923,-9.493701,2.4260778
1409346528715,0.4950012,-7.8942814,5.2558713,-0.31740138,-9.461991,2.557412
1409346528716,0.3196259,-7.264008,6.575675,-0.24243236,-9.403495,2.7723467
1409346528717,0.31603462,-5.769428,8.038532,-0.20244654,-9.301497,3.1002526
1409346528740,0.23223756,-4.0258503,5.6658783,-0.17352986,-9.136157,3.5596223
1409346528741,-0.015562311,-4.0426097,1.9333179,-0.16142924,-9.010159,3.8679936
1409346528757,-0.8487445,-4.9428296,1.5292963,-0.16180822,-8.998715,3.894524
1409346528758,-1.7465701,-5.295376,1.5747862,-0.25117862,-9.0104685,3.8624814
1409346528772,-2.32058,-5.129577,1.2024878,-0.4079492,-9.020649,3.8251643
1409346528787,-2.570774,-4.9344497,1.4700398,-0.58936924,-9.037993,3.7600167
1409346528788,-2.5659857,-4.5807066,1.7555484,-0.80291617,-9.039771,3.7159472
1409346528807,-2.7670987,-3.9815574,2.1003134,-1.0426768,-9.0231905,3.6966522
1409346528823,-3.0484173,-3.6655228,2.566584,-1.3148656,-8.972984,3.731899
1409346528823,-4.0336313,-3.371036,3.8546648,-1.6256031,-8.884854,3.8193147
1409346528851,-4.63697,-3.2249897,4.9278655,-2.040186,-8.69352,4.053488
1409346528851,-5.4713492,-3.3913867,5.3899465,-2.4926314,-8.404451,4.395722
1409346528852,-5.916671,-4.407127,4.2503066,-2.99361,-8.050002,4.7335157
1409346528857,-5.763442,-5.533599,1.0348936,-3.476374,-7.782238,4.849948
1409346528871,-4.9081135,-7.255628,-4.426879,-3.9245257,-7.740688,4.5662045
1409346528886,-1.4401124,-10.368689,-13.306375,-4.2903614,-8.037679,3.6275227
1409346528889,11.665748,-16.749237,-19.00218,-4.140492,-8.760464,1.5102884
1409346528907,19.182943,-19.608511,-8.340201,-4.189661,-8.691831,1.7519125
1409346528908,18.723854,-19.608511,-5.949591,-4.2458806,-8.609146,2.006358
1409346528926,12.927492,-18.789097,-7.7494326,-4.259547,-8.54651,2.2324455
1409346528943,7.1263413,-12.369044,-3.039439,-4.2156963,-8.51924,2.4126422
1409346528943,10.195708,-10.162787,-9.179968,3.2083619,-9.012202,-2.1580226
1409346528949,6.1369376,-9.810242,-11.688493,3.6871362,-8.731819,-2.516086
1409346528957,3.3423057,-9.541492,-7.728483,3.7391272,-8.507901,-3.1312861
1409346528971,1.9093759,-7.5932107,-0.3345897,3.6243012,-8.428155,-3.464254
1409346529002,-0.45370123,-6.767211,5.0900726,3.5672405,-8.511066,-3.3176732
1409346529003,-3.9234982,-12.20145,7.140108,3.3424356,-8.771806,-2.8379486
1409346529003,-6.327875,-17.267582,6.498462,2.703014,-9.199465,-2.057657
1409346529032,-5.5060654,-16.879122,5.281609,1.8120415,-9.549958,-1.2981446
1409346529032,-2.9317,-13.718776,4.1946416,1.1029464,-9.715219,-0.75395143
1409346529033,-1.2036849,-13.285425,3.4386723,0.70216423,-9.775452,-0.3433421
1409346529037,-0.80325466,-13.611036,2.456451,0.49949777,-9.79392,-0.007958046
1409346529061,-2.2212207,-13.719973,0.682946,0.34672043,-9.796336,0.2863675
1409346529062,-3.2429461,-13.312959,-0.6099229,0.13604382,-9.797243,0.40732852
1409346529069,-3.3680432,-10.423756,-0.42317516,-0.103128076,-9.798998,0.3733362
1409346529090,-3.5877113,-8.330027,1.2174516,-0.3398409,-9.795704,0.31480414
1409346529091,-3.8247373,-8.48984,2.689287,-0.61514026,-9.780494,0.3659498
1409346529106,-3.0430303,-8.378509,2.6497827,-0.90508366,-9.7504225,0.52963
1409346529125,-2.2810757,-8.079832,1.3018472,-1.1157627,-9.718071,0.69610566
1409346529127,-2.0099323,-7.6919713,-0.2657564,-1.2503058,-9.697511,0.75193125
1409346529141,-1.5071499,-7.4507556,-1.1420342,-1.364975,-9.687495,0.6779966
1409346529141,-0.9864111,-7.7374616,-1.6340426,-1.4257623,-9.68813,0.5269918
1409346529163,-0.84455466,-8.581417,-1.7190368,-1.427842,-9.696596,0.3281841
1409346529164,-0.7350199,-9.716867,-1.1959038,-1.4021503,-9.705101,0.123970024
1409346529171,-0.40102878,-10.600926,-0.40282443,-1.3540218,-9.712707,-0.01891124
1409346529200,0.092176765,-11.334151,0.207697,-1.2769816,-9.722862,-0.07516897
1409346529200,0.8379706,-12.215217,0.52133745,-1.1484916,-9.739015,-0.054271348
1409346529205,1.8309658,-12.595297,0.6979098,-0.96847767,-9.758684,-0.022804957
1409346529209,2.9712043,-11.859678,1.1677719,-0.7119124,-9.780742,0.026119342
1409346529232,3.776853,-10.830172,2.0027497,-0.3772975,-9.798754,0.11155902
1409346529233,3.74094,-10.510546,2.594716,0.009157413,-9.802995,0.26753864
1409346529237,3.1759086,-10.592546,3.0430303,0.37378845,-9.788181,0.47134092
1409346529258,2.3247697,-10.584765,3.4476504,0.66394717,-9.758415,0.70915496
1409346529258,1.5544355,-10.213066,4.292804,0.8395773,-9.722542,0.9683181
1409346529270,2.0123265,-8.94773,8.699332,0.9070583,-9.681344,1.2724823
1409346529288,4.396353,-7.3071036,9.5385,1.0071694,-9.5562315,1.9581711
1409346529290,4.4208937,-7.257424,4.6686935,1.2911808,-9.346486,2.6732903
1409346529303,3.265691,-8.008006,1.1210849,1.5497296,-9.224905,2.9444633
1409346529327,2.8179753,-9.056666,1.1707647,1.6970516,-9.213962,2.8971229
1409346529327,2.0093338,-9.7563715,1.3802572,1.7906505,-9.2256155,2.8021412
1409346529328,1.4670471,-9.628283,1.0779893,1.8066847,-9.257368,2.6846611
1409346529337,1.1857284,-9.515156,0.85532856,1.7839419,-9.301979,2.541878
1409346529365,1.1486182,-9.598953,0.6404489,1.7343343,-9.348978,2.3998098
1409346529366,1.3359646,-9.577405,0.58418524,1.6830826,-9.396596,2.2453575
1409346529369,1.5292963,-9.444528,0.87208796,1.6471062,-9.435925,2.1025662
1409346529392,1.46585,-9.399037,1.2443863,1.6325758,-9.459323,2.006564
1409346529393,1.3084313,-9.290101,1.4580688,1.6178578,-9.472096,1.9576373
1409346529397,1.3491327,-9.246407,1.4688427,1.5968417,-9.479153,1.9406648
1409346529419,1.5466543,-9.524733,1.5053543,1.583366,-9.483164,1.9320801
1409346529419,1.8980033,-10.128671,1.5029601,1.5783491,-9.48646,1.9199703
1409346529441,2.332551,-10.8229885,1.4526819,1.5974063,-9.486324,1.904824
1409346529441,2.6605566,-11.632828,1.4281414,1.6431231,-9.485199,1.8712432
1409346529466,2.6928782,-12.489353,1.3150153,1.7018715,-9.485209,1.8179181
1409346529467,2.6090813,-12.746131,0.6997054,1.7442317,-9.490527,1.7486931
1409346529471,2.6378117,-12.762891,0.08559271,1.7748646,-9.5051775,1.6345743
1409346529493,2.7880478,-13.764864,-1.328782,1.8043525,-9.523328,1.4902722
1409346529494,3.4877534,-15.183429,-4.980538,1.8260394,-9.555885,1.2332845
1409346529497,4.795586,-15.266028,-8.513183,1.8879286,-9.597327,0.7052821
1409346529525,5.6257753,-13.968969,-9.837775,2.0415418,-9.591764,-0.023508301
1409346529526,6.090849,-12.852075,-9.38168,2.251669,-9.513179,-0.7744804
1409346529531,4.710592,-13.526043,-6.7306995,2.4846532,-9.375193,-1.4500433
1409346529537,3.1920695,-14.487913,-2.4396915,2.573528,-9.274524,-1.8789848
1409346529569,3.632004,-14.56752,-0.10354923,2.5262172,-9.276102,-1.9345652
1409346529570,4.4765587,-14.222755,0.14844051,2.499301,-9.313278,-1.7851498
1409346529571,5.989694,-13.772645,-0.88046765,2.5361512,-9.335078,-1.6107928
1409346529603,6.155493,-11.692682,-3.34051,2.6840467,-9.310243,-1.5118542
1409346529604,5.276222,-10.3770685,-2.9747956,2.8763576,-9.2331705,-1.6265081
1409346529605,5.043386,-9.837775,0.9935937,3.0456862,-9.157446,-1.7422371
1409346529644,5.325303,-9.780912,2.517503,3.221317,-9.124878,-1.5906221
1409346529645,4.8297033,-11.179127,0.9475053,3.3957717,-9.104887,-1.3191589
1409346529646,3.7804444,-10.871471,1.6352397,3.4776745,-9.099466,-1.1295482
1409346529649,2.621651,-10.195708,3.3441012,3.4885874,-9.118999,-0.91869247
1409346529652,1.9213469,-11.914146,4.1826706,3.4231296,-9.172559,-0.5628209
1409346529670,1.1761516,-14.452,3.888782,3.2733884,-9.241595,-0.2195476
1409346529671,0.20410569,-18.130692,3.1812954,3.034056,-9.325305,0.059843644
1409346529687,-1.543063,-19.608511,1.7543513,2.6913023,-9.426654,0.25584406
1409346529689,-3.596091,-19.608511,1.2090719,2.2545636,-9.538467,0.32398382
1409346529708,-4.1054573,-19.608511,2.8419175,1.7377698,-9.645505,0.33876082
1409346529711,-3.7966053,-18.53112,5.679645,1.2457106,-9.716766,0.45059025
1409346529717,-3.8001966,-14.973936,7.0186024,0.8587279,-9.740944,0.73958737
1409346529736,-2.9765913,-12.635998,6.855198,0.5203098,-9.733381,1.0774859
1409346529737,-1.8052281,-10.556035,5.732916,0.26954308,-9.700808,1.4113973
1409346529761,-1.3545196,-9.199121,4.768651,0.103232265,-9.657456,1.700971
1409346529762,-0.7326257,-8.015787,3.6846764,-0.017611498,-9.616318,1.922633
1409346529771,-0.6811504,-7.627328,3.3812113,-0.07761267,-9.585844,2.0678425
1409346529791,-1.763928,-8.013393,3.7032316,-0.12207521,-9.559004,2.1865375
1409346529791,-1.6543933,-7.4603324,4.3155484,-0.23966786,-9.526493,2.3149276
1409346529798,-0.78290397,-6.0130377,4.4340615,-0.34975854,-9.477261,2.495915
1409346529826,-0.094570965,-4.9943047,3.4877534,-0.40447095,-9.411908,2.7244756
1409346529827,-1.1402385,-5.185841,2.1577742,-0.4116058,-9.359076,2.8997693
1409346529831,-2.4361002,-5.601235,0.84096336,-0.504148,-9.338296,2.9516897
1409346529838,-2.4013844,-5.477335,1.1097125,-0.6979352,-9.348061,2.8804574
1409346529861,-1.7040731,-5.3265004,1.6777369,-0.88051474,-9.342158,2.849413
1409346529862,-1.4544775,-4.938041,2.6779146,-0.99558604,-9.322226,2.876681
1409346529870,-1.5699978,-4.337695,2.878429,-1.0718268,-9.273185,3.004936
1409346529892,-1.9602526,-3.7714663,2.6755204,-1.1832913,-9.205257,3.1675613
1409346529893,-2.9011738,-3.8414967,2.8550856,-1.3330522,-9.12971,3.322913
1409346529898,-3.776853,-3.9193082,3.5733461,-1.6022564,-9.028291,3.4775171
1409346529926,-4.1425676,-3.6433764,4.1958385,-1.9757644,-8.870632,3.6849217
1409346529927,-4.384382,-3.436278,4.767454,-2.3770225,-8.653225,3.9549768
1409346529930,-4.8428717,-3.7726634,4.5244427,-2.7728472,-8.377189,4.278367
1409346529938,-5.011064,-4.5124717,2.168548,-3.1797721,-8.099137,4.52365
1409346529964,-4.694431,-5.8639984,-1.6567876,-3.5852814,-7.978154,4.434548
1409346529965,-3.6391866,-8.01459,-5.747281,-3.9557297,-8.095474,3.8711631
1409346529970,0.79248077,-11.300034,-13.65533,-4.1361833,-8.454977,2.7524123
1409346530000,13.946225,-17.296312,-13.097481,-3.6132698,-9.096735,0.60338414
1409346530002,19.607914,-19.608511,-7.165247,-3.7056043,-9.04261,0.8186014
1409346530003,18.968662,-19.608511,-8.476671,-3.7964108,-8.98243,1.0361447
1409346530034,12.054806,-17.911022,-8.833407,-3.8207684,-8.94647,1.2380512
1409346530035,6.415862,-10.065823,-3.4368765,-3.8203402,-8.927559,1.3689758
1409346530037,12.207436,-10.188525,-11.404779,3.4971788,-8.853751,-2.356106
1409346530039,8.64666,-10.329185,-12.267291,4.0521355,-8.463111,-2.8506734
1409346530066,4.805163,-10.54167,-6.5026517,4.181285,-8.198209,-3.3877125
1409346530067,1.9632454,-8.697536,1.0660183,4.122912,-8.153566,-3.5624878
1409346530072,-1.4185646,-8.672397,6.4098763,3.9851072,-8.309616,-3.352553
1409346530091,-4.296395,-13.652935,7.705738,3.6293502,-8.67777,-2.7739024
1409346530092,-5.999271,-16.716316,6.830059,2.9393716,-9.149383,-1.954309
1409346530099,-5.33069,-15.946581,5.530606,2.0946329,-9.508865,-1.1680853
1409346530125,-3.544017,-13.215993,3.8839936,1.3814311,-9.687843,-0.63855124
1409346530126,-2.2170308,-12.704831,2.8532898,0.911853,-9.760311,-0.27436683
1409346530159,-1.1833342,-12.794015,1.7609353,0.59223264,-9.788654,0.04354922
1409346530160,-2.586935,-12.967595,0.2208651,0.41384766,-9.793864,0.28173387
1409346530162,-4.8704047,-12.56058,0.25558102,0.18441242,-9.797778,0.37407517
1409346530163,-5.358822,-9.734824,0.9756372,-0.16998729,-9.796237,0.41859883
1409346530170,-4.545392,-8.180388,1.6358383,-0.5730755,-9.778651,0.469002
1409346530194,-3.4129345,-7.877522,1.5885528,-0.9066337,-9.7506075,0.52349746
1409346530195,-2.191293,-7.5465236,0.47105917,-1.1712594,-9.721059,0.5473205
1409346530198,-1.7429788,-7.342418,-0.664391,-1.3259778,-9.703829,0.49787018
1409346530226,-1.459266,-7.438186,-1.6053122,-1.4198273,-9.6960335,0.37607175
1409346530226,-1.1881226,-8.118738,-1.9572599,-1.4659292,-9.694744,0.18273067
1409346530230,-0.9959879,-9.25359,-1.4634558,-1.4716827,-9.695546,-0.030523788
1409346530238,-0.65062433,-10.492589,-0.47465047,-1.4510437,-9.697073,-0.17794283
1409346530262,-0.19991584,-11.124659,0.49320555,-1.3821377,-9.706668,-0.20173721
1409346530263,1.115698,-12.204443,1.0378864,-1.2788427,-9.721866,-0.14240631
1409346530270,2.195483,-12.976573,0.8367735,-1.0502006,-9.75023,-0.022824252
1409346530294,3.2489316,-12.650962,0.44711718,-0.74183166,-9.778341,0.064242914
1409346530295,3.690662,-11.153389,0.22146365,-0.3737783,-9.798995,0.101980284
1409346530298,3.8720226,-9.219472,0.31543607,-0.0012482465,-9.806005,0.11243907
1409346530320,3.5296519,-8.252214,0.5662287,0.37050506,-9.798826,0.12703407
1409346530321,3.1346085,-8.057087,1.0390835,0.6954418,-9.7806835,0.15809834
1409346530336,2.7970262,-8.4664955,2.1493945,0.95158076,-9.757464,0.2383017
1409346530338,1.8902222,-9.140464,3.620033,1.1664556,-9.727865,0.42235696
1409346530350,1.7836803,-8.868722,5.434838,1.2636133,-9.696815,0.738537
1409346530365,2.1523874,-7.479486,14.261063,1.335782,-9.640741,1.200897
1409346530372,2.961029,-6.5870476,11.423335,1.4395448,-9.383188,2.460466
1409346530386,3.4835634,-7.2298903,5.011064,1.5687841,-9.090406,3.327733
1409346530400,4.200627,-8.821436,4.2796354,1.7133406,-8.96333,3.5907602
1409346530401,3.763685,-10.373477,2.0697873,1.8527174,-8.878556,3.7294843
1409346530416,2.9939492,-10.466252,0.6254852,1.9691241,-8.895323,3.6285203
1409346530418,1.6705543,-10.487202,0.33997664,1.9991252,-8.98019,3.3955925
1409346530436,0.62967503,-10.705074,0.08140286,1.9365088,-9.08998,3.1293063
1409346530438,0.4369418,-10.90499,-0.2645593,1.7966934,-9.213213,2.8388336
1409346530451,0.62728083,-10.890625,-0.16819267,1.6640431,-9.327905,2.528149
1409346530465,0.8607155,-10.694301,0.44592008,1.5523778,-9.415288,2.2611642
1409346530470,1.0737995,-10.740988,0.96306765,1.472785,-9.46923,2.0820613
1409346530496,1.1025299,-11.075577,1.2467805,1.4174223,-9.501472,1.9706177
1409346530497,1.1504139,-11.249755,1.2779051,1.3782828,-9.523928,1.8882576
1409346530498,1.5729905,-11.487978,1.4401124,1.3444498,-9.541444,1.8231052
1409346530525,2.421735,-11.495161,1.5634137,1.3408637,-9.549673,1.7821954
1409346530526,3.357868,-11.473015,1.2892777,1.4039164,-9.544852,1.759318
1409346530530,4.0294414,-11.476007,1.0947487,1.5435368,-9.531131,1.7162333
1409346530538,4.1305966,-11.9614315,1.4856021,1.7337215,-9.506867,1.6685506
1409346530561,4.2904096,-13.360843,1.572392,1.9003552,-9.478008,1.6511803
1409346530562,5.021838,-15.078682,-3.1489737,2.0495195,-9.44701,1.6504108
1409346530570,6.095039,-15.346833,-13.678074,2.218172,-9.46705,1.2747692
1409346530600,7.2149267,-13.369223,-19.608511,2.429011,-9.500135,0.13307488
1409346530601,7.4962454,-11.749545,-15.506646,2.3948734,-9.492766,0.5677593
1409346530601,6.3889275,-12.682086,-3.151368,2.955327,-9.033213,-2.4160938
1409346530624,3.7654808,-14.66688,3.3752258,3.1236613,-8.927694,-2.5902457
1409346530624,3.417723,-14.96376,4.596867,3.0374491,-9.05166,-2.2387037
1409346530630,4.06715,-15.219341,3.4009635,2.930027,-9.196892,-1.7327789
1409346530669,6.1644707,-13.829508,-0.3597288,2.888698,-9.286818,-1.2573212
1409346530670,6.899491,-11.84651,-7.472902,3.0136268,-9.265854,-1.1101339
1409346530670,5.603629,-11.195886,-5.919664,3.2106183,-9.137166,-1.5409476
1409346530675,4.657321,-11.215039,-0.82121116,3.3522477,-9.02099,-1.8853468
1409346530707,5.2205567,-11.143213,1.3096284,3.4560494,-8.986094,-1.86446
1409346530707,5.6365495,-11.296442,1.8136078,3.5725007,-8.984353,-1.6398312
1409346530708,4.5555673,-11.407174,2.4426842,3.6711411,-8.987422,-1.3854151
1409346530710,3.453636,-10.535685,3.341707,3.7074764,-9.016183,-1.0646394
1409346530719,2.6563668,-10.924144,3.1040826,3.6813605,-9.058846,-0.74516255
1409346530743,1.8579005,-13.186066,2.9550436,3.5906584,-9.112606,-0.48777652
1409346530743,-0.7260417,-19.608511,2.2703018,3.4062052,-9.192298,-0.26430854
1409346530751,-3.1854854,-19.608511,0.7098808,2.9280288,-9.358751,-0.10385376
1409346530768,-5.4563856,-19.608511,1.4556746,2.3533764,-9.519856,-0.065567285
1409346530770,-5.9902925,-19.608511,5.4025164,1.7010993,-9.657933,0.03184066
1409346530790,-5.6042275,-17.903841,8.002021,1.1160463,-9.735659,0.37655982
1409346530792,-4.14975,-13.711593,8.295909,0.62122315,-9.752779,0.8171752
1409346530798,-2.4319103,-10.638636,8.0924015,0.27353024,-9.726452,1.2213444
1409346530822,-1.7986441,-9.000402,6.5307837,0.0585349,-9.66981,1.6314874
1409346530823,-1.0181342,-7.5890207,4.778228,-0.10874373,-9.605618,1.9724787
1409346530841,-0.9983821,-7.5052238,3.364452,-0.1947874,-9.549465,2.222649
1409346530842,-1.5771804,-7.77936,4.0174704,-0.25074103,-9.515696,2.3577635
1409346530852,-1.9177556,-7.711125,5.3265004,-0.34970543,-9.475962,2.5008538
1409346530868,-1.4137762,-6.5523314,6.269816,-0.4619639,-9.409483,2.7237124
1409346530870,-0.18195933,-4.8458643,5.151125,-0.5541951,-9.308976,3.0341775
1409346530885,1.1192893,-3.779846,5.1038394,-0.56174135,-9.217702,3.299817
1409346530900,0.17477672,-3.8959646,3.6182373,-0.45896265,-9.11061,3.5995185
1409346530901,-0.38486794,-4.619612,1.7004818,-0.42905226,-9.036996,3.7840464
1409346530918,-0.6123171,-5.1301756,0.8511387,-0.41646388,-9.025808,3.812052
1409346530919,-0.8379706,-5.083489,1.043872,-0.40342817,-9.053546,3.7471242
1409346530939,-1.2108675,-5.080496,1.5292963,-0.43331426,-9.087228,3.661274
1409346530960,-1.6711528,-5.116409,2.2146366,-0.53585225,-9.1001625,3.6152897
1409346530960,-1.9955671,-4.883573,3.0615854,-0.69118875,-9.083873,3.6298625
1409346530961,-2.243367,-3.9354692,3.8762126,-0.8822499,-9.020733,3.744117
1409346530986,-3.0843303,-3.2603042,4.286818,-1.1031402,-8.891673,3.9864304
1409346530988,-4.1264067,-3.2345665,4.0797195,-1.4267951,-8.701711,4.291255
1409346531004,-4.832696,-3.2662897,4.0653543,-1.8747731,-8.48495,4.5454636
1409346531005,-5.327099,-3.25791,4.56275,-2.3937838,-8.2396555,4.7485027
1409346531016,-5.8634,-3.544017,4.365228,-2.9331782,-7.9255857,4.975133
1409346531019,-5.336077,-4.072537,2.4762032,-3.489103,-7.605977,5.1132813
1409346531034,-4.1216183,-5.623381,-0.9564836,-3.9427042,-7.4410777,5.025519
1409346531050,-1.7274165,-8.662222,-8.292317,-4.241983,-7.596733,4.5238943
1409346531051,7.9708962,-14.121001,-19.306843,-4.235012,-8.310325,3.0287898
1409346531066,19.010561,-19.608511,-17.222092,-4.326861,-8.168762,3.2741404
1409346531070,19.607914,-19.608511,-7.33344,-4.3991127,-8.031995,3.5078871
1409346531088,18.251598,-19.608511,-8.898649,-4.409737,-7.9223022,3.7365398
1409346531092,6.1704564,-14.577696,-2.457648,-4.3405423,-7.878908,3.9054968
1409346531099,9.272144,-8.409634,-10.170568,3.414815,-8.839212,-2.525428
1409346531124,5.858013,-7.945757,-13.97316,3.86616,-8.511935,-2.9614427
1409346531124,1.9363106,-9.493608,-8.737639,3.936343,-8.189956,-3.6878526
1409346531130,-0.6619968,-11.095928,-1.204882,3.7208068,-8.121569,-4.0455093
1409346531161,-4.4645877,-15.35641,2.7096379,3.3213437,-8.360116,-3.9048085
1409346531161,-7.20954,-18.524538,3.9989154,2.570279,-8.841654,-3.3747885
1409346531162,-6.435614,-15.54615,4.8039656,1.6679975,-9.286648,-2.6732676
1409346531198,-3.6170402,-12.246342,5.5443726,0.9635735,-9.542853,-2.043486
1409346531199,-2.0368671,-10.940305,6.2488666,0.56886137,-9.681231,-1.4562229
1409346531200,-1.4185646,-10.036493,5.592855,0.33507425,-9.767237,-0.81191456
1409346531200,-0.40462008,-8.768764,4.132392,0.18602423,-9.802331,-0.22383481
1409346531226,-0.6500258,-8.226477,3.5978866,0.1446585,-9.803575,0.19841497
1409346531228,-2.473809,-8.22109,0.78529817,0.09122282,-9.791877,0.53030443
1409346531231,-2.7629087,-8.148665,1.6280571,-0.13350034,-9.789136,0.57044685
1409346531262,-3.1866825,-8.9040365,2.4851813,-0.36304486,-9.774998,0.69859874
1409346531263,-2.9831753,-9.546879,2.143409,-0.63646454,-9.746576,0.8772396
1409346531263,-2.8993783,-10.177752,0.7188591,-0.87118655,-9.718062,0.9852431
1409346531293,-3.144784,-10.734404,-0.78290397,-1.0750076,-9.700849,0.95305085
1409346531293,-2.771887,-10.66976,-1.5580268,-1.2819499,-9.690444,0.7888496
1409346531294,-2.0482395,-10.262746,-1.2401965,-1.4318963,-9.68495,0.56726706
1409346531299,-1.299453,-9.804854,-0.25917232,-1.5121083,-9.681178,0.39838824
1409346531323,-0.90381116,-9.512163,0.30945057,-1.512239,-9.683762,0.32907125
1409346531324,-0.85652566,-9.519944,0.54647654,-1.4885021,-9.687653,0.32273072
1409346531333,-0.8774749,-9.803658,1.0103531,-1.4519719,-9.692392,0.34599683
1409346531374,-0.61411273,-10.292673,1.5897499,-1.4123733,-9.695575,0.41400954
1409346531376,-0.046686932,-10.888829,1.7836803,-1.3459452,-9.699678,0.5244661
1409346531377,0.6853402,-11.165958,1.532289,-1.2297317,-9.7086115,0.6332459
1409346531378,1.1180922,-10.91337,1.2605472,-1.0522372,-9.724934,0.69918776
1409346531381,1.347337,-10.577583,1.2814964,-0.8524215,-9.741835,0.7351228
1409346531408,1.9381063,-10.2657385,1.8393455,-0.6443369,-9.755348,0.7670895
1409346531409,2.2451627,-10.235212,2.0739772,-0.39561683,-9.76185,0.848623
1409346531413,2.054225,-10.412982,2.657564,-0.13971886,-9.760046,0.94464177
1409346531419,0.8463503,-11.225813,7.97748,0.077557,-9.745264,1.0928042
1409346531441,2.7275944,-10.383054,9.776124,0.16509558,-9.655096,1.7094588
1409346531442,5.4378304,-9.482236,4.7177744,0.40049848,-9.496616,2.4133499
1409346531452,5.631162,-9.182362,2.1930888,0.8266047,-9.414967,2.6163971
1409346531466,5.058948,-8.895058,1.3844471,1.2229022,-9.363924,2.6442063
1409346531484,4.433463,-8.646061,1.2252327,1.5633539,-9.326885,2.5952942
1409346531484,4.033033,-8.783728,1.6424223,1.8304408,-9.298274,2.5222962
1409346531501,3.9875429,-9.132683,2.291251,2.0492723,-9.266774,2.4693701
1409346531501,4.1677065,-9.089587,2.4528596,2.2368095,-9.225959,2.4594214
1409346531515,4.0294414,-9.231443,1.9656396,2.420198,-9.180145,2.4572244
1409346531519,3.525462,-9.51336,1.2850877,2.5688522,-9.151616,2.412321
1409346531536,2.9735985,-9.972448,0.8870517,2.6481905,-9.154637,2.313029
1409346531539,2.594716,-10.524312,1.0881647,2.6640282,-9.179802,2.1919363
1409346531550,2.6001031,-10.845135,1.4347254,2.629763,-9.21128,2.0992956
1409346531564,2.5354595,-11.054029,1.6992847,2.5909736,-9.234934,2.0428567
1409346531580,2.496554,-11.164762,1.9009962,2.5456762,-9.253834,2.0140743
1409346531581,2.5899277,-11.174936,2.178125,2.4996734,-9.267526,2.0087261
1409346531597,2.765303,-11.100717,2.3241713,2.4658117,-9.272101,2.0293598
1409346531599,2.8868086,-10.853515,3.1028855,2.4507706,-9.26824,2.06491
1409346531615,2.5067291,-11.203667,4.481347,2.4422126,-9.247322,2.1663377
1409346531636,2.7383683,-12.604275,2.6940753,2.3970287,-9.208092,2.3739598
1409346531637,3.394978,-13.616424,-2.6282349,2.346348,-9.2117195,2.4102407
1409346531639,3.4195185,-13.398551,-10.350134,2.3472278,-9.303725,2.025239
1409346531652,3.2393548,-12.674904,-17.909826,2.3813052,-9.455543,1.0452161
1409346531675,4.033033,-12.16434,-19.120094,2.267999,-9.420415,1.5107433
1409346531676,5.2624555,-12.82514,-11.361684,2.1041532,-9.404817,1.8144826
1409346531680,5.9597664,-13.564948,-3.5009215,2.64244,-9.022092,-2.7910056
1409346531707,5.907693,-14.423269,1.4323312,2.7758915,-8.949579,-2.8930683
1409346531708,4.5435963,-14.651318,4.377199,2.8523057,-9.021576,-2.5779696
1409346531711,4.996699,-14.614207,4.245518,2.8500946,-9.167547,-2.0008547
1409346531732,6.0782795,-16.159065,4.617218,2.888968,-9.257063,-1.4598101
1409346531732,6.770204,-14.851831,-1.7585411,2.9796214,-9.294641,-0.9497043
1409346531758,5.3049526,-13.4661875,-9.13388,3.1188903,-9.247123,-0.9662591
1409346531759,3.5434184,-12.242152,-6.669049,3.162821,-9.160572,-1.500287
1409346531760,3.4290953,-10.647614,-1.1043255,3.1405702,-9.112303,-1.8091806
1409346531806,4.197634,-10.2657385,0.7625532,3.1787722,-9.094814,-1.8303316
1409346531807,4.0360255,-10.78528,0.7260417,3.2830591,-9.08047,-1.7137574
1409346531807,3.341707,-10.158598,2.0266917,3.3315482,-9.091306,-1.5554116
1409346531808,2.7096379,-10.061034,2.8856115,3.3444557,-9.130006,-1.2759306
1409346531813,2.7114334,-10.609306,3.3602622,3.3177977,-9.179863,-0.944844
1409346531834,2.2703018,-11.944673,3.8055837,3.2710512,-9.22439,-0.6174533
1409346531836,1.5310919,-15.00506,4.1413703,3.1589096,-9.278824,-0.30840456
1409346531850,0.5638345,-19.042881,3.840898,2.9541264,-9.351085,0.027329322
1409346531851,-1.4802152,-19.608511,3.9372647,2.6400073,-9.440714,0.27135348
1409346531865,-3.882198,-19.608511,4.324527,2.2327666,-9.53633,0.4935168
1409346531882,-4.6160207,-19.607315,5.241506,1.722454,-9.627618,0.7158916
1409346531883,-4.1437645,-17.426197,5.6006365,1.221364,-9.684287,0.94512707
1409346531903,-3.3273418,-13.934254,5.989694,0.7978966,-9.706082,1.1513866
1409346531903,-2.202067,-11.134235,6.518214,0.46791008,-9.696947,1.3858737
1409346531911,-1.6711528,-9.492412,5.9807158,0.25922948,-9.657416,1.684483
1409346531933,-1.347337,-8.489241,4.869208,0.10678966,-9.608957,1.9562551
1409346531933,-1.6238673,-8.811859,4.1024647,-0.0040481063,-9.55983,2.1863348
1409346531952,-2.380435,-9.396643,3.8229415,-0.107071556,-9.5182495,2.3583546
1409346531953,-2.7371712,-9.348161,4.5076833,-0.25211614,-9.485168,2.477581
1409346531959,-1.9871874,-7.933786,4.482544,-0.43069488,-9.439147,2.6243882
1409346531984,-0.64583594,-6.242881,3.168726,-0.5758687,-9.384775,2.7865343
1409346531985,-0.5805939,-6.0250087,0.86969376,-0.6157075,-9.354479,2.878373
1409346532001,-1.073201,-5.9346275,0.13587095,-0.65408134,-9.37722,2.79469
1409346532002,-2.0572178,-6.157288,0.6099229,-0.7137075,-9.413078,2.6561184
1409346532012,-1.9237411,-5.701193,2.0572178,-0.84294266,-9.427808,2.5644255
1409346532028,-1.6651673,-5.345654,2.6910827,-0.9542151,-9.397929,2.6341565
1409346532031,-1.6561891,-4.811747,3.4380736,-1.0420752,-9.347419,2.7767348
1409346532054,-2.2583308,-4.1916485,4.0982747,-1.1366013,-9.269297,2.9931035
1409346532055,-2.6240451,-3.5637693,3.6715083,-1.3106307,-9.149994,3.275704
1409346532060,-3.0478187,-3.2824504,2.879626,-1.543032,-9.023962,3.5153317
1409346532090,-3.8660371,-3.2746694,2.8443117,-1.8353157,-8.903354,3.6786277
1409346532091,-4.7656584,-3.494936,2.7844565,-2.234533,-8.752997,3.816057
1409346532092,-5.4498014,-3.365649,2.7581203,-2.717846,-8.572006,3.9120843
1409346532100,-5.8226986,-3.13401,2.7922378,-3.2527127,-8.347639,3.98838
1409346532114,-6.007651,-3.3608606,2.2307975,-3.803177,-8.077006,4.0581017
1409346532130,-5.931635,-4.237737,0.8738836,-4.3294587,-7.8183312,4.0373096
1409346532132,-4.9081135,-5.7574563,-1.335366,-4.7837486,-7.6671934,3.8079224
1409346532147,-2.6132712,-8.191761,-6.233304,-5.0382056,-7.736874,3.305701
1409346532164,2.5923219,-12.058995,-17.336414,-4.9803715,-8.166757,2.1611083
1409346532164,13.457808,-17.567455,-15.795746,-4.0870876,-8.903201,-0.44619042
1409346532181,19.577387,-19.608511,-5.995081,-4.2328644,-8.842969,-0.23489451
1409346532182,16.589424,-19.608511,-6.3230867,-4.341585,-8.79311,-0.04710808
1409346532197,6.327875,-12.588114,-2.5623944,-4.3628254,-8.781541,0.14390506
1409346532200,9.088988,-8.84059,-9.532514,2.5930555,-9.142943,-2.4193087
1409346532212,6.1501055,-9.004593,-13.559562,3.166652,-8.817013,-2.898796
1409346532229,1.614889,-9.506178,-8.450933,3.3180327,-8.46816,-3.6676042
1409346532233,-0.87328506,-10.751761,-2.1284454,3.1009073,-8.404062,-3.9907982
1409346532246,-3.4404678,-14.997878,1.2204443,2.7586906,-8.582871,-3.8593187
1409346532262,-5.4043117,-19.442116,2.9993362,2.1295383,-8.943009,-3.4143906
1409346532262,-4.5543704,-17.984644,4.7004166,1.3405873,-9.318907,-2.7442982
1409346532279,-0.9068039,-13.835493,5.1822495,0.78903615,-9.55663,-2.0539367
1409346532280,1.2683283,-10.910975,4.2383356,0.62538916,-9.677079,-1.4606183
1409346532295,0.062249243,-9.846753,3.515885,0.6671962,-9.7287245,-1.0378815
1409346532300,-1.3269863,-9.163208,3.8337154,0.603053,-9.766181,-0.6545626
1409346532320,-1.6310499,-8.347982,4.589086,0.45367435,-9.792827,-0.2552396
1409346532321,-1.3467385,-7.2723875,3.8869865,0.2949908,-9.801064,0.15016426
1409346532332,-1.8034325,-7.0886326,2.166154,0.15614115,-9.793702,0.47896534
1409346532361,-3.2453403,-7.4711065,1.6047137,-0.028168257,-9.782293,0.69016707
1409346532362,-3.9707835,-8.249222,1.5717934,-0.3326195,-9.763897,0.8521135
1409346532363,-4.051588,-9.59177,1.5705963,-0.68949926,-9.736415,0.94722337
1409346532390,-3.9737763,-10.484209,1.1180922,-1.022715,-9.70036,1.0136269
1409346532390,-3.5422213,-10.412982,0.2693477,-1.3260438,-9.663606,1.0132651
1409346532392,-2.9771898,-9.866506,-0.3633201,-1.5557749,-9.6368885,0.93826807
1409346532416,-2.4875755,-9.633669,-0.2825158,-1.7074928,-9.62174,0.8227819
1409346532418,-2.2679076,-9.917382,0.19273324,-1.7937807,-9.613648,0.7283487
1409346532437,-2.098518,-10.475829,0.86969376,-1.8442559,-9.607489,0.6821019
1409346532437,-1.9794062,-11.357494,1.447295,-1.8671405,-9.601783,0.69997203
1409346532440,-1.5059528,-12.376227,1.7178397,-1.8590058,-9.597939,0.77075785
1409346532477,-0.56982,-13.253103,1.2641385,-1.8070431,-9.602017,0.8403896
1409346532478,0.7445967,-13.5296335,0.31124622,-1.672847,-9.624701,0.8585624
1409346532478,1.9273324,-13.02745,-0.4961983,-1.4428968,-9.668066,0.78546774
1409346532480,2.670732,-11.868656,-0.6368576,-1.141567,-9.718619,0.6447128
1409346532503,3.0352492,-10.089166,-0.1340753,-0.80556536,-9.760752,0.49916896
1409346532503,3.17531,-8.84478,0.55605334,-0.46374595,-9.787146,0.40881923
1409346532512,3.09271,-8.978256,1.0564415,-0.13921705,-9.797321,0.40432817
1409346532531,3.0813377,-9.350554,1.7663223,0.16704233,-9.795447,0.43783766
1409346532548,2.6910827,-9.324817,3.2393548,0.45034403,-9.780964,0.5480322
1409346532549,2.3870192,-8.544308,8.7053175,0.67318976,-9.750937,0.7977566
1409346532567,2.3714569,-7.8948803,16.663643,0.85686177,-9.647769,1.5351638
1409346532567,3.4207156,-7.6015906,8.878897,1.013229,-9.313144,2.899848
1409346532572,3.7403417,-8.311471,2.7012582,1.2029475,-9.084609,3.4918735
1409346532580,3.8618474,-8.942344,1.0360907,1.3588699,-9.032563,3.568847
1409346532601,3.3039982,-9.166202,0.008379706,1.5132473,-9.060279,3.4339218
1409346532602,2.131438,-9.469068,1.4664485,1.673814,-9.122965,3.1843772
1409346532613,2.3116016,-9.271546,1.234211,1.7153568,-9.166272,3.034367
1409346532634,2.6922798,-8.79091,0.93134445,1.8052173,-9.204406,2.8619077
1409346532635,2.3774424,-9.018359,1.0175357,1.9420834,-9.229238,2.6869864
1409346532641,1.9237411,-10.035296,1.1252748,2.0236402,-9.254512,2.535599
1409346532676,1.697489,-10.960655,1.0827777,2.0248082,-9.291063,2.3972251
1409346532676,1.8800468,-11.334151,1.5304934,1.9693364,-9.336791,2.2619545
1409346532677,2.0620062,-11.291056,1.8836381,1.9300101,-9.363279,2.185049
1409346532681,2.1775265,-11.334151,2.3229742,1.9073268,-9.373653,2.1603475
1409346532711,2.3594859,-11.493964,2.9346926,1.8979934,-9.370647,2.181513
1409346532712,2.6042929,-12.006323,3.2237926,1.9041239,-9.35176,2.255942
1409346532714,2.6378117,-12.668919,4.509479,1.9224411,-9.327319,2.3400283
1409346532739,2.556409,-13.811551,4.836886,1.9238036,-9.282133,2.512242
1409346532741,3.300407,-15.511435,-0.973243,1.8908012,-9.245609,2.6672034
1409346532742,4.614824,-15.167268,-11.095928,1.9068279,-9.3354845,2.3201554
1409346532770,3.5859156,-13.040618,-19.235016,2.0765872,-9.502843,1.2466601
1409346532771,2.8119898,-11.021109,-19.393633,2.0242302,-9.441233,1.713471
1409346532774,4.385579,-11.83813,-11.638813,1.8764865,-9.385669,2.1350403
1409346532780,5.6084175,-13.822924,-3.2052376,2.43041,-9.1364,-2.605705
1409346532801,5.6425347,-14.847642,1.7926586,2.5572467,-9.058262,-2.7529573
1409346532802,4.799177,-14.659697,4.8380833,2.6128156,-9.128471,-2.4524739
1409346532812,5.0984526,-12.917915,6.3111157,2.6216378,-9.253405,-1.9162195
1409346532835,4.9787426,-12.902353,7.48188,2.7377987,-9.336618,-1.2257324
1409346532836,5.683236,-13.420697,3.7840357,2.8188293,-9.3783045,-0.5215157
1409346532840,6.4846954,-13.600862,0.33279404,2.9330926,-9.356116,-0.17453122
1409346532869,5.985504,-12.082937,-5.077503,3.0941744,-9.304884,-0.12504092
1409346532869,4.0557775,-11.0247,-7.526173,3.2348537,-9.245792,-0.47059157
1409346532872,2.7940333,-10.16578,-3.8869865,3.2780948,-9.18782,-1.0041952
1409346532881,2.345719,-10.010756,-1.5041572,3.2788289,-9.152997,-1.2815433
1409346532908,2.4277205,-10.848128,-1.2791022,3.2330422,-9.162368,-1.3299702
1409346532908,2.6342204,-11.736377,0.08259996,3.1795776,-9.17439,-1.3752204
1409346532913,2.2331917,-11.217434,2.5438392,3.10824,-9.215181,-1.2608161
1409346532948,1.7842789,-11.177929,3.7002387,3.0253227,-9.278152,-0.96628135
1409346532949,1.2689269,-12.08593,3.4877534,2.9190433,-9.342473,-0.6064386
1409346532950,0.50876784,-14.055161,2.80361,2.7670615,-9.403721,-0.28946665
1409346532978,-0.43873745,-17.31307,2.1511903,2.5415583,-9.4714365,-0.05261866
1409346532979,-1.513734,-19.60133,0.7140707,2.225852,-9.550214,0.096808806
1409346532980,-2.7048495,-19.608511,0.7942764,1.8430566,-9.631132,0.12173779
1409346532981,-3.58412,-19.608511,2.5390508,1.4441911,-9.698693,0.14148703
1409346533002,-4.050989,-19.577387,5.573103,1.0443445,-9.747447,0.25883055
1409346533003,-3.99293,-17.265186,8.067263,0.6692735,-9.769299,0.5321993
1409346533013,-2.873042,-13.6092415,8.492832,0.34619683,-9.756935,0.9234404
1409346533029,-1.5502456,-10.548254,7.6590514,0.113540165,-9.712772,1.3489034
1409346533045,-0.65301853,-8.783728,5.7790046,-0.035135757,-9.647662,1.7583392
1409346533045,-0.29328972,-8.1642275,4.051588,-0.101311676,-9.591926,2.038406
1409346533063,-0.31783026,-8.06008,2.9245174,-0.12111279,-9.548829,2.230598
1409346533063,-0.7703344,-8.391677,3.1543608,-0.12842122,-9.525926,2.3260758
1409346533080,-0.866701,-8.361151,3.4931402,-0.16511685,-9.50573,2.4050405
1409346533081,-0.047884032,-7.028179,3.2064347,-0.22399011,-9.482988,2.488603
1409346533101,1.8148049,-4.811747,6.9485717,-0.23485155,-9.459827,2.5742736
1409346533102,0.017956512,-4.4957123,4.6645036,-0.08737192,-9.331115,3.015473
1409346533112,-1.6747441,-5.450999,-0.12509704,-0.054390274,-9.240844,3.282411
1409346533138,-1.9812019,-5.6545057,-0.8559271,-0.16480172,-9.280062,3.1660204
1409346533138,-1.9877859,-5.5419784,-0.6757634,-0.32311246,-9.33971,2.9725037
1409346533141,-1.6998832,-5.2319293,1.7645266,-0.5076285,-9.401055,2.744606
1409346533171,-2.0841527,-4.4155064,3.8307228,-0.6608029,-9.388246,2.7558227
1409346533172,-2.9454668,-3.696049,4.6662993,-0.8502381,-9.295037,3.0082872
1409346533173,-3.8744168,-3.0400376,4.1922474,-1.1315848,-9.139031,3.371647
1409346533182,-4.413711,-2.8604724,3.8295257,-1.5253973,-8.950951,3.7045977
1409346533207,-4.9745526,-3.0256724,3.7122097,-1.9864944,-8.741468,3.976298
1409346533208,-5.349245,-3.2728736,3.8385038,-2.506982,-8.499129,4.201219
1409346533213,-5.4402246,-3.5619736,4.0503907,-3.0490398,-8.227961,4.3788586
1409346533235,-5.257667,-3.863643,3.6685154,-3.5427096,-7.9407563,4.5347548
1409346533236,-5.1780596,-4.7004166,3.0119057,-3.9562087,-7.691183,4.6221766
1409346533241,-4.6926355,-6.220136,1.8752584,-4.293269,-7.5251946,4.594528
1409346533264,-3.2483332,-8.728063,-1.483208,-4.5016446,-7.5246987,4.3914113
1409346533265,0.96067345,-13.833697,-15.991471,-4.49385,-7.858702,3.7704778
1409346533279,10.627263,-19.572,-17.990032,-3.9197814,-8.895536,1.2942774
1409346533281,19.34934,-19.608511,-4.3167458,-4.066392,-8.792405,1.5259324
1409346533293,19.607914,-19.608511,-4.26946,-4.211827,-8.691397,1.7001588
1409346533308,17.256208,-18.938734,-7.9068513,-4.2865305,-8.640303,1.7723502
1409346533327,6.405088,-11.14441,-5.7400985,-4.2363706,-8.629398,1.9383072
1409346533332,8.006809,-6.70975,-13.444041,3.4328415,-8.942698,-2.100991
1409346533352,3.2429461,-7.726089,-9.952697,3.8250797,-8.56738,-2.8529193
1409346533353,-0.96426475,-10.312426,-2.932897,3.7735472,-8.409274,-3.3488553
1409346533354,-4.8380833,-16.99943,1.6675615,3.3724694,-8.580089,-3.3434923
1409346533361,-6.9503675,-19.608511,0.91937345,2.5747678,-9.005837,-2.9044507
1409346533378,-5.2516813,-17.912819,0.29448682,1.6286277,-9.342691,-2.4964166
1409346533394,-0.99419224,-13.335105,1.5771804,0.98190266,-9.511542,-2.176428
1409346533394,3.1064768,-12.170326,3.9414546,0.79423785,-9.59316,-1.8737434
1409346533411,1.7878702,-9.506178,6.739079,0.9474657,-9.655378,-1.4305078
1409346533412,-0.5895722,-7.377134,6.5230026,1.0204669,-9.720041,-0.8061337
1409346533426,-2.100912,-5.6886234,5.7903767,0.9189219,-9.760937,-0.22383149
1409346533447,-2.0691888,-4.6920366,5.1409497,0.6901914,-9.778923,0.258208
1409346533448,-1.4490906,-4.4556093,3.0041246,0.46544033,-9.770109,0.7062195
1409346533453,-2.2361844,-5.4791307,2.0093338,0.29200053,-9.750018,1.0110719
1409346533461,-2.867655,-6.637924,2.207454,0.034625325,-9.728695,1.2335715
1409346533476,-2.8898015,-7.958925,1.7794905,-0.2730181,-9.700008,1.4162133
1409346533489,-2.8772318,-9.500193,0.88405895,-0.5717977,-9.675978,1.4895978
1409346533494,-3.3686419,-11.168352,0.3681085,-0.8326719,-9.66584,1.4312845
1409346533521,-3.7654808,-12.469601,-0.4985925,-1.1035212,-9.655605,1.3122137
1409346533522,-3.1729157,-12.275072,-0.9391256,-1.351799,-9.649327,1.1106426
1409346533523,-2.179322,-11.262923,-0.51714754,-1.5121427,-9.647069,0.9043563
1409346533553,-1.6519991,-10.471041,0.31064767,-1.5824975,-9.647358,0.77107614
1409346533554,-1.4933833,-10.165182,0.8607155,-1.6014318,-9.647417,0.73017794
1409346533554,-1.4089876,-10.386645,1.2479776,-1.5932319,-9.6478815,0.74189276
1409346533561,-1.1587936,-10.869077,1.5622166,-1.5730736,-9.647927,0.78316164
1409346533576,-0.59855044,-11.344326,1.7938557,-1.5274098,-9.649665,0.8493293
1409346533595,0.16879122,-11.71842,1.6897079,-1.4375615,-9.657175,0.91802144
1409346533595,0.9223662,-11.723807,1.3491327,-1.2851293,-9.673987,0.9658152
1409346533611,1.3994108,-11.088146,0.98700964,-1.0796295,-9.697888,0.97762054
1409346533628,1.8872294,-10.453683,0.81402856,-0.8519002,-9.722166,0.9613152
1409346533629,2.6701334,-10.022128,1.3084313,-0.60008895,-9.743385,0.93633014
1409346533642,2.9646204,-9.916184,1.7782934,-0.29498452,-9.754826,0.96268636
1409346533643,2.834735,-10.123882,2.966416,0.0068505965,-9.752173,1.0322113
1409346533659,3.0250738,-10.000581,9.669582,0.2786071,-9.728177,1.2063814
1409346533661,5.1122193,-9.44333,9.994595,0.5486923,-9.591977,1.9655229
1409346533681,5.1158104,-9.461885,4.131195,0.9678068,-9.393473,2.645072
1409346533682,4.3161473,-9.198523,1.6328455,1.3217432,-9.314616,2.7679064
1409346533693,3.5889084,-9.048286,0.94810385,1.5668194,-9.286583,2.7340164
1409346533714,2.92751,-8.784326,0.47345337,1.7284431,-9.277747,2.6657608
1409346533715,2.9759927,-8.5862055,0.014963761,1.8419837,-9.290996,2.5406432
1409346533722,3.0909145,-8.852561,0.093373865,1.9785138,-9.313742,2.3473575
1409346533741,2.9580362,-9.348161,0.30406362,2.1035328,-9.328138,2.1751654
1409346533742,2.4893713,-9.660006,0.33997664,2.1966293,-9.344265,2.0074663
1409346533771,2.1733365,-9.845556,0.40402153,2.228845,-9.368766,1.8517209
1409346533772,2.2457612,-9.904214,0.87687635,2.2228746,-9.394831,1.7223157
1409346533773,2.343325,-9.88506,1.5161282,2.218746,-9.407888,1.6550577
1409346533803,2.1745336,-9.983821,2.2152352,2.222902,-9.406041,1.6599642
1409346533803,1.9877859,-10.359112,3.2369606,2.2116325,-9.396017,1.7303052
1409346533804,1.3838485,-10.949283,5.1726727,2.169027,-9.374232,1.8945974
1409346533826,1.6496049,-11.969213,5.0691237,2.0671673,-9.327884,2.210834
1409346533827,2.441487,-12.864644,1.5155296,1.9747956,-9.28381,2.4660602
1409346533843,3.086126,-13.066955,-2.777274,1.949913,-9.311757,2.378953
1409346533843,3.3889925,-12.4151325,-7.739856,1.9748073,-9.404643,1.955305
