time,acc_x,acc_y,acc_z,gravity_x,gravity_y,gravity_z
1409523170360,-1.3838485,0.32142156,9.174581,-1.523248,0.20183595,9.685524
1409523170361,-1.6783354,0.20709845,9.391256,-1.4785604,0.17786545,9.692915
1409523170380,-1.7399861,0.08678981,9.714474,-1.4700226,0.14933714,9.694695
1409523170381,-1.7579426,0.14305355,9.981427,-1.4995791,0.11975906,9.690578
1409523170387,-1.8207904,0.30346507,10.070611,-1.558049,0.09556164,9.681619
1409523170416,-1.9434932,0.44711718,9.9550905,-1.6259952,0.078039326,9.670596
1409523170417,-1.9788077,0.5823896,9.818622,-1.6880997,0.067914605,9.660026
1409523170419,-1.7788919,0.6991069,9.570223,-1.7440392,0.06586649,9.650097
1409523170447,-1.4867992,0.7332243,9.272743,-1.7871068,0.07592962,9.64214
1409523170448,-1.2593501,0.75477207,9.132683,-1.8226494,0.098553166,9.635281
1409523170449,-1.2575544,0.82240826,9.147048,-1.8582672,0.13296112,9.62806
1409523170459,-1.5382746,0.95349085,9.0429,-1.9030337,0.17760995,9.618592
1409523170479,-1.9554642,1.039682,8.932168,-1.967549,0.231395,9.604457
1409523170480,-2.3864205,1.1599907,8.867524,-2.059674,0.2939747,9.583407
1409523170488,-2.5731683,1.3054385,8.835801,-2.183286,0.36257684,9.553648
1409523170516,-2.6264393,1.389834,9.038112,-2.3201168,0.44369975,9.517908
1409523170517,-2.5390508,1.4730326,9.199121,-2.4773557,0.53579545,9.473437
1409523170519,-2.4013844,1.4760253,9.394249,-2.6418955,0.6361751,9.422636
1409523170547,-2.3247697,1.2120646,9.469068,-2.8058975,0.7444423,9.36713
1409523170548,-2.1775265,0.66858083,8.793902,-2.9703462,0.8593527,9.306393
1409523170550,-2.504335,1.1965023,10.0269165,-3.1392176,0.9834859,9.238423
1409523170580,-2.3199813,0.7721301,8.801684,-3.3114676,1.1232136,9.162039
1409523170581,-3.560178,-0.3453636,8.867524,-3.4974375,1.2626094,9.074367
1409523170581,-4.1252093,-0.219668,9.34397,-3.6960304,1.3869364,8.97698
1409523170587,-3.6056678,0.6727707,9.279925,-3.9210076,1.5122304,8.860544
1409523170609,-3.1124623,1.6154876,9.931747,-4.141297,1.6563021,8.733654
1409523170610,-3.1358056,2.190096,10.953473,-4.314274,1.8207748,8.616392
1409523170631,-3.53863,2.5851393,11.801619,-4.443927,1.9982835,8.5105095
1409523170631,-3.6733038,2.734777,10.896012,-4.5410433,2.1860883,8.412511
1409523170639,-3.1759086,2.8856115,8.564059,-4.616742,2.379856,8.318194
1409523170661,-2.2720973,3.2249897,6.260239,-4.6962986,2.591202,8.209802
1409523170661,-1.9363106,3.465607,5.8280854,-4.7815595,2.8195186,8.084392
1409523170676,-2.621651,3.177704,5.9029045,-4.865154,3.0448127,7.9517155
1409523170700,-3.6511576,2.586935,6.321291,-4.9355555,3.2225904,7.837448
1409523170701,-4.4801497,2.1769278,7.7488337,-5.0038934,3.3147104,7.755265
1409523170702,-5.300164,2.2655134,8.642469,-5.1030765,3.316222,7.6897125
1409523170707,-7.16824,2.3002293,9.048885,-5.244583,3.2618353,7.6174254
1409523170721,-13.4422455,4.401141,9.750985,-5.4180837,3.1919444,7.5250406
1409523170739,-10.005369,5.389348,7.0263834,-5.646536,3.132086,7.3808575
1409523170741,-9.552266,6.862979,5.775413,-5.8292336,3.1317053,7.2376
1409523170759,-7.9248075,5.133767,6.0645127,-5.9960794,3.1880753,7.074857
1409523170760,-8.421604,2.532467,6.4936733,-6.1580606,3.2273827,6.916118
1409523170777,-7.9355817,1.5209166,6.5247984,-6.330594,3.2043383,6.7695045
1409523170779,-7.5668745,1.0726024,6.042965,-6.4742737,3.167116,6.650079
1409523170788,-7.3442135,1.6717514,5.3767786,-6.5970235,3.1395366,6.5416346
1409523170813,-6.091448,2.6102784,5.081693,-6.705161,3.1419692,6.4295597
1409523170814,-4.425682,3.3931823,5.8813562,-6.7947145,3.175665,6.318022
1409523170819,-7.4202294,2.5504234,7.125743,-6.8485227,3.221952,6.2359567
1409523170846,-8.573038,2.183512,7.80809,-6.8815355,3.2414656,6.1893272
1409523170847,-7.5016327,2.8072014,8.356362,-6.892109,3.2360458,6.18039
1409523170848,-6.2704144,3.1842883,8.39467,-6.8772964,3.231191,6.199403
1409523170881,-6.0064535,2.8778305,7.9930425,-6.8590755,3.2274384,6.2215033
1409523170882,-6.208165,2.106299,7.4327993,-6.851168,3.2177336,6.235227
1409523170883,-6.3338604,1.5520413,7.0581064,-6.8636637,3.1911652,6.2351418
1409523170888,-6.285378,1.4634558,6.839037,-6.8901277,3.1539092,6.224901
1409523170914,-6.977302,0.21906945,5.837064,-6.917934,3.1160605,6.21311
1409523170915,-7.04015,-0.8702923,6.0118403,-6.951051,3.0745068,6.1968293
1409523170922,-6.664859,-0.5446809,5.8759694,-6.977973,3.0492435,6.1790295
1409523170945,-5.3821654,0.14544775,4.964976,-6.970804,3.0950317,6.164337
1409523170946,-5.8023477,0.092176765,5.063138,-6.9038677,3.2068472,6.182485
1409523170950,-5.9400144,0.24301147,5.993884,-6.8174577,3.323875,6.216471
1409523170976,-5.7377043,1.3640964,6.156091,-6.718535,3.43208,6.265183
1409523170980,-5.270835,2.7665,5.3660045,-6.6131496,3.5411112,6.316421
1409523170981,-4.7740383,3.7588966,3.9498343,-6.4822063,3.653875,6.387533
1409523170988,-4.175488,3.727772,2.7138276,-6.3430142,3.7543383,6.4685006
1409523171011,-3.9839516,2.0560207,1.3263878,-6.2379055,3.8190982,6.5324893
1409523171012,-3.4506433,0.074818805,0.8403648,-6.1838408,3.8319783,6.576203
1409523171020,-2.5971103,-1.0791864,2.1637597,-6.1578507,3.8153055,6.610197
1409523171051,-2.8592753,-2.6431987,3.9456444,-6.144493,3.7488868,6.660438
1409523171052,-2.8323407,-3.4422636,4.9907136,-6.1337233,3.6254644,6.7382364
1409523171053,-2.5881321,-3.4488475,5.389348,-6.108616,3.4518988,6.851248
1409523171083,-2.2212207,-3.107674,6.041768,-6.053568,3.2494376,6.9975605
1409523171084,-2.1577742,-2.89459,6.861782,-5.96185,3.03201,7.1717257
1409523171085,-2.3648727,-2.6970682,7.6764092,-5.8366556,2.8040562,7.3648562
1409523171089,-3.0819361,-2.4492683,8.201937,-5.6776114,2.5662007,7.5729604
1409523171113,-3.8881836,-1.8118122,8.213309,-5.4925113,2.3170648,7.7867785
1409523171114,-4.3520603,-1.0576386,11.404779,-5.304449,2.0603755,7.9867425
1409523171120,-4.8362875,0.34955344,16.95813,-5.1055374,1.7779619,8.181853
1409523171150,-4.905121,0.30226797,13.511678,-4.8902698,1.4608922,8.373855
1409523171150,-5.667674,-0.521936,11.636418,-4.741022,1.1561787,8.506254
1409523171151,-7.290344,-0.4429273,10.753557,-4.6660624,0.8931628,8.579074
1409523171185,-7.8116817,0.3549404,10.78528,-4.67354,0.6882592,8.593876
1409523171186,-6.767211,1.2982559,7.5734587,-4.707377,0.5142527,8.587581
1409523171188,-6.3218894,1.3174095,6.1662664,-4.7449923,0.3833296,8.5737095
1409523171189,-5.9873,0.6853402,7.219715,-4.7829046,0.2765221,8.556737
1409523171210,-6.3500214,0.13227965,8.142081,-4.8025656,0.17061083,8.548488
1409523171211,-6.71813,-0.040102877,9.169194,-4.789784,0.038555503,8.55727
1409523171221,-6.741473,-0.008978256,10.068815,-4.7460895,-0.12149916,8.580808
1409523171240,-6.2913637,-0.05626374,10.59135,-4.6820784,-0.30244187,8.611449
1409523171240,-6.169259,0.013766659,11.5155115,-4.6070557,-0.4961378,8.642874
1409523171257,-6.4882865,-0.011971008,12.226589,-4.5398555,-0.6911232,8.665013
1409523171277,-6.9371996,0.29807812,12.306795,-4.484626,-0.88665336,8.675965
1409523171278,-7.0108213,0.30047232,12.309788,-4.454678,-1.08084,8.669373
1409523171282,-6.971317,-0.11671733,13.092093,-4.4487495,-1.2788546,8.645435
1409523171288,-6.9222355,-0.5303157,14.180258,-4.46514,-1.4728396,8.606025
1409523171312,-6.6445084,-0.84096336,14.330494,-4.484653,-1.6402624,8.565501
1409523171313,-6.1501055,-0.599149,14.253282,-4.488983,-1.7704186,8.537273
1409523171320,-5.239112,-0.3309984,13.268067,-4.481663,-1.8739492,8.519002
1409523171345,-4.2491093,-0.2669535,12.028469,-4.476533,-1.9328347,8.508536
1409523171346,-3.757101,-0.33638534,10.746973,-4.482294,-1.9525663,8.500995
1409523171349,-3.804985,-0.45190558,9.847352,-4.5078716,-1.9458284,8.489007
1409523171386,-3.8576574,-0.5542577,9.272743,-4.5525527,-1.9326445,8.468148
1409523171394,-3.9588125,-0.6925228,9.155427,-4.61286,-1.927911,8.436531
1409523171395,-4.010288,-1.091756,9.515156,-4.681538,-1.9369417,8.396539
1409523171415,-4.2796354,-1.894412,10.550649,-4.7475653,-1.9607276,8.353835
1409523171416,-4.751293,-2.7659016,11.516708,-4.796755,-1.9913743,8.318411
1409523171417,-4.8045645,-3.1130607,11.355699,-4.831003,-2.0256207,8.290276
1409523171420,-4.365228,-3.0753522,10.390836,-4.839833,-2.0553157,8.277807
1409523171439,-3.8247373,-3.1675289,9.8916445,-4.8454566,-2.073784,8.269906
1409523171440,-4.2293572,-3.2573113,9.907805,-4.8687806,-2.0740051,8.256141
1409523171457,-4.9422307,-2.9993362,9.484032,-4.909026,-2.0601113,8.235764
1409523171472,-5.294777,-2.939481,8.845378,-4.9590473,-2.042419,8.210162
1409523171473,-5.2941785,-3.241749,8.309077,-5.02553,-2.02963,8.172823
1409523171486,-4.8757915,-3.4440591,8.202535,-5.104214,-2.0183437,8.126726
1409523171488,-4.189853,-3.210026,8.006809,-5.204933,-2.008767,8.0649805
1409523171502,-3.7187939,-3.044826,7.091027,-5.3169074,-1.9993292,7.9939704
1409523171517,-3.7553053,-3.0759506,6.7731967,-5.435686,-1.996073,7.914506
1409523171521,-3.8804023,-2.871845,6.631939,-5.5589676,-2.002035,7.8268843
1409523171533,-3.9378633,-2.6647465,6.9078703,-5.680074,-2.0123744,7.736762
1409523171540,-4.209605,-2.6994624,7.8829093,-5.782587,-2.0229788,7.6576524
1409523171553,-4.6722846,-3.0909145,8.936956,-5.8501797,-2.0323272,7.6036463
1409523171577,-5.2606597,-3.3746274,9.19553,-5.8935056,-2.0406797,7.567867
1409523171578,-5.774216,-3.3943794,9.306262,-5.892827,-2.0506742,7.5656934
1409523171582,-6.0244102,-3.0897174,9.320028,-5.8620896,-2.0654469,7.585527
1409523171589,-6.0184245,-2.9107506,8.966286,-5.831021,-2.0824115,7.6048107
1409523171608,-5.837064,-2.9113493,8.529344,-5.8211,-2.0986898,7.607935
1409523171609,-5.6425347,-2.843713,7.9810715,-5.8361583,-2.1121628,7.592655
1409523171620,-5.557541,-2.7371712,7.379528,-5.8780966,-2.1186004,7.5584335
1409523171636,-5.680842,-2.7114334,6.7079544,-5.9437757,-2.1207082,7.5062985
1409523171656,-5.837662,-2.8449101,6.2644286,-6.0179944,-2.1180294,7.44769
1409523171657,-5.8424506,-2.9855695,6.1183825,-6.105302,-2.1200922,7.375696
1409523171681,-5.79337,-3.0591912,6.113594,-6.2032137,-2.132735,7.2898536
1409523171682,-5.7658362,-3.0723593,6.027403,-6.310296,-2.155226,7.1906576
1409523171683,-6.18542,-2.9933507,5.9627595,-6.4219465,-2.1828094,7.0826783
1409523171689,-6.9222355,-2.582745,6.742072,-6.5336876,-2.2113197,6.9707522
1409523171709,-7.447763,-2.1906946,7.6788034,-6.6385555,-2.236724,6.8627276
1409523171709,-7.638102,-1.757344,8.1163435,-6.7382007,-2.2622173,6.756435
1409523171720,-7.451354,-1.6298528,7.433996,-6.8332534,-2.2910564,6.650421
1409523171735,-7.21373,-2.1619642,6.6989765,-6.940904,-2.322818,6.5267725
1409523171740,-7.129334,-2.8203697,5.9124813,-7.0732236,-2.3492732,6.3734455
1409523171757,-7.1502833,-3.4769795,5.5300074,-7.2305927,-2.363661,6.188863
1409523171762,-7.0287776,-3.894169,5.2899885,-7.395469,-2.3639503,5.9907556
1409523171770,-7.162853,-4.06715,5.197812,-7.548756,-2.3496995,5.8022046
1409523171796,-7.467515,-4.111443,4.996699,-7.6785803,-2.3288035,5.6379495
1409523171797,-7.6853876,-3.8851907,4.0384197,-7.7975807,-2.2952416,5.486347
1409523171800,-8.118738,-3.8881836,3.020884,-7.899347,-2.2534177,5.3565664
1409523171829,-8.637083,-4.196437,2.236783,-7.991617,-2.2163572,5.233756
1409523171829,-9.050082,-4.3957543,1.7950528,-8.084261,-2.1988428,5.0970807
1409523171830,-9.129091,-4.2060137,1.6717514,-8.1789665,-2.2014735,4.942511
1409523171857,-8.99741,-3.7762547,1.9590555,-8.268663,-2.212572,4.785826
1409523171858,-8.647857,-3.4626143,2.6084828,-8.344499,-2.2210495,4.6482997
1409523171860,-8.108562,-3.1423898,3.3518825,-8.411439,-2.2264636,4.5233793
1409523171869,-7.445369,-2.7629087,3.8881836,-8.460952,-2.2270243,4.4297924
1409523171898,-6.861782,-2.724003,4.6920366,-8.493532,-2.2226474,4.369226
1409523171901,-6.813898,-3.0418332,5.2804117,-8.508719,-2.2177482,4.342081
1409523171901,-7.0090256,-3.107674,5.461174,-8.508603,-2.2186007,4.341875
1409523171920,-7.105392,-2.991555,5.471948,-8.496181,-2.2262852,4.3622203
1409523171921,-7.12694,-2.7844565,5.7227407,-8.477273,-2.238471,4.3926597
1409523171935,-7.299921,-2.552219,5.927445,-8.455858,-2.2517495,4.427017
1409523171952,-7.8517847,-2.3110032,5.8215013,-8.429614,-2.2676332,4.468761
1409523171952,-8.611345,-2.3133974,5.5587378,-8.396405,-2.286658,4.521279
1409523171969,-9.038112,-2.4744074,5.21098,-8.358257,-2.3140624,4.577666
1409523171970,-9.088389,-2.4378958,4.9440265,-8.320902,-2.3501751,4.627057
1409523171984,-8.998009,-2.2780828,4.892551,-8.288532,-2.3841882,4.6675744
1409523171989,-8.762778,-2.132635,4.8285065,-8.259332,-2.4137952,4.703979
1409523172002,-8.371924,-2.231396,4.6884456,-8.2300415,-2.4468431,4.7381177
1409523172016,-7.941567,-2.6258407,4.68246,-8.199609,-2.4859076,4.770439
1409523172020,-7.6931686,-3.442862,5.085284,-8.166875,-2.5394952,4.7982836
1409523172034,-7.98586,-4.313753,4.6279917,-8.128933,-2.6122582,4.8235826
1409523172055,-8.540716,-4.987122,3.4985273,-8.087411,-2.702969,4.84336
1409523172056,-9.116522,-5.6880245,3.104681,-8.050253,-2.8048642,4.8473234
1409523172077,-9.414599,-6.133945,3.3171666,-8.021402,-2.907899,4.8344207
1409523172077,-8.683769,-5.3276973,2.416348,-7.984768,-2.998239,4.83988
1409523172081,-7.8966756,-4.71957,2.2319946,-7.9221907,-3.0703416,4.8971705
1409523172090,-7.071873,-4.161721,2.7575219,-7.8497634,-3.112613,4.9863067
1409523172110,-6.1542954,-3.4195185,3.762488,-7.7514596,-3.1273243,5.128852
1409523172111,-5.3079453,-2.7156234,5.2600613,-7.6218033,-3.1231806,5.322053
1409523172122,-4.1503487,-2.0901382,9.4774475,-7.4463677,-3.1141596,5.5699196
1409523172137,-3.430891,-1.4454993,14.221559,-7.200541,-3.1125755,5.885105
1409523172153,-2.885013,-1.1240777,16.472706,-6.868203,-3.1261492,6.263015
1409523172154,-2.771887,-2.521693,16.490664,-6.4679956,-3.1609454,6.659117
1409523172170,-3.3476925,-4.8536453,14.028226,-6.0521975,-3.2201958,7.0122485
1409523172170,-4.6603136,-6.0609217,9.56304,-5.6464124,-3.2896032,7.312108
1409523172183,-6.351817,-6.6923923,5.837064,-5.2960296,-3.3254442,7.5540633
1409523172189,-7.9649105,-6.7606273,3.5314474,-4.9985127,-3.3145945,7.7587833
1409523172204,-9.431957,-6.229114,3.433884,-4.7585425,-3.266547,7.9281983
1409523172218,-9.380483,-5.1122193,5.5204306,-4.5560975,-3.1940894,8.07528
1409523172220,-6.909666,-3.9228995,7.9667063,-4.339705,-3.1094098,8.226111
1409523172232,-3.1962593,-2.942474,9.454702,-4.049962,-3.020892,8.404904
1409523172252,0.16819267,-2.2080526,9.586982,-3.717938,-2.9546661,8.58005
1409523172252,1.9446903,-2.337938,10.070611,-3.338934,-2.913183,8.748444
1409523172267,1.4257472,-4.144962,10.061633,-2.9452424,-2.8876843,8.897034
1409523172269,0.049679685,-5.321712,9.622895,-2.5529797,-2.8872643,9.01756
1409523172284,-1.0989386,-5.167286,8.282143,-2.1704595,-2.9086056,9.110406
1409523172289,-2.565387,-4.9422307,7.6919713,-1.8230622,-2.927666,9.180175
1409523172302,-3.550601,-4.4286747,7.9906483,-1.5376716,-2.9295068,9.231681
1409523172315,-3.779846,-3.9396589,7.66384,-1.3056298,-2.9196525,9.270456
1409523172320,-3.5452142,-3.933075,7.2646065,-1.0885146,-2.9044986,9.303193
1409523172333,-3.108871,-4.0438066,7.08564,-0.8779831,-2.9012442,9.326431
1409523172349,-2.8179753,-3.9390604,7.681796,-0.6720653,-2.905763,9.342122
1409523172350,-2.2319946,-3.3441012,8.908825,-0.46462944,-2.9069157,9.354377
1409523172377,-1.067814,-2.4378958,9.896433,-0.23211145,-2.906196,9.363254
1409523172378,0.75596917,-1.6448165,10.443508,0.036876902,-2.9172983,9.362606
1409523172381,2.4121583,-1.602918,10.518327,0.32659796,-2.936574,9.35095
1409523172410,2.3678656,-2.6144683,9.749189,0.6174374,-2.9741313,9.324361
1409523172411,1.9602526,-3.5212722,8.886678,0.86786073,-3.0164742,9.290752
1409523172412,1.7543513,-3.9480386,8.32045,1.0699819,-3.0481348,9.259288
1409523172441,1.5358804,-4.0904937,7.9768815,1.2259156,-3.07366,9.231475
1409523172442,1.1713632,-4.305373,8.167819,1.3461995,-3.1027362,9.204953
1409523172443,0.6895301,-4.799776,9.042301,1.4519864,-3.135668,9.177675
1409523172450,0.46866497,-4.5298295,9.680955,1.5627167,-3.1688416,9.148046
1409523172474,0.350152,-3.570952,9.379285,1.6904981,-3.1970425,9.115455
1409523172475,0.1364695,-2.992752,8.752603,1.822352,-3.2186801,9.082375
1409523172483,0.25558102,-3.4422636,9.04709,1.945973,-3.2470765,9.04655
1409523172506,0.98461545,-4.132392,9.435549,2.0289347,-3.2910476,9.01237
1409523172507,1.8668787,-4.2544966,9.111733,2.070061,-3.343366,8.983716
1409523172510,2.44448,-4.18686,8.534731,2.0991287,-3.3865688,8.960759
1409523172521,2.4875755,-4.4663835,8.62152,2.1335123,-3.415028,8.941817
1409523172540,2.7162218,-4.808754,8.504803,2.168894,-3.4382389,8.924394
1409523172543,2.717419,-5.450999,8.65863,2.2053213,-3.455763,8.908684
1409523172549,2.3744495,-5.976526,8.581417,2.242202,-3.4652655,8.895778
1409523172574,2.5396495,-5.865794,7.7649946,2.281727,-3.4654138,8.885664
1409523172574,2.8113914,-6.147113,7.7865424,2.3310616,-3.4634619,8.873611
1409523172581,3.2638955,-6.314707,7.814076,2.3732526,-3.476417,8.857346
1409523172601,3.6715083,-6.2345014,7.7470384,2.3940866,-3.5023618,8.841504
1409523172603,3.9594111,-5.8825536,7.5944076,2.3940172,-3.5288382,8.83099
1409523172622,4.085107,-5.3061495,7.282563,2.3721874,-3.5526872,8.827317
1409523172622,4.345476,-5.2582655,8.123527,2.3461657,-3.5813177,8.822701
1409523172631,4.4597993,-5.6616883,9.539098,2.2952893,-3.6279972,8.817011
1409523172656,4.619612,-5.770026,10.882844,2.2179122,-3.6926517,8.80997
1409523172657,4.365228,-6.019023,11.164762,2.1250608,-3.759534,8.804567
1409523172663,3.4440591,-6.6510925,11.479,2.0150888,-3.8140283,8.806986
1409523172670,2.5923219,-5.9651537,10.998962,1.8755829,-3.8391516,8.826861
1409523172690,2.2697031,-4.3382936,10.2495775,1.7175258,-3.8145397,8.869598
1409523172691,2.0231004,-3.1232362,10.454282,1.5468642,-3.7616465,8.923431
1409523172701,1.4987702,-2.6396074,11.45865,1.3674164,-3.6719635,8.989841
1409523172726,0.5781997,-2.6078842,12.050615,1.1469686,-3.5616176,9.064753
1409523172727,-0.60812724,-2.914342,11.630433,0.8797164,-3.4413455,9.140767
1409523172732,-1.8908207,-3.1573534,10.647614,0.5646636,-3.3182485,9.210905
1409523172755,-2.8766334,-3.293823,10.550649,0.18221681,-3.1922202,9.270756
1409523172756,-3.5362358,-3.1262288,10.8152075,-0.29240036,-3.0570211,9.313405
1409523172761,-4.293402,-2.7617116,10.919954,-0.84215957,-2.924263,9.322545
1409523172770,-5.2409077,-3.132813,11.255741,-1.4219784,-2.7799196,9.296258
1409523172794,-6.5026517,-3.1878796,11.164762,-2.0205903,-2.6333892,9.227831
1409523172795,-7.460931,-2.475006,10.839149,-2.6268122,-2.4872727,9.115026
1409523172802,-8.273164,-1.9363106,10.803237,-3.2312493,-2.3383963,8.958868
1409523172829,-9.346964,-1.7118542,9.846154,-3.8349593,-2.1806755,8.758318
1409523172831,-10.341754,-2.1511903,8.331821,-4.4316154,-2.0075212,8.514754
1409523172832,-9.952697,-2.4061728,6.701969,-4.999235,-1.8179215,8.238519
1409523172863,-8.921992,-2.1829133,5.673061,-5.5046287,-1.6279637,7.95105
1409523172864,-8.101978,-1.6657659,5.4264584,-5.966185,-1.4060646,7.654934
1409523172865,-7.3968863,-0.7445967,4.848857,-6.343817,-1.1509333,7.389298
1409523172870,-7.767389,0.35434186,4.183269,-6.6297507,-0.87192285,7.1733217
1409523172891,-7.9050555,0.8206126,4.7907977,-6.8325176,-0.5861606,7.0102425
1409523172892,-7.2370734,0.8026561,6.4110737,-6.9710655,-0.31258273,6.89035
1409523172903,-5.9639564,1.073201,7.997831,-7.0618486,-0.06989654,6.8041015
1409523172919,-4.9146976,1.6998832,8.426991,-7.1196017,0.15690467,6.742183
1409523172936,-4.7375264,1.8830396,8.534731,-7.16714,0.3556959,6.684009
1409523172937,-5.521628,1.54845,8.158242,-7.2275863,0.52753276,6.607125
1409523172956,-7.074866,0.6931214,7.203554,-7.3276706,0.670783,6.482722
1409523172956,-8.795698,-0.19871874,5.895722,-7.469039,0.7911057,6.305394
1409523172963,-10.116699,-0.7134721,4.137779,-7.632695,0.9008558,6.091044
1409523172971,-11.1653595,-1.0426749,2.9765913,-7.798043,1.0184727,5.8586373
1409523172985,-12.152967,-0.931943,2.5713725,-7.941685,1.1564927,5.635827
1409523173001,-12.394782,-0.23044191,2.907758,-8.050765,1.3038903,5.4456797
1409523173002,-11.426927,1.103727,2.6132712,-8.131304,1.4797271,5.2785115
1409523173021,-9.920973,2.1080947,2.598906,-8.1667385,1.6775218,5.1633983
1409523173023,-8.890269,2.1212628,3.815759,-8.1747055,1.8769759,5.0814896
1409523173030,-8.298902,1.7244238,5.481525,-8.174393,2.0586586,5.011151
1409523173056,-7.6961613,1.3862427,6.163274,-8.165505,2.2126365,4.959752
1409523173057,-7.0449386,1.055843,5.5910597,-8.140338,2.3456116,4.9399786
1409523173061,-6.5367694,0.6799533,4.560954,-8.10706,2.4719834,4.9330773
1409523173070,-6.332065,0.5734113,3.9959226,-8.07449,2.606648,4.917153
1409523173092,-6.031593,0.8678981,3.417723,-8.041287,2.7551386,4.890531
1409523173093,-5.73112,0.9415198,3.4853592,-7.997209,2.9113429,4.8722816
1409523173102,-6.9449806,-0.85413146,8.945934,-7.9360294,3.0585964,4.882091
1409523173126,-7.4016747,-0.020949265,10.705673,-7.852554,3.160431,4.951713
1409523173127,-7.245453,2.2158337,9.692925,-7.7507544,3.2582853,5.0477476
1409523173130,-7.0365586,2.9311013,8.051701,-7.621788,3.4065452,5.1453056
1409523173159,-6.630143,2.3187842,4.991312,-7.4790707,3.5785089,5.2371907
1409523173160,-5.4845176,1.6496049,2.2254105,-7.3471546,3.772692,5.287391
1409523173162,-3.1411927,1.1186907,-0.12569559,-7.2457166,3.9678078,5.28455
1409523173170,0.0724246,-0.19512744,4.398747,-7.1685634,4.1390953,5.258324
1409523173190,-2.9538465,0.80564886,2.1308396,-7.1016045,4.2565594,5.2554083
1409523173191,-6.777985,1.4000094,1.0456676,-7.0567346,4.317071,5.2664776
1409523173223,-8.058285,1.9015948,6.8144965,-7.0534654,4.3284307,5.26153
1409523173224,-7.855974,2.2810757,5.1355624,-7.0662503,4.303277,5.265008
1409523173224,-7.9325886,1.5891514,5.93343,-7.0638914,4.286545,5.281795
1409523173231,-8.519168,1.4646529,7.6470804,-7.0401306,4.283671,5.3157406
1409523173254,-8.215703,1.7621324,8.4647,-7.00179,4.298269,5.354456
1409523173254,-6.96174,2.2421699,7.3645644,-6.9513607,4.3379297,5.388075
1409523173264,-5.8891377,1.7962499,6.1524997,-6.882426,4.422341,5.4079113
1409523173280,-6.0525417,-0.28790274,5.137358,-6.803508,4.5530205,5.3993225
1409523173281,-5.7484784,2.154183,5.6096144,-6.7332034,4.705916,5.3561845
1409523173304,-5.0661306,3.1573534,3.7499185,-6.6628065,4.879023,5.288906
1409523173305,-4.7638626,3.697246,4.135385,-6.579254,5.094258,5.1896367
1409523173310,-4.8021703,3.2914288,5.4551888,-6.447429,5.377695,5.0676847
1409523173339,-5.0026846,2.8778305,5.7802014,-6.262661,5.726329,4.9151416
1409523173340,-4.8985367,3.3075895,5.035605,-6.0290694,6.115947,4.734542
1409523173342,-4.040814,4.135385,4.1341877,-5.7580943,6.513843,4.5370255
1409523173350,-2.9825768,4.8380833,4.188656,-5.4723024,6.893447,4.3248916
1409523173376,-1.8171991,5.354632,4.8961425,-5.1999245,7.236244,4.0948677
1409523173377,-2.3906105,5.221155,4.3329067,-4.9415345,7.54769,3.8450003
1409523173384,-3.8121676,4.7919946,3.110068,-4.7439466,7.801208,3.5786173
1409523173405,-5.3163247,5.0080714,1.5562311,-4.623453,7.993703,3.300721
1409523173406,-6.1249666,5.9124813,2.134431,-4.581622,8.130768,3.0116029
1409523173410,-5.903503,6.927623,2.8568811,-4.601095,8.220618,2.7242846
1409523173430,-5.4288526,7.350199,2.6563668,-4.65448,8.274695,2.4567542
1409523173431,-5.2205567,6.9599442,2.445677,-4.72372,8.3024235,2.2195997
1409523173446,-5.023035,6.5146227,1.9458874,-4.800363,8.312229,2.0084207
1409523173451,-5.0104656,6.1782374,1.2246342,-4.9091,8.2906275,1.8266374
1409523173469,-5.828684,6.077681,0.5279215,-5.0557036,8.234559,1.6739988
1409523173483,-7.1371155,6.52001,0.48722005,-5.241244,8.145456,1.5333838
1409523173484,-7.7943234,7.289746,1.8501194,-5.453433,8.03056,1.3930432
1409523173501,-8.515577,8.086416,2.0087352,-5.66535,7.904849,1.2599907
1409523173522,-8.91481,8.643666,1.8836381,-5.8563576,7.7852187,1.1242051
1409523173522,-8.3868885,8.986636,2.719813,-6.0145297,7.682465,0.9877111
1409523173523,-7.715315,9.000402,2.059612,-6.145757,7.591394,0.8779326
1409523173530,-6.273407,8.935161,-0.39624038,-6.244638,7.523658,0.75463414
1409523173546,-5.171476,8.822633,-2.1829133,-6.3178477,7.474938,0.6168518
1409523173551,-5.286996,8.662222,-2.6282349,-6.382127,7.431297,0.46330374
1409523173571,-5.9483943,8.833407,-2.2637177,-6.454314,7.37713,0.30025896
1409523173572,-6.381146,9.48044,-2.0177135,-6.5361733,7.3093176,0.15066637
1409523173582,-5.379771,10.659584,-2.5396495,-6.6139507,7.240516,0.031189503
1409523173602,-5.839458,9.883863,-2.5157075,-6.6707673,7.1878996,-0.073136546
1409523173603,-6.5738792,8.494029,-1.7914615,-6.7309833,7.1304293,-0.14574294
1409523173610,-6.889914,7.7201033,-2.5803509,-6.808746,7.0556164,-0.1722247
1409523173629,-4.619612,7.264008,-4.219182,-6.9097824,6.9569106,-0.16337329
1409523173630,-3.098097,6.5469446,-3.8085763,-7.017834,6.848538,-0.13380057
1409523173646,-8.255806,5.9651537,-0.98820674,-7.133566,6.7288,-0.076564185
1409523173651,-9.65821,6.303933,1.5310919,-7.291455,6.5577607,0.02932254
1409523173670,-10.262746,6.279991,0.6805518,-7.468495,6.352976,0.17804654
1409523173671,-10.220248,5.0212393,-2.046444,-7.63943,6.1421976,0.28788814
1409523173684,-9.097368,4.5274353,0.023942016,-7.7900424,5.9475155,0.3356968
1409523173703,-8.377911,6.2129536,0.98820674,-7.905958,5.790281,0.37265024
1409523173704,-7.9182234,7.690176,0.24121583,-7.9782915,5.684679,0.44908935
1409523173711,-7.7494326,8.1480665,1.5915456,-8.015081,5.6225467,0.5619751
1409523173737,-8.346188,8.743625,2.3289597,-8.037641,5.577125,0.6800141
1409523173738,-9.167398,8.671799,1.733402,-8.063293,5.5247197,0.79445934
1409523173744,-10.132261,7.0700774,2.1410148,-8.104479,5.4476624,0.9004408
1409523173751,-11.616068,4.6154222,2.3870192,-8.16197,5.343641,0.9990818
1409523173775,-10.408792,4.3837833,1.7429788,-8.244116,5.1969314,1.0940058
1409523173776,-8.465898,5.1876364,1.246182,-8.323564,5.0461454,1.1937761
1409523173782,-6.867169,3.9731777,0.8882488,-8.390667,4.9044228,1.3091081
1409523173803,-7.855376,2.8365304,2.1888988,-8.461126,4.745055,1.4367285
1409523173804,-7.9086466,2.5498247,2.5611973,-8.543735,4.5465784,1.5822903
1409523173811,-7.991845,2.9317,2.6420016,-8.632152,4.315851,1.7406267
1409523173839,-8.39886,3.7421372,3.2070332,-8.712829,4.078537,1.9032922
1409523173840,-8.348581,4.413711,3.4446578,-8.782932,3.84198,2.0663207
1409523173842,-8.611345,4.8039656,2.7970262,-8.844189,3.6111956,2.2158477
1409523173852,-8.506598,5.133767,2.4019828,-8.901195,3.3865056,2.3389509
1409523173874,-8.244433,4.871602,1.9536686,-8.950539,3.1790879,2.439601
1409523173875,-7.9972324,4.036624,2.259528,-8.990733,2.991904,2.5269787
1409523173882,-8.263587,3.333926,3.2004492,-9.019079,2.8202293,2.6216211
1409523173907,-8.847773,2.658761,3.863643,-9.037464,2.6470773,2.7363498
1409523173908,-9.396045,1.8207904,4.748899,-9.047908,2.4629102,2.8705115
1409523173910,-9.622895,1.1815386,5.159505,-9.055332,2.2498906,3.0181682
1409523173937,-9.73662,0.919972,5.1421466,-9.054411,2.0135646,3.1833272
1409523173938,-9.264363,1.1043255,4.9781437,-9.040455,1.7705425,3.362402
1409523173942,-8.167819,1.8267759,4.697424,-9.008374,1.5429817,3.555109
1409523173953,-7.7470384,2.5378537,4.3143516,-8.957154,1.3474529,3.758212
1409523173977,-7.371747,2.77069,3.9995139,-8.892989,1.1902518,3.9583385
1409523173978,-6.9461775,2.4774003,3.5248635,-8.826025,1.0547343,4.1423664
1409523174006,-7.277775,1.560421,3.1956608,-8.755615,0.95286655,4.312962
1409523174007,-7.81228,0.16340427,3.5895069,-8.684573,0.88365567,4.468525
1409523174008,-7.835025,-0.7565677,4.631583,-8.605273,0.8416331,4.627235
1409523174011,-7.2149267,-0.7230489,5.336077,-8.512205,0.8245415,4.7992587
1409523174043,-6.932411,-0.2908955,5.209184,-8.410809,0.84312606,4.971701
1409523174045,-7.5124063,-0.013766659,5.42167,-8.312533,0.901906,5.124328
1409523174045,-8.045714,0.46327803,6.1303535,-8.220298,0.98731464,5.255691
1409523174051,-7.5644803,1.0193313,6.633734,-8.121037,1.0836024,5.389337
1409523174072,-7.295731,0.80445176,6.5744777,-8.010147,1.1880118,5.531416
1409523174073,-7.2340803,0.39504328,6.2243257,-7.875914,1.2881337,5.6992183
1409523174082,-7.0754647,0.4758476,5.993884,-7.7252855,1.3731753,5.8825793
1409523174110,-6.8210807,0.5602432,6.3979053,-7.5703664,1.4421812,6.0646563
1409523174112,-6.497265,0.4878186,6.985682,-7.4222555,1.4969033,6.2321587
1409523174113,-5.8867435,0.16400282,6.76362,-7.284752,1.5393361,6.382259
1409523174146,-6.172252,-0.40162733,6.8563952,-7.16047,1.5836893,6.5107594
1409523174147,-6.8707604,-0.14185645,7.1700354,-7.055105,1.610544,6.6183105
1409523174148,-6.099229,0.8487445,6.429629,-6.9598722,1.62705,6.714408
1409523174152,-6.9264255,1.3569138,5.683835,-6.888616,1.6408873,6.784162
1409523174171,-6.425439,2.0679917,5.79337,-6.8507295,1.6473227,6.820867
1409523174171,-5.619191,2.7850552,6.1501055,-6.825625,1.6430846,6.8470078
1409523174182,-4.6273932,3.2441432,5.1289787,-6.784972,1.6271062,6.8910866
1409523174211,-4.5178585,2.6330233,4.3478703,-6.7219725,1.5900975,6.9611106
1409523174212,-5.9250507,1.0151415,5.1247888,-6.6520166,1.5311375,7.041072
1409523174213,-7.597999,-0.11432313,7.551312,-6.5911393,1.413951,7.12236
1409523174241,-8.182184,-0.16879122,9.687539,-6.532767,1.2383251,7.2083216
1409523174242,-8.168418,-0.20290859,10.452486,-6.455153,1.0435137,7.3083835
1409523174243,-8.7053175,-0.2633622,11.1174755,-6.361572,0.8727004,7.412098
1409523174268,-9.105149,-0.46627077,10.19092,-6.2767234,0.7427168,7.4981
1409523174269,-8.597578,-0.1592144,8.565256,-6.226265,0.6578208,7.5479326
1409523174271,-8.106767,0.55844754,6.8127007,-6.213192,0.62604284,7.561395
1409523174307,-7.3753386,1.347337,5.024831,-6.2343497,0.6249705,7.544049
1409523174308,-6.4727244,1.9698294,3.7954082,-6.265023,0.6690166,7.514805
1409523174309,-6.002862,1.270124,4.9374423,-6.299106,0.73805815,7.479768
1409523174311,-5.9358244,-0.2088941,5.4761376,-6.313816,0.8008026,7.4608865
1409523174338,-5.5946507,-0.27114335,6.791752,-6.2875075,0.83585125,7.4792385
1409523174339,-5.6551046,0.15023616,8.008006,-6.214386,0.8555346,7.5378942
1409523174345,-5.8023477,-0.20290859,9.331401,-6.117332,0.8720536,7.6149964
1409523174370,-0.66379243,1.5173253,5.6820393,-6.011967,0.8825383,7.6972566
1409523174371,-0.7493851,1.0486604,5.6341553,-5.9081297,0.90074724,7.775156
1409523174372,-5.0918684,0.14724341,7.7224975,-5.8465505,0.906849,7.820861
1409523174385,-6.357204,1.0618285,9.424176,-5.8649454,0.866127,7.811698
1409523174428,-8.0127945,1.3006501,9.9233675,-5.9321136,0.75407225,7.7725024
1409523174431,-8.953117,1.0630256,10.202292,-6.0124187,0.60942703,7.7233295
1409523174436,-7.294534,0.57281274,8.909423,-6.0810876,0.4989634,7.6773562
1409523174438,-7.838018,-1.1994951,8.554482,-6.119136,0.45721608,7.6496744
1409523174440,-7.9026613,-0.5530606,8.24563,-6.134262,0.43624258,7.6387763
1409523174479,-7.583634,0.83258367,6.5098343,-6.141185,0.45692778,7.632002
1409523174481,-7.6919713,1.5388732,6.1195793,-6.156547,0.4751849,7.618499
1409523174483,-7.4495587,1.8100165,6.752846,-6.194088,0.4822262,7.587563
1409523174485,-6.570288,1.6274586,7.0946183,-6.238369,0.48447105,7.5510554
1409523174486,-6.033987,1.1306617,7.5213847,-6.2597103,0.48263404,7.5334907
1409523174510,-6.154894,0.5470751,8.29531,-6.2456946,0.48361194,7.5450516
1409523174511,-6.213552,0.30166942,8.783728,-6.208097,0.48341218,7.57603
1409523174511,-5.897517,0.52612585,8.268375,-6.163448,0.47877648,7.6126914
1409523174527,-6.091448,0.7428011,7.365163,-6.1186047,0.47036856,7.649302
1409523174531,-6.4948707,0.6847417,7.0347633,-6.088875,0.46830958,7.673114
1409523174545,-6.867169,0.79966336,7.264008,-6.0823402,0.47474226,7.6779
1409523174561,-6.845621,1.0007763,7.5243773,-6.098066,0.48746365,7.6646175
1409523174563,-6.332065,0.99060094,7.1155677,-6.125207,0.51044136,7.6414447
1409523174579,-5.8945246,1.0049661,6.728904,-6.1489315,0.5500291,7.619613
1409523174595,-5.7538652,1.0049661,6.8013287,-6.1630616,0.59892744,7.6044955
1409523174596,-5.7502737,1.2665327,7.3507977,-6.173324,0.6634844,7.5908003
1409523174614,-5.5617304,1.460463,7.6734166,-6.1749325,0.74011153,7.582402
1409523174614,-5.507861,1.3186066,7.6309195,-6.159491,0.82911974,7.585751
1409523174630,-5.623381,1.2252327,7.5974007,-6.1263103,0.9303185,7.6008697
1409523174631,-5.699397,1.4580688,7.2711906,-6.085725,1.0442578,7.618653
1409523174646,-5.595249,2.5600002,6.3829417,-6.054232,1.1715597,7.6252284
1409523174663,-5.04159,2.5605986,5.7083755,-6.0453405,1.3179624,7.608365
1409523174664,-4.8015714,2.2972364,5.261258,-6.049536,1.4778984,7.5755734
1409523174680,-4.644751,2.7641058,5.130774,-6.079077,1.6639409,7.5130897
1409523174697,-4.71119,3.192668,5.2259436,-6.117003,1.8788522,7.4311895
1409523174698,-5.348048,3.1890767,5.568913,-6.150451,2.1177385,7.3387685
1409523174713,-5.9250507,3.2345665,5.45878,-6.1777616,2.374693,7.236469
1409523174714,-5.997475,3.7588966,4.296395,-6.202862,2.6497407,7.1185513
1409523174727,-6.0327897,4.095282,4.844667,-6.229411,2.9440901,6.978336
1409523174731,-5.8226986,3.5817258,7.2328835,-6.252062,3.241254,6.8246884
1409523174744,-5.2199583,2.6270378,6.355408,-6.262213,3.5118575,6.679964
1409523174761,-4.9278655,2.854487,6.145317,-6.2572765,3.729061,6.5658956
1409523174765,-4.8123455,3.7786489,7.28376,-6.2422366,3.9075994,6.4757643
1409523174780,-3.4356794,3.3967736,5.4258595,-6.2515645,4.066221,6.3682165
1409523174796,-2.8389246,3.8786068,3.7403417,-6.3003297,4.231092,6.210806
1409523174796,-3.1872811,5.3743844,2.4127567,-6.370466,4.456619,5.977131
1409523174813,-3.7427359,5.993285,1.9554642,-6.445973,4.755587,5.657226
1409523174813,-4.19943,6.06571,1.4526819,-6.5110946,5.0752254,5.293215
1409523174827,-4.8165355,6.2847795,2.0919337,-6.539729,5.405224,4.9179134
1409523174832,-5.043386,6.59004,2.5061307,-6.52443,5.733731,4.55264
1409523174844,-4.932654,6.7809777,2.5528176,-6.4602857,6.053696,4.217564
1409523174862,-4.9877205,6.823475,2.9299042,-6.352222,6.361497,3.9180386
1409523174863,-5.227141,7.0395517,3.2770636,-6.2123995,6.652938,3.6489575
1409523174875,-5.3642087,7.413047,2.9538465,-6.0489464,6.9295244,3.4003422
1409523174909,-5.571906,7.8410106,2.475006,-5.8688555,7.1945415,3.1568182
1409523174910,-5.855619,8.343194,2.5019407,-5.675118,7.449482,2.9100919
1409523174910,-5.7377043,8.709507,2.3768437,-5.473267,7.689134,2.6628833
1409523174912,-4.52145,9.551667,-0.12090719,-5.2613196,7.913417,2.422132
1409523174929,-4.819528,9.61691,0.17298107,-5.035623,8.12781,2.1798155
1409523174944,-5.1900306,9.433155,1.0121487,-4.81559,8.313157,1.9677181
1409523174946,-5.2528787,9.356541,1.2030864,-4.6162395,8.460572,1.8109244
1409523174970,-5.047576,9.454702,1.2114661,-4.433564,8.577395,1.7152835
1409523174971,-4.999093,9.653421,1.2904748,-4.2498636,8.680895,1.6586424
1409523174972,-4.917092,9.920375,1.4927847,-4.074226,8.769486,1.6331564
1409523175003,-4.626795,9.977836,1.6777369,-3.8995042,8.848354,1.6342813
1409523175003,-4.560954,10.083779,2.2152352,-3.720009,8.922072,1.6518339
1409523175006,-4.474763,10.398018,2.8491,-3.5320024,8.992766,1.6809216
1409523175013,-4.4795513,10.64881,2.8383262,-3.3320396,9.062218,1.7158377
1409523175038,-4.6154222,10.845734,2.5474305,-3.1247582,9.130602,1.743101
1409523175038,-4.8482585,10.984597,1.9883845,-2.9162896,9.195789,1.761564
1409523175043,-5.4378304,11.291056,1.3329718,-2.7185462,9.2579775,1.7520733
1409523175068,-5.9280434,11.431116,0.91937345,-2.5463228,9.313114,1.7182993
1409523175069,-6.0585275,11.23958,0.80445176,-2.4085045,9.357745,1.6739419
1409523175072,-5.7790046,10.730812,1.0097545,-2.304506,9.390694,1.6353964
1409523175101,-5.6826377,10.692505,0.79367787,-2.228752,9.411945,1.6181287
1409523175102,-5.662287,10.433931,1.2144588,-2.1768744,9.421788,1.6314181
1409523175104,-5.266645,10.454881,2.3211784,-2.1427164,9.417694,1.6988822
1409523175112,-5.046977,10.511743,3.0759506,-2.1043117,9.405554,1.8104756
1409523175135,-4.8739963,10.351331,3.4733882,-2.0789871,9.378378,1.973379
1409523175136,-4.823119,10.246585,4.489128,-2.0611331,9.335707,2.1832738
1409523175144,-4.7189717,10.305841,5.515642,-2.0569685,9.274551,2.4335132
1409523175168,-4.2383356,10.216059,4.8943467,-2.0654807,9.194991,2.7122521
1409523175170,-4.2239704,10.089166,3.9522285,-2.0803063,9.106497,2.985708
1409523175172,-4.5555673,9.972448,4.213795,-2.1102695,9.013639,3.2359636
1409523175205,-4.7680526,9.6528225,4.573524,-2.166447,8.911893,3.472041
1409523175206,-4.8536453,9.340978,4.7046065,-2.230927,8.802897,3.7016687
1409523175207,-4.619014,9.25359,4.477157,-2.30281,8.688082,3.922331
1409523175212,-4.3993454,9.159617,4.5166616,-2.3618767,8.5745945,4.131374
1409523175232,-4.3382936,8.7538,5.155315,-2.401703,8.464874,4.3299093
1409523175233,-4.35625,8.293514,5.9956794,-2.4242795,8.354544,4.5271225
1409523175246,-4.039018,7.8703394,6.582259,-2.42645,8.241406,4.728842
1409523175266,-3.7612908,7.541735,7.095815,-2.3981042,8.127302,4.9362397
1409523175267,-3.466804,7.37055,7.4046674,-2.347855,8.011843,5.1447396
1409523175272,-3.1735144,7.277176,7.5944076,-2.277226,7.8971047,5.3498006
1409523175302,-2.942474,7.1664443,7.9409685,-2.200365,7.7828794,5.545772
1409523175303,-2.7694929,6.839037,8.057686,-2.131852,7.668067,5.729429
1409523175306,-2.5486276,6.4751186,7.988254,-2.0816343,7.5543118,5.896571
1409523175313,-2.232593,6.2901664,7.1700354,-2.0566273,7.4424834,6.0456686
1409523175334,-2.2014685,6.337452,6.4380083,-2.0644257,7.336088,6.171737
1409523175334,-2.3127987,6.4152637,6.25964,-2.113916,7.2317185,6.2772593
1409523175344,-2.5270798,6.3177,6.1608796,-2.2063706,7.1263056,6.365381
1409523175369,-2.6970682,6.23091,6.1542954,-2.317842,7.018176,6.4454026
1409523175370,-2.7449522,6.211756,6.297349,-2.4519494,6.9118443,6.510357
1409523175373,-2.7485435,6.293758,6.384139,-2.5928597,6.8136945,6.5590425
1409523175401,-2.5318682,6.4990606,6.715736,-2.7266421,6.7311716,6.5899262
1409523175403,-2.2421699,6.589442,7.1089835,-2.8441775,6.664798,6.607687
1409523175404,-2.2337902,6.5828576,7.2670007,-2.9436855,6.6094584,6.61968
1409523175416,-2.456451,6.634333,7.2071457,-3.0347183,6.5566854,6.631045
1409523175455,-2.8299465,6.643311,6.703765,-3.121496,6.505476,6.6411924
1409523175457,-3.2585084,6.5882444,6.035184,-3.211458,6.4511104,6.6513233
1409523175458,-3.3806129,6.441001,5.6341553,-3.3125277,6.391804,6.6590085
1409523175459,-3.549404,6.156091,5.3995233,-3.4250906,6.32625,6.6646614
1409523175505,-3.6661212,5.9681463,5.153519,-3.547174,6.2528987,6.6700234
1409523175506,-3.7128084,5.9807158,5.5521536,-3.6804888,6.1715827,6.673527
1409523175506,-4.1335893,6.120178,5.2852,-3.8267152,6.083019,6.672595
1409523175507,-4.5220485,6.2871737,4.620809,-3.988204,5.9933023,6.6591997
1409523175509,-5.143344,6.327875,4.1916485,-4.16737,5.905942,6.627463
1409523175513,-5.3145294,6.5643024,4.635773,-4.3680215,5.825768,6.568957
1409523175536,-5.0906715,6.851607,5.4701524,-4.5706944,5.759686,6.4888496
1409523175537,-5.21517,6.9587474,5.86759,-4.7501974,5.712154,6.401353
1409523175546,-5.1966147,6.7803793,5.9597664,-4.8919983,5.683994,6.319095
1409523175565,-5.273229,6.7013707,5.8226986,-4.994368,5.670195,6.2510448
1409523175566,-5.535394,6.567894,5.357625,-5.0613074,5.660934,6.2054324
1409523175584,-5.6856303,6.3248825,5.1840453,-5.1159954,5.654233,6.166575
1409523175617,-5.6335564,6.199187,5.6976013,-5.2026434,5.5663366,6.1740417
1409523175618,-5.5551467,6.097433,6.353613,-5.2026434,5.5663366,6.1740417
1409523175618,-5.5270147,5.9023056,6.5391636,-5.2026434,5.5663366,6.1740417
1409523175619,-5.6179943,5.602432,6.211158,-5.2298217,5.500848,6.2096725
1409523175624,-5.864597,5.2049947,5.6281695,-5.2740617,5.418827,6.2442746
1409523175645,-6.0118403,4.8380833,5.1182046,-5.348539,5.3243613,6.262165
1409523175646,-6.2195373,4.5783124,5.1343656,-5.4520965,5.2255473,6.256092
1409523175674,-6.4787097,4.3688197,4.8285065,-5.5710096,5.121998,6.2369375
1409523175675,-6.618172,4.2538977,4.032434,-5.708531,5.0209126,6.1946344
1409523175676,-6.619968,4.390966,4.084508,-5.8553967,4.93243,6.1282835
1409523175704,-6.75943,4.525041,4.5938745,-6.001984,4.8667254,6.0383396
1409523175704,-6.9006877,4.559159,4.9440265,-6.144147,4.8231335,5.9293537
1409523175705,-7.037756,4.619014,5.139154,-6.2758365,4.7980747,5.810572
1409523175712,-7.1993647,4.684854,5.3037553,-6.3933744,4.784531,5.692399
1409523175728,-7.4471645,4.6273932,5.2037973,-6.500937,4.787789,5.566442
1409523175754,-7.5321584,4.577115,4.7866077,-6.5919247,4.8082476,5.4403744
1409523175754,-7.493851,4.5860934,4.2036195,-6.6667523,4.8409038,5.3188763
1409523175755,-7.369353,4.724957,3.8163576,-6.7301607,4.879741,5.202256
1409523175782,-7.2029557,4.912902,3.9989154,-6.7865167,4.9180174,5.091826
1409523175783,-7.267599,4.972757,4.5046906,-6.837964,4.949974,4.9910307
1409523175787,-7.16405,5.0930657,5.053561,-6.8869667,4.9701967,4.902777
1409523175793,-7.2460513,5.406706,5.141548,-6.933136,4.9846444,4.822378
1409523175817,-7.465121,5.6467247,4.7758336,-6.9820714,4.9912605,4.7443004
1409523175818,-7.73806,5.759252,4.073136,-7.042684,4.991652,4.6534286
1409523175824,-8.2354555,5.442619,4.019266,-7.1188684,4.9854994,4.542788
1409523175850,-8.541314,4.9428296,4.2874165,-7.2053814,4.9683123,4.4236574
1409523175850,-8.673594,5.1463366,3.4404678,-7.2896447,4.9387827,4.317395
1409523175853,-8.863335,5.568913,2.7377696,-7.364114,4.906187,4.227238
1409523175881,-8.99741,5.431845,3.6367924,-7.4319305,4.8717303,4.1476564
1409523175882,-8.462905,5.1571107,4.2676644,-7.4948425,4.8293138,4.0835595
1409523175885,-7.7877398,4.8069587,4.281431,-7.549539,4.77566,4.0457296
1409523175893,-7.0700774,4.402937,4.225766,-7.586948,4.719033,4.0421934
1409523175916,-6.3033347,4.0659533,4.4220905,-7.611723,4.664447,4.058941
1409523175917,-5.5431757,3.8163576,4.724957,-7.6305914,4.616296,4.078513
1409523175925,-4.872799,3.918111,4.7040076,-7.6422663,4.582297,4.094961
1409523175950,-4.68246,3.9031472,4.4244847,-7.641219,4.5707483,4.1097956
1409523175953,-5.0020857,3.4560301,3.8977604,-7.632523,4.571557,4.125026
1409523175954,-5.5006785,3.0131028,3.3782187,-7.6158223,4.591724,4.133487
1409523175990,-6.0124393,2.7802668,3.0651767,-7.593729,4.6245894,4.1374917
1409523175991,-6.145916,2.8790276,2.8550856,-7.5661793,4.6669626,4.140384
1409523175992,-6.0345855,3.2267854,2.6042929,-7.526228,4.722989,4.149657
1409523175993,-5.8244944,3.7457285,2.8975825,-7.4617968,4.8030505,4.174049
1409523176017,-6.053739,3.7684734,3.7780502,-7.363465,4.912573,4.2209477
1409523176018,-6.4924765,3.6984432,4.602853,-7.2312384,5.0434976,4.2944984
1409523176027,-8.188768,2.1505916,3.9372647,-7.072542,5.179081,4.396208
1409523176061,-7.961918,1.6047137,6.8001313,-6.907644,5.3194656,4.4897804
1409523176062,-6.7959414,5.7245364,5.5521536,-6.7081084,5.474931,4.6039977
1409523176063,-6.347627,7.281366,3.9270895,-6.45067,5.7034097,4.6936526
1409523176091,-5.6982,8.944139,4.383185,-6.1525865,5.973427,4.757546
1409523176097,-5.2462945,10.163984,5.2319293,-5.836408,6.2589936,4.7887087
1409523176098,-4.5124717,10.760739,6.14831,-5.530077,6.535077,4.7834516
1409523176099,-3.7660792,10.197504,6.38354,-5.220779,6.7924557,4.772464
1409523176120,-3.4931402,8.893262,6.489484,-4.94457,6.9977684,4.7699966
1409523176121,-3.6463692,7.7213006,5.9477954,-4.7306695,7.1373167,4.7801538
1409523176125,-4.080917,6.7534447,5.2061915,-4.5949125,7.219901,4.78855
1409523176147,-4.4400473,6.4840965,4.325724,-4.5275426,7.264444,4.7853537
1409523176148,-4.819528,6.615179,3.7373488,-4.503613,7.2925086,4.7652044
1409523176153,-5.0104656,7.1550717,3.4763808,-4.4994287,7.3175325,4.7306695
1409523176195,-4.943428,7.6488757,3.594894,-4.495597,7.346919,4.68858
1409523176196,-4.754286,7.93199,4.188656,-4.4839535,7.379937,4.6476955
1409523176196,-4.755483,7.9505453,4.6471453,-4.4572825,7.416472,4.6150794
1409523176199,-4.8338933,7.835025,5.0547585,-4.41663,7.45175,4.597302
1409523176208,-5.046977,7.7691846,5.1020436,-4.367383,7.478895,4.6002717
1409523176214,-4.6722846,7.515998,5.0876784,-4.3194737,7.4940596,4.62078
1409523176225,-4.799177,7.4124484,4.710592,-4.2800817,7.4975605,4.651654
1409523176250,-5.058948,7.141305,4.1491513,-4.2567234,7.4931483,4.6801085
1409523176251,-5.3223104,6.6893997,4.079121,-4.247762,7.4869065,4.698206
1409523176253,-5.5264163,6.743269,4.2940006,-4.2453065,7.4793024,4.712515
1409523176287,-5.6563015,6.8773446,4.2676644,-4.243239,7.4762583,4.719202
1409523176294,-5.677251,7.482479,4.4125137,-4.2264028,7.4853716,4.719863
1409523176299,-5.54138,8.001422,5.088876,-4.1816926,7.5135164,4.7149653
1409523176300,-6.009446,8.103176,5.6102133,-4.104282,7.5602036,4.708353
1409523176334,-5.864597,7.69257,6.427833,-4.003741,7.6186833,4.70065
1409523176335,-5.01286,7.7009497,6.0046577,-3.8830767,7.685069,4.6938076
1409523176338,-3.815759,7.715315,5.309142,-3.7473838,7.76173,4.6779323
1409523176339,-2.349909,7.5525093,5.112818,-3.590437,7.861366,4.6344466
1409523176345,-1.6717514,6.811504,5.205593,-3.4155421,7.976628,4.5692306
1409523176358,-1.1994951,5.1487308,4.7614684,-3.2470222,8.095506,4.48219
1409523176378,-1.2018893,4.168904,4.533421,-3.0944605,8.215689,4.37003
1409523176379,-1.22224,3.2531216,3.6894648,-2.9505515,8.337823,4.236197
1409523176388,-1.5783775,2.3540988,2.8431146,-2.8204803,8.459807,4.0800653
1409523176393,-1.5765818,2.083554,2.56419,-2.710635,8.580538,3.8983612
1409523176427,-1.9219455,1.3611037,2.1613655,-2.614201,8.696999,3.7011528
1409523176428,-2.1829133,0.7763199,1.6154876,-2.5350816,8.811123,3.4796355
1409523176429,-1.7465701,0.47285482,1.4879963,-2.4717379,8.922601,3.2323532
1409523176451,-1.2862848,0.050876785,1.292869,-2.414719,9.032393,2.9589508
1409523176451,-0.86131406,-0.14305355,0.8924387,-2.352828,9.140894,2.6605742
1409523176453,-0.6889315,0.45190558,0.7338228,-2.2887125,9.244167,2.3404174
1409523176478,-1.4030021,0.9780314,-0.11971009,-2.2267966,9.3383465,2.0017664
1409523176478,-2.3050177,3.4380736,-1.0600328,-2.1715925,9.419854,1.6495255
1409523176485,-2.9909565,6.63972,-1.5340848,-5.0077085,6.941477,4.78635
1409523176493,-3.555988,6.493075,0.013766659,-5.0526037,7.495405,3.8026953
1409523176510,-2.9532478,7.3166804,1.1510124,-5.0839067,7.7330575,3.2440856
1409523176536,-2.4169466,13.763068,2.2463598,-4.9106526,7.946117,2.985818
1409523176537,-4.8141413,19.608511,5.683835,-4.230497,8.433916,2.6725166
1409523176538,-8.648455,19.608511,10.618284,-3.7382004,8.67281,2.6417093
1409523176562,-12.715007,19.608511,3.0053217,-3.876705,8.665822,2.458674
1409523176562,-9.192537,19.608511,-4.7961845,-4.0507746,8.656151,2.1983306
1409523176567,-1.6244658,18.55207,-5.877765,-4.142326,8.680063,1.9152048
1409523176573,1.7178397,11.133038,-3.8600516,-3.5029209,9.1102705,0.9502159
1409523176597,2.0697873,6.049549,-1.7860745,-2.8912003,9.344493,0.70128846
1409523176598,2.0578163,3.892972,-0.7374141,-2.5397892,9.450942,0.63210416
1409523176605,1.6717514,3.6379895,-0.095768064,-2.3014314,9.513208,0.61045146
1409523176623,1.6813282,7.3627687,0.9391256,-2.0974078,9.559392,0.6239453
1409523176627,1.7615339,11.225215,4.0001125,-1.8002827,9.611705,0.7378854
1409523176643,2.1338322,14.066533,6.3721676,-1.435143,9.632084,1.1548694
1409523176666,3.4386723,14.367006,6.2087636,-1.0770775,9.597278,1.7036817
1409523176667,5.1361613,12.598887,5.659294,-0.639915,9.556645,2.1050966
1409523176668,5.4324436,10.670359,4.0940847,-0.09992373,9.523817,2.3360863
1409523176674,4.724957,9.343372,1.9488802,0.43678632,9.511503,2.3475337
1409523176702,4.386776,8.991425,1.0283096,0.87042296,9.525017,2.1649096
1409523176702,4.7016134,9.374496,0.99179804,1.2082497,9.532795,1.9586633
1409523176705,4.851251,9.549872,1.3581109,1.5405157,9.512896,1.817145
1409523176724,5.149329,9.572019,2.4366987,1.8252132,9.474241,1.7543536
1409523176725,5.146935,9.364322,3.6553473,2.120777,9.400021,1.8199753
1409523176740,4.359243,8.704719,4.335301,2.3891435,9.296432,2.0096705
1409523176755,3.3722332,8.177396,4.695628,2.5663495,9.190112,2.2640903
1409523176755,2.7096379,8.050503,4.985925,2.636939,9.097896,2.5387464
1409523176773,2.348712,8.284536,4.911106,2.6365056,9.0167885,2.8136756
1409523176774,2.1152773,8.626907,4.561553,2.601601,8.950314,3.048599
1409523176790,1.6992847,8.8806925,3.9743748,2.550126,8.913187,3.1972404
1409523176803,1.5616181,9.091382,3.244742,2.4635918,8.91104,3.2702398
1409523176832,1.7932571,9.36911,2.7042508,2.3808525,8.940427,3.2512586
1409523176832,2.1697452,9.715072,2.2762873,2.3363507,8.9819765,3.1679587
1409523176833,2.4013844,10.072407,1.690905,2.3354719,9.025788,3.0415618
1409523176834,2.429516,10.38485,1.033098,2.3506107,9.078097,2.8693497
1409523176857,2.3259668,10.576386,0.41060558,2.3526351,9.142516,2.6551616
1409523176857,2.2140381,10.653599,0.011372458,2.3376808,9.213314,2.412569
1409523176878,1.827973,10.526707,-0.25198972,2.3055031,9.283814,2.160059
1409523176879,1.3449428,10.272921,-0.41838676,2.2385554,9.352796,1.9194953
1409523176885,0.94092125,10.039486,-0.3728969,2.137773,9.419471,1.69525
1409523176910,0.7158663,9.944916,-0.034117375,2.0146935,9.479361,1.501039
1409523176911,0.6596026,10.044274,0.48841715,1.8860339,9.527181,1.3587139
1409523176914,0.6655881,10.213066,1.0324994,1.7649487,9.561665,1.276687
1409523176941,0.59376204,10.313622,1.4939818,1.6543329,9.585074,1.2489736
1409523176942,0.43634325,10.25676,1.7992426,1.5475188,9.601407,1.2603776
1409523176960,0.26396075,10.063428,1.9620483,1.4299904,9.613786,1.3040864
1409523176961,0.091578215,9.876082,2.0518308,1.3103608,9.623752,1.3552663
1409523176965,-0.04369418,9.730635,2.136825,1.1879954,9.63129,1.4132696
1409523176974,-0.08140286,9.668983,2.27928,1.0678259,9.635704,1.4776144
1409523176989,0.04369418,9.687539,2.4995465,0.9588281,9.635387,1.5525337
1409523177026,0.25139117,9.805453,2.6839,0.8747923,9.628431,1.642686
1409523177027,0.45429978,9.859921,2.834735,0.81587654,9.616664,1.7391093
1409523177028,0.59855044,9.815628,2.8682537,0.7845263,9.6005335,1.8397481
1409523177029,0.6913257,9.69532,2.8622682,0.7665397,9.58336,1.9344325
1409523177052,0.7715315,9.606734,2.8323407,0.7563418,9.566258,2.0211535
1409523177053,0.86011696,9.524135,2.8311436,0.752856,9.549728,2.099118
1409523177054,0.9660604,9.512163,2.8365304,0.7589014,9.532801,2.1725955
1409523177074,1.0989386,9.516952,2.8574798,0.77624714,9.515838,2.2397938
1409523177074,1.1953052,9.496002,2.835932,0.80578506,9.498614,2.3016155
1409523177094,1.2677298,9.488221,2.8018146,0.83995855,9.482825,2.3539093
1409523177094,1.3054385,9.551069,2.666542,0.88034433,9.468244,2.3974493
1409523177107,1.3862427,9.607333,2.553416,0.91796273,9.458436,2.4219263
1409523177123,1.4449008,9.665392,2.4797945,0.96044725,9.451851,2.4311428
1409523177125,1.525705,9.725846,2.3295584,1.0036607,9.447342,2.4312134
1409523177138,1.5658079,9.749189,2.183512,1.0493261,9.446174,2.4164264
1409523177156,1.6071079,9.727641,2.0111294,1.094851,9.447942,2.389162
1409523177157,1.6376339,9.709685,1.8417397,1.1405177,9.452464,2.3495824
1409523177175,1.6531962,9.737218,1.7010803,1.1850123,9.459425,2.2990036
1409523177176,1.6466122,9.818023,1.5245079,1.2254457,9.468418,2.2400308
1409523177193,1.6112977,9.872491,1.4568717,1.2609218,9.480465,2.1682441
1409523177195,1.5616181,9.923966,1.4167689,1.2895523,9.492915,2.0957124
1409523177205,1.5292963,9.972448,1.3910311,1.3106062,9.505442,2.0246623
1409523177218,1.5376761,9.979631,1.3892355,1.3254925,9.517604,1.9566978
1409523177235,1.5568297,9.9473095,1.3934253,1.3408059,9.527937,1.8950047
1409523177236,1.5574282,9.881469,1.417966,1.3580515,9.536209,1.8403211
1409523177255,1.5316905,9.818622,1.4556746,1.3731477,9.542724,1.7947985
1409523177255,1.5125369,9.7863,1.4987702,1.3858765,9.547845,1.7573838
1409523177277,1.4939818,9.797073,1.5640123,1.3962747,9.551739,1.727743
1409523177278,1.5143325,9.825804,1.6956934,1.4038036,9.554378,1.7069253
1409523177288,1.5233108,9.824008,1.7699136,1.4116426,9.554522,1.6996409
1409523177307,1.5310919,9.766547,1.7836803,1.4205811,9.553312,1.6989924
1409523177308,1.5741876,9.741408,1.7944542,1.430933,9.5513,1.7016177
1409523177324,1.6196774,9.706094,1.7729063,1.4433306,9.549054,1.7037492
1409523177341,1.6214731,9.672575,1.7908629,1.4603114,9.546424,1.7040143
1409523177342,1.5765818,9.6767645,1.7998412,1.4753364,9.543527,1.7072961
1409523177357,1.5328877,9.703101,1.851915,1.4842613,9.541293,1.7120363
1409523177357,1.4670471,9.73662,1.9057846,1.4865146,9.539263,1.7213752
1409523177370,1.4173675,9.781511,2.03148,1.4806039,9.537807,1.7344872
1409523177374,1.3575124,9.785701,2.123657,1.4694372,9.535352,1.7573335
1409523177386,1.2563573,9.734824,2.1942859,1.4546777,9.532176,1.7865924
1409523177401,1.1007342,9.773131,2.2601264,1.4302108,9.529259,1.8215752
1409523177408,0.96306765,9.801263,2.3080103,1.3926305,9.527868,1.8576027
1409523177422,0.866701,9.791088,2.3235726,1.3451617,9.527523,1.8939971
1409523177437,0.7858967,9.741408,2.3247697,1.2941519,9.527568,1.9289922
1409523177437,0.6985083,9.705495,2.307412,1.2425208,9.527631,1.9623386
1409523177450,0.59974754,9.651626,2.2882583,1.1892598,9.528219,1.9922608
1409523177454,0.60214174,9.661801,2.2852654,1.132067,9.529647,2.0185778
1409523177470,0.6488287,9.6767645,2.2505496,1.0785466,9.530835,2.0421412
1409523177474,0.7074866,9.753379,2.1625626,1.0369287,9.531693,2.0596066
1409523177486,0.7565677,9.910199,2.144606,1.004623,9.53371,2.0662806
1409523177500,0.82360536,9.977836,2.0769699,0.97757196,9.536169,2.0679038
1409523177506,0.81343,9.8677025,1.9788077,0.9566648,9.539484,2.0623884
1409523177516,0.79726917,9.78989,1.9063832,0.9360645,9.543841,2.051649
1409523177535,0.84694886,9.755175,1.9273324,0.91681266,9.548835,2.037059
1409523177536,0.90620536,9.780912,1.9674352,0.90654933,9.552402,2.024895
1409523177551,0.9504981,9.806051,2.0153193,0.9021812,9.554252,2.018098
1409523177554,0.94810385,9.806051,2.0039468,0.9019921,9.554951,2.0148783
1409523177568,0.9044097,9.821015,2.0147207,0.90051854,9.55616,2.0097926
1409523177574,0.90381116,9.862315,2.0003555,0.89533675,9.557532,2.0055737
1409523177589,0.89184016,9.840169,1.9973627,0.891087,9.559048,2.0002432
1409523177602,0.90261406,9.824008,1.9644425,0.8858833,9.560341,1.9963697
1409523177606,0.95109665,9.811439,1.9554642,0.88240594,9.561883,1.9905137
1409523177620,0.9995792,9.758766,1.8962077,0.8846324,9.562962,1.9843382
1409523177640,1.091756,9.718663,1.8710686,0.8916981,9.564201,1.9751763
1409523177641,1.198298,9.69951,1.8034325,0.90641785,9.564939,1.9648777
1409523177656,1.3401544,9.713875,1.75076,0.9289745,9.56612,1.9485216
1409523177657,1.536479,9.76116,1.745373,0.9623294,9.567181,1.9270089
1409523177667,1.775899,9.760562,1.6573862,1.0099124,9.567129,1.9027623
1409523177687,1.9847932,9.77792,1.857302,1.0743971,9.566553,1.8700644
1409523177687,2.1499932,9.911995,2.2158337,1.15635,9.559043,1.8595585
1409523177727,1.7112557,9.944916,2.2762873,1.2322327,9.544839,1.8836192
1409523177728,0.5638345,9.774328,2.204461,1.2546649,9.5375185,1.9057673
1409523177729,-0.15322891,9.69532,2.3385365,1.1690319,9.545906,1.9181927
1409523177729,-0.20290859,9.651027,2.4313118,1.0386955,9.55557,1.9448925
1409523177734,0.07062895,9.631873,2.3732524,0.93524235,9.558104,1.9845296
1409523177760,0.30645782,9.5732155,2.2212207,0.8737971,9.556615,2.0194
1409523177761,0.19931729,9.655217,2.1649568,0.8325869,9.5558405,2.0403643
1409523177770,0.012569559,9.626487,2.1505916,0.7695257,9.558103,2.0544784
1409523177799,-0.16579847,9.670779,2.0332758,0.6977789,9.560232,2.0701365
1409523177800,0.061052144,9.758167,1.8686744,0.6081246,9.565012,2.076326
1409523177801,0.4141969,9.979631,1.8022354,0.5504279,9.571312,2.0633433
1409523177807,0.58897364,10.180744,1.6681601,0.5356617,9.5776005,2.0378993
1409523177826,0.47165772,10.18254,1.5095441,0.54029113,9.586298,1.9953365
1409523177829,0.3286042,10.19451,1.1959038,0.52986443,9.598726,1.9375468
1409523177835,0.22385786,10.044274,0.9828198,0.5040341,9.616183,1.856168
1409523177860,0.15562311,9.958682,0.94570965,0.47394526,9.635462,1.7617092
1409523177861,0.14544775,9.952098,1.2348095,0.44183806,9.652549,1.6743507
1409523177866,0.14425065,10.1460285,1.3587095,0.41443363,9.662306,1.6243378
1409523177904,0.18195933,10.147225,1.3802572,0.38977352,9.669165,1.5892545
1409523177905,0.20231004,10.050261,1.4359225,0.3703335,9.674853,1.5589938
1409523177906,0.27712885,9.982624,1.5993267,0.354113,9.678637,1.5391589
1409523177909,0.37229836,9.89763,1.7004818,0.3462018,9.678625,1.5410233
1409523177929,0.4417302,9.869498,1.7483658,0.3474439,9.67651,1.5539722
1409523177930,0.516549,9.85633,1.7818847,0.3569301,9.673228,1.5721403
1409523177935,0.58657944,9.868899,1.7962499,0.37121874,9.669879,1.5893505
1409523177959,0.6338649,9.859921,1.7848774,0.3909309,9.666802,1.603274
1409523177960,0.6410475,9.8515415,1.8255788,0.41513184,9.66394,1.61441
1409523177967,0.56443304,9.8042555,1.9075803,0.43782064,9.660522,1.6288065
1409523177996,0.44472298,9.743204,1.9853917,0.4506804,9.656053,1.6516443
1409523177997,0.3609259,9.739014,2.0727801,0.45088822,9.65088,1.6815424
1409523177998,0.29987377,9.838373,2.0500352,0.44252282,9.64516,1.7162343
1409523178019,0.28491,9.920375,1.9758149,0.42979866,9.641121,1.7419661
1409523178019,0.23283611,9.944916,1.8417397,0.41687927,9.639305,1.7551054
1409523178055,0.23463176,9.9233675,1.7471687,0.3997557,9.640373,1.7532278
1409523178058,0.15502456,9.873688,1.7016789,0.38415042,9.6426735,1.7440438
1409523178060,0.10235212,9.768343,1.7160441,0.36248335,9.645296,1.7341403
1409523178061,0.032920275,9.669582,1.7405846,0.33810997,9.646878,1.7302585
1409523178085,0.018555064,9.625289,1.7322049,0.34146923,9.64971,1.7137384
1409523178086,0.04309563,9.671378,1.7238252,0.34492666,9.652097,1.699545
1409523178087,0.08140286,9.778519,1.6454151,0.3492311,9.654361,1.6857506
1409523178109,0.16639702,9.846753,1.5646108,0.35446167,9.657014,1.6693788
1409523178110,0.25857377,9.870695,1.4873978,0.3618483,9.659918,1.6509
1409523178115,0.3238158,9.944317,1.4670471,0.37104574,9.662821,1.6317589
1409523178143,0.39504328,9.953894,1.4682442,0.3798048,9.665252,1.6152494
1409523178144,0.4237737,9.722255,1.4227544,0.38767305,9.666875,1.6036361
1409523178147,0.46447513,9.63726,1.5041572,0.39537704,9.668068,1.5945255
1409523178155,0.55964464,9.872491,1.7908629,0.40197074,9.668237,1.5918624
1409523178182,0.54408234,9.883265,1.963844,0.41078505,9.666823,1.5981848
1409523178183,0.44711718,9.796474,2.010531,0.42062956,9.664377,1.6103728
1409523178191,0.46387658,9.930551,2.0147207,0.42870912,9.661664,1.6244606
1409523178210,0.5542577,9.940725,1.8806454,0.43654785,9.658965,1.6383629
1409523178211,0.6338649,9.928156,1.6675615,0.44477412,9.656747,1.6491861
1409523178215,0.7194576,9.959879,1.5029601,0.45281392,9.655263,1.6556782
1409523178263,0.7469909,9.983821,1.4808137,0.46160045,9.654409,1.6582258
1409523178264,0.7158663,9.974244,1.5628152,0.4689783,9.653472,1.6616093
1409523178265,0.6919243,9.949704,1.6705543,0.4742764,9.651866,1.6694196
1409523178267,0.6745663,9.968858,1.6980876,0.47927287,9.649637,1.6808383
1409523178268,0.6679823,9.895834,1.6747441,0.4844386,9.647427,1.6920053
1409523178308,0.6745663,9.841366,1.62686,0.48836043,9.645483,1.7019275
1409523178309,0.6919243,9.818023,1.6106992,0.49151978,9.643821,1.7104207
1409523178310,0.70509243,9.811439,1.608305,0.49490124,9.64223,1.71839
1409523178312,0.6961141,9.835381,1.6651673,0.49745414,9.640684,1.7263074
1409523178316,0.6889315,9.858126,1.7064673,0.499839,9.638968,1.7351848
1409523178365,0.6997054,9.892841,1.7088615,0.50288725,9.637115,1.7445661
1409523178367,0.7086837,9.912594,1.6675615,0.50661564,9.635279,1.7536061
1409523178369,0.6979098,9.96766,1.6292542,0.51057345,9.63357,1.761836
1409523178370,0.6871359,10.070611,1.6124948,0.5139514,9.632,1.769406
1409523178376,0.6961141,10.15381,1.5813702,0.5165832,9.630552,1.7765169
1409523178406,0.6703765,10.150218,1.5059528,0.51910776,9.629153,1.783348
1409523178407,0.59735334,9.942521,1.5394717,0.52120125,9.627803,1.7900118
1409523178414,0.439336,9.8994255,1.4987702,0.5221461,9.626057,1.7991023
1409523178416,0.42796355,9.886856,1.377863,0.52001756,9.624304,1.8090789
1409523178417,0.4333505,9.887454,1.2743138,0.5176017,9.622817,1.8176509
1409523178429,0.3854665,9.860519,1.1857284,0.51578444,9.62201,1.8224379
1409523178436,0.32321724,9.806051,1.1186907,0.51419574,9.621944,1.8232378
1409523178463,0.2705448,9.813833,1.0223241,0.5119871,9.622312,1.8219231
1409523178463,0.27832595,9.846753,1.0043676,0.5085522,9.623605,1.8160435
1409523178467,0.2908955,9.8677025,1.0444705,0.5050088,9.62569,1.8059471
1409523178490,0.30526072,9.84795,1.1695676,0.5017738,9.62821,1.7933728
1409523178491,0.31543607,9.889849,1.3461399,0.49851477,9.6306925,1.7809082
1409523178496,0.32561144,9.964667,1.5161282,0.49502954,9.633036,1.7691652
1409523178542,0.36391866,9.919178,1.6813282,0.49245766,9.635197,1.758082
1409523178544,0.39743748,9.813833,1.8327614,0.49233842,9.636993,1.7482383
1409523178546,0.46387658,9.720459,1.9393034,0.49382922,9.638417,1.7399607
1409523178549,0.54647654,9.612122,2.0165164,0.4978069,9.639739,1.7314836
1409523178550,0.58657944,9.508572,2.0362685,0.5050579,9.640974,1.7224767
1409523178575,0.62728083,9.48044,2.0691888,0.5141262,9.642283,1.7124375
1409523178576,0.6374562,9.507375,2.1092918,0.5247414,9.643552,1.7020404
1409523178577,0.6440403,9.640253,2.1404164,0.53658265,9.644739,1.6916014
1409523178588,0.6817489,9.869498,2.1350293,0.5492045,9.645808,1.6814129
1409523178616,0.7350199,10.063428,2.0763714,0.56195086,9.64685,1.6711996
1409523178617,0.7320272,10.073604,1.9560628,0.5768281,9.647786,1.6606934
1409523178618,0.7380127,9.936536,1.8734628,0.59223175,9.648586,1.6505855
1409523178639,0.7703344,9.677961,1.9189527,0.60727936,9.648837,1.6436338
1409523178640,0.81402856,9.496601,1.982399,0.6223212,9.647836,1.6438886
1409523178647,0.8451532,9.630676,2.0614076,0.6375524,9.645447,1.6520494
1409523178669,0.8750807,9.759963,2.1015105,0.6530124,9.642037,1.6658561
1409523178673,0.95947635,9.807847,2.11827,0.6684058,9.638173,1.6820369
1409523178704,1.0516531,9.86471,2.0733786,0.6847946,9.634104,1.6986817
1409523178705,1.0606314,9.953295,1.9991584,0.7024752,9.629986,1.714731
1409523178706,0.96187055,9.954493,1.951873,0.7197575,9.626153,1.7290237
1409523178726,0.8643068,9.836577,1.9758149,0.73376936,9.622682,1.7424095
1409523178726,0.7248446,9.83957,2.079364,0.74416274,9.619055,1.7579514
1409523178729,0.5398925,9.892242,2.134431,0.75143623,9.615136,1.7762022
1409523178735,0.3800795,9.944317,2.0685902,0.75576925,9.611316,1.7949477
1409523178763,0.29029694,9.993398,1.8956091,0.7576301,9.607971,1.8119855
1409523178764,0.20590134,9.998785,1.6705543,0.7573437,9.605503,1.8251439
1409523178767,0.15562311,10.000581,1.4688427,0.75522333,9.604098,1.8333825
1409523178791,0.14903906,10.050261,1.3575124,0.7518392,9.603586,1.8374616
1409523178792,0.074220255,10.121488,1.3305776,0.7472969,9.603422,1.8401717
1409523178796,-0.05686229,10.127473,1.2521675,0.7405045,9.603158,1.8442893
1409523178834,-0.16579847,10.133459,1.1767502,0.72998166,9.603037,1.8491129
1409523178834,-0.24001873,10.1226845,1.0702082,0.7156658,9.602998,1.8548979
1409523178836,-0.29927522,10.034698,0.9636662,0.69937694,9.603137,1.8603879
1409523178836,-0.31603462,9.895834,0.8912416,0.67992085,9.603359,1.8664439
1409523178861,-0.30166942,9.764751,0.79367787,0.65956664,9.603488,1.8730779
1409523178862,-0.27473465,9.709086,0.7763199,0.6393395,9.603626,1.8793571
1409523178867,-0.26036942,9.79827,0.84575176,0.61941725,9.603741,1.8854434
1409523178890,-0.15682021,9.834782,0.86370826,0.59951603,9.603562,1.8927699
1409523178891,0.035913024,9.812635,0.87208796,0.5801614,9.6031275,1.9009894
1409523178896,0.34117374,9.987412,1.1923125,0.5618942,9.602568,1.9092858
1409523178939,0.40462008,9.81922,1.4287399,0.546478,9.601426,1.9194726
1409523178940,0.38486794,9.528324,1.5753847,0.5308178,9.599911,1.9314109
1409523178941,0.35075054,9.378088,1.726818,0.51533175,9.598208,1.9440163
1409523178942,0.46507367,9.479243,1.9087774,0.499936,9.596776,1.9550797
1409523178965,0.53211135,9.555858,1.9129672,0.48754123,9.595744,1.9632653
1409523178966,0.49081135,9.662399,1.775899,0.4789213,9.595565,1.9662571
1409523178970,0.51595044,9.831191,1.6657659,0.47028354,9.596831,1.962159
1409523179005,0.54049104,9.888053,1.6693572,0.45996964,9.598877,1.9545802
1409523179006,0.5315128,9.840768,1.8166006,0.4486042,9.601471,1.9444463
1409523179007,0.48482585,9.871294,2.094328,0.43670273,9.603627,1.9365017
1409523179008,0.4357447,9.887454,2.3253684,0.42614743,9.604677,1.9336405
1409523179016,0.45250413,9.827001,2.4384944,0.41928867,9.604815,1.9344647
1409523179041,0.5069722,9.862315,2.4570496,0.4178487,9.604601,1.9358267
1409523179042,0.5315128,9.964667,2.4660277,0.42169484,9.604799,1.9340054
1409523179048,0.4997896,10.026319,2.5474305,0.4297586,9.6058035,1.9272367
1409523179072,0.3788824,9.909002,2.5965118,0.43802756,9.607023,1.9192779
1409523179073,0.30645782,9.51755,2.5157075,0.4478747,9.608624,1.9089625
1409523179076,0.2813187,9.57561,2.4510639,0.4594082,9.610642,1.896017
1409523179110,0.320823,9.973047,2.4319103,0.4726599,9.613266,1.8793929
1409523179111,0.29568392,10.206482,2.3798366,0.48811057,9.616517,1.8586946
1409523179112,0.24001873,10.192117,2.2517467,0.50452304,9.620344,1.83435
1409523179116,0.16340427,10.068216,2.0326772,0.5206322,9.624753,1.8065082
1409523179167,0.14724341,9.940127,1.9081788,0.53636783,9.629603,1.7757933
1409523179168,0.14724341,9.877877,1.8231846,0.55126405,9.634626,1.7436968
1409523179168,0.1364695,9.856929,1.8411411,0.56401014,9.639442,1.7127322
1409523179169,0.073621705,9.807847,1.8926164,0.57363456,9.643821,1.6846579
1409523179170,0.01436521,9.837775,2.0111294,0.5806272,9.647492,1.6610745
1409523179183,-0.05626374,10.003573,2.1374235,0.5855299,9.650193,1.6435711
1409523179202,-0.1364695,10.115502,2.2756886,0.5887839,9.651982,1.631858
1409523179204,-0.12150574,10.184934,2.3403323,0.5916066,9.652984,1.6248934
1409523179224,-0.05686229,10.242993,2.3540988,0.59527475,9.653628,1.6197227
1409523179225,-0.01616086,10.354323,2.3475149,0.60026133,9.653769,1.6170398
1409523179228,-0.008978256,10.378864,2.3822308,0.60665363,9.653376,1.6169977
1409523179236,-0.007182605,10.395624,2.4474726,0.61326754,9.65237,1.6205099
1409523179254,-0.089184016,10.307038,2.475006,0.61976945,9.650579,1.6286721
1409523179256,-0.12629414,10.257359,2.35769,0.62580466,9.648068,1.6411926
1409523179269,-0.09995792,10.240001,2.1386206,0.63137835,9.645329,1.6551079
1409523179282,-0.008978256,10.304046,1.9488802,0.63619274,9.642806,1.6679139
1409523179302,0.0796072,10.420763,1.8501194,0.64293873,9.640334,1.6795888
1409523179303,0.11192893,10.503363,1.7286136,0.64938366,9.637578,1.6928599
1409523179321,0.19033903,10.615292,1.5837644,0.654965,9.634407,1.7086924
1409523179322,0.26396075,10.629059,1.4209588,0.65944445,9.630773,1.7273563
1409523179330,0.40521863,10.593145,1.3742718,0.66230625,9.626652,1.7490945
1409523179336,0.51475334,10.33936,1.4227544,0.66553634,9.621568,1.7756398
1409523179354,0.5189432,10.060435,1.5292963,0.6710484,9.615181,1.8078625
1409523179356,0.5057751,9.822811,1.6992847,0.6779358,9.607937,1.8434552
1409523179367,0.45310268,9.679757,1.8884265,0.68532854,9.599672,1.8833499
1409523179384,0.4225766,9.535507,2.0386627,0.6947467,9.590893,1.9241847
1409523179402,0.3716998,9.322423,2.1003134,0.70866907,9.582019,1.9629314
1409523179402,0.39564183,9.1590185,2.0141222,0.72698915,9.573603,1.9969984
1409523179422,0.44951138,9.017162,1.8501194,0.7478417,9.566274,2.02424
1409523179423,0.50397944,9.083003,1.7579426,0.7693881,9.559983,2.0457623
1409523179428,0.5883751,9.252991,1.7884687,0.7905346,9.55402,2.0654683
1409523179452,0.5662287,9.266159,1.8992004,0.81183136,9.548705,2.0817194
1409523179453,0.46447513,9.291298,2.0320787,0.8330124,9.543818,2.095708
1409523179479,0.32142156,9.213487,2.267309,0.8534505,9.53956,2.106851
1409523179481,0.14903906,9.792884,2.259528,0.87222594,9.536233,2.1142113
1409523179483,0.15322891,10.190321,2.0757728,0.88892335,9.535237,2.1117418
1409523179524,0.1436521,10.262147,1.7076644,0.90600425,9.537067,2.0961602
1409523179525,0.12270284,10.544662,1.4083891,0.92354375,9.542037,2.0656707
1409523179526,0.1316811,11.256339,1.2228385,0.93957806,9.548807,2.0267885
1409523179527,0.12090719,11.542446,1.0013748,0.95272684,9.5583105,1.9751995
1409523179528,0.2813187,11.329961,0.842759,0.96272016,9.569267,1.9164224
1409523179556,0.6254852,10.638636,0.7697359,0.971711,9.579865,1.8580503
1409523179557,0.7835025,9.019556,0.78290397,0.98242843,9.58821,1.8087198
1409523179557,0.89423436,7.9667063,0.8798691,0.9937416,9.59342,1.7745833
1409523179587,1.168969,7.814076,1.1198878,1.0041858,9.596212,1.7534903
1409523179587,1.541866,8.054693,1.4862007,1.0179923,9.59729,1.739582
1409523179588,1.816002,8.401254,1.8848352,1.0415119,9.597204,1.72607
1409523179596,1.7705121,9.100361,2.2463598,1.0711358,9.595763,1.7159258
1409523179626,1.4383167,9.66659,2.408567,1.1061013,9.593618,1.7057004
1409523179627,1.1150994,9.717466,2.6156654,1.1366216,9.592151,1.6938455
1409523179655,0.96426475,9.746795,2.7748797,1.157899,9.591428,1.6834939
1409523179656,1.0606314,9.579201,3.0304608,1.2119895,9.581337,1.7027751
1409523179656,1.1432313,9.730635,3.5673606,1.2119895,9.581337,1.7027751
1409523179657,0.75956047,10.346542,3.8923733,1.2119895,9.581337,1.7027751
1409523179668,0.013766659,10.7751045,3.1495724,1.2278116,9.575178,1.725934
1409523179682,-0.60214174,10.667366,2.1051018,1.2261884,9.573178,1.738127
1409523179706,-0.51714754,10.615292,1.3652935,1.2014476,9.577615,1.730959
1409523179707,0.40701428,10.635044,1.4269443,1.1663392,9.584643,1.71601
1409523179709,1.4155718,10.758944,1.7232267,1.146678,9.587384,1.713938
1409523179717,1.9835961,10.658387,1.9440918,1.1556971,9.583325,1.7304972
1409523179741,1.7429788,10.2735195,2.0614076,1.1863745,9.574501,1.7583624
1409523179742,1.1893197,9.856929,2.0919337,1.220995,9.564882,1.7867749
1409523179750,0.7637503,9.566033,2.1865046,1.2482331,9.5563545,1.8133854
1409523179772,0.5069722,9.10455,2.232593,1.2701225,9.549363,1.8349006
1409523179773,0.46507367,8.823831,2.1721394,1.2903222,9.542876,1.8544508
1409523179777,0.46567222,8.765172,2.0638018,1.3101609,9.536084,1.8753643
1409523179810,0.41838676,8.913613,1.9339164,1.3257252,9.529215,1.8991816
1409523179811,0.3549404,9.116522,1.7914615,1.3318921,9.523018,1.9257714
1409523179812,0.28491,9.407417,1.6136919,1.3281343,9.517615,1.9548451
1409523179817,0.2825158,9.586384,1.2671312,1.3152626,9.513648,1.9826695
1409523179857,0.3333926,9.582792,0.9660604,1.2907152,9.511397,2.0094256
1409523179858,0.46447513,9.673173,0.6733692,1.257503,9.510507,2.0345364
1409523179859,0.65301853,10.049063,0.682946,1.2198963,9.510695,2.0564327
1409523179859,0.9020155,10.48002,0.7517793,1.1806896,9.511387,2.076018
1409523179884,1.1474211,10.636241,0.75357497,1.143198,9.512385,2.0923684
1409523179884,1.2012907,10.493188,0.9804256,1.1091393,9.513856,2.1039774
1409523179897,1.3072342,10.375872,1.1133038,1.0805212,9.514971,2.1138122
1409523179898,1.3670892,10.222044,1.252766,1.0525,9.515946,2.1235385
1409523179915,1.3521254,10.232818,1.4891934,1.028551,9.516707,2.1318514
1409523179916,1.316811,10.28549,1.6998832,1.0073212,9.516859,2.141282
1409523179932,1.3587095,10.119094,1.8507179,0.987223,9.51616,2.153715
1409523179947,1.4012065,9.249998,1.8590976,0.968347,9.514558,2.169307
1409523179948,1.5167267,8.48146,1.7962499,0.9529972,9.5120735,2.1869214
1409523179964,1.6358383,8.289325,1.7938557,0.9417647,9.5090475,2.2048812
1409523179984,1.7830818,8.326435,1.863886,0.9329449,9.506664,2.218866
1409523179984,1.903989,8.349778,1.9243397,0.9292311,9.505517,2.2253232
1409523180000,1.9476831,8.437765,1.8806454,0.9327102,9.505854,2.2224286
1409523180001,1.8938135,8.793304,1.839944,0.9431904,9.507895,2.2092323
1409523180024,1.8171991,9.361329,1.917157,0.958677,9.511393,2.1874015
1409523180025,1.8076223,9.883863,2.1733365,0.97826844,9.515205,2.1619997
1409523180028,1.7699136,10.120889,2.6048915,1.0032114,9.517435,2.1406505
1409523180055,1.1617863,10.079589,3.34051,1.0310788,9.5178,2.1257393
1409523180055,0.7062895,9.993398,3.3375173,1.0553782,9.514984,2.1264129
1409523180056,0.41958386,9.84795,3.0777464,1.0734999,9.511736,2.1318722
1409523180068,0.439336,9.8042555,2.7443538,1.0825742,9.509863,2.135636
1409523180096,0.59974754,9.8437605,2.4396915,1.0866572,9.509701,2.1342797
1409523180097,0.7284359,9.920375,2.1290438,1.0915964,9.510763,2.1270196
1409523180098,0.81402856,9.973646,1.8495208,1.098701,9.512881,2.1138415
1409523180113,0.79607207,10.134656,1.6561891,1.1069185,9.515748,2.0965822
1409523180116,0.66379243,10.053253,1.5496471,1.1134987,9.519091,2.077838
1409523180138,0.49559975,10.025121,1.5011644,1.1169865,9.5225935,2.0598428
1409523180138,0.31124622,10.071808,1.4951789,1.1145532,9.525942,2.0456274
1409523180148,0.1933318,10.108918,1.4460979,1.1056412,9.528982,2.0362833
1409523180166,0.11552023,10.093356,1.283292,1.0925647,9.531952,2.029429
1409523180187,0.16579847,10.3214035,1.1228806,1.0785215,9.535145,2.0219285
1409523180187,0.28550854,10.804434,1.2240356,1.0655217,9.538592,2.0125425
1409523180188,0.25797522,10.293272,1.2240356,1.05472,9.541882,2.0026133
1409523180197,0.15562311,10.071808,1.2240356,1.0450466,9.54401,1.9975326
1409523180212,0.06584055,10.390237,1.335366,1.0336101,9.545206,1.997769
1409523180217,-0.04070143,10.280104,1.3772645,1.0157328,9.54627,2.001855
1409523180230,-0.06464344,10.081385,1.525705,0.9914941,9.547354,2.0088234
1409523180245,0.16639702,9.967062,1.666963,0.96424985,9.54776,2.020124
1409523180249,0.44352585,9.803059,1.7998412,0.9402175,9.546949,2.035225
1409523180273,0.58657944,9.745598,1.8806454,0.9221821,9.544974,2.0526688
1409523180274,0.6631939,9.79827,1.9806033,0.90635467,9.542573,2.0708022
1409523180277,0.7038953,9.822811,2.042254,0.89362615,9.540235,2.087044
1409523180309,0.74998367,9.76954,1.9949685,0.882453,9.538573,2.099354
1409523180310,0.8110358,9.770139,2.0242975,0.8739616,9.537868,2.1060994
1409523180311,0.8559271,9.755175,2.0242975,0.86919457,9.537927,2.1078043
1409523180318,0.8655039,9.704298,1.9315223,0.86808866,9.538515,2.105599
1409523180334,0.89782566,9.728839,1.8890251,0.8690198,9.539724,2.0997322
1409523180348,0.87687635,9.780912,1.8770541,0.86992556,9.541215,2.092564
1409523180350,0.8074445,9.838972,1.9405005,0.8723206,9.543114,2.0828917
1409523180364,0.6787562,9.909601,2.0171149,0.87499976,9.545132,2.0724926
1409523180382,0.5374983,9.870096,2.0320787,0.87700236,9.547376,2.061278
1409523180384,0.51235914,9.808446,1.9656396,0.8778128,9.550002,2.0487359
1409523180399,0.5446809,9.812635,1.8596961,0.8786144,9.55296,2.0345416
1409523180402,0.5781997,9.835979,1.8082209,0.87945205,9.556349,2.0182045
1409523180422,0.56682724,9.870096,1.8321629,0.8801257,9.559777,2.0016108
1409523180423,0.4878186,9.876082,1.9434932,0.88061965,9.562983,1.9860219
1409523180429,0.40462008,9.835979,2.0284874,0.8800138,9.565618,1.9735584
1409523180451,0.36511576,9.758766,2.0338743,0.8795549,9.567792,1.9631945
1409523180452,0.39264908,9.753379,1.9716251,0.8795661,9.569785,1.9534538
1409523180457,0.46267948,9.758766,1.8902222,0.8802318,9.571895,1.942785
1409523180493,0.5482722,9.788693,1.7968484,0.8818138,9.573989,1.931717
1409523180494,0.6410475,9.803658,1.8106151,0.88347155,9.575817,1.9218776
1409523180495,0.6991069,9.812635,1.9003977,0.88486415,9.577286,1.913898
1409523180498,0.7278373,9.772532,2.0021513,0.88613755,9.577751,1.9109818
1409523180522,0.7380127,9.720459,2.0913353,0.88600254,9.577222,1.9136972
1409523180526,0.7248446,9.68694,2.1332338,0.88522625,9.575895,1.9206837
1409523180531,0.724246,9.710882,2.107496,0.8847008,9.574132,1.9296896
1409523180558,0.6991069,9.753978,2.0775685,0.88397014,9.5723,1.9390907
1409523180559,0.6739678,9.775525,2.0518308,0.8829461,9.570568,1.9480878
1409523180560,0.62728083,9.737218,2.0338743,0.88196814,9.568781,1.957276
1409523180583,0.5967548,9.737817,2.0290859,0.88017017,9.566919,1.9671668
1409523180584,0.5255273,9.742006,1.9925743,0.87803316,9.564709,1.9788398
1409523180590,0.47165772,9.746795,1.9596541,0.8746143,9.5623865,1.9915338
1409523180599,0.41718966,9.765948,1.7316064,0.87037534,9.56026,2.0035644
1409523180616,0.39624038,9.768343,1.6627731,0.8658809,9.558866,2.0121474
1409523180618,0.38486794,9.722853,1.5867572,0.86080176,9.557812,2.0193164
1409523180629,0.37948096,9.737817,1.5520413,0.8545605,9.556904,2.0262556
1409523180659,0.38486794,9.824008,1.5179238,0.84677523,9.556061,2.0334895
1409523180660,0.39564183,9.900622,1.5089456,0.8382281,9.555262,2.0407684
1409523180661,0.37110126,9.932345,1.5077485,0.8277032,9.554179,2.050112
1409523180683,0.30107087,9.888652,1.496376,0.81535894,9.552883,2.0610695
1409523180684,0.26515785,9.816826,1.501763,0.80041796,9.551546,2.073087
1409523180689,0.2633622,9.792884,1.4377182,0.7826333,9.550253,2.0857964
1409523180698,0.31004912,9.76535,1.3347675,0.76265264,9.549285,2.0975997
1409523180724,0.38067806,9.768343,1.2473791,0.74188834,9.548822,2.1071334
1409523180725,0.44831428,9.785701,1.2449849,0.7215546,9.548636,2.1150193
1409523180729,0.45968673,9.728839,1.2898762,0.70007837,9.548634,2.1222322
1409523180758,0.44352585,9.592369,1.411382,0.67701226,9.548366,2.1309083
1409523180759,0.46627077,9.4062195,1.5478514,0.6528192,9.547472,2.1424265
1409523180761,0.49559975,9.317036,1.6879122,0.6288374,9.545896,2.156579
1409523180781,0.55964464,9.34397,1.7818847,0.6070774,9.54401,2.1711116
1409523180782,0.5895722,9.433155,1.8369513,0.58922493,9.542432,2.1829364
1409523180797,0.5686229,9.499594,1.9542671,0.57534844,9.541595,2.1902819
1409523180798,0.5446809,9.554661,2.12246,0.56333154,9.540925,2.1963181
1409523180813,0.47285482,9.633071,2.2750902,0.55526805,9.540262,2.2012446
1409523180831,0.33159694,9.7324295,2.3822308,0.55061495,9.539235,2.206859
1409523180832,0.19153613,9.825205,2.5001452,0.5490914,9.538009,2.2125282
1409523180847,0.050876785,10.0029745,2.6833014,0.55140287,9.536874,2.2168393
1409523180863,-0.08499416,10.195708,2.7940333,0.5582146,9.536025,2.2187858
1409523180863,-0.20649989,10.274118,2.7431567,0.56957185,9.535887,2.2164967
1409523180880,-0.2861071,10.332776,2.581548,0.58163404,9.536512,2.2106597
1409523180881,-0.28550854,10.4405155,2.4103625,0.5998595,9.538992,2.1950383
1409523180895,-0.27593175,10.494385,2.2349873,0.6225585,9.543309,2.1698072
1409523180898,-0.3465607,10.456676,1.9746178,0.6471876,9.549062,2.137045
1409523180910,-0.47345337,10.231621,1.6992847,0.6704823,9.556157,2.0977848
1409523180929,-0.61770403,9.990405,1.5502456,0.6901444,9.5645685,2.0525885
1409523180929,-0.62249243,9.928755,1.4909891,0.70539576,9.57368,2.0043595
1409523180942,-0.38187516,10.113707,1.532289,0.71954995,9.58268,1.955727
1409523180966,-0.27353755,10.149021,1.4466964,0.7369275,9.59105,1.9076378
1409523180967,-0.46387658,10.183737,1.0630256,0.75319946,9.598936,1.861051
1409523180969,-0.7918822,10.018537,0.62608373,0.7597507,9.607547,1.8133373
1409523180977,-1.1228806,9.504382,0.4333505,0.7478987,9.617368,1.765589
1409523180999,-1.2276269,9.074623,0.2621651,0.71733725,9.627318,1.7235286
1409523181017,-1.2389994,8.790312,0.24301147,0.6748229,9.636575,1.6886164
1409523181018,-1.264737,8.484452,0.56084174,0.6288699,9.643934,1.6641695
1409523181019,-1.2593501,8.441956,0.9864111,0.58554804,9.649263,1.6490132
1409523181029,-1.2312182,8.535928,1.4137762,0.5453306,9.650198,1.6573148
1409523181047,-1.0001777,8.789114,1.8088194,0.5139476,9.646355,1.6894004
1409523181069,-0.44711718,9.309255,2.0817583,0.4957415,9.63783,1.7426584
1409523181071,-0.0664391,9.644443,2.207454,0.49366,9.624978,1.8128663
1409523181072,0.14065935,9.751583,2.2900538,0.5033236,9.608673,1.8948493
1409523181078,0.30346507,9.825804,2.3133974,0.5171692,9.589793,1.9846374
1409523181110,0.3321955,9.814431,2.2080526,0.53168756,9.569338,2.0773747
1409523181111,0.38606504,9.886257,1.8848352,0.5441054,9.548145,2.1696248
1409523181116,0.4141969,9.949105,1.5705963,0.557517,9.526842,2.2580688
1409523181144,0.44711718,10.039486,1.3718776,0.56971306,9.505348,2.3439653
1409523181145,0.46627077,10.017939,1.2689269,0.580586,9.483056,2.4300134
1409523181146,0.36391866,9.883265,1.1270704,0.5904516,9.459291,2.5186408
1409523181163,0.2124854,9.6767645,1.01574,0.5962261,9.434564,2.608428
1409523181164,0.04249708,9.518148,0.90141696,0.5965239,9.408997,2.6991372
1409523181182,-0.32561144,9.448717,0.7356185,0.59203625,9.383318,2.7880497
1409523181183,-0.41299978,9.563639,0.736217,0.58184654,9.357947,2.8741355
1409523181191,-0.45908818,9.651027,0.7649474,0.56983197,9.333816,2.9539113
1409523181222,-0.35673606,9.697116,0.93493575,0.55608785,9.311578,3.0258343
1409523181223,-0.31423897,9.740809,1.1881226,0.544471,9.291453,3.0891492
1409523181224,-0.34596214,9.786898,1.4688427,0.5377277,9.273505,3.143777
1409523181230,-0.34476504,9.8677025,1.7956513,0.5369211,9.258731,3.1871624
1409523181260,-0.33039984,9.9790325,2.0506337,0.5442127,9.248176,3.2164388
1409523181260,-0.20829555,10.395624,2.1212628,0.5590195,9.240014,3.2372868
1409523181261,-0.3585317,10.821792,2.1039047,0.58518445,9.238643,3.2365756
1409523181281,-0.66020113,11.168951,2.2511482,0.6232339,9.24472,3.212028
1409523181281,-0.9044097,11.4377,2.759916,0.66894764,9.256852,3.1675808
1409523181298,-0.97862995,11.632229,3.304597,0.71686935,9.272165,3.1118224
1409523181298,-1.0199299,11.780669,3.359065,0.7679244,9.288294,3.0509465
1409523181311,-1.0372878,12.028469,1.2186487,0.8245488,9.304658,2.9856057
1409523181327,-1.1767502,12.240954,0.54767364,0.88090867,9.327612,2.8965569
1409523181329,-1.8848352,11.931504,2.2457612,0.9250936,9.352125,2.802208
1409523181345,-2.4929626,11.671135,2.9311013,0.9412638,9.368186,2.7425387
1409523181363,-2.5360582,11.8099985,3.0178912,0.9213012,9.371373,2.738422
1409523181364,-2.2613235,12.541427,2.724003,0.8865581,9.362689,2.7792943
1409523181382,-1.9698294,13.323732,2.1230583,0.85650665,9.347675,2.8386192
1409523181383,-2.0895395,13.670293,1.9081788,0.8346762,9.329582,2.903893
1409523181389,-2.3223755,13.834296,2.0817583,0.8101494,9.308833,2.9765234
1409523181420,-2.5899277,13.855246,2.248754,0.7733476,9.286208,3.0559244
1409523181421,-2.746748,13.857639,1.4059949,0.7311518,9.2611685,3.1411123
1409523181422,-2.918532,13.809156,-3.6655228,0.6837506,9.239634,3.214349
1409523181453,-2.7329812,13.467384,-7.9104424,0.6346429,9.241379,3.2194035
1409523181454,-2.5809495,12.80479,-6.3464303,0.582837,9.265484,3.1593513
1409523181455,-2.4744074,12.157756,-1.5346833,0.5259598,9.273731,3.145103
1409523181458,-2.6138697,11.15279,3.508104,0.47891983,9.252328,3.2148826
1409523181479,-1.5107412,10.105926,0.44891283,0.4689201,9.22804,3.2853906
1409523181479,0.21188685,9.929353,-1.851915,0.52618223,9.233636,3.2609057
1409523181499,-0.09816227,11.082161,-0.8631097,0.6139745,9.300983,3.0471487
1409523181499,-0.86490536,12.317569,1.2060791,0.6684198,9.392671,2.7388556
1409523181512,-0.5907693,12.052411,3.2597055,0.6380518,9.475123,2.4464867
1409523181528,0.38367084,11.210251,4.759074,0.558959,9.540366,2.1998603
1409523181530,1.6316484,11.508329,5.1798553,0.46745503,9.590703,1.9925548
1409523181542,2.147599,11.54903,4.6136265,0.37676498,9.630444,1.811906
1409523181561,2.6970682,12.165538,3.7606924,0.28081632,9.665089,1.6363409
1409523181562,3.5033157,13.166314,2.5605986,0.18667276,9.695315,1.4616349
1409523181580,3.8205473,13.72536,2.1284454,0.10377514,9.722716,1.2760913
1409523181580,3.5033157,13.867815,2.480393,0.039249476,9.746347,1.0851516
1409523181594,2.7383683,13.903728,2.328361,-0.011882746,9.765371,0.8987557
1409523181609,1.9967642,13.781025,2.64679,-0.05595891,9.780212,0.7174353
1409523181611,1.2797008,13.678074,2.7287915,-0.09254151,9.790609,0.5529758
1409523181625,0.061052144,13.376405,1.939902,-0.121675685,9.797724,0.40029308
1409523181629,-1.6053122,12.320562,1.6412252,-0.16053016,9.802308,0.24368507
1409523181641,-2.6791117,11.019313,2.1458032,-0.2356839,9.803397,0.090801455
1409523181657,-2.4109612,9.86471,2.6761189,-0.36453035,9.79981,-0.03476751
1409523181658,-1.5861586,9.066842,3.3913867,-0.5324365,9.791326,-0.12971783
1409523181676,-0.41599256,8.489241,4.377199,-0.7154111,9.77846,-0.20074023
1409523181678,1.0348936,8.334815,4.4316673,-0.8891658,9.762921,-0.25526386
1409523181692,2.7982233,8.121731,3.445855,-1.0308609,9.747275,-0.31355843
1409523181710,4.1503487,7.704541,3.1184478,-1.1311212,9.733223,-0.39415458
1409523181711,4.2036195,6.4421983,2.4313118,-1.2087454,9.719836,-0.4838719
1409523181725,3.7750576,5.333683,2.574964,-1.2797906,9.7049265,-0.5890159
1409523181742,2.96881,4.3598413,3.394978,-1.3601837,9.687034,-0.6940182
1409523181742,1.8956091,3.8839936,1.6430209,-1.45032,9.667088,-0.7838208
1409523181757,1.8016368,4.0839095,0.56563014,-1.5424201,9.64505,-0.87426883
1409523181758,1.8806454,4.085107,0.050278235,-1.6202282,9.623136,-0.96982473
1409523181777,2.4091654,4.2916064,-0.47524905,-1.6805364,9.602631,-1.0656909
1409523181778,2.5851393,4.394557,0.01316811,-1.7294309,9.583094,-1.1592027
1409523181792,2.4199393,4.349666,1.1641805,-1.7695677,9.566974,-1.2296537
1409523181807,2.4744074,4.132991,1.9237411,-1.8106114,9.553712,-1.2722806
1409523181810,2.6659436,3.9372647,1.9357121,-1.856731,9.542728,-1.2881397
1409523181825,2.835932,3.9480386,1.4209588,-1.9016669,9.534939,-1.2802346
1409523181840,2.5833437,4.4562078,0.85173726,-1.9310808,9.532528,-1.2538834
1409523181840,1.240795,5.916671,-0.37588966,-1.9367372,9.5364895,-1.2144215
1409523181865,-1.2880806,7.6027875,-1.970428,-1.9197091,9.545587,-1.1691277
1409523181866,-4.408922,9.093178,-4.7070007,-1.8982891,9.554006,-1.1348659
1409523181870,-8.72507,11.811794,-8.151658,-1.8886489,9.558171,-1.1156803
1409523181878,-12.919711,14.70399,-9.3583355,-1.9289382,9.545991,-1.1504985
1409523181902,-15.148114,16.187199,-6.6642604,-2.0419855,9.513383,-1.2232068
1409523181902,-13.181277,16.985664,-3.2435448,-1.9983199,9.529479,-1.1688217
1409523181912,-8.258201,16.952145,-1.8393455,-3.4588103,8.996429,-1.8086724
1409523181926,-4.8518496,15.661072,-1.555034,-3.6265523,8.9693775,-1.6027418
1409523181932,-3.7732618,14.376583,-3.0777464,-3.5412905,9.028082,-1.4571713
1409523181952,-3.590704,13.098079,-3.8061821,-3.4097664,9.067132,-1.5267704
1409523181953,-3.2998085,10.251971,-3.5122938,-3.315217,9.074889,-1.6810969
1409523181958,-2.0961237,8.366538,-2.4408886,-3.2728438,9.057707,-1.8484677
1409523181988,-1.252766,6.872556,-0.2896984,-3.1962247,9.062306,-1.9568238
1409523181989,-0.20350714,5.4408236,2.1188686,-3.1055634,9.102575,-1.915456
1409523181990,1.7178397,6.867768,3.8863878,-2.9789069,9.191058,-1.6795762
1409523182015,3.0789435,8.951322,4.583699,-2.6559162,9.359387,-1.232228
1409523182017,2.6479871,10.336368,3.4201171,-2.1571174,9.542558,-0.6758936
1409523182019,4.4765587,13.14297,1.7531542,-1.6763469,9.658354,-0.2765382
1409523182052,7.8727336,15.912463,-1.8854338,-1.0022131,9.754989,-0.078416534
1409523182053,9.742006,17.399261,-5.0374002,-0.058211952,9.803256,-0.25136313
1409523182054,7.7428484,15.579669,-2.8401217,0.85571843,9.749183,-0.6257763
1409523182059,4.747103,12.174516,-0.20410569,1.3864237,9.685307,-0.66561
1409523182085,2.7096379,9.237429,0.4141969,1.588488,9.666705,-0.4493635
1409523182086,1.7729063,7.199963,0.8900445,1.6360525,9.664704,-0.2952996
1409523182092,1.7836803,6.717531,1.7351977,1.664776,9.662595,-0.18208763
1409523182117,2.2828712,7.1221514,2.8508956,1.7139775,9.655519,-0.060183253
1409523182118,2.558803,7.7769656,3.690662,1.8381224,9.631652,0.15160511
1409523182120,2.2649148,8.258799,4.213795,1.9787127,9.594848,0.44044164
1409523182151,1.6310499,8.58022,4.5681367,2.058661,9.557649,0.7639678
1409523182152,1.1240777,8.96449,4.751293,2.0506299,9.526203,1.103068
1409523182152,0.9792285,9.632472,4.7189717,1.9804868,9.496745,1.4352386
1409523182158,1.0977415,10.596737,4.5537715,1.8854154,9.465223,1.7392917
1409523182178,1.2671312,11.81359,4.6232033,1.8011631,9.439038,1.9572368
1409523182179,1.22224,12.607267,4.44723,1.7163799,9.416811,2.132622
1409523182197,1.0187328,12.497733,3.70802,1.6199361,9.4057865,2.253306
1409523182198,0.694917,11.53706,2.6479871,1.5139991,9.412642,2.2979093
1409523182212,0.46986207,10.479421,1.816002,1.4002076,9.436178,2.273402
1409523182225,0.4177882,9.739613,1.151611,1.2913927,9.466463,2.2110603
1409523182242,0.24121583,9.428965,0.6422446,1.1991768,9.4994335,2.1197062
1409523182242,-0.17118542,9.19972,0.34835634,1.1102462,9.537656,1.9926957
1409523182264,-0.90740246,8.64666,-0.037708677,0.98473936,9.578233,1.8596038
1409523182265,-1.6867151,8.409035,-0.35434186,0.79679716,9.623394,1.7104949
1409523182272,-2.2816741,8.313267,-0.48841715,0.55216044,9.669166,1.5403625
1409523182279,-2.593519,8.000824,-1.2060791,0.2791618,9.707026,1.3660598
1409523182301,-1.951873,7.884106,-5.5060654,0.011828969,9.740463,1.137371
1409523182302,-1.7657237,8.789713,-3.1663318,-0.15309155,9.792933,0.49537033
1409523182311,-3.1771057,7.543531,2.1751323,-0.30572423,9.8008175,0.14455752
1409523182337,-2.3373394,7.951742,3.7229836,-0.6296157,9.775723,0.45738986
1409523182338,-1.5634137,8.149264,4.0144777,-0.8383906,9.728255,0.9102324
1409523182339,-1.3904326,7.575254,3.366846,-0.90306705,9.67758,1.3035779
1409523182363,-1.3030443,7.0610995,2.6809072,-0.937021,9.635085,1.5676398
1409523182364,-0.7781156,7.750031,2.3307555,-0.985916,9.59965,1.745017
1409523182370,-0.6063316,8.809465,2.1906946,-0.98910576,9.576808,1.864616
1409523182395,-0.7954735,9.647436,1.9931729,-0.96695936,9.5649185,1.9358962
1409523182395,-1.0821792,10.2657385,1.673547,-0.9592256,9.562291,1.9526556
1409523182399,-1.1432313,10.90499,1.2210429,-0.9694524,9.568105,1.9188325
1409523182411,-1.1845313,11.475409,0.6787562,-0.98758596,9.585257,1.8215222
1409523182432,-1.3293805,11.850101,0.05566519,-1.0010809,9.610811,1.6734874
1409523182433,-1.4449008,12.169128,-0.62249243,-1.0225185,9.640042,1.4813606
1409523182439,-1.4149733,12.602479,-1.299453,-1.0491213,9.669637,1.2521394
1409523182469,-1.1629834,13.399749,-2.6030958,-1.0630282,9.698162,0.992988
1409523182470,0.40222588,14.3418665,-12.7096195,-1.0388266,9.730003,0.6467574
1409523182471,0.85473,13.178884,-14.173674,-0.8570529,9.753686,-0.54903877
1409523182505,-0.8158242,11.659762,-4.1401734,-0.66702616,9.641529,-1.6632524
1409523182506,-2.0967221,10.845135,2.5318682,-0.69003177,9.625881,-1.7426051
1409523182507,-3.080739,10.562619,2.822764,-0.856363,9.69558,-1.197003
1409523182531,-2.7395654,11.443087,0.9487024,-1.0683659,9.7224,-0.70985854
1409523182531,-2.581548,13.25071,5.9388175,-1.178485,9.721701,-0.5196958
1409523182532,-3.7493198,12.687473,2.956839,-1.2026476,9.732614,-0.016012138
1409523182539,-5.647323,12.356475,-2.2774844,-1.3559391,9.710896,0.17404081
1409523182565,-6.455965,12.063784,-1.9812019,-1.6800764,9.65805,-0.26423308
1409523182566,-5.885546,12.549807,-0.7032967,-2.0517194,9.574037,-0.54649276
1409523182572,-5.4887075,12.235568,0.3238158,-2.2933488,9.518093,-0.56289726
1409523182604,-6.0860605,13.202227,-1.2683283,-2.454888,9.484157,-0.44124207
1409523182604,-5.755062,15.35641,-0.7266402,-2.6270134,9.437615,-0.44788408
1409523182605,-4.572925,13.880983,4.892551,-2.7312078,9.409302,-0.419436
1409523182612,-3.366846,11.316195,5.61141,-2.7983258,9.398919,0.009594964
1409523182632,-2.2068555,10.108918,2.2774844,-2.8137481,9.386869,0.37402254
1409523182635,-0.84216046,10.357915,1.2755109,-2.7856433,9.393177,0.422871
1409523182639,-0.49440265,10.318411,3.7361517,-2.6493554,9.433184,0.4078517
1409523182676,-0.89543146,9.974843,6.4272346,-2.489162,9.463397,0.6469992
1409523182677,-0.56323594,8.991425,6.983288,-2.3806665,9.447111,1.120217
1409523182679,0.51714754,9.347562,6.2674217,-2.2720284,9.404184,1.6029942
1409523182705,1.4305356,11.60709,5.81372,-2.0782967,9.380953,1.9618367
1409523182706,2.1871033,16.054918,6.6403184,-1.7911507,9.384806,2.2107894
1409523182706,1.0636241,19.563023,4.0503907,-1.4254498,9.399417,2.4061267
1409523182712,0.6739678,19.608511,-5.9621606,-1.1865996,9.45879,2.3007946
1409523182733,5.9011087,19.608511,-6.425439,-0.9865637,9.639559,1.5086505
1409523182734,8.513183,16.786945,-1.7046716,-0.36997312,9.761503,0.86402595
1409523182739,8.408437,13.825317,2.1811178,0.3635215,9.774739,0.70191026
1409523182765,4.6142254,11.544242,4.629189,0.93674195,9.732125,0.7606902
1409523182766,2.0266917,9.579201,6.6870055,1.1478087,9.696514,0.9113351
1409523182771,0.79726917,8.503007,6.5726824,1.2100143,9.650708,1.2530338
1409523182807,0.3776853,7.7769656,5.5377884,1.167406,9.598859,1.6338489
1409523182808,0.45370123,7.603985,3.5152867,1.1076666,9.536468,1.9998096
1409523182809,0.79846627,6.9491706,1.5598224,1.0238781,9.500492,2.2051592
1409523182845,1.103727,6.1824274,1.340753,0.9815207,9.500259,2.2253277
1409523182846,0.7410054,4.993706,2.3690627,0.99863756,9.49989,2.219273
1409523182848,-0.008978256,3.9671922,2.9903579,1.0115935,9.472527,2.3277233
1409523182849,0.060453594,3.7493198,3.205836,0.9821289,9.430657,2.5036972
1409523182875,0.62967503,3.9228995,4.0156746,0.948172,9.376351,2.712084
1409523182879,0.97503865,3.9815574,3.7379475,0.9996517,9.289117,2.9805055
1409523182880,1.3377602,3.9055414,2.5647886,1.0744514,9.201016,3.2182667
1409523182906,2.1470003,3.6978445,1.5233108,1.1630901,9.146675,3.3400507
1409523182906,2.4558525,3.638588,1.1563994,1.3411361,9.114232,3.3619204
1409523182907,2.5647886,3.518878,1.0516531,1.570494,9.085887,3.3392541
1409523182927,2.677316,3.4733882,1.6897079,1.8309547,9.052075,3.2981675
1409523182928,2.885013,3.82773,2.3840263,2.0978036,8.981332,3.332459
1409523182933,3.3399115,4.308366,2.5905263,2.3658147,8.873653,3.4397097
1409523182939,3.946243,4.905121,2.4061728,2.6655948,8.748873,3.5386772
1409523182964,4.023456,5.722142,2.1523874,3.0050144,8.625239,3.5700867
1409523182965,2.9203274,6.10701,1.2240356,3.2852664,8.537258,3.534494
1409523182971,0.22984336,7.104195,-1.7735049,3.3829737,8.5545025,3.3979983
1409523183003,-4.551976,11.7627125,-8.0445175,3.1128054,8.839855,2.887519
1409523183004,-10.882245,18.324621,-16.011225,2.0734584,9.481174,1.4065894
1409523183005,-15.716737,19.516335,-15.3049345,2.0617893,9.451413,1.6094103
1409523183027,-14.966155,17.55309,-9.470863,2.041232,9.417828,1.8188685
1409523183028,-9.825205,12.415731,-6.4948707,1.9838334,9.402189,1.9579654
1409523183031,-3.8498764,13.835493,-1.0121487,-3.047158,8.837278,-2.964406
1409523183040,-2.9161377,13.222577,-0.33279404,-3.0773876,8.936647,-2.6146612
1409523183066,-3.429694,10.642226,-2.2343888,-2.9954526,9.059824,-2.2621298
1409523183066,-3.1376014,9.676167,-3.5757403,-2.9989436,9.075919,-2.1918988
1409523183072,-2.5366566,8.548497,-3.807978,-2.9836342,9.050192,-2.3156838
1409523183096,-2.0883424,6.5870476,-1.7657237,-2.953869,9.013554,-2.4901621
1409523183097,-1.1444284,5.0284224,2.6503813,-2.9141853,9.011063,-2.5453224
1409523183101,1.2551602,6.4727244,6.7133417,-2.8772843,9.107066,-2.2255287
1409523183143,4.766257,12.074557,6.754043,-2.614844,9.338243,-1.4595182
1409523183143,5.707777,15.011046,4.288614,-1.8615556,9.607623,-0.63131666
1409523183144,7.1766195,15.759832,-1.7567455,-1.0262623,9.751654,-0.14977205
1409523183144,7.1448965,16.336836,-6.455965,-0.17315,9.800033,-0.31584817
1409523183153,5.3037553,16.51281,-2.191293,0.4984645,9.755357,-0.8688819
1409523183193,4.1144357,13.908516,1.6609775,0.9019053,9.72483,-0.8858096
1409523183195,2.3451207,12.266094,0.64823014,1.1441779,9.726775,-0.50109804
1409523183196,1.8650831,11.283274,0.092775315,1.2046058,9.728454,-0.27661243
1409523183198,2.421735,9.690532,0.8900445,1.2220979,9.72724,-0.2401362
1409523183200,2.15538,8.297705,1.0342951,1.3165263,9.716076,-0.18718846
1409523183237,1.9620483,7.342418,0.80564886,1.4152429,9.70323,-0.12184563
1409523183238,2.492364,7.397485,1.3066356,1.5024904,9.690668,-0.062052846
1409523183239,3.0873232,7.844003,2.5773582,1.6443422,9.66774,0.036902037
1409523183240,2.6605566,7.813477,4.1036615,1.8323139,9.630654,0.25201488
1409523183264,1.816002,7.7985134,4.9518075,1.9632307,9.589187,0.60300505
1409523183265,1.0708067,8.098388,4.88896,1.9923297,9.548664,1.011957
1409523183271,0.9307459,9.227253,4.633379,1.9339573,9.514374,1.3809017
1409523183298,1.055843,10.861296,4.708796,1.8444761,9.484549,1.6767989
1409523183300,1.0163386,12.0889225,4.7081976,1.7464261,9.456892,1.9203099
1409523183301,0.7182605,12.208633,4.200627,1.6297818,9.435564,2.117628
1409523183321,0.15741876,11.396998,3.0550013,1.5028648,9.432591,2.2221649
1409523183322,-0.46267948,10.446501,1.7340006,1.3347719,9.454475,2.236442
1409523183338,-0.8888474,10.150218,-0.5566519,1.1330708,9.4986515,2.1592073
1409523183343,-1.489792,10.536881,-1.6537948,0.9234572,9.5765915,1.8990757
1409523183366,-2.4115596,10.093356,-0.40940848,0.6820654,9.656765,1.5659082
1409523183366,-3.5655649,9.185355,0.5979519,0.37352118,9.698731,1.4019603
1409523183371,-3.8851907,8.418612,0.6338649,-0.0015641806,9.714407,1.3418943
1409523183395,-3.4799721,7.498041,0.93373865,-0.38861704,9.710268,1.3153087
1409523183396,-3.271078,6.7253127,0.6607997,-0.6958412,9.692536,1.3194504
1409523183400,-3.6343982,6.3619924,0.43754035,-0.9711025,9.670564,1.3067327
1409523183424,-3.870227,6.609792,0.65421563,-1.2840286,9.637431,1.2812439
1409523183424,-3.693056,7.6440873,0.46686932,-1.6004683,9.589882,1.2818197
1409523183438,-3.3919852,9.062652,-0.3250129,-1.8461914,9.549994,1.2488258
1409523183440,-3.0711622,9.885659,-0.29508537,-2.0037253,9.535063,1.1126901
1409523183456,-2.645593,10.669162,-0.095768064,-2.0996141,9.529489,0.9751386
1409523183471,-0.7212533,11.021109,-0.12330139,-2.1099553,9.536219,0.8826137
1409523183473,-0.5590461,10.569802,-0.39384618,-1.91612,9.584333,0.7996368
1409523183490,-0.92176765,9.919776,-0.5919664,-1.743557,9.624796,0.702638
1409523183493,-1.2264298,9.485827,-0.48482585,-1.6582372,9.647013,0.59650224
1409523183506,-1.3640964,9.511565,-0.35434186,-1.6332492,9.656017,0.5140195
1409523183523,-1.3509283,9.656414,-0.3196259,-1.6221675,9.660935,0.453105
1409523183523,-1.3126211,9.759963,-0.38845924,-1.5981369,9.667515,0.39433688
1409523183538,-1.2802993,9.913791,-0.61530983,-1.5715929,9.673958,0.33918667
1409523183540,-1.1414356,10.199299,-1.5598224,-1.544211,9.680767,0.2617992
1409523183555,-0.10175357,10.41777,-6.884527,-1.5039828,9.6901455,0.09758549
1409523183573,0.7200562,10.099341,-10.708067,-1.3568722,9.695218,-0.5762081
1409523183574,-0.12210429,9.940725,-6.027403,-1.1391513,9.6184845,-1.5353999
1409523183588,-1.555034,10.234613,0.39085343,-1.0497198,9.564707,-1.8933696
1409523183609,-2.4241292,10.627263,3.5817258,-1.1390705,9.615533,-1.5538449
1409523183609,-2.8700492,10.979211,2.7150247,-1.290413,9.674334,-0.9552395
1409523183625,-2.6886885,12.830527,-1.050456,-1.4252249,9.688778,-0.51642
1409523183626,-2.654571,14.639945,-2.2349873,-1.4865365,9.678894,-0.5287839
1409523183631,-3.9653966,14.019248,2.1499932,-1.499802,9.667531,-0.6780954
1409523183640,-4.63697,12.656349,3.8265328,-1.6216799,9.66199,-0.4318222
1409523183664,-5.777209,12.3989725,0.1316811,-1.8143963,9.63688,-0.09437117
1409523183665,-6.7211227,12.79222,-3.0747535,-2.100913,9.577676,-0.15708128
1409523183672,-6.658275,13.822325,-3.3010056,-2.4260783,9.4910555,-0.45210394
1409523183704,-6.2740054,15.099033,-1.9135658,-2.6557233,9.409924,-0.7555691
1409523183704,-4.7339354,14.992491,-0.33039984,-2.7833273,9.368348,-0.81088656
1409523183705,-3.6954503,11.945271,1.8255788,-2.7779603,9.375526,-0.74350595
1409523183723,-3.4368765,10.336368,2.8886044,-2.801855,9.380474,-0.5715702
1409523183724,-3.2489316,10.83496,3.4171243,-2.8700168,9.369483,-0.3823357
1409523183738,-3.5458126,10.7769,4.6896424,-2.9107673,9.3635435,-0.14796743
1409523183740,-4.1892543,9.56723,6.597821,-2.9621818,9.346134,0.213632
1409523183756,-3.9839516,8.6257105,7.4405804,-3.065668,9.289365,0.6926551
1409523183770,-3.0142999,7.6333137,6.1225724,-3.1816897,9.193069,1.2388325
1409523183773,-1.7298107,7.951742,4.699219,-3.2402713,9.113401,1.6176925
1409523183790,-0.5847838,10.626664,4.189853,-3.1815758,9.088344,1.8574182
1409523183804,0.25917232,15.248072,2.846706,-2.974305,9.127685,2.0023227
1409523183805,0.8924387,19.557634,-0.56203884,-2.6303236,9.243158,1.9534078
1409523183826,0.6931214,19.608511,-2.6084828,-2.2174406,9.419732,1.5880723
1409523183827,0.45489833,19.608511,-1.5113398,-1.8811432,9.558037,1.1294296
1409523183833,3.66672,19.521723,2.208651,-1.601779,9.638746,0.8362414
1409523183840,6.529587,15.885529,2.6234465,-1.0976777,9.706502,0.86561716
1409523183856,6.1207767,13.059174,0.85652566,-0.4151897,9.750705,0.9600825
1409523183872,5.0242324,11.351509,1.027711,0.12430151,9.766345,0.87945604
1409523183872,4.2957964,10.670957,2.5821466,0.45816287,9.762534,0.808353
1409523183889,3.3291376,10.289082,3.0873232,0.6982035,9.738741,0.9164085
1409523183906,2.3020248,9.619903,3.490746,0.85649437,9.7058935,1.1101542
1409523183908,1.6346412,8.555081,3.3363202,0.94109225,9.674554,1.2991396
1409523183925,1.3910311,7.043741,2.8987796,0.966073,9.646316,1.4784079
1409523183925,-0.016759412,5.1379566,6.327875,0.9983088,9.619795,1.6227494
1409523183932,-0.7098808,4.392163,7.03596,0.94633776,9.532733,2.0980496
1409523183940,-0.62249243,4.362834,4.6471453,0.8455381,9.4050455,2.6458635
1409523183969,0.777517,4.378995,1.9285295,0.7564409,9.324867,2.9402475
1409523183970,0.6943185,3.9636009,1.6334441,0.7852888,9.311422,2.9750843
1409523183972,0.3369839,3.9713821,1.4796166,0.790956,9.297793,3.0159252
1409523184003,0.44891283,3.822343,1.6358383,0.7700714,9.291067,3.0419457
1409523184003,0.75956047,3.752911,2.546832,0.7706609,9.27253,3.0978527
1409523184004,1.6819267,3.6355953,1.4401124,0.8182474,9.216985,3.2477791
1409523184026,2.3959973,2.815581,0.49919105,1.0019059,9.194823,3.25911
1409523184026,3.1010897,1.9919758,1.021127,1.2984186,9.183923,3.184345
1409523184032,3.1256304,1.1025299,1.6077064,1.7069296,9.105826,3.2156978
1409523184042,2.9101522,0.8631097,2.0081367,2.1528208,8.954432,3.3695567
1409523184070,2.7503393,0.60333884,2.03148,2.577696,8.757799,3.5814579
1409523184071,2.8580782,1.2808979,1.9099745,2.98761,8.520775,3.826354
1409523184074,2.8520927,2.9173348,1.6759412,3.3887758,8.288275,3.9988868
1409523184092,2.6671407,5.4976854,1.2665327,3.6872509,8.148894,4.0212054
1409523184093,1.2683283,9.663596,-1.4131776,3.7877896,8.198396,3.8222196
1409523184101,-3.5619736,15.979501,-10.515932,3.4725041,8.652756,3.0400548
1409523184130,-10.701483,19.608511,-19.573198,2.2640302,9.505271,0.83330816
1409523184131,-16.607979,19.608511,-19.00218,2.3509293,9.465957,1.0194058
1409523184134,-17.18139,18.915989,-8.901642,2.3999076,9.427789,1.2359672
1409523184164,-12.197859,13.845669,-2.082357,2.3718781,9.40073,1.4733894
1409523184165,-7.088034,12.417527,-0.014963761,-3.3823793,8.662311,-3.1135635
1409523184165,-4.3676224,12.850878,1.7010803,-3.6834817,8.694109,-2.6485546
1409523184172,-3.9641995,9.979631,-0.96546185,-3.6749663,8.833772,-2.1516328
1409523184200,-3.3327289,9.657013,-2.5198972,-3.6627316,8.868862,-2.02437
1409523184201,-1.532289,9.977836,-2.0739772,-3.6242602,8.870023,-2.0875473
1409523184201,-0.24660277,12.013506,0.5398925,-3.420332,8.936668,-2.1465428
1409523184222,3.071761,18.458696,6.114791,-3.0901785,9.101865,-1.9435132
1409523184222,4.010288,19.594746,3.6846764,-2.4052358,9.426676,-1.2341095
1409523184238,2.296638,18.468872,-4.6686935,-1.7398165,9.616801,-0.81275403
1409523184255,2.9322984,14.574703,-1.6112977,-1.308682,9.655669,-1.1071522
1409523184255,3.815759,10.630854,4.2102036,-0.93021953,9.699583,-1.1059698
1409523184275,3.0945058,8.010401,3.116652,-0.54383945,9.7713785,-0.6283333
1409523184276,3.8786068,7.177218,-1.7597382,-0.28277826,9.797027,-0.32970718
1409523184280,4.7734394,6.655282,-0.66259533,0.04369243,9.794703,-0.48198214
1409523184315,3.163339,5.325303,1.4466964,0.45969638,9.780656,-0.5457599
1409523184316,1.9315223,5.1636944,1.560421,0.74933285,9.771324,-0.36071634
1409523184317,2.2852654,6.209362,1.899799,0.9066531,9.763444,-0.15340047
1409523184321,3.6673183,7.8206596,3.2465374,1.1008152,9.744546,0.049075875
1409523184347,4.742315,8.955511,4.2299557,1.4390467,9.693797,0.36035308
1409523184348,4.1838675,8.889671,4.9661727,1.840852,9.604217,0.7353169
1409523184352,2.6342204,8.379107,4.757279,2.114278,9.507347,1.1447952
1409523184369,1.6232687,8.209119,3.3171666,2.1919954,9.437677,1.5151857
1409523184387,1.3251907,8.602965,2.48578,2.147304,9.414353,1.711559
1409523184388,1.8788497,10.390237,3.0974984,2.0693524,9.411753,1.8185382
1409523184402,2.8413188,13.71698,4.5364137,2.032845,9.393462,1.9495641
1409523184403,2.9700072,16.202162,5.6982,2.0321803,9.354165,2.1307905
1409523184420,1.5466543,15.727511,5.9041014,1.9788063,9.320172,2.3214428
1409523184420,-0.10474633,13.135788,4.803367,1.7878245,9.31468,2.4921527
1409523184435,-1.3628993,10.642825,3.4231098,1.528834,9.330257,2.603718
1409523184451,-1.7711107,9.306861,2.4139538,1.2203225,9.370733,2.6211777
1409523184452,-1.400608,8.22528,1.0456676,0.92505556,9.414408,2.5852609
1409523184467,-1.2491747,7.438186,-0.23463176,0.71536654,9.465236,2.4633238
1409523184472,-1.751957,7.7637978,-1.3922282,0.5493468,9.527538,2.2571259
1409523184485,-2.373851,8.219893,-2.7210102,0.34379122,9.604802,1.9493574
1409523184502,-2.802413,8.388684,-4.5603557,0.09419249,9.687464,1.5213585
1409523184503,-2.8622682,8.084022,-9.923966,-0.164464,9.760591,0.9350088
1409523184517,-1.6729485,7.5824366,-8.600571,-0.3847864,9.797738,-0.16318712
1409523184521,-1.1372458,6.567295,-2.754529,-0.47741702,9.743846,-0.99996936
1409523184533,-1.3808558,6.6864066,-0.9816227,-0.56604314,9.728091,-1.1019042
1409523184550,-1.9859903,7.1903863,-0.21428105,-0.72097564,9.728927,-0.9993092
1409523184554,-2.385822,7.5770497,1.0941502,-0.9318381,9.723912,-0.8646286
1409523184571,-2.468422,8.1797905,2.4049757,-1.1382059,9.720958,-0.6147139
1409523184585,-2.2996306,9.2069025,2.9550436,-1.3032699,9.716596,-0.24426001
1409523184585,-2.2026656,10.0987425,2.956839,-1.4073557,9.704001,0.14867315
1409523184599,-2.154183,10.638636,1.6478093,-1.4634973,9.685213,0.47458327
1409523184601,-2.1601684,10.825981,0.8391677,-1.5094626,9.671021,0.6027017
1409523184618,-2.3026235,11.120468,0.23044191,-1.558718,9.662168,0.6191335
1409523184621,-2.409764,11.364676,-0.57281274,-1.6193624,9.655317,0.56825614
1409523184633,-2.4905684,11.287464,-2.3529017,-1.6832553,9.650899,0.44405866
1409523184658,-0.79607207,11.365874,-11.195886,-1.7481866,9.648132,0.16666517
1409523184658,0.57400984,11.060614,-15.377359,-1.6302139,9.625441,-0.9293521
1409523184661,-0.97025025,10.473435,-6.625953,-1.3682766,9.449001,-2.239328
1409523184690,-2.4504654,10.780492,1.8100165,-1.3159865,9.37893,-2.5444565
1409523184691,-2.5384524,11.257536,5.269039,-1.456459,9.492787,-1.9839603
1409523184693,-1.9734207,10.69849,1.922544,-1.5859827,9.612287,-1.1220353
1409523184702,-2.0763714,10.007763,-3.0095115,-1.6018159,9.647014,-0.7346427
1409523184728,-3.5314474,10.763134,2.883816,-1.618093,9.625939,-0.94523275
1409523184729,-4.0946836,12.120646,6.4110737,-1.7329601,9.63237,-0.6202444
1409523184735,-5.125387,13.749302,1.3694834,-1.8486574,9.630805,0.020606661
1409523184770,-7.1586633,14.615404,-3.8073792,-2.0339763,9.593374,0.022827297
1409523184771,-7.8703394,13.855844,0.59136784,-2.3424969,9.511409,-0.4649636
1409523184772,-6.907272,14.914081,1.5041572,-2.677195,9.423169,-0.454893
1409523184793,-6.027403,15.506646,-1.1994951,-2.8742213,9.372102,-0.27012548
1409523184795,-5.249287,15.404294,-2.870648,-2.9545043,9.346903,-0.27690303
1409523184796,-4.597466,14.593857,-0.1388637,-2.9784827,9.33356,-0.4285741
1409523184801,-3.9665937,12.756906,-0.41120413,-3.007123,9.325184,-0.4105722
1409523184817,-3.503914,12.175713,-1.2988545,-3.0264835,9.318475,-0.42051873
1409523184821,-3.4674027,12.71381,0.075417355,-3.0570881,9.297651,-0.6150562
1409523184833,-2.5893292,12.765883,2.5941176,-3.0589416,9.293584,-0.665248
1409523184856,-1.7926586,11.991958,5.1918263,-2.9768424,9.3318,-0.47570398
1409523184857,-1.2096704,9.44333,6.815095,-2.8562603,9.381202,-0.07231219
1409523184861,-0.83737206,7.5189905,7.5004354,-2.7602346,9.399645,0.44518298
1409523184899,-0.20590134,8.217499,7.3885064,-2.6834238,9.378564,1.0060685
1409523184900,0.66020113,11.249755,7.5070195,-2.5506303,9.34669,1.5179187
1409523184901,0.5542577,16.197372,7.863157,-2.2987914,9.332697,1.945943
1409523184902,-1.5993267,19.608511,1.685518,-2.006375,9.329514,2.259432
1409523184927,-2.2218192,19.608511,-5.7107697,-1.8846753,9.418803,1.9759907
1409523184928,2.9317,19.608511,-6.6175733,-1.7892914,9.565543,1.2121055
1409523184933,7.8667483,18.587385,-2.6635494,-1.2640885,9.706785,0.59229076
1409523184956,8.988432,15.106814,1.4718355,-0.43978783,9.787346,0.42990476
1409523184957,6.3087215,12.662334,4.31914,0.27207214,9.788119,0.5376358
1409523184961,3.5194764,10.812814,6.0639143,0.6808517,9.754606,0.74464554
1409523184988,2.315193,8.979453,7.16824,0.78576255,9.720867,1.0284595
1409523184989,2.204461,7.227496,5.97892,0.83542824,9.665883,1.4293966
1409523184993,2.7515364,6.445191,2.9167361,0.91332304,9.593759,1.8154917
1409523185001,4.1282024,5.946,2.2026656,1.0446973,9.550289,1.9674735
1409523185033,3.4560301,5.4857144,4.1066546,1.3122324,9.502426,2.0377276
1409523185035,1.6986861,4.968567,6.700772,1.5402269,9.417967,2.2583206
1409523185036,1.2324153,4.51307,6.746262,1.6143241,9.288234,2.7005658
1409523185059,0.95947635,4.367024,3.0699651,1.649828,9.140655,3.1459339
1409523185060,0.17298107,4.51307,2.0398598,1.6567484,9.088993,3.288735
1409523185061,0.40282443,4.6142254,1.9099745,1.5605209,9.082913,3.3519902
1409523185089,1.0235212,3.942053,0.6961141,1.4783003,9.0769205,3.4050786
1409523185090,1.5460558,3.0442274,0.6877344,1.5089556,9.095179,3.3423266
1409523185095,2.042254,2.2547395,0.89662856,1.6356597,9.089652,3.2974586
1409523185101,2.4971523,1.6112977,0.7799112,1.852518,9.04536,3.3045526
1409523185120,2.630629,1.1384429,1.2066777,2.154506,8.975205,3.3127322
1409523185136,2.8113914,0.7032967,1.5047557,2.4936478,8.849736,3.4109063
1409523185137,2.6521769,0.17058687,1.6406267,2.8840494,8.668124,3.5659878
1409523185152,2.719813,-0.016759412,1.6424223,3.283889,8.436086,3.7707987
1409523185165,2.8179753,0.19393034,2.0296845,3.71181,8.153253,3.9896524
1409523185166,3.74094,0.9151836,1.049259,4.1309996,7.810425,4.2547035
1409523185181,3.514688,5.354632,-0.24241292,4.686798,7.498401,4.2400823
1409523185182,2.3481133,9.463681,-3.8935704,4.8778687,7.659555,3.7024307
1409523185198,-3.3842041,18.055273,-15.192407,4.613797,8.307547,2.4223785
1409523185201,-16.468517,19.608511,-19.608511,4.722154,8.198083,2.581296
1409523185215,-19.482817,19.608511,-14.850635,4.835829,8.066729,2.7772343
1409523185232,-13.586496,19.608511,-4.6082397,4.8860164,7.95452,3.0038037
1409523185233,-8.279748,13.380595,-2.9125464,4.8074017,7.900755,3.2614985
1409523185250,-3.2501287,9.932944,2.2523453,-3.123377,8.715973,-3.232136
1409523185253,-2.7581203,5.844845,-0.80684596,-3.2588644,8.849894,-2.6887898
1409523185273,-1.2629414,5.3396683,-2.4450784,-3.345587,8.856642,-2.5568287
1409523185275,0.91578215,6.6361284,-2.0159178,-3.2789812,8.854144,-2.6500604
1409523185282,2.8778305,9.762358,-1.1480197,-2.9819422,8.93793,-2.7187922
1409523185314,5.3743844,15.87236,0.42796355,-2.3811574,9.136859,-2.649209
1409523185315,5.78499,18.419191,4.0521865,-1.4882995,9.429526,-2.2448578
1409523185316,6.4338183,17.717093,2.19249,-0.71026427,9.665577,-1.4975162
1409523185347,4.4903255,15.808914,-2.2810757,-0.019658932,9.74881,-1.0633538
1409523185348,3.229778,12.250531,1.513734,0.38088673,9.734634,-1.1234785
1409523185350,2.2218192,9.403826,4.056975,0.6206997,9.746106,-0.893613
1409523185354,1.922544,8.189965,3.6912606,0.76665336,9.765631,-0.46377927
1409523185376,2.2655134,8.055291,1.893215,0.86308134,9.7678995,-0.11664105
1409523185378,2.5061307,8.389881,0.9576807,0.99321115,9.75621,0.015690906
1409523185382,2.2296004,8.087015,0.7140707,1.1597522,9.737515,0.0784516
1409523185410,1.8112136,7.61416,0.49559975,1.2936711,9.719851,0.14605361
1409523185411,1.8632874,7.979874,0.80804306,1.378374,9.707192,0.20230216
1409523185413,2.3415294,8.528745,1.4850036,1.4635444,9.69273,0.28181028
1409523185438,3.0053217,8.641273,2.5528176,1.584574,9.669188,0.40785572
1409523185443,2.505532,8.08881,3.9133227,1.7780367,9.623326,0.63289666
1409523185444,1.6729485,7.503428,3.591901,1.9139372,9.568596,0.97426885
1409523185471,1.1258733,7.5465236,2.5851393,1.9486797,9.528317,1.258649
1409523185471,1.0570401,8.491036,2.4049757,1.9125916,9.513726,1.4147052
1409523185473,1.4221559,10.405201,3.3129766,1.8535008,9.507759,1.528867
1409523185482,1.8243817,12.567763,4.1701007,1.8073052,9.488224,1.6963676
1409523185510,1.7741034,13.727754,4.4801497,1.7652622,9.460437,1.8852994
1409523185511,0.9888053,12.971785,4.192846,1.7068703,9.439136,2.0395334
1409523185516,0.0712275,11.264719,3.2555158,1.5739334,9.4372425,2.1521142
1409523185537,-0.6099229,10.155006,2.2930467,1.3815669,9.456798,2.197877
1409523185538,-1.1180922,9.688736,1.941099,1.1591265,9.491554,2.1765168
1409523185542,-1.9991584,9.4295635,0.5057751,0.9227564,9.526131,2.1381578
1409523185572,-2.903568,9.377489,-1.2802993,0.63873017,9.58253,1.9843218
1409523185573,-3.293823,8.412027,-0.42317516,0.3006652,9.655823,1.6867391
1409523185575,-3.663727,7.595605,2.508525,-0.04246201,9.689632,1.5098403
1409523185582,-4.345476,7.391499,3.9402575,-0.40085578,9.651884,1.6884421
1409523185612,-5.058948,8.2276745,2.8395233,-0.7927008,9.564314,2.0164082
1409523185613,-5.257068,8.419808,2.2278047,-1.2209871,9.486964,2.162662
1409523185614,-3.888782,9.300277,0.30166942,-1.6410645,9.415244,2.1978369
1409523185639,-2.5887306,9.720459,-1.0348936,-1.8749776,9.413727,2.0091314
1409523185640,-2.1242554,8.802282,-0.88944596,-1.9413177,9.459589,1.7081677
1409523185642,-2.0410569,8.542512,-1.1240777,-1.971465,9.4903145,1.4891812
1409523185668,-2.0368671,8.914211,-1.5316905,-2.0243297,9.510508,1.2738538
1409523185669,-2.079364,8.969278,-1.9327193,-2.0557222,9.532963,1.0329578
1409523185685,-1.9680338,9.099164,-2.006341,-2.0752988,9.553965,0.7650557
1409523185686,-1.8022354,9.821015,-1.7328035,-2.075597,9.570382,0.51971287
1409523185705,-1.5658079,10.924743,-2.4193408,-2.046,9.585255,0.3273799
1409523185706,-0.86131406,12.125435,-5.6604915,-1.9801159,9.604291,0.08433876
1409523185713,-0.65182143,12.206239,-8.456321,-1.8387469,9.622354,-0.44691727
1409523185733,-1.4305356,11.598111,-7.6009917,-1.6863363,9.59049,-1.1615276
1409523185733,-3.1741128,10.291476,-0.99060094,-1.6548702,9.52367,-1.652724
1409523185751,-1.7741034,9.605537,-1.364695,-1.8274189,9.52343,-1.4612448
1409523185771,-0.2837129,9.270349,-3.429694,-1.845759,9.537177,-1.3437936
1409523185772,0.025737667,9.84795,1.9949685,-1.7011595,9.543377,-1.4833678
1409523185774,-0.49200845,11.641806,10.121488,-1.5148389,9.621216,-1.1436312
1409523185782,-1.3401544,12.9963255,8.617331,-1.3370421,9.714685,-0.08704863
1409523185805,-2.4199393,15.772402,-1.1336545,-1.2142912,9.706491,0.6927473
1409523185806,-5.116409,17.060482,-7.277176,-1.2397763,9.723838,0.28341565
1409523185815,-8.247426,13.860632,-1.7806876,-1.4988594,9.674676,-0.56961995
1409523185835,-6.041768,12.96161,1.8261774,-1.9906472,9.575498,-0.71939945
1409523185835,-3.5021186,14.493898,-0.81402856,-2.273118,9.530181,-0.4230394
1409523185851,-4.0402155,15.719131,-3.7175968,-2.2826443,9.532295,-0.30862975
1409523185871,-4.653131,16.378136,-2.0817583,-2.2729883,9.526645,-0.49695072
1409523185872,-4.6818614,14.775217,0.5351041,-2.3242304,9.509168,-0.58660936
1409523185876,-4.5118732,11.98298,0.11971009,-2.4147232,9.492852,-0.47463566
1409523185882,-5.051167,11.143812,1.9883845,-2.5502503,9.454506,-0.52817565
1409523185904,-5.060744,11.070788,2.420538,-2.7385688,9.404639,-0.47263995
1409523185905,-4.1012673,11.047445,4.1503487,-2.9086032,9.3594475,-0.33333418
1409523185914,-2.6874914,11.367071,6.9796963,-2.9801936,9.342834,-0.01665647
1409523185937,-1.763928,9.740809,8.237251,-2.930908,9.345527,0.4912422
1409523185938,-1.1228806,8.095993,7.5590935,-2.8603394,9.318812,1.0717219
1409523185942,-0.350152,8.485051,6.2165446,-2.7865865,9.270375,1.5701779
1409523185972,-0.034715924,10.498574,5.885546,-2.6513221,9.246413,1.9091175
1409523185973,-0.17058687,14.570513,4.5645456,-2.4556875,9.2404995,2.180173
1409523185974,-0.89603,19.460072,-4.482544,-2.235933,9.284326,2.2298672
1409523185982,-1.7064673,19.608511,-7.2604165,-2.0251822,9.475193,1.5131888
1409523186008,0.75836337,19.608511,0.022146367,-1.8750939,9.599713,0.7070457
1409523186009,4.396951,18.389265,4.5842977,-1.5555965,9.662632,0.619738
1409523186014,6.171055,13.378799,5.692813,-0.99045616,9.710789,0.94338167
1409523186039,6.0250087,10.994174,4.022857,-0.41884238,9.714665,1.2728868
1409523186040,4.734534,10.010158,2.959832,0.09397183,9.70442,1.4091829
1409523186042,3.328539,9.670779,2.7724855,0.42632952,9.693291,1.4243394
1409523186071,2.0135236,8.598776,2.6102784,0.608532,9.674549,1.4843074
1409523186072,2.1045034,7.36636,2.131438,0.68095046,9.647659,1.6215365
1409523186074,3.0627825,6.445191,1.22224,0.7677885,9.620036,1.7423496
1409523186082,3.8857894,5.963358,3.7074213,0.96089935,9.599638,1.758976
1409523186105,2.011728,4.8560395,6.7534447,1.2440696,9.526789,1.9654437
1409523186105,0.9463082,3.9552212,6.779781,1.3665816,9.39768,2.4467232
1409523186116,0.41479546,3.544017,5.283405,1.378615,9.249774,2.951522
1409523186144,-0.46148238,3.3201592,2.7766755,1.3477225,9.126992,3.3244607
1409523186145,-0.78529817,3.0418332,2.4498668,1.2116368,9.081402,3.4972057
1409523186149,-0.025139118,2.5342624,1.6214731,1.0254793,9.042915,3.6530085
1409523186191,1.3174095,2.0757728,0.42197806,0.95777655,9.018121,3.731831
1409523186192,3.1028855,1.75076,0.4177882,1.1020555,9.020848,3.6851246
1409523186193,3.7421372,1.572392,1.6950948,1.5072216,8.98401,3.631288
1409523186194,4.390966,1.6992847,1.4838065,2.013434,8.843204,3.730179
1409523186195,4.506486,1.4460979,1.42455,2.6294198,8.66462,3.7657528
1409523186215,4.483143,1.6154876,2.2230163,3.2579403,8.435424,3.7947135
1409523186216,4.68246,2.1817162,2.5600002,3.8165572,8.13033,3.9372597
1409523186230,4.83928,2.622848,2.3122003,4.3229113,7.800647,4.078325
1409523186249,4.855441,2.9909565,1.2515689,4.7871065,7.497387,4.1283407
1409523186250,4.2143936,3.6056678,-0.16340427,5.211845,7.2835054,3.9946964
1409523186262,2.3828292,8.329428,-1.8363527,5.5020976,7.2554073,3.6409338
1409523186262,-4.38917,18.684351,-15.193006,5.247995,7.7523246,2.9206872
1409523186282,-17.506403,19.608511,-19.608511,5.3017387,7.6346674,3.1263118
1409523186283,-19.60911,19.608511,-16.931795,5.2916594,7.5422654,3.3590112
1409523186299,-14.229938,18.088194,-4.7500963,5.1363645,7.5109963,3.6569207
1409523186312,-4.2778397,6.488885,1.110311,4.9581566,7.495626,3.9246218
1409523186314,-2.4797945,5.49589,0.5955577,-3.0422933,8.855808,-2.9136765
1409523186332,-0.91458505,5.7885814,-2.0213048,-3.1391296,8.911555,-2.6268723
1409523186346,0.7194576,7.527969,-1.3994108,-3.0208156,8.935587,-2.6833413
1409523186346,1.1426327,8.421006,1.1695676,-2.6862857,9.044639,-2.6737278
1409523186362,2.493561,13.230957,5.7478795,-2.312665,9.226926,-2.384493
1409523186362,2.6408045,18.054077,6.8402343,-1.7410575,9.533703,-1.4991992
1409523186379,2.6132712,17.88349,1.5753847,-1.1872622,9.717551,-0.57448536
1409523186382,2.1865046,15.144523,-3.4680011,-0.7383491,9.771111,-0.38818246
1409523186395,4.0779243,13.78342,-1.7729063,-0.41061202,9.771554,-0.7200912
1409523186418,5.7616463,12.043433,3.305794,0.008218963,9.772608,-0.81638217
1409523186419,2.6940753,11.136629,-0.78290397,0.5425161,9.78243,-0.42441258
1409523186423,2.6084828,11.088745,-0.7445967,0.7200997,9.773035,-0.37368864
1409523186450,2.698864,9.329007,3.5392287,0.82995474,9.764207,-0.37662092
1409523186451,2.0284874,8.008006,3.2004492,0.98159903,9.757357,-0.029421618
1409523186468,1.6938977,7.900267,1.887828,1.1098738,9.739461,0.2854951
1409523186469,1.9099745,8.317456,1.7202339,1.1967969,9.724089,0.42446256
1409523186476,2.7335799,8.744822,2.533664,1.3001006,9.706546,0.51292354
1409523186483,3.2213984,8.794501,3.6601357,1.467097,9.671795,0.6887769
1409523186507,2.5863364,8.361151,3.9133227,1.6789473,9.614664,0.95381784
1409523186508,1.8255788,8.106169,2.8089972,1.8076141,9.560073,1.2279841
1409523186515,1.3210008,8.39886,1.7531542,1.8367165,9.533541,1.3814588
1409523186544,1.3700819,9.48882,1.4838065,1.8041999,9.532994,1.4273409
1409523186545,1.7417817,11.368268,2.0895395,1.7706314,9.537001,1.4425241
1409523186547,1.8686744,13.356652,2.8568811,1.7568314,9.531548,1.4945003
1409523186565,1.1522095,14.064139,3.5164838,1.7181025,9.525699,1.5746672
1409523186565,-0.1436521,13.069348,3.8480806,1.6082846,9.524375,1.6941409
1409523186587,-1.3467385,11.285069,3.4404678,1.3867648,9.533217,1.8343978
1409523186588,-2.0697873,9.97185,1.4155718,1.0899895,9.550941,1.9395472
1409523186597,-2.521693,8.968679,-0.43155485,0.7755863,9.595292,1.8706214
1409523186615,-2.7042508,7.6811976,-0.6386533,0.46802756,9.654288,1.6571245
1409523186615,-2.6683378,6.749853,0.1328782,0.17792146,9.693798,1.4727616
1409523186629,-2.6821043,6.275801,1.0259154,-0.086998485,9.705298,1.4035718
