time,acc_x,acc_y,acc_z,gravity_x,gravity_y,gravity_z
1409523486989,-3.5613751,1.804031,9.066842,-3.477442,1.8457235,8.981709
1409523486997,-3.6152446,1.8489223,8.988432,-3.476907,1.8411133,8.982862
1409523487018,-3.7547069,1.9440918,8.861539,-3.4770036,1.8460044,8.981821
1409523487019,-3.8253357,1.9818004,8.810662,-3.4815173,1.8568925,8.977827
1409523487029,-3.9294837,2.0027497,8.879496,-3.4909492,1.8700682,8.971427
1409523487049,-3.913921,2.0530279,8.950723,-3.504183,1.8832381,8.96351
1409523487050,-3.8474822,2.0679917,8.856153,-3.5175514,1.8951566,8.955757
1409523487058,-3.7816415,2.0524294,8.809465,-3.5286026,1.9048703,8.9493475
1409523487084,-3.6727054,2.0165164,8.787319,-3.5347455,1.9110898,8.945597
1409523487085,-3.5625722,1.9901801,8.789114,-3.5371323,1.9132509,8.944191
1409523487089,-3.4901476,1.9494787,8.841787,-3.5355778,1.9117373,8.945129
1409523487098,-3.5242648,1.875857,8.902241,-3.530819,1.906687,8.948087
1409523487113,-3.5871127,1.8531121,9.01417,-3.526397,1.8988811,8.951489
1409523487134,-3.5661635,1.845331,9.118916,-3.52522,1.8902717,8.953775
1409523487135,-3.5745432,1.7717092,9.223662,-3.5264266,1.881654,8.955115
1409523487138,-3.657143,1.7106571,9.356541,-3.534553,1.873419,8.953638
1409523487165,-3.5996823,1.6867151,9.363124,-3.549393,1.8675327,8.948996
1409523487166,-3.466804,1.7016789,9.21229,-3.5662572,1.867535,8.942287
1409523487184,-3.3626564,1.769315,9.027337,-3.5811675,1.8766435,8.934419
1409523487185,-3.2650926,1.8656816,8.944737,-3.5912988,1.8955601,8.926354
1409523487191,-3.2357635,2.0093338,8.824429,-3.5927398,1.9188744,8.920792
1409523487198,-3.229778,2.1410148,8.722076,-3.5859056,1.9486254,8.917092
1409523487216,-3.2680852,2.2212207,8.671799,-3.5771203,1.9787366,8.913989
1409523487218,-3.342904,2.2158337,8.647258,-3.5678568,2.0050242,8.911827
1409523487229,-3.4314895,2.1380222,8.616732,-3.562958,2.02444,8.909397
1409523487245,-3.4039562,2.055422,8.635885,-3.5653346,2.0357857,8.905861
1409523487264,-3.3051953,1.9722236,8.706514,-3.5746288,2.0403244,8.901094
1409523487265,-3.2513258,1.894412,8.796297,-3.5877776,2.0396035,8.895968
1409523487283,-3.4572272,1.8016368,8.980052,-3.6008162,2.036179,8.891484
1409523487284,-3.7834373,1.8201919,9.160814,-3.6137562,2.0279846,8.888106
1409523487289,-4.043208,1.903989,9.291897,-3.6237826,2.0166712,8.886598
1409523487298,-4.1814733,2.0470424,9.408614,-3.6289346,2.0044444,8.887261
1409523487321,-4.1054573,2.203264,9.357738,-3.628193,1.9949329,8.889705
1409523487321,-3.942053,2.2876596,9.173983,-3.6202457,1.9915626,8.893699
1409523487329,-3.7972038,2.268506,9.133281,-3.6049924,1.9947567,8.8991785
1409523487343,-3.503914,2.2098482,9.186552,-3.5847533,2.0024688,8.905619
1409523487364,-3.2501287,2.12246,9.165004,-3.5605392,2.0116408,8.913262
1409523487365,-3.153762,2.0452468,8.954314,-3.533688,2.0235546,8.9212475
1409523487382,-3.1789012,1.9859903,8.793304,-3.5082471,2.0366373,8.928309
1409523487383,-3.1860838,1.9434932,8.701726,-3.48966,2.049214,8.9327135
1409523487390,-3.0867245,1.9608512,8.563461,-3.4791913,2.0611422,8.934053
1409523487398,-3.0454245,2.0284874,8.395268,-3.4718862,2.074851,8.933722
1409523487414,-3.0472202,2.1080947,8.252214,-3.4645958,2.0916512,8.932634
1409523487425,-3.103484,2.1212628,8.163031,-3.4567792,2.110155,8.931311
1409523487431,-3.1950622,2.135628,8.069058,-3.449062,2.1302085,8.929534
1409523487441,-3.3225534,2.1990743,7.8386164,-3.4420614,2.1517155,8.927078
1409523487460,-3.3734303,2.2822728,7.650073,-3.4396188,2.17481,8.922421
1409523487460,-3.5284548,2.405574,7.766192,-3.4437718,2.1991367,8.914854
1409523487476,-3.4919431,2.4911668,7.81647,-3.453475,2.224032,8.904919
1409523487478,-3.2357635,2.509722,7.651869,-3.4621453,2.2500198,8.895019
1409523487492,-2.6862943,2.4384944,7.4507556,-3.4636605,2.2784526,8.887187
1409523487498,-1.8483237,2.3594859,7.1784153,-3.4552886,2.3084002,8.882717
1409523487510,-1.1145009,2.2852654,6.7486563,-3.437614,2.3418043,8.880831
1409523487525,-0.76195467,2.2230163,5.755661,-3.4071445,2.3767927,8.883277
1409523487529,-1.7435774,2.3690627,5.689222,-3.3706653,2.409995,8.8882475
1409523487541,-2.9113493,2.8993783,6.160281,-3.3389015,2.4370208,8.892865
1409523487566,-3.8073792,3.5649664,6.5152216,-3.3189158,2.453762,8.895742
1409523487567,-4.1371803,3.8504748,6.5786676,-3.314216,2.456365,8.896777
1409523487570,-3.9713821,3.5930982,7.229292,-3.3228545,2.4518118,8.89481
1409523487578,-3.5631707,3.0921116,8.620922,-3.3338902,2.4315474,8.896243
1409523487598,-3.0855274,2.6366146,9.746795,-3.3514092,2.4056783,8.896693
1409523487599,-2.8592753,2.046444,10.072407,-3.3640404,2.3868985,8.896984
1409523487612,-3.4033577,0.25617957,9.812037,-3.3628626,2.386061,8.897655
1409523487630,-2.9388826,0.86849666,9.283517,-3.3633559,2.4008896,8.893477
1409523487631,-2.421735,2.2296004,9.419388,-3.3732114,2.459059,8.873831
1409523487648,-2.0572178,3.0699651,11.957242,-3.3918924,2.5614948,8.837658
1409523487650,-1.9219455,3.3051953,11.95365,-3.404706,2.6773944,8.798291
1409523487659,-2.256535,2.9269116,10.858303,-3.41247,2.8116329,8.753294
1409523487678,-3.2243912,2.56419,10.390237,-3.4425733,2.952338,8.694985
1409523487678,-4.243124,2.44029,10.290877,-3.536181,3.098343,8.606166
1409523487692,-5.6305637,3.8019924,9.258977,-3.7113233,3.2542858,8.473847
1409523487712,-5.018845,7.530363,9.357738,-3.931348,3.443487,8.298029
1409523487713,-3.602675,12.084733,7.571663,-4.124333,3.6945693,8.093851
1409523487730,-3.719991,5.459977,10.258555,-4.2586613,4.0175943,7.867218
1409523487746,-6.3033347,2.3774424,9.359533,-4.3289323,4.2479157,7.706227
1409523487747,-5.145738,4.173094,9.124901,-4.4366965,4.363384,7.579379
1409523487762,-4.401141,4.660912,8.222287,-4.4914985,4.410454,7.519623
1409523487763,-5.01705,4.553173,7.7189064,-4.499732,4.4718943,7.4782996
1409523487775,-5.6108117,4.815338,7.8757267,-4.533622,4.5392385,7.4170055
1409523487778,-6.794146,4.753089,8.05589,-4.623376,4.5788107,7.336844
1409523487792,-8.040328,4.3580456,8.337209,-4.7631016,4.579134,7.2467084
1409523487807,-8.626907,4.3879733,9.640852,-4.9377036,4.5567555,7.14321
1409523487810,-7.5830355,5.1002483,9.266758,-5.114538,4.5059032,7.0504417
1409523487824,-7.4471645,4.8536453,8.763377,-5.2681265,4.465863,6.9622765
1409523487829,-7.337031,4.5238442,7.6668324,-5.394065,4.444147,6.879244
1409523487839,-6.663662,4.423288,6.118981,-5.503195,4.4516873,6.7873197
1409523487858,-6.233304,4.2197804,5.8813562,-5.596204,4.494667,6.68213
1409523487858,-6.0345855,4.0761285,5.673061,-5.6835275,4.554116,6.5671864
1409523487875,-5.993884,3.2962172,4.3035774,-5.775087,4.611839,6.445905
1409523487878,-6.2674217,2.0727801,1.9512744,-5.855786,4.6654925,6.3335085
1409523487891,-5.6999955,2.8167782,4.76925,-5.9412246,4.711001,6.2192216
1409523487915,-4.8979383,3.0681696,4.9919105,-6.0021152,4.767709,6.1166954
1409523487916,-4.68246,3.5954924,3.7523127,-6.003945,4.867419,6.0358334
1409523487919,-5.2008047,3.791817,3.2860417,-5.9282985,4.9832454,6.016057
1409523487930,-5.1265845,4.225766,3.3291376,-5.842997,5.0727115,6.02473
1409523487949,-4.6525326,4.4358573,3.3740287,-5.780602,5.1359363,6.031352
1409523487950,-3.4476504,4.461595,2.9753942,-5.7173967,5.1877446,6.047237
1409523487958,-1.371279,4.4436383,1.8010383,-5.6435485,5.2165704,6.091645
1409523487981,-1.1659763,3.3105824,-1.4850036,-5.557966,5.219811,6.1670876
1409523487982,-2.9502552,0.664391,0.08439561,-5.48137,5.1851673,6.264105
1409523487990,-3.7984009,-1.5957354,1.3964181,-5.4149227,5.087362,6.400605
1409523488019,-3.5763388,-3.0963013,3.1399956,-5.3339424,4.912808,6.6018
1409523488020,-2.9622262,-4.3382936,3.1992521,-5.221252,4.6724596,6.861272
1409523488021,-1.8830396,-6.143522,2.9825768,-5.083634,4.399404,7.139488
1409523488060,-2.5600002,-5.551555,5.831078,-4.9098,4.1027217,7.431819
1409523488061,-3.371036,-3.9432502,7.3484035,-4.6831646,3.7841425,7.7407117
1409523488061,-3.2441432,-2.5558102,8.579023,-4.338243,3.457644,8.086701
1409523488062,-2.0901382,-1.5352819,9.561244,-3.8671613,3.131902,8.450246
1409523488075,0.688333,-0.3800795,13.729549,-3.3403347,2.8033538,8.783722
1409523488078,-0.05207389,2.2661119,15.64551,-2.7726119,2.4449725,9.083233
1409523488093,-1.0564415,2.1260512,15.50485,-2.2346165,2.1006858,9.314719
1409523488111,-2.0123265,2.4121583,15.263036,-1.7725921,1.7475483,9.485483
1409523488112,-2.4378958,3.044826,14.750078,-1.3766426,1.4521871,9.600333
1409523488124,-2.4480712,3.3464954,14.438233,-1.0945631,1.2371657,9.666527
1409523488140,-2.5623944,3.6661212,14.028226,-0.9063018,1.092098,9.703419
1409523488141,-2.1930888,4.098873,14.151527,-0.7672564,1.001835,9.725123
1409523488159,-1.1671734,4.722563,14.434044,-0.64678854,0.9455326,9.739508
1409523488160,-0.16160862,5.613206,14.284406,-0.51952684,0.9155263,9.749989
1409523488182,0.22864626,6.640917,14.256274,-0.37520367,0.91422427,9.756731
1409523488183,-0.17298107,7.3897038,14.959571,-0.22005248,0.93312246,9.759674
1409523488191,-0.7272388,7.9595237,15.784373,-0.075077415,0.97506493,9.757766
1409523488215,-0.57760113,7.8757267,15.553332,0.03818974,1.026836,9.752668
1409523488215,0.022744916,6.9210386,15.538369,0.11114107,1.0642897,9.748094
1409523488219,0.76434886,6.1489086,15.394717,0.1302553,1.0771503,9.746444
1409523488243,1.8746599,5.5701103,14.844649,0.081802525,1.0802828,9.746624
1409523488244,3.1717186,4.9601874,14.074315,-0.017703451,1.0870693,9.746197
1409523488263,3.7989995,4.3783965,13.552978,-0.13611355,1.0952785,9.744344
1409523488264,3.7576995,4.2945995,13.423691,-0.2549452,1.1206783,9.73907
1409523488285,3.0765493,4.174889,13.603854,-0.36888486,1.1733438,9.729213
1409523488285,2.4145525,3.9372647,12.862848,-0.46280578,1.2531761,9.715233
1409523488290,1.0977415,3.2866404,12.443863,-0.5290476,1.3570453,9.697883
1409523488315,-0.45789108,2.943671,11.94168,-0.5824286,1.4799533,9.676824
1409523488316,-1.4443022,2.4929626,11.028292,-0.64985436,1.6219009,9.649742
1409523488319,-2.070386,1.6693572,9.674371,-0.74121046,1.7748551,9.6161785
1409523488349,-2.9221232,0.66259533,8.374319,-0.8645177,1.9236766,9.577185
1409523488351,-4.068946,-0.10654198,7.2670007,-1.0163215,2.0721476,9.531196
1409523488352,-4.994903,-0.49200845,6.2392898,-1.2095937,2.2260764,9.473745
1409523488359,-5.4486046,-0.46806642,5.461174,-1.4125632,2.385413,9.406639
1409523488384,-5.4976854,-0.17357962,5.254674,-1.5920563,2.5384977,9.337653
1409523488385,-5.1726727,0.12090719,5.5581393,-1.7349377,2.6730902,9.2744255
1409523488393,-4.5262384,0.46567222,6.375759,-1.8305758,2.7790275,9.224771
1409523488416,-3.7840357,0.7799112,7.281366,-1.8659334,2.853943,9.194764
1409523488417,-2.8281507,1.1013328,7.9032598,-1.8438929,2.913645,9.180474
1409523488419,-1.5029601,1.3904326,8.328231,-1.7803781,2.9486187,9.181846
1409523488447,-0.14784196,1.6699557,8.246229,-1.6640763,2.9659941,9.19805
1409523488448,0.59735334,2.2038627,7.0305734,-1.5128258,2.9752233,9.22116
1409523488453,4.441244,2.0871453,11.975199,-1.3460838,2.9856956,9.243596
1409523488460,7.177817,1.5119383,18.289906,-1.1174839,2.9730647,9.278066
1409523488485,0.25198972,3.145981,12.158355,-0.7962549,2.9083495,9.331552
1409523488486,-1.5975311,3.6212301,10.446501,-0.5931212,2.9106462,9.345947
1409523488491,-1.8962077,2.7150247,11.73518,-0.4484686,2.9996657,9.325839
1409523488512,-1.685518,3.4440591,9.802461,-0.37386036,3.1298728,9.286254
1409523488513,-0.05925649,3.6912606,8.513183,-0.31533626,3.2877872,9.23371
1409523488519,0.45190558,2.6629508,9.400234,-0.21762496,3.4667351,9.170866
1409523488539,1.1653777,3.390788,6.467936,-0.08995076,3.6415737,9.105012
1409523488540,0.32441434,4.6220064,5.747281,0.058099285,3.813321,9.034688
1409523488556,-0.6302736,4.6926355,6.081871,0.1964505,3.9686213,8.965591
1409523488559,-0.27712885,4.19943,6.664859,0.32085064,4.105878,8.899956
1409523488573,0.49320555,3.940856,8.694544,0.4374125,4.196457,8.852615
1409523488589,0.62009823,3.264494,10.735002,0.54882795,4.240749,8.825261
1409523488590,-2.2894554,-0.073023155,10.834361,0.6480672,4.2449837,8.816491
1409523488607,-1.4909891,-0.4249708,8.600571,0.7066916,4.222272,8.82289
1409523488610,-0.41359833,2.1021092,7.363966,0.7549593,4.228977,8.815678
1409523488621,1.0259154,3.3997664,6.7348895,0.7973191,4.281546,8.786526
1409523488642,1.7914615,4.4460325,8.255806,0.8628087,4.354202,8.7445345
1409523488643,1.5885528,4.4382515,8.711303,0.9524222,4.4491663,8.687243
1409523488657,1.1546037,4.972757,9.764751,1.0900555,4.5579424,8.614368
1409523488659,1.2192472,5.7706246,10.346542,1.2691365,4.6802974,8.52376
1409523488673,1.4562732,5.774216,10.358514,1.4512453,4.811657,8.42094
1409523488690,1.3269863,5.0493712,9.745,1.581211,4.943337,8.320672
1409523488692,1.2629414,4.408324,9.325416,1.6259897,5.0780573,8.230424
1409523488705,0.6745663,4.164714,9.2865095,1.6037234,5.2194467,8.145909
1409523488712,0.47165772,4.096479,9.311649,1.5550032,5.359382,8.064079
1409523488732,0.6398504,4.212598,8.886678,1.4906368,5.4921784,7.986512
1409523488732,0.6512229,4.06296,7.8649526,1.4157059,5.615328,7.914181
1409523488739,0.010773907,3.6541502,6.0303955,1.3235285,5.735944,7.8433166
1409523488759,-0.40043023,3.3572693,4.6740804,1.198898,5.8664627,7.7664433
1409523488760,-0.7230489,3.4021606,4.284424,1.0351807,6.0141563,7.6765046
1409523488775,-0.777517,3.8001966,5.595249,0.8431375,6.173171,7.573076
1409523488787,-0.587178,4.350863,7.9236107,0.6426289,6.3289256,7.463385
1409523488791,-0.33399114,4.920683,9.184157,0.45315674,6.472858,7.353036
1409523488806,-0.14604631,5.619191,9.9790325,0.26364714,6.608907,7.240388
1409523488823,-0.5255273,6.7546415,9.22067,0.07853724,6.7549596,7.1087794
1409523488824,-1.1330559,8.265982,7.101801,-0.11925416,6.9382005,6.9294696
1409523488838,-0.3357868,9.351153,6.381146,-0.33788872,7.1699457,6.6819234
1409523488839,0.08619126,10.009559,5.493496,-0.5586229,7.4354677,6.3696275
1409523488855,-0.065242,10.127473,4.5801077,-0.7469287,7.7116294,6.0119257
1409523488859,-0.46567222,9.925163,4.3957543,-0.8708377,7.9723573,5.643896
1409523488873,-0.98222125,9.45171,4.4753613,-0.9750357,8.1977825,5.293019
1409523488889,-1.6286557,8.541913,4.2820296,-1.0596306,8.366981,5.0041175
1409523488892,-3.4865563,7.855376,4.453215,-1.1569793,8.471337,4.802939
1409523488903,-3.4925418,7.8128786,5.0810947,-1.2949741,8.510529,4.697269
1409523488911,-3.0364463,7.45315,6.510433,-1.4622204,8.489327,4.686536
1409523488921,-2.1140802,7.399879,7.6387005,-1.6420988,8.415909,4.7588224
1409523488937,-2.0093338,7.5746555,8.714295,-1.8176296,8.31165,4.876788
1409523488939,-2.0518308,7.8116817,8.684368,-1.998353,8.194616,5.002524
1409523488958,-2.1571758,7.7063365,8.10138,-2.1682127,8.08085,5.1155767
1409523488959,-2.6312277,7.53575,7.53156,-2.3462124,7.9874835,5.18322
1409523488975,-3.151368,7.6051817,6.675633,-2.540759,7.921261,5.1931276
1409523488993,-1.8728642,7.1526775,-0.5069722,-2.7481477,7.8789134,5.1517763
1409523488994,-1.4646529,6.095039,-5.649119,-2.9533188,7.868952,5.052515
1409523489016,-3.0424318,6.26383,5.0906715,-3.1663032,7.8696766,4.9206824
1409523489017,-4.233547,6.867768,6.4870896,-3.3670518,7.824761,4.858648
1409523489020,-4.486734,7.143699,5.6161985,-3.5421028,7.739554,4.8706465
1409523489049,-4.2305546,7.2885485,5.403115,-3.6269975,7.655597,4.940356
1409523489050,-4.2610803,7.277775,6.0543375,-3.668435,7.599743,4.9956865
1409523489053,-4.879383,7.120356,6.169858,-3.7089136,7.5664296,5.0163236
1409523489060,-4.8344917,7.192182,4.3885717,-3.7567315,7.5492926,5.0065503
1409523489080,-3.5613751,7.6494746,2.9538465,-3.8065305,7.554468,4.9609194
1409523489081,-1.0803835,7.924209,3.8013937,-3.853432,7.5787373,4.887146
1409523489091,0.3417723,7.695563,5.989694,-3.8909156,7.6071796,4.812691
1409523489114,-1.033098,7.621941,6.3661823,-3.9236734,7.6217575,4.762771
1409523489115,-1.7986441,7.107786,5.3701944,-3.9766316,7.607025,4.7423573
1409523489120,-2.7114334,6.7283053,4.923077,-4.057122,7.565031,4.7413583
1409523489146,-3.0963013,6.5499372,5.167286,-4.1624875,7.497874,4.7566757
1409523489147,-3.0358477,6.209362,5.667674,-4.28629,7.40598,4.7905707
1409523489151,-3.157952,5.795165,5.8843493,-4.4222956,7.292931,4.840127
1409523489159,-3.4392707,5.616797,5.4444146,-4.570339,7.1672287,4.8901153
1409523489173,-3.8073792,5.354632,5.0864816,-4.7222714,7.03069,4.9436765
1409523489190,-4.458602,4.8739963,5.331289,-4.880278,6.8847504,4.9953465
1409523489191,-6.131551,4.0653543,5.791574,-5.0364347,6.7313833,5.049078
1409523489209,-6.485294,4.1826706,5.9825115,-5.185086,6.571464,5.108926
1409523489226,-6.83365,4.76925,5.8244944,-5.30544,6.4266887,5.1691756
1409523489227,-7.32925,5.5844755,5.6156,-5.395333,6.313399,5.2155323
1409523489242,-7.69257,6.3165026,5.1942205,-5.4616647,6.2375793,5.2376714
1409523489242,-7.383718,7.0485296,4.654328,-5.522697,6.1811624,5.240558
1409523489257,-6.4062853,7.5842323,4.510676,-5.5701113,6.1563478,5.219542
1409523489260,-6.2315083,7.65546,5.1547165,-5.6117435,6.148457,5.184129
1409523489272,-6.6079965,7.32506,5.533,-5.6623096,6.133807,5.1463623
1409523489288,-7.092224,6.869563,5.6539073,-5.732235,6.093442,5.1168184
1409523489306,-7.053318,6.476914,6.077681,-5.812072,6.018989,5.11488
1409523489306,-7.00723,6.153697,6.835446,-5.8874874,5.9140763,5.150883
1409523489321,-7.5201874,5.7963624,6.770204,-5.959614,5.7875,5.2113557
1409523489322,-8.0445175,5.429451,5.637148,-6.037736,5.6508346,5.2710724
1409523489337,-8.388085,5.019444,4.638766,-6.1235485,5.5079746,5.32304
1409523489339,-8.561067,4.5238442,4.3167458,-6.220337,5.366318,5.355411
1409523489357,-8.616134,4.1359835,4.407127,-6.327395,5.2295713,5.3652635
1409523489379,-8.800487,3.965995,4.827309,-6.440917,5.099017,5.355837
1409523489380,-9.358934,4.0761285,5.060744,-6.5495315,4.97856,5.337412
1409523489380,-9.91439,4.345476,4.9733553,-6.6450944,4.874962,5.3148727
1409523489391,-10.060435,4.7099934,4.4556093,-6.72674,4.7826743,5.295979
1409523489407,-9.872491,5.2121773,3.8762126,-6.7907977,4.71941,5.2709217
1409523489427,-9.601347,5.6856303,3.7612908,-6.8371053,4.684278,5.2423215
1409523489428,-9.343372,6.0082493,4.19105,-6.8772187,4.6644664,5.2073994
1409523489434,-8.895657,6.305729,4.674679,-6.917076,4.6449146,5.171964
1409523489440,-8.151658,6.4242415,4.791396,-6.9534936,4.6176476,5.147488
1409523489464,-7.6548615,6.085462,4.7548847,-6.9828873,4.579213,5.14203
1409523489465,-7.577648,5.5539494,4.891354,-7.013849,4.524215,5.1485724
1409523489473,-7.647679,4.905121,5.134964,-7.053232,4.458054,5.1524806
1409523489491,-7.5165963,4.408922,4.807557,-7.09928,4.374379,5.160953
1409523489491,-7.2203135,4.1455603,4.445434,-7.1496377,4.2854414,5.166049
1409523489506,-7.018004,3.882198,4.1659107,-7.200944,4.204662,5.161163
1409523489530,-6.988076,3.6936548,4.1491513,-7.256073,4.1385303,5.137349
1409523489531,-7.052121,3.5344403,4.27365,-7.31315,4.0866165,5.0978236
1409523489534,-7.1425023,3.1262288,4.429273,-7.3664,4.0469337,5.0526094
1409523489540,-7.1460934,3.2142158,4.71119,-7.4117384,4.0107217,5.015042
1409523489563,-7.2592196,3.7086184,5.342661,-7.446948,3.9895508,4.9796424
1409523489564,-7.3322425,4.0497923,5.6006365,-7.463994,3.9887514,4.954701
1409523489572,-7.041347,4.4208937,5.2181625,-7.468624,4.0065255,4.9333363
1409523489598,-6.797737,4.8380833,4.5555673,-7.4701285,4.037179,4.9059906
1409523489599,-6.678027,5.065532,4.4143095,-7.476905,4.0709934,4.867576
1409523489600,-6.652888,4.8602295,4.7243586,-7.493297,4.091376,4.825095
1409523489640,-6.679224,4.385579,4.8757915,-7.5173216,4.0851502,4.792894
1409523489641,-6.695385,3.8642416,5.0182467,-7.5419617,4.062719,4.7732096
1409523489644,-6.7947445,3.4566288,5.0397944,-7.5718837,4.015559,4.765736
1409523489645,-6.9342065,3.1723173,4.96737,-7.603843,3.954244,4.766122
1409523489669,-6.921637,3.1070752,5.026028,-7.633777,3.8905096,4.7707214
1409523489671,-6.727108,3.1358056,5.0302176,-7.656387,3.8352242,4.779244
1409523489673,-6.7965403,3.0621839,5.4354362,-7.668815,3.7974396,4.7894816
1409523489705,-7.111976,3.110068,5.957971,-7.6701775,3.7785728,4.802202
1409523489707,-7.088034,3.417723,5.9118824,-7.6588764,3.7783408,4.820389
1409523489708,-6.944382,3.834314,5.4144874,-7.6407156,3.7952871,4.835872
1409523489725,-6.935404,4.1802764,4.9901147,-7.614989,3.8402228,4.840973
1409523489727,-6.8007298,4.496909,4.624999,-7.591539,3.9043,4.8265276
1409523489739,-6.7306995,4.7046065,4.5142674,-7.5735784,3.9747643,4.79714
1409523489740,-7.0251865,4.845266,4.7399206,-7.559622,4.0394735,4.7649927
1409523489756,-7.290344,4.757279,4.634576,-7.5494547,4.0883117,4.7393923
1409523489772,-7.6009917,4.633379,4.547786,-7.54517,4.116254,4.7219963
1409523489773,-7.6847887,4.4765587,4.321534,-7.5443997,4.132563,4.7089634
1409523489789,-7.5321584,4.346673,4.2634745,-7.554199,4.129269,4.696127
1409523489792,-7.40347,4.1695023,4.26946,-7.571632,4.111329,4.6837745
1409523489802,-7.3100963,3.8780081,4.288614,-7.59435,4.0828233,4.671916
1409523489818,-7.4908586,3.4650085,4.5483847,-7.6191998,4.0454555,4.6639557
1409523489820,-8.0445175,2.9861681,5.193622,-7.6428056,3.9991705,4.665251
1409523489837,-8.380304,2.7778726,5.321712,-7.661151,3.9452143,4.6810727
1409523489840,-8.418014,2.9119477,5.0020857,-7.6706095,3.8929937,4.7092175
1409523489860,-8.374319,3.244742,4.631583,-7.6755934,3.8479793,4.7380085
1409523489861,-8.336611,3.550601,4.5860934,-7.6757073,3.821039,4.7595754
1409523489872,-8.418612,3.7523127,4.7842135,-7.6770844,3.8088107,4.7671523
1409523489901,-8.579023,3.769072,4.8865657,-7.682482,3.8009994,4.7646894
1409523489902,-8.656237,3.6601357,4.8644195,-7.692446,3.787689,4.7592072
1409523489903,-8.685565,3.50152,4.724957,-7.7055197,3.764552,4.756419
1409523489921,-8.583812,3.3608606,4.4184995,-7.722812,3.7319825,4.7540374
1409523489921,-8.511387,3.2477345,4.461595,-7.7454815,3.6953502,4.745766
1409523489937,-8.395866,3.1040826,4.4364557,-7.772457,3.6512022,4.7358227
1409523489940,-8.186374,3.0107086,4.3041763,-7.8054624,3.6007473,4.7201443
1409523489954,-8.097789,2.9724014,4.6232033,-7.8419557,3.54798,4.6995687
1409523489970,-8.23366,2.7269957,4.9266686,-7.8773017,3.4978523,4.6779833
1409523489972,-8.519767,2.5246856,5.073313,-7.909073,3.452177,4.6582656
1409523489989,-8.675988,2.5187001,4.781221,-7.935772,3.4121113,4.6423497
1409523490004,-8.811859,2.5959132,4.460996,-7.9587393,3.3820622,4.6249905
1409523490004,-8.805874,2.7563248,4.2161894,-7.9848356,3.3582497,4.597277
1409523490020,-8.717887,3.0561984,3.9211037,-8.010053,3.3455703,4.5625215
1409523490021,-8.789114,3.1352072,3.7972038,-8.039197,3.3415148,4.513975
1409523490034,-9.00579,2.9939492,4.26946,-8.072082,3.3394344,4.4564624
1409523490040,-8.996812,3.0873232,4.349666,-8.107313,3.3307722,4.3986187
1409523490052,-8.761581,3.3997664,3.828927,-8.139817,3.319626,4.3467054
1409523490076,-8.41502,3.7481227,3.4554317,-8.168667,3.31567,4.2952986
1409523490077,-8.115746,3.8606503,3.4566288,-8.198488,3.318557,4.235844
1409523490081,-7.8733325,3.582923,3.5392287,-8.228791,3.326092,4.1706705
1409523490115,-7.7548194,3.3363202,3.3381157,-8.262981,3.329218,4.0999823
1409523490116,-7.689577,2.8981812,3.3812113,-8.298498,3.3253012,4.0308423
1409523490117,-7.762002,2.3439236,3.7241807,-8.33059,3.3134758,3.9739823
1409523490121,-8.139688,2.0368671,4.4903255,-8.3549595,3.2957232,3.9374182
1409523490146,-8.672996,2.067393,5.533599,-8.365601,3.277571,3.929968
1409523490152,-9.161413,2.3900118,5.775413,-8.357432,3.2677832,3.955416
1409523490153,-9.119514,2.9981391,5.040992,-8.33764,3.267338,3.9973342
1409523490175,-8.761581,3.4979286,4.7381253,-8.311433,3.2935734,4.030245
1409523490175,-8.286332,3.6092591,4.644751,-8.288811,3.3414996,4.037374
1409523490181,-8.070255,3.3321302,4.936844,-8.27766,3.3973157,4.0135994
1409523490209,-8.01459,2.9724014,5.2385135,-8.271656,3.4506285,3.9803603
1409523490210,-8.010999,2.7641058,5.2444987,-8.263472,3.5020723,3.9523294
1409523490212,-8.031948,2.5779567,4.7147818,-8.2523155,3.5574512,3.9260945
1409523490220,-8.037335,2.4881742,4.3502645,-8.240523,3.6260126,3.8879535
1409523490237,-7.8667483,2.5617957,4.3299136,-8.228012,3.696572,3.8478007
1409523490266,-7.727885,2.6922798,4.5154643,-8.209705,3.7813044,3.8043227
1409523490267,-7.5561004,2.8119898,4.2102036,-8.1806345,3.8806696,3.766699
1409523490268,-7.129334,2.9819782,3.5529952,-8.138783,3.9963114,3.7363212
1409523490273,-6.675633,3.196858,3.0825348,-8.085928,4.1283164,3.7074502
1409523490313,-6.1207767,3.4542346,2.734777,-8.023836,4.2752104,3.675734
1409523490315,-5.843648,3.4685998,1.5771804,-7.9498096,4.4356375,3.6463754
1409523490317,-6.121375,3.7205894,0.9636662,-7.8636355,4.6024942,3.626385
1409523490318,-6.2728086,3.764882,0.9528923,-7.763596,4.783029,3.6082652
1409523490321,-5.969942,3.2734723,0.46686932,-7.6403794,4.978903,3.6063178
1409523490365,-5.0625396,2.617461,-0.019153614,-7.488982,5.190757,3.6251314
1409523490366,-4.486734,3.091513,0.6027403,-7.2944255,5.42722,3.675193
1409523490368,-3.333926,5.072715,2.7395654,-7.045388,5.6931696,3.757755
1409523490369,-1.8842367,6.9647326,10.070012,-6.7304053,5.9889717,3.8735328
1409523490408,-1.8022354,8.02297,14.135965,-6.314707,6.299091,4.0763144
1409523490409,-2.5540147,8.278551,8.009203,-5.8064513,6.593425,4.356864
1409523490410,-3.654749,8.5778265,1.4502877,-5.3455124,6.876048,4.507311
1409523490411,-3.5164838,8.520964,2.3546975,-4.9797273,7.12409,4.540932
1409523490413,-3.004723,8.161834,4.4759603,-4.7784204,7.3156137,4.4518394
1409523490421,-2.6880898,7.4866686,6.5379663,-4.7173867,7.4511976,4.289092
1409523490448,-2.610877,5.230732,7.150882,-4.6955748,7.5382996,4.1588464
1409523490449,-3.7870286,2.9885623,4.31495,-4.6851225,7.586634,4.082031
1409523490453,-5.4713492,1.7322049,2.429516,-4.6920843,7.6226945,4.0061545
1409523490474,-7.0784574,0.9295488,1.0073603,-4.7465167,7.6431384,3.901717
1409523490475,-8.122928,0.48602295,0.32202014,-4.842232,7.6594033,3.74923
1409523490481,-8.10557,0.3812766,0.4758476,-4.947779,7.6838984,3.5563428
1409523490511,-6.8462195,0.41958386,1.1306617,-5.0084906,7.733723,3.3578148
1409523490513,-5.158906,0.5105635,1.555034,-4.9815145,7.8266697,3.1777575
1409523490514,-4.061165,0.079008654,1.6340426,-4.8610725,7.9662895,3.0130684
1409523490521,-2.5677812,-0.45549688,1.4143747,-4.67247,8.142154,2.83615
1409523490557,-0.57281274,-0.45310268,1.5065514,-3.936571,8.736855,2.083549
1409523490558,-0.029927522,-0.38606504,1.5562311,-3.936571,8.736855,2.083549
1409523490558,-0.023942016,-0.415394,1.5801731,-3.936571,8.736855,2.083549
1409523490576,0.23463176,-0.19153613,1.7244238,-3.6538582,8.931323,1.746755
1409523490576,0.30286652,2.7473464,2.4821887,-3.3719308,9.10453,1.381302
1409523490581,-5.4342394,16.8462,5.643732,-6.9568415,4.4096775,5.3223553
1409523490608,-15.907076,19.608511,7.120356,-5.890124,6.321681,4.6382303
1409523490609,-4.9559975,19.608511,-4.1018662,-5.8347173,6.6659427,4.2061434
1409523490615,13.212402,19.608511,-4.035427,-5.281144,7.89108,2.451686
1409523490621,14.149732,18.196531,-0.41000703,-4.938738,8.248122,1.9359041
1409523490636,10.849923,9.012374,-0.5081693,-4.3991094,8.642069,1.4604361
1409523490657,8.531737,4.222773,-2.2451627,0.6896058,9.641963,1.651471
1409523490658,8.352771,3.2273839,-7.6285253,1.4813641,9.580695,1.4785897
1409523490661,8.328829,3.845088,-9.528923,2.3866365,9.492097,0.6119553
1409523490698,6.7971387,4.362834,-5.886145,3.2612636,9.236327,-0.47411096
1409523490699,4.5058875,5.366603,-1.4927847,3.8505406,8.959061,-1.0387359
1409523490700,3.1142578,7.4226236,0.97144735,4.0034614,8.895937,-1.0025027
1409523490702,3.1453824,9.93474,3.1878796,3.894849,8.971352,-0.71789736
1409523490730,4.4125137,12.160749,5.283405,3.7020323,9.075631,-0.31345293
1409523490731,5.019444,12.524069,5.445612,3.6083999,9.1171875,0.16356033
1409523490735,4.597466,11.43351,4.4783545,3.6123643,9.10438,0.48111326
1409523490762,4.0815153,10.42615,3.4494462,3.6283894,9.0869665,0.6574056
1409523490762,3.5733461,9.513959,3.0621839,3.6288424,9.073766,0.8177169
1409523490763,3.2932243,8.757391,3.1615434,3.611876,9.062184,1.0007719
1409523490773,3.1160536,8.350377,3.459023,3.6049159,9.036994,1.2278923
1409523490788,2.9221232,8.210915,3.6260185,3.5970538,8.999079,1.4993933
1409523490805,2.8455088,8.47727,3.9630024,3.5689204,8.960448,1.7730107
1409523490805,2.7269957,8.9363575,4.223372,3.5117302,8.925122,2.0445898
1409523490822,2.4061728,9.1668,4.1922474,3.4200685,8.898594,2.299683
1409523490822,2.011728,9.231443,4.020463,3.2929697,8.889041,2.5123065
1409523490838,1.7160441,9.325416,3.6254199,3.1332912,8.896418,2.6845186
1409523490853,1.6663644,9.487024,2.9999347,2.9794466,8.92296,2.7702148
1409523490855,2.1338322,10.069414,1.5065514,2.8290763,8.966058,2.7886443
1409523490866,2.3014264,10.311827,0.8690952,2.7425654,9.037143,2.6417415
1409523490887,2.296638,10.402207,0.079008654,2.6840541,9.11053,2.4422312
1409523490893,2.172738,10.34774,-1.1599907,2.6337733,9.189541,2.1876829
1409523490926,1.9853917,10.284293,-3.0657754,2.584634,9.278406,1.8442432
1409523490927,1.8142064,10.262746,-4.5352163,2.5329225,9.376552,1.3546108
1409523490928,1.6950948,10.284892,-3.750517,2.4749663,9.458241,0.7658876
1409523490928,1.7675194,10.316615,-1.1665748,2.394404,9.504311,0.3245058
1409523490933,1.7328035,10.207679,0.5805939,2.3161814,9.527301,0.19036534
1409523490951,1.6460136,9.97604,1.2012907,2.2408926,9.544175,0.23975217
1409523490953,1.4688427,9.874287,1.4383167,2.168817,9.558173,0.3286106
1409523490979,1.1569979,9.758766,1.489792,2.0887005,9.5724325,0.41982466
1409523490980,0.9840169,9.652225,1.4556746,1.9897523,9.589167,0.5090499
1409523490982,1.0815806,9.660604,1.4317327,1.889598,9.604344,0.5969845
1409523491009,1.4981717,9.774328,1.4161704,1.8108895,9.614621,0.6709408
1409523491010,1.8854338,9.791686,1.3431472,1.7857176,9.614208,0.74068046
1409523491013,2.0512323,9.733627,1.1456255,1.8040324,9.60608,0.7994567
1409523491021,2.2625206,9.712678,0.95827925,1.8340201,9.597318,0.83562315
1409523491037,2.4223335,9.528324,0.7846996,1.8736641,9.588367,0.85028064
1409523491051,2.5432408,9.340978,0.8194155,1.9233649,9.578789,0.84726304
1409523491053,2.8814218,9.403227,1.033098,1.9798543,9.567,0.8503271
1409523491069,3.2519245,9.53012,0.76195467,2.063368,9.547494,0.87076753
1409523491086,3.532046,9.821614,-0.15322891,2.1608665,9.526589,0.86322427
1409523491087,3.5350387,10.211869,-0.5883751,2.2587802,9.512501,0.7619898
1409523491105,2.9753942,10.117298,-0.37110126,2.3277717,9.505093,0.6364593
1409523491106,2.0961237,9.799467,0.3441665,2.3343291,9.507701,0.57001555
1409523491113,1.4425066,9.77792,1.6843209,2.2675629,9.522281,0.5955878
1409523491121,0.58538234,9.718064,2.7994204,2.1552796,9.537757,0.74589056
1409523491136,-0.13706805,9.467272,3.2998085,1.9879862,9.5543995,0.9652681
1409523491151,-0.22804771,9.572019,3.615843,1.7799429,9.567773,1.2082833
1409523491173,0.32680854,9.920973,3.4685998,1.5989465,9.570176,1.4231939
1409523491173,1.0241197,10.132261,2.8790276,1.4966718,9.56264,1.5767969
1409523491174,1.3503298,9.807847,2.3157916,1.4727137,9.554714,1.6458886
1409523491182,1.423353,9.272743,1.9548657,1.4767741,9.550028,1.6692902
1409523491206,1.4203602,9.066842,1.887828,1.4796567,9.54648,1.6869237
1409523491206,1.2593501,9.3583355,1.8848352,1.4739357,9.541795,1.7181603
1409523491215,0.9032126,9.782708,1.910573,1.4449515,9.5413265,1.7451658
1409523491236,0.43275195,9.880272,1.8543092,1.3756627,9.547163,1.769071
1409523491237,0.07062895,9.715671,1.5717934,1.2632979,9.559356,1.786951
1409523491257,-0.035314474,9.710283,1.2024878,1.1363146,9.577511,1.7749588
1409523491257,0.20231004,9.702502,1.0151415,1.0220991,9.599905,1.7226533
1409523491261,0.4961983,9.97604,0.85891986,0.95188105,9.6191225,1.6543232
1409523491284,0.6943185,10.184336,0.8439561,0.9181252,9.635837,1.5741979
1409523491285,0.7966706,10.293272,0.88405895,0.9006486,9.64973,1.4973207
1409523491301,0.88525605,10.274118,0.96067345,0.8876307,9.660612,1.4335505
1409523491302,0.88765025,10.350134,1.0875661,0.8818866,9.668009,1.3864628
1409523491320,0.7978677,10.317812,0.9720459,0.87413114,9.673135,1.3552746
1409523491334,0.9451111,10.003573,0.931943,0.8572496,9.680407,1.3134794
1409523491335,1.0654198,9.996989,1.0887632,0.8613655,9.685433,1.2731225
1409523491350,0.98341835,9.806051,1.234211,0.8797762,9.686349,1.2534207
1409523491353,1.0803835,9.85633,1.5328877,0.88957804,9.685594,1.252316
1409523491367,1.0115502,9.787497,1.821389,0.9071795,9.680583,1.2781833
1409523491381,0.9451111,9.674371,1.9183542,0.9193308,9.672669,1.3284101
1409523491382,0.98940384,9.677961,1.8549078,0.92509884,9.664589,1.3821324
1409523491401,1.0779893,9.66659,1.5975311,0.9332187,9.657977,1.422316
1409523491402,1.1767502,9.685144,1.3916297,0.9488109,9.654868,1.43306
1409523491415,1.2910733,9.812635,1.376666,0.97154146,9.65394,1.4240651
1409523491431,1.2264298,9.76535,1.2958617,1.0033897,9.65199,1.4151582
1409523491433,1.1563994,9.696517,1.2635399,1.0271616,9.6515045,1.4013524
1409523491450,1.1474211,9.647436,1.2904748,1.040383,9.65217,1.3869419
1409523491470,1.1162965,9.651626,1.4257472,1.0496908,9.652549,1.377256
1409523491470,1.0534488,9.714474,1.5951369,1.0563307,9.651201,1.3816227
1409523491489,0.96785605,9.7719345,1.7543513,1.0579896,9.648297,1.4005057
1409523491490,0.86490536,9.812635,1.9021933,1.050862,9.644522,1.4315435
1409523491493,0.79367787,9.865308,1.958457,1.0341964,9.640058,1.4731256
1409523491502,0.7529764,9.855731,1.9812019,1.0122852,9.63583,1.5154122
1409523491520,0.6781576,9.880871,1.9500773,0.9872034,9.631856,1.5566473
1409523491522,0.60453594,9.903615,1.8219875,0.95756876,9.629161,1.591443
1409523491533,0.56922144,9.919776,1.7351977,0.9221683,9.629391,1.6108572
1409523491551,0.5470751,9.853935,1.6346412,0.88543,9.6313095,1.6199601
1409523491553,0.54647654,9.7719345,1.5245079,0.8510405,9.634322,1.6204791
1409523491567,0.5386954,9.757569,1.483208,0.8221549,9.638157,1.6125726
1409523491584,0.51954174,9.755774,1.3844471,0.7960463,9.642079,1.6021918
1409523491584,0.5542577,9.845556,1.2964603,0.76889825,9.647408,1.5832609
1409523491602,0.57520694,9.903615,1.1522095,0.74686027,9.653752,1.5548835
1409523491602,0.55844754,9.907805,1.0289081,0.72752345,9.661505,1.5154032
1409523491618,0.55006784,9.84795,0.9427169,0.7078297,9.670256,1.468172
1409523491630,0.5398925,9.785102,0.88405895,0.6886986,9.679016,1.418711
1409523491635,0.5351041,9.743802,0.8750807,0.6711504,9.687149,1.3708012
1409523491644,0.5506664,9.8276,0.94211835,0.6551295,9.694189,1.328124
1409523491664,0.5722142,10.049063,1.0402806,0.64090604,9.699596,1.2951748
1409523491664,0.4938041,10.120889,1.0295067,0.63043314,9.703599,1.2700907
1409523491687,0.40162733,10.083779,1.0324994,0.6090593,9.7080145,1.246554
1409523491688,0.3369839,10.017939,1.091756,0.581267,9.712372,1.2257032
1409523491696,0.3298013,10.014347,1.2192472,0.55099577,9.7156,1.2140467
1409523491702,0.38726214,10.040085,1.423353,0.52503335,9.716787,1.2160461
1409523491718,0.39085343,10.019734,1.6023195,0.50922143,9.714993,1.2369428
1409523491733,0.34356794,9.922171,1.7764976,0.4963871,9.711038,1.2726947
1409523491734,0.43993455,9.903615,1.9428947,0.4804612,9.705202,1.3223429
1409523491747,0.6218939,9.988609,2.094328,0.47488984,9.697042,1.3828356
1409523491766,0.7380127,10.158598,2.147599,0.4903262,9.686729,1.4481826
1409523491766,0.7278373,10.163984,2.1110873,0.5149474,9.67632,1.5079935
1409523491783,0.6733692,9.951499,1.9847932,0.53469753,9.667447,1.5572209
1409523491784,0.66379243,9.964667,1.9261353,0.54821986,9.661034,1.5919311
1409523491798,0.66498953,10.072407,1.8818425,0.56066376,9.656099,1.6173358
1409523491802,0.587178,9.825205,1.7034745,0.57182986,9.652652,1.6339258
1409523491816,0.6428431,9.800665,1.6142905,0.5735682,9.651915,1.6376667
1409523491830,0.7248446,10.007165,1.6316484,0.5790262,9.652673,1.6312609
1409523491834,0.6619968,9.91439,1.596334,0.5915142,9.653054,1.62452
1409523491843,0.57640404,9.835381,1.6316484,0.59644556,9.653915,1.6175808
1409523491864,0.52492875,9.853337,1.7292122,0.59267074,9.654467,1.6156691
1409523491865,0.53211135,9.7958765,1.827973,0.58471626,9.653736,1.6229259
1409523491881,0.53211135,9.667787,1.9057846,0.57989657,9.651273,1.6392215
1409523491882,0.5746084,9.472659,1.9267339,0.5765949,9.6474905,1.6624875
1409523491901,0.66498953,9.420585,1.963844,0.578328,9.642714,1.6893768
1409523491903,0.7110779,9.506178,2.0446482,0.58972996,9.63709,1.7172956
1409523491914,0.7326257,9.561244,2.1260512,0.6044678,9.6304245,1.749274
1409523491931,0.6787562,9.524733,2.15957,0.6192606,9.622931,1.7849747
1409523491936,0.60693014,9.567828,2.1888988,0.62660336,9.615819,1.8203751
1409523491951,0.6135142,9.725247,2.224812,0.6257032,9.609474,1.8538866
1409523491966,0.56563014,9.739613,2.2002714,0.62467504,9.603825,1.8832787
1409523491967,0.3776853,9.572019,2.0829554,0.61834145,9.599733,1.9060909
1409523491986,0.33997664,9.460688,2.087744,0.5950988,9.598377,1.9202687
1409523491987,0.26515785,9.313444,2.0548236,0.5714964,9.597199,1.9332728
1409523492003,0.20051439,9.214684,2.0266917,0.5440633,9.596471,1.9447681
1409523492004,0.16819267,9.263166,1.9985598,0.5125661,9.59631,1.9541023
1409523492014,0.14664486,9.389461,1.9297266,0.4798156,9.597245,1.9578182
1409523492031,0.15263036,9.624691,1.8980033,0.44754416,9.600095,1.9514828
1409523492034,0.12270284,9.880871,1.8764555,0.4176783,9.604018,1.9387534
1409523492050,0.09935937,10.110714,1.8788497,0.3878677,9.608651,1.9219145
1409523492070,0.060453594,10.420164,1.9339164,0.35554042,9.61372,1.9027275
1409523492070,-0.019752163,10.614095,2.042254,0.32184798,9.618119,1.8864219
1409523492074,-0.05626374,10.634445,2.1859062,0.28351125,9.62041,1.8808877
1409523492082,-0.012569559,10.547057,2.2631192,0.24652007,9.619601,1.8902094
1409523492103,0.10594343,10.514735,2.2894554,0.21898703,9.616588,1.9088424
1409523492104,0.17238252,10.515932,2.3259668,0.20683044,9.613014,1.9280995
1409523492116,0.23582886,10.453085,2.4307132,0.20196985,9.609086,1.9480932
1409523492134,0.29388827,10.195708,2.6282349,0.20172465,9.603422,1.975852
1409523492135,0.26635495,9.910199,2.8233624,0.20099954,9.604585,1.9702734
1409523492149,0.27353755,9.8042555,2.8179753,0.19699645,9.60386,1.9742031
1409523492167,0.34356794,9.712678,2.3918076,0.19116877,9.603064,1.9786452
1409523492168,0.38307226,9.546281,1.7100586,0.18589462,9.604952,1.9699601
1409523492189,0.30286652,9.353547,1.2671312,0.18033962,9.610365,1.943905
1409523492190,0.2908955,9.251794,1.091756,0.17049743,9.616946,1.9119799
1409523492194,0.21428105,9.059659,1.1755531,0.15953386,9.6232,1.8812115
1409523492215,0.1376666,8.836999,1.3000516,0.14753391,9.626913,1.8631101
1409523492216,0.14724341,8.762778,1.3054385,0.13625,9.627892,1.8589039
1409523492229,0.25198972,8.823831,1.2258313,0.12913755,9.626887,1.8646047
1409523492249,0.31483752,8.829217,1.1994951,0.12920214,9.624442,1.8771827
1409523492250,0.48722005,9.003994,1.216853,0.13526012,9.620126,1.8987623
1409523492263,0.7769185,9.269751,1.3497312,0.14865473,9.613367,1.9316976
1409523492263,0.87208796,9.569624,1.5819688,0.17103812,9.603215,1.979745
1409523492283,1.0402806,9.846753,1.7914615,0.19689094,9.5907545,2.0369246
1409523492283,1.30484,10.038289,1.8662802,0.223845,9.574474,2.1094382
1409523492300,1.1468226,9.997588,1.91596,0.2522776,9.555347,2.191371
1409523492314,0.9923966,9.922171,2.0207062,0.27059332,9.533982,2.2804348
1409523492320,0.9744401,9.904214,2.19668,0.27753246,9.5102005,2.3768606
1409523492344,1.0827777,10.068216,2.3127987,0.28067368,9.483381,2.4813468
1409523492345,1.2419921,10.373477,2.3343468,0.28792408,9.454547,2.5882509
1409523492345,1.299453,10.360908,2.202067,0.3007146,9.425091,2.6921403
1409523492369,1.2192472,10.274118,1.7914615,0.31258973,9.396086,2.7903893
1409523492370,1.1935096,10.175956,1.2425907,0.32095864,9.369232,2.878343
1409523492374,1.110311,10.14543,0.91937345,0.32313275,9.345567,2.9540393
1409523492382,0.97144735,10.056845,0.6147113,0.31994185,9.323483,3.023357
1409523492399,0.7134721,10.024523,-0.09995792,0.31249535,9.30227,3.0887706
1409523492426,0.47225627,10.197504,-1.5442601,0.3010086,9.284316,3.1434488
1409523492427,0.4417302,10.435128,-2.521693,0.2893667,9.275344,3.1709056
1409523492428,0.53809685,10.643424,-1.2791022,0.28553778,9.273264,3.1773307
1409523492435,0.5398925,10.398617,1.4862007,0.29272828,9.265122,3.2003458
1409523492466,0.08559271,9.4696665,4.3394904,0.32064095,9.243963,3.2583303
1409523492468,-0.6123171,8.626308,4.911106,0.3652499,9.215819,3.332513
1409523492469,-0.7044938,8.399458,4.0252514,0.41922876,9.200811,3.3674488
1409523492505,-0.40462008,8.374918,3.5655649,0.4845026,9.20863,3.3371804
1409523492506,0.107739076,8.884883,3.537433,0.5569287,9.23111,3.2629457
1409523492507,0.28909984,9.459491,3.6697125,0.63181,9.259744,3.1667593
1409523492508,0.15023616,9.952697,3.393781,0.69332653,9.288831,3.0671372
1409523492515,-0.03172317,10.444705,2.132635,0.7502488,9.32051,2.9556093
1409523492541,-0.45789108,10.912771,2.0973208,0.7883009,9.357817,2.824931
1409523492542,-0.6159084,11.346721,2.0721815,0.80213416,9.393174,2.7009711
1409523492543,-0.6607997,11.802815,1.7782934,0.80175155,9.423253,2.5942059
1409523492575,-0.64463884,12.064383,1.5161282,0.7971356,9.4471,2.5074475
1409523492575,-0.64463884,12.421119,1.7525556,0.79703826,9.464037,2.4427695
1409523492576,-0.3728969,12.958018,2.4241292,0.8010978,9.476185,2.3938594
1409523492583,-0.14724341,13.153146,2.6420016,0.8127178,9.478347,2.3813488
1409523492610,0.025737667,13.067553,2.3612814,0.83686674,9.472453,2.3963895
1409523492611,0.110133275,12.774263,1.8513165,0.8747756,9.461174,2.4272103
1409523492614,-0.007182605,12.562376,1.5478514,0.91558194,9.446126,2.47039
1409523492628,-0.25617957,12.235568,1.1994951,0.9432354,9.425942,2.536194
1409523492634,-0.45010993,11.917738,0.17357962,0.9466411,9.398919,2.63336
1409523492646,-1.7477672,11.815984,-8.859743,0.92418873,9.366481,2.7541423
1409523492672,-4.6501384,12.064383,-18.893843,0.86420745,9.379922,2.7277439
1409523492673,-3.5248635,14.848241,-11.815386,0.82551795,9.322792,2.9282203
1409523492675,-2.5450363,17.050308,6.129755,-0.8462455,9.641773,-1.5781244
1409523492683,-6.3182983,13.287221,8.437167,-0.9663407,9.727569,-0.78165805
1409523492708,-8.847174,10.8469305,-5.34326,-1.3948495,9.706888,-0.03328108
1409523492709,-6.3685765,9.922171,-5.2624555,-2.067925,9.565009,-0.6361353
1409523492716,-3.316568,11.492766,-0.82779527,-2.4628444,9.414018,-1.2169787
1409523492731,-2.5959132,12.876017,2.6300306,-2.4580326,9.404718,-1.2960317
1409523492746,-0.83018947,12.090718,5.058948,-2.3502164,9.472535,-0.9580861
1409523492746,1.6621746,12.088325,6.7654157,-2.1708593,9.552454,-0.4565118
1409523492763,3.674501,14.393342,7.5812397,-1.8580015,9.628304,0.11831554
1409523492764,4.6483426,16.44996,6.743269,-1.392887,9.683996,0.67117816
1409523492780,5.039196,18.887857,6.0770826,-0.907365,9.707062,1.0583107
1409523492783,4.629189,19.558233,5.245696,-0.48532036,9.707734,1.3018208
1409523492798,4.856638,17.72667,2.2415714,-0.1643373,9.699154,1.4386848
1409523492811,5.9585695,15.507244,-0.47285482,0.14864159,9.707371,1.3839184
1409523492815,6.239888,14.884752,-1.3611037,0.5637199,9.719528,1.1761812
1409523492828,4.720767,14.693215,0.014963761,0.9958137,9.709495,0.9510393
1409523492848,3.4153287,14.245501,1.8764555,1.2629637,9.687015,0.8585051
1409523492848,2.110489,13.392566,3.027468,1.3714892,9.668264,0.9022743
1409523492863,0.11192893,11.92492,3.810372,1.3597795,9.658647,1.0158327
1409523492864,-1.2413936,9.904813,4.1162314,1.2060419,9.659165,1.1901215
1409523492880,-1.7046716,7.7865424,3.8804023,0.97051007,9.658117,1.3961697
1409523492883,-0.80684596,6.9360023,3.7247794,0.7517951,9.6448965,1.6065959
1409523492897,0.89902276,6.631939,2.8628666,0.6224682,9.62093,1.7946149
1409523492911,2.8921957,5.807735,3.603872,0.6725296,9.595415,1.9094732
1409523492915,4.24073,4.4179006,4.419098,0.9142861,9.538617,2.0854914
1409523492928,4.754286,3.2956185,4.179079,1.2724595,9.435438,2.3502607
1409523492944,3.29502,2.3175871,6.168062,1.6751434,9.303337,2.6100154
1409523492945,2.532467,1.9895816,2.9945478,1.9279934,9.10563,3.0888128
1409523492967,1.0139444,2.0763714,-0.019153614,2.1048503,8.989634,3.305527
1409523492968,-0.15382746,2.381632,1.1234791,2.1457002,9.000546,3.2490828
1409523492975,0.23044191,2.943671,1.0366893,2.0085254,9.000403,3.3360095
1409523493007,1.0283096,3.0256724,-0.2112883,1.9335546,9.008231,3.359099
1409523493008,1.8602947,2.9017725,-0.108936176,2.0130682,9.052557,3.188912
1409523493009,2.8820202,3.289633,0.7649474,2.2061715,9.063253,3.026657
1409523493019,3.3871968,3.9576154,1.5855601,2.5250058,9.003825,2.9539604
1409523493055,3.5595794,4.317344,1.9644425,2.877697,8.897573,2.9533722
1409523493056,3.5924997,4.4328647,2.2816741,3.1971948,8.776542,2.9867496
1409523493056,3.5673606,4.4795513,2.5929205,3.4792726,8.639069,3.071085
1409523493057,3.2112231,4.394557,2.4911668,3.7212384,8.491177,3.1972973
1409523493063,2.7012582,5.0787005,1.8273745,3.893641,8.367856,3.314954
1409523493085,-0.6434417,7.038953,-2.7551277,3.9512455,8.3405695,3.3155649
1409523493086,-5.106832,16.650476,-11.5951185,3.5128996,8.769965,2.63014
1409523493095,-11.564592,19.608511,-19.01415,2.1121027,9.564687,0.47559243
1409523493122,-17.617134,19.074604,-14.828488,2.1379957,9.550165,0.62745005
1409523493124,-15.048755,14.525023,-7.7799582,2.1316721,9.541034,0.77136636
1409523493125,-9.267356,11.725004,-2.9604304,2.069899,9.542946,0.9044991
1409523493151,-4.96318,11.16117,0.7942764,-3.2653966,8.734769,-3.0350237
1409523493152,-2.3259668,11.271901,1.4945804,-3.3928802,8.839148,-2.5550396
1409523493157,-1.1097125,11.206061,0.5542577,-3.2658937,8.999618,-2.1239696
1409523493163,-0.46267948,10.882245,-1.6651673,-3.0512025,9.1300745,-1.8714416
1409523493178,-0.62967503,9.166202,-3.1519666,-2.8014493,9.207201,-1.8840688
1409523493195,-0.40162733,7.5962033,-2.4756045,-2.6007304,9.230324,-2.0512695
1409523493197,1.4688427,10.005967,1.2533646,-2.4381876,9.247579,-2.1697752
1409523493221,2.7790697,14.709975,5.827487,-2.060757,9.397925,-1.8980713
1409523493222,2.9724014,16.66065,6.1106014,-1.539133,9.617573,-1.141836
1409523493224,2.907758,16.184803,-0.4782418,-1.0514357,9.739354,-0.45808572
1409523493252,3.1794999,15.524004,-4.4807487,-0.63428515,9.774805,-0.47039428
1409523493253,3.4757824,16.114174,-4.4915223,-0.25800037,9.770675,-0.79858315
1409523493258,2.2319946,13.752893,-1.4550761,0.07055618,9.750546,-1.045114
1409523493263,2.4690206,11.39221,-1.0097545,0.24025545,9.755418,-0.9718606
1409523493277,3.4201171,8.708909,0.6757634,0.37760466,9.7582445,-0.89694035
1409523493295,2.7299886,6.743269,1.91596,0.5917092,9.759203,-0.7604352
1409523493296,1.9339164,6.0184245,1.7926586,0.78317136,9.75965,-0.55343646
1409523493318,2.0213048,6.3488245,1.6998832,0.9196885,9.756255,-0.37423196
1409523493319,2.7114334,7.1472907,2.2816741,1.072788,9.745312,-0.22011457
1409523493324,3.5296519,7.832032,3.3141737,1.2964418,9.720573,-0.009960545
1409523493354,3.3608606,7.759608,4.045004,1.5644047,9.676413,0.3000687
1409523493355,2.2589293,7.1610575,3.6062663,1.805049,9.616263,0.6630533
1409523493356,1.5209166,6.977901,2.9340942,1.9062598,9.571438,0.96132374
1409523493364,1.4024036,7.373543,2.7736826,1.9150598,9.545629,1.1764023
1409523493385,1.785476,8.34499,2.9765913,1.9076302,9.522293,1.3628184
1409523493386,2.2224178,9.891046,3.5613751,1.9322563,9.489481,1.5448406
1409523493395,2.6617537,11.83813,4.369418,1.9693516,9.44824,1.7386221
1409523493420,2.6132712,12.861651,5.1265845,1.9958693,9.40122,1.9503839
1409523493421,2.123657,12.091916,4.9158945,1.9771386,9.35629,2.1728258
1409523493424,1.7489643,10.446501,3.4632127,1.9220123,9.325508,2.3475854
1409523493451,1.6950948,9.271546,2.03148,1.85511,9.3226,2.4120667
1409523493452,1.376666,8.751406,1.0600328,1.8142738,9.339792,2.3763564
1409523493456,0.6757634,8.397064,2.1068976,1.7625864,9.373041,2.2824953
1409523493464,-0.7553706,8.309675,3.4805708,1.6472999,9.386649,2.3124835
1409523493489,-1.9315223,8.868722,0.6877344,1.3985999,9.386895,2.4699183
1409523493490,-1.8411411,10.324995,-3.5248635,1.0820973,9.466949,2.318687
1409523493500,-4.5681367,8.614936,0.57400984,0.82379216,9.615247,1.7432079
1409523493516,-5.9519854,7.8787193,1.2378023,0.2839327,9.656504,1.6857266
1409523493518,-5.286996,7.6590514,0.090979666,-0.3935244,9.643109,1.7395308
1409523493524,-3.9163153,7.778163,-0.7386112,-0.92846334,9.624561,1.6359073
1409523493562,-2.6192567,8.600571,-1.1354501,-1.2475679,9.620634,1.4343542
1409523493563,-1.5771804,9.263765,-0.89423436,-1.3901801,9.631835,1.2105927
1409523493564,-0.83138657,9.779117,-0.4854244,-1.4037817,9.650242,1.0356758
1409523493567,-0.35254622,10.307038,-0.15023616,-1.3377461,9.672227,0.91043174
1409523493590,0.06584055,11.185112,-0.29628247,-1.2224063,9.693935,0.8389023
1409523493590,0.14604631,11.911752,-0.074818805,-1.0702722,9.718626,0.75709003
1409523493596,-0.22565351,12.12723,0.16639702,-0.9273706,9.73769,0.69838095
1409523493619,-0.96067345,11.948862,0.24839842,-0.84584326,9.747139,0.66949385
1409523493619,-1.5634137,11.667543,0.022744916,-0.8530621,9.74777,0.65087914
1409523493624,-1.9566613,11.016919,-3.0292637,-0.917546,9.744362,0.6131104
1409523493645,-1.0767922,10.199898,-10.666767,-1.0135458,9.749812,0.29031026
1409523493645,0.6003461,10.476428,-11.114483,-1.019399,9.727637,-0.7101524
1409523493661,0.7637503,11.043854,-6.491878,-0.84430903,9.634575,-1.6225067
1409523493666,-0.2172738,11.504139,-1.8483237,-0.66696084,9.586763,-1.9543484
1409523493684,-0.9008184,12.381614,8.958505,-0.6226383,9.622244,-1.7874862
1409523493685,-1.2042835,11.274895,9.944317,-0.64584804,9.76031,-0.6996999
1409523493696,-2.404377,11.215638,5.0158525,-0.64768445,9.783132,0.20309585
1409523493716,-4.320337,12.270284,0.40701428,-0.7521927,9.770461,0.37772325
1409523493722,-5.651513,13.30398,-2.7832594,-1.0452555,9.747784,0.24193065
1409523493724,-4.9901147,13.622409,-2.984971,-1.4262352,9.700924,-0.16826038
1409523493752,-4.3514614,13.157335,0.27712885,-1.6735319,9.6533165,-0.42796254
1409523493754,-4.368221,13.008296,1.7046716,-1.8132154,9.63239,-0.3157829
1409523493757,-4.095282,12.4073515,0.3405752,-1.944456,9.611656,-0.074523784
1409523493765,-3.1196449,12.777256,-3.8085763,-2.0659041,9.586554,0.020688193
1409523493785,-2.3983915,15.027805,-3.9671922,-2.098373,9.5763855,-0.24504305
1409523493786,-3.4715924,14.661492,-1.3204023,-2.0421169,9.578523,-0.50201815
1409523493798,-4.458602,12.792818,-0.065242,-2.0801787,9.566667,-0.5675767
1409523493819,-5.1571107,12.353482,0.93852705,-2.2568264,9.52378,-0.61215466
1409523493820,-4.6273932,12.923901,0.57041854,-2.4785564,9.4689665,-0.6048417
1409523493824,-3.2070332,12.017695,-0.24061728,-2.6047468,9.43739,-0.5668693
1409523493851,-1.3443443,11.2312,1.0773908,-2.6147802,9.43513,-0.5582564
1409523493852,-0.53809685,11.33894,4.7058034,-2.500861,9.470881,-0.46742135
1409523493858,-0.4369418,9.330803,7.602189,-2.353147,9.5197,-0.09161707
1409523493865,0.38845924,8.762778,7.876325,-2.240364,9.533962,0.5047264
1409523493881,1.5041572,10.603919,7.0467343,-2.0817318,9.518634,1.1101391
1409523493884,2.2720973,14.38616,6.6852098,-1.8118616,9.510778,1.5596962
1409523493895,2.4708161,19.251177,3.165733,-1.4696776,9.515488,1.8616941
1409523493918,1.7567455,19.608511,-3.0376434,-1.1319065,9.579291,1.768145
1409523493919,3.8971617,19.608511,-5.04997,-0.8851275,9.688365,1.2338965
1409523493924,7.241263,18.431164,-5.0427876,-0.4774299,9.770127,0.6979031
1409523493951,8.079832,14.325108,-0.9828198,0.17459962,9.799303,0.33698565
1409523493952,4.537012,11.801021,3.3213563,0.7597452,9.773496,0.26824674
1409523493956,1.8106151,10.850522,6.42903,1.040812,9.738985,0.48918724
1409523493964,1.733402,10.787674,6.717531,1.044232,9.71504,0.83544517
1409523493982,1.0199299,8.977059,5.993884,1.0546628,9.676329,1.1944699
1409523493984,1.192911,7.1167645,5.180454,1.0423236,9.625867,1.5577695
1409523493997,1.9710265,5.9890957,4.422689,1.0385218,9.568934,1.8781259
1409523494027,1.4502877,4.941034,3.620033,1.1231103,9.509302,2.1171167
1409523494028,0.79607207,4.248511,3.7942111,1.1901134,9.457361,2.304848
1409523494029,1.3970166,4.6441526,3.329736,1.2207153,9.398724,2.5187736
1409523494053,1.608305,4.931457,1.8950106,1.2957369,9.336873,2.7044888
1409523494055,0.59495914,4.3209357,1.7968484,1.3791475,9.305663,2.770012
1409523494058,0.46567222,3.6703112,1.5071499,1.346934,9.284627,2.855147
1409523494075,0.7769185,3.0843303,1.352724,1.3062825,9.26968,2.9218206
1409523494076,1.2425907,2.5049336,2.280477,1.3299501,9.250335,2.9720244
1409523494091,1.7776948,2.0428526,2.7269957,1.4289266,9.179967,3.139545
1409523494098,2.0027497,1.5927427,2.570774,1.6064065,9.066394,3.374958
1409523494110,2.3020248,1.1528081,1.6106992,1.838419,8.929149,3.6139925
1409523494124,3.0071173,0.9008184,0.4902128,2.137432,8.802964,3.7562735
1409523494124,3.9785647,0.9804256,-0.13706805,2.5756638,8.685255,3.7553532
1409523494140,4.233547,0.9696517,0.4141969,3.1947978,8.531898,3.6291022
1409523494144,3.7367504,0.7164649,1.7178397,3.8478737,8.288273,3.5593266
1409523494159,3.7660792,0.89423436,2.4522612,4.3874726,7.946988,3.7102334
1409523494176,4.076727,1.8285716,2.106299,4.8673944,7.5505295,3.9329836
1409523494177,4.209007,3.2225955,1.0755951,5.2896304,7.2110353,4.023825
1409523494201,4.406528,5.3354783,-1.460463,5.620445,7.066963,3.826098
1409523494202,-1.9327193,19.327192,-4.8297033,5.845924,7.238692,3.0978878
1409523494204,-15.598823,19.608511,-19.608511,4.1704607,8.72321,1.6380578
1409523494230,-19.48521,19.608511,-19.198505,4.3256726,8.611851,1.8152019
1409523494232,-14.316129,17.905037,-10.111911,4.462307,8.518239,1.922968
1409523494236,-8.942344,4.677073,-4.9542017,4.457489,8.476362,2.1100883
1409523494244,-3.1232362,6.3823433,3.9665937,-3.0916197,8.459665,-3.8789575
1409523494266,-1.377863,6.141726,2.7168205,-3.4385173,8.642734,-3.1064692
1409523494267,-0.3728969,7.6764092,-0.095768064,-3.499164,8.818511,-2.4819515
1409523494278,-0.3597288,8.397064,0.6147113,-3.2532487,8.969733,-2.2650878
1409523494303,-0.17717093,10.609306,2.4307132,-3.0011184,9.108511,-2.0490806
1409523494304,2.944868,17.09879,3.0430303,-2.6525095,9.296055,-1.6486185
1409523494305,3.7283707,19.441517,1.7058687,-1.8910692,9.558634,-1.1075836
1409523494337,3.2393548,16.720507,-3.1615434,-1.186151,9.705432,-0.7536866
1409523494338,3.068768,14.329297,-1.8626889,-0.7024217,9.733544,-0.9670178
1409523494339,3.913921,11.481394,4.344279,-0.3336185,9.743365,-1.061108
1409523494345,3.6152446,9.598953,6.25964,0.048989657,9.789652,-0.57506377
1409523494384,3.7696705,9.51336,3.9384618,0.36677405,9.799622,0.05750585
1409523494386,3.3482912,9.244013,3.0819361,0.6628069,9.776325,0.39311114
1409523494388,2.4157495,7.8266454,2.2631192,0.92229956,9.743821,0.6145967
1409523494389,1.9955671,7.133524,0.85532856,1.1008222,9.713095,0.7838178
1409523494428,1.9812019,7.4345946,0.51235914,1.2228323,9.695593,0.8188766
1409523494431,2.9759927,8.389881,1.8728642,1.3421774,9.679312,0.8245397
1409523494431,4.297592,8.599374,3.6493618,1.5455399,9.637181,0.9520675
1409523494432,4.43885,7.856573,3.6828809,1.8624905,9.548258,1.2378467
1409523494450,3.5631707,6.951565,2.7281928,2.1717637,9.444699,1.5004928
1409523494450,2.360683,6.5666966,1.7848774,2.371145,9.37088,1.6536899
1409523494458,1.5688007,6.8043213,1.4748282,2.429844,9.344836,1.7147326
1409523494485,1.2210429,7.9289975,1.9554642,2.4006186,9.346941,1.7441727
1409523494486,1.8297687,10.396222,2.9771898,2.3189874,9.356225,1.8038176
1409523494486,3.1717186,13.739126,3.9731777,2.2611206,9.349788,1.9076729
1409523494513,3.6511576,15.9579525,4.3179426,2.2737787,9.323112,2.019885
1409523494514,2.7048495,15.38933,4.061165,2.2719479,9.307991,2.0904472
1409523494518,1.0384849,12.764687,2.907758,2.1682413,9.322306,2.1362884
1409523494525,-0.3705027,10.890026,1.5400703,1.9601395,9.368911,2.1334813
1409523494542,-1.371279,10.137649,0.81522566,1.6853362,9.439422,2.0560462
1409523494545,-2.5318682,9.336788,-0.08738836,1.3891906,9.511593,1.9416859
1409523494558,-3.8612487,8.340201,-1.7196354,1.0310814,9.591211,1.7651992
1409523494575,-3.5021186,8.207323,-2.906561,0.601922,9.676833,1.4720725
1409523494580,-2.9658175,8.968679,0.60333884,0.24887832,9.742278,1.0938214
1409523494592,-3.6774938,7.802105,4.733337,-0.025656128,9.743853,1.1077435
1409523494608,-3.913921,6.4218473,6.68102,-0.3605518,9.672524,1.5756431
1409523494608,-2.6090813,6.6846113,4.8267107,-0.7088538,9.530576,2.1991012
1409523494624,-1.8698715,7.135918,1.5352819,-0.90660137,9.429252,2.5372617
1409523494625,-1.5933412,7.5148005,-0.6536171,-1.0391914,9.426697,2.4955719
1409523494641,-1.447295,7.701548,-1.2042835,-1.1418151,9.485717,2.210842
1409523494646,-1.5161282,7.839813,-1.2695254,-1.2297437,9.5429945,1.8945658
1409523494657,-1.3557167,8.374319,-1.2204443,-1.3037313,9.585415,1.6095009
1409523494673,-0.842759,9.116522,-0.93613285,-1.3339193,9.620588,1.3547465
1409523494676,-0.3878607,9.745598,-0.6937199,-1.2843693,9.654179,1.1478713
1409523494690,-0.17417817,10.261548,-0.55365914,-1.1812199,9.685388,0.98406076
1409523494711,-0.29209262,10.694899,-0.39983168,-1.0665867,9.712069,0.8417355
1409523494711,-0.75477207,11.106103,-0.33758244,-0.98253924,9.729588,0.7349412
1409523494729,-1.1965023,11.554418,-0.84455466,-0.9622227,9.738155,0.64254826
1409523494730,-1.5328877,11.912351,-2.3068132,-0.9893422,9.743525,0.5052996
1409523494744,-0.599149,12.35887,-9.668385,-1.0403578,9.748372,0.2393474
1409523494746,-0.3752911,11.324574,-5.625177,-0.9853347,9.732346,-0.6935002
1409523494760,-1.7274165,11.441292,0.8367735,-0.924397,9.70335,-1.0774368
1409523494774,-1.9812019,11.434109,2.2002714,-1.0116302,9.725743,-0.7462488
1409523494776,-2.0147207,11.2312,2.4504654,-1.1030447,9.737816,-0.35861915
1409523494792,-2.5007436,11.21085,7.2885485,-1.1535673,9.738546,-0.020319369
1409523494807,-3.3566709,11.263522,7.539341,-1.1948493,9.712215,0.6446751
1409523494808,-5.0463786,12.99034,2.3900118,-1.2974588,9.65235,1.148523
1409523494827,-6.8186865,15.060726,-3.5416229,-1.5610635,9.627567,1.0214703
1409523494829,-8.367735,14.656704,-3.8468835,-1.9608808,9.599261,0.4237067
1409523494842,-7.393295,13.842077,-2.0566192,-2.4187505,9.503681,0.008543061
1409523494861,-5.5707088,14.313136,-3.7852328,-2.712926,9.422021,-0.18953583
1409523494862,-4.3239284,14.648325,-3.8391025,-2.8030832,9.39043,-0.36459437
1409523494865,-3.2028434,14.585477,-2.337938,-2.763914,9.392824,-0.5531993
1409523494878,-2.4774003,13.800179,-3.151368,-2.6884263,9.409084,-0.6417792
1409523494892,-2.746748,13.292608,-1.2731167,-2.6244144,9.408645,-0.87192625
1409523494910,-3.8977604,12.874221,2.131438,-2.6129909,9.39801,-1.009979
1409523494910,-3.4033577,12.811972,3.1681273,-2.6778977,9.395084,-0.8553402
1409523494937,-2.7012582,12.995129,3.2920272,-2.6811526,9.415052,-0.58188254
1409523494940,-3.2028434,12.791621,5.6509147,-2.6187143,9.444885,-0.3269099
1409523494941,-3.0412347,11.058219,9.001001,-2.6009524,9.454815,0.10915141
1409523494965,-2.5761611,8.72507,9.898827,-2.6257398,9.419796,0.7371099
1409523494966,-1.2593501,7.9050555,8.503007,-2.6757312,9.328075,1.4134609
1409523494966,-0.10115502,8.190564,6.8563952,-2.643539,9.239511,1.9528238
1409523494976,0.48003745,9.69532,6.2464724,-2.521246,9.189768,2.315573
1409523494996,1.4664485,13.836092,7.928399,-2.327779,9.171453,2.5760999
1409523494999,1.3808558,19.350536,4.68246,-1.9976568,9.166241,2.8565304
1409523495007,0.6302736,19.608511,-7.037756,-1.6486349,9.268842,2.7460766
1409523495053,3.3488896,19.608511,-4.4753613,-1.4009289,9.534734,1.8156685
1409523495055,6.260239,17.967287,-2.4349031,-0.97409785,9.683005,1.2086954
1409523495059,8.950723,13.18846,1.1330559,-0.3494231,9.753786,0.95494395
1409523495060,9.811439,11.3562975,3.5541923,0.4125313,9.743445,1.0322137
1409523495061,7.709928,10.499173,4.4597993,1.1245395,9.669111,1.1891625
1409523495078,4.759074,9.509769,3.942053,1.5722917,9.587399,1.3342011
1409523495079,2.879626,8.20433,2.2972364,1.7827857,9.531085,1.4664546
1409523495085,2.9334955,6.9587474,1.6166847,1.8214179,9.515311,1.5204192
1409523495115,2.5001452,6.081871,3.0095115,1.9060932,9.491073,1.5674001
1409523495116,1.8890251,5.1182046,5.04159,2.002522,9.442302,1.7329838
1409523495120,1.22224,3.954024,6.0746884,2.070363,9.359039,2.0717995
1409523495126,0.6266823,3.6727054,3.2986114,2.0904522,9.240539,2.532365
1409523495149,-0.39863458,4.1683054,1.4862007,2.0560312,9.180795,2.7669773
1409523495150,-1.3497312,4.634576,1.2120646,1.8949109,9.194653,2.835148
1409523495157,-1.22224,4.148553,0.32202014,1.618557,9.240509,2.8572109
1409523495184,-0.33638534,3.4314895,1.204882,1.3833666,9.296534,2.7984192
1409523495197,0.99299514,2.710835,1.5005659,1.2604326,9.303668,2.8325698
1409523495198,2.0087352,2.0691888,1.5831659,1.3365619,9.271418,2.902553
1409523495224,2.5049336,1.6585833,2.557606,1.5845796,9.199924,3.0034795
1409523495224,2.9257145,1.2066777,2.7964275,1.9064535,9.051265,3.2573657
1409523495225,3.3985693,0.66139823,1.9231426,2.2965078,8.841296,3.567621
1409523495226,3.9989154,0.21667525,0.52612585,2.7846787,8.615661,3.766477
1409523495243,3.751714,-0.1376666,0.6362591,3.4328234,8.378642,3.7662263
1409523495258,3.4991257,0.1412579,1.5334862,4.0645833,8.076244,3.79787
1409523495259,3.283049,0.89543146,2.5306711,4.6103764,7.701088,3.9507062
1409523495271,2.8078,1.8788497,2.621651,5.0077896,7.3043447,4.2117677
1409523495278,2.3139958,3.630807,1.4640543,5.2095413,7.032647,4.4241333
1409523495295,1.9434932,7.591415,-1.0408791,5.220233,7.080487,4.3343134
1409523495299,0.34356794,16.507421,-2.879626,4.948726,7.666762,3.5918345
1409523495307,-19.042284,19.608511,-19.608511,3.8634322,8.711927,2.3122756
1409523495332,-14.754268,19.608511,-18.265366,3.9934695,8.602307,2.494578
1409523495333,-7.8930845,12.1811,-11.901577,4.0640497,8.537999,2.599322
1409523495338,-4.176685,5.145139,-3.6326025,-2.0584495,8.778105,-3.8572083
1409523495369,-1.2144588,6.694188,3.241749,-2.4413645,8.654298,-3.9132156
1409523495370,-0.3854665,5.41329,0.4782418,-2.5903277,8.9012785,-3.1980999
1409523495371,1.9788077,8.12592,-0.5410896,-2.5235815,9.030339,-2.8731368
1409523495394,3.3512838,12.069171,0.035314474,-2.0857084,9.202381,-2.6714
1409523495395,5.2008047,18.18037,-0.22625206,-1.4105642,9.406335,-2.387791
1409523495397,5.3821654,19.608511,0.12988544,-0.5796315,9.582707,-2.001537
1409523495406,1.5795746,17.801489,-4.657321,0.075496264,9.672829,-1.6127894
1409523495436,-2.995745,15.515025,-6.469133,0.23573126,9.645537,-1.7545506
1409523495437,-1.5221137,11.020511,6.7690067,-0.026406946,9.5857525,-2.0695565
1409523495438,0.91099375,8.301296,10.757747,-0.14987229,9.715009,-1.3291224
1409523495466,1.0097545,5.9687448,8.025364,-0.059816755,9.801165,-0.32243252
1409523495466,2.4289176,4.969166,2.9670146,0.03821721,9.797914,0.41208267
1409523495467,3.3680432,5.137358,-0.29388827,0.27515754,9.782131,0.6360671
1409523495497,2.754529,5.163096,-0.13826515,0.6254618,9.771088,0.5522899
1409523495498,2.2529438,5.7263317,0.077213004,0.9105741,9.750466,0.5193027
1409523495498,2.8700492,7.2107368,0.95588505,1.1116213,9.728869,0.5327359
1409523495507,3.728969,8.659827,2.0739772,1.3588552,9.692314,0.61884505
1409523495538,4.5238442,9.78989,3.2968156,1.6766318,9.630081,0.7879364
1409523495540,4.1521444,9.654618,3.3435028,2.0205035,9.538631,1.0499854
1409523495541,2.8209682,8.575432,2.7383683,2.2613914,9.45585,1.2819524
1409523495565,1.7866731,7.7679873,2.533664,2.3514624,9.409162,1.4521333
1409523495565,1.3096284,7.5944076,2.6737247,2.3298476,9.388052,1.6145167
1409523495566,1.2485762,8.016984,2.754529,2.2667046,9.371774,1.7894951
1409523495589,1.5616181,8.717288,2.4720132,2.2024539,9.356444,1.9433296
1409523495590,2.236783,10.140641,2.4774003,2.1705728,9.346553,2.0250883
1409523495606,3.3518825,12.652159,2.7629087,2.182971,9.336037,2.0599642
1409523495607,4.3197384,15.012243,3.0561984,2.2432632,9.320054,2.0675468
1409523495624,3.6230257,14.742895,3.6122518,2.3351746,9.301278,2.050263
1409523495626,1.6932992,12.280459,3.5368345,2.3259442,9.292137,2.101562
1409523495639,0.17357962,10.037092,2.7934349,2.168954,9.310592,2.186077
1409523495652,-0.55605334,9.224859,1.8339585,1.9309938,9.352499,2.2298915
1409523495659,-0.8858546,9.575011,1.7992426,1.6815076,9.410008,2.1896694
1409523495673,-1.4993688,9.76954,1.714847,1.4355404,9.462905,2.1361327
1409523495688,-2.4372973,9.187749,0.12509704,1.1591119,9.513537,2.07833
1409523495689,-3.3854012,8.10557,-4.896741,0.83072865,9.584789,1.9005578
1409523495706,-3.5500026,7.5800424,-3.0472202,0.44499388,9.712097,1.2835634
1409523495707,-3.6044707,7.9828672,1.1264719,0.058492523,9.764605,0.90523034
1409523495722,-3.2680852,9.062652,1.5209166,-0.30646628,9.748282,1.0234642
1409523495726,-2.52289,9.146449,0.87687635,-0.586144,9.718973,1.1697835
1409523495738,-2.2667105,8.754398,0.6985083,-0.76968324,9.703334,1.1930139
1409523495755,-2.5671828,9.008782,0.43873745,-0.9430112,9.688937,1.1855968
1409523495757,-2.9700072,9.564836,0.3890578,-1.1286134,9.674016,1.1445626
1409523495770,-3.241749,10.061034,0.6913257,-1.3486156,9.652043,1.090733
1409523495788,-3.0783448,10.592546,1.1875241,-1.5493364,9.625009,1.062612
1409523495789,-2.7688942,11.191097,1.3736732,-1.6827971,9.600189,1.0839436
1409523495805,-2.4875755,11.678916,0.9175778,-1.7469192,9.585521,1.1119679
1409523495806,-2.3139958,11.938088,-0.059855044,-1.7690921,9.585054,1.0804852
1409523495821,-2.5103204,11.637017,-1.9985598,-1.7800761,9.596926,0.94906586
1409523495835,-1.3694834,11.502942,-12.426505,-1.8258327,9.613041,0.65282536
1409523495839,1.2378023,10.177153,-18.772337,-1.763163,9.630265,-0.5653541
1409523495853,0.44951138,9.182362,-7.9224133,-1.4619286,9.450728,-2.1718438
1409523495857,-1.7363948,9.48463,1.5095441,-1.3149483,9.379063,-2.5445058
1409523495871,-2.8395233,10.2406,5.1942205,-1.4380792,9.492252,-1.9998624
1409523495892,-2.3397336,10.651205,1.0845734,-1.5966204,9.599111,-1.2158442
1409523495892,-2.0111294,11.812991,3.9827545,-1.6367583,9.619915,-0.97398037
1409523495907,-2.1625626,13.254301,2.6982653,-1.5987273,9.65987,-0.54899395
1409523495908,-3.4093432,15.055339,-1.091756,-1.5588802,9.67795,-0.27852324
1409523495926,-5.9501896,14.307151,-2.823961,-1.6286635,9.656915,-0.5116921
1409523495927,-6.2219315,12.857462,0.62129533,-1.9068098,9.582265,-0.84538436
1409523495937,-3.6601357,13.091495,2.3594859,-2.1988678,9.527134,-0.7544139
1409523495956,-3.074155,13.497313,0.88286185,-2.255945,9.532741,-0.4560348
1409523495982,-2.9059622,15.26543,-3.6583402,-2.2339926,9.544345,-0.29181188
1409523495983,-2.657564,16.303915,-3.2549171,-2.1771011,9.548206,-0.5122271
1409523495984,-3.0466216,15.544354,-0.30346507,-2.1191657,9.550165,-0.6884043
1409523495987,-2.5552118,14.715363,-0.6607997,-2.1088073,9.556147,-0.6351154
1409523496011,-1.9207484,13.653534,-1.91596,-2.0906389,9.555122,-0.70656955
1409523496011,-1.8764555,12.03625,-1.8842367,-2.0580485,9.546945,-0.8892113
1409523496020,-1.9722236,10.095152,0.11133038,-2.0467584,9.5348215,-1.0335884
1409523496040,-1.3269863,9.743802,4.608838,-2.069872,9.536003,-0.97502184
1409523496040,-0.7146692,9.284714,7.9427643,-2.055024,9.573646,-0.54088473
1409523496058,-0.37708676,8.872313,8.494628,-2.0008867,9.599358,0.13855107
1409523496058,0.46387658,9.556456,7.3549876,-1.9170299,9.582988,0.81346804
1409523496072,1.0001777,9.939528,6.399701,-1.7572947,9.557138,1.3203863
1409523496092,1.1031284,14.060548,6.918046,-1.5644186,9.52899,1.7091949
1409523496092,0.06584055,19.50257,-0.41120413,-1.3631725,9.502017,2.0059524
1409523496098,-1.4598645,19.608511,-8.500613,-1.2186474,9.597111,1.6064692
1409523496106,1.8854338,19.608511,-5.727529,-1.1692855,9.712986,0.67900884
1409523496122,5.6910176,16.984467,-1.5867572,-0.8399533,9.76889,0.18340376
1409523496138,7.6027875,12.433688,2.7395654,-0.24016076,9.80246,0.15648134
1409523496139,5.943007,9.803059,6.417059,0.3695093,9.792534,0.3743369
1409523496156,3.9414546,9.657611,7.6069775,0.8120608,9.740536,0.79557127
1409523496159,2.7730842,8.776545,6.439804,1.010831,9.679801,1.2041903
1409523496171,2.0278888,7.1251445,4.7644615,1.0985057,9.62048,1.5524321
1409523496188,2.3451207,6.003461,3.0723593,1.1412272,9.563104,1.8479853
1409523496188,1.9877859,4.24073,4.3526587,1.2282135,9.519289,2.0112224
1409523496202,1.7890673,3.5661635,5.3223104,1.3417153,9.441796,2.2853143
1409523496206,1.6358383,3.7606924,4.1317935,1.4617548,9.325736,2.6578722
1409523496222,1.2695254,3.9534256,1.4059949,1.5676699,9.230672,2.9167612
1409523496239,0.57041854,3.7493198,0.5069722,1.6234815,9.211749,2.9459069
1409523496240,0.52492875,3.0657754,0.66020113,1.5883801,9.225692,2.921308
1409523496255,0.83018947,2.4971523,0.7565677,1.5551848,9.229648,2.926668
1409523496291,1.0103531,2.2816741,1.6196774,1.5996017,9.220507,2.9315407
1409523496292,1.2150574,2.147599,2.3523033,1.6853672,9.170581,3.0381563
1409523496295,1.5574282,1.9111716,2.3331497,1.798011,9.075522,3.2515302
1409523496296,1.9871874,1.939902,1.7860745,1.9524729,8.961124,3.4722474
1409523496299,3.5098996,2.3942018,0.18674773,2.1872096,8.848399,3.618334
1409523496308,4.953005,2.633622,-0.40342298,2.6669066,8.772217,3.4793987
1409523496339,4.8380833,2.2870612,0.3405752,3.3707628,8.636616,3.196435
1409523496343,4.324527,1.8076223,1.2551602,4.017605,8.4126005,3.0425997
1409523496345,4.2658687,1.6627731,2.4037786,4.553255,8.129497,3.0577013
1409523496370,4.1653123,2.0374656,2.8634653,5.0275025,7.763648,3.258893
1409523496371,3.6116533,2.80361,2.1829133,5.396851,7.399058,3.5068977
1409523496372,2.8909986,4.778228,0.23163901,5.594471,7.2053566,3.5993228
1409523496391,0.59376204,14.800955,4.383185,5.5975924,7.34105,3.3085272
1409523496392,-6.959346,19.608511,-13.297397,4.4703403,8.052529,3.3679695
1409523496398,-18.940529,19.608511,-19.608511,4.598525,7.922656,3.5007842
1409523496408,-19.594147,19.608511,-16.746841,4.6249423,7.8828526,3.5554092
1409523496428,-12.363059,13.378799,-9.243414,4.4221153,7.895843,3.7776914
1409523496429,-2.873042,4.1078515,2.3894134,-2.9973733,8.657118,-3.4986389
1409523496442,-2.0859482,3.4805708,0.0712275,-3.3528485,8.734534,-2.9388294
1409523496462,0.21787235,5.4767365,0.22625206,-3.4719374,8.754545,-2.7338595
1409523496463,2.0213048,9.14585,1.7998412,-3.2368546,8.891768,-2.574808
1409523496467,4.782418,16.3105,3.8594532,-2.7100604,9.153416,-2.245215
1409523496498,7.353192,19.608511,5.3504424,-1.7517344,9.5197525,-1.5735782
1409523496499,5.8238955,17.580025,1.0313023,-0.69898474,9.7502365,-0.7840397
1409523496501,1.18094,13.451223,-3.9498343,-0.01834785,9.790303,-0.5656854
1409523496509,-0.7823054,12.052411,-4.0438066,0.12059388,9.76823,-0.8588073
1409523496526,2.5049336,10.932524,3.0615854,0.04546499,9.742064,-1.1227114
1409523496527,3.2866404,8.397064,4.3861775,0.2586784,9.774687,-0.7476684
1409523496539,2.396596,6.8360443,1.934515,0.52453214,9.788065,-0.29841334
1409523496563,2.119467,6.145916,2.2056582,0.7062214,9.780735,-0.09426848
1409523496563,1.9297266,6.153697,1.5466543,0.86364454,9.767721,0.12702274
1409523496567,1.9249382,6.771401,1.1318588,1.0098455,9.750581,0.27707887
1409523496587,2.581548,8.070255,1.6178818,1.1563003,9.731135,0.37200463
1409523496587,3.6733038,9.597756,2.7682958,1.3581246,9.699504,0.49547964
1409523496618,4.5663414,10.162787,3.4644098,1.6254038,9.644639,0.71370214
1409523496619,4.3520603,9.398438,2.9640217,1.9553072,9.56077,0.96894354
1409523496621,2.6264393,8.025963,2.1589713,2.2273073,9.481255,1.1468594
1409523496643,1.3742718,7.430405,1.678934,2.3098855,9.447673,1.2555141
1409523496644,0.81522566,7.417237,1.6250644,2.2570333,9.449861,1.3327892
1409523496647,0.5943606,7.635708,1.5939398,2.1586711,9.461872,1.408374
1409523496678,0.789488,8.877101,1.9231426,2.058973,9.474646,1.4704111
1409523496681,1.5269021,11.790845,2.8449101,1.9599408,9.485066,1.5370615
1409523496682,2.6420016,15.732898,4.2658687,1.9087907,9.478835,1.6366365
1409523496687,2.6701334,16.915035,5.1864395,1.9001817,9.453029,1.7888404
1409523496714,1.4383167,14.065935,4.7746367,1.8574574,9.425719,1.96877
1409523496715,-0.040102877,10.644621,3.1812954,1.7223519,9.4170685,2.1266646
1409523496719,-0.9552865,8.994417,1.6328455,1.4954695,9.441869,2.187485
1409523496741,-1.4730326,8.816648,1.1563994,1.2346891,9.491178,2.1362278
1409523496757,-1.827973,8.883685,0.878672,0.9728221,9.540381,2.050644
1409523496759,-2.2810757,8.581417,-3.016694,0.7161025,9.584106,1.9499917
1409523496760,-2.3415294,8.473679,-4.823119,0.4594275,9.679547,1.5052284
1409523496767,-2.2505496,8.54311,-1.3994108,0.21772885,9.760627,0.92364395
1409523496789,-3.426701,8.665215,1.4544775,-0.014434768,9.776552,0.7676035
1409523496790,-4.5962687,7.8727336,2.8999767,-0.36297494,9.752646,0.96151894
1409523496810,-4.0743327,7.2753806,3.582923,-0.81881815,9.688647,1.2767245
1409523496811,-3.0520086,8.08881,2.0428526,-1.187086,9.604457,1.586068
1409523496818,-1.6154876,9.102755,0.96905315,-1.3883003,9.563925,1.6656407
1409523496836,-0.9403227,9.500193,0.374094,-1.4069957,9.576008,1.5782402
1409523496838,-1.1522095,9.926959,-0.47105917,-1.3441718,9.605083,1.4511939
1409523496858,-1.3186066,10.0748005,-0.83976626,-1.330065,9.633506,1.2636878
1409523496861,-0.8295909,10.06283,-0.760159,-1.3426144,9.656032,1.0624635
1409523496867,-0.16340427,10.049063,-0.63087213,-1.2882413,9.679894,0.9002662
1409523496892,0.15143326,10.183139,-0.42437226,-1.1570494,9.707336,0.7741132
1409523496894,-0.05207389,10.494385,-0.7015011,-1.0119685,9.730512,0.68079543
1409523496899,-0.5267244,10.781689,-1.2186487,-0.91108525,9.748104,0.5610671
1409523496924,-1.055843,10.720636,-1.6879122,-0.8796704,9.758574,0.40840873
1409523496925,-1.1019313,10.784681,-2.5629928,-0.9062971,9.761922,0.2321485
1409523496927,-0.08619126,11.413159,-7.557896,-0.92498046,9.76293,6.6598965E-5
1409523496939,1.2641385,11.213842,-12.722189,-0.831792,9.747885,-0.6761882
1409523496959,0.41718966,10.565612,-8.149862,-0.6278228,9.635891,-1.7104974
1409523496960,-1.4000094,10.4728365,-5.1636944,-0.5508566,9.553911,-2.1423578
1409523496967,-2.7287915,12.109872,3.5350387,-0.6686388,9.513664,-2.2833123
1409523496995,-3.3794158,11.271901,14.507666,-0.85725796,9.6338,-1.6203028
1409523496996,-5.556942,14.019248,3.2836475,-0.99683475,9.752987,-0.23652528
1409523496999,-7.917625,16.193184,-6.699575,-1.3426791,9.712386,-0.19274081
1409523497024,-8.04751,16.060904,-3.6475663,-1.8542933,9.584,-0.9375115
1409523497026,-6.6774287,15.533581,0.8535329,-2.2089891,9.483179,-1.166219
1409523497028,-6.2009826,13.939641,0.4345476,-2.3781543,9.470683,-0.90606594
1409523497061,-5.3983264,14.080898,-1.8686744,-2.5386775,9.4485855,-0.6706181
1409523497061,-3.9624038,14.768633,-1.0893618,-2.6464193,9.418876,-0.6720391
1409523497062,-3.3435028,14.079103,-2.1631613,-2.6534176,9.419278,-0.63793695
1409523497067,-2.930503,13.207614,-1.9961656,-2.6495326,9.411037,-0.7633758
1409523497088,-2.1547816,12.928091,-0.61770403,-2.6611745,9.390254,-0.95480454
1409523497088,-1.1306617,13.567941,-1.8237832,-2.632162,9.390358,-1.0311797
1409523497102,0.28191724,14.523826,-2.2266076,-2.4982703,9.415984,-1.126166
1409523497117,0.09876082,13.012486,3.288436,-2.237783,9.472663,-1.1963995
1409523497119,-0.39025488,9.659407,9.344569,-2.0314324,9.554511,-0.8689149
1409523497134,0.45549688,8.406641,9.952098,-1.9394438,9.612052,-0.13182132
1409523497151,1.1480197,9.132683,8.565256,-1.8125484,9.615641,0.65153813
1409523497151,1.8022354,12.257115,7.9445596,-1.613085,9.589593,1.2680967
1409523497169,1.0319009,18.10615,6.3907228,-1.357871,9.557395,1.7270699
1409523497169,-1.3862427,19.608511,1.5310919,-1.1695918,9.548792,1.9034209
1409523497183,2.2385786,19.608511,-8.261193,-1.1648866,9.592308,1.6736318
1409523497187,7.191583,18.825607,-8.821436,-0.8332355,9.734597,0.8448178
1409523497203,9.642648,14.727333,-0.50397944,-0.1805046,9.803864,0.14857611
1409523497218,8.618527,12.52766,5.0601454,0.6339178,9.784529,0.17757747
1409523497221,4.1934443,9.53012,7.282563,1.2234026,9.713835,0.56134266
1409523497233,1.8483237,7.8009076,7.8170686,1.3731763,9.66028,0.98172003
1409523497252,2.0590134,7.541735,6.8958993,1.3367633,9.611598,1.4144522
1409523497252,2.1894975,6.413468,5.864597,1.3606241,9.538503,1.8264848
1409523497268,1.5957354,5.1547165,6.2859764,1.430698,9.449316,2.198617
1409523497269,0.6302736,3.8133647,6.96174,1.4558997,9.344553,2.5942373
1409523497283,-0.10175357,2.7461493,4.6040497,1.4183234,9.209313,3.0573354
1409523497287,0.6715736,2.8520927,2.5438392,1.3775752,9.119795,3.331967
1409523497301,1.4790181,3.693056,0.5398925,1.4214047,9.072146,3.4418278
1409523497315,1.073201,3.803788,0.39384618,1.5204054,9.083058,3.3699837
1409523497319,0.55006784,3.459023,1.8154035,1.5505223,9.102824,3.302256
1409523497333,0.82001406,3.6104562,2.9682117,1.512859,9.074859,3.395377
1409523497351,0.60573304,3.3650506,3.2980127,1.5162787,8.998875,3.5904799
1409523497352,0.7236475,2.4079683,2.6324248,1.5035657,8.909257,3.8124573
1409523497378,1.6053122,1.4377182,1.7202339,1.5300276,8.819068,4.0066776
1409523497379,3.3159695,1.1797429,0.6985083,1.7013608,8.723984,4.143413
1409523497380,4.1760864,0.9044097,0.40701428,2.1629002,8.619955,4.145918
1409523497388,4.5962687,0.78170687,0.61052144,2.8025327,8.46143,4.0890617
1409523497416,4.836886,0.688333,1.6130934,3.5244482,8.217804,4.0269547
1409523497417,4.8159366,0.6488287,2.9538465,4.2466693,7.83721,4.088317
1409523497419,4.920683,1.0726024,2.734777,4.8746367,7.3230615,4.333713
1409523497434,5.0559554,2.6036944,1.3784616,5.4150524,6.850652,4.4627533
1409523497452,4.583101,5.5042696,0.1448492,5.8522177,6.6021595,4.281757
1409523497453,3.0113072,11.190498,-1.1378443,5.9998765,6.759469,3.8054497
1409523497470,-1.9782091,19.243397,-6.4026937,5.535579,7.5063396,3.030282
1409523497471,-14.1186075,19.608511,-19.608511,4.089885,8.78757,1.4905832
1409523497486,-19.265543,19.608511,-19.369091,4.184918,8.721967,1.6075342
1409523497488,-13.365631,19.42356,-10.126276,4.2010593,8.693497,1.7159815
1409523497501,-8.452729,8.998009,-3.0789435,4.1366,8.697196,1.8487062
1409523497516,-4.903325,2.7682958,-4.0001125,-2.7398694,8.826059,-3.2808824
1409523497521,-1.7040731,7.7691846,2.0901382,-3.159366,8.625313,-3.4340608
1409523497536,-1.5682021,6.5020533,0.6063316,-3.0841916,8.824429,-2.9643965
1409523497551,-0.42317516,9.009979,-1.0253168,-3.0074146,8.934906,-2.7006164
1409523497552,1.5634137,15.786169,-0.64583594,-2.7811623,9.039259,-2.5937054
1409523497566,2.280477,19.608511,3.8313212,-2.1754649,9.274868,-2.3269253
1409523497567,0.014963761,18.59397,1.5382746,-1.5724247,9.545979,-1.6037987
1409523497585,-2.9029696,15.18283,-3.264494,-1.3149338,9.641328,-1.219068
1409523497588,-1.8004397,11.407773,5.741296,-1.3589512,9.616912,-1.3559669
1409523497600,1.8764555,9.8994255,8.473679,-1.3779838,9.677847,-0.78156745
1409523497618,3.4793737,8.447941,4.68246,-1.1011586,9.744631,-0.0021948798
1409523497619,4.7363296,8.69155,-1.5101427,-0.7128426,9.773638,0.37180007
1409523497631,5.41329,8.731653,-2.7006595,-0.22244303,9.803135,0.13942601
1409523497650,3.9881415,6.8043213,0.64463884,0.30400342,9.800894,-0.14304829
1409523497650,3.5051112,5.878962,0.6997054,0.6645114,9.784097,-0.016497254
1409523497665,3.828927,6.2524576,0.22744916,0.9654832,9.758543,0.0952154
1409523497668,3.9199066,6.7480574,0.7266402,1.2751781,9.721801,0.17570378
1409523497680,2.949058,6.314707,2.4396915,1.5939176,9.673033,0.24951866
1409523497698,2.0141222,5.659294,3.5500026,1.8154119,9.624681,0.49009734
1409523497701,1.9093759,5.477335,3.1262288,1.9425267,9.574627,0.85059804
1409523497738,1.7202339,5.720945,2.743755,2.0623221,9.518358,1.1480843
1409523497740,1.5292963,6.381146,2.6839,2.1454897,9.467878,1.3879951
1409523497741,1.4520833,7.453748,2.4959552,2.161859,9.429339,1.6075802
1409523497742,1.2791022,8.719683,2.461838,2.1468866,9.405232,1.7615002
1409523497748,2.0231004,11.739369,3.7576995,2.0796466,9.398488,1.8745334
1409523497772,3.716998,16.840216,5.9717374,2.0395982,9.372067,2.0432308
1409523497772,3.863643,18.953697,6.947375,2.0747976,9.3100395,2.2778912
1409523497780,2.0428526,15.972318,5.768829,2.060343,9.261862,2.4785697
1409523497808,0.43873745,12.263102,3.603872,1.9039948,9.2663355,2.58461
1409523497809,-0.39923313,10.266935,1.4945804,1.6598195,9.315859,2.574916
1409523497809,-1.0672154,9.706094,0.110133275,1.429965,9.384359,2.4615815
1409523497830,-1.8273745,9.3182335,-0.4165911,1.1778253,9.476187,2.2327068
1409523497831,-2.3666685,8.983045,-0.9451111,0.8937653,9.559636,1.9962282
1409523497848,-2.947861,9.282919,-1.8411411,0.5949106,9.632323,1.742072
1409523497849,-3.7642837,9.6767645,-8.204929,0.26886165,9.699816,1.4183275
1409523497865,-3.4847605,10.125677,-8.92738,-0.07930092,9.793086,0.5094874
1409523497868,-3.719991,8.735245,-3.4446578,-0.3610168,9.792944,-0.37185442
1409523497883,-4.161721,7.418434,-0.86011696,-0.6773653,9.762603,-0.6349334
1409523497899,-4.976947,6.1884127,0.664391,-1.0594196,9.734361,-0.5387682
1409523497900,-5.592855,5.7065797,1.5837644,-1.5445886,9.678999,-0.31883886
1409523497915,-4.689044,6.517017,1.4664485,-2.051926,9.589327,-0.06914207
1409523497920,-3.0484173,7.753622,1.1492168,-2.3818707,9.512254,0.118696816
1409523497932,-2.2176294,8.848969,0.7332243,-2.45606,9.491075,0.24010786
1409523497950,-1.9967642,9.694721,0.5069722,-2.4069254,9.501914,0.30122343
1409523497950,-1.5316905,10.336368,0.56084174,-2.3331945,9.519168,0.33470827
1409523497964,-0.7068881,10.779893,0.38187516,-2.217952,9.545262,0.37287864
1409523497968,-0.04309563,11.122264,-0.013766659,-2.0189567,9.5889845,0.38158423
1409523497980,0.15682021,11.40897,-0.95588505,-1.7798765,9.6375475,0.3465721
1409523497997,0.30286652,11.51192,-4.0737343,-1.5649779,9.678415,0.22246107
1409523498001,1.3670892,11.23539,-11.558009,-1.3831115,9.70675,-0.19079927
1409523498027,0.91817635,10.315418,-10.825981,-1.1299677,9.659572,-1.2594643
1409523498029,-0.50397944,9.826403,-3.4476504,-0.95542485,9.540588,-2.0578444
1409523498029,-1.3018472,10.0664215,1.8590976,-0.9545987,9.534083,-2.0881565
1409523498058,-2.132635,10.620679,2.6809072,-1.0176997,9.629059,-1.5543139
1409523498059,-2.5600002,10.95467,-2.3391352,-1.1059586,9.687978,-1.0441759
1409523498061,-3.425504,12.019491,3.750517,-1.2161621,9.665897,-1.1232806
1409523498068,-3.204639,12.495338,10.159196,-1.3488641,9.689796,-0.6773491
1409523498087,-3.264494,13.909115,4.44304,-1.413843,9.702459,0.18365768
1409523498088,-5.554548,14.504672,-2.315193,-1.4874861,9.687442,0.33356532
1409523498099,-7.2430587,13.229161,-3.8510735,-1.7941631,9.641085,-0.029907944
1409523498122,-4.2179847,15.042171,0.3878607,-2.189708,9.550603,-0.40196347
1409523498124,-3.934272,16.746841,-3.5877113,-2.261199,9.538967,-0.25592473
1409523498128,-3.445855,17.252617,-1.6585833,-2.240352,9.537389,-0.43525743
1409523498158,-3.4925418,15.593435,1.8046296,-2.202901,9.545072,-0.45739973
1409523498158,-2.7485435,12.971785,-1.1336545,-2.230278,9.545672,-0.2764301
1409523498160,-1.1408371,12.718598,-4.2610803,-2.2637658,9.531845,-0.43552083
1409523498168,-0.98102415,12.803592,-2.8520927,-2.1893165,9.519751,-0.86697763
1409523498182,-1.5239093,11.923723,1.6364368,-2.0798008,9.521008,-1.093264
1409523498198,-1.6585833,9.94312,6.362591,-2.010164,9.553882,-0.92355525
1409523498200,-0.7637503,8.129512,8.901642,-2.0116913,9.591631,-0.35222918
1409523498227,-0.048482586,8.560468,8.763975,-1.9739764,9.598405,0.3800161
1409523498229,0.05267244,10.274118,6.9707184,-1.8572596,9.570282,1.0633236
1409523498229,0.40462008,13.029844,5.78499,-1.7248201,9.532744,1.5238646
1409523498258,0.44352585,17.116148,4.8518496,-1.5618522,9.51474,1.7890663
1409523498258,-0.12150574,19.608511,-2.2828712,-1.3771274,9.52797,1.8686057
1409523498260,2.0242975,19.608511,-7.295731,-1.2241955,9.629723,1.3928965
1409523498268,6.191406,19.548058,-4.235343,-0.9133894,9.742766,0.643907
1409523498282,7.319673,15.865776,-0.6853402,-0.31245413,9.798181,0.26153108
1409523498297,6.7929487,12.641385,3.2243912,0.33064884,9.798223,0.2364071
1409523498302,4.9146976,10.594941,4.69084,0.8246134,9.761421,0.45282415
1409523498320,3.177704,8.555081,5.519832,1.064424,9.723584,0.6995241
1409523498321,1.6849195,7.313089,5.446809,1.1513796,9.686667,1.0065743
1409523498328,0.7038953,6.602011,5.4563856,1.1581889,9.64286,1.3580259
1409523498354,-0.5554548,5.519832,6.693589,1.1290599,9.588666,1.718464
1409523498355,-0.11911154,4.336498,7.1742253,1.0083619,9.505466,2.1908236
1409523498362,0.6392518,3.8163576,5.677251,0.95307875,9.386486,2.6750548
1409523498368,1.3682863,3.8660371,3.156755,1.003917,9.276063,3.0194688
1409523498380,0.5315128,3.6792896,1.8315643,1.1215575,9.216639,3.1569083
1409523498397,-0.24600422,3.341707,1.1013328,1.1111492,9.193028,3.2286146
1409523498400,-0.06584055,3.1310172,1.1599907,0.9873022,9.18914,3.279534
1409523498416,0.6667852,2.6252422,1.4622587,0.8976941,9.185766,3.3145494
1409523498432,1.3186066,2.1649568,1.8219875,0.93450207,9.150448,3.4009416
1409523498433,1.3634979,1.8052281,2.554613,1.0751123,9.087905,3.5248444
1409523498451,1.8435353,1.5089456,2.0548236,1.2379718,8.978003,3.7461014
1409523498452,2.593519,1.3826514,1.7525556,1.4826182,8.865117,3.9219818
1409523498465,3.426701,1.2533646,0.7038953,1.8517324,8.729,4.067684
1409523498468,4.050989,1.3479356,0.18614918,2.3797147,8.602478,4.0626025
1409523498482,3.7960067,1.0594343,1.0815806,3.0276732,8.4520445,3.9454434
1409523498498,3.0759506,0.5141548,2.4187422,3.6196177,8.20863,3.9607
1409523498500,2.7820623,0.5746084,3.2082303,4.065598,7.8399525,4.2633834
1409523498511,2.5893292,0.92775315,3.0029275,4.420995,7.402028,4.6728115
1409523498527,2.8275523,2.8395233,1.347337,4.6980505,7.007522,4.999336
1409523498528,2.52289,7.071873,-1.2599486,4.928356,6.93995,4.870193
1409523498547,-0.23104046,18.611925,1.0929531,4.871026,7.495184,4.033077
1409523498548,-13.829508,19.608511,-19.608511,3.5608287,8.547603,3.2294538
1409523498569,-19.521723,19.608511,-18.804659,3.7050881,8.387022,3.478588
1409523498570,-15.519216,19.539679,-8.916007,3.716054,8.316957,3.6317437
1409523498580,-9.927557,5.360019,-8.666411,3.5877714,8.313051,3.7671556
1409523498603,-4.9254713,3.1196449,0.48722005,-3.5681024,8.467509,-3.4264135
1409523498604,-1.18094,5.300164,4.048595,-4.0903697,8.3844,-3.023426
1409523498609,-0.9020155,4.9045224,0.3250129,-4.007564,8.62291,-2.3990169
1409523498632,-0.011971008,6.476914,-1.0235212,-3.8944428,8.717325,-2.238731
1409523498632,0.31543607,6.06152,-0.75716627,-3.6003723,8.830792,-2.2857893
1409523498649,-0.10594343,5.073912,2.895787,-3.2550905,8.959869,-2.3012037
1409523498649,2.3511062,8.432379,7.699154,-3.0633683,9.135559,-1.8241979
1409523498665,3.6619315,12.555792,6.157288,-2.4811852,9.463028,-0.6820462
1409523498680,4.417302,13.647549,2.0290859,-1.6366701,9.667944,0.15018998
1409523498681,4.7919946,14.176667,-0.9271546,-0.8144287,9.767601,0.31797436
1409523498695,4.956596,15.857396,-3.3979707,-0.11288287,9.8049965,0.14036825
1409523498700,4.741118,14.848839,1.7070658,0.43757337,9.794481,-0.2169795
1409523498712,2.8520927,12.250531,3.3752258,0.84627694,9.769978,0.041683424
1409523498729,1.5239093,10.22384,2.6940753,1.0224723,9.744688,0.40744945
1409523498730,1.073201,9.045294,1.6059108,1.0439178,9.725265,0.7069965
1409523498744,1.893215,8.98484,0.8643068,1.0218422,9.71873,0.82009065
1409523498749,2.4187422,9.181165,0.81642276,1.1062009,9.710345,0.8098776
1409523498768,2.0799627,8.576031,1.2958617,1.2584354,9.69356,0.78845865
1409523498769,1.6843209,7.518392,1.8166006,1.3775349,9.673851,0.83028793
1409523498783,1.3904326,6.91625,2.1571758,1.4550145,9.652391,0.94057375
1409523498804,0.8415619,7.008427,2.6629508,1.5015508,9.629464,1.0904899
1409523498811,0.28191724,7.4992385,3.6008794,1.4903291,9.60708,1.2858111
1409523498812,0.2885013,8.806473,4.450821,1.412136,9.578562,1.558022
1409523498834,0.8936358,10.685322,4.9984946,1.318955,9.536793,1.8655668
1409523498835,1.4191631,12.445061,5.1038394,1.2782553,9.48476,2.1391091
1409523498853,1.347337,13.03164,4.525041,1.272629,9.440906,2.3281116
1409523498854,1.0420763,12.428301,2.9412768,1.2389675,9.424772,2.4101884
1409523498861,0.57760113,11.628039,1.2210429,1.1678177,9.448639,2.3515542
1409523498882,0.18255788,11.404779,0.0796072,1.0770991,9.4988785,2.1866784
1409523498885,-0.3866636,10.823587,-1.2210429,0.9576196,9.565725,1.9365517
1409523498900,-1.401805,9.488221,-4.237737,0.80546474,9.636962,1.6280549
1409523498918,-1.6825253,8.66282,-3.626617,0.60006344,9.726072,1.1017396
1409523498919,-1.1438298,8.884284,-1.1941081,0.3900766,9.774591,0.6896309
1409523498921,-1.0432734,9.305065,1.6645688,0.25564328,9.786305,0.577308
1409523498929,-1.7064673,8.351574,3.6098576,0.1505293,9.775385,0.7678531
1409523498948,-1.7866731,7.33344,4.2317514,-0.01646569,9.744858,1.0990286
1409523498949,-0.74758947,6.539762,4.1545386,-0.1918734,9.690076,1.4953362
1409523498968,-0.31244332,6.6145806,3.2662897,-0.25551382,9.628342,1.8439488
1409523498969,-0.4285621,7.447763,1.690905,-0.27328327,9.585156,2.0543787
1409523498981,-1.0079589,8.182783,0.61530983,-0.30588353,9.585615,2.047635
1409523498999,-1.4682442,8.652046,-0.03232172,-0.39240035,9.612154,1.9033962
1409523499015,-1.2940661,8.987833,-0.53929394,-0.50725335,9.64419,1.703727
1409523499015,-0.5793968,9.116522,-0.99538934,-0.57786685,9.677167,1.4795039
1409523499030,0.090381116,9.209297,-1.5741876,-0.5664464,9.712357,1.2327552
1409523499031,0.10295067,9.460688,-1.7196354,-0.48139966,9.748308,0.95348966
1409523499045,-0.46387658,9.950901,-0.9947908,-0.41895375,9.773152,0.69306296
1409523499049,-1.1695676,10.814011,0.0017956513,-0.4402052,9.781498,0.54671794
1409523499061,-1.7788919,11.419744,0.58897364,-0.5329691,9.777836,0.529405
1409523499076,-2.1523874,11.455657,0.59017074,-0.66083735,9.767578,0.57281303
1409523499083,-2.296638,11.265916,0.374094,-0.79580873,9.755763,0.6017999
1409523499095,-2.3229742,11.118074,0.23403321,-0.92275023,9.744624,0.6010159
1409523499124,-2.0991163,11.423335,0.090979666,-1.0411537,9.733838,0.582071
1409523499125,-1.7776948,11.921329,-0.53450555,-1.1158795,9.727204,0.55378544
1409523499126,-2.042254,12.065579,-4.537611,-1.1492882,9.72791,0.4661625
1409523499129,-2.8742392,11.1414175,-13.669695,-1.2140712,9.7311945,0.015953284
1409523499148,-3.2213984,11.195287,-9.258378,-1.362648,9.637193,-1.1991991
1409523499150,-3.582923,12.966996,-2.19668,-1.5104985,9.523108,-1.7886215
1409523499166,-4.59986,14.711172,-1.0324994,-1.6602411,9.530055,-1.6099693
1409523499169,-5.266645,16.196177,6.071097,-1.8561591,9.531951,-1.366379
1409523499181,-5.655703,13.67568,5.424064,-2.02201,9.575154,-0.6310982
1409523499206,-4.298789,13.928867,-4.5687356,-2.2252405,9.547459,-0.25448355
1409523499207,-4.6232033,15.40609,-4.423288,-2.3177717,9.491993,-0.8368874
1409523499209,-5.8364654,15.180436,-0.25318682,-2.3585083,9.44318,-1.1975853
1409523499234,-6.071097,15.118785,-1.371279,-2.4743137,9.428232,-1.0754523
1409523499235,-5.6616883,15.099033,0.93014735,-2.6280222,9.389765,-1.0469848
1409523499241,-4.31914,12.016499,2.3864205,-2.7691019,9.362511,-0.91972005
1409523499249,-2.9759927,11.1970825,1.8830396,-2.855033,9.355894,-0.6974227
1409523499264,-1.903989,12.116456,1.9955671,-2.8729742,9.357651,-0.5922759
1409523499280,-2.6557682,11.883021,5.2852,-2.7908194,9.390575,-0.4458584
1409523499281,-2.5785553,9.4696665,7.335834,-2.7663133,9.408302,-0.041752428
1409523499297,-0.9487024,9.380483,7.1849995,-2.7948446,9.385919,0.5135664
1409523499313,0.31304187,11.168352,6.7534447,-2.700247,9.370708,1.0338508
1409523499313,0.9983821,14.491505,7.0964136,-2.4725404,9.378951,1.4464486
1409523499334,0.60453594,19.27093,4.7937903,-2.1688206,9.397586,1.7753816
1409523499335,-0.7733272,19.608511,-3.7349546,-1.8731221,9.451707,1.824015
1409523499341,2.6162639,19.608511,-6.736685,-1.7167189,9.573797,1.2512697
1409523499349,6.293159,17.302298,-3.3123782,-1.3092833,9.701621,0.57851976
1409523499365,8.511986,13.217191,3.6062663,-0.648767,9.780111,0.31452948
1409523499384,7.553706,11.418547,7.3310456,0.11218963,9.787365,0.6044057
1409523499385,3.5853171,9.016563,6.9838862,0.6782292,9.725099,1.0643659
1409523499390,1.2689269,8.151658,5.230732,0.85302263,9.666701,1.413376
1409523499422,1.3880384,7.711125,4.449624,0.86859137,9.626138,1.6593367
1409523499423,2.0853498,6.7079544,3.608062,0.8482123,9.5872965,1.880081
1409523499426,3.0903158,5.9723363,3.4159272,0.9262012,9.537533,2.0851882
1409523499430,1.8896236,4.3239284,5.614403,1.1119235,9.47657,2.2646494
1409523499455,0.38845924,2.7647045,5.483919,1.223368,9.365809,2.6373045
1409523499457,0.9588778,2.7886465,3.193865,1.225306,9.244556,3.0343366
1409523499461,1.4077905,3.6882677,2.7712884,1.2942175,9.170238,3.2252343
1409523499477,1.0079589,3.8708255,2.136825,1.378573,9.111342,3.3546016
1409523499537,0.90021986,3.7481227,2.0254946,1.4049159,9.074305,3.4429047
1409523499538,1.0031705,3.6403837,1.7304093,1.3975614,9.037521,3.541244
1409523499539,1.2467805,3.2908301,1.7537527,1.4177076,9.011718,3.5985334
1409523499540,1.673547,2.9239187,2.1942859,1.491189,8.977121,3.6548645
1409523499542,2.0841527,2.6156654,2.1033063,1.635345,8.903419,3.771625
1409523499542,3.2225955,2.6282349,0.96306765,1.8503664,8.810985,3.887555
1409523499545,4.07134,2.509722,0.94690675,2.252933,8.739911,3.835184
1409523499572,4.9458222,2.2301989,0.7667431,2.7732358,8.621088,3.7625
1409523499573,4.894945,1.5867572,0.40880993,3.421982,8.429253,3.661712
1409523499581,4.563947,1.2431892,1.3329718,4.0839295,8.190238,3.5230532
1409523499584,4.2383356,1.1803415,2.4355016,4.6635075,7.8676906,3.538578
1409523499616,3.709217,1.6298528,2.7353754,5.1306753,7.4768744,3.7340221
1409523499618,2.6420016,2.8149827,1.5676036,5.44526,7.1324286,3.9557543
1409523499618,1.0498575,5.6784477,-1.316811,5.5438633,7.0512204,3.964373
1409523499633,-1.6316484,13.883976,-5.2863975,5.293167,7.511949,3.4239469
1409523499634,-9.212888,19.608511,-16.138117,4.1080236,8.682485,1.9771168
1409523499645,-19.116503,19.608511,-19.608511,4.2349367,8.56335,2.2146635
1409523499672,-17.458519,19.608511,-15.823279,4.298529,8.464672,2.4581187
1409523499673,-9.818622,11.030087,-6.2740054,4.2084455,8.438387,2.69314
1409523499674,-6.165668,5.3235073,-1.5388732,-3.0348299,8.483761,-3.871175
1409523499713,-2.5234885,5.783793,1.0576386,-3.5545628,8.400936,-3.5999632
1409523499713,-2.2337902,4.4184995,-2.2110453,-3.6200686,8.52431,-3.2251587
1409523499714,-0.66858083,6.7025676,-1.7232267,-3.649622,8.496028,-3.2662146
1409523499715,0.74998367,11.112687,2.873042,-3.469129,8.572023,-3.2643514
1409523499737,3.108871,17.995419,8.830415,-3.0067801,8.934269,-2.7034338
1409523499738,3.4033577,18.578407,7.7266874,-2.1992543,9.449389,-1.4292469
1409523499744,2.8975825,14.796166,0.8331822,-1.4859897,9.679521,-0.51875937
1409523499768,2.5390508,12.169128,-1.905186,-0.978442,9.74696,-0.458098
1409523499769,3.755904,12.479177,-2.0919337,-0.6085811,9.769026,-0.6051257
1409523499776,6.1824274,12.124836,1.0378864,-0.18965456,9.781034,-0.6825167
1409523499785,4.742315,10.696694,1.1294646,0.3854992,9.786473,-0.4966972
1409523499814,2.9550436,8.619126,4.0737343,0.7495558,9.772912,-0.31425855
1409523499816,2.2230163,6.576872,2.7257986,0.93655545,9.761434,0.087533906
1409523499817,2.6342204,8.199542,2.7988217,1.093146,9.739845,0.33297026
1409523499835,2.8622682,9.509171,3.151368,1.2839471,9.706648,0.5503262
1409523499836,3.3063924,9.952697,3.6984432,1.4656855,9.664883,0.7824384
1409523499843,2.825158,8.805874,3.6649241,1.6538199,9.6075735,1.0629286
1409523499861,2.054225,7.2831616,2.5187001,1.781203,9.55133,1.3303459
1409523499863,1.4508862,6.645705,1.7687165,1.8515973,9.5124035,1.5020512
1409523499882,1.2785037,7.069479,1.9919758,1.8611826,9.494815,1.5984058
1409523499899,1.388637,7.8009076,2.156577,1.8480624,9.48109,1.6923326
1409523499900,1.3796587,8.6299,2.0697873,1.8490376,9.4667425,1.769808
1409523499906,1.1109096,9.734225,2.4534583,1.8485844,9.461076,1.8003252
1409523499915,1.91596,12.235568,3.2848446,1.8014611,9.462807,1.8385917
1409523499929,2.6659436,15.171457,3.6912606,1.7911114,9.451286,1.9066958
1409523499953,1.7615339,14.929045,3.2794578,1.8028233,9.439954,1.9512837
1409523499954,0.2088941,11.85489,2.0296845,1.7267452,9.452275,1.9604137
1409523499955,-0.6422446,10.09994,0.1436521,1.5380639,9.492379,1.9234055
1409523499962,-1.1444284,9.980229,0.1316811,1.2915844,9.559026,1.7683953
1409523499977,-1.7531542,9.820416,1.2270284,1.0334829,9.613511,1.6378988
1409523499999,-2.528277,9.102755,1.5921441,0.7634654,9.640077,1.6298628
1409523500000,-2.8485014,8.336611,2.147599,0.45899642,9.6524105,1.670539
1409523500002,-2.1470003,8.415619,2.6443958,0.15910219,9.64744,1.7526989
1409523500011,-1.738789,8.14687,2.2307975,-0.05063684,9.623454,1.8859844
1409523500035,-1.614889,7.681796,1.1965023,-0.18726446,9.603406,1.9773529
1409523500036,-1.4251486,7.747637,0.30166942,-0.3189213,9.602002,1.9672894
1409523500045,-1.3215994,8.233061,0.53570265,-0.4470856,9.61927,1.8547719
1409523500072,-1.5155296,8.77834,0.92416185,-0.5549892,9.631697,1.7586373
1409523500073,-1.8136078,9.295488,0.8062474,-0.664028,9.635206,1.7006723
1409523500074,-1.9297266,9.446921,0.037110128,-0.7843565,9.639416,1.6238384
1409523500102,-1.869273,9.437345,-0.7020996,-0.8999518,9.653252,1.4748621
1409523500104,-1.8249803,9.432556,-1.0953473,-1.0038167,9.673366,1.2604592
1409523500107,-1.8118122,9.419388,-1.1725603,-1.088822,9.691031,1.0338223
1409523500110,-1.7340006,9.625888,-1.1145009,-1.1608652,9.702414,0.8282104
1409523500132,-1.7178397,10.012551,-0.92296475,-1.2152041,9.709235,0.6514977
1409523500133,-1.8369513,10.291476,-0.7164649,-1.2576994,9.711975,0.5158717
1409523500142,-2.022502,10.477625,-0.7068881,-1.3052026,9.710454,0.41703066
1409523500173,-2.1068976,10.479421,-1.0911574,-1.3658388,9.705463,0.3299301
1409523500174,-1.8004397,10.505158,-1.7304093,-1.4270383,9.700012,0.20911016
1409523500187,-0.98102415,10.96664,-4.5501804,-1.4524232,9.698405,0.042457443
1409523500218,0.39205053,11.159973,-10.958859,-1.3896734,9.700326,-0.3779811
1409523500219,0.04189853,10.564415,-9.050082,-1.202852,9.63927,-1.3446267
1409523500219,-1.4149733,10.481216,-2.3517046,-1.0938779,9.544547,-1.9686162
1409523500220,-2.878429,11.212047,1.2395979,-1.1613883,9.55815,-1.8610042
1409523500224,-3.8019924,12.576741,0.8403648,-1.34413,9.608006,-1.431769
1409523500232,-4.3179426,14.80694,3.0334535,-1.5456022,9.620682,-1.1063478
1409523500252,-5.2564697,15.921441,8.324639,-1.6931341,9.636139,-0.6697253
1409523500253,-7.423821,13.875596,2.8574798,-1.8472018,9.63084,0.071924366
1409523500262,-8.313267,13.581109,-1.6023195,-2.2081738,9.553575,0.15353993
1409523500277,-7.271789,14.091074,-2.7988217,-2.6188958,9.449679,-0.12372794
1409523500300,-7.0066314,15.895105,-3.667917,-2.8605793,9.372038,-0.3903857
1409523500301,-6.652888,17.33402,-1.1827357,-2.9838502,9.31937,-0.64528435
1409523500302,-4.8733974,17.459118,1.6059108,-3.060603,9.294302,-0.6473239
1409523500311,-3.0813377,14.668675,1.6795325,-3.0314732,9.316369,-0.43110305
1409523500335,-1.1180922,13.773244,0.0023942017,-2.96759,9.340173,-0.3535377
1409523500336,0.56203884,13.35366,0.039504327,-2.8041065,9.387486,-0.42713353
1409523500345,0.24600422,11.932103,2.630629,-2.5395827,9.460884,-0.46109554
1409523500366,-1.4784195,10.262746,7.697957,-2.3423617,9.519165,-0.26308155
1409523500367,0.4237737,7.361572,7.101202,-2.3117304,9.524749,0.32474038
1409523500370,1.3138182,8.545505,5.901707,-2.1814077,9.522437,0.85734844
1409523500402,1.8315643,11.065402,5.9501896,-1.9604777,9.528701,1.2372478
1409523500404,1.9405005,16.713324,5.559336,-1.6725357,9.533237,1.5780946
1409523500405,1.7034745,19.608511,-1.5676036,-1.3672808,9.552098,1.7488173
1409523500410,4.4298716,19.608511,-5.0840874,-1.090663,9.653373,1.3391087
1409523500426,8.202535,19.588161,-4.096479,-0.6342923,9.756174,0.76492554
1409523500442,9.208099,15.7323,-0.86251116,0.057762455,9.798537,0.394604
1409523500443,9.076419,12.027272,2.634819,0.7702529,9.770493,0.33845022
1409523500461,7.2885485,10.333973,5.0362034,1.3769182,9.69787,0.47517744
1409523500475,4.5621514,9.324817,5.2983685,1.7775612,9.616833,0.72608757
1409523500476,1.7411832,7.928399,4.9763484,1.9252307,9.564881,0.98840094
1409523500490,0.108337626,7.180211,4.453215,1.8789997,9.542098,1.2601982
1409523500491,-0.073023155,6.6349316,3.1848867,1.7249849,9.524833,1.5723765
1409523500507,0.53929394,6.3865333,3.1010897,1.5756992,9.510089,1.8015988
1409523500510,0.3298013,5.2875943,4.4328647,1.5098522,9.487804,1.9678204
1409523500525,-0.55844754,4.244321,6.5511346,1.4728929,9.436717,2.2247202
1409523500542,-0.7679402,4.0438066,8.062474,1.3767145,9.329637,2.689411
1409523500565,-0.026934769,4.0521865,4.5382094,1.1603307,9.0338125,3.635142
1409523500566,0.3453636,4.0563765,2.248754,1.1603307,9.0338125,3.635142
1409523500566,0.6817489,3.752911,1.6807296,1.1603307,9.0338125,3.635142
1409523500571,0.89423436,3.144784,1.7806876,1.127761,9.019012,3.6818404
1409523500604,1.5634137,2.44029,0.9379285,1.1351529,8.985809,3.7599268
1409523500606,2.2661119,1.9835961,0.85473,1.2781308,8.967188,3.7585003
1409523500607,2.5887306,1.5125369,2.0099323,1.5473286,8.926311,3.754616
1409523500611,3.004723,1.4185646,2.3660698,1.865278,8.797832,3.9101508
1409523500637,3.7421372,1.4449008,1.6478093,2.2537382,8.61185,4.1142554
1409523500639,4.1258082,1.1994951,1.5167267,2.7773387,8.4171505,4.19623
1409523500645,3.9390604,0.943914,1.0857705,3.3634355,8.168324,4.258659
1409523500672,3.318962,0.82240826,1.7112557,3.9226027,7.9075675,4.272464
1409523500673,2.6557682,0.9355343,1.8016368,4.3598123,7.6056867,4.394992
1409523500674,2.1613655,1.4987702,1.690905,4.6749935,7.3308716,4.5357647
1409523500697,1.7890673,3.8612487,0.7835025,4.8668385,7.143669,4.631661
1409523500698,1.1665748,9.378687,-0.018555064,4.8355474,7.303703,4.4095135
1409523500705,-2.9903579,19.449896,-0.86729956,4.3392315,7.94886,3.7625868
1409523500711,-17.91641,19.608511,-19.608511,2.788486,8.991007,2.7489147
1409523500736,-19.036896,19.608511,-19.447502,2.9117012,8.892174,2.9362607
1409523500737,-10.670957,16.53735,-11.47062,2.8869843,8.879976,2.9969501
1409523500742,-6.645705,2.9454668,-4.23235,2.6885202,8.891647,3.1433823
1409523500767,-0.8331822,4.3382936,4.2413282,-3.4250984,8.522328,-3.4364223
1409523500767,-0.6823475,2.9239187,1.1216835,-3.5336933,8.734887,-2.7175627
1409523500771,0.02813187,2.8820202,-0.8655039,-3.4810464,8.8277445,-2.474602
1409523500804,1.5448587,4.666898,-0.6386533,-3.3622384,8.855532,-2.5387583
1409523500805,2.7491422,9.425373,2.7281928,-2.9690235,8.981932,-2.5846121
1409523500806,5.4683566,17.138893,7.247847,-2.2630486,9.325385,-2.0214293
1409523500811,5.8723783,19.581577,5.8837504,-1.1814941,9.701793,-0.80604315
1409523500836,4.7255554,16.420034,1.4748282,-0.28583091,9.802295,-0.0609443
1409523500836,2.866458,13.5296335,-3.858256,0.2731737,9.80278,0.035533965
1409523500842,3.7128084,13.250111,-0.90740246,0.5269784,9.785938,-0.3578975
1409523500862,3.6894648,10.968436,2.5552118,0.81699735,9.765313,-0.3763041
1409523500871,2.3894134,9.797672,0.75956047,1.0535566,9.749656,-0.0677797
1409523500895,1.7495629,8.311471,2.03567,1.1509532,9.738874,0.0065106973
1409523500896,1.9482816,6.4966664,1.8357542,1.22437,9.728006,0.19288638
1409523500897,2.417545,6.770204,1.1330559,1.3503791,9.7059965,0.37484103
1409523500918,2.9670146,8.193557,2.842516,1.5142323,9.677923,0.46403527
1409523500919,3.019687,9.106346,4.7961845,1.6946748,9.63339,0.7044582
1409523500922,2.1039047,7.5944076,3.7020345,1.8529882,9.56554,1.1123291
1409523500943,1.6986861,7.1748238,3.122039,1.9334196,9.512641,1.3935417
1409523500944,1.2024878,7.6464815,2.7593174,1.9697853,9.470435,1.612821
1409523500965,1.103727,8.7292595,2.4929626,1.9380733,9.4470215,1.779897
1409523500966,0.89662856,9.545682,2.4426842,1.8788255,9.440296,1.8764933
1409523500971,0.6314707,10.354922,2.8580782,1.7986773,9.445011,1.9305277
1409523501001,1.1426327,12.838906,2.932897,1.6911999,9.451027,1.997079
1409523501002,1.8525136,15.435418,2.6856956,1.6065313,9.462536,2.0124269
1409523501004,1.6065093,14.953586,2.6001031,1.5765368,9.482033,1.9431884
1409523501012,0.5303157,12.686874,1.8549078,1.5307583,9.50085,1.8870637
1409523501035,-0.3657143,11.313202,0.8038532,1.3991505,9.533408,1.8239813
1409523501036,-0.98341835,10.737994,1.364695,1.1997464,9.581933,1.7080785
1409523501043,-1.8082209,10.167576,2.2655134,0.9689184,9.6144,1.6717899
1409523501063,-2.5809495,9.607931,2.3421278,0.70148355,9.625413,1.7406164
1409523501065,-2.89459,9.527127,2.2451627,0.3986603,9.630496,1.8069282
1409523501071,-2.6102784,9.520543,2.2451627,0.100038,9.625813,1.8719296
1409523501097,-2.4361002,8.225879,1.6514006,-0.14976387,9.613289,1.9320121
1409523501098,-2.6437972,6.6846113,0.97025025,-0.36291388,9.601176,1.9637002
1409523501103,-2.337938,6.18961,0.2136825,-0.6006807,9.591367,1.9532694
1409523501111,-1.1947067,6.541558,-0.11671733,-0.8140853,9.593198,1.8649913
1409523501132,-0.427365,7.413047,-0.16579847,-0.8909186,9.611327,1.7317683
1409523501133,-0.64463884,8.242638,-0.6266823,-0.8628376,9.639328,1.5840572
1409523501143,-1.2216414,8.947132,-0.8984242,-0.8506854,9.671319,1.382864
1409523501163,-1.7764976,9.795278,-1.2240356,-0.90421444,9.69659,1.1527871
1409523501164,-2.1787236,10.404003,-1.6962919,-1.0089307,9.712123,0.9094576
1409523501171,-2.2439656,10.337564,-2.184709,-1.1376386,9.718916,0.64719373
1409523501200,-1.9710265,9.993398,-2.4432828,-1.2517136,9.719618,0.3642283
1409523501201,-1.5801731,9.818023,-2.409764,-1.3181413,9.71718,0.09644312
1409523501203,-1.376666,10.146626,-2.3648727,-1.3338115,9.714693,-0.12686726
1409523501211,-1.2384008,10.783484,-2.8844144,-1.3265764,9.711474,-0.31276006
1409523501225,-0.7218518,11.067198,-5.269638,-1.3027205,9.704988,-0.53529775
1409523501240,-0.2124854,10.619482,-7.6602483,-1.2316244,9.682478,-0.9503315
1409523501245,-0.2765303,10.0664215,-6.667253,-1.1289228,9.6189995,-1.5397334
1409523501256,-0.7110779,9.951499,-2.8820202,-1.0594819,9.553121,-1.9457011
1409523501272,-0.90500826,10.242993,0.077811554,-1.0541712,9.555917,-1.9348341
1409523501272,-0.9684546,10.430939,0.62608373,-1.0655854,9.6082325,-1.6482638
1409523501289,-1.2551602,10.431537,0.18914193,-1.0618364,9.651455,-1.3756188
1409523501291,-1.9608512,11.282676,2.5001452,-1.0793512,9.674515,-1.1870857
1409523501306,-3.0627825,13.313557,6.5086374,-1.1262975,9.705635,-0.8381495
1409523501326,-4.684854,14.867992,6.0166287,-1.2225957,9.728744,-0.16482352
1409523501326,-6.9611416,15.255854,0.47345337,-1.4206758,9.697479,0.33305618
1409523501339,-7.9822683,14.619595,-2.0045455,-1.8075356,9.635465,0.24696645
1409523501343,-7.433996,13.794193,-1.6603789,-2.2394168,9.547525,-0.01185038
1409523501359,-6.330868,14.201207,-1.6460136,-2.5633729,9.464405,-0.15676342
1409523501373,-5.907094,16.387114,-3.5913026,-2.7372177,9.41268,-0.2819381
1409523501373,-5.203199,16.713923,-1.4293385,-2.8026283,9.3818865,-0.5439312
1409523501387,-4.1623197,15.082872,2.955642,-2.8188136,9.373545,-0.60110915
1409523501391,-3.152565,12.71381,1.3652935,-2.8306289,9.382885,-0.34551293
1409523501407,-1.8716671,12.657546,-2.6862943,-2.8374608,9.382803,-0.28680164
1409523501420,-1.0085574,12.3355255,-2.9771898,-2.762479,9.392684,-0.5626552
1409523501425,-1.2707225,12.248137,2.4827871,-2.6245878,9.414555,-0.8050561
1409523501438,-2.2361844,11.125257,8.467094,-2.5190156,9.460589,-0.5675851
1409523501443,-1.1294646,8.779537,8.722675,-2.4992888,9.482207,0.10807757
1409523501457,0.5117606,8.648455,7.5082164,-2.4407396,9.465097,0.79064476
1409523501472,1.4742297,10.231621,6.643311,-2.252906,9.453841,1.311364
1409523501473,1.7675194,12.873024,6.5816603,-1.9955682,9.450395,1.6965088
1409523501491,-0.33399114,19.608511,0.8996213,-1.7144349,9.446835,1.9971017
1409523501492,2.4091654,19.608511,-7.8212585,-1.5433564,9.532647,1.7079407
1409523501508,6.3063273,19.377472,-7.385514,-1.1539205,9.701214,0.8516432
1409523501522,8.564658,15.087062,-1.2850877,-0.47819328,9.792928,0.20076464
1409523501523,9.485229,12.3038025,3.66672,0.22495297,9.803398,0.114792645
1409523501539,6.739678,9.831191,5.357625,0.9511747,9.751075,0.42684114
1409523501557,3.1358056,7.920019,5.9412117,1.3621184,9.680719,0.77376014
1409523501558,1.8902222,7.176021,5.9465985,1.4483135,9.634971,1.113606
1409523501571,1.584363,6.2746043,5.285799,1.4389336,9.586604,1.4821929
1409523501571,1.9285295,5.631162,4.152743,1.4489474,9.52159,1.8466833
1409523501594,1.1767502,5.01286,4.136582,1.5122443,9.458229,2.103659
1409523501595,0.65780693,3.8031895,4.3640313,1.5371807,9.396785,2.3468945
1409523501605,0.7284359,3.775656,4.0617633,1.5415277,9.328532,2.6024177
1409523501621,1.0857705,4.481347,2.593519,1.5673268,9.247881,2.8619168
1409523501623,0.24959552,4.5394063,0.30645782,1.6111665,9.201936,2.9831064
1409523501638,-0.58298814,4.135385,1.3204023,1.5418028,9.241749,2.8953948
1409523501643,-0.31783026,3.940856,2.938284,1.3567753,9.25325,2.950746
1409523501654,0.30226797,3.8139634,2.9580362,1.1994637,9.198916,3.1798744
1409523501671,0.61112,3.1399956,2.3690627,1.156442,9.133822,3.3773282
1409523501672,1.958457,2.5737667,1.5532384,1.1805559,9.078298,3.5158486
1409523501688,3.145981,2.0530279,0.9744401,1.4124136,9.022855,3.5726144
1409523501691,3.8402996,1.4131776,0.84455466,1.8296392,8.94601,3.5765522
1409523501706,4.276643,1.0426749,0.7906851,2.3828897,8.8107,3.5866132
1409523501725,4.474763,1.0498575,1.0007763,3.0285969,8.608728,3.5899575
1409523501726,3.9983168,1.1174936,1.8243817,3.6993043,8.339051,3.5980246
1409523501736,3.4644098,1.1402385,2.4384944,4.2495503,8.014051,3.7264879
1409523501743,3.1531637,1.9063832,2.4211364,4.6662617,7.6620855,3.960914
1409523501754,2.8688521,3.5619736,1.2970588,4.935098,7.399152,4.1313148
1409523501771,2.2343888,6.203975,-1.2940661,5.0684,7.3623667,4.034509
1409523501771,0.9451111,11.738173,-2.570774,4.9855876,7.7360654,3.3863864
1409523501788,-6.139332,19.608511,-7.3088994,4.322597,8.467515,2.4055657
1409523501791,-18.75019,19.608511,-19.608511,2.4183745,9.46785,0.8256407
1409523501805,-18.935741,19.608511,-18.245613,2.5705726,9.40984,1.0086995
1409523501819,-11.639412,16.096817,-9.944317,2.6448011,9.378678,1.1026261
1409523501823,-8.292916,1.2779051,-6.891111,2.6512146,9.3604965,1.2339193
1409523501836,-2.5851393,6.7965403,1.9393034,-3.4891794,8.210508,-4.07229
1409523501859,-2.7491422,5.1379566,0.80445176,-3.7406263,8.382271,-3.4519022
1409523501860,-0.32022446,7.450157,0.073023155,-3.8379667,8.4827,-3.0796497
1409523501881,1.6035166,12.28824,3.2495303,-3.603349,8.664205,-2.8491752
1409523501882,3.2429461,17.787123,7.4926543,-3.023954,9.044048,-2.2872014
1409523501884,3.6996403,17.684172,7.778163,-2.2033286,9.471044,-1.2708493
1409523501892,1.8327614,13.667899,2.77069,-1.4997926,9.682827,-0.40480566
1409523501916,1.7663223,11.324574,0.5626374,-1.1364725,9.739713,-0.1296756
1409523501916,2.759916,10.967838,-1.2330139,-0.83970284,9.770196,-0.09258506
1409523501923,3.755904,9.744401,2.6408045,-0.49556586,9.792369,-0.18528993
1409523501939,3.9815574,8.372523,1.228824,-0.11096944,9.805697,0.07994652
1409523501956,3.4380736,7.809886,1.0193313,0.2657333,9.801284,0.1860504
1409523501956,2.6288335,7.1670427,2.0775685,0.58095104,9.785649,0.2719187
1409523501971,2.8904,7.247847,0.5662287,0.8079881,9.761429,0.48170158
1409523501972,3.309984,8.166622,-0.5434838,1.0453824,9.737374,0.51100135
1409523501985,3.705027,9.60853,0.7380127,1.3073399,9.709995,0.4210092
1409523501992,3.4638114,9.965864,3.0699651,1.5684766,9.669356,0.46243048
1409523502006,2.9586349,8.8364,3.9917328,1.7728654,9.616868,0.7370003
1409523502019,2.4797945,7.377134,4.016872,1.9299618,9.554498,1.0757486
1409523502025,1.882441,6.5684924,3.693056,2.052116,9.486685,1.4007293
1409523502035,1.5370775,6.8360443,3.0831332,2.1082363,9.427243,1.6890316
1409523502053,1.4131776,8.634089,4.009091,2.1088746,9.388256,1.8930631
1409523502055,0.78410107,9.172785,4.3382936,2.0560365,9.346185,2.1428783
1409523502078,0.641646,10.282497,4.777031,1.931332,9.318426,2.3679764
1409523502079,1.0941502,12.656349,5.9902925,1.7892584,9.293886,2.5676072
1409523502085,1.4951789,14.09287,6.242881,1.679007,9.256901,2.7678745
1409523502092,1.5424645,13.043611,4.56275,1.6090845,9.228432,2.9012542
1409523502112,1.3108255,11.137826,1.8034325,1.5603908,9.241077,2.8875668
1409523502113,0.7260417,10.068815,0.61770403,1.5030323,9.309002,2.6932797
1409523502124,-0.40043023,9.288305,-2.2098482,1.3890342,9.387323,2.4736888
1409523502146,-1.6304513,8.866327,-8.640076,1.2205776,9.515632,2.033056
1409523502147,-0.741604,10.109517,-5.3528366,0.9678309,9.703925,1.0332067
1409523502152,-1.2072762,11.13244,-0.7170634,0.8030498,9.764049,0.4346084
1409523502180,-2.404377,10.268731,1.8189948,0.61960375,9.777,0.44356006
1409523502181,-3.7936125,8.771158,3.7301662,0.34407327,9.772761,0.7383441
1409523502184,-4.662708,8.050503,4.6621094,-0.061269,9.74065,1.1341844
1409523502216,-4.823119,8.122928,4.2700586,-0.52478784,9.668402,1.5546763
1409523502217,-4.212598,9.039907,2.8413188,-0.9618156,9.579426,1.865442
1409523502218,-3.6703112,9.796474,1.0582372,-1.2824203,9.520322,1.9721167
1409523502224,-3.271078,9.601946,-0.26156655,-1.510423,9.510761,1.8532226
1409523502245,-2.8999767,9.438541,-0.7194576,-1.6896894,9.522924,1.6214982
1409523502246,-2.6024973,9.49301,-0.9068039,-1.8329794,9.533629,1.385824
1409523502252,-2.3930047,9.660604,-1.3479356,-1.9323183,9.543223,1.1676506
1409523502272,-1.9608512,9.625888,-2.124854,-1.9859897,9.558102,0.93215317
1409523502272,-0.80086046,9.806051,-4.435259,-1.983789,9.582128,0.64639765
1409523502289,0.973243,10.168773,-8.593987,-1.8644574,9.626502,0.15703736
1409523502312,1.2629414,10.092757,-9.65821,-1.5682157,9.655861,-0.6895039
1409523502313,-0.40282443,9.7958765,-6.165668,-1.2807289,9.603067,-1.520269
1409523502329,-2.110489,9.841366,-1.6496049,-1.2263603,9.547127,-1.8758498
1409523502330,-2.6910827,10.250176,1.127669,-1.3714793,9.554402,-1.7328787
1409523502332,-1.2575544,10.614694,0.6206968,-1.5308663,9.592728,-1.3440368
1409523502356,0.6889315,11.009736,-1.0426749,-1.4833995,9.6313,-1.0990893
1409523502357,1.1109096,11.006743,-1.0145429,-1.2545395,9.667877,-1.0623826
1409523502369,0.0035913025,10.597335,0.6440403,-0.987294,9.695838,-1.0891829
1409523502372,-1.8992004,10.622475,4.298789,-0.87642944,9.719571,-0.9655212
1409523502386,-3.478775,11.744158,5.7400985,-0.94490814,9.747905,-0.5058555
1409523502404,-4.276643,13.824719,2.042254,-1.1134342,9.743198,0.026972609
1409523502404,-5.716755,14.94341,-3.9384618,-1.3198568,9.716552,0.1304174
1409523502420,-7.1724296,14.904504,-3.882198,-1.6310871,9.665785,-0.2873241
1409523502425,-7.5920134,14.444818,-1.323395,-1.993075,9.582897,-0.6050603
1409523502440,-6.1848216,14.056956,0.3633201,-2.3285935,9.502406,-0.67257166
1409523502458,-4.741118,14.458584,-0.5614403,-2.5352862,9.457731,-0.5422337
1409523502459,-4.1042604,15.542559,-0.6667852,-2.6000612,9.443432,-0.48133668
1409523502464,-3.7433343,14.506468,2.6396074,-2.6021745,9.444266,-0.45267382
1409523502472,-3.345897,12.680291,3.1358056,-2.632555,9.443328,-0.2522886
1409523502492,-2.802413,12.110471,2.5582044,-2.6796875,9.433026,-0.08768361
1409523502493,-3.204639,10.97502,3.4171243,-2.6809063,9.433058,0.02302144
1409523502506,-3.8127663,9.646238,5.843049,-2.704726,9.423572,0.22612889
1409523502522,-3.875614,9.381081,7.0706763,-2.8022103,9.375563,0.6456292
1409523502526,-1.9027919,9.074623,6.091448,-2.9050932,9.296661,1.1414576
1409523502549,-0.108936176,8.926183,5.130774,-2.868394,9.253963,1.518839
1409523502550,0.7757214,10.009559,5.099051,-2.7107472,9.254598,1.7817646
1409523502553,1.6106992,12.565968,5.781399,-2.483199,9.27297,2.004024
1409523502587,2.0853498,18.02774,6.1387334,-2.160448,9.304525,2.22006
1409523502588,-0.12389994,19.608511,-0.95109665,-1.7647035,9.361997,2.325775
1409523502590,-0.84335756,19.608511,-6.0327897,-1.5718057,9.495939,1.8780218
1409523502613,3.1256304,19.608511,-3.5978866,-1.4241024,9.635107,1.1432478
1409523502614,6.6762314,17.431583,0.15203181,-0.9498063,9.731947,0.7466412
1409523502615,9.01417,12.820352,2.1757307,-0.2733356,9.778313,0.69301474
1409523502642,6.564901,12.039842,3.989937,0.4212582,9.767913,0.7621143
1409523502643,4.0479965,10.2406,4.681263,0.8052806,9.727797,0.9444012
1409523502645,3.210026,7.9750857,4.291008,0.9593749,9.682576,1.2238083
1409523502653,3.7355533,6.22672,3.4680011,1.06602,9.635771,1.4784769
1409523502675,4.099472,4.8021703,3.0125043,1.2545278,9.576037,1.7017779
1409523502676,2.1338322,4.4418426,7.335834,1.5293331,9.509956,1.8418136
1409523502686,1.5729905,4.571728,7.221511,1.6583953,9.378501,2.3374858
1409523502711,1.2306197,4.256292,4.4035354,1.7338959,9.227136,2.8326619
1409523502712,1.1893197,3.8708255,1.2425907,1.7771325,9.133527,3.096916
1409523502713,0.41599256,3.5104983,0.21667525,1.8077184,9.130209,3.0889828
1409523502749,0.6302736,3.5541923,0.9804256,1.7479271,9.165669,3.01756
1409523502750,1.6035166,3.4141316,1.6017209,1.7103783,9.172937,3.0169878
1409523502752,1.970428,2.9484594,3.1908724,1.8091826,9.1327505,3.080603
1409523502754,2.1745336,2.7766755,2.5959132,1.9650536,9.012797,3.3284314
1409523502781,2.4779987,2.1877017,1.1097125,2.1665325,8.901925,3.497464
1409523502783,3.1603463,1.4957775,0.2160767,2.437277,8.828295,3.5058916
1409523502785,4.0467997,0.98581254,-0.20410569,2.8362987,8.738279,3.430492
1409523502819,4.5621514,0.6428431,0.037110128,3.4015994,8.581953,3.3090193
1409523502820,4.2922053,0.33638534,0.5117606,4.0706215,8.326441,3.2048137
1409523502821,3.8235402,0.08319851,1.4526819,4.6988797,8.009277,3.1531596
1409523502842,3.2812533,0.15322891,2.3421278,5.232393,7.6124034,3.2929866
1409523502843,2.4654293,0.3705027,2.441487,5.636985,7.18323,3.5771475
1409523502845,1.8028339,1.5981296,1.9327193,5.875144,6.8169723,3.8964047
1409523502853,0.8912416,4.305373,0.7793127,5.9151325,6.673316,4.0802517
1409523502877,-0.15981296,12.026673,2.208651,5.6294246,7.0020633,3.9307868
1409523502878,-5.5880666,19.608511,-12.929886,4.5165358,7.904406,3.645773
1409523502884,-18.481441,19.608511,-19.608511,4.687444,7.714056,3.832962
1409523502915,-19.60911,19.608511,-17.824234,4.841324,7.522535,4.0178924
1409523502916,-17.88289,14.560936,-8.077438,4.8160443,7.4227676,4.228312
1409523502916,-11.954847,2.6204538,-4.723161,4.5451083,7.4033685,4.5500016
1409523502940,-3.721188,5.7281275,0.8230068,-4.600757,7.8360186,-3.687855
1409523502940,-1.0785879,5.9603653,-0.11252748,-4.8431754,7.9332867,-3.1268158
1409523502944,1.1426327,11.336545,1.8495208,-4.6518984,8.140153,-2.875431
1409523502953,4.6297874,19.416975,6.4308257,-4.0785904,8.568215,-2.4741058
1409523502983,6.70975,19.608511,4.6513352,-2.9791555,9.213189,-1.5531197
1409523502984,2.8233624,19.152416,-3.78643,-1.8695673,9.57946,-0.95345193
1409523502987,-4.751293,14.60882,-5.990891,-1.2839319,9.649047,-1.19071
1409523503015,-4.237737,8.352771,8.293514,-1.4680712,9.568001,-1.5711524
1409523503016,-0.545878,5.9005103,9.13388,-1.7298172,9.61981,-0.7983681
1409523503023,1.7579426,3.8444893,4.80636,-1.7340263,9.652067,0.03361498
1409523503051,3.068768,3.044826,0.86969376,-1.5086116,9.677209,0.4960852
1409523503052,3.41473,2.7611132,-2.1027076,-1.1147712,9.72585,0.579232
1409523503053,3.4847605,2.8538885,-2.0847511,-0.6882719,9.776974,0.32781917
1409523503054,4.8865657,4.657321,-1.0755951,-0.23095074,9.803475,0.094375156
1409523503070,6.0597243,8.038532,0.5746084,0.4057757,9.798247,-0.011305531
1409523503086,5.0571527,10.436924,1.7597382,1.1342428,9.740535,0.076692194
1409523503087,3.0969,10.778097,2.939481,1.6030847,9.670757,0.27748162
1409523503107,2.532467,9.973047,3.8522706,1.7654277,9.628586,0.5864971
1409523503108,2.8951883,9.03871,4.2054152,1.8760803,9.576251,0.9726924
1409523503113,3.1238346,9.065644,4.4322658,2.0208402,9.499826,1.3564297
1409523503141,3.3638535,9.119514,4.0013094,2.1881568,9.403227,1.7209532
1409523503141,3.3925838,8.91481,3.5212722,2.3316839,9.313266,1.9991763
1409523503145,2.9652188,8.957307,3.8959646,2.4485211,9.239648,2.1918087
1409523503153,2.3139958,9.391256,4.8865657,2.4946666,9.177525,2.391663
1409523503176,1.638831,10.104729,5.920861,2.4513407,9.121305,2.6387668
1409523503178,1.0414777,11.015123,5.6108117,2.3301024,9.070398,2.910139
1409523503185,1.0390835,10.241198,4.1934443,2.158083,9.0615015,3.0663095
1409523503221,1.4598645,9.40203,2.4779987,2.0302284,9.074804,3.1139174
1409523503223,1.9063832,8.942344,0.75596917,1.9840617,9.122685,3.001744
1409523503225,1.946486,9.4535055,-0.023942016,1.9946114,9.191955,2.774865
1409523503260,0.95827925,9.516952,-3.757101,1.9939255,9.270866,2.4991343
1409523503260,-0.17896658,8.699332,-6.923433,1.9170322,9.428829,1.895404
1409523503261,0.44951138,8.915408,-2.8892028,1.7542087,9.593879,1.0249959
1409523503262,0.16938977,10.185533,0.5231331,1.636623,9.645684,0.67276627
1409523503265,-1.654992,11.250354,2.919729,1.4892282,9.667645,0.69943684
1409523503289,-3.1196449,10.38066,4.9266686,1.1646736,9.680251,1.0519884
1409523503290,-3.8546648,9.499594,3.899556,0.73334205,9.659239,1.5269986
