time,acc_x,acc_y,acc_z,gravity_x,gravity_y,gravity_z
1409523247942,-1.2593501,4.207211,8.819042,-1.2490407,3.9847538,8.873107
1409523247965,-1.258153,4.2024226,8.626308,-1.2410072,3.9881992,8.872685
1409523247966,-1.3030443,4.097078,8.502409,-1.2344668,3.9919596,8.871906
1409523247982,-1.2850877,4.0503907,8.34918,-1.2311805,3.9948776,8.871051
1409523247983,-1.1593921,4.033033,8.215703,-1.2309208,3.9969652,8.870146
1409523247999,-0.92895025,3.9492357,8.329428,-1.2310196,3.9965177,8.870334
1409523248002,-0.75237787,3.9187095,8.643666,-1.2256016,3.988218,8.874819
1409523248014,-0.7906851,4.0174704,9.089587,-1.2097992,3.9658568,8.886999
1409523248030,-0.95708215,4.03004,9.404425,-1.1809285,3.934735,8.904698
1409523248047,-1.1791444,3.8971617,9.502586,-1.1449023,3.8866892,8.930467
1409523248048,-1.3491327,3.6583402,9.532514,-1.0987976,3.8244917,8.963052
1409523248064,-1.4820108,3.5380316,9.479841,-1.0503317,3.754556,8.998361
1409523248064,-1.6053122,3.5434184,9.229049,-1.0075719,3.6857724,9.031626
1409523248081,-1.5406688,3.4805708,8.7849245,-0.9761849,3.626989,9.05883
1409523248082,-1.299453,3.365649,8.66701,-0.9560063,3.5833154,9.0783415
1409523248096,-1.0767922,3.271078,8.943541,-0.9435799,3.5535612,9.091328
1409523248102,-0.985214,3.2573113,9.341577,-0.9332902,3.5279303,9.102366
1409523248116,-0.96306765,3.3093853,9.490616,-0.92149025,3.507932,9.111293
1409523248129,-0.8379706,3.4506433,9.313444,-0.905084,3.492169,9.118989
1409523248133,-0.60812724,3.518878,9.106346,-0.8870144,3.4840262,9.1238785
1409523248153,-0.49440265,3.4931402,8.91481,-0.87264436,3.4839253,9.125302
1409523248156,-0.6344634,3.4685998,8.71669,-0.8648749,3.489321,9.12398
1409523248163,-0.8870517,3.4757824,8.9279785,-0.86148125,3.4955642,9.121911
1409523248188,-0.985214,3.6182373,9.342773,-0.85953575,3.4995062,9.120584
1409523248192,-1.0133458,3.7792473,9.466674,-0.8556058,3.4972997,9.121799
1409523248194,-1.1474211,3.7702692,9.510367,-0.8502375,3.4879622,9.125875
1409523248214,-1.2156559,3.5422213,9.882666,-0.8433955,3.471238,9.132884
1409523248216,-1.3275849,3.426701,9.701904,-0.8395322,3.4485044,9.141849
1409523248231,-1.4939818,3.74094,9.388264,-0.84162116,3.4259317,9.150139
1409523248234,-1.4568717,4.032434,9.159617,-0.85391074,3.4099162,9.154982
1409523248250,-1.1324574,3.8911762,9.415796,-0.87896574,3.401037,9.155913
1409523248269,-0.7254431,3.6643257,10.073604,-0.90561855,3.3923166,9.15655
1409523248270,-0.47105917,3.4530375,10.476428,-0.9224499,3.3823154,9.15857
1409523248276,-0.48602295,3.2638955,10.685921,-0.9210484,3.3705382,9.163053
1409523248282,-0.7320272,3.1639376,10.658986,-0.9089018,3.3609478,9.167787
1409523248304,-1.2198458,3.1387985,10.335769,-0.90101856,3.3630717,9.167787
1409523248305,-1.5562311,3.0053217,10.589554,-0.9279263,3.3853538,9.156895
1409523248314,-1.7699136,2.717419,10.180145,-0.98754275,3.4257188,9.135623
1409523248341,-1.2850877,3.0232782,8.986037,-1.0782784,3.4830399,9.103633
1409523248342,-1.079785,3.7696705,6.849811,-1.1958545,3.554557,9.061205
1409523248343,-1.3946224,4.1599255,6.8330517,-1.3267938,3.6509252,9.004485
1409523248372,-1.7292122,4.1383777,7.6800003,-1.483096,3.7543838,8.9373045
1409523248374,-1.472434,4.1958385,8.631097,-1.6324162,3.8397555,8.874789
1409523248375,-0.9696517,4.458602,9.433155,-1.7293323,3.8990984,8.830449
1409523248382,-0.84814596,4.5860934,9.448717,-1.7750523,3.949962,8.798715
1409523248403,-1.2814964,4.2664676,9.016563,-1.8039912,4.0038924,8.768401
1409523248403,-1.721431,4.0916905,8.525154,-1.8517636,4.0580854,8.7334585
1409523248414,-1.9009962,4.2904096,8.291121,-1.9211744,4.115817,8.691348
1409523248432,-2.0201077,4.470573,8.256405,-2.0240307,4.1792283,8.637577
1409523248434,-2.1745336,4.3957543,8.653842,-2.146873,4.245229,8.575509
1409523248445,-1.8477252,4.425682,8.870518,-2.2771175,4.3058214,8.511464
1409523248467,-0.99419224,4.2155905,8.224083,-2.4033709,4.361923,8.4479475
1409523248468,-0.19273324,3.7229836,7.756615,-2.5226312,4.4169903,8.384326
1409523248474,0.077213004,3.300407,7.259818,-2.639417,4.463802,8.323361
1409523248483,-0.7104794,2.873042,7.313089,-2.7518084,4.5026236,8.265853
1409523248500,-2.1721394,2.4139538,6.0118403,-2.8761327,4.520421,8.21365
1409523248524,-3.1310172,3.4859576,4.787805,-3.0105708,4.5158525,8.16786
1409523248526,-5.151125,3.5889084,6.3470287,-3.1513033,4.4870477,8.130564
1409523248527,-6.009446,3.4225113,7.273585,-3.3155248,4.4107256,8.106983
1409523248555,-7.07726,3.5715504,10.423157,-3.490319,4.2935143,8.09653
1409523248556,-6.488885,5.205593,7.98167,-3.6601856,4.1382155,8.102383
1409523248557,-5.659294,4.739322,7.088034,-3.8211505,4.0027676,8.096113
1409523248563,-5.7682304,3.0226796,8.016984,-3.9695237,3.85225,8.097743
1409523248585,-5.410896,3.157952,8.36175,-4.140446,3.666648,8.098321
1409523248586,-5.275025,2.9586349,8.699332,-4.341022,3.4709015,8.079527
1409523248594,-5.5120506,1.9973627,9.854534,-4.503792,3.2766786,8.071531
1409523248619,-5.5587378,1.364695,11.282077,-4.6025705,3.0810232,8.092838
1409523248620,-5.4144874,1.614889,11.946468,-4.640913,2.8966556,8.138901
1409523248623,-5.046977,2.0171149,11.431715,-4.6137614,2.753855,8.2036495
1409523248654,-4.8781857,1.9758149,10.498574,-4.542076,2.6466289,8.2786045
1409523248655,-5.0146556,2.180519,9.479841,-4.461015,2.601086,8.336911
1409523248656,-4.8919525,2.6821043,8.309077,-4.3966055,2.617875,8.365822
1409523248663,-4.660912,3.2016463,7.0784574,-4.3589406,2.6938047,8.361425
1409523248686,-4.413711,3.7511156,5.723339,-4.339957,2.8143098,8.331556
1409523248687,-4.3766007,4.143166,4.708796,-4.3343887,2.9611506,8.283421
1409523248696,-4.462792,4.401141,4.162918,-4.3380437,3.1155024,8.224683
1409523248719,-4.4562078,4.5621514,3.9677908,-4.344038,3.2694128,8.161535
1409523248720,-4.4017396,4.5232453,4.336498,-4.3485208,3.404435,8.103739
1409523248723,-4.185663,4.5723267,5.085284,-4.3492246,3.5099125,8.058234
1409523248751,-3.98874,4.477157,5.9926867,-4.344786,3.579375,8.030025
1409523248752,-3.958214,4.302979,6.951565,-4.337583,3.6126194,8.019024
1409523248757,-4.1222167,4.2479124,7.6584525,-4.3331594,3.6159863,8.019897
1409523248763,-4.3317094,4.131195,8.247426,-4.3358583,3.600144,8.025564
1409523248784,-4.4035354,4.0054994,8.698733,-4.347923,3.5736244,8.030888
1409523248785,-4.24073,4.1120415,8.39467,-4.3677645,3.544138,8.033188
1409523248794,-4.282628,4.144363,8.067862,-4.3899407,3.5204234,8.0315275
1409523248818,-4.1772833,4.1096473,7.753622,-4.416355,3.5040655,8.024197
1409523248820,-3.9797618,4.0336313,7.347805,-4.4481764,3.4941347,8.01094
1409523248823,-3.933075,3.821146,7.133524,-4.484156,3.4882128,7.9934416
1409523248857,-4.317344,3.490746,7.305308,-4.5196705,3.4787765,7.977536
1409523248858,-4.979341,3.2154129,7.574057,-4.555802,3.4557467,7.9669867
1409523248860,-5.3528366,3.2495303,7.817667,-4.5928593,3.414067,7.9636784
1409523248874,-5.3079453,3.3626564,7.9278,-4.6300406,3.3641913,7.9633746
1409523248922,-5.203199,3.2860417,7.909844,-4.667852,3.305306,7.9659586
1409523248923,-5.368997,3.0238767,8.036138,-4.706512,3.244487,7.968214
1409523248923,-5.61141,3.0430303,8.171411,-4.800146,3.0760932,7.979138
1409523248924,-5.5270147,3.1591492,8.1797905,-4.800146,3.0760932,7.979138
1409523248933,-5.267244,3.1106665,8.192958,-4.800146,3.0760932,7.979138
1409523248946,-5.0864816,2.9939492,8.146272,-4.8223157,3.030169,7.9833403
1409523248947,-5.033809,2.9299042,8.143278,-4.8402085,2.987073,7.988752
1409523248948,-4.8680105,3.0041246,8.221688,-4.854733,2.948668,7.994205
1409523248962,-4.6112323,3.040636,8.194156,-4.8658676,2.9151947,7.9997096
1409523248963,-4.4298716,2.973,8.231265,-4.874774,2.8869116,8.004543
1409523248975,-4.338892,2.896984,8.461109,-4.8800993,2.8617415,8.010334
1409523248991,-4.2880154,2.9203274,8.395866,-4.883067,2.8372047,8.017251
1409523248996,-4.2957964,2.9747956,8.432977,-4.8889666,2.814518,8.021651
1409523249010,-4.408324,3.0310593,8.500613,-4.9028187,2.7951694,8.019962
1409523249014,-4.793192,2.9741971,8.537125,-4.9247828,2.7781367,8.01242
1409523249024,-5.171476,3.0250738,8.544308,-4.952071,2.7640045,8.000479
1409523249041,-5.171476,3.1609447,8.634688,-4.9854984,2.7531817,7.9834323
1409523249043,-4.9787426,3.268684,8.56825,-5.021849,2.7476842,7.962516
1409523249059,-4.9494133,3.3129766,8.448539,-5.055881,2.7486804,7.9406056
1409523249063,-5.2241483,3.193865,8.399458,-5.0844536,2.7519495,7.921205
1409523249075,-5.502474,3.165733,8.600571,-5.109138,2.7512252,7.9055586
1409523249091,-5.5150437,3.1639376,8.737639,-5.1282926,2.7474093,7.8944764
1409523249094,-5.499481,3.0478187,8.605359,-5.14314,2.7400184,7.8873825
1409523249107,-5.457583,2.949058,8.318654,-5.1509004,2.7312865,7.8853464
1409523249128,-5.374983,2.9951463,8.151658,-5.1529503,2.7248113,7.8862467
1409523249128,-5.242703,2.9538465,7.9547353,-5.149514,2.723962,7.888785
1409523249146,-5.2325277,2.7832594,7.8996687,-5.141687,2.728648,7.89227
1409523249149,-5.1247888,2.7389667,7.920019,-5.129847,2.7346723,7.897888
1409523249164,-5.020641,2.6102784,7.973889,-5.1155515,2.739558,7.9054627
1409523249165,-5.015254,2.5151088,8.20433,-5.1048274,2.7421906,7.9114804
1409523249182,-4.933253,2.4678235,8.416218,-5.0953856,2.7402384,7.918239
1409523249183,-4.8189297,2.3714569,8.380903,-5.088477,2.7353716,7.9243636
1409523249195,-4.747702,2.3080103,8.301894,-5.081488,2.7294827,7.930876
1409523249212,-4.7788267,2.3110032,8.22947,-5.0732217,2.7238433,7.938103
1409523249215,-4.900931,2.2942438,8.165425,-5.0634613,2.7204597,7.9454927
1409523249228,-5.0451818,2.3403323,7.9673047,-5.0518556,2.7193453,7.953258
1409523249246,-5.1259856,2.3786395,7.8248496,-5.0399823,2.718606,7.96104
1409523249247,-5.1421466,2.3750482,7.5800424,-5.0304756,2.7200418,7.96656
1409523249263,-5.1235914,2.4319103,7.442376,-5.024251,2.7235103,7.969302
1409523249264,-5.1140146,2.4774003,7.474099,-5.0236845,2.7302403,7.967356
1409523249282,-5.1846437,2.5037365,7.5920134,-5.0276084,2.7380295,7.9622064
1409523249283,-5.2660465,2.558803,7.6889787,-5.0335817,2.7446117,7.956165
1409523249297,-5.2660465,2.6192567,7.9032598,-5.039211,2.7500486,7.9507217
1409523249313,-5.231331,2.6797101,8.164826,-5.0455766,2.75505,7.944951
1409523249315,-5.146935,2.754529,8.274361,-5.0571156,2.7604065,7.93575
1409523249333,-4.993108,2.846706,8.2037325,-5.071297,2.7697337,7.9234405
1409523249358,-4.933253,2.8688521,7.9451585,-5.094621,2.7867887,7.9024706
1409523249359,-4.957793,2.896984,7.6883802,-5.130375,2.8129046,7.87002
1409523249362,-4.9374423,3.0753522,7.409456,-5.1799293,2.8485847,7.8245955
1409523249363,-4.969764,3.2543187,7.028179,-5.241201,2.8949769,7.76655
1409523249379,-5.0158525,3.3877954,6.59423,-5.3117566,2.9500916,7.697571
1409523249395,-4.8668137,3.6343982,6.3865333,-5.3898087,3.0109935,7.619336
1409523249395,-4.754286,3.7241807,6.4350157,-5.4716616,3.074605,7.5351257
1409523249409,-4.537012,3.7367504,6.825869,-5.5540338,3.1394572,7.447611
1409523249426,-4.4837413,3.4183214,7.1754227,-5.64037,3.2035623,7.35485
1409523249426,-4.164714,3.3117795,7.548918,-5.7375565,3.2663906,7.2513123
1409523249442,-4.0462008,3.0041246,7.9661074,-5.850088,3.3330426,7.130055
1409523249443,-4.11264,2.5905263,7.8625584,-5.989551,3.4041386,6.9790764
1409523249465,-4.31076,2.5803509,7.107786,-6.165018,3.4790359,6.7866974
1409523249465,-4.5100775,2.956839,5.9507885,-6.3783174,3.557523,6.5445766
1409523249477,-4.4921207,3.376423,4.9548006,-6.602803,3.6446288,6.268178
1409523249493,-4.5046906,3.602675,4.373608,-6.846167,3.7394087,5.942828
1409523249495,-4.6441526,3.554791,4.2718544,-7.0850835,3.8359985,5.590804
1409523249516,-5.0266266,3.2603042,4.19524,-7.3041396,3.9261832,5.23498
1409523249517,-5.4887075,2.867655,3.83192,-7.502485,4.004401,4.8834286
1409523249524,-6.356007,2.5067291,3.6445735,-7.689528,4.073814,4.521681
1409523249544,-6.3242836,2.9005754,3.110068,-7.870321,4.141322,4.1325426
1409523249545,-6.2542534,3.4572272,2.2469583,-8.040781,4.213134,3.7102191
1409523249563,-6.564901,4.0282445,1.2108675,-8.185278,4.3006744,3.2673833
1409523249572,-6.906075,4.365228,0.62129533,-8.304354,4.397279,2.805716
1409523249615,-7.593809,4.034828,0.44472298,-8.399711,4.48009,2.3545775
1409523249616,-8.071452,3.6086605,0.5781997,-8.479755,4.5247517,1.9469974
1409523249616,-8.200141,3.1507695,0.9660604,-8.54597,4.531252,1.6138506
1409523249617,-8.136096,2.96881,1.1330559,-8.597554,4.516935,1.360053
1409523249618,-7.740454,3.3925838,0.39683893,-8.635024,4.500517,1.1627989
1409523249623,-7.1227503,4.1557355,-0.62368953,-8.663782,4.4907703,0.9706903
1409523249641,-6.754043,4.6860514,-2.859874,-8.680249,4.4988666,0.76410395
1409523249643,-8.909423,4.417302,-2.818574,-8.690362,4.5157676,0.5058109
1409523249661,-10.69011,4.3239284,-2.7311857,-8.707653,4.5056796,0.21452056
1409523249665,-12.054806,4.185663,-2.9101522,-8.739212,4.44858,-0.081799164
1409523249676,-12.694057,3.9953241,-3.1986535,-8.787201,4.339749,-0.34938306
1409523249695,-12.531252,3.4859576,-3.6140475,-8.845851,4.1941004,-0.5751779
1409523249717,-12.148179,2.791639,-3.1794999,-9.017619,3.7322197,-0.9609645
1409523249718,-11.7303915,2.2936451,-2.1978772,-9.017619,3.7322197,-0.9609645
1409523249719,-11.000758,2.4277205,-0.96665895,-9.017619,3.7322197,-0.9609645
1409523249724,-10.334572,2.6120741,0.5315128,-9.063694,3.6291625,-0.9214295
1409523249753,-10.278907,2.4504654,1.8950106,-9.094498,3.5792646,-0.8058232
1409523249754,-10.632051,2.5390508,3.0376434,-9.1052475,3.5785117,-0.67757004
1409523249755,-12.978968,1.1935096,3.3596635,-9.095699,3.61571,-0.6044025
1409523249764,-14.905702,-0.3513491,0.29688102,-9.080296,3.650788,-0.6248077
1409523249777,-7.503428,5.74369,-0.9259575,-9.0641985,3.661634,-0.77661055
1409523249793,-7.4483614,5.6784477,-2.707842,-8.995011,3.7786465,-0.9909598
1409523249795,-8.253412,4.71538,-3.7618895,-8.900031,3.922214,-1.2554258
1409523249816,-8.115147,4.8344917,-4.2491093,-8.797718,4.048631,-1.5424322
1409523249817,-8.635885,5.255273,-4.833295,-8.697445,4.139494,-1.8410374
1409523249824,-8.688558,5.2582655,-5.1439424,-8.595374,4.208052,-2.1406164
1409523249853,-9.037513,4.785411,-4.3568487,-8.4921665,4.257475,-2.4346285
1409523249854,-9.345766,4.0467997,-0.98102415,-8.39217,4.294749,-2.7012925
1409523249855,-9.868899,2.815581,0.8002619,-8.301478,4.325607,-2.9231777
1409523249865,-10.38485,2.3068132,-0.05327099,-8.22553,4.3500104,-3.096525
1409523249884,-9.679757,3.210026,-1.6699557,-8.159734,4.3619027,-3.2500737
1409523249885,-8.399458,4.1222167,-3.7582982,-8.090316,4.3704424,-3.4082823
1409523249919,-6.7851677,4.703409,-8.224682,-7.995709,4.388395,-3.6029172
1409523249920,-5.6748567,4.9320555,-11.354502,-7.8521743,4.4111204,-3.880169
1409523249921,-5.7418942,5.0906715,-11.620856,-7.670509,4.42369,-4.214814
1409523249925,-6.4547677,5.1888337,-10.291476,-7.487235,4.423939,-4.5321593
1409523249965,-7.189788,4.9422307,-8.328231,-7.330554,4.418466,-4.786496
1409523249966,-6.7839704,4.76087,-6.0663085,-7.2142024,4.421303,-4.957595
1409523249967,-5.9370217,4.380192,-3.976769,-7.111758,4.450471,-5.07805
1409523249967,-6.3601966,3.5314474,-3.2603042,-7.004313,4.5024366,-5.180548
1409523249976,-7.065289,3.4805708,-2.0153193,-6.9019775,4.5490246,-5.276317
1409523249998,-7.2969284,4.021062,-0.789488,-6.821524,4.583384,-5.3506856
1409523249999,-7.3364325,4.7417164,-0.79726917,-6.7549367,4.6200166,-5.4034
1409523250004,-7.427412,4.8105497,-2.1625626,-6.6765823,4.6641903,-5.462504
1409523250031,-6.903082,4.334702,-3.9264908,-6.5623064,4.7016163,-5.567884
1409523250032,-5.523423,3.8989575,-5.7215433,-6.4035015,4.7180786,-5.7363167
1409523250036,-3.8456864,3.8235402,-7.120356,-6.2055445,4.7140875,-5.9530654
1409523250044,-3.127426,3.6302083,-7.3992805,-5.978295,4.694468,-6.196154
1409523250065,-3.2142158,3.5781345,-6.469133,-5.74259,4.6594224,-6.4407206
1409523250066,-3.2770636,3.7702692,-6.2003837,-5.512225,4.613894,-6.670662
1409523250078,-3.4835634,4.0539823,-7.4112515,-5.2774816,4.5624514,-6.892212
1409523250100,-3.5643678,3.9348705,-9.328408,-5.0343604,4.499142,-7.112197
1409523250101,-3.306991,3.4751837,-10.7673235,-4.769515,4.413572,-7.3445563
1409523250104,-2.991555,3.329736,-11.159973,-4.499635,4.3034806,-7.576524
1409523250125,-3.4584243,3.271078,-10.633847,-4.2727537,4.1865726,-7.7708836
1409523250126,-5.555745,3.0131028,-9.426571,-4.1305466,4.079853,-7.9034038
1409523250142,-6.9228344,3.208829,-7.9888525,-4.082592,3.9914274,-7.9731646
1409523250144,-5.4803276,3.74094,-7.498041,-4.0874157,3.918793,-8.006656
1409523250179,-4.1539397,3.8043866,-7.2867527,-4.0847354,3.8744783,-8.029557
1409523250202,-3.3500867,3.490746,-7.165846,-4.0783296,3.8447607,-8.047079
1409523250203,-3.1136594,2.9472623,-7.2849574,-4.0704393,3.81733,-8.064115
1409523250204,-3.1316159,3.1022868,-7.6644382,-4.0499296,3.777822,-8.092994
1409523250231,-3.1435869,3.6876693,-8.409634,-4.006341,3.7210524,-8.140847
1409523250232,-4.4262805,3.2734723,-8.875904,-3.9359908,3.6555173,-8.204607
1409523250233,-4.5633483,3.132813,-9.563639,-3.8561044,3.5818954,-8.274714
1409523250234,-4.1258082,3.1310172,-10.042479,-3.7712412,3.5036108,-8.34703
1409523250236,-3.4620156,3.140594,-10.672154,-3.6886506,3.4241312,-8.416624
1409523250244,-3.330933,2.9706059,-10.760141,-3.6150658,3.349371,-8.478408
1409523250265,-3.9911342,2.3720553,-9.801862,-3.5572243,3.2808983,-8.529492
1409523250274,-4.449025,2.082357,-8.063671,-3.5311413,3.2177231,-8.564328
1409523250276,-4.574721,2.384625,-7.0850415,-3.5451083,3.1687477,-8.57681
1409523250299,-4.5364137,2.385822,-6.71394,-3.597889,3.1362715,-8.566764
1409523250300,-4.687248,2.4774003,-6.9222355,-3.6819053,3.109755,-8.54069
1409523250304,-4.869208,2.6102784,-7.483676,-3.7829561,3.0882537,-8.504254
1409523250326,-4.7740383,2.7497406,-8.127716,-3.880593,3.0677965,-8.4675865
1409523250327,-4.7147818,2.9358897,-8.750807,-3.9607987,3.0454,-8.438484
1409523250341,-4.5657425,3.1693244,-9.263765,-4.0175185,3.021861,-8.420114
1409523250344,-4.004901,3.3566709,-9.299678,-4.0511384,2.9996533,-8.4119425
1409523250363,-2.2679076,3.0609868,-8.277354,-4.0644016,2.9821072,-8.411783
1409523250364,-4.3317094,2.5366566,-9.880272,-4.0581107,2.9708765,-8.418791
1409523250378,-5.6245785,2.681506,-11.44189,-4.056823,2.9512122,-8.426326
1409523250392,-6.067506,2.4408886,-10.144831,-4.065415,2.921004,-8.43271
1409523250410,-6.211756,2.1894975,-7.27957,-4.088502,2.8871152,-8.433217
1409523250411,-5.7179523,2.1404164,-4.947618,-4.14199,2.8683097,-8.413507
1409523250435,-5.2008047,2.034473,-5.170877,-4.2532353,2.8642888,-8.359202
1409523250436,-4.9877205,1.9997569,-6.8863225,-4.4227138,2.8577585,-8.273041
1409523250439,-4.785411,2.445677,-8.194754,-4.611518,2.836723,-8.17663
1409523250445,-4.4580035,3.0190883,-8.759786,-4.77786,2.8079062,-8.090618
1409523250465,-4.630985,3.0843303,-8.329428,-4.9109583,2.7834728,-8.01905
1409523250466,-5.185242,2.8880057,-7.651869,-5.0373507,2.768243,-7.945588
1409523250476,-5.6341553,2.778471,-7.4351935,-5.167616,2.7610102,-7.864033
1409523250492,-5.8065376,2.7281928,-7.4268136,-5.3098664,2.7552276,-7.7707453
1409523250515,-5.6521115,2.6749218,-7.5974007,-5.4609346,2.7434595,-7.6695538
1409523250516,-5.710171,2.5252843,-8.087015,-5.616299,2.7200184,-7.564988
1409523250517,-5.919065,2.3529017,-7.817667,-5.777145,2.6833384,-7.456184
1409523250525,-6.2865753,2.332551,-6.7749925,-5.9534183,2.6408315,-7.33166
1409523250553,-6.691195,2.4426842,-5.559935,-6.143331,2.5938983,-7.190383
1409523250553,-7.3220673,2.296638,-4.550779,-6.3597784,2.5459828,-7.017238
1409523250559,-7.7667904,1.7076644,-4.4244847,-6.5953493,2.4956496,-6.814944
1409523250599,-7.141305,1.5143325,-4.827309,-6.826535,2.440286,-6.604075
1409523250600,-6.6905966,1.7250223,-5.448006,-7.023971,2.387723,-6.4135046
1409523250601,-6.9348054,1.9997569,-5.21517,-7.184858,2.3429267,-6.249711
1409523250602,-7.6255326,1.9722236,-4.8464627,-7.3205647,2.30315,-6.1053452
1409523250604,-8.3629465,1.6795325,-5.1367598,-7.442328,2.2614098,-5.972283
1409523250632,-8.880095,1.4227544,-5.931635,-7.55956,2.209078,-5.843235
1409523250633,-9.072827,1.5143325,-6.597821,-7.6662374,2.1420753,-5.728068
1409523250636,-9.124901,1.6621746,-6.2500634,-7.7628307,2.0670433,-5.6246104
1409523250646,-9.153033,1.7256209,-5.089474,-7.863338,1.9913844,-5.511146
1409523250663,-9.126697,1.3688848,-4.5501804,-7.985272,1.9176633,-5.3598857
1409523250664,-8.771756,1.1258733,-3.9839516,-8.13199,1.8394332,-5.1631007
1409523250678,-8.541314,1.2545617,-3.6565444,-8.291442,1.7584774,-4.93256
1409523250701,-8.53892,1.1456255,-3.46022,-8.448412,1.6762525,-4.6888113
1409523250702,-8.548497,1.2904748,-3.2315738,-8.602281,1.5951167,-4.43021
1409523250704,-8.565855,1.685518,-3.3411086,-8.746025,1.5242639,-4.165826
1409523250727,-8.97287,2.1374235,-3.091513,-8.871857,1.4707226,-3.9112082
1409523250728,-9.697714,2.1559787,-2.594716,-8.981481,1.4313451,-3.6680558
1409523250738,-10.110115,1.958457,-2.332551,-9.08116,1.392871,-3.429704
1409523250770,-10.0903635,1.8986019,-2.1206641,-9.1729,1.3449728,-3.1967797
1409523250771,-9.300277,2.3720553,-2.730587,-9.25084,1.2931796,-2.9866395
1409523250772,-9.496002,0.8972271,-6.551733,-9.316433,1.2440265,-2.7976534
1409523250777,-9.688137,0.59017074,-6.154894,-9.363077,1.182164,-2.6656516
1409523250802,-9.458294,0.5446809,-3.7630866,-9.3978615,1.1181719,-2.569109
1409523250802,-9.284714,0.7009025,-2.0614076,-9.421326,1.0622283,-2.5061274
1409523250805,-9.230247,1.1348516,-1.2443863,-9.44587,1.0234599,-2.4286747
1409523250823,-9.287707,1.2258313,-1.1192893,-9.479339,1.0038354,-2.3032305
1409523250825,-9.505579,1.1923125,-1.5514427,-9.514653,0.9962448,-2.156211
1409523250841,-9.541492,1.4676456,-1.7208325,-9.54343,0.99037856,-2.0279276
1409523250860,-9.287707,1.7896658,-1.2084733,-9.56649,0.98964494,-1.9165789
1409523250860,-9.134478,1.6561891,-0.29029694,-9.582291,0.9939155,-1.8336344
1409523250873,-9.097368,1.4155718,0.33877954,-9.594906,0.9988874,-1.763627
1409523250876,-8.860941,1.2473791,0.2220622,-9.607477,0.9999133,-1.6932076
1409523250889,-8.367735,1.1731589,-0.5614403,-9.61923,0.9993115,-1.6254841
1409523250908,-7.8410106,1.1139023,-1.1444284,-9.626689,1.002216,-1.5788738
1409523250909,-7.518392,1.2731167,-1.0953473,-9.627817,1.0067954,-1.5690538
1409523250938,-7.138911,1.6783354,-0.8499416,-9.625259,1.0149524,-1.5794413
1409523250938,-6.1327477,3.3411086,-0.24301147,-9.615033,1.0278736,-1.632489
1409523250939,-7.81647,1.9512744,-0.11911154,-9.595145,1.054593,-1.7295647
1409523250966,-8.74961,0.7272388,-1.0127473,-9.564984,1.0729694,-1.8788799
1409523250966,-7.7757688,1.3042414,-2.3708582,-9.51973,1.0682474,-2.0985737
1409523250967,-6.3889275,1.929128,-3.6337996,-9.447759,1.0695275,-2.4013293
1409523251001,-6.1728506,2.2373815,-5.009867,-9.3411665,1.1026158,-2.7743967
1409523251002,-6.88752,2.3588872,-6.18123,-9.199667,1.1488473,-3.1963472
1409523251003,-6.806117,1.4927847,-5.393538,-9.030197,1.198535,-3.6317258
1409523251005,-6.7845693,1.1887212,-4.3760023,-8.83769,1.2372011,-4.06631
1409523251036,-6.421249,1.6184803,-4.1575313,-8.626598,1.2894053,-4.4821396
1409523251038,-5.9926867,2.1398177,-4.5238442,-8.39862,1.3783514,-4.871734
1409523251039,-6.033388,2.328361,-5.1702785,-8.147638,1.5086758,-5.2450237
1409523251072,-6.344036,2.2104468,-5.9861026,-7.861929,1.6715025,-5.6184115
1409523251073,-6.5924344,1.8309658,-6.427833,-7.5374017,1.8475016,-5.995385
1409523251074,-6.579865,1.4520833,-6.8067155,-7.1869793,2.0376484,-6.353397
1409523251077,-6.301539,0.89543146,-6.7749925,-6.8135247,2.2350569,-6.6896043
1409523251101,-5.653309,0.74519527,-6.827066,-6.434506,2.4308758,-6.98988
1409523251102,-4.6842556,2.236783,-8.616134,-6.0613,2.6166866,-7.251483
1409523251105,-6.55293,1.7830818,-8.713697,-5.688539,2.793858,-7.4836655
1409523251128,-7.331644,2.1763294,-7.6770077,-5.3538647,2.938025,-7.6729717
1409523251128,-6.885724,2.267309,-5.547964,-5.0694427,3.0787287,-7.809774
1409523251136,-5.5431757,2.078167,-6.009446,-4.8271127,3.2391615,-7.8979254
1409523251161,-4.847061,2.3666685,-6.701969,-4.5967216,3.4232814,-7.957488
1409523251162,-5.0385976,2.4007857,-6.995259,-4.364606,3.6022193,-8.009036
1409523251165,-5.7802014,2.0284874,-8.522161,-4.1180515,3.7524593,-8.07038
1409523251202,-6.2901664,1.3186066,-10.655395,-3.8690035,3.8471577,-8.148654
1409523251203,-5.683835,1.2659341,-12.346898,-3.6207244,3.8707519,-8.250941
1409523251203,-4.4328647,2.1033063,-12.364256,-3.3643076,3.8575406,-8.364878
1409523251205,-3.5595794,3.2872388,-10.574591,-3.1314397,3.85897,-8.454163
1409523251228,-2.5306711,4.0043025,-8.119935,-2.9017947,3.8955588,-8.519072
1409523251228,-1.4826094,4.470573,-6.7253127,-2.7443593,3.9571414,-8.542828
1409523251237,-0.6985083,5.241506,-6.882133,-2.6683242,4.0143423,-8.54023
1409523251263,-0.682946,6.229114,-8.161834,-2.628479,4.0482473,-8.536583
1409523251264,-1.2264298,6.6744356,-9.390059,-2.5650434,4.054055,-8.5531025
1409523251265,-1.7328035,6.2871737,-10.21965,-2.4491782,4.037989,-8.594565
1409523251291,-1.8579005,5.146935,-10.490194,-2.2865727,4.0134706,-8.650665
1409523251292,-1.7884687,4.160524,-9.790489,-2.099505,3.9823716,-8.712245
1409523251305,-1.5771804,4.171298,-8.919,-1.9154872,3.960113,-8.764634
1409523251306,-1.2563573,4.896741,-8.508394,-1.745286,3.9557765,-8.802057
1409523251322,-0.80445176,5.579687,-8.898649,-1.5927415,3.9674306,-8.825707
1409523251325,0.37708676,4.7159786,-9.8437605,-1.444917,3.9846098,-8.843386
1409523251343,0.25498247,4.6680946,-10.505757,-1.2846949,3.986204,-8.867367
1409523251345,-0.24839842,5.2037973,-10.005369,-1.1244713,3.974278,-8.894443
1409523251357,-0.3369839,5.4659624,-9.337387,-0.9757652,3.9565923,-8.919846
1409523251373,0.29209262,5.2702365,-8.846576,-0.82985157,3.9365194,-8.943465
1409523251392,1.0953473,5.1517234,-9.259575,-0.683589,3.906373,-8.969025
1409523251393,1.2952632,4.734534,-10.043676,-0.52238905,3.8694077,-8.995843
1409523251399,1.1893197,4.1892543,-10.810419,-0.33508858,3.8275077,-9.0226555
1409523251405,0.9576807,3.383007,-11.080365,-0.12329503,3.7844825,-9.046154
1409523251423,1.2276269,2.6485856,-10.153211,0.09337935,3.74528,-9.062812
1409523251425,1.714847,2.9508536,-10.018537,0.30112806,3.7193496,-9.068965
1409523251438,2.0033484,3.347094,-9.959281,0.49749464,3.702985,-9.0670185
1409523251459,1.8986019,3.4440591,-9.174581,0.68567604,3.6988149,-9.056433
1409523251460,0.99419224,3.714604,-8.250419,0.87207055,3.6992166,-9.040227
1409523251478,0.38187516,3.86484,-8.1881695,1.0623016,3.6977892,-9.020437
1409523251479,0.28191724,3.5488055,-9.09617,1.2471219,3.6852028,-9.001908
1409523251485,0.8050503,2.7275944,-9.892242,1.4264462,3.6524067,-8.988638
1409523251508,2.0398598,2.220622,-10.0269165,1.6208845,3.595935,-8.978439
1409523251509,3.2369606,2.3540988,-9.755175,1.8399291,3.525684,-8.96407
1409523251526,3.977966,2.6844985,-8.631696,2.0586765,3.4549892,-8.944008
1409523251527,4.530428,3.292626,-7.93618,2.2751606,3.3930783,-8.915215
1409523251537,5.058948,3.9199066,-8.306683,2.4670906,3.3451216,-8.882231
1409523251561,5.161899,3.855862,-8.664018,2.6373463,3.307457,-8.847346
1409523251562,4.540005,3.6607344,-9.287707,2.7922878,3.2709038,-8.813324
1409523251565,3.787627,3.3482912,-9.942521,2.9383883,3.2334874,-8.779567
1409523251590,3.472191,2.9735985,-9.675568,3.0823529,3.1952708,-8.744125
1409523251591,3.8546648,2.9317,-8.693945,3.2413118,3.1566486,-8.700569
1409523251606,4.540005,3.5116954,-8.197148,3.4146924,3.1226842,-8.646337
1409523251607,4.493318,3.6463692,-8.061875,3.610165,3.0952916,-8.576498
1409523251623,4.07134,3.2974143,-8.04751,3.8074214,3.0731432,-8.498805
1409523251642,3.7672763,2.759916,-8.860941,3.9977014,3.0575213,-8.416671
1409523251643,3.3626564,1.9979613,-9.012972,4.172107,3.0475073,-8.335262
1409523251645,3.2794578,1.8237832,-8.871715,4.3303547,3.038201,-8.257587
1409523251657,3.4835634,2.2098482,-8.695142,4.480155,3.0236483,-8.182677
1409523251671,3.8325183,2.6719291,-8.116942,4.6227636,3.0056784,-8.109647
1409523251688,4.7165775,3.4727895,-7.654263,4.7695723,2.9723368,-8.036589
1409523251689,5.481525,3.9384618,-7.536947,4.9200583,2.9231195,-7.9635897
1409523251708,5.7125654,3.8720226,-7.939771,5.0728517,2.8627448,-7.889318
1409523251710,5.3725886,3.2094274,-8.684368,5.2257233,2.8032172,-7.8105154
1409523251731,4.9703627,2.6725276,-10.06283,5.3709974,2.7544835,-7.72888
1409523251731,5.0810947,2.2511482,-10.129868,5.499703,2.7188091,-7.6506057
1409523251737,5.590461,2.4522612,-8.802282,5.616899,2.6896257,-7.5754066
1409523251753,6.011242,2.724003,-8.51857,5.7364564,2.6864784,-7.48641
1409523251776,5.7059813,2.2703018,-7.418434,5.840013,2.7053869,-7.3990216
1409523251776,5.331289,2.5246856,-6.9611416,5.924807,2.7363968,-7.319782
1409523251777,5.233126,2.5540147,-7.3711486,5.994384,2.774871,-7.2483053
1409523251785,5.2241483,2.441487,-7.343615,6.05822,2.8023891,-7.1843586
1409523251806,5.0020857,2.724003,-7.1742253,6.1316614,2.8100893,-7.118745
1409523251807,4.709395,3.031658,-6.559514,6.2125373,2.8056288,-7.0500484
1409523251828,4.932654,3.4171243,-5.9322333,6.2923613,2.7997324,-6.981267
1409523251829,5.3007627,4.068946,-6.0250087,6.3706856,2.794092,-6.912148
1409523251837,5.54138,4.2383356,-6.577471,6.433369,2.800932,-6.851058
1409523251861,5.5581393,3.6379895,-7.192182,6.475478,2.8325028,-6.7981997
1409523251862,5.6497173,3.3081882,-8.1558485,6.500474,2.8921156,-6.749067
1409523251866,5.916671,3.1370027,-8.154053,6.509146,2.9733922,-6.7052484
1409523251893,6.10282,2.9011738,-7.2711906,6.510307,3.0648715,-6.662801
1409523251893,5.2756233,2.4785974,-6.909666,6.511423,3.1528747,-6.620513
1409523251898,5.029619,2.9311013,-6.269217,6.506089,3.2410445,-6.583072
1409523251906,4.8536453,3.702633,-6.0363812,6.5041213,3.3183074,-6.546425
1409523251926,4.4460325,3.74094,-6.4565635,6.5021157,3.3794558,-6.517065
1409523251927,4.4568067,3.459023,-6.5241995,6.49224,3.4242835,-6.5034995
1409523251961,4.8344917,3.739743,-6.894104,6.478667,3.459571,-6.4983597
1409523251961,5.069722,4.3646297,-6.8970966,6.463257,3.493298,-6.495655
1409523251962,5.2875943,4.7494974,-7.061698,6.4421268,3.5297132,-6.4969673
1409523251966,5.429451,4.6896424,-7.526173,6.4100986,3.5689762,-6.507186
1409523251991,5.769428,4.2820296,-8.030751,6.3699293,3.6147065,-6.521374
1409523251991,6.047155,4.280833,-8.176199,6.317719,3.6727686,-6.5396967
1409523251999,5.719149,4.460996,-7.482479,6.257823,3.7481475,-6.554497
1409523252006,5.3324857,5.0798974,-6.3422403,6.1906257,3.8382924,-6.566131
1409523252028,5.2684407,5.568913,-6.6492968,6.117587,3.9336677,-6.578133
1409523252028,5.249287,4.9996915,-7.294534,6.0404267,4.016505,-6.599344
1409523252037,5.337274,4.550779,-7.1071877,5.972018,4.07133,-6.6279435
1409523252055,5.1517234,5.085284,-6.2554507,5.925219,4.1142387,-6.643435
1409523252073,5.092467,6.0022635,-5.631162,5.89041,4.155295,-6.6488333
1409523252074,5.1505265,5.959168,-5.5096564,5.8692365,4.2066627,-6.6352453
1409523252087,5.1613,5.1265845,-5.771223,5.8552375,4.2620254,-6.612245
1409523252088,5.1050367,4.406528,-4.88896,5.8407836,4.316829,-6.5894303
1409523252112,5.253477,3.618836,-3.244742,5.823167,4.3790245,-6.5639405
1409523252112,5.657499,3.3087866,-3.70802,5.801858,4.452504,-6.533305
1409523252121,5.677251,3.5751417,-3.8857894,5.7776656,4.5283337,-6.50255
1409523252143,5.525219,3.5859156,-0.504578,5.754928,4.6127744,-6.463241
1409523252144,6.0280013,4.214992,-1.2599486,5.781085,4.7050247,-6.372767
1409523252146,6.501455,4.368221,-3.918111,5.8808823,4.792603,-6.2142253
1409523252177,6.242881,2.9759927,-6.089652,6.0443873,4.859186,-6.002004
1409523252178,6.3524156,1.9829975,-7.289147,6.280098,4.8965645,-5.723145
1409523252179,6.895301,1.9973627,-7.7679873,6.5713673,4.9174814,-5.3671155
1409523252186,8.058285,2.1296425,-9.942521,6.8533587,4.947407,-4.972425
1409523252205,8.523956,2.3624785,-11.449073,7.065249,4.976485,-4.6354337
1409523252206,9.700109,3.2279825,-10.927136,7.2183,5.0321093,-4.3294806
1409523252220,10.344747,3.8402996,-10.463859,7.304481,5.107863,-4.0895844
1409523252239,9.045893,3.0783448,-9.245809,7.3222666,5.16931,-3.9790778
1409523252240,7.177218,1.7046716,-8.258201,7.248015,5.2154446,-4.0541143
1409523252257,5.858013,0.6380547,-6.543952,7.0760036,5.2740784,-4.276061
1409523252258,5.777807,0.08379706,-4.2383356,6.841713,5.3724318,-4.5275087
1409523252266,6.1369376,-0.42437226,-2.3660698,6.5899086,5.495557,-4.747877
1409523252287,6.3129115,-1.0313023,-1.2779051,6.3404036,5.67217,-4.8781333
1409523252287,6.002862,-0.92416185,0.78170687,6.1059685,5.880172,-4.930627
1409523252308,5.373187,0.41060558,2.7712884,5.875589,6.107566,-4.934113
1409523252309,5.579687,1.9045875,2.134431,5.62762,6.3506985,-4.916194
1409523252318,6.136339,2.5498247,1.174356,5.3719344,6.6044054,-4.867709
1409523252341,3.4302924,1.2437878,0.39444473,5.178825,6.876865,-4.696689
1409523252342,1.2186487,0.43993455,1.073201,5.0749545,7.178412,-4.345757
1409523252346,0.46447513,0.48123455,1.9381063,5.0395722,7.478113,-3.853691
1409523252382,0.7098808,1.0696096,2.4756045,8.745666,2.83535,-3.4124029
1409523252383,1.0576386,1.4215573,2.3199813,8.865626,3.0432057,-2.8827112
1409523252384,1.3383588,1.6454151,2.6737247,8.9442,3.2906888,-2.3115041
1409523252387,2.1625626,2.9574378,4.5621514,8.995563,3.572045,-1.5782105
1409523252411,5.1439424,13.257294,12.136209,8.927251,4.046805,-0.31299797
1409523252414,15.061923,19.608511,19.608511,7.6351666,5.6833215,2.3610303
1409523252421,19.607914,19.608511,17.833212,7.2824,5.856235,2.9734719
1409523252444,5.312135,19.487005,-1.9153614,6.8041825,6.0562234,3.6325827
1409523252445,3.702633,10.205285,-5.5096564,5.3652687,7.1857524,3.9685316
1409523252446,8.166023,2.4115596,-5.281609,5.085115,7.7837257,3.1185935
1409523252477,8.987235,0.0017956513,-6.6002154,5.648106,7.6616907,2.3596184
1409523252478,7.8625584,0.075417355,-9.278131,6.5629983,7.118587,1.5566555
1409523252480,5.011064,2.1649568,-17.295713,7.307137,6.5192723,0.5246384
1409523252486,-1.6059108,3.0142999,-19.608511,7.5617213,6.0826397,-1.4114637
1409523252515,-6.9228344,2.9137435,-19.608511,7.0229874,5.828696,-3.5880816
1409523252516,-5.4420204,3.678691,-19.46067,5.830868,5.534245,-5.6163588
1409523252518,-2.1751323,4.203021,-13.8402815,4.60725,5.1007776,-6.9946876
1409523252545,-0.78769237,5.7520695,-8.197746,3.8429747,4.8917236,-7.5810947
1409523252546,-1.3102269,8.452729,-5.2301335,3.0571516,5.0683355,-7.8189654
1409523252547,-2.9825768,11.993155,-2.3403323,2.1425245,5.5779643,-7.776008
1409523252578,-4.335301,14.830284,0.36631286,1.2892212,6.3979206,-7.319486
1409523252578,-4.2341456,14.759056,2.0033484,0.58539456,7.34672,-6.4694195
1409523252579,-2.9771898,11.724405,2.0254946,0.09659078,8.121472,-5.495702
1409523252586,-1.9177556,9.024344,1.4532804,-0.17407471,8.588292,-4.7308908
1409523252607,-1.270124,7.8170686,1.0301052,-0.29691228,8.853582,-4.206693
1409523252608,-1.0259154,7.73806,0.65062433,-0.33914983,9.03351,-3.8014529
1409523252618,-1.3102269,8.401254,0.26276365,-0.36917993,9.176666,-3.4384468
1409523252640,-1.7357962,9.317036,-0.29807812,-0.45525548,9.293841,-3.0963888
1409523252641,-1.9111716,10.056246,-0.6955156,-0.59644383,9.379611,-2.7995577
1409523252647,-1.8644845,10.375273,-0.80205756,-0.72792935,9.43955,-2.556452
1409523252675,-1.8375498,10.301651,-0.66139823,-0.85707396,9.487667,-2.3280928
1409523252677,-1.5508442,10.334572,-0.89902276,-0.9520114,9.528628,-2.1140714
1409523252679,-1.292869,10.317812,-1.1252748,-1.0022029,9.557987,-1.9521488
1409523252688,-1.2641385,10.180145,-1.1665748,-1.0184551,9.578631,-1.8392727
1409523252712,-1.2940661,10.022128,-1.1510124,-1.033644,9.593383,-1.7518522
1409523252713,-1.2659341,10.048465,-1.4197617,-1.0563995,9.604016,-1.6784663
1409523252721,-1.1935096,10.135254,-1.6705543,-1.0743483,9.608156,-1.6430168
1409523252746,-1.1504139,10.208876,-1.9309237,-1.0793571,9.608831,-1.6357752
1409523252747,-1.0073603,10.232818,-2.2385786,-1.0792203,9.6050825,-1.6577251
1409523252748,-0.92296475,10.089765,-2.421735,-1.0634198,9.597558,-1.7106817
1409523252774,-0.90979666,9.89763,-2.4911668,-1.0437722,9.586941,-1.7808623
1409523252775,-0.8607155,9.874885,-2.533664,-1.0296859,9.574681,-1.8535324
1409523252780,-0.789488,10.041881,-2.5079262,-1.0141612,9.563268,-1.9198464
1409523252787,-0.7032967,10.13286,-2.3840263,-0.9911282,9.5556965,-1.9689339
1409523252808,-0.46447513,10.214862,-2.2822728,-0.96044725,9.553644,-1.9939393
1409523252808,-0.36990416,10.334572,-2.0679917,-0.9135165,9.556369,-2.0029216
1409523252818,-0.5554548,10.363302,-1.8375498,-0.85528207,9.565133,-1.9867321
1409523252843,-0.7727286,10.386645,-1.6035166,-0.8300223,9.575588,-1.9466882
1409523252844,-0.9403227,10.363302,-1.4634558,-0.8333421,9.58688,-1.888841
1409523252847,-1.0289081,10.318411,-1.2886791,-0.8542019,9.597606,-1.8239251
1409523252874,-1.1599907,10.225636,-1.1498153,-0.8810899,9.608913,-1.7500901
1409523252875,-1.359308,10.070012,-0.93014735,-0.92040426,9.619011,-1.6726938
1409523252879,-1.7220296,9.932345,-0.641646,-0.97167355,9.628416,-1.5874135
1409523252888,-2.1733365,9.8515415,-0.55006784,-1.0611746,9.635831,-1.4815631
1409523252913,-2.5719712,9.862315,-0.6691794,-1.1849475,9.636571,-1.3794217
1409523252913,-2.8461072,9.872491,-0.79128367,-1.3312142,9.628399,-1.3008386
1409523252919,-2.9652188,9.830592,-0.88645315,-1.483364,9.613879,-1.2423064
1409523252941,-3.031658,9.677961,-1.0043676,-1.6280096,9.596344,-1.1959099
1409523252943,-2.9963434,9.4535055,-1.1174936,-1.7635347,9.5760145,-1.1663067
1409523252947,-2.9334955,9.376292,-1.2641385,-1.8869907,9.553998,-1.1536115
1409523252974,-2.7814639,9.514558,-1.3557167,-1.9955564,9.531744,-1.1549904
1409523252975,-2.7814639,9.52174,-1.3814543,-2.0760932,9.513802,-1.1609715
1409523252979,-2.8473043,9.6288805,-1.2108675,-2.1500993,9.496735,-1.1659757
1409523252988,-3.0585926,9.434352,-0.84694886,-2.2244358,9.481557,-1.1499445
1409523253006,-3.3081882,9.279925,-0.5518635,-2.315638,9.465614,-1.1001731
1409523253008,-3.3063924,8.995614,-0.061052144,-2.4231546,9.44675,-1.0284207
1409523253021,-3.1028855,8.8328085,0.095768064,-2.5227685,9.431687,-0.92159694
1409523253040,-3.032855,8.715493,0.12389994,-2.5971088,9.421505,-0.81279
1409523253042,-2.8963854,8.752603,0.11192893,-2.653746,9.413698,-0.7143629
1409523253048,-2.8939912,8.643666,0.1388637,-2.6915605,9.408771,-0.6332009
1409523253084,-2.9161377,8.549096,0.23523031,-2.7302415,9.402004,-0.5643506
1409523253085,-3.0017304,8.656835,0.23104046,-2.7706125,9.394026,-0.4963836
1409523253086,-3.2279825,9.01776,0.049081136,-2.8122628,9.384546,-0.43800184
1409523253090,-3.4763808,9.500791,-0.1592144,-2.8610044,9.37133,-0.40400457
1409523253146,-3.7020345,9.643246,-0.39743748,-2.9130685,9.355681,-0.3945371
1409523253149,-3.8426938,9.490616,-0.5662287,-2.9772341,9.335085,-0.4033061
1409523253157,-3.5009215,9.2907,-0.53330845,-3.0489726,9.310879,-0.42624184
1409523253159,-3.5170822,9.210494,-0.41599256,-3.0875704,9.297449,-0.44129592
1409523253160,-3.3327289,9.389461,-0.2789245,-3.1255383,9.284974,-0.43660805
1409523253161,-3.4554317,8.857349,-0.11911154,-3.1405833,9.280984,-0.4129241
1409523253207,-3.8911762,7.878121,0.035314474,-3.1845965,9.267578,-0.3751704
1409523253208,-3.342904,8.280945,0.34476504,-3.2964756,9.230224,-0.32659256
1409523253209,-2.7269957,9.441534,0.676362,-3.3332682,9.21931,-0.25305238
1409523253210,-2.6234465,10.065224,0.9708488,-3.2617483,9.247152,-0.14684594
1409523253211,-2.861071,9.75697,0.9451111,-3.1622255,9.282788,-0.023761984
1409523253212,-3.21661,9.128492,0.79726917,-3.1157146,9.29818,0.08103695
1409523253219,-3.1256304,8.784326,0.8499416,-3.135034,9.290739,0.15533231
1409523253240,-3.086126,8.91062,0.8714894,-3.151209,9.283855,0.22428632
1409523253242,-3.277662,9.289502,0.9115923,-3.1493664,9.28276,0.28679946
1409523253247,-3.590704,9.569624,0.94570965,-3.151617,9.279957,0.34655017
1409523253266,-3.8744168,9.775525,1.0049661,-3.178216,9.268505,0.40513623
1409523253267,-4.0336313,9.922171,1.049259,-3.223062,9.250511,0.4586071
1409523253285,-4.064756,9.854534,1.0791864,-3.2737298,9.230024,0.50966334
1409523253287,-3.9223008,9.5492735,1.1306617,-3.3216045,9.210071,0.55849344
1409523253302,-3.8367083,9.121908,1.1737574,-3.3601258,9.192909,0.6085741
1409523253324,-3.6421793,8.813655,1.1947067,-3.4017644,9.174127,0.6586299
1409523253325,-3.537433,8.855554,1.1917139,-3.433096,9.158768,0.70798314
1409523253328,-3.6152446,9.178771,1.13964,-3.449304,9.148849,0.75582975
1409523253356,-3.7487214,9.412206,1.01574,-3.460251,9.141996,0.7880039
1409523253357,-3.8588545,9.436148,0.8265981,-3.475655,9.13487,0.8027321
1409523253359,-3.9199066,9.295488,0.6488287,-3.5003264,9.126027,0.7960817
1409523253367,-3.8666358,9.184756,0.504578,-3.5327063,9.115471,0.7736738
1409523253384,-3.767875,9.233239,0.3669114,-3.560351,9.107347,0.7419874
1409523253403,-3.6912606,9.357738,0.3321955,-3.5741627,9.105073,0.7024071
1409523253404,-3.603872,9.425972,0.320823,-3.5749516,9.107613,0.6644713
1409523253424,-3.5847185,9.411607,0.28072014,-3.5666585,9.113447,0.628036
1409523253425,-3.6176388,9.303269,0.18974048,-3.559606,9.118583,0.5924863
1409523253427,-3.53863,9.264363,0.06703765,-3.5618,9.120359,0.55044717
1409523253460,-3.4386723,9.26197,-0.030526072,-3.558772,9.124455,0.4998238
1409523253460,-3.435081,9.270947,-0.048482586,-3.5458467,9.1323395,0.44469053
1409523253461,-3.4793737,9.270947,-0.034117375,-3.5331788,9.139581,0.3938459
1409523253467,-3.4859576,9.202114,-0.032920275,-3.5261297,9.144118,0.3491782
1409523253483,-3.4434607,9.139266,-0.08559271,-3.5213943,9.147377,0.30933163
1409523253499,-3.3129766,9.161413,-0.13227965,-3.5150993,9.151119,0.26741788
1409523253500,-3.1232362,9.378687,-0.15741876,-3.4960108,9.159574,0.22480975
1409523253520,-3.068768,9.585785,-0.1933318,-3.453738,9.176517,0.18342327
1409523253521,-3.1316159,9.584588,-0.22146365,-3.404722,9.19554,0.14239304
1409523253527,-3.2028434,9.529521,-0.2657564,-3.3691516,9.209157,0.103126615
1409523253555,-3.108871,9.518747,-0.3184288,-3.3463159,9.2178335,0.06418577
1409523253556,-2.983774,9.461885,-0.38067806,-3.3160174,9.228968,0.02460165
1409523253561,-2.8377275,9.385271,-0.40402153,-3.2787528,9.242286,-0.01786825
1409523253568,-2.871845,9.43914,-0.40222588,-3.2343667,9.257766,-0.05516221
1409523253590,-2.914342,9.586982,-0.3537433,-3.1969402,9.270501,-0.0883157
1409523253591,-2.9813797,9.680356,-0.27234045,-3.1630383,9.281865,-0.11218291
1409523253599,-3.0615854,9.658808,-0.18555063,-3.1356924,9.290968,-0.12555501
1409523253619,-3.1238346,9.606734,-0.077811554,-3.1190956,9.296495,-0.12961102
1409523253640,-3.1262288,9.523536,0.015562311,-3.1111622,9.299239,-0.12318039
1409523253641,-3.1519666,9.405023,0.091578215,-3.1059904,9.301152,-0.108724
1409523253642,-3.1878796,9.347562,0.1328782,-3.1068735,9.301061,-0.089330725
1409523253648,-3.1621418,9.361927,0.15203181,-3.112187,9.299464,-0.06830577
1409523253666,-3.145981,9.496601,0.14963761,-3.114285,9.298886,-0.0481874
1409523253667,-3.192668,9.569624,0.12629414,-3.1097202,9.300489,-0.030296646
1409523253683,-3.3123782,9.509769,0.11791443,-3.1068876,9.301472,-0.016388241
1409523253700,-3.4440591,9.396643,0.09816227,-3.1184144,9.297626,-0.005303075
1409523253700,-3.5248635,9.32362,0.092176765,-3.1464589,9.288174,0.002662205
1409523253714,-3.5811272,9.237429,0.10534488,-3.179937,9.276761,0.010157237
1409523253719,-3.5541923,9.188348,0.12689269,-3.2172282,9.263882,0.018262217
1409523253731,-3.5302503,9.153033,0.19632454,-3.247855,9.25316,0.029007776
1409523253750,-3.465607,9.188946,0.26396075,-3.2736325,9.244002,0.046371292
1409523253751,-3.366846,9.279327,0.37948096,-3.2894917,9.238233,0.068575524
1409523253765,-3.2531216,9.307459,0.4758476,-3.291513,9.237221,0.100253984
1409523253767,-3.2273839,9.355942,0.54408234,-3.2820718,9.2400875,0.13842209
1409523253782,-3.2160115,9.349358,0.59256494,-3.2702644,9.243584,0.17864801
1409523253799,-3.1675289,9.279327,0.5943606,-3.2597334,9.246434,0.21902415
1409523253801,-3.0771477,9.168595,0.56443304,-3.2467465,9.250153,0.2524211
1409523253815,-2.9909565,9.091981,0.5129577,-3.2289553,9.255644,0.2780749
1409523253820,-2.8496985,9.132683,0.44532153,-3.2057264,9.263203,0.29460284
1409523253831,-2.7012582,9.289502,0.33159694,-3.1693416,9.275484,0.30178368
1409523253850,-2.5917234,9.46009,0.17417817,-3.1178784,9.293087,0.29620296
1409523253850,-2.6396074,9.484032,0.050876785,-3.05621,9.314234,0.27392244
1409523253871,-2.8191724,9.355942,-0.050876785,-3.0065284,9.33126,0.24245793
1409523253871,-3.0107086,9.198523,-0.14305355,-2.9843078,9.339393,0.20008652
1409523253879,-3.0131028,9.144653,-0.34356794,-2.987785,9.339229,0.14940847
1409523253899,-2.878429,9.15842,-0.58777654,-2.9889202,9.339688,0.08338147
1409523253900,-2.7742813,9.190742,-0.7954735,-2.9718232,9.345516,-9.179916E-4
1409523253917,-2.7168205,9.267955,-1.0564415,-2.942835,9.354171,-0.09808102
1409523253935,-2.712032,9.181764,-1.1785458,-2.908781,9.362949,-0.2111974
1409523253936,-2.6761189,9.150639,-1.240795,-2.879746,9.368615,-0.326376
1409523253954,-2.463035,9.314642,-1.5107412,-2.789149,9.390574,-0.4562325
1409523253955,-2.1559787,9.60015,-1.9093759,-2.684932,9.413261,-0.59335166
1409523253959,-1.9482816,9.709685,-2.2062569,-2.5634067,9.436699,-0.7402853
1409523253969,-1.8016368,9.661801,-2.4426842,-2.4317172,9.458171,-0.89450324
1409523253986,-1.5640123,9.689933,-2.669535,-2.2990723,9.47544,-1.0491563
1409523253988,-1.3461399,9.821015,-2.802413,-2.1648598,9.489319,-1.198587
1409523254001,-1.1414356,9.931149,-2.8502972,-2.0308013,9.5006895,-1.3353461
1409523254032,-1.0702082,10.023325,-2.8880057,-1.8988813,9.510446,-1.4546793
1409523254033,-1.0181342,10.170568,-2.873042,-1.7707355,9.51793,-1.5632956
1409523254034,-0.9947908,10.295666,-2.8904,-1.6533669,9.52404,-1.6521009
1409523254062,-1.1540052,10.192117,-2.8335378,-1.5493153,9.528809,-1.7238959
1409523254062,-1.3401544,9.901221,-2.7808652,-1.4641955,9.532159,-1.7789053
1409523254063,-1.5855601,9.627684,-2.6126726,-1.3999645,9.533717,-1.8217455
1409523254068,-1.8273745,9.555858,-2.2936451,-1.3552458,9.533515,-1.8562919
1409523254081,-1.9997569,9.580399,-2.0895395,-1.3252167,9.532612,-1.8824207
1409523254099,-2.1763294,9.652225,-2.0033484,-1.3026632,9.531558,-1.9033775
1409523254101,-2.2511482,9.603742,-2.0614076,-1.2849379,9.529485,-1.9256823
1409523254111,-2.2990322,9.419388,-2.223615,-1.2669214,9.525775,-1.9557384
1409523254129,-2.4247277,9.153033,-2.508525,-1.2457767,9.520178,-1.9961469
1409523254129,-2.4797945,9.258977,-2.4666264,-1.2217025,9.512359,-2.047651
1409523254146,-2.4498668,9.403826,-2.1996727,-1.194301,9.504309,-2.100505
1409523254148,-2.2703018,9.349358,-2.1308396,-1.1629455,9.497948,-2.1463726
1409523254171,-2.124854,9.455301,-2.1380222,-1.1255645,9.493071,-2.187489
1409523254172,-2.0147207,9.67856,-1.9141643,-1.0870477,9.488641,-2.2258525
1409523254180,-1.9111716,9.681553,-1.9177556,-1.0428181,9.48526,-2.2611341
1409523254208,-1.7770962,9.471462,-2.2679076,-0.99768156,9.481828,-2.295635
1409523254209,-1.7393875,9.24102,-2.0991163,-0.9522376,9.477292,-2.3333647
1409523254210,-1.9512744,8.789713,-2.0913353,-0.9061381,9.473718,-2.3660114
1409523254239,-1.929128,8.932767,-2.1829133,-0.8601231,9.471417,-2.392246
1409523254240,-1.6843209,9.669582,-3.2249897,-0.80838853,9.471546,-2.4097133
1409523254241,-0.85652566,10.614694,-4.433463,-0.74937576,9.469664,-2.4360516
1409523254248,-0.15981296,10.901998,-3.6062663,-0.66356593,9.466718,-2.4721115
1409523254267,0.1592144,10.505158,-2.8502972,-0.5555869,9.470944,-2.4825246
1409523254268,0.4950012,10.311827,-2.5611973,-0.44862172,9.481098,-2.4653409
1409523254285,0.5093664,10.262147,-2.1122844,-0.36248103,9.494851,-2.426271
1409523254288,0.4201824,10.096349,-1.9069817,-0.30713177,9.511562,-2.3677537
1409523254299,0.31603462,9.993997,-1.6430209,-0.2801891,9.529135,-2.2994564
1409523254315,0.1412579,9.826403,-1.3634979,-0.27606705,9.546767,-2.2256293
1409523254333,0.0023942017,9.617508,-1.2976574,-0.28222618,9.563883,-2.1500928
1409523254336,0.0688333,9.580399,-1.3575124,-0.30073038,9.579118,-2.078571
1409523254354,0.19572599,9.622296,-1.4652514,-0.3202546,9.592427,-2.0132499
1409523254354,0.3274071,9.845556,-1.5753847,-0.3313254,9.604389,-1.9535377
1409523254359,0.52732295,10.093356,-1.7004818,-0.3296043,9.615557,-1.8981092
1409523254368,0.6356605,10.172364,-1.7735049,-0.31458354,9.626187,-1.8460625
1409523254385,0.7164649,10.290877,-1.6525977,-0.29002312,9.636209,-1.7971585
1409523254388,0.7625532,10.052654,-1.6160861,-0.26012102,9.646126,-1.7478487
1409523254423,0.8319851,10.015544,-1.4927847,-0.22952509,9.655425,-1.7001407
1409523254423,0.87208796,9.929353,-1.3664906,-0.19863398,9.664232,-1.6533579
1409523254424,0.8265981,10.053253,-1.1258733,-0.16895956,9.672206,-1.6094364
1409523254428,0.7858967,9.990405,-0.9804256,-0.1416998,9.679527,-1.567511
1409523254454,0.7266402,9.949105,-0.97025025,-0.117553785,9.685578,-1.5317221
1409523254455,0.6787562,10.177752,-0.8583213,-0.09652444,9.689737,-1.506673
1409523254462,0.45489833,10.121488,-0.9708488,-0.07793664,9.692502,-1.4898733
1409523254483,0.1316811,9.960478,-1.2324153,-0.06212211,9.694269,-1.4790871
1409523254484,-0.06464344,9.861118,-1.436521,-0.052468438,9.694192,-1.4799662
1409523254497,-0.19572599,9.825804,-1.5556326,-0.044932198,9.692635,-1.4903777
1409523254500,-0.3250129,9.876082,-1.6621746,-0.036688395,9.690193,-1.5063947
1409523254511,-0.38965634,9.941922,-1.7022774,-0.027056057,9.6871805,-1.5258383
1409523254533,-0.47285482,9.89763,-1.7118542,-0.016513329,9.683887,-1.546756
1409523254534,-0.516549,9.861118,-1.6813282,-0.006872516,9.680398,-1.5685122
1409523254547,-0.58298814,9.860519,-1.638831,0.0012324644,9.6769,-1.5899665
1409523254548,-0.59974754,9.820416,-1.6017209,0.007839608,9.673484,-1.6106071
1409523254571,-0.60214174,9.807249,-1.590947,0.01292524,9.670167,-1.6303672
1409523254572,-0.59017074,9.865308,-1.6609775,0.016433248,9.666978,-1.649147
1409523254582,-0.53689975,9.940725,-1.7477672,0.019248014,9.663914,-1.6669717
1409523254600,-0.4914099,9.91439,-1.857302,0.02228256,9.661047,-1.6834824
1409523254601,-0.47644615,9.885659,-1.9548657,0.024973113,9.65838,-1.6986706
1409523254617,-0.4961983,9.8916445,-2.0763714,0.025960663,9.656033,-1.7119527
1409523254636,-0.53689975,9.901819,-2.1517887,0.025712242,9.653775,-1.7246366
1409523254637,-0.557849,9.865308,-2.168548,0.022718027,9.652151,-1.7337531
1409523254642,-0.47465047,9.837176,-2.0649989,0.017395664,9.651338,-1.7383273
1409523254649,-0.39324763,9.829993,-1.899799,0.011752689,9.651485,-1.7375431
1409523254662,-0.29927522,9.827001,-1.8022354,0.00617752,9.652455,-1.7321827
1409523254678,-0.20470424,9.811439,-1.7699136,7.493571E-4,9.6539545,-1.7238117
1409523254680,-0.12030864,9.800066,-1.8189948,-0.0043532266,9.655574,-1.714723
1409523254697,-0.08439561,9.824607,-1.7729063,-0.008360709,9.65708,-1.706211
1409523254720,-0.065242,9.845556,-1.7603368,-0.011748598,9.658704,-1.6969761
1409523254721,-0.026934769,9.874885,-1.8010383,-0.013964812,9.660394,-1.6872976
1409523254722,0.039504327,9.916783,-1.7250223,-0.014796003,9.661896,-1.67867
1409523254729,0.06284779,9.878476,-1.7417817,-0.01380933,9.663342,-1.6703266
1409523254751,0.055066638,9.800066,-1.7597382,-0.011293547,9.66448,-1.6637653
1409523254752,0.017956512,9.752781,-1.769315,-0.008078385,9.665206,-1.6595626
1409523254762,-0.045489833,9.804854,-1.7890673,-0.004739596,9.665607,-1.6572257
1409523254786,-0.051475335,9.813833,-1.7812861,-0.0016042204,9.665879,-1.6556562
1409523254787,-0.06284779,9.818622,-1.7621324,0.0029752164,9.665967,-1.6551378
1409523254789,-0.089184016,9.855731,-1.7495629,0.0085807815,9.66583,-1.6559228
1409523254800,-0.11911154,9.874885,-1.7340006,0.014243922,9.6653595,-1.6586274
1409523254822,-0.12090719,9.871892,-1.7753005,0.019955285,9.66447,-1.6637355
1409523254823,-0.090381116,9.849746,-1.8243817,0.025855158,9.663125,-1.6714576
1409523254829,-0.110133275,9.853935,-1.8076223,0.031755615,9.66144,-1.6810713
1409523254885,-0.1364695,9.867104,-1.7310078,0.037362933,9.659717,-1.6908281
1409523254887,-0.1328782,9.866506,-1.666963,0.043162268,9.65813,-1.6997207
1409523254889,-0.14784196,9.883863,-1.6478093,0.057919107,9.653742,-1.7240444
1409523254890,-0.16819267,9.870096,-1.7040731,0.057919107,9.653742,-1.7240444
1409523254891,-0.19093758,9.870695,-1.7543513,0.057919107,9.653742,-1.7240444
1409523254892,-0.21428105,9.877877,-1.7603368,0.061534666,9.652028,-1.7334962
1409523254912,-0.1945289,9.881469,-1.7711107,0.064480655,9.650323,-1.7428406
1409523254912,-0.16998832,9.859323,-1.8076223,0.06775953,9.648676,-1.751813
1409523254924,-0.18734628,9.901819,-1.8082209,0.071205,9.647033,-1.7607082
1409523254929,-0.19512744,9.892242,-1.7926586,0.07432985,9.645691,-1.7679095
1409523254948,-0.22685061,9.890448,-1.816002,0.07737082,9.644748,-1.7729177
1409523254949,-0.2621651,9.928755,-1.8884265,0.080621645,9.644104,-1.7762791
1409523254962,-0.30585927,9.920973,-1.91596,0.08464374,9.643598,-1.7788396
1409523254979,-0.31184477,9.833585,-1.9087774,0.08857991,9.6432905,-1.7803117
1409523254980,-0.37469256,9.695918,-1.8842367,0.09206337,9.643177,-1.7807434
1409523254997,-0.4177882,9.589376,-1.8249803,0.09516192,9.643319,-1.779811
1409523255012,-0.43394905,9.615114,-1.8207904,0.097362645,9.643699,-1.7776489
1409523255013,-0.42317516,9.703101,-1.8183962,0.100247554,9.644322,-1.7740874
1409523255027,-0.42197806,9.710882,-1.8722657,0.10403525,9.645023,-1.7700623
1409523255029,-0.4213795,9.578004,-1.9327193,0.10864479,9.64573,-1.7659107
1409523255043,-0.39025488,9.543288,-1.9907787,0.11339199,9.646403,-1.7619469
1409523255049,-0.3645172,9.599552,-2.006341,0.118276544,9.646962,-1.7585608
1409523255063,-0.34476504,9.697116,-2.0482395,0.122266784,9.6474905,-1.7553812
1409523255075,-0.338181,9.743802,-2.0973208,0.12493279,9.648133,-1.7516698
1409523255080,-0.33279404,9.749788,-2.132635,0.12684534,9.648813,-1.7477763
1409523255094,-0.33877954,9.790489,-2.2026656,0.12741262,9.64967,-1.7429953
1409523255118,-0.33877954,9.792884,-2.2828712,0.12657587,9.650613,-1.7378204
1409523255119,-0.32680854,9.76116,-2.268506,0.12532441,9.651492,-1.7330291
1409523255122,-0.28491,9.69113,-2.1709423,0.12449323,9.652409,-1.7279764
1409523255129,-0.24061728,9.640253,-2.1015105,0.1236445,9.653486,-1.7220054
1409523255153,-0.19512744,9.679159,-2.0775685,0.12141367,9.6543865,-1.7171184
1409523255154,-0.14305355,9.787497,-2.0709844,0.11834669,9.6550665,-1.7135055
1409523255160,-0.077213004,9.808446,-2.1039047,0.114639066,9.655235,-1.7128
1409523255180,0.02873042,9.834184,-2.0751743,0.11072306,9.654882,-1.7150384
1409523255184,0.17058687,9.859921,-2.059612,0.10769816,9.654259,-1.7187533
1409523255206,0.2825158,9.916783,-2.0159178,0.1052306,9.653462,-1.7233626
1409523255207,0.39683893,10.0269165,-2.023699,0.10214491,9.652753,-1.7275182
1409523255209,0.4866215,10.072407,-2.0201077,0.09901801,9.652323,-1.7301197
1409523255233,0.5363012,10.070611,-1.958457,0.096272804,9.652289,-1.7304417
1409523255234,0.59136784,10.057443,-1.8992004,0.09399609,9.65258,-1.7289474
1409523255243,0.7015011,9.970653,-1.7579426,0.09110972,9.653369,-1.7246889
1409523255266,0.7433996,9.94312,-1.673547,0.089847155,9.654767,-1.7169124
1409523255267,0.8122329,9.982025,-1.6358383,0.09062194,9.6566725,-1.7061162
1409523255269,0.90500826,10.019135,-1.6047137,0.09433979,9.658776,-1.6939725
1409523255284,0.98940384,9.993398,-1.5682021,0.10189883,9.660779,-1.6820664
1409523255312,0.9947908,9.904214,-1.4694413,0.11250936,9.662552,-1.6711811
1409523255313,0.9187749,9.917382,-1.34195,0.12375264,9.664285,-1.6603246
1409523255314,0.8242039,9.97604,-1.1965023,0.1349249,9.665969,-1.6496061
1409523255335,0.7410054,9.981427,-1.1701661,0.14493717,9.667544,-1.6395082
1409523255336,0.45729253,9.930551,-1.4311341,0.15295126,9.668565,-1.6327412
1409523255341,0.29209262,10.074203,-1.5801731,0.15904461,9.66827,-1.6339109
1409523255370,0.18974048,10.281899,-1.6220716,0.16647622,9.666742,-1.6421962
1409523255371,0.09995792,10.356718,-1.614889,0.17604835,9.664351,-1.6552088
1409523255372,0.050278235,10.232818,-1.6280571,0.18715544,9.661273,-1.6718761
1409523255381,-0.04070143,10.131663,-1.520318,0.19770402,9.657757,-1.6908684
1409523255398,-0.110731825,10.125677,-1.4287399,0.20783232,9.653646,-1.7129873
1409523255401,-0.08678981,10.126276,-1.3820529,0.21566053,9.649161,-1.7371219
1409523255409,-0.021547815,10.05864,-1.34195,0.22147125,9.644453,-1.7623502
1409523255430,0.03172317,9.936536,-1.3299791,0.22494537,9.639742,-1.7875028
1409523255430,0.079008654,9.886257,-1.3587095,0.22636954,9.635233,-1.8114734
1409523255448,0.11133038,9.865907,-1.3790601,0.22553398,9.631417,-1.8317628
1409523255449,0.16160862,9.868899,-1.447295,0.22184096,9.628182,-1.8491254
1409523255461,0.24779987,9.8754835,-1.5280992,0.2173758,9.626161,-1.8601463
1409523255484,0.40162733,9.858126,-1.5436616,0.21155396,9.6255245,-1.8641167
1409523255485,0.480636,9.81084,-1.5741876,0.20553514,9.626393,-1.8602991
1409523255489,0.56203884,9.826403,-1.638831,0.19837739,9.628689,-1.8491648
1409523255528,0.7356185,9.919776,-1.7010803,0.18977468,9.632251,-1.8314284
1409523255530,0.8924387,9.961675,-1.7986441,0.18316315,9.6371155,-1.8063401
1409523255531,0.9947908,9.920973,-1.8285716,0.18170974,9.643106,-1.7742113
1409523255532,1.002572,9.818622,-1.6885108,0.18361206,9.649518,-1.7388153
1409523255561,0.8984242,9.731233,-1.4856021,0.18917789,9.657026,-1.6960002
1409523255562,0.6817489,9.611523,-1.3401544,0.1969681,9.665231,-1.6476924
1409523255563,0.3172317,9.548077,-1.6190789,0.20461306,9.673206,-1.5992519
1409523255582,0.15502456,9.627684,-1.8884265,0.21065877,9.679495,-1.5599396
1409523255583,-0.02633622,9.68275,-2.0213048,0.21976094,9.683447,-1.5339395
1409523255590,-0.24121583,9.701305,-2.0171149,0.23391485,9.685373,-1.5195988
1409523255616,-0.42796355,9.721058,-1.905186,0.25004387,9.685814,-1.5142288
1409523255617,-0.581791,9.796474,-1.857302,0.2627876,9.685744,-1.5125145
1409523255621,-0.6937199,9.903615,-1.8405426,0.2763336,9.684396,-1.5187238
1409523255629,-0.7835025,10.002377,-1.8441339,0.28861442,9.681758,-1.5331813
1409523255653,-0.8750807,9.99639,-1.9231426,0.3000605,9.677951,-1.5548666
1409523255654,-0.9307459,9.953894,-2.03148,0.3106427,9.673019,-1.5832263
1409523255663,-0.9415198,9.873688,-2.0428526,0.3197858,9.667149,-1.6168963
1409523255679,-0.86729956,9.7402115,-1.8459295,0.32787558,9.660845,-1.6525594
1409523255682,-0.801459,9.636662,-1.6543933,0.33615154,9.654796,-1.685909
1409523255695,-0.7661445,9.674371,-1.5167267,0.34248394,9.64942,-1.7151711
1409523255719,-0.74998367,9.81503,-1.4496891,0.3453209,9.644956,-1.7395395
1409523255720,-0.694917,9.962872,-1.4239515,0.34389263,9.641349,-1.7596906
1409523255723,-0.57760113,10.039486,-1.4909891,0.33881462,9.638513,-1.7761416
1409523255730,-0.43514615,10.0269165,-1.6412252,0.33106267,9.636214,-1.7900153
1409523255754,-0.32441434,10.022128,-1.7687165,0.32122022,9.6344185,-1.801453
1409523255755,-0.25258827,10.024523,-1.7591397,0.3095815,9.633183,-1.8100685
1409523255761,-0.21667525,9.985018,-1.6837224,0.29905894,9.632389,-1.8160502
1409523255785,-0.19692309,9.923966,-1.6274586,0.28418666,9.632603,-1.8173016
1409523255786,-0.15801731,9.855133,-1.602918,0.26771688,9.633566,-1.8146944
1409523255790,-0.130484,9.808446,-1.6310499,0.2507216,9.63489,-1.8100878
1409523255820,-0.075417355,9.750386,-1.7567455,0.23490766,9.636103,-1.8057591
1409523255821,-0.092176765,9.767146,-1.7962499,0.22190176,9.636818,-1.8035818
1409523255822,-0.09696517,9.694721,-1.7621324,0.21143268,9.637097,-1.8033532
1409523255830,-0.076015905,9.6767645,-1.7782934,0.20176089,9.6372175,-1.8038036
1409523255856,-0.08080431,9.733028,-1.8483237,0.19487141,9.63721,-1.8046126
1409523255857,-0.073621705,9.750386,-1.893215,0.1895546,9.637097,-1.8057725
1409523255861,-0.046088383,9.828198,-1.9003977,0.18580928,9.636707,-1.8082416
1409523255884,-0.06344634,9.898229,-1.8555063,0.1829577,9.636204,-1.8112229
1409523255885,-0.12210429,9.988011,-1.7328035,0.18069822,9.635873,-1.8132039
1409523255890,-0.16400282,9.889849,-1.6370354,0.17709757,9.636129,-1.81219
1409523255918,-0.17776948,9.773131,-1.6693572,0.17173225,9.636825,-1.8090204
1409523255919,-0.1933318,9.792285,-1.7501614,0.16459289,9.637469,-1.8062267
1409523255922,-0.30406362,9.878476,-1.875857,0.15782939,9.63802,-1.8039097
1409523255932,-0.42556936,9.8042555,-2.0213048,0.15036826,9.638416,-1.8024194
1409523255952,-0.3842694,9.797672,-1.8351556,0.14149989,9.638592,-1.802205
1409523255953,-0.36391866,9.845556,-1.5735891,0.13280338,9.639093,-1.8001786
1409523255964,-0.4177882,9.831191,-1.632247,0.12508242,9.64004,-1.7956537
1409523255992,-0.37588966,9.837176,-1.858499,0.11689357,9.640655,-1.7929107
1409523255993,-0.25198972,9.838373,-1.9309237,0.10853987,9.640617,-1.7936416
1409523256004,-0.16699557,9.811439,-1.8543092,0.102030635,9.639796,-1.7984223
1409523256050,-0.14784196,9.848549,-1.7968484,0.096793905,9.6387005,-1.8045664
1409523256051,-0.1328782,9.935937,-1.7316064,0.092793435,9.637596,-1.8106675
1409523256051,-0.092176765,10.0029745,-1.666963,0.089229606,9.63655,-1.8164079
1409523256052,-0.037708677,10.019135,-1.6370354,0.08610767,9.635487,-1.822187
1409523256053,0.025139118,9.991004,-1.602918,0.08387013,9.634025,-1.8300067
1409523256054,0.095169514,9.913192,-1.5741876,0.08288316,9.631887,-1.841268
1409523256061,0.12689269,9.942521,-1.5664065,0.08308102,9.629463,-1.8539021
1409523256081,0.14544775,10.096349,-1.5807717,0.08325901,9.626715,-1.8681101
1409523256083,0.13108255,10.280104,-1.5556326,0.08421762,9.624009,-1.8819488
1409523256090,0.09696517,10.263344,-1.5059528,0.0867714,9.621644,-1.8938819
1409523256119,0.08020575,10.109517,-1.4562732,0.09054098,9.619734,-1.9033922
1409523256120,0.05805939,9.93474,-1.4502877,0.09510259,9.617954,-1.9121528
1409523256122,0.073621705,9.831191,-1.483208,0.100306004,9.6159115,-1.9221172
1409523256132,0.10235212,9.797672,-1.5568297,0.10577187,9.613656,-1.933089
1409523256161,0.16699557,9.803059,-1.5693992,0.11095453,9.611312,-1.9444283
1409523256164,0.22325931,9.843162,-1.5735891,0.11685294,9.609306,-1.9539636
1409523256166,0.25198972,9.907805,-1.5280992,0.12313685,9.608156,-1.9592261
1409523256193,0.25198972,9.915586,-1.4850036,0.12917203,9.608157,-1.9588274
1409523256194,0.23882163,9.880272,-1.4437037,0.13457535,9.609168,-1.9535062
1409523256195,0.21906945,9.821015,-1.4676456,0.13827537,9.611134,-1.943545
1409523256254,0.19393034,9.824607,-1.5508442,0.1400155,9.613719,-1.9305882
1409523256256,0.15023616,9.83957,-1.6627731,0.14105274,9.616364,-1.9173058
1409523256256,0.13347675,9.821614,-1.7070658,0.14094226,9.619152,-1.9032627
1409523256257,0.094570965,9.78989,-1.7220296,0.13999242,9.622318,-1.8872725
1409523256258,0.09636662,9.737817,-1.7818847,0.13805091,9.625873,-1.8691972
1409523256259,0.090381116,9.7007065,-1.8668787,0.13543724,9.629533,-1.8504409
1409523256278,0.04129998,9.695918,-1.9674352,0.1316732,9.633181,-1.8316253
1409523256279,0.045489833,9.663596,-2.0566192,0.12613048,9.636775,-1.8130221
1409523256298,0.04249708,9.5732155,-2.1057005,0.1198644,9.640305,-1.794591
1409523256298,0.04309563,9.504382,-2.099715,0.113055594,9.643802,-1.7761449
1409523256301,0.02633622,9.546281,-2.047641,0.10507395,9.647495,-1.7564799
1409523256310,-0.04070143,9.659407,-2.0290859,0.09548867,9.651428,-1.7352883
1409523256323,-0.11851298,9.838972,-1.9794062,0.0839239,9.655452,-1.7133555
1409523256339,-0.13108255,10.02153,-1.9422961,0.07008798,9.6593275,-1.6919945
1409523256341,-0.1448492,10.0508585,-2.0260932,0.055623688,9.66268,-1.673297
1409523256363,-0.12270284,9.956886,-2.2421699,0.042004038,9.665035,-1.6600436
1409523256363,0.034117375,9.698313,-2.2679076,0.029753333,9.6665325,-1.6515698
1409523256370,0.15562311,9.625888,-2.1859062,0.01961071,9.667084,-1.6484894
1409523256402,0.23523031,9.662399,-2.0763714,0.011983575,9.667044,-1.6487957
1409523256403,0.25558102,9.695918,-1.9327193,0.005800211,9.666655,-1.6510975
1409523256403,0.24779987,9.718663,-1.8189948,-7.33575E-5,9.666257,-1.6534388
1409523256410,0.21547815,9.735423,-1.7842789,-0.0052522216,9.665882,-1.6556214
1409523256430,0.18914193,9.721058,-1.8387469,-0.009006022,9.665188,-1.6596532
1409523256431,0.17357962,9.640253,-1.8321629,-0.010412089,9.663611,-1.6688088
1409523256444,0.16160862,9.575011,-1.785476,-0.009593465,9.661478,-1.6811194
1409523256465,0.17717093,9.580399,-1.697489,-0.0062613986,9.658172,-1.7000155
1409523256466,0.19273324,9.6767645,-1.5729905,-2.6332712E-4,9.6537895,-1.7247391
1409523256470,0.20231004,9.882666,-1.447295,0.007600246,9.648601,-1.7535292
1409523256501,0.21787235,10.110115,-1.3844471,0.016843876,9.642978,-1.784118
1409523256502,0.22625206,10.280702,-1.3042414,0.028375909,9.63698,-1.8161116
1409523256503,0.2621651,10.26514,-1.2677298,0.042467855,9.630597,-1.8493823
1409523256510,0.26874915,10.187927,-1.3227965,0.06048399,9.623844,-1.8837132
1409523256526,0.22804771,10.123283,-1.4317327,0.081171975,9.616159,-1.9217935
1409523256545,0.19692309,10.040684,-1.520318,0.104757726,9.607427,-1.9638735
1409523256545,0.22445641,9.888652,-1.5634137,0.13166356,9.597782,-2.0088902
1409523256559,0.2801216,9.662998,-1.5490485,0.16300504,9.587494,-2.055176
1409523256572,0.33758244,9.493608,-1.3946224,0.19838907,9.576984,-2.1005764
1409523256573,0.338181,9.247604,-1.1390414,0.2355103,9.566982,-2.1419098
1409523256592,0.29987377,9.054871,-0.9391256,0.27130175,9.558151,-2.1768115
1409523256593,0.2825158,9.04709,-0.89902276,0.30462533,9.549972,-2.2080853
1409523256606,0.32202014,9.176975,-0.98820674,0.33660686,9.542915,-2.2338088
1409523256610,0.40462008,9.461287,-1.1282675,0.36784342,9.536605,-2.2557158
1409523256624,0.59615624,9.7803135,-1.2018893,0.39953065,9.530841,-2.274616
1409523256638,0.78769237,10.097546,-1.2210429,0.43337536,9.52586,-2.289229
1409523256642,0.57760113,10.2896805,-1.1456255,0.4684826,9.522328,-2.297001
1409523256665,0.3184288,10.292074,-1.021127,0.49629155,9.520741,-2.2977355
1409523256666,0.21428105,10.244789,-1.0851719,0.51169074,9.521332,-2.2919073
1409523256670,0.17357962,10.21127,-1.4012065,0.5211483,9.5226555,-2.2842476
1409523256700,0.06943185,10.129269,-1.7154455,0.5238608,9.524616,-2.2754471
1409523256700,-0.059855044,10.058042,-1.9740193,0.52083766,9.526993,-2.2661748
1409523256707,-0.092775315,10.070611,-2.2278047,0.5102692,9.530401,-2.2542148
1409523256710,0.010175358,10.12448,-2.2774844,0.49276337,9.5353,-2.237328
1409523256729,0.039504327,10.174759,-2.2080526,0.47058806,9.542363,-2.211842
1409523256730,-0.046088383,10.103531,-2.2463598,0.44281304,9.551975,-2.1757967
1409523256744,-0.095169514,9.916184,-2.3403323,0.41112143,9.562323,-2.1361995
1409523256763,-0.08678981,9.722255,-2.4361002,0.3721002,9.573807,-2.0914526
1409523256764,-0.038307227,9.869498,-2.504335,0.33028498,9.585585,-2.0439844
1409523256771,0.007182605,10.013748,-2.5959132,0.28913024,9.597236,-1.9949554
1409523256796,0.31543607,10.108319,-2.7617116,0.24956542,9.608293,-1.9464848
1409523256797,0.36032736,9.97604,-2.8981812,0.2135954,9.6184435,-1.9000905
1409523256805,0.30825347,9.706094,-2.973,0.17731793,9.627665,-1.8566192
1409523256811,0.42916065,9.545682,-3.1908724,0.13861002,9.636425,-1.813974
1409523256829,0.5781997,9.566033,-3.305794,0.10043255,9.644557,-1.7728018
1409523256848,0.6799533,9.533711,-3.6098576,0.06656126,9.652978,-1.7279984
1409523256849,0.49081135,9.296685,-3.405752,0.037776772,9.661887,-1.6783713
1409523256851,0.12150574,9.288904,-2.8323407,0.012405016,9.672432,-1.6168791
1409523256876,0.08439561,9.423578,-2.6282349,-0.008436697,9.684854,-1.5407538
1409523256876,0.2825158,8.93576,-2.815581,-0.016225744,9.6970825,-1.4617478
1409523256890,0.6937199,8.848969,-2.1206641,-0.0033323593,9.706471,-1.3981267
1409523256890,1.0582372,8.811261,-1.0600328,0.019844519,9.714605,-1.3403213
1409523256917,1.323395,9.109938,-0.27353755,0.065071605,9.719133,-1.3056018
1409523256918,1.5370775,9.633669,0.09636662,0.12044863,9.719538,-1.2986516
1409523256924,1.1953052,10.2657385,-0.06703765,0.17633359,9.716617,-1.3140327
1409523256952,0.24720132,9.840768,-0.7290344,0.22215076,9.710769,-1.3498349
1409523256954,-0.076015905,9.727043,-1.5634137,0.2459861,9.701625,-1.4100959
1409523256955,-0.03172317,9.805453,-2.0787656,0.2532748,9.68868,-1.4952343
1409523256996,0.11432313,9.8276,-2.0254946,0.25872168,9.671668,-1.6007199
1409523256997,0.1340753,9.834184,-1.6316484,0.26945496,9.652401,-1.7114164
1409523256998,0.076015905,10.204087,-1.0726024,0.28215572,9.630912,-1.8265512
1409523257000,0.038307227,10.399814,-0.6877344,0.28854457,9.609018,-1.9374989
1409523257002,-5.985504E-4,10.511743,-0.47105917,0.28401685,9.5876045,-2.0414677
1409523257011,-0.024540568,10.791864,-0.3417723,0.27088264,9.566117,-2.1415968
1409523257031,-0.024540568,10.444106,-0.48003745,0.25394145,9.543943,-2.2403216
1409523257032,-0.08080431,10.062231,-0.5554548,0.23691404,9.519651,-2.3431835
1409523257045,-0.11731588,9.774927,-0.7667431,0.22111645,9.49362,-2.4479873
1409523257069,-0.15083471,9.650429,-0.9828198,0.20858577,9.464934,-2.557713
1409523257071,-0.17058687,9.683349,-1.1881226,0.19339871,9.434654,-2.6683908
1409523257072,-0.016759412,9.746197,-1.4119805,0.17762919,9.403834,-2.776101
1409523257100,0.21068975,9.698911,-1.5759833,0.16304654,9.374015,-2.8760505
1409523257101,0.53929394,9.482236,-1.6340426,0.1491358,9.346766,-2.9641404
1409523257104,0.7368156,9.178172,-1.590947,0.13385727,9.3237915,-3.0363429
1409523257111,0.87927055,9.244013,-1.6226702,0.11348259,9.306729,-3.0890641
1409523257124,1.0648212,9.706693,-1.7292122,0.090381116,9.29328,-3.130049
1409523257142,1.2144588,10.435727,-1.9165585,0.06417524,9.287841,-3.1467924
1409523257143,1.3329718,11.045051,-2.1655555,0.039304715,9.290293,-3.1399493
1409523257158,1.4981717,11.444284,-2.3953989,0.01964578,9.299025,-3.1141841
1409523257175,1.6358383,11.592725,-2.3020248,0.006197686,9.311788,-3.0758727
1409523257176,1.6843209,11.652579,-1.9231426,-0.004999416,9.327428,-3.0281174
1409523257192,1.6220716,11.502942,-1.4664485,-0.020067513,9.345426,-2.9720426
1409523257192,1.5400703,11.295844,-1.1845313,-0.044055417,9.36408,-2.912469
1409523257208,1.4562732,11.262324,-1.0031705,-0.07683716,9.381718,-2.8544471
1409523257225,1.6394296,11.35091,-0.8559271,-0.110621065,9.395755,-2.8067636
1409523257226,1.8495208,11.349713,-0.7194576,-0.13994624,9.404932,-2.7745428
1409523257239,1.9357121,11.367071,-0.59855044,-0.15935265,9.408802,-2.760332
1409523257242,1.988983,11.415554,-0.44771573,-0.16915129,9.407359,-2.7646694
1409523257257,2.100912,11.478401,-0.44592008,-0.17206132,9.401492,-2.784373
1409523257274,2.1679497,11.53706,-0.5410896,-0.16913141,9.392151,-2.8159013
1409523257275,2.4498668,11.713632,-0.688333,-0.15962796,9.380964,-2.8534963
1409523257291,2.8233624,11.999739,-0.7793127,-0.1460279,9.366397,-2.9016743
1409523257291,3.309984,12.210428,-0.81642276,-0.12379677,9.348732,-2.9591072
1409523257305,3.989937,12.5982895,-1.0947487,-0.094022974,9.328531,-3.023253
1409523257323,4.563947,13.11843,-1.2910733,-0.055134736,9.305589,-3.0940852
1409523257324,4.6034513,12.665926,-1.2060791,-0.009189561,9.281212,-3.1669297
1409523257338,5.120599,11.369465,0.80445176,0.026142158,9.258354,-3.233046
1409523257370,6.113594,10.606314,3.7750576,0.048661157,9.2550535,-3.2422233
1409523257371,5.6910176,9.248202,3.0107086,0.06301351,9.276377,-3.1804526
1409523257372,3.3985693,7.189788,1.9111716,0.08216449,9.3273325,-3.0272906
1409523257373,2.3612814,8.461109,1.459266,0.09196137,9.393184,-2.8160336
1409523257401,1.4808137,11.924321,0.79128367,0.14420594,9.464374,-2.564222
1409523257402,0.31004912,13.849858,0.5650316,0.2545964,9.531558,-2.2923775
1409523257407,-1.4311341,14.247295,0.024540568,0.39906976,9.587854,-2.0209377
1409523257445,-2.7275944,14.879365,-0.6967127,0.5456839,9.630688,-1.7670518
1409523257446,-3.1800983,17.145477,-1.1228806,0.67847824,9.662931,-1.528988
1409523257447,-3.3913867,19.466057,-3.165733,0.7964526,9.687283,-1.3010122
1409523257448,-4.3059716,19.533094,-4.6483426,0.90079445,9.703057,-1.0998327
1409523257452,-4.3221326,17.174208,-5.105635,0.9721979,9.715376,-0.9147008
1409523257480,-3.193865,14.7877865,-5.0344076,1.0168854,9.726173,-0.73338
1409523257481,-2.4666264,13.123219,-3.8067808,1.0428519,9.734756,-0.56334174
1409523257483,0.32202014,11.306618,-3.0071173,1.0477678,9.7422495,-0.401402
1409523257491,2.086547,10.654198,-2.4109612,1.0733207,9.744702,-0.24327393
1409523257512,2.930503,10.405201,-2.979584,1.1216952,9.741895,-0.0876888
1409523257512,2.8736405,9.651027,-3.4853592,1.2119962,9.731308,0.055993546
1409523257524,1.941099,8.953117,-2.6198552,1.3367864,9.713449,0.17970307
1409523257548,1.1438298,8.79091,-2.6390088,1.4765283,9.690465,0.29174218
1409523257550,0.076614454,8.339603,-3.70802,1.6139468,9.66482,0.3960057
1409523257552,-0.89902276,7.6321163,-3.9558198,1.7398984,9.638515,0.49206662
1409523257577,-1.7196354,6.691794,-2.9053638,1.8544785,9.6121,0.5821015
1409523257577,-2.0649989,6.0088477,-1.1210849,1.9599683,9.584585,0.6816408
1409523257585,-1.7723078,5.4366336,-1.0079589,2.0636792,9.553543,0.80090564
1409523257591,-0.74758947,5.2660465,-0.7649474,2.1681428,9.518437,0.93214715
1409523257609,-0.36391866,4.9458222,-1.1959038,2.274097,9.479913,1.0630783
1409523257611,0.16879122,4.83509,-1.9746178,2.373651,9.44073,1.1869291
1409523257622,0.3716998,4.590882,-2.4875755,2.4565427,9.402789,1.3127612
1409523257643,-0.15083471,4.1533413,-2.5420437,2.5180917,9.366623,1.4477603
1409523257661,-0.99299514,4.3718123,-1.8740613,2.5641239,9.331776,1.5854464
1409523257662,-1.929128,4.5358152,-1.5981296,2.6039593,9.29689,1.7197737
1409523257663,-2.3864205,4.9063177,-1.9357121,2.6426046,9.264311,1.8329122
1409523257671,-2.682703,4.3041763,-1.7836803,2.6909416,9.234818,1.9097999
1409523257696,-2.710835,3.4512417,-1.316811,2.7494206,9.208142,1.9547918
1409523257696,-2.4390929,2.930503,-1.2132617,2.804075,9.186378,1.9793956
1409523257704,-2.1871033,2.4827871,-1.1115081,2.8434267,9.172712,1.9866202
1409523257729,-1.7896658,2.3714569,-0.74519527,2.8622646,9.168808,1.9775711
1409523257730,-1.0684125,3.0801406,0.009576807,2.8530862,9.176867,1.9533068
1409523257732,-0.7194576,3.9193082,2.0530279,2.8260124,9.191199,1.9250679
1409523257765,0.5710171,5.8717794,5.083489,2.7735538,9.218157,1.8717247
1409523257766,3.7565024,10.284892,9.167398,2.6967692,9.255044,1.8005493
1409523257767,9.640852,17.649456,11.795633,2.6118622,9.2901,1.7443032
1409523257772,17.096395,19.608511,10.8948145,2.5077724,9.347453,1.5832194
1409523257802,19.607914,19.608511,10.329783,2.4176452,9.388509,1.4769078
1409523257803,16.021997,19.608511,5.705383,2.3955212,9.403477,1.4165143
1409523257804,7.9930425,15.875353,4.663306,2.4327097,9.410112,1.304655
1409523257826,2.8263552,10.324995,6.3087215,4.270978,8.422047,2.6454215
1409523257827,1.3634979,8.340201,6.611588,4.104261,8.430605,2.8723385
1409523257845,0.8026561,7.7608047,4.2395325,3.8683357,8.407149,3.2444139
1409523257846,-0.3417723,6.6247563,-0.15382746,3.6559577,8.423363,3.442575
1409523257852,-0.40701428,5.705383,-4.7644615,3.4229174,8.563165,3.3355982
1409523257883,-0.45669398,8.025963,-8.361151,3.236663,8.812348,2.834945
1409523257885,-1.9758149,11.145009,-10.101137,3.0096936,9.141294,1.8838519
1409523257886,-2.0524294,12.200851,-7.357382,2.563298,9.439867,0.6991452
1409523257892,-2.4450784,12.348694,-2.379238,2.0523467,9.588764,-0.1178501
1409523257916,-3.2369606,13.161526,2.4690206,1.528279,9.680302,-0.35573637
1409523257917,-2.3894134,16.758814,11.282077,0.9770627,9.757392,-0.095033035
1409523257923,-3.9713821,16.329653,7.1347213,0.5723295,9.749013,0.89417344
1409523257948,-5.0374002,13.095685,-1.809418,0.13079408,9.719984,1.2942942
1409523257951,-3.1800983,11.157578,-5.348048,-0.2949106,9.76012,0.90745646
1409523257952,-2.4779987,9.023148,-6.095039,-0.5161586,9.78717,0.33952042
1409523257971,-2.0811598,7.5866265,-5.2929816,-0.61941874,9.785182,-0.19218396
1409523257972,-1.7878702,7.2059484,-3.5625722,-0.73438644,9.760978,-0.5952956
1409523257990,-1.982399,7.3567834,-2.224812,-0.8669158,9.732959,-0.82969564
1409523257991,-2.0201077,7.589619,-1.2689269,-1.028647,9.707281,-0.9385965
1409523258006,-1.8980033,7.53156,-0.7445967,-1.1827307,9.687558,-0.96059453
1409523258022,-1.3730747,7.355586,-0.49679685,-1.3058037,9.6734705,-0.9429963
1409523258023,-0.7392098,7.5495167,-0.38726214,-1.3611779,9.668521,-0.91504234
1409523258045,-0.26635495,8.380903,-0.11372458,-1.3371481,9.675012,-0.88123924
1409523258045,-0.40162733,10.271125,0.23163901,-1.2629433,9.691426,-0.80722445
1409523258052,-1.2042835,11.579556,0.3393781,-1.1918118,9.70963,-0.6878043
1409523258079,-1.6777369,12.934076,-0.027533319,-1.2059239,9.7157345,-0.5662674
1409523258080,-1.2066777,13.332112,-0.6745663,-1.2515197,9.713731,-0.497546
1409523258084,-0.18315643,12.375628,-0.9588778,-1.2222949,9.717026,-0.50574714
1409523258116,0.6679823,10.9187565,-0.9175778,-1.0849243,9.731441,-0.5407486
1409523258117,1.2120646,9.8042555,-0.92057055,-0.88008255,9.750472,-0.56930506
1409523258118,1.6011224,9.24102,-1.4688427,-0.6679986,9.766004,-0.5910553
1409523258152,2.3750482,9.494805,-2.8018146,-0.42879403,9.774761,-0.66376567
1409523258153,3.3806129,9.808446,-5.4085016,-0.13410789,9.76775,-0.86223584
1409523258153,2.7748797,8.47727,-8.182184,0.23643327,9.719366,-1.283902
1409523258159,1.809418,6.4386067,-7.325659,0.5172502,9.599755,-1.9358474
1409523258188,3.1675289,6.903082,-6.0836663,0.66302437,9.461147,-2.4934757
1409523258188,4.702811,7.7560163,-5.448006,0.9111814,9.317225,-2.9205275
1409523258189,4.9069166,8.242638,-2.9502552,1.2480501,9.173809,-3.2332654
1409523258207,4.362834,8.768764,-0.0053869537,1.6291796,9.091585,-3.2953389
1409523258207,3.8187518,9.5570545,1.34195,1.8857132,9.12717,-3.051112
1409523258222,3.0597897,10.080188,1.9087774,2.0678182,9.210527,-2.657198
1409523258223,2.207454,9.935937,2.059612,2.158351,9.302169,-2.2319367
1409523258237,1.5586253,9.727641,2.0087352,2.1672533,9.386432,-1.8352939
1409523258258,1.1605892,10.059238,2.1374235,2.1140409,9.460179,-1.4853336
1409523258259,0.9684546,10.597335,1.9812019,2.0140283,9.527614,-1.1569884
1409523258263,0.82121116,11.068395,1.6106992,1.8972956,9.582747,-0.86117285
1409523258272,0.9708488,11.470022,1.2934675,1.7632682,9.6250515,-0.64782226
1409523258287,1.2695254,11.7543335,1.1216835,1.6588591,9.65325,-0.48305094
1409523258311,1.4820108,11.738173,1.1695676,1.5955858,9.669526,-0.35321578
1409523258312,1.3192052,11.6112795,1.769315,1.563542,9.678405,-0.23281376
1409523258313,-0.44951138,10.814011,4.4304705,1.5209321,9.687709,-0.07388605
1409523258324,-1.1210849,10.67814,4.1862617,1.3254315,9.711673,0.3115005
1409523258346,0.61112,12.540829,-0.13706805,1.085729,9.726175,0.62698096
1409523258347,2.8951883,14.616003,-4.6962266,1.0249592,9.743398,0.43134677
1409523258352,2.5677812,12.500127,-0.2753332,1.159569,9.735667,-0.206409
1409523258375,2.4079683,9.884461,4.7937903,1.2326267,9.725066,-0.27229077
1409523258376,4.7518916,10.650606,8.451532,1.3114883,9.711639,0.36670303
1409523258383,7.3460093,12.488156,7.100005,1.6277845,9.576203,1.347982
1409523258416,8.07265,14.473548,-0.6781576,2.0625496,9.392548,1.9225811
1409523258418,6.3949127,13.25071,-5.1050367,2.399912,9.365591,1.6420994
1409523258419,6.178836,13.126211,-4.9362454,2.5989604,9.395498,1.0678978
1409523258448,6.6840124,12.905346,-3.13401,2.7559226,9.399082,0.48222852
1409523258449,6.7546415,11.972804,-2.473809,2.9582858,9.348934,0.12786885
1409523258450,5.5407815,11.495161,-3.3806129,3.185903,9.273824,-0.12886867
1409523258452,4.3544545,12.019491,-1.685518,3.3127022,9.220197,-0.42938307
1409523258480,4.2419267,12.72997,4.385579,3.3310673,9.208269,-0.53120065
1409523258481,3.4644098,12.194268,8.07265,3.350445,9.216371,-0.05869097
1409523258486,1.9925743,11.484985,6.3368535,3.3195853,9.206919,0.61919254
1409523258511,1.4634558,11.744158,3.304597,3.2142792,9.185799,1.208271
1409523258512,0.95588505,11.256339,1.3329718,3.050085,9.209113,1.435141
1409523258512,1.0019734,10.927136,-0.6697779,2.8696866,9.265571,1.4437755
1409523258524,2.2774844,10.190321,-2.7922378,2.7222779,9.335081,1.2711654
1409523258538,1.9500773,9.316438,-4.35625,2.7049985,9.37867,0.9454767
1409523258556,1.2593501,10.241198,-5.005079,2.677439,9.4191065,0.5311933
1409523258557,0.44831428,13.120824,-6.707356,2.572627,9.462651,0.10100772
1409523258564,-0.38307226,18.542494,-7.303512,2.3647068,9.507626,-0.42847618
1409523258572,-0.7236475,19.608511,-3.17531,2.038928,9.551113,-0.88848
1409523258587,-2.606687,19.608511,-4.5340195,1.7295685,9.607813,-0.9321542
1409523258616,-4.909311,19.36969,-8.367735,1.3162144,9.655498,-1.0997028
1409523258617,-5.177461,8.954314,-4.9105077,0.76503277,9.653537,-1.5473613
1409523258617,-2.5731683,8.91062,0.78769237,0.26713938,9.635403,-1.804999
1409523258646,-1.0348936,8.871116,1.2090719,0.009866729,9.676232,-1.5939875
1409523258647,0.004189853,9.020155,-1.5233108,-0.06178221,9.711225,-1.3633255
1409523258648,0.047285482,8.546701,-5.191228,-0.046394087,9.711332,-1.3631842
1409523258652,-0.7835025,6.9731126,-7.865551,-0.017616028,9.657813,-1.701989
1409523258673,-0.33638534,5.2498856,-8.453327,-0.062731914,9.541881,-2.2625115
1409523258673,1.5179238,4.099472,-5.601235,-0.06757921,9.382628,-2.8516867
1409523258684,1.5915456,3.8480806,-1.5765818,0.078958385,9.267253,-3.2065892
1409523258706,-0.035913024,4.1575313,1.8327614,0.21386735,9.263791,-3.2104251
1409523258706,-0.7200562,4.4179006,2.7730842,0.17874973,9.372418,-2.8803155
1409523258724,-0.24121583,4.4879313,1.1629834,0.09007409,9.495456,-2.4492059
1409523258726,0.110133275,4.0186677,-1.9853917,0.06406725,9.55455,-2.2083595
1409523258732,-0.16280572,3.6613328,-3.3022027,0.10165143,9.513563,-2.3774247
1409523258756,-0.9576807,3.2070332,-2.4779987,0.11614962,9.422189,-2.7164783
1409523258756,-2.03148,2.5785553,-1.6112977,0.015725173,9.356271,-2.9377441
1409523258764,-2.2230163,2.420538,-1.4736311,-0.26894826,9.318447,-3.043787
1409523258772,-1.9752164,2.6797101,-1.9746178,-0.61105,9.272626,-3.132955
1409523258786,-2.4827871,2.693477,-2.8975825,-0.9108769,9.194932,-3.2854123
1409523258811,-3.5009215,2.4301147,-3.3584664,-1.2694777,9.0483885,-3.5616634
1409523258813,-3.83192,2.6192567,-2.6671407,-1.7817265,8.817349,-3.9051497
1409523258814,-4.036624,3.4063504,-1.6412252,-2.31815,8.598302,-4.106793
1409523258848,-4.0653543,4.6722846,-0.17238252,-2.8424559,8.45413,-4.076582
1409523258850,-3.9737763,6.0160303,1.8459295,-3.3106081,8.442603,-3.7326596
1409523258851,-3.1292217,8.003817,5.4683566,-3.682621,8.568795,-3.0305839
1409523258857,-1.3509283,12.4289,12.491149,-3.7916281,8.871057,-1.7602116
1409523258883,6.3751607,19.325996,19.317616,-3.331819,9.211852,0.459497
1409523258884,19.050064,19.608511,11.445481,-3.4078448,9.192229,0.24478404
1409523258885,16.73128,19.608511,8.649054,-3.498631,9.161109,0.06368129
1409523258914,12.318767,17.961899,7.717709,-3.56136,9.136903,-0.06433541
1409523258915,8.8088665,11.088146,3.2453403,-3.5527763,9.137084,-0.24873589
1409523258916,3.5482068,6.349423,6.384139,3.2641819,8.648149,3.2749054
1409523258942,1.9452889,6.2991447,7.837419,3.463083,8.512598,3.4224405
1409523258944,1.5873557,8.08462,5.602432,3.364021,8.38648,3.8106022
1409523258945,0.9463082,7.703344,0.973243,3.202346,8.367756,3.9869823
1409523258953,1.3533225,6.729502,-6.2327056,3.0700934,8.482181,3.8467531
1409523258983,0.25977087,9.873688,-13.336302,3.0072582,8.78289,3.160319
1409523258984,-2.0859482,14.91468,-12.567763,2.814072,9.244713,1.6693368
1409523258985,-1.9925743,17.696144,-6.330868,2.2421615,9.543112,0.26859125
1409523259015,-1.2348095,16.754623,-0.37828386,1.6661911,9.659811,-0.28679585
1409523259016,-1.7417817,14.613608,3.5087025,1.2680191,9.721869,-0.21852475
1409523259017,-4.022857,13.271659,3.405752,0.93846464,9.760867,0.12316684
1409523259045,-4.0916905,13.75409,3.0400376,0.46094945,9.788639,0.3748102
1409523259045,-3.0190883,13.649942,3.3117795,0.058657795,9.79223,0.52838725
1409523259047,-3.4835634,11.558607,-0.9840169,-0.17471302,9.781095,0.68562466
1409523259052,-2.4929626,9.929952,-3.6661212,-0.42552134,9.785481,0.48338467
1409523259074,-1.163582,9.077616,-3.2632968,-0.5852321,9.788789,0.086655825
1409523259074,-1.067814,8.149862,-2.3343468,-0.63111985,9.784306,-0.19858563
1409523259086,-1.7992426,7.3657618,-1.5269021,-0.70213354,9.77479,-0.36180985
1409523259110,-2.7994204,6.67683,-1.3706805,-0.842776,9.7592745,-0.46551815
1409523259111,-3.2770636,6.2249246,-1.5382746,-1.0978358,9.729447,-0.5504427
1409523259113,-3.2160115,6.329671,-1.7914615,-1.3751874,9.688108,-0.6479452
1409523259139,-2.3493104,7.1143703,-1.733402,-1.6086756,9.643644,-0.7633276
1409523259140,-1.2761095,8.1402855,-1.5286977,-1.7188662,9.616296,-0.86185545
1409523259168,-0.83856916,8.924387,-1.3754689,-1.699563,9.613717,-0.92645735
1409523259169,-2.0159178,9.93893,-1.5454572,-1.6416447,9.619933,-0.9655664
1409523259170,-1.9806033,12.023083,-1.8177977,-1.7034395,9.6048975,-1.0072839
1409523259215,-1.1959038,11.376049,-2.2649148,-1.7093767,9.598975,-1.0526854
1409523259216,-0.12928689,9.953295,-3.0986955,-1.6331311,9.603242,-1.1318209
1409523259216,0.86849666,8.954913,-4.805163,-1.4465865,9.61266,-1.2940357
1409523259220,2.331354,8.883087,-4.1000705,-1.1666633,9.602543,-1.6125879
1409523259220,3.8600516,8.663419,-2.6940753,-0.7669813,9.601578,-1.8417019
1409523259236,4.7925935,8.99741,-0.86011696,-0.26674408,9.603483,-1.9678235
1409523259237,5.3606176,8.771158,-0.6865373,0.24556598,9.609644,-1.9403168
1409523259262,5.2846017,7.474099,-0.41000703,0.7428683,9.5970125,-1.8750706
1409523259263,5.161899,6.666056,0.09995792,1.2113928,9.556663,-1.8366061
1409523259266,4.96318,7.2065473,-0.919972,1.6432004,9.511803,-1.7308711
1409523259285,3.6577415,7.9810715,-1.7465701,2.0256226,9.448119,-1.6734073
1409523259285,3.2860417,8.8088665,-2.236783,2.2266772,9.4029875,-1.6721672
1409523259300,3.469797,9.679159,-1.2629414,2.3406742,9.365393,-1.7265683
1409523259304,3.3375173,10.30225,-0.24241292,2.4437246,9.347498,-1.68015
1409523259321,3.165733,10.737994,1.0019734,2.522386,9.352296,-1.5305212
1409523259326,2.9191303,10.66976,2.2703018,2.5572994,9.381598,-1.2713028
1409523259333,2.7898436,10.127473,2.9191303,2.5762856,9.41726,-0.9210607
1409523259361,2.7970262,9.691729,2.96881,2.5847547,9.44317,-0.5621198
1409523259362,2.3870192,9.649231,2.4061728,2.5982273,9.4529505,-0.24763373
1409523259364,0.047884032,9.285313,2.7180176,2.5707586,9.4636545,-0.028866176
1409523259392,-2.111686,8.860342,3.086126,2.3305976,9.523617,0.19864304
1409523259393,-0.12449849,9.991004,1.0821792,1.9135888,9.607946,0.4426086
1409523259394,2.581548,11.76391,-2.2278047,1.7189971,9.644418,0.44791883
1409523259419,4.1659107,12.754511,-5.2085857,1.8258927,9.635075,0.042860653
1409523259419,3.8085763,12.773664,-6.261436,2.037005,9.571984,-0.630959
1409523259441,3.4614172,13.065159,-6.7971387,2.1114771,9.494532,-1.2513669
1409523259442,4.1264067,12.026075,-1.401805,2.0824583,9.423194,-1.7427515
1409523259446,3.911527,9.841965,5.2965727,2.1458519,9.428121,-1.6359105
1409523259453,4.642956,10.058042,8.620323,2.2772794,9.497026,-0.8893121
1409523259482,7.513005,12.748526,11.021708,2.5174649,9.476875,0.14680268
1409523259483,9.039309,14.113819,9.696517,2.9040015,9.293131,1.1725535
1409523259485,9.267955,14.300567,5.0278234,3.2700815,9.049376,1.8936148
1409523259523,8.399458,13.6888485,-2.8646624,3.5012412,8.920954,2.0804574
1409523259525,5.9202623,12.318168,-6.540959,3.687395,8.94938,1.5754794
1409523259526,5.065532,12.584522,-5.825093,3.7523823,9.019743,0.85687757
1409523259527,3.3327289,13.652935,-7.4363904,3.748461,9.0572,0.29423225
1409523259533,2.336741,15.207371,-4.7656584,3.619976,9.108164,-0.3278475
1409523259569,2.0829554,14.66688,3.1148565,3.3845737,9.178549,-0.6850538
1409523259577,1.0600328,12.735357,6.962937,3.1939812,9.26617,-0.32711542
1409523259578,0.44891283,11.389816,5.9843073,3.0178108,9.324439,0.3435627
1409523259612,0.7966706,10.866683,4.5525746,2.8464994,9.340289,0.90931064
1409523259613,1.4634558,10.306439,2.3307555,2.6918368,9.34487,1.2640424
1409523259613,2.6689363,9.304466,-1.5544355,2.6022627,9.358477,1.3481629
1409523259614,2.6378117,7.599795,-4.755483,2.645402,9.379484,1.0942996
1409523259615,2.2637177,7.121553,-4.654927,2.7154043,9.402734,0.62095195
1409523259634,1.6591818,7.8446016,-4.0827127,2.7505314,9.410589,0.21392742
1409523259635,1.4610616,10.919954,-4.2281604,2.720649,9.420763,-0.13296354
1409523259656,1.9572599,16.490065,-6.0764837,2.6092906,9.442552,-0.44745195
1409523259657,1.9249382,19.608511,-4.317344,2.4459465,9.459167,-0.8437375
1409523259665,-0.16400282,19.608511,-1.6543933,2.2502353,9.493684,-0.9883323
1409523259683,-3.4374752,19.608511,-5.919664,1.9156173,9.572633,-0.9303189
1409523259688,-5.185242,14.803947,-8.890868,1.3761141,9.624685,-1.2814509
1409523259722,-5.109226,8.814852,-6.220136,0.7941548,9.603351,-1.8208176
1409523259723,-3.3135753,8.883087,-2.3894134,0.034760494,9.597809,-2.0127673
1409523259724,-0.2208651,8.97287,-1.4862007,0.034760494,9.597809,-2.0127673
1409523259725,0.03172317,7.6865845,-4.796783,0.034760494,9.597809,-2.0127673
1409523259733,-0.5363012,6.529587,-5.1984105,0.051629357,9.540534,-2.268466
1409523259772,-1.4041992,4.992509,-3.799598,0.01792188,9.45907,-2.5876784
1409523259774,-1.412579,3.6996403,-1.3994108,-0.09644377,9.401941,-2.7865007
1409523259776,-0.19692309,3.845088,0.5967548,-0.23642713,9.397672,-2.792528
1409523259778,0.030526072,4.083311,0.59495914,-0.2606421,9.446062,-2.6218932
1409523259785,0.11791443,4.0533834,-0.008978256,-0.24179077,9.4900875,-2.4597137
1409523259822,0.16819267,4.0821137,-0.8595184,-0.20325895,9.513109,-2.3727305
1409523259824,0.32800564,4.2742486,-1.0121487,-0.14636235,9.513196,-2.3765726
1409523259825,-0.2861071,4.0144777,-1.1504139,-0.06269921,9.509284,-2.3958347
1409523259856,-0.92775315,3.655946,-1.3700819,-0.07777754,9.500103,-2.4315343
1409523259856,-1.2988545,3.3854012,-1.3892355,-0.20259699,9.483601,-2.4881086
1409523259857,-1.6065093,3.0753522,-1.5532384,-0.38706827,9.461459,-2.549781
1409523259858,-2.2421699,2.8161798,-2.1398177,-0.6085071,9.422306,-2.649573
1409523259867,-2.837129,2.867655,-2.4762032,-0.936129,9.336925,-2.8488355
1409523259884,-3.1944637,3.0663738,-2.4516625,-1.3482758,9.207322,-3.0947983
1409523259885,-3.4650085,3.4524388,-2.3535004,-1.7968881,9.054368,-3.3105927
1409523259898,-3.2237926,4.1282024,-1.4449008,-2.2530441,8.892789,-3.4658976
1409523259919,-2.991555,4.689044,0.09816227,-2.6291087,8.804336,-3.4266374
1409523259920,-2.765303,5.4881086,1.7770962,-2.9432168,8.818701,-3.1206367
1409523259936,-2.0326772,7.271789,5.5120506,-3.1677685,8.932521,-2.519064
1409523259936,0.038905777,11.6442,13.022063,-3.194136,9.177994,-1.3161798
1409523259955,9.662399,19.092562,17.480665,-2.648342,9.396728,0.92637914
1409523259956,19.397821,19.608511,7.529764,-2.7390223,9.388924,0.7185282
1409523259967,19.607914,19.608511,8.282143,-2.8292317,9.373516,0.55051106
1409523259984,16.476896,17.37951,8.021772,-2.8849025,9.364622,0.38931465
1409523260002,10.447099,10.298658,5.602432,-2.8641422,9.37707,0.19393331
1409523260002,4.563947,7.019201,6.4008985,4.267478,8.271469,3.088985
1409523260014,2.1086931,6.695385,5.8203044,4.387418,8.15437,3.2291176
1409523260015,1.7238252,8.798093,2.930503,4.225281,8.135311,3.4834025
1409523260032,1.1773487,8.659229,-2.4486697,3.9864607,8.249306,3.4967809
1409523260033,0.40761283,12.138004,-8.458116,3.811522,8.4774065,3.1267052
1409523260052,-1.2814964,18.121712,-10.078991,3.5100822,8.891274,2.1897366
1409523260053,-1.4862007,19.608511,-4.9242744,2.923781,9.298978,1.0727992
1409523260065,-1.9357121,18.517954,4.8620253,2.3347216,9.508623,0.55276924
1409523260083,-0.29628247,14.415488,9.294291,1.7901539,9.601966,0.8763533
1409523260085,-4.9254713,8.969876,-2.9831753,1.520523,9.56744,1.5239778
1409523260103,-5.499481,8.326435,-7.666234,0.9785029,9.6909485,1.13949
1409523260108,-3.2082303,9.375694,-4.675277,0.44765434,9.789755,0.3615233
1409523260114,-2.7162218,9.032125,-1.5227122,0.18874592,9.804736,-0.043599434
1409523260142,-2.248754,7.900267,-1.5771804,-0.023302587,9.805955,-0.11448523
1409523260143,-1.5191209,6.9946604,-1.7256209,-0.22292359,9.801198,-0.23914145
1409523260146,-1.697489,6.4481835,-1.4969746,-0.35647583,9.791748,-0.40617412
1409523260180,-2.3995886,6.5625067,-1.3215994,-0.50803536,9.779241,-0.52796316
1409523260181,-2.5803509,7.24665,-1.0295067,-0.7371757,9.758959,-0.6242408
1409523260182,-1.99437,7.7374616,-0.7086837,-0.9715253,9.735634,-0.66629183
1409523260188,-1.3910311,7.901464,-0.415394,-1.1129453,9.720952,-0.6594385
1409523260209,-0.90740246,8.137293,-0.046686932,-1.1734163,9.716177,-0.62403023
1409523260210,-0.688333,8.738836,0.20949265,-1.1830499,9.718793,-0.5620012
1409523260214,-0.7565677,9.86471,0.3489549,-1.1731005,9.724315,-0.48159626
1409523260235,-1.2946646,11.969811,0.40940848,-1.166667,9.729189,-0.39006665
1409523260236,-2.5677812,14.605229,-0.08738836,-1.1843317,9.73015,-0.3032383
1409523260245,-2.3948002,15.14153,-0.8714894,-1.3037761,9.715732,-0.27408472
1409523260278,-0.8738836,13.550583,-1.3305776,-1.3502736,9.708012,-0.31883442
1409523260288,0.9259575,11.723807,-1.5903485,-1.2232215,9.72233,-0.38786185
1409523260290,2.6797101,10.336966,-2.7754784,-0.95200217,9.749468,-0.4604216
1409523260316,3.2477345,7.7709804,-1.6418238,-0.5758462,9.768839,-0.6391769
1409523260317,3.7433343,7.269395,-0.54049104,-0.21409905,9.775305,-0.75365144
1409523260317,4.128801,7.331644,-0.7248446,0.15828429,9.77566,-0.76278317
1409523260318,4.2251673,7.5686703,-1.4676456,0.54358065,9.75591,-0.8349438
1409523260342,4.138976,7.3729444,-2.7329812,0.90203303,9.714305,-0.9944866
1409523260343,3.6834793,7.3442135,-3.489549,1.2277834,9.646893,-1.2650867
1409523260347,3.2609026,8.055291,-2.7371712,1.4927915,9.566368,-1.5577404
1409523260367,2.7485435,8.42759,-2.1930888,1.6941028,9.507116,-1.7073773
1409523260368,2.5941176,8.505402,-1.5394717,1.8225434,9.472954,-1.7640522
1409523260384,2.5390508,8.913613,-0.5363012,1.9212891,9.455688,-1.7518626
1409523260399,2.3211784,9.314043,1.5544355,1.995118,9.458736,-1.6499192
1409523260400,2.3780408,9.956886,3.0340521,2.0520403,9.495726,-1.3381759
1409523260415,2.486977,10.035296,3.520075,2.0929203,9.537988,-0.9038138
1409523260416,1.9081788,9.871892,2.7994204,2.1288033,9.56101,-0.47507662
1409523260430,-0.7625532,9.405622,3.5643678,2.0983772,9.577811,-0.18095176
1409523260434,-3.2692823,8.662222,4.5154643,1.8121076,9.636504,0.15643544
1409523260449,0.23702596,10.4405155,1.9919758,1.3138822,9.701915,0.56299293
1409523260463,4.049194,12.755708,-0.6697779,1.2090511,9.710394,0.645631
1409523260468,5.348048,13.337499,-3.4931402,1.5216554,9.682027,0.33659035
1409523260482,4.5795093,12.582129,-6.907272,1.8922642,9.619232,-0.24516222
1409523260498,4.4478283,12.98615,-6.615778,2.055231,9.537245,-0.9936584
1409523260499,4.0456023,10.303447,3.5685577,2.1156287,9.455834,-1.5105287
1409523260514,3.810372,8.16363,12.03625,2.2287068,9.501683,-0.95981973
1409523260514,6.68102,10.332177,14.714764,2.418246,9.493277,0.44742316
1409523260530,7.9421654,12.632407,9.934141,2.8526645,9.191943,1.8817192
1409523260534,7.5746555,13.767857,0.2741361,3.1653366,8.925919,2.5453908
1409523260551,7.467515,13.709798,-6.737882,3.3638377,8.931637,2.2540705
1409523260554,7.459734,13.523648,-6.724714,3.474641,9.05342,1.4604312
1409523260566,6.4523735,13.086108,-5.1726727,3.5990655,9.0913,0.75192285
1409523260581,4.419098,12.075755,-4.336498,3.6775632,9.087546,0.24987376
1409523260595,2.4067712,11.891401,-4.935647,3.6538773,9.099102,-0.16107085
1409523260595,1.1049241,12.58153,-1.9303252,3.507547,9.138115,-0.6019497
1409523260612,1.3700819,13.881581,4.378995,3.2626698,9.21768,-0.7481866
1409523260614,3.2435448,16.318878,6.9252286,3.0259027,9.322868,-0.31368455
1409523260630,4.1305966,15.845426,4.7536874,2.9272852,9.352117,0.37323067
1409523260646,3.5422213,13.119028,1.2330139,2.9210522,9.328046,0.7908178
1409523260649,2.984971,10.486005,-0.61530983,2.9098935,9.32296,0.8861922
1409523260665,2.7754784,8.001422,-0.47764325,2.9072366,9.32949,0.8240075
1409523260666,2.4702177,7.1065893,0.2885013,2.9532883,9.319986,0.7657088
1409523260679,2.9532478,8.065467,-0.86131406,3.0029202,9.305189,0.7525503
1409523260695,3.4117374,8.508394,-2.2170308,3.0564027,9.2966385,0.63346773
1409523260695,3.1316159,8.306683,-2.3451207,3.1513226,9.278184,0.39352542
1409523260711,2.8245595,8.696339,-2.5779567,3.2159631,9.262571,0.18093175
1409523260714,2.7407625,11.008539,-3.2208,3.2272267,9.260393,-0.022520605
1409523260731,2.700061,17.191565,-5.7640405,3.1663654,9.277514,-0.26871377
1409523260766,1.5747862,19.608511,-5.0517654,2.9671905,9.323236,-0.66588867
1409523260769,-0.09935937,19.608511,-3.116652,2.668264,9.393852,-0.8979532
1409523260770,-3.8019924,19.608511,-7.6333137,2.2960632,9.486376,-0.95247126
1409523260772,-6.009446,14.905702,-7.700351,1.7264386,9.553975,-1.3825227
1409523260808,-6.2392898,8.413225,-6.2805896,1.0668023,9.575414,-1.8286072
1409523260808,-4.944625,7.03177,-1.3928268,0.44832903,9.559144,-2.1429336
1409523260809,-2.2182279,8.064868,0.8571242,0.018308248,9.587281,-2.0625405
1409523260810,-1.1420342,8.46051,-2.5683799,-0.13203853,9.632458,-1.8353971
1409523260814,-0.7038953,7.8027034,-4.9440265,-0.18748328,9.612265,-1.9337963
1409523260835,-1.42455,5.9382186,-6.302736,-0.21261254,9.546175,-2.2351143
1409523260836,-1.4760253,2.9017725,-1.6801311,-0.3068993,9.439458,-2.640609
1409523260846,-0.31483752,3.7834373,0.12330139,-0.44767815,9.410818,-2.7214801
1409523260875,-0.9780314,4.349067,1.5598224,-0.48149386,9.442016,-2.6051662
1409523260876,-0.92296475,4.4795513,1.3359646,-0.571333,9.510705,-2.32174
1409523260877,-0.59256494,4.1695023,-0.93254155,-0.642756,9.566907,-2.0570693
1409523260904,-0.16879122,3.870227,-2.034473,-0.668048,9.5611105,-2.0758789
1409523260905,-0.61171854,3.3991678,-2.5103204,-0.6298409,9.521711,-2.2606888
1409523260906,-1.536479,3.052607,-1.9093759,-0.6575045,9.457038,-2.510479
1409523260915,-2.3403323,3.0041246,-1.75076,-0.8232115,9.402159,-2.663104
1409523260929,-2.6001031,2.8550856,-1.4059949,-1.1248772,9.334803,-2.7868428
1409523260949,-3.1040826,2.746748,-1.4173675,-1.4730453,9.263748,-2.8606806
1409523260950,-3.4440591,2.8898015,-1.4993688,-1.9057046,9.162209,-2.931318
1409523260971,-3.8935704,3.0160956,-1.7082629,-2.3757558,9.03181,-2.9920933
1409523260972,-4.2521024,3.2668881,-1.4999673,-2.8796444,8.859439,-3.0640461
1409523260975,-4.289212,4.159327,-0.3585317,-3.3901105,8.669614,-3.0847025
1409523261006,-3.9312792,5.7119665,1.54845,-3.8266704,8.562377,-2.8657782
1409523261008,-2.5582044,7.2328835,4.107253,-4.1078725,8.599173,-2.3130121
1409523261014,-0.23822308,10.195708,8.553286,-4.0842843,8.808974,-1.3751198
1409523261016,3.2208,16.686987,16.591219,-3.5431335,9.1429,0.15485227
1409523261054,13.376405,19.608511,18.664598,-3.6416569,9.105423,-0.005235106
1409523261055,19.607914,19.608511,3.0107086,-3.749845,9.059964,-0.16154116
1409523261056,18.113932,19.50197,-1.3892355,-3.8313808,9.022953,-0.27783403
1409523261056,12.205042,13.043013,5.233126,-3.8546746,9.004293,-0.4842886
1409523261095,8.169615,8.306085,7.650073,3.467784,8.758334,2.7269824
1409523261096,2.722806,4.5483847,8.5473,3.8575242,8.506177,2.9891255
1409523261097,1.5388732,4.720767,5.995081,4.0042415,8.304855,3.3415298
1409523261098,1.3371617,7.5590935,0.9816227,3.9505222,8.239361,3.5604343
1409523261115,1.043872,9.915586,-5.635352,3.7865696,8.373145,3.4238446
1409523261116,-0.59855044,13.302185,-10.338761,3.5810084,8.709396,2.7373705
1409523261133,-1.9081788,17.384897,-8.710705,3.1396942,9.156887,1.5697576
1409523261135,-1.6861166,19.608511,-3.080739,2.49539,9.465995,0.5816956
1409523261146,-2.6497827,18.483835,5.354632,1.9314475,9.61064,0.27479506
1409523261175,1.471237,16.591219,16.671425,1.3833199,9.680887,0.732989
1409523261176,-2.3002293,11.164762,-0.65062433,1.2826798,9.685064,0.85126424
1409523261176,-4.2676644,9.236232,-9.530719,0.9288427,9.618506,1.6709225
1409523261207,-2.6330233,9.1751795,-6.6606693,0.4974304,9.768707,0.7037822
1409523261207,-2.2744915,8.238448,-1.5496471,0.26641852,9.802545,0.0975305
1409523261208,-1.9925743,7.167641,1.6340426,0.0854872,9.8062315,0.029928029
1409523261215,-1.5269021,6.1758432,1.6897079,-0.09349801,9.804093,0.20347825
1409523261229,-1.1139023,6.1303535,0.78529817,-0.22066736,9.7976885,0.356345
1409523261248,-1.0773908,6.479907,0.053869538,-0.3036118,9.794854,0.37290606
1409523261249,-1.2210429,6.907272,-0.5081693,-0.39041752,9.793822,0.31465366
1409523261262,-1.4215573,7.719505,-1.2641385,-0.50479144,9.791345,0.21254326
1409523261275,-1.2276269,9.008782,-1.7489643,-0.6408729,9.785586,0.04462297
1409523261276,-1.2234371,9.871892,-2.1787236,-0.73977304,9.777597,-0.14744821
1409523261296,-0.9211691,10.643424,-2.5192988,-0.8226091,9.765897,-0.34781903
1409523261296,-0.4321534,11.488577,-2.381632,-0.8463433,9.753732,-0.5646446
1409523261313,0.13467385,11.649587,-1.9554642,-0.8213433,9.745636,-0.7199893
1409523261318,0.21308395,11.499949,-2.1703439,-0.7398976,9.744781,-0.8137622
1409523261345,0.34237084,11.733982,-3.0538042,-0.6584608,9.740703,-0.9249513
1409523261345,0.6015432,11.258734,-4.1066546,-0.5585708,9.726059,-1.1234679
1409523261346,1.0486604,10.061034,-4.372411,-0.4269391,9.694738,-1.414266
1409523261372,1.353921,9.024943,-3.99293,-0.26470265,9.655358,-1.6954008
1409523261373,1.400608,8.385692,-3.193865,-0.1063051,9.617707,-1.9128041
1409523261376,1.4251486,8.051102,-2.633622,0.050784577,9.594206,-2.0295358
1409523261407,1.7501614,8.125322,-2.2296004,0.19396877,9.580143,-2.0865307
1409523261408,2.7365725,8.3408,-0.15562311,0.3639454,9.569977,-2.1103272
1409523261409,2.7688942,8.545505,-0.5374983,0.6218268,9.592435,-1.9413673
1409523261417,2.541445,8.032547,-0.50397944,0.8529677,9.594691,-1.8397667
1409523261440,2.0817583,7.7009497,-0.8355764,1.0363281,9.58796,-1.7797322
1409523261441,1.3982137,7.651869,-0.6889315,1.160224,9.576035,-1.7674469
1409523261447,1.09834,7.844003,0.31064767,1.2067734,9.579972,-1.7141309
1409523261463,1.0720038,8.295909,0.6338649,1.2171172,9.605643,-1.5558339
1409523261477,1.6298528,9.140464,0.90979666,1.2178154,9.635612,-1.3573233
1409523261477,2.1649568,9.654618,1.115698,1.2700042,9.657401,-1.1366993
1409523261499,2.5911248,10.055647,1.3461399,1.3721999,9.667213,-0.91238856
1409523261500,2.9311013,10.455479,1.388637,1.5037293,9.666601,-0.682645
1409523261506,2.9442697,10.944494,1.2174516,1.6436967,9.65632,-0.4734591
1409523261516,3.0651767,11.402985,1.1821371,1.7531487,9.643751,-0.30807444
1409523261529,3.3117795,11.735778,1.1737574,1.8478224,9.629403,-0.17472354
1409523261545,3.5577838,12.012907,1.1378443,1.9453237,9.611549,-0.06524346
1409523261549,2.6880898,11.438298,1.2892777,2.0483181,9.590323,0.022167116
1409523261566,1.0576386,10.162787,1.4628572,2.0692248,9.58525,0.10820699
1409523261567,1.3162124,10.2735195,0.9672575,1.9606144,9.606595,0.19938947
1409523261575,2.6970682,11.250953,-0.18614918,1.8879707,9.620818,0.21409123
1409523261599,3.7415388,11.647193,-0.96546185,1.944508,9.611585,0.08208003
1409523261600,4.5842977,11.451467,-0.9816227,2.0736172,9.584329,-0.105554715
1409523261622,4.9081135,11.023503,-0.26874915,2.257104,9.539551,-0.26987448
1409523261623,4.187459,11.639412,0.82240826,2.445179,9.491307,-0.32647505
1409523261627,3.977966,13.171103,1.1025299,2.5398242,9.469322,-0.22713031
1409523261659,4.961983,14.122797,3.2507274,2.5722911,9.462918,-0.082975805
1409523261660,6.5744777,13.603255,7.8452005,2.6670878,9.433944,0.24029812
1409523261661,8.477868,12.935872,8.072051,2.888108,9.326679,0.9177628
1409523261693,8.237251,12.767679,2.0751743,3.2208633,9.145197,1.4703046
1409523261694,6.8444242,12.616246,-2.4702177,3.4874237,9.038593,1.5205638
1409523261695,5.671265,14.195222,-2.0799627,3.6177223,9.035158,1.2035017
1409523261696,5.1146135,15.585056,0.30166942,3.6022446,9.073641,0.9291247
1409523261723,4.1156325,12.955026,3.3686419,3.540317,9.104583,0.8620476
1409523261727,2.8431146,10.794258,4.9003325,3.5231175,9.088437,1.076272
1409523261729,2.131438,10.080188,3.2752678,3.4920545,9.052446,1.4244927
1409523261754,1.2096704,9.296086,3.7217865,3.4199643,9.046903,1.6210408
1409523261755,1.9829975,10.963648,3.0101101,3.266151,9.062129,1.8386048
1409523261756,3.685275,10.547057,-0.9223662,3.156866,9.083289,1.9231349
1409523261780,2.9622262,8.5473,-4.2413282,3.198024,9.116487,1.6830659
1409523261782,2.5971103,8.548497,-4.772841,3.2319555,9.178567,1.2160518
1409523261795,2.724003,11.098322,-5.1583076,3.215034,9.233041,0.7648115
1409523261796,2.6330233,15.912463,-7.8942814,3.1564286,9.279175,0.3228842
1409523261819,2.6372132,19.608511,-6.4936733,3.004953,9.330423,-0.28957593
1409523261820,1.9297266,19.608511,-3.8013937,2.7964983,9.376932,-0.6504678
1409523261827,-0.74399817,19.608511,-7.7967176,2.5677903,9.433379,-0.76694566
1409523261854,-3.549404,18.049288,-11.741165,2.1768558,9.487712,-1.1895316
1409523261855,-5.140351,10.441712,-9.548077,1.6223555,9.481477,-1.9078585
1409523261855,-5.2397103,7.642292,-3.1519666,1.0475082,9.43619,-2.4559038
1409523261882,-3.6888664,7.780557,2.1230583,0.55225164,9.462964,-2.5135067
1409523261883,-2.0296845,9.096769,0.9876082,0.2538748,9.555812,-2.1891575
1409523261887,-1.1097125,8.702325,-2.385822,0.12041721,9.604439,-1.9775385
1409523261895,-1.5029601,7.0784574,-4.036624,0.052444767,9.593105,-2.0346892
1409523261923,-2.6090813,4.8638206,-5.6826377,-0.06334639,9.543558,-2.2554176
1409523261924,-2.7449522,3.3033998,-5.115212,-0.28326106,9.446353,-2.6185086
1409523261927,-0.65900403,3.5392287,-1.7818847,-0.52777225,9.330495,-2.9721537
1409523261954,-0.48602295,3.6445735,1.3144168,-0.56842977,9.3096695,-3.0294096
1409523261955,-0.4961983,3.8899791,0.90740246,-0.60389954,9.386392,-2.775132
1409523261956,-0.8062474,3.0256724,-1.5107412,-0.6386489,9.444318,-2.562696
1409523261981,-0.7715315,2.542642,-1.638831,-0.6972955,9.411632,-2.6655965
1409523261982,-1.2228385,2.367267,-1.4850036,-0.743113,9.371978,-2.7900143
1409523261996,-1.7741034,2.3918076,-1.8974048,-0.88217914,9.325913,-2.9016428
1409523261996,-2.1583729,2.4480712,-2.1619642,-1.0941384,9.251825,-3.0621831
1409523262010,-2.7754784,2.2810757,-2.742558,-1.3768015,9.150484,-3.2470682
1409523262027,-3.5458126,2.7132292,-3.4530375,-1.7543741,8.986947,-3.511036
1409523262029,-4.1575313,3.6966474,-3.4835634,-2.2155879,8.751657,-3.8301537
1409523262044,-4.4167037,4.609437,-1.9973627,-2.6987154,8.511315,-4.055221
1409523262047,-5.2361193,5.313332,0.39384618,-3.158218,8.38991,-3.975607
1409523262064,-6.6391215,6.35062,4.4753613,-3.7029302,8.372577,-3.515493
1409523262067,-6.473323,8.762179,10.278907,-4.3856835,8.433839,-2.4096777
1409523262075,-2.4115596,13.940239,17.27596,-4.768818,8.553232,-0.5205942
1409523262098,8.455722,19.508554,18.330606,-4.83171,8.506943,-0.67597157
1409523262099,19.079393,19.608511,1.2779051,-4.914427,8.439705,-0.88893193
1409523262107,17.280748,19.608511,3.4141316,-4.9969244,8.364285,-1.113498
1409523262133,14.155119,17.118542,5.2002063,-5.028432,8.302076,-1.4002733
1409523262134,11.780669,8.956709,5.8005524,-5.0132256,8.248288,-1.7331202
1409523262136,6.025607,4.5286326,6.6864066,3.2358267,8.787947,2.9106386
1409523262169,3.6290112,4.3077674,7.6889787,3.786816,8.525111,3.0253735
1409523262170,4.7243586,7.314286,3.614646,3.9249952,8.315486,3.4084442
1409523262172,5.4019175,9.39365,-4.529231,3.9489338,8.290286,3.4420145
1409523262176,3.1663318,10.465654,-12.987347,4.0813265,8.474611,2.7738333
1409523262200,-0.4830302,13.909714,-14.434044,4.047443,8.816904,1.4320543
1409523262201,-1.5167267,18.616116,-8.732851,3.538921,9.145843,0.0017015432
1409523262210,-0.15263036,19.608511,1.9009962,2.8499763,9.358741,-0.6797186
1409523262228,-0.17776948,18.117523,9.993997,2.35511,9.515155,-0.29273868
1409523262228,-6.093842,13.572131,4.4981065,1.9660629,9.587481,0.62065333
1409523262241,-7.3843164,10.66138,-0.545878,1.2416282,9.687587,0.8828463
1409523262265,-4.490924,11.044453,-0.5518635,0.51962316,9.771465,0.6471708
1409523262266,-4.402937,10.626065,-1.8674773,0.14445391,9.794302,0.47028834
1409523262269,-3.5649664,8.920795,-3.1950622,-0.17307518,9.801639,0.26133648
1409523262276,-1.7274165,7.632715,-2.908955,-0.4432702,9.796551,-0.038792267
1409523262297,-1.371279,6.893505,-2.1278467,-0.552258,9.78626,-0.3074386
1409523262298,-1.9626468,6.2464724,-1.5741876,-0.64773566,9.773581,-0.47742668
1409523262307,-2.4265234,5.852626,-0.9528923,-0.82740885,9.754454,-0.5799994
1409523262324,-2.0679917,5.7855883,-0.2825158,-1.0598552,9.729451,-0.6203943
1409523262330,-1.6573862,6.019023,0.05865794,-1.2328525,9.711143,-0.586691
1409523262349,-0.9403227,6.6163764,0.21906945,-1.3347566,9.701868,-0.5124055
1409523262366,-0.30226797,7.5668745,0.24839842,-1.3395172,9.705432,-0.42504427
1409523262368,-0.018555064,8.857947,0.16519992,-1.2630105,9.718491,-0.35516697
1409523262369,-0.03232172,10.325593,-0.032920275,-1.1575629,9.734013,-0.28192434
1409523262376,-0.3866636,12.257714,-0.5327099,-1.0615147,9.746083,-0.23969433
1409523262401,-0.5602432,13.410522,-1.0642227,-1.0014956,9.752277,-0.24587902
1409523262402,-0.18315643,12.8448925,-1.0193313,-0.94874346,9.756254,-0.29291883
1409523262408,0.7278373,11.680113,-0.94810385,-0.8466151,9.764867,-0.31779456
1409523262439,1.5652094,10.700286,-0.66858083,-0.652919,9.779492,-0.32497996
1409523262440,2.1499932,9.266758,-1.6304513,-0.4175524,9.792538,-0.31974438
1409523262441,2.4732103,8.437167,-3.532046,-0.13276362,9.797645,-0.39862955
1409523262472,3.0933087,8.310274,-2.4372973,0.16967312,9.781805,-0.67667294
1409523262473,3.454833,8.219893,-1.8207904,0.49998644,9.754665,-0.8757303
1409523262474,3.6727054,8.037335,-2.7431567,0.81336427,9.71244,-1.0850542
1409523262477,4.249708,8.187572,-2.9628246,1.0873228,9.643657,-1.409956
1409523262505,4.214992,8.291719,-3.0777464,1.3782479,9.560789,-1.6917858
1409523262506,3.8935704,8.762778,-3.5087025,1.6428099,9.478194,-1.9066681
1409523262509,3.2944214,9.356541,-2.497751,1.8470558,9.397827,-2.1070404
1409523262526,2.6485856,9.12131,0.018555064,1.9646283,9.362674,-2.1566172
1409523262527,2.308609,9.448717,0.35314476,2.0378904,9.392252,-1.9501296
1409523262542,1.99437,9.642049,0.6757634,2.08167,9.426,-1.7284642
1409523262565,1.459266,9.267356,1.0995371,2.0918818,9.462874,-1.4994849
1409523262566,1.0121487,9.118318,0.919972,2.0466735,9.508064,-1.2562749
1409523262570,0.729633,9.279327,0.5895722,1.9475551,9.553095,-1.0563351
1409523262576,0.79487497,9.667188,0.50158525,1.8265965,9.591928,-0.910418
1409523262598,1.2395979,10.152014,0.44831428,1.714946,9.622844,-0.7938827
1409523262599,1.7938557,10.588956,0.31304187,1.6631299,9.639757,-0.69245327
1409523262608,2.1721394,10.954071,0.20350714,1.6758245,9.64291,-0.613457
1409523262630,1.905186,11.488577,1.395221,1.720521,9.63851,-0.5561711
1409523262649,-0.27473465,10.979809,5.0547585,1.717541,9.647132,-0.39147624
1409523262651,0.48961425,11.394605,3.9971197,1.5049566,9.689949,0.10197949
1409523262652,3.0382419,13.2668705,0.75716627,1.3821543,9.700401,0.4028189
1409523262656,5.015254,14.727333,-1.7423803,1.4965693,9.686373,0.32382396
1409523262676,5.5042696,13.877392,-1.3623008,1.7552888,9.648061,-0.0651286
1409523262677,4.189853,9.711481,5.5341973,2.0002172,9.594531,-0.33837533
1409523262693,6.000468,10.724827,9.919776,2.1672199,9.562093,0.19976036
1409523262708,9.414599,15.02182,8.453926,2.4693754,9.40389,1.2804037
1409523262709,9.888652,15.461755,-0.015562311,2.9038785,9.144736,2.0277188
1409523262726,6.9611416,13.936648,-3.620033,3.2311668,9.070907,1.8570364
1409523262728,5.7496753,13.374011,-4.5322237,3.325852,9.113889,1.4304323
1409523262739,5.7987566,14.013861,-4.9506106,3.3829904,9.167704,0.82401603
1409523262758,3.8630445,14.0713215,-0.35314476,3.4244604,9.184827,0.28708297
1409523262758,2.2409728,11.488577,6.013636,3.3546045,9.213007,0.19366585
1409523262774,2.7126305,10.523713,5.497087,3.2614114,9.222786,0.68833447
1409523262776,3.4518404,11.7543335,2.054225,3.2576427,9.173626,1.1843665
1409523262791,2.7802668,11.423933,0.16938977,3.2757816,9.148213,1.3228178
1409523262805,3.1747115,9.239823,-1.1366472,3.2109044,9.180107,1.2594182
1409523262810,4.605247,8.998607,-4.1264067,3.206216,9.198557,1.1300825
1409523262823,2.7832594,7.48188,-4.9972973,3.3330667,9.195068,0.7153886
1409523262828,1.6603789,7.5525093,-4.353257,3.3677056,9.206564,0.26103622
1409523262838,1.3790601,9.961076,-4.003105,3.3075476,9.231363,-0.11168694
1409523262862,1.9351135,15.020623,-4.708796,3.165859,9.2725115,-0.41018358
1409523262863,2.949058,19.594746,-5.781399,2.967572,9.320446,-0.7022826
1409523262871,3.490746,19.608511,-3.328539,2.7787957,9.353677,-0.9784688
1409523262876,0.6907272,19.608511,-4.9548006,2.6475043,9.38805,-1.0127409
1409523262899,-3.642778,17.651253,-9.168595,2.341225,9.447357,-1.1985263
1409523262901,-6.233304,9.916783,-8.998009,1.7615105,9.486214,-1.7547607
1409523262908,-6.469133,7.2286935,-4.732738,1.0956513,9.455928,-2.3569765
1409523262924,-4.027047,8.051102,0.7170634,0.49468365,9.454383,-2.557409
1409523262943,-1.8106151,8.584411,2.4372973,0.16580723,9.539792,-2.2661178
1409523262943,-0.9780314,8.426991,-1.0426749,0.06460954,9.625561,-1.8747816
1409523262961,-0.6691794,8.603564,-3.7912183,0.0148538705,9.630556,-1.8500147
1409523262962,-1.0103531,8.301296,-4.547188,-0.016954642,9.592344,-2.0388916
1409523262975,-1.7926586,6.671443,-3.3806129,-0.09752309,9.536093,-2.2855647
1409523262977,-2.5264814,4.787206,-1.8782512,-0.24510866,9.501047,-2.4166934
1409523262993,-2.6521769,3.86484,-1.7429788,-0.48681614,9.483187,-2.450018
1409523263010,-1.8830396,3.9971197,-1.1246762,-0.74355286,9.4516735,-2.5066733
1409523263011,-1.6861166,4.433463,-0.88525605,-0.9047086,9.433836,-2.520834
1409523263024,-1.4664485,4.392163,-1.9602526,-1.035984,9.423845,-2.5076516
1409523263028,-0.5847838,4.2598834,-2.3289597,-1.1354086,9.383736,-2.6128006
1409523263038,-0.29568392,4.185663,-1.9434932,-1.1163301,9.344681,-2.757023
1409523263058,-0.74878657,4.021062,-1.5951369,-1.0713037,9.318925,-2.8601332
1409523263058,-1.4544775,3.7948096,-1.7938557,-1.1045496,9.2998495,-2.9091537
1409523263072,-2.2008698,3.7499185,-2.0045455,-1.250472,9.258385,-2.9814444
1409523263076,-3.6487634,3.6176388,-1.9776106,-1.492824,9.189736,-3.0806859
1409523263088,-4.219182,3.6739025,-1.3120226,-1.9364196,9.077065,-3.1666346
1409523263106,-4.549582,4.156334,0.018555064,-2.447932,8.960371,-3.144805
1409523263113,-4.4358573,4.8500543,1.5490485,-2.9736838,8.885383,-2.894404
1409523263139,-3.6888664,5.6964045,2.4768016,-3.4300642,8.864643,-2.4131157
1409523263141,-2.4522612,6.563704,4.0144777,-3.7043488,8.899644,-1.8012631
1409523263142,-0.12449849,8.22109,6.2404866,-3.7309294,9.012496,-1.0126663
1409523263172,4.697424,12.12304,10.287286,-3.3349798,9.22213,0.024468027
1409523263175,13.837289,19.377472,9.600749,-2.1526766,9.45687,1.4505053
1409523263180,15.311519,19.608511,10.657789,-2.2617872,9.457573,1.2684808
1409523263212,17.725471,19.594746,10.144831,-2.3569133,9.457267,1.0841787
1409523263213,16.81388,13.927072,6.9796963,-2.4150918,9.4600525,0.9193049
1409523263213,8.7125,7.073669,4.2024226,-2.3657277,9.484135,0.7905034
1409523263214,2.6898856,4.0414124,4.3448777,4.279259,8.290348,3.0213346
1409523263216,0.8750807,4.931457,2.6366146,4.3314548,8.214215,3.152069
1409523263241,1.0827777,5.810129,-1.6729485,4.1028,8.285011,3.2704775
1409523263242,1.1384429,6.269217,-9.510367,3.9754846,8.458319,2.9703116
1409523263265,-0.54887074,11.710639,-12.652159,3.9448907,8.769705,1.9236683
1409523263266,-1.822586,18.386272,-9.519944,3.4988327,9.148206,0.48876917
1409523263269,-1.673547,19.608511,-2.32058,2.7431703,9.405161,-0.4340048
1409523263277,-3.0466216,18.672977,13.810354,2.0961032,9.567472,-0.4901499
1409523263297,-2.6509798,13.239936,14.256274,2.0227432,9.589435,-0.34879
1409523263298,-5.945401,8.456919,-2.6138697,0.98012483,9.5743885,1.8817146
1409523263308,-3.6391866,10.414778,-8.280945,0.35931846,9.696009,1.424325
1409523263323,-2.517503,13.152547,-5.5844755,0.03382263,9.795451,0.4672993
1409523263338,-3.5392287,12.307992,-1.0073603,-0.09955504,9.806031,-0.047311347
1409523263339,-3.5996823,8.819042,-1.6831238,-0.3605689,9.799547,-0.096165866
1409523263363,-2.1643584,8.119935,-2.486977,-0.63562334,9.784261,-0.18604092
1409523263364,-1.8842367,7.7308774,-2.1547816,-0.7924183,9.766449,-0.39867696
1409523263368,-1.6986861,7.227496,-1.6950948,-0.9103445,9.747751,-0.56834894
1409523263379,-1.5753847,6.871359,-1.1085154,-1.0238109,9.730247,-0.6667056
1409523263399,-1.62686,7.102998,-0.44771573,-1.1340284,9.715227,-0.706203
1409523263400,-1.4760253,7.791331,0.10295067,-1.2397419,9.70463,-0.67347246
1409523263433,-0.82001406,8.574235,0.006584055,-1.3096706,9.701509,-0.57953215
1409523263434,-0.15382746,9.585785,-0.060453594,-1.28699,9.708185,-0.5149429
1409523263435,0.12629414,10.708067,-0.1436521,-1.1925374,9.723331,-0.45285696
1409523263438,-0.43634325,12.069769,-0.6422446,-1.0729572,9.739039,-0.4126665
1409523263465,-0.7781156,12.935872,-1.3910311,-1.0204014,9.744279,-0.4221613
1409523263466,-0.16938977,12.692861,-1.6238673,-0.99533916,9.743602,-0.49186674
1409523263471,0.66379243,11.87943,-1.411382,-0.8891972,9.750141,-0.56076753
1409523263504,1.4251486,10.786477,-1.6561891,-0.7003989,9.763829,-0.58946556
1409523263505,1.8130093,9.599552,-2.3361423,-0.47836885,9.773135,-0.6537159
1409523263506,2.3181858,8.6496525,-2.2026656,-0.23056437,9.773814,-0.7679823
1409523263511,3.1322143,8.342596,-1.9865888,0.04686609,9.766116,-0.88946027
1409523263535,3.9600096,8.037335,-1.264737,0.3830353,9.747009,-1.0096753
1409523263536,4.4280763,7.5686703,-1.3365631,0.7626777,9.717934,-1.0726079
1409523263538,4.5082817,7.3083005,-2.4851813,1.144291,9.669436,-1.1674771
1409523263563,4.6178164,7.3968863,-2.223615,1.4919115,9.590135,-1.404956
1409523263563,4.955399,8.13849,-1.863886,1.815826,9.505446,-1.5873543
1409523263569,4.8602295,8.911818,-1.8070238,2.1356392,9.425354,-1.6649768
1409523263589,4.148553,9.364322,-1.4251486,2.395351,9.356642,-1.6987971
1409523263591,3.3476925,9.237429,0.09636662,2.537702,9.321268,-1.6865482
1409523263612,2.5330653,8.496424,1.365892,2.6022313,9.330726,-1.5285048
1409523263613,2.3678656,8.724471,1.4927847,2.6210935,9.363997,-1.271141
1409523263618,2.2906525,9.059061,1.2982559,2.6267538,9.392061,-1.0294491
1409523263644,2.1284454,9.145252,0.7661445,2.6140275,9.415609,-0.8267882
1409523263645,1.6519991,9.182362,0.41000703,2.575132,9.437662,-0.6853173
1409523263651,1.459266,9.235633,0.30705637,2.4828732,9.4679365,-0.60326165
1409523263657,1.5310919,9.233837,0.3417723,2.3762891,9.499312,-0.53544474
1409523263678,1.9512744,9.370307,0.23822308,2.2940705,9.523127,-0.46658218
1409523263679,2.208651,9.51336,-0.055066638,2.270059,9.531312,-0.4138719
1409523263689,1.6861166,9.866506,0.7637503,2.2775857,9.530176,-0.39842972
1409523263713,-1.3204023,9.7958765,3.8959646,2.222176,9.546681,-0.30526862
1409523263714,0.1412579,11.056423,2.4319103,1.8703961,9.626132,0.098023444
1409523263718,4.1413703,13.362638,-0.87448215,1.6751281,9.658023,0.29484367
1409523263765,6.567894,15.213356,-1.7764976,1.8753883,9.625464,0.061118342
1409523263766,7.385514,16.038757,-2.3840263,2.2392428,9.542356,-0.31565294
1409523263768,6.4948707,15.316905,2.5809495,2.5359023,9.449955,-0.66177744
1409523263772,5.502474,11.797429,15.681422,2.6935403,9.419461,-0.4346756
1409523263773,7.9966335,11.948263,18.29589,2.8591933,9.328938,0.98301417
1409523263805,9.454104,13.974357,6.551733,2.8789449,9.334567,0.8648358
1409523263806,7.2101383,13.135189,-4.5040917,3.4802241,8.739796,2.7702718
1409523263807,5.475539,12.650962,-7.6907744,3.5770438,8.8362875,2.3011272
1409523263810,5.4366336,13.852851,-8.175002,3.599463,9.003565,1.4663237
1409523263827,5.319318,13.032238,-6.453571,3.5768576,9.102877,0.7170108
1409523263830,4.6680946,10.793061,-1.2198458,3.607668,9.117611,0.15590134
1409523263837,4.0821137,9.569624,3.1866825,3.6569734,9.099061,0.06362667
1409523263861,4.4155064,10.313622,3.321955,3.7105155,9.07082,0.35026935
1409523263862,4.4580035,10.056845,0.92176765,3.770824,9.031651,0.61689085
1409523263877,5.0092683,9.455301,-0.97982705,3.8107882,9.011607,0.6627428
1409523263906,5.380968,8.662222,-3.9151182,3.9121013,8.976942,0.5294811
1409523263907,4.8775873,8.087613,-5.005079,4.0506983,8.928724,0.20028073
1409523263908,3.9492357,8.289924,-4.7602715,4.1718736,8.873191,-0.17982991
1409523263910,3.2399535,10.180145,-4.346673,4.213598,8.840696,-0.5080061
1409523263921,2.9939492,14.762049,-5.695806,4.1337013,8.859808,-0.765991
1409523263939,2.31639,19.519926,-7.9086466,3.896859,8.934038,-1.0806749
1409523263940,1.1534066,19.608511,-5.431845,3.5196815,9.035569,-1.4631159
1409523263956,-0.97503865,19.608511,-5.1559134,3.131575,9.153827,-1.6034626
1409523263957,-5.300164,19.478626,-7.0449386,2.6497185,9.287871,-1.6984771
