time,acc_x,acc_y,acc_z,gravity_x,gravity_y,gravity_z
1409347356657,-1.0229226,1.3347675,9.597756,-1.4423162,1.1197789,9.635155
1409347356674,-1.0893618,1.3503298,9.86471,-1.4155852,1.0929817,9.642194
1409347356675,-1.2084733,1.3994108,9.930551,-1.3973078,1.0755358,9.64682
1409347356690,-1.2336124,1.4562732,9.904813,-1.3901595,1.0688663,9.648594
1409347356694,-1.3204023,1.3599066,9.863512,-1.4028876,1.0731736,9.646274
1409347356706,-1.5388732,1.1869255,9.760562,-1.4413173,1.0813771,9.639689
1409347356721,-1.5191209,1.1701661,9.523536,-1.4915197,1.095593,9.630444
1409347356725,-1.3491327,1.1845313,9.356541,-1.5510743,1.1135148,9.618973
1409347356738,-1.3024458,1.1683705,9.360131,-1.6039592,1.1307417,9.608284
1409347356756,-1.276708,1.1833342,9.399037,-1.6422306,1.1418327,9.600504
1409347356756,-1.1821371,1.1869255,9.483433,-1.6610433,1.1417964,9.597272
1409347356776,-1.0905589,1.1683705,9.579201,-1.6590884,1.1282566,9.599211
1409347356777,-0.9923966,1.1150994,9.6528225,-1.6424831,1.1086028,9.604355
1409347356795,-0.9600749,1.1085154,9.725846,-1.6166943,1.0824842,9.611708
1409347356796,-0.94331545,1.1426327,9.782708,-1.5881848,1.056066,9.619396
1409347356810,-0.8774749,1.0923545,9.727641,-1.5598484,1.0336883,9.626461
1409347356825,-0.8798691,0.9888053,9.60015,-1.5387155,1.0178902,9.631544
1409347356827,-0.943914,0.96546185,9.458893,-1.5289836,1.0095026,9.633977
1409347356839,-0.9415198,1.0480618,9.3343935,-1.5301303,1.00761,9.633993
1409347356845,-0.9163807,1.1192893,9.24521,-1.5381591,1.0112226,9.632336
1409347356856,-0.94451255,1.1402385,9.141661,-1.5492897,1.0166246,9.629983
1409347356874,-1.0121487,1.1115081,9.072228,-1.5615046,1.0210638,9.62754
1409347356876,-1.0540473,1.1438298,9.03871,-1.5752466,1.0203708,9.625374
1409347356888,-1.1115081,1.2138603,9.194333,-1.5903723,1.0128937,9.623676
1409347356894,-1.2725182,1.2725182,9.48044,-1.6070108,0.99795556,9.622473
1409347356906,-1.4263457,1.3012487,9.711481,-1.6257918,0.9759963,9.62157
1409347356923,-1.5622166,1.3772645,9.939528,-1.647723,0.9511466,9.620328
1409347356927,-1.6089035,1.5765818,9.98442,-1.673747,0.9290236,9.617997
1409347356938,-1.6095021,1.6921021,9.694122,-1.7026386,0.9163845,9.614138
1409347356957,-1.6124948,1.7226281,9.202713,-1.7314259,0.9175942,9.608879
1409347356957,-1.5334862,1.7968484,8.881889,-1.759555,0.9318223,9.602398
1409347356971,-1.353921,1.9536686,9.011775,-1.7827593,0.95541257,9.595798
1409347356974,-1.1043255,2.03148,9.293693,-1.7965904,0.9853474,9.590189
1409347356987,-0.9139865,1.9482816,9.568427,-1.8018255,1.0195509,9.585631
1409347356994,-0.85173726,1.775899,9.829395,-1.8098674,1.0593976,9.579793
1409347357006,-0.94930094,1.5969325,9.794679,-1.8338578,1.1025059,9.570362
1409347357023,-1.2258313,1.453879,8.59698,-1.8684734,1.1575712,9.557156
1409347357028,-1.4083891,1.6891093,8.397662,-1.9285733,1.2252488,9.536758
1409347357041,-1.8680758,1.8166006,8.55149,-2.0107534,1.3004321,9.509791
1409347357060,-2.457648,1.9758149,9.147048,-2.112451,1.3686907,9.478113
1409347357061,-3.008913,1.9722236,9.770737,-2.2227695,1.4209388,9.445137
1409347357075,-3.2243912,1.9632454,10.06283,-2.327615,1.456116,9.414474
1409347357075,-3.0992942,2.0147207,9.846753,-2.4163694,1.4870856,9.387232
1409347357090,-3.0262709,2.0380642,9.4535055,-2.4834685,1.5224447,9.364024
1409347357094,-3.2728736,2.0949266,9.151836,-2.5392249,1.5722594,9.34081
1409347357107,-3.3075895,1.6801311,8.648455,-2.579389,1.6364757,9.318749
1409347357124,-2.847903,2.336741,7.8649526,-2.6097853,1.7029421,9.298354
1409347357126,-2.6964695,2.554613,8.007407,-2.6384976,1.7709244,9.27753
1409347357140,-2.5037365,2.2541409,8.019978,-2.681594,1.833818,9.252921
1409347357156,-2.9370868,1.8650831,8.208521,-2.732647,1.8904485,9.22655
1409347357157,-3.252523,1.7232267,8.546701,-2.768685,1.9426281,9.204942
1409347357171,-3.2040405,1.8836381,9.135675,-2.7936664,1.9888755,9.187502
1409347357174,-2.6527755,2.4390929,11.042058,-2.7999732,2.0303335,9.176508
1409347357191,-2.2224178,2.4809916,11.641207,-2.796806,2.0734994,9.167817
1409347357194,-2.794632,1.5125369,10.248381,-2.8040445,2.1247456,9.153861
1409347357206,-4.2221746,1.6430209,5.5862713,-2.8429272,2.1888487,9.126724
1409347357220,-5.93343,3.6661212,3.6379895,-2.9354646,2.2889469,9.072715
1409347357243,-3.8600516,2.7808652,10.852917,-3.090483,2.418653,8.987181
1409347357244,-3.0358477,2.9604304,7.653664,-3.2307558,2.5126843,8.911736
1409347357257,-2.2589293,1.839944,9.36073,-3.3167305,2.5077798,8.881482
1409347357257,-2.1859062,0.9355343,10.380061,-3.2010636,2.385868,8.957188
1409347357272,-2.3798366,0.6703765,11.865065,-3.063723,2.1986728,9.052614
1409347357274,-1.9758149,0.5650316,12.42052,-2.9811888,1.9888667,9.128379
1409347357289,-1.074398,0.5189432,12.483368,-2.9138339,1.7941794,9.19026
1409347357305,0.04369418,-0.11731588,13.00291,-2.8548868,1.6224635,9.240542
1409347357306,0.30765492,-0.6793547,12.727576,-2.7936525,1.4521456,9.287473
1409347357321,-0.88046765,-1.3084313,12.3989725,-2.7406821,1.2893039,9.327205
1409347357326,-2.6270378,-1.3694834,12.078149,-2.7317643,1.1369079,9.349615
1409347357339,-3.8935704,-0.44651863,11.5155115,-2.79767,1.0175073,9.343881
1409347357354,-4.256891,0.581791,11.222222,-2.911437,0.9607253,9.315091
1409347357355,-4.0563765,1.2862848,10.552444,-3.0056355,0.9729765,9.283849
1409347357370,-3.851672,1.8596961,9.582193,-3.0459409,1.0468277,9.262655
1409347357374,-3.5116954,2.2786815,9.173983,-3.0407026,1.1741067,9.249107
1409347357391,-2.920926,2.2038627,9.399636,-3.010332,1.3235487,9.238858
1409347357408,-1.9087774,2.184709,9.176376,-2.964342,1.4999981,9.226758
1409347357408,-1.276708,1.8237832,8.32045,-2.8944144,1.6855065,9.21693
1409347357426,-1.8148049,-0.27234045,8.778939,-2.8141534,1.8593237,9.208357
1409347357427,-2.291251,-0.33518824,9.533113,-2.7540224,1.9896234,9.199302
1409347357438,-1.927931,1.3186066,8.7538,-2.7203655,2.0814054,9.189002
1409347357455,-2.2882583,2.2918496,8.313866,-2.7052982,2.1512496,9.177357
1409347357455,-3.7870286,3.0992942,7.731476,-2.7270892,2.2116258,9.156532
1409347357472,-4.1784806,3.3357215,7.2981253,-2.7773552,2.2479968,9.132535
1409347357474,-3.7576995,3.0502129,6.545149,-2.8480368,2.2594206,9.107914
1409347357490,-3.2872388,2.2870612,5.713164,-2.9157393,2.24355,9.090398
1409347357504,-3.0897174,1.7872716,5.773019,-2.9848156,2.202732,9.077953
1409347357506,-2.835932,1.3934253,7.268198,-3.066565,2.1490483,9.063562
1409347357529,-2.303222,0.3345897,8.986037,-3.1538157,2.088221,9.047826
1409347357530,-2.1416135,-2.018312,9.809643,-3.2191994,2.014619,9.041485
1409347357535,-1.4269443,-2.534861,9.64564,-3.2476926,1.9175677,9.052393
1409347357556,-1.4496891,-1.3383588,9.041702,-3.2581809,1.8208965,9.068571
1409347357557,-2.3439236,0.046088383,8.573038,-3.254393,1.7478557,9.08429
1409347357568,-2.8078,0.9020155,8.898649,-3.2655134,1.696928,9.089952
1409347357574,-3.0310593,0.9211691,8.838196,-3.30399,1.6544179,9.083883
1409347357588,-3.37762,0.64703304,8.198345,-3.368876,1.616871,9.066796
1409347357603,-3.6421793,0.48123455,7.3460093,-3.4479592,1.5843747,9.042771
1409347357607,-3.4123359,0.19572599,6.5325794,-3.539899,1.5538629,9.012492
1409347357619,-3.1824925,-0.25797522,5.668871,-3.6398861,1.525413,8.977457
1409347357627,-3.3441012,-0.18614918,4.7979803,-3.7540565,1.4948219,8.935488
1409347357638,-3.4931402,0.29029694,3.7978024,-3.872787,1.4602666,8.890418
1409347357654,-3.9282866,0.6003461,3.1112652,-3.9833019,1.4158266,8.84868
1409347357655,-3.5434184,-1.2617443,3.2441432,-4.0783353,1.3484224,8.815857
1409347357671,-3.2136173,-2.3391352,2.8281507,-4.1493363,1.239157,8.798743
1409347357677,-3.1489737,-2.3894134,2.831742,-4.1969957,1.0831125,8.796731
1409347357694,-2.802413,-2.2427685,3.4997244,-4.224112,0.9021317,8.804172
1409347357695,-2.918532,-2.160767,3.4985273,-4.2401175,0.6652232,8.817554
1409347357708,-3.1376014,-2.819771,4.144363,-4.2349253,0.37073857,8.837327
1409347357724,-2.9933507,-3.9576154,6.091448,-4.195634,0.010481062,8.863799
1409347357738,-2.6276364,-5.094861,7.5207863,-4.12864,-0.4259034,8.885005
1409347357739,-2.3181858,-5.93343,9.386468,-4.0436563,-0.93484575,8.885117
1409347357755,-2.368464,-5.787384,11.013328,-3.944628,-1.480296,8.855452
1409347357755,-2.8832173,-4.8859673,12.150574,-3.848193,-2.0164883,8.79179
1409347357769,-3.6373909,-3.8923733,12.950835,-3.759754,-2.4890697,8.708569
1409347357775,-4.0982747,-3.2758665,13.5535755,-3.6892877,-2.8680353,8.621712
1409347357789,-4.282628,-3.259107,13.771448,-3.6360326,-3.1553888,8.543604
1409347357802,-4.4885297,-3.5823243,13.889961,-3.5984411,-3.3769803,8.474527
1409347357806,-4.5382094,-3.6703112,13.393165,-3.5823781,-3.5526276,8.409268
1409347357820,-4.466982,-3.5727475,12.365453,-3.5977204,-3.6965978,8.340382
1409347357837,-4.435259,-3.6619315,11.209054,-3.650883,-3.814975,8.263619
1409347357838,-4.772841,-4.1144357,10.080188,-3.7433662,-3.9247072,8.170329
1409347357852,-5.4899044,-4.466982,8.879496,-3.8545456,-4.018584,8.0724125
1409347357854,-6.1608796,-4.7363296,7.8823104,-3.996763,-4.1037426,7.959622
1409347357871,-6.43741,-4.936844,7.621941,-4.16474,-4.1897936,7.8275757
1409347357875,-6.4619503,-5.1810527,8.197746,-4.3540716,-4.290851,7.6681833
1409347357889,-6.2243257,-5.3408656,9.157822,-4.5510616,-4.4149504,7.481072
1409347357904,-6.18123,-5.089474,10.764331,-4.7368674,-4.555274,7.2788706
1409347357907,-6.4805055,-5.199009,11.3138,-4.900704,-4.6906404,7.0817647
1409347357920,-6.9826894,-5.3983264,11.389217,-5.0472283,-4.8183475,6.8905296
1409347357936,-7.653664,-5.4384294,10.911574,-5.187151,-4.93529,6.7012506
1409347357937,-8.261791,-5.6545057,10.164583,-5.328547,-5.0314155,6.516274
1409347357954,-8.325836,-5.7843914,9.473258,-5.481777,-5.097888,6.3349857
1409347357955,-7.5650787,-5.909488,8.594585,-5.6481137,-5.127427,6.162685
1409347357969,-6.487688,-5.8125234,7.5788455,-5.8219576,-5.1205807,6.004569
1409347357975,-5.903503,-5.158906,6.634333,-6.000715,-5.084561,5.857393
1409347357987,-5.9442043,-4.731541,6.0681043,-6.1815195,-5.034897,5.7104306
1409347358004,-6.5619082,-4.9176903,6.0489507,-6.364441,-4.97401,5.5608907
1409347358008,-7.341221,-5.45459,6.5026517,-6.5423145,-4.92679,5.394
1409347358019,-7.9068513,-5.6377463,6.8408327,-6.7053,-4.9046583,5.210918
1409347358037,-8.236652,-5.78918,6.7522473,-6.8437185,-4.8998737,5.0324078
1409347358038,-8.511387,-5.9388175,6.330868,-6.9574304,-4.897924,4.87595
1409347358055,-8.347384,-5.6580973,5.5419784,-7.052429,-4.8887324,4.7469935
1409347358056,-7.795521,-5.2325277,4.5795093,-7.1402035,-4.8715663,4.632033
1409347358069,-7.3831196,-4.981137,3.6176388,-7.227664,-4.846188,4.521694
1409347358075,-7.227496,-4.7949877,3.317765,-7.3210273,-4.810631,4.408037
1409347358097,-7.009624,-4.659715,3.8977604,-7.418675,-4.769147,4.288229
1409347358098,-7.3909006,-4.7387238,4.5741224,-7.5108128,-4.729696,4.1698985
1409347358106,-8.21271,-4.951209,5.011064,-7.581437,-4.7029085,4.071222
1409347358116,-8.924985,-5.0667295,5.153519,-7.618479,-4.696804,4.0086417
1409347358138,-9.285313,-5.3701944,5.231331,-7.629766,-4.704072,3.9785395
1409347358139,-9.401431,-5.6138043,5.471948,-7.6301975,-4.7126513,3.9675417
1409347358156,-9.084799,-5.6060233,5.7843914,-7.633109,-4.7111964,3.9636679
1409347358157,-8.423999,-5.379771,5.9759274,-7.638947,-4.690281,3.9772022
1409347358175,-7.6560583,-5.0523643,5.8759694,-7.647975,-4.648884,4.008334
1409347358176,-7.340024,-4.6740804,5.5222263,-7.665606,-4.5916142,4.040538
1409347358188,-7.359776,-4.329315,5.0810947,-7.7017646,-4.5274124,4.0442247
1409347358203,-7.3687544,-4.3065705,4.7626657,-7.7619634,-4.466908,3.9961293
1409347358207,-7.27957,-4.5040917,4.497508,-7.8418097,-4.416454,3.895042
1409347358220,-7.095815,-4.455011,4.074931,-7.934679,-4.371693,3.754938
1409347358236,-6.9743094,-4.0743327,3.684078,-8.025321,-4.3339033,3.60304
1409347358237,-6.861782,-3.6709096,3.3117795,-8.117575,-4.298084,3.4353795
1409347358255,-6.7480574,-3.5625722,2.6862943,-8.208006,-4.263461,3.2591324
1409347358256,-6.7761893,-3.8163576,2.0602105,-8.294372,-4.232372,3.0758424
1409347358271,-7.1826053,-4.39336,1.7741034,-8.375195,-4.206917,2.8858864
1409347358296,-7.9307933,-4.663306,2.034473,-8.450026,-4.1860123,2.6916096
1409347358297,-8.58022,-4.7189717,1.5747862,-8.515098,-4.165925,2.5116847
1409347358297,-8.650849,-4.795586,0.99179804,-8.570026,-4.1547575,2.3373098
1409347358318,-8.462306,-4.812944,0.40222588,-8.608976,-4.1635365,2.1727574
1409347358319,-8.208521,-4.835689,0.22505496,-8.64647,-4.1802187,1.9836142
1409347358342,-7.9888525,-5.0451818,0.6895301,-8.690083,-4.190833,1.7577811
1409347358343,-6.880337,-5.181651,1.0546459,-8.733713,-4.193882,1.5178889
1409347358369,-7.062895,-5.360019,0.78410107,-8.770123,-4.192198,1.2964743
1409347358371,-7.6560583,-5.3606176,0.054468088,-8.7985325,-4.189155,1.0987223
1409347358372,-8.550891,-5.3396683,-0.415394,-8.820543,-4.1882234,0.90950704
1409347358400,-9.213487,-5.3803697,-0.35434186,-8.832801,-4.20048,0.7127362
1409347358401,-9.467871,-5.2301335,0.11312603,-8.836845,-4.2222767,0.50290453
1409347358401,-9.211691,-4.8243165,0.86131406,-8.836402,-4.243426,0.28588966
1409347358408,-8.607155,-4.177882,1.5053543,-8.835317,-4.254244,0.09480945
1409347358421,-8.10138,-3.4620156,2.304419,-8.83898,-4.247417,-0.047839027
1409347358488,-7.7213006,-3.0945058,3.259107,-8.850435,-4.2215953,-0.13540012
1409347358489,-7.326257,-3.4320881,3.9516299,-8.865211,-4.1889687,-0.17589813
1409347358491,-7.1083846,-4.321534,3.9205053,-8.879497,-4.15787,-0.1924778
1409347358492,-7.2221093,-4.7764325,2.391209,-8.886833,-4.1428146,-0.17791502
1409347358493,-7.8428063,-4.9158945,-0.044292733,-8.883357,-4.1510286,-0.15907617
1409347358493,-8.772355,-5.3660045,-2.7455509,-8.867109,-4.185244,-0.1687766
1409347358501,-9.848549,-5.8520274,-5.04997,-8.836012,-4.2467394,-0.24591304
1409347358667,-10.737994,-5.952584,-6.133945,-8.790115,-4.328594,-0.4093024
1409347358667,-11.128249,-5.66947,-6.2464724,-8.735577,-4.4124584,-0.6247607
1409347358668,-10.670957,-5.2444987,-5.683835,-8.67878,-4.4890666,-0.83514327
1409347358668,-9.555858,-4.993108,-4.4460325,-8.629497,-4.545822,-1.0186591
1409347358669,-8.310274,-4.7614684,-2.8880057,-8.599202,-4.574619,-1.1388474
1409347358669,-7.2029557,-4.429273,-1.246182,-8.590329,-4.5747395,-1.2035034
1409347358670,-6.223727,-4.0581717,0.14185645,-8.59445,-4.5604696,-1.2279867
1409347358671,-5.5180364,-3.7708676,1.2276269,-8.599754,-4.5504303,-1.2280861
1409347358671,-4.8626237,-3.678691,2.0560207,-8.597635,-4.555491,-1.2241548
1409347358672,-4.282628,-3.6888664,2.4917655,-8.58776,-4.5717125,-1.2329639
1409347358672,-3.8792052,-3.3913867,3.116652,-8.563818,-4.612066,-1.2491099
1409347358672,-3.5194764,-3.0125043,2.8963854,-8.525885,-4.675081,-1.2740877
1409347358675,-3.5302503,-3.7660792,2.2056582,-8.475754,-4.7587857,-1.2984527
1409347358675,-4.045004,-5.2720323,1.9632454,-8.412152,-4.8673015,-1.3097593
1409347358676,-5.0421886,-6.459556,1.1941081,-8.326564,-5.011602,-1.3124659
1409347358676,-6.432023,-7.103596,0.019752163,-8.214314,-5.192328,-1.3172545
1409347358677,-7.711125,-7.3968863,-0.6500258,-8.083964,-5.3950343,-1.3090255
1409347358677,-8.348581,-7.4507556,-0.7823054,-7.949808,-5.5979505,-1.2782358
1409347358722,-9.156625,-7.736264,-1.0720038,-7.8161273,-5.798573,-1.2062725
1409347358723,-9.858724,-7.7254906,-1.9201498,-7.6959276,-5.982579,-1.0732278
1409347358723,-11.21444,-7.5944076,-2.6060886,-7.5930943,-6.140639,-0.89881533
1409347358724,-11.84651,-6.8348475,-2.144606,-7.5071344,-6.2680464,-0.7245192
1409347358724,-9.883863,-5.3701944,-0.7942764,-7.4344563,-6.36911,-0.57766163
1409347358766,-8.069656,-5.0942626,0.29149407,-7.3677716,-6.455233,-0.46507862
1409347358767,-7.4776907,-5.6904187,0.9463082,-7.299651,-6.5380564,-0.37323707
1409347358767,-6.6965823,-6.1129956,0.47524905,-7.2238398,-6.625063,-0.30833972
1409347358768,-6.2362967,-6.505645,-0.40940848,-7.129243,-6.727179,-0.29889503
1409347358769,-5.8532248,-6.9330096,-0.92296475,-7.018298,-6.840077,-0.3566943
1409347358783,-4.2730513,-7.581838,-0.670975,-6.8975406,-6.9554715,-0.46448967
1409347358789,-3.9971197,-8.1480665,-0.50278234,-6.77226,-7.069176,-0.5776273
1409347358802,-4.1665096,-7.9092455,-0.053869538,-6.6535754,-7.173915,-0.6597509
1409347358819,-4.5364137,-7.515998,0.6392518,-6.5456085,-7.2690606,-0.6972392
1409347358819,-4.759074,-6.8360443,1.2372037,-6.4424777,-7.3606744,-0.69666815
1409347358836,-4.655525,-6.254852,1.5957354,-6.3344693,-7.454974,-0.68428475
1409347358836,-4.159327,-5.9489927,1.578976,-6.2115183,-7.559327,-0.6663419
1409347358853,-3.679888,-6.5762734,0.878672,-6.0671597,-7.6754346,-0.6690779
1409347358855,-3.9360676,-8.34499,0.6428431,-5.8947163,-7.804608,-0.71469593
1409347358868,-4.875193,-10.920552,0.08439561,-5.6908364,-7.9459314,-0.80434275
1409347358883,-5.5377884,-12.764687,-1.3395559,-5.4533935,-8.097263,-0.93016744
1409347358889,-5.3618145,-13.27106,-2.5629928,-5.199799,-8.24405,-1.0807824
1409347358902,-4.368221,-11.959636,-1.7238252,-4.948097,-8.378968,-1.2163961
1409347358918,-3.879804,-11.036672,-0.7032967,-4.749748,-8.483779,-1.2789801
1409347358918,-3.891775,-10.552444,-0.5626374,-4.616925,-8.564479,-1.2264237
1409347358934,-4.359243,-10.581175,-0.7846996,-4.5280666,-8.6334915,-1.0629419
1409347358936,-5.1762643,-11.267113,-1.1162965,-4.450449,-8.696726,-0.85490793
1409347358949,-5.8268886,-11.741165,-1.0959458,-4.365076,-8.755683,-0.6741865
1409347358955,-6.160281,-11.35929,-0.9528923,-4.2688966,-8.8126135,-0.53364986
1409347358969,-6.149507,-10.514735,-1.0121487,-4.173299,-8.8646345,-0.41499504
1409347358980,-5.9142766,-9.874287,-0.842759,-4.085872,-8.909607,-0.30814788
1409347358988,-5.723339,-9.685144,-0.50038815,-4.0123286,-8.945855,-0.20814869
1409347359002,-5.2917843,-9.767146,-0.108337626,-3.9508653,-8.974842,-0.11537892
1409347359019,-5.1744685,-10.393828,0.36631286,-3.8953066,-8.99977,-0.033640552
1409347359019,-5.2385135,-10.837354,0.45848963,-3.8429098,-9.022264,0.034353666
1409347359033,-4.9601874,-10.747571,0.3321955,-3.7946274,-9.042397,0.079240166
1409347359036,-4.613028,-10.448297,0.09995792,-3.7514923,-9.060142,0.10262751
1409347359050,-3.9755719,-9.944317,-0.046088383,-3.7132316,-9.076015,0.09091515
1409347359056,-3.4219127,-9.465476,-0.090381116,-3.6884851,-9.086361,0.059104078
1409347359068,-3.1639376,-9.136872,0.16220717,-3.6803539,-9.089836,0.01686857
1409347359084,-3.2615013,-9.314642,0.86011696,-3.6860561,-9.0875,-0.027448855
1409347359089,-3.8295257,-10.29806,2.023699,-3.6996367,-9.08174,-0.071309805
1409347359100,-4.2263646,-11.022306,2.6276364,-3.7150269,-9.075085,-0.10868049
1409347359116,-4.4819455,-11.288661,2.566584,-3.7275605,-9.069515,-0.14005992
1409347359117,-4.280234,-11.113884,2.011728,-3.7398376,-9.063915,-0.17159277
1409347359134,-4.1425676,-9.903017,1.3509283,-3.747774,-9.060026,-0.20120427
1409347359136,-3.8175547,-9.053075,0.9828198,-3.7529175,-9.057421,-0.2216271
1409347359156,-3.8444893,-9.263765,0.6452374,-3.754567,-9.056691,-0.22355588
1409347359157,-4.1144357,-9.443929,0.35254622,-3.7553837,-9.056587,-0.21388319
1409347359169,-4.091092,-9.42238,0.089184016,-3.7549026,-9.05698,-0.20537254
1409347359183,-3.8241386,-9.217078,-0.11252748,-3.7530024,-9.057823,-0.20307188
1409347359187,-3.3836055,-9.029732,-0.21787235,-3.7514486,-9.05842,-0.20501724
1409347359207,-2.96881,-7.879916,-0.31124622,-3.7476902,-9.059894,-0.20876399
1409347359209,-2.4235306,-5.9585695,-0.036511578,-3.7418513,-9.062187,-0.21372357
1409347359216,-2.5558102,-4.7309427,0.66858083,-3.7291362,-9.067442,-0.21313336
1409347359236,-3.210026,-2.9113493,1.0289081,-3.6998203,-9.079732,-0.20052579
1409347359237,-3.5458126,-2.7084408,1.0654198,-3.644279,-9.102697,-0.17474507
1409347359253,-3.429694,-2.5396495,0.9295488,-3.5597103,-9.136672,-0.14157242
1409347359266,-3.0538042,-2.2888567,0.8487445,-3.4532437,-9.177864,-0.11104932
1409347359269,-2.569577,-1.9841946,0.7954735,-3.338643,-9.220426,-0.0873704
1409347359284,-2.112883,-1.7154455,0.74758947,-3.2137797,-9.264879,-0.063425265
1409347359289,-1.7603368,-1.4879963,0.7134721,-3.0812135,-9.309962,-0.033608
1409347359301,-1.8154035,-1.5652094,0.61291564,-2.9405525,-9.355395,0.010798238
1409347359317,-2.4067712,-2.0392613,0.25198972,-2.79411,-9.399873,0.07560108
1409347359317,-2.7682958,-2.4570496,-0.11911154,-2.6439655,-9.442066,0.16500703
1409347359333,-3.5296519,-3.5344403,-1.2132617,-2.494763,-9.47983,0.28175917
1409347359336,-4.6501384,-6.1046157,-3.7163997,-2.3585548,-9.5095825,0.41888034
1409347359356,-6.8599863,-14.888343,-7.6470804,-2.2408473,-9.53163,0.54500425
1409347359357,-6.427833,-19.608511,-6.981492,-2.1786778,-9.544739,0.56721175
1409347359367,0.7422025,-19.608511,-3.7271736,-2.1328418,-9.555419,0.56157804
1409347359383,5.0122614,-19.608511,-2.4289176,-1.9910309,-9.583543,0.6015901
1409347359401,1.6124948,-18.97345,-0.059855044,-1.7429528,-9.628643,0.64943385
1409347359401,0.29688102,-12.374432,1.2282255,-1.3695912,-9.687038,0.6752151
1409347359417,-0.1388637,-8.857349,1.2844892,-0.82419723,-9.756665,0.5463902
1409347359417,-0.22445641,-8.3551655,0.81343,-0.25682023,-9.799008,0.28956687
1409347359432,-0.3764882,-9.939528,0.7164649,0.25660628,-9.802595,-0.1167828
1409347359436,-0.45190558,-12.391789,0.004189853,0.64561874,-9.766592,-0.606011
1409347359450,0.44472298,-14.211383,0.95109665,0.89977354,-9.699085,-1.1351366
1409347359463,2.8161798,-13.393165,4.88477,1.0275912,-9.612549,-1.6472207
1409347359468,4.9123034,-10.703279,7.909844,1.0502234,-9.531047,-2.0558722
1409347359481,5.3079453,-8.726865,5.7538652,0.98102707,-9.479898,-2.310742
1409347359488,4.5860934,-8.302493,1.9632454,0.85482675,-9.465212,-2.41855
1409347359501,4.1665096,-8.93576,-1.0169371,0.74731183,-9.46437,-2.4571536
1409347359518,3.484162,-10.375872,-2.7269957,0.7227511,-9.486874,-2.3763883
1409347359518,3.1711202,-11.268311,-3.4494462,0.81845254,-9.51052,-2.2473395
1409347359531,3.3488896,-11.193492,-3.8073792,0.984424,-9.523132,-2.1239703
1409347359536,3.2992098,-10.433332,-3.66253,1.1631533,-9.523079,-2.0318549
1409347359550,3.1878796,-9.61691,-3.2974143,1.3146886,-9.513947,-1.9816269
1409347359567,3.122039,-9.391854,-2.8909986,1.4289743,-9.499181,-1.9733156
1409347359569,3.4398694,-9.341577,-2.4343045,1.5226144,-9.483016,-1.9810295
1409347359580,3.821146,-9.280524,-1.863886,1.5839351,-9.465905,-2.0145004
1409347359600,3.9097314,-9.36492,-1.2802993,1.614769,-9.451131,-2.0588977
1409347359600,3.6541502,-9.48044,-0.8882488,1.6240532,-9.4402685,-2.1009874
1409347359615,3.151368,-9.680955,-0.79487497,1.6237046,-9.433199,-2.1327796
1409347359616,2.6647465,-9.807249,-0.93254155,1.6204551,-9.429882,-2.1498528
1409347359631,2.2260091,-9.863512,-1.1270704,1.6156148,-9.430572,-2.150463
1409347359636,1.8249803,-9.90601,-1.3012487,1.6059242,-9.43529,-2.1369846
1409347359650,1.5442601,-9.953894,-1.3946224,1.5891432,-9.44195,-2.1200557
1409347359663,1.2378023,-9.951499,-1.1456255,1.5608631,-9.451962,-2.0963082
1409347359668,0.9020155,-9.860519,-0.46028528,1.5162156,-9.465219,-2.0690854
1409347359681,0.8050503,-9.930551,0.06404489,1.4528307,-9.481561,-2.039526
1409347359699,0.7589619,-10.105327,0.31304187,1.3730454,-9.49953,-2.0109897
1409347359699,0.8098387,-10.3214035,-0.0017956513,1.2819405,-9.517964,-1.9837779
1409347359715,0.63206923,-10.606314,-0.7978677,1.1916385,-9.535295,-1.9566754
1409347359716,0.40761283,-10.612299,-1.2485762,1.1110408,-9.550978,-1.9273938
1409347359730,0.28670564,-10.107122,-1.0941502,1.0410683,-9.565223,-1.8955326
1409347359736,0.19273324,-9.57142,-0.98581254,0.9941104,-9.577691,-1.857399
1409347359750,0.095768064,-9.439739,-1.3521254,0.9626357,-9.587484,-1.8231512
1409347359764,-0.055066638,-9.586982,-1.7160441,0.93704647,-9.59455,-1.7991573
1409347359771,-0.21308395,-9.950302,-1.9500773,0.9151804,-9.599863,-1.7819878
1409347359781,-0.17956513,-10.231621,-2.0847511,0.8971634,-9.603774,-1.7700337
1409347359800,0.0035913025,-10.160992,-2.100912,0.88044953,-9.6062,-1.7652471
1409347359801,0.23104046,-10.011354,-1.8106151,0.86184394,-9.607915,-1.765108
1409347359812,0.41000703,-9.941922,-1.632247,0.83802146,-9.609298,-1.769052
1409347359816,0.5931635,-10.3932295,-1.3581109,0.8060297,-9.610198,-1.7789906
1409347359832,0.3788824,-10.577583,-0.8026561,0.7712562,-9.610455,-1.7929666
1409347359836,0.3824737,-10.839149,-0.7565677,0.73850864,-9.609919,-1.8095535
1409347359851,0.533907,-10.370484,-0.8050503,0.7153183,-9.6075735,-1.8311951
1409347359865,0.82121116,-10.465055,-0.6871359,0.6993445,-9.603945,-1.8562139
1409347359870,0.96067345,-9.894038,-0.5907693,0.68640435,-9.600286,-1.8798298
1409347359880,1.1629834,-9.907805,-0.6548142,0.6714409,-9.5961895,-1.9059608
1409347359899,1.3497312,-10.318411,-0.74998367,0.65789896,-9.591994,-1.9316272
1409347359900,1.4000094,-10.028113,-1.0666169,0.64848,-9.588858,-1.9503073
1409347359915,1.3964181,-10.058042,-1.3144168,0.64372605,-9.586868,-1.9616199
1409347359916,1.3066356,-10.159196,-1.3096284,0.64283264,-9.586138,-1.96549
1409347359930,1.1402385,-9.950302,-1.0546459,0.6464017,-9.586096,-1.9645196
1409347359937,0.9403227,-9.921572,-0.88286185,0.6528443,-9.586547,-1.9601772
1409347359950,0.8631097,-10.62008,-0.92535895,0.65582687,-9.587598,-1.9540344
1409347359963,0.94570965,-10.834361,-1.0534488,0.6610928,-9.590102,-1.9399312
1409347359968,0.9528923,-10.355521,-1.1869255,0.66568303,-9.594101,-1.9184605
1409347359980,0.88765025,-9.934141,-1.460463,0.6685566,-9.5991745,-1.8919016
1409347359999,0.61052144,-9.862315,-1.5652094,0.67231447,-9.604069,-1.8655335
1409347359999,0.45070848,-9.940725,-1.6400281,0.6795023,-9.608201,-1.841493
1409347360013,0.45609543,-9.940725,-1.4790181,0.6909537,-9.611317,-1.8208631
1409347360016,0.46148238,-10.156203,-1.3347675,0.70247436,-9.614313,-1.8005335
1409347360029,0.52732295,-10.267534,-1.2216414,0.7121803,-9.61756,-1.7792455
1409347360037,0.58657944,-10.159196,-1.1761516,0.71880674,-9.621219,-1.7566534
1409347360051,0.5919664,-9.900024,-1.2641385,0.722517,-9.6251745,-1.7333047
1409347360060,0.50996494,-9.549872,-1.3599066,0.7250959,-9.628946,-1.7111347
1409347360078,0.29747957,-9.261371,-1.4227544,0.7291069,-9.632032,-1.6919767
1409347360080,0.14784196,-9.238626,-1.4131776,0.73447746,-9.634159,-1.6774782
1409347360094,0.12270284,-9.568427,-1.4030021,0.74016607,-9.635758,-1.6657383
1409347360097,0.14903906,-9.932345,-1.4377182,0.74464816,-9.637546,-1.6533728
1409347360115,0.3812766,-10.952275,-1.4598645,0.74410135,-9.640072,-1.6388209
1409347360117,0.61291564,-11.11149,-1.5161282,0.7390958,-9.643665,-1.6198298
1409347360131,0.8026561,-11.018715,-1.5741876,0.7318205,-9.647608,-1.5995272
1409347360158,0.83737206,-10.608707,-1.7429788,0.7226029,-9.651322,-1.5812042
1409347360159,0.8439561,-9.921572,-1.903989,0.7127432,-9.654034,-1.569071
1409347360159,0.85413146,-9.624092,-2.078167,0.7071596,-9.65514,-1.5647955
1409347360181,0.91578215,-9.806051,-2.1829133,0.70862347,-9.6551,-1.5643852
1409347360181,0.97743285,-9.928755,-2.095525,0.71521133,-9.653643,-1.5703727
1409347360196,0.9720459,-10.317214,-1.9764135,0.7267428,-9.651223,-1.57992
1409347360197,0.8912416,-10.630256,-1.8183962,0.74128366,-9.648242,-1.5913193
1409347360211,0.6871359,-10.660782,-1.6340426,0.756675,-9.644835,-1.6046748
1409347360217,0.5105635,-10.382456,-1.4742297,0.77101946,-9.641088,-1.6202924
1409347360231,0.42916065,-10.279505,-1.270124,0.7844968,-9.63703,-1.6378719
1409347360244,0.25917232,-10.102334,-1.1294646,0.7978312,-9.633284,-1.6533856
1409347360250,0.06404489,-10.039486,-1.2743138,0.8096426,-9.630047,-1.6664512
1409347360265,0.0011971008,-10.078392,-1.3341689,0.8211887,-9.62731,-1.6765851
1409347360268,-0.17417817,-10.016742,-1.2683283,0.8352684,-9.625045,-1.682629
1409347360280,-0.38307226,-10.180744,-1.2156559,0.85110277,-9.623199,-1.6852533
1409347360296,-0.47225627,-10.4883995,-1.2174516,0.86610717,-9.621422,-1.6877421
1409347360297,-0.51116204,-10.675147,-1.1522095,0.8779662,-9.619609,-1.6919533
1409347360311,-0.39743748,-10.602123,-0.98581254,0.88437635,-9.618158,-1.6968472
1409347360317,-0.22625206,-10.299856,-0.7823054,0.88582397,-9.617104,-1.7020628
1409347360329,-0.013766659,-10.070012,-0.8182184,0.8857778,-9.616255,-1.7068683
1409347360345,0.24420857,-9.916184,-0.98820674,0.8846619,-9.615713,-1.7104955
1409347360351,0.45549688,-9.744401,-1.1953052,0.88530403,-9.615577,-1.7109392
1409347360367,0.54887074,-9.659407,-1.3587095,0.8892045,-9.615904,-1.7070801
1409347360380,0.5470751,-9.809045,-1.423353,0.8964029,-9.616548,-1.6996737
1409347360380,0.61052144,-10.022727,-1.4999673,0.90670717,-9.617076,-1.6911995
1409347360396,0.7278373,-10.1621895,-1.5568297,0.92007166,-9.617184,-1.6833425
1409347360397,0.7685388,-10.053851,-1.4670471,0.9344129,-9.617004,-1.6764508
1409347360415,0.7870938,-9.919178,-1.388637,0.9501599,-9.616509,-1.6704195
1409347360417,0.7062895,-9.829993,-1.282095,0.9663293,-9.615462,-1.6671792
1409347360431,0.66618663,-9.834184,-1.1803415,0.98237,-9.613892,-1.666867
1409347360450,0.6937199,-9.979631,-1.13964,0.99909025,-9.612023,-1.6676965
1409347360450,0.7553706,-10.224439,-1.1965023,1.0156997,-9.610307,-1.6675682
1409347360465,0.85891986,-10.423157,-1.3467385,1.0318012,-9.608943,-1.6655306
1409347360486,0.9636662,-10.38904,-1.4718355,1.0466095,-9.607846,-1.6626272
1409347360486,1.0390835,-10.192117,-1.4754268,1.0616596,-9.606579,-1.6603959
1409347360491,1.091756,-10.09994,-1.3916297,1.0752745,-9.605162,-1.6598364
1409347360497,1.0181342,-10.003573,-1.3251907,1.088539,-9.603335,-1.6617492
1409347360515,0.95229375,-10.093356,-1.2611457,1.1009473,-9.601092,-1.6665342
1409347360517,0.9068039,-10.237008,-1.2132617,1.1120123,-9.598716,-1.6728734
1409347360531,0.9636662,-10.40939,-1.1264719,1.1198434,-9.596576,-1.6799022
1409347360545,0.92895025,-10.281301,-1.0067618,1.1232818,-9.594979,-1.6867139
1409347360553,1.3198037,-9.997588,-0.92775315,1.1245669,-9.593733,-1.6929342
1409347360570,1.4975731,-10.016143,-0.9331401,1.1255192,-9.592289,-1.7004721
1409347360571,1.6502035,-10.073005,-1.043872,1.125285,-9.590967,-1.7080618
1409347360577,1.8968062,-10.192117,-1.1450269,1.1261542,-9.589587,-1.715219
1409347360600,2.2559366,-10.381259,-1.127669,1.1308002,-9.588004,-1.7210096
1409347360601,1.8710686,-9.87668,-1.0283096,1.1405364,-9.586244,-1.7243819
1409347360619,1.6525977,-9.637859,-1.1893197,1.1505431,-9.584389,-1.7280428
1409347360620,1.7274165,-9.494805,-1.1210849,1.1643335,-9.581285,-1.7359903
1409347360629,1.7076644,-9.217676,-1.1043255,1.1816218,-9.57792,-1.7428757
1409347360646,1.4443022,-9.379285,-1.3204023,1.1987989,-9.575487,-1.7445129
1409347360651,1.1575965,-9.753379,-1.5239093,1.2120658,-9.574863,-1.7387664
1409347360666,1.0007763,-10.378265,-1.5316905,1.2225206,-9.575456,-1.7281411
1409347360680,0.9600749,-10.213664,-1.3581109,1.2321584,-9.576799,-1.7138021
1409347360681,0.9175778,-9.970653,-1.2970588,1.2414956,-9.578413,-1.6979712
1409347360700,0.90261406,-9.8994255,-1.3856442,1.2471803,-9.580272,-1.68326
1409347360701,0.9247604,-9.987412,-1.5819688,1.2506515,-9.582076,-1.67035
1409347360718,0.9295488,-10.029311,-1.7280151,1.2523406,-9.583541,-1.6606647
1409347360719,0.8607155,-9.878476,-1.774702,1.2558386,-9.584439,-1.6528134
1409347360731,0.7278373,-9.762358,-1.7411832,1.2611986,-9.584675,-1.6473587
1409347360748,0.6781576,-9.968858,-1.6214731,1.2668679,-9.584418,-1.6444994
1409347360749,0.5201403,-10.081385,-1.4640543,1.2719377,-9.584036,-1.6428072
1409347360767,0.47764325,-10.175357,-1.3634979,1.2746985,-9.583924,-1.6413208
1409347360781,0.50278234,-10.251971,-1.234211,1.2743381,-9.584231,-1.6398032
1409347360781,0.4818331,-10.272323,-1.1587936,1.2713968,-9.584987,-1.6376792
1409347360802,0.44951138,-10.229825,-1.1755531,1.2658477,-9.586192,-1.6349168
1409347360802,0.374094,-10.086173,-1.2671312,1.2592194,-9.587181,-1.6342329
1409347360809,0.46627077,-10.314819,-1.2599486,1.2516379,-9.587927,-1.6356893
1409347360817,0.6266823,-10.59973,-1.1420342,1.2433877,-9.588921,-1.6361563
1409347360831,0.8170213,-10.564415,-1.0007763,1.2347465,-9.590266,-1.6348093
1409347360847,0.9139865,-10.378864,-0.91219085,1.2267042,-9.591584,-1.6331235
1409347360851,0.866701,-9.89763,-0.7882909,1.2186291,-9.592769,-1.6322187
1409347360874,0.8870517,-9.556456,-0.7290344,1.2118717,-9.593788,-1.6312495
1409347360875,0.83018947,-9.396643,-0.7679402,1.2069299,-9.5948105,-1.628893
1409347360877,0.84216046,-9.481039,-0.8631097,1.2027444,-9.596296,-1.623251
1409347360894,0.9044097,-9.71986,-0.9498995,1.199004,-9.598375,-1.6136925
1409347360897,0.997185,-9.995792,-1.0259154,1.1948782,-9.601193,-1.5999188
1409347360913,1.0827777,-10.149021,-1.1180922,1.1890143,-9.604639,-1.5835277
1409347360933,1.1049241,-10.219051,-1.3090298,1.181933,-9.608269,-1.5667216
1409347360933,1.1198878,-10.415376,-1.5328877,1.1751778,-9.611663,-1.5508947
1409347360947,1.1186907,-10.601525,-1.7244238,1.1682392,-9.614831,-1.5364398
1409347360963,1.1486182,-10.657789,-1.797447,1.162167,-9.617642,-1.5233967
1409347360964,1.2186487,-10.518327,-1.7651252,1.1575284,-9.619891,-1.512686
1409347360978,1.2366052,-10.329185,-1.666963,1.154251,-9.62142,-1.5054461
1409347360978,1.2126632,-10.092757,-1.3611037,1.1507875,-9.622455,-1.5014794
1409347360994,1.050456,-9.8198185,-1.2024878,1.1468819,-9.623309,-1.4989903
1409347360998,0.9816227,-9.838972,-1.0971429,1.1424845,-9.623875,-1.4987235
1409347361013,0.90740246,-9.7479925,-1.0426749,1.137192,-9.624387,-1.4994524
1409347361027,0.85173726,-9.539697,-0.97982705,1.132525,-9.624595,-1.5016562
1409347361031,0.8194155,-9.425373,-0.99299514,1.1277099,-9.624599,-1.5052441
1409347361043,0.75836337,-9.593566,-0.98341835,1.1222963,-9.624453,-1.5102135
1409347361049,0.7787141,-9.904214,-0.95468795,1.1162416,-9.624469,-1.5146008
1409347361060,0.8714894,-10.23222,-0.95708215,1.1102587,-9.624814,-1.5167933
1409347361081,0.9283517,-10.386645,-0.9187749,1.1035045,-9.625639,-1.5164974
1409347361082,1.0067618,-10.419566,-0.943914,1.0955516,-9.6268,-1.5148965
1409347361099,0.99898064,-10.357915,-1.0827777,1.0859529,-9.628434,-1.5114114
1409347361100,0.9660604,-10.237008,-1.2348095,1.0754083,-9.630323,-1.5069005
1409347361117,0.9684546,-10.21127,-1.3970166,1.0663182,-9.632277,-1.5008764
1409347361118,0.98102415,-10.19451,-1.5119383,1.0591031,-9.634043,-1.4946319
1409347361131,0.99658644,-9.962274,-1.4909891,1.0525115,-9.635511,-1.4898055
1409347361147,1.0348936,-10.062231,-1.4221559,1.0456945,-9.636674,-1.487085
1409347361161,1.0510546,-10.146626,-1.3221979,1.0375783,-9.637897,-1.4848545
1409347361162,1.0444705,-10.083779,-1.2814964,1.0285747,-9.638906,-1.4845705
1409347361184,1.0229226,-10.009559,-1.2539631,1.0192065,-9.63971,-1.4857866
1409347361185,0.9995792,-10.069414,-1.3012487,1.0086939,-9.640559,-1.4874675
1409347361191,0.97982705,-10.02572,-1.2904748,0.9976114,-9.641405,-1.4894599
1409347361198,0.9756372,-10.099341,-1.2952632,0.98768157,-9.642156,-1.4912083
1409347361213,0.98222125,-10.087969,-1.2629414,0.97876906,-9.642785,-1.4930183
1409347361228,0.9900024,-10.1544075,-1.2785037,0.97114134,-9.643276,-1.494827
1409347361229,0.9744401,-10.068216,-1.3012487,0.9644486,-9.643705,-1.4963932
1409347361244,0.9708488,-9.93474,-1.3251907,0.95830876,-9.644109,-1.4977278
1409347361262,0.9564836,-9.874885,-1.3551182,0.9528455,-9.644519,-1.4985734
1409347361262,0.8888474,-9.920973,-1.3742718,0.947932,-9.644925,-1.4990861
1409347361282,0.7140707,-9.88506,-1.3090298,0.9436504,-9.645203,-1.4999864
1409347361283,0.57281274,-9.937733,-1.1755531,0.93972623,-9.645325,-1.5016763
1409347361294,0.49320555,-10.042479,-1.0588357,0.93649614,-9.645495,-1.5025935
1409347361298,0.42078096,-10.09575,-1.021127,0.93299663,-9.645872,-1.5023446
1409347361311,0.35075054,-10.113108,-0.9864111,0.92855424,-9.64658,-1.5005682
1409347361326,0.31543607,-10.120889,-1.091756,0.9236571,-9.647618,-1.4969091
1409347361331,0.29149407,-10.08318,-1.2946646,0.9185741,-9.648765,-1.4926448
1409347361342,0.22685061,-10.024523,-1.2743138,0.91356796,-9.649878,-1.4885195
1409347361350,0.18854338,-10.005369,-1.1875241,0.90796536,-9.650944,-1.4850261
1409347361361,0.18375498,-10.027515,-1.2156559,0.9018007,-9.651878,-1.4826992
1409347361377,0.16460137,-10.128072,-1.3054385,0.8953034,-9.652897,-1.4800122
1409347361378,0.12569559,-10.201694,-1.3533225,0.8881638,-9.65401,-1.4770392
1409347361397,0.1328782,-10.221446,-1.3545196,0.8818407,-9.655532,-1.4708673
1409347361398,0.17058687,-10.34774,-1.3700819,0.87588006,-9.657385,-1.4622346
1409347361412,0.18136078,-10.007165,-1.3551182,0.86936206,-9.659353,-1.453114
1409347361427,0.14724341,-9.925163,-1.3874398,0.86261284,-9.6610565,-1.4457787
1409347361431,0.1448492,-10.113707,-1.4197617,0.8554247,-9.66238,-1.4412067
1409347361443,0.130484,-10.226234,-1.4000094,0.84805626,-9.663309,-1.4393306
1409347361460,0.107140526,-10.339958,-1.3551182,0.8405273,-9.664083,-1.4385545
1409347361461,0.077811554,-10.424355,-1.3257892,0.83197224,-9.664967,-1.4375765
1409347361480,0.030526072,-10.402806,-1.2934675,0.8235265,-9.665985,-1.4355947
1409347361480,-0.0035913025,-10.447698,-1.2802993,0.81466013,-9.667112,-1.4330643
1409347361494,0.046088383,-10.216059,-1.2413936,0.8046119,-9.668451,-1.4297055
1409347361498,0.107140526,-10.144831,-1.3102269,0.7938608,-9.66983,-1.4263835
1409347361512,0.24181437,-10.1460285,-1.4514848,0.78264296,-9.670899,-1.4253377
1409347361526,0.43514615,-10.057443,-1.5442601,0.7717387,-9.671468,-1.4274213
1409347361530,0.59256494,-9.967062,-1.5448587,0.7624644,-9.671663,-1.4310741
1409347361543,0.7224504,-9.991602,-1.484405,0.7534271,-9.671564,-1.4365304
1409347361560,0.79248077,-9.969456,-1.2791022,0.74582744,-9.671127,-1.4434079
1409347361561,0.7954735,-9.9790325,-1.1761516,0.74025434,-9.6705675,-1.4500154
1409347361576,0.78410107,-10.06283,-1.2743138,0.7357593,-9.67006,-1.4556792
1409347361578,0.75477207,-10.120291,-1.3856442,0.7328826,-9.66967,-1.4597224
1409347361592,0.7104794,-10.140042,-1.4047978,0.7320862,-9.669556,-1.4608828
1409347361598,0.7068881,-10.166978,-1.3730747,0.73391193,-9.669476,-1.4604931
1409347361612,0.7326257,-10.203489,-1.4077905,0.7372753,-9.669292,-1.4600112
1409347361628,0.7667431,-10.223241,-1.4454993,0.7433818,-9.668786,-1.4602575
1409347361633,0.7978677,-10.210671,-1.4251486,0.7511092,-9.668195,-1.4602162
1409347361643,0.8122329,-10.161591,-1.3365631,0.7605065,-9.667632,-1.4590824
1409347361669,0.82599956,-10.101137,-1.2773066,0.77087885,-9.667071,-1.4573551
1409347361673,0.79487497,-9.991602,-1.2617443,0.781701,-9.66646,-1.4556457
1409347361673,0.748188,-9.974244,-1.3006501,0.7925579,-9.665929,-1.4532998
1409347361678,0.7236475,-9.982025,-1.3748703,0.80358666,-9.6654415,-1.4504826
1409347361696,0.7248446,-9.949105,-1.5029601,0.8142343,-9.665094,-1.4468391
1409347361700,0.7314286,-9.973646,-1.6101006,0.82402563,-9.66485,-1.4429446
1409347361711,0.76315176,-10.001179,-1.5945383,0.8328426,-9.66459,-1.439607
1409347361732,0.7966706,-9.965864,-1.5382746,0.84086895,-9.664243,-1.4372737
1409347361733,0.8242039,-9.946711,-1.4873978,0.84791595,-9.663756,-1.4364055
1409347361743,0.78888947,-10.043676,-1.5107412,0.85447866,-9.6631565,-1.436544
1409347361760,0.7062895,-9.865907,-1.4915876,0.86050594,-9.662625,-1.4365307
1409347361761,0.6787562,-9.955689,-1.5478514,0.866215,-9.662196,-1.4359797
1409347361779,0.6943185,-10.068815,-1.5556326,0.8714637,-9.661969,-1.4343334
1409347361779,0.75956047,-10.081385,-1.6035166,0.875567,-9.662042,-1.4313293
1409347361792,0.79726917,-10.0664215,-1.6657659,0.878907,-9.662136,-1.4286515
1409347361808,0.8319851,-10.09994,-1.6956934,0.8820786,-9.662121,-1.4268003
1409347361812,0.85054016,-10.102933,-1.7603368,0.886011,-9.661859,-1.4261367
1409347361828,0.8295909,-10.0269165,-1.8046296,0.8909485,-9.661243,-1.427224
1409347361830,0.8146271,-9.980828,-1.8644845,0.8963883,-9.660484,-1.4289521
1409347361843,0.85473,-10.08737,-1.881244,0.90218294,-9.659608,-1.4312367
1409347361861,0.83856916,-10.03769,-1.8118122,0.9081188,-9.658731,-1.4333872
1409347361862,0.8110358,-10.051457,-1.887828,0.91350484,-9.657978,-1.4350458
1409347361876,0.7811083,-10.107721,-1.9428947,0.9172879,-9.657201,-1.4378614
1409347361878,0.7667431,-10.062231,-1.8818425,0.92023534,-9.656288,-1.442093
1409347361890,0.7314286,-10.090961,-1.726818,0.9234537,-9.655074,-1.4481504
1409347361908,0.6871359,-10.103531,-1.5783775,0.92577803,-9.653715,-1.4557211
1409347361912,0.6512229,-10.093954,-1.5316905,0.92708534,-9.652427,-1.4634026
1409347361932,0.62368953,-10.153211,-1.5502456,0.92708594,-9.650945,-1.4731492
1409347361946,0.5883751,-10.156802,-1.5406688,0.92508274,-9.649461,-1.4840865
1409347361948,0.6027403,-10.084976,-1.4891934,0.92208856,-9.648154,-1.4943963
1409347361962,0.6183026,-10.001179,-1.4784195,0.9192285,-9.64706,-1.5032126
1409347361963,0.61411273,-9.917382,-1.4622587,0.91572547,-9.646088,-1.511571
1409347361977,0.62368953,-9.846154,-1.3916297,0.9111311,-9.645216,-1.5198773
1409347361979,0.7009025,-9.803059,-1.3718776,0.9065736,-9.644485,-1.5272183
1409347361992,0.7517793,-9.785102,-1.3964181,0.9012992,-9.643964,-1.5336335
1409347362010,0.770933,-9.807249,-1.4856021,0.8956588,-9.643706,-1.5385481
1409347362011,0.7906851,-9.798869,-1.6490064,0.89041305,-9.643665,-1.5418507
1409347362026,0.8206126,-9.665392,-1.7190368,0.88560563,-9.643728,-1.5442133
1409347362040,0.8206126,-9.479243,-1.7142484,0.8817498,-9.643872,-1.5455163
1409347362041,0.8170213,-9.457695,-1.7058687,0.8795658,-9.643878,-1.5467347
1409347362065,0.7589619,-9.583989,-1.7262194,0.8790023,-9.64372,-1.5480337
1409347362066,0.6715736,-9.660006,-1.8028339,0.8785823,-9.643626,-1.5488615
1409347362072,0.62728083,-9.761759,-1.8710686,0.8794243,-9.643668,-1.548117
1409347362079,0.5506664,-9.917382,-1.9614497,0.8825708,-9.644095,-1.5436656
1409347362094,0.48482585,-10.125079,-2.0219033,0.8864313,-9.645168,-1.5347061
1409347362115,0.42556936,-10.320805,-2.0901382,0.89115334,-9.646844,-1.5213941
1409347362116,0.30825347,-10.406996,-2.178125,0.89718586,-9.648899,-1.5047237
1409347362119,0.11552023,-10.457274,-2.2439656,0.90367407,-9.651423,-1.4845123
1409347362130,-0.08499416,-10.486604,-2.3175871,0.9094994,-9.654184,-1.4628444
1409347362145,-0.272939,-10.55005,-2.404377,0.91410047,-9.657711,-1.4364611
1409347362158,-0.39683893,-10.705074,-2.5007436,0.9177286,-9.661936,-1.4054084
1409347362159,-0.45310268,-10.588357,-2.5342624,0.9186978,-9.666937,-1.3699373
1409347362173,-0.49200845,-10.564415,-2.5474305,0.91699535,-9.672468,-1.3314961
1409347362179,-0.47225627,-10.681132,-2.5833437,0.9111811,-9.678328,-1.29232
1409347362190,-0.40821138,-10.778097,-2.7006595,0.90067106,-9.683975,-1.2569071
1409347362208,-0.2693477,-10.782288,-2.7910407,0.8851918,-9.688963,-1.2291546
1409347362212,-0.08319851,-10.79785,-2.7449522,0.86825556,-9.693323,-1.2066648
1409347362229,0.17178397,-10.543466,-2.5635915,0.8467539,-9.696536,-1.1960824
1409347362246,0.4818331,-10.506355,-2.3535004,0.82328886,-9.697872,-1.2016169
1409347362247,0.87687635,-10.5207205,-2.2337902,0.796561,-9.696917,-1.2270813
1409347362264,1.2952632,-10.457873,-2.0787656,0.766113,-9.693392,-1.2734338
1409347362265,1.5682021,-10.435727,-1.9333179,0.7328306,-9.687128,-1.3389891
1409347362272,1.7812861,-10.414179,-1.8267759,0.6983581,-9.677802,-1.4222747
1409347362279,1.910573,-10.443508,-1.6765398,0.66582686,-9.666434,-1.5123285
1409347362294,2.0518308,-10.399814,-1.5400703,0.6378832,-9.651695,-1.6150273
1409347362317,2.2655134,-10.209475,-1.1887212,0.6128025,-9.633898,-1.7271
1409347362317,2.6497827,-9.542689,-1.0779893,0.5937898,-9.614263,-1.839512
1409347362319,2.8844144,-9.370906,-1.0229226,0.58371586,-9.593256,-1.9491379
1409347362343,3.1836896,-9.367912,-1.0576386,0.5842197,-9.572603,-2.0480075
1409347362344,3.2106245,-9.56723,-1.3844471,0.5983277,-9.55318,-2.1328678
1409347362359,3.0615854,-9.597756,-1.4915876,0.62578654,-9.535544,-2.2027707
1409347362359,2.9281087,-9.454702,-1.3850456,0.6576324,-9.5188055,-2.2650087
1409347362376,2.8754363,-9.428367,-1.2054806,0.7025927,-9.504539,-2.3109593
1409347362379,2.866458,-9.585785,-1.0414777,0.756324,-9.492106,-2.3448453
1409347362398,2.7712884,-9.615712,-0.96187055,0.8132024,-9.481172,-2.3699133
1409347362399,2.379238,-9.588778,-1.0516531,0.86860186,-9.472073,-2.3865755
1409347362413,1.8285716,-9.778519,-1.2599486,0.919391,-9.465937,-2.3919034
1409347362433,1.3634979,-10.027515,-1.471237,0.96830785,-9.4636965,-2.3814406
1409347362434,1.0205284,-10.17835,-1.5915456,1.0180708,-9.462971,-2.3634984
1409347362439,0.76075757,-10.166978,-1.5532384,1.0640409,-9.466505,-2.328841
1409347362470,0.51475334,-9.987412,-1.4341269,1.1080644,-9.473585,-2.27899
1409347362471,0.2160767,-9.809045,-1.2755109,1.1444515,-9.483628,-2.2184236
1409347362473,-0.08619126,-9.800066,-1.1791444,1.1717104,-9.49604,-2.1500463
1409347362479,-0.2837129,-9.783307,-1.1534066,1.1912439,-9.509998,-2.076353
1409347362506,-0.41120413,-9.537302,-1.1869255,1.2048504,-9.52418,-2.0021813
1409347362506,-0.42556936,-9.431359,-1.3796587,1.2144532,-9.537549,-1.9314983
1409347362513,-0.41060558,-9.402629,-1.6226702,1.2258365,-9.54964,-1.8633533
1409347362541,-0.3561375,-9.454104,-1.958457,1.2318121,-9.560037,-1.8051919
1409347362542,-0.22864626,-9.621099,-2.297835,1.2380583,-9.568035,-1.7579224
1409347362543,-0.04369418,-9.807847,-2.5091233,1.2457088,-9.573265,-1.7237177
1409347362571,0.05327099,-10.001179,-2.553416,1.2552669,-9.575472,-1.704418
1409347362574,0.12270284,-10.14543,-2.3948002,1.2659543,-9.574961,-1.6993831
1409347362576,0.25378537,-10.205285,-2.1691468,1.2767072,-9.572422,-1.7056305
1409347362580,0.43514615,-10.19451,-1.9255368,1.2869389,-9.568693,-1.7188051
1409347362605,0.55365914,-10.14124,-1.7082629,1.2942785,-9.564865,-1.7345278
1409347362606,0.62488663,-10.068815,-1.5376761,1.2996193,-9.561231,-1.750496
1409347362612,0.6075287,-10.011953,-1.4718355,1.3003341,-9.558138,-1.7667794
1409347362637,0.60094464,-9.976639,-1.4251486,1.2978704,-9.555495,-1.7828134
1409347362638,0.5835867,-9.998186,-1.411382,1.2930075,-9.553307,-1.7980242
1409347362640,0.5793968,-10.136452,-1.448492,1.2857503,-9.551444,-1.8130528
1409347362661,0.61770403,-10.438121,-1.532289,1.2763488,-9.549917,-1.8276863
1409347362663,0.6793547,-10.726623,-1.5771804,1.2662846,-9.548618,-1.8414211
1409347362703,0.7398083,-10.791864,-1.5167267,1.253516,-9.547873,-1.8539726
1409347362704,0.7930793,-10.548254,-1.4784195,1.2382971,-9.5476055,-1.8655487
1409347362706,0.8631097,-10.184336,-1.4885949,1.2204844,-9.5475855,-1.877351
1409347362707,0.95349085,-9.933543,-1.5095441,1.2008394,-9.547658,-1.8896114
1409347362736,1.0085574,-9.752182,-1.543063,1.1810929,-9.547722,-1.9016967
1409347362737,1.0618285,-9.653421,-1.5077485,1.1625149,-9.547576,-1.9138352
1409347362738,1.1869255,-9.5253315,-1.5358804,1.1452506,-9.547406,-1.9250492
1409347362740,1.2892777,-9.412804,-1.543063,1.1291713,-9.547078,-1.936144
1409347362760,1.38325,-9.217676,-1.5406688,1.1125547,-9.547013,-1.946063
1409347362760,1.4287399,-9.193136,-1.496376,1.096547,-9.547175,-1.9543282
1409347362776,1.4586674,-9.203311,-1.460463,1.0812851,-9.547691,-1.9603088
1409347362793,1.5245079,-9.293693,-1.5143325,1.0663638,-9.548672,-1.9636981
1409347362794,1.6244658,-9.496601,-1.6861166,1.0520444,-9.550134,-1.9643157
1409347362809,1.6843209,-9.782109,-1.9045875,1.0372496,-9.5524,-1.9611669
1409347362825,1.6801311,-9.991004,-2.0338743,1.0229951,-9.554977,-1.956088
1409347362825,1.6711528,-10.017939,-2.1278467,1.0083199,-9.558339,-1.947266
1409347362844,1.7172412,-9.962872,-2.1308396,0.99655986,-9.561683,-1.9368774
1409347362845,1.7824832,-9.939528,-2.1051018,0.98852354,-9.5645275,-1.9269258
1409347362861,1.9123687,-10.028712,-2.0979192,0.9830153,-9.566679,-1.9190552
1409347362861,1.982399,-10.138845,-2.142212,0.9795167,-9.568107,-1.9137145
1409347362875,2.0033484,-10.089765,-2.1619642,0.97774935,-9.568803,-1.9111321
1409347362892,2.1068976,-9.920375,-2.2212207,0.9789114,-9.568748,-1.910805
1409347362894,2.148796,-9.763555,-2.327164,0.98331404,-9.568112,-1.9117297
1409347362907,2.1452048,-9.681553,-2.460641,0.9899191,-9.56675,-1.9151381
1409347362911,2.0320787,-9.473258,-2.5671828,1.0003572,-9.564707,-1.9199095
1409347362926,1.644218,-9.257779,-2.585738,1.016879,-9.562021,-1.9246014
1409347362942,1.0881647,-9.4972,-3.1358056,1.040325,-9.55932,-1.9254917
1409347362944,0.62847793,-10.000581,-4.1575313,1.0743731,-9.557105,-1.9177766
1409347362962,0.035913024,-10.500969,-4.495114,1.123758,-9.557344,-1.8880525
1409347362962,-0.5470751,-11.134833,-4.3059716,1.1700208,-9.560312,-1.8444211
1409347362971,-1.0432734,-11.730989,-3.7966053,1.2232492,-9.570121,-1.7569448
1409347362992,-1.4981717,-12.040441,-3.163339,1.2622455,-9.585445,-1.6420693
1409347362993,-2.220622,-11.596914,-1.963844,1.272532,-9.602314,-1.5318525
1409347363008,-3.3889925,-10.947487,-1.0283096,1.249498,-9.618395,-1.4476243
1409347363025,-3.8774097,-10.535685,0.11312603,1.1887232,-9.632466,-1.4046049
1409347363025,-2.8868086,-10.08737,1.0726024,1.0909541,-9.644221,-1.4032807
1409347363049,-1.6633717,-9.522339,1.2204443,0.9662001,-9.650986,-1.4475275
1409347363050,-1.2054806,-9.367912,1.0809821,0.84962565,-9.652892,-1.5067128
1409347363063,-1.364695,-9.454702,0.91578215,0.71989363,-9.648469,-1.5997453
1409347363064,-1.4885949,-9.66659,0.58119243,0.611644,-9.637898,-1.7050459
1409347363075,-1.3700819,-10.06283,0.02813187,0.53702015,-9.62271,-1.8125905
1409347363107,-0.9564836,-10.251373,-0.36391866,0.4873019,-9.605951,-1.9127494
1409347363108,-0.40342298,-10.21965,-0.4381389,0.44990328,-9.590752,-1.9963553
1409347363111,0.08080431,-10.346542,-0.39624038,0.41601622,-9.578379,-2.062035
1409347363126,0.480636,-10.437522,-0.42796355,0.38405573,-9.567049,-2.1200106
1409347363127,0.7715315,-10.368091,-0.42916065,0.35642508,-9.557597,-2.1669493
1409347363143,1.0139444,-10.362703,-0.42317516,0.33420303,-9.549171,-2.2072637
1409347363144,1.1965023,-10.357317,-0.29328972,0.31843907,-9.540915,-2.244978
1409347363159,1.2964603,-10.212467,-0.21308395,0.31172934,-9.532852,-2.2799032
1409347363160,1.2785037,-10.195708,-0.219668,0.31484425,-9.524995,-2.3120904
1409347363177,1.1845313,-10.149021,-0.42916065,0.32740474,-9.51808,-2.3386688
1409347363201,1.134253,-10.099341,-1.0474633,0.34847763,-9.512556,-2.3580105
1409347363202,1.6430209,-9.551069,-1.5897499,0.36984482,-9.506971,-2.377206
1409347363204,1.2084733,-9.28232,-1.893215,0.39975482,-9.502043,-2.3920257
1409347363212,0.5255273,-9.098565,-1.834557,0.42400196,-9.498264,-2.4028318
1409347363236,0.557849,-8.835801,-1.3347675,0.44209993,-9.495438,-2.4107316
1409347363237,0.9115923,-8.778939,-0.9828198,0.4607754,-9.492288,-2.4196224
1409347363242,1.4209588,-8.92319,-1.1234791,0.48379153,-9.487486,-2.4339187
1409347363266,1.8285716,-9.090185,-1.4993688,0.5167621,-9.482963,-2.4447424
1409347363268,2.054225,-9.363723,-1.757344,0.55949414,-9.478913,-2.4510372
1409347363271,2.12246,-9.54209,-1.9285295,0.60671854,-9.478313,-2.442108
1409347363293,2.03567,-9.65821,-2.1266496,0.6605273,-9.479573,-2.423185
1409347363295,1.8800468,-9.775525,-2.3642743,0.7199539,-9.481341,-2.3992229
1409347363310,1.5915456,-9.944317,-2.5965118,0.7849796,-9.482772,-2.3730202
1409347363330,1.2042835,-10.234015,-2.8880057,0.85310006,-9.483473,-2.3465676
1409347363331,0.7200562,-10.638037,-3.280655,0.9225439,-9.483198,-2.3212638
1409347363332,0.24480712,-11.054627,-3.697246,0.99143595,-9.482019,-2.2975645
1409347363342,-0.4417302,-11.414955,-4.1162314,1.0552918,-9.480216,-2.276459
1409347363372,-1.0953473,-11.623251,-4.233547,1.1139947,-9.478629,-2.254992
1409347363372,-1.857302,-11.928512,-3.763685,1.1623355,-9.477418,-2.2355998
1409347363373,-3.3010056,-12.450447,-2.3654714,1.1926576,-9.476624,-2.222967
1409347363396,-3.9971197,-12.304401,-0.9091981,1.190544,-9.477376,-2.2208796
1409347363397,-3.9641995,-11.928512,0.27712885,1.1629437,-9.476506,-2.2391555
1409347363400,-3.7247794,-11.577163,1.0821792,1.1148951,-9.473653,-2.2753716
1409347363433,-3.6804867,-11.369465,1.501763,1.0535213,-9.471951,-2.311415
1409347363434,-3.9378633,-11.449073,1.3706805,0.997477,-9.46651,-2.3581023
1409347363435,-4.06715,-11.653178,1.2389994,0.93631613,-9.457133,-2.4199793
1409347363440,-4.0521865,-11.798626,1.1665748,0.88968617,-9.443921,-2.4882197
1409347363471,-3.9833531,-11.66874,0.55844754,0.8611717,-9.430771,-2.54742
1409347363472,-4.015076,-11.508329,-0.48243165,0.84593064,-9.421461,-2.5866647
1409347363473,-4.1796775,-11.467628,-1.75076,0.8332801,-9.418491,-2.6015544
1409347363490,-4.2491093,-11.653777,-2.5785553,0.8155659,-9.4204645,-2.6000211
1409347363494,-4.0940847,-12.633005,-2.5240872,0.78539604,-9.423159,-2.599543
1409347363509,-2.8694508,-13.722965,-0.8206126,0.7473542,-9.428861,-2.5900743
1409347363523,-0.22804771,-14.123396,2.7748797,0.6969643,-9.436971,-2.5745285
1409347363524,0.9163807,-13.8325,6.4445925,0.6412477,-9.447183,-2.5514586
1409347363540,1.1629834,-13.009494,5.3983264,0.5692238,-9.459939,-2.5210931
1409347363541,0.91458505,-12.095507,1.857302,0.49386108,-9.467162,-2.509853
1409347363564,0.23942018,-11.559206,-0.6123171,0.43092212,-9.480183,-2.472013
1409347363564,0.23822308,-11.628039,-1.7190368,0.3830369,-9.497659,-2.4120831
1409347363572,0.18614918,-12.332533,-2.030283,0.3428139,-9.530157,-2.2866929
1409347363589,-0.11552023,-12.61864,-2.6342204,0.30702803,-9.569091,-2.1233504
1409347363611,-0.320823,-12.4702,-2.2272062,0.27091888,-9.606649,-1.9517382
1409347363612,-0.18375498,-12.185888,-2.4558525,0.23744842,-9.642015,-1.773563
1409347363613,0.54168814,-12.331934,-2.6964695,0.19819224,-9.672832,-1.6023251
1409347363621,0.98581254,-13.014282,-2.2104468,0.14315994,-9.70048,-1.4319892
1409347363651,1.70946,-14.038402,-0.3298013,0.06985153,-9.726361,-1.2503569
1409347363652,2.4109612,-14.314932,0.5907693,-0.0019460196,-9.750998,-1.0432898
1409347363655,3.366846,-14.132374,0.22266077,-0.08042598,-9.772103,-0.81848705
1409347363663,3.8373067,-13.954604,-0.3357868,-0.1607216,-9.787195,-0.59615254
1409347363689,3.5314474,-13.769652,-2.486977,-0.23769598,-9.796148,-0.38646406
1409347363690,2.9233203,-13.372813,-5.057751,-0.3078025,-9.799438,-0.21602745
1409347363692,1.8968062,-12.999318,-5.0984526,-0.37155485,-9.799137,-0.09615926
1409347363718,0.93134445,-13.08132,-1.757344,-0.45089772,-9.796278,0.0047229733
1409347363719,0.61112,-12.712612,0.6302736,-0.5623425,-9.789797,0.11845468
1409347363720,0.55605334,-12.150574,0.24959552,-0.6917454,-9.779175,0.24416403
1409347363743,0.10534488,-11.799225,-1.9578584,-0.84765846,-9.763482,0.35534695
1409347363744,0.109534726,-11.012131,-2.2583308,-1.0238504,-9.7419815,0.4646523
1409347363752,0.7098808,-10.01315,-2.6461914,-1.2022535,-9.715112,0.5844401
1409347363777,1.2300211,-9.2625675,-3.845088,-1.3768798,-9.685822,0.67783946
1409347363777,1.9716251,-8.597578,-4.155137,-1.5510753,-9.656219,0.7225026
1409347363780,1.7663223,-8.402451,-4.4556093,-1.7202301,-9.624777,0.75819296
1409347363793,1.5759833,-7.921815,-3.5954924,-1.8852237,-9.590795,0.7955955
1409347363811,0.4285621,-7.7308774,-4.8261123,-2.0343986,-9.554731,0.85950243
1409347363812,-0.8810662,-7.767389,-4.3239284,-2.1680148,-9.519291,0.92369646
1409347363822,-1.436521,-7.2580223,-3.0472202,-2.2905793,-9.482564,1.0023005
1409347363857,-1.5215151,-6.6642604,-2.1068976,-2.4008164,-9.443413,1.1083375
1409347363858,-0.5835867,-5.7802014,-1.6023195,-2.503902,-9.40106,1.2332687
1409347363861,1.0223241,-4.931457,-2.4756045,-2.597346,-9.357842,1.3619713
1409347363902,2.4779987,-4.280234,-2.497751,-2.6818688,-9.316981,1.4737133
1409347363906,3.7720647,-3.469797,-2.4241292,-2.7634892,-9.277703,1.5677208
1409347363908,4.380192,-2.7808652,-2.5558102,-2.8334246,-9.24249,1.6487786
1409347363913,4.2916064,-2.1936872,-2.4343045,-2.8921928,-9.212335,1.7142025
1409347363915,3.828927,-1.7340006,-2.7281928,-2.9347591,-9.188169,1.7706311
1409347363949,3.5033157,-1.596334,-2.926313,-2.957506,-9.172448,1.8137624
1409347363952,3.2435448,-1.7363948,-2.5384524,-2.9604707,-9.166082,1.8409002
1409347363954,2.9047651,-1.9165585,-2.0679917,-2.945929,-9.169118,1.8491043
1409347363956,2.6288335,-2.3181858,-1.3623008,-2.9225361,-9.176729,1.8484681
1409347363961,2.9101522,-2.9191303,-0.17298107,-2.8787441,-9.1949835,1.8263396
1409347363978,2.8892028,-4.052785,0.80086046,-2.8118725,-9.224134,1.7830125
1409347363978,2.2158337,-5.9867015,2.1230583,-2.7208307,-9.264095,1.715805
1409347363981,-0.1376666,-9.842564,6.3847375,-2.6009562,-9.315039,1.6234157
1409347363992,-5.377377,-16.695368,13.083714,-2.451643,-9.370674,1.5330718
1409347364011,-13.602657,-19.608511,11.304822,-2.3146784,-9.40361,1.5442642
1409347364014,-17.328634,-19.608511,9.878476,-2.1738496,-9.460796,1.3921542
1409347364021,-16.474503,-19.608511,7.9673047,-2.0503335,-9.5072565,1.256429
1409347364043,-14.352641,-17.501017,6.4218473,-1.9963653,-9.534203,1.1330882
1409347364045,-9.555858,-11.549629,7.501034,-2.018862,-9.543617,1.0069429
1409347364053,-6.5044475,-9.949105,7.5974007,-3.9702635,-8.493394,2.8756957
1409347364080,-3.2674868,-8.236053,5.1666875,-4.0816736,-8.337918,3.1606107
1409347364081,1.2318168,-7.023391,-1.5879543,-4.005984,-8.292028,3.3711631
1409347364082,3.9474401,-9.673173,-4.845266,-3.6979277,-8.513558,3.1646545
1409347364119,6.2195373,-13.699622,-7.74225,-3.1270113,-8.92177,2.6065705
1409347364119,5.807136,-13.666103,-6.3751607,-2.290349,-9.382574,1.7005959
1409347364120,3.2668881,-12.057798,-3.6583402,-1.5237249,-9.638755,0.97111857
1409347364122,0.7170634,-11.996746,0.54168814,-1.0533073,-9.734694,0.544705
1409347364141,-0.99419224,-13.190854,3.484162,-0.83949065,-9.756832,0.5194941
1409347364142,-0.31244332,-12.489952,1.946486,-0.79305446,-9.746517,0.7394975
1409347364158,0.7290344,-11.769297,0.7350199,-0.72536623,-9.746854,0.8019136
1409347364173,1.2635399,-11.178528,-0.57879823,-0.6071616,-9.757346,0.77198
1409347364174,2.4654293,-9.91798,-1.4443022,-0.45320964,-9.775175,0.64104927
1409347364189,3.7152026,-7.967903,-1.6992847,-0.20875293,-9.794375,0.44387424
1409347364211,4.3795934,-6.8587894,-2.0841527,0.13757892,-9.802597,0.2460884
1409347364212,4.3358994,-7.417237,-2.5635915,0.5335358,-9.792037,0.041750353
1409347364213,3.934272,-8.24563,-2.9334955,0.92049396,-9.761186,-0.20568916
1409347364222,3.5523968,-8.572439,-2.8401217,1.2592872,-9.713397,-0.48427552
1409347364239,3.3464954,-8.758589,-2.4007857,1.5316154,-9.658941,-0.72760993
1409347364241,3.2441432,-8.804078,-1.8058267,1.7360318,-9.609577,-0.90144736
1409347364261,3.1681273,-8.69155,-1.2360066,1.9110991,-9.567328,-0.9921289
1409347364262,3.0142999,-8.902241,-1.0271125,2.0564086,-9.53412,-1.0208471
1409347364273,2.8119898,-9.473258,-1.186327,2.1717412,-9.508311,-1.0227245
1409347364293,2.36188,-10.234015,-1.3359646,2.254493,-9.487639,-1.0355355
1409347364294,1.6837224,-10.997766,-1.3515269,2.2764692,-9.4799595,-1.0575726
1409347364301,0.87328506,-11.796232,-1.5586253,2.2182176,-9.491946,-1.0737164
1409347364341,0.2208651,-12.083536,-1.8501194,2.069415,-9.522789,-1.0974586
1409347364346,-0.035913024,-11.42932,-1.9087774,1.8657343,-9.559679,-1.1410382
1409347364348,0.048482586,-10.324995,-1.6932992,1.6582459,-9.592755,-1.1830864
1409347364349,0.26874915,-9.585187,-1.6921021,1.48432,-9.61797,-1.2090642
1409347364381,0.30945057,-9.730036,-2.1679497,1.3533146,-9.633097,-1.2419325
1409347364382,-0.002992752,-9.631275,-2.4157495,1.2403034,-9.638704,-1.3143109
1409347364383,-0.27712885,-9.524135,-2.0811598,1.1176959,-9.640921,-1.4049113
1409347364384,-1.0133458,-10.200497,-2.5941176,0.9890029,-9.646616,-1.461185
1409347364427,-2.0949266,-10.245986,-4.634576,0.7976716,-9.650511,-1.5497552
1409347364428,-4.9057193,-11.021708,-4.7429137,0.5078692,-9.6241255,-1.8134681
1409347364429,-5.2325277,-10.724228,-2.633622,-0.025271805,-9.585359,-2.0713983
1409347364430,-4.9135003,-10.559028,-1.2916719,-0.52650225,-9.548859,-2.1708367
1409347364466,-3.104681,-9.561843,-0.7565677,-0.9436656,-9.524235,-2.137479
1409347364467,-1.436521,-8.782531,-0.2896984,-1.1764994,-9.518161,-2.04716
1409347364469,-0.7763199,-8.952518,-0.11911154,-1.2365975,-9.534411,-1.9329227
1409347364470,-0.8858546,-9.619304,-0.1364695,-1.1965877,-9.562775,-1.8143688
1409347364473,-1.3467385,-10.323798,-0.07062895,-1.1582851,-9.59152,-1.6827123
1409347364516,-1.6938977,-11.027095,0.061052144,-1.1427376,-9.615079,-1.5539544
1409347364516,-1.513734,-11.365874,0.40581718,-1.1622052,-9.633473,-1.4198086
1409347364517,-1.0462662,-11.401787,0.8924387,-1.1770421,-9.65246,-1.2708173
1409347364518,-0.51954174,-11.5155115,1.7345991,-1.1594992,-9.675937,-1.096445
1409347364521,-0.008379706,-12.017695,2.2589293,-1.0939654,-9.706875,-0.86614716
1409347364543,0.63206923,-11.6507845,3.1812954,-0.9798922,-9.738591,-0.60831356
1409347364543,0.8403648,-11.468824,4.115034,-0.8225822,-9.767782,-0.29008055
1409347364555,0.97503865,-11.219828,5.060744,-0.6643223,-9.783747,0.08574469
1409347364578,1.4413095,-10.663176,5.744887,-0.5075632,-9.779498,0.52363694
1409347364580,1.6681601,-10.569203,5.3384714,-0.32876492,-9.75031,0.99687976
1409347364582,1.1109096,-10.844537,3.6128504,-0.16417086,-9.705966,1.391993
1409347364622,0.031124622,-10.97502,1.8525136,-0.07928221,-9.676816,1.5885022
1409347364623,-0.83378077,-10.609306,0.3728969,-0.09726971,-9.673697,1.6063961
1409347364623,-1.733402,-10.505158,-0.53211135,-0.17755525,-9.688671,1.506158
1409347364624,-2.3642743,-11.40897,-0.97144735,-0.31554523,-9.711869,1.3230411
1409347364638,-3.259107,-12.410943,-1.2617443,-0.48850396,-9.726624,1.1508814
1409347364653,-4.509479,-12.750919,-3.5739446,-0.7024217,-9.73239,0.9785526
1409347364654,-5.2965727,-12.416928,-4.7764325,-0.9804813,-9.738186,0.6138345
1409347364673,-4.7004166,-12.360066,-3.8618474,-1.2936244,-9.719672,0.15781054
1409347364675,-6.127361,-13.174095,-1.0857705,-1.5312296,-9.684053,-0.21173011
1409347364687,-6.63972,-14.638149,1.0187328,-1.8500732,-9.624841,-0.33176762
1409347364705,-6.715736,-16.108788,3.6254199,-2.1422298,-9.56691,-0.23557091
1409347364706,-5.4264584,-16.501436,9.785701,-2.3660784,-9.516913,0.021371016
1409347364721,-3.0597897,-17.085623,13.737929,-2.462452,-9.4634695,0.7412585
1409347364722,-2.0428526,-15.458163,5.825093,-2.4743748,-9.464264,0.68963295
1409347364736,-1.4508862,-12.565369,-2.0919337,-2.3141205,-9.34271,1.8785746
1409347364753,-1.7142484,-11.92492,-2.9107506,-2.283008,-9.390997,1.6635581
1409347364754,-2.106299,-11.717223,-3.1441853,-2.2556343,-9.437782,1.4180166
1409347364773,-1.5885528,-12.2559185,-3.5619736,-2.224076,-9.483982,1.1304711
1409347364774,-1.1372458,-13.275848,-3.855862,-2.1420007,-9.535255,0.81310666
1409347364786,-0.9367314,-12.6778965,-4.845266,-2.0499523,-9.579207,0.45484662
1409347364803,-0.82240826,-13.039421,-4.796783,-1.9681759,-9.606939,0.058345743
1409347364804,-0.38486794,-13.751696,-4.3915644,-1.8761303,-9.6211605,-0.28942686
1409347364820,0.49320555,-15.151107,-3.2974143,-1.7496009,-9.632666,-0.5665824
1409347364821,1.9123687,-18.538303,-0.97623575,-1.5658627,-9.653807,-0.7228072
1409347364836,4.0096893,-19.608511,2.6856956,-1.2772113,-9.700202,-0.6672271
1409347364855,5.707777,-19.608511,3.2962172,-0.8735332,-9.761292,-0.35281262
1409347364855,6.540959,-18.805258,-0.020949265,-0.41044807,-9.797909,-0.053764835
1409347364873,4.9069166,-14.404715,-4.367024,0.04389438,-9.806544,0.012223522
1409347364874,2.4486697,-12.21402,-7.4567413,0.35925448,-9.796998,-0.24534006
1409347364885,1.5197195,-11.071387,-7.827244,0.5110773,-9.765912,-0.7322177
1409347364901,1.2324153,-9.897031,-5.41748,0.6000766,-9.708873,-1.2442311
1409347364902,1.7184383,-9.249998,-3.7654808,0.65150636,-9.6573515,-1.5752655
1409347364926,3.3901896,-7.833828,-1.4556746,0.72664315,-9.621541,-1.7516665
1409347364927,4.119224,-6.55293,-0.8774749,0.9158806,-9.606496,-1.7455075
1409347364934,2.8963854,-5.209184,-2.2816741,1.1794726,-9.588045,-1.6877866
1409347364964,2.2780828,-4.731541,-3.8307228,1.3500819,-9.552857,-1.7580116
1409347364966,2.4343045,-5.2840033,-2.7491422,1.4825659,-9.489948,-1.9782033
1409347364973,1.520318,-5.502474,-1.5580268,1.6382985,-9.43585,-2.109767
1409347365018,0.8559271,-5.556942,-1.3605051,1.6943306,-9.415522,-2.1558244
1409347365019,0.59136784,-5.504868,-0.107739076,1.6567057,-9.41072,-2.205466
1409347365020,0.7182605,-5.035605,-0.86131406,1.5941353,-9.439446,-2.1274316
1409347365020,1.584363,-4.2981906,-2.4570496,1.5610868,-9.44742,-2.1165128
1409347365021,2.8443117,-3.678691,-2.119467,1.6458392,-9.395259,-2.2783225
1409347365022,4.1012673,-3.1441853,-1.7184383,1.8919171,-9.318617,-2.39884
1409347365036,5.2516813,-2.5959132,-2.095525,2.3120193,-9.20173,-2.4805548
1409347365052,6.2045736,-2.1086931,-2.4331074,2.8784692,-9.000635,-2.6217134
1409347365054,6.7725983,-1.9165585,-2.5959132,3.5540223,-8.701503,-2.7969923
1409347365072,6.8204823,-1.7100586,-3.1022868,4.263671,-8.31954,-2.9625552
1409347365088,7.101801,-1.4562732,-3.1705215,4.9060655,-7.8787813,-3.1663423
1409347365088,7.03596,-1.6124948,-2.5719712,5.520338,-7.373123,-3.3664994
1409347365102,6.3063273,-2.7760768,-1.7088615,6.058478,-6.895974,-3.4512043
1409347365103,5.568913,-4.8458643,-1.1707647,6.416729,-6.593975,-3.3934548
1409347365119,4.794389,-8.450933,0.6278794,6.5562663,-6.5379066,-3.2313411
1409347365122,-3.9282866,-16.955736,13.3464775,6.4371185,-6.8558526,-2.780496
1409347365135,-18.117523,-19.608511,19.608511,5.1564007,-8.313918,-0.6787474
1409347365153,-19.60911,-19.608511,14.49749,5.3327436,-8.178202,-0.9215338
1409347365155,-19.60911,-19.608511,5.009867,5.4856954,-8.041557,-1.1878064
1409347365169,-18.513763,-16.331448,2.2697031,5.551759,-7.962846,-1.3933611
1409347365186,-11.452065,-7.960122,5.4192758,5.5402284,-7.9475923,-1.520532
1409347365186,-8.468291,-8.292317,7.6428905,-4.1557636,-8.495633,2.5931163
1409347365205,-4.6112323,-9.911995,5.683835,-4.4730835,-8.239267,2.8768694
1409347365205,0.49919105,-10.364499,0.7230489,-4.3784394,-8.2140045,3.0870347
1409347365225,5.929839,-15.502456,-1.8782512,-3.9753397,-8.444196,3.010421
1409347365225,9.209297,-19.528307,-2.31639,-3.0758805,-8.933965,2.6255763
1409347365234,8.110358,-14.895526,-1.9991584,-1.9349984,-9.373394,2.136745
1409347365250,7.0227923,-8.878897,-1.0061632,-1.0632473,-9.584995,1.779814
1409347365253,5.3079453,-7.052121,0.37708676,-0.3937129,-9.668217,1.5940362
1409347365283,2.8419175,-7.314286,0.3321955,0.10385025,-9.687676,1.5193828
1409347365284,2.6090813,-7.1754227,-1.2449849,0.3763871,-9.698266,1.4044126
1409347365285,3.50571,-7.979874,-2.469619,0.61768913,-9.717746,1.163734
1409347365312,4.223372,-9.551069,-3.1800983,0.92164606,-9.725287,0.86009884
1409347365313,4.1335893,-10.602722,-3.1675289,1.2545033,-9.713426,0.49595162
1409347365315,3.3943794,-10.705673,-3.2309752,1.5499545,-9.682095,0.15833354
1409347365323,2.6569653,-10.44231,-3.406949,1.747648,-9.648267,-0.16455081
1409347365337,2.2876596,-10.348338,-3.8851907,1.8570758,-9.617705,-0.47053602
1409347365351,2.4420857,-9.725846,-3.9695864,1.9080977,-9.586412,-0.7938807
1409347365354,2.4061728,-8.783728,-3.4853592,1.956749,-9.545289,-1.1085949
1409347365378,2.1871033,-7.949947,-2.2691047,2.0020752,-9.50229,-1.3669623
1409347365378,2.172738,-7.423821,-1.1755531,2.0435038,-9.474079,-1.4954338
1409347365382,2.1649568,-7.459734,-0.5554548,2.0982807,-9.457684,-1.523108
1409347365406,1.9387048,-7.9954367,-0.24600422,2.1538517,-9.45171,-1.4820495
1409347365407,1.5676036,-10.363302,-0.17776948,2.1857975,-9.458158,-1.391372
1409347365414,1.0594343,-11.971008,-0.58777654,2.1384563,-9.487206,-1.2610879
1409347365441,0.2124854,-13.055582,-1.3880384,2.0212,-9.5254965,-1.1619185
1409347365442,-0.6619968,-13.447633,-2.1733365,1.8234566,-9.568722,-1.1335721
1409347365442,-0.7721301,-12.530055,-2.96881,1.5649463,-9.6107,-1.1643875
1409347365457,0.45549688,-10.676344,-4.923676,1.330416,-9.631647,-1.2774019
1409347365480,1.6130934,-9.640253,-6.685808,1.2353473,-9.606448,-1.5363772
1409347365481,0.43394905,-9.436746,-8.049306,1.231127,-9.53373,-1.939778
1409347365482,-1.7866731,-9.964667,-5.153519,1.1068618,-9.430961,-2.4499488
1409347365504,-2.1631613,-9.742605,-3.144784,0.81094813,-9.394605,-2.6933477
1409347365505,-2.6755204,-9.959879,-2.1290438,0.5074179,-9.380688,-2.813465
1409347365518,-3.7822402,-10.359112,-0.76195467,0.18158552,-9.380349,-2.8541982
1409347365535,-3.4368765,-10.070611,0.45669398,-0.18181466,-9.428643,-2.6903543
1409347365535,-2.9221232,-9.986216,0.18375498,-0.4607868,-9.485281,-2.446928
1409347365552,-2.5809495,-10.293272,-0.5686229,-0.69928545,-9.527427,-2.21575
1409347365553,-2.2649148,-10.562021,-0.5506664,-0.8795102,-9.550018,-2.0479333
1409347365570,-1.9117701,-10.561422,-0.27712885,-1.0074642,-9.570345,-1.887835
1409347365585,-1.4532804,-10.337564,-0.09696517,-1.0909672,-9.590171,-1.7345808
1409347365586,-0.92296475,-9.940725,0.25498247,-1.1302677,-9.608959,-1.6002456
1409347365600,-0.5943606,-9.794081,0.84575176,-1.121075,-9.63172,-1.4640847
1409347365602,-0.57281274,-10.140641,1.3940239,-1.0770822,-9.662652,-1.2819542
1409347365619,-0.3298013,-10.533889,1.9967642,-1.0318642,-9.692071,-1.081398
1409347365633,-0.05925649,-10.775703,2.6222494,-0.959059,-9.722743,-0.847846
1409347365635,0.20530279,-10.932524,2.8275523,-0.86482996,-9.751324,-0.5780479
1409347365651,0.35254622,-11.279683,3.1292217,-0.7547747,-9.772639,-0.31019014
1409347365655,0.7445967,-11.510124,3.7894228,-0.64006114,-9.785715,-0.022233533
1409347365667,1.1498153,-11.683704,4.4795513,-0.50285715,-9.788576,0.31827816
1409347365686,1.9261353,-11.414356,4.8787847,-0.35158145,-9.776609,0.6816854
1409347365686,2.457648,-11.038467,5.037999,-0.16007717,-9.745648,1.0803385
1409347365700,2.007538,-11.38383,4.26527,0.05077347,-9.696729,1.46331
1409347365702,1.4275428,-11.71004,2.8083985,0.18983854,-9.652928,1.7191035
1409347365715,0.6787562,-11.478401,1.42455,0.2677008,-9.635416,1.8048459
1409347365731,-0.3298013,-10.699687,0.079008654,0.27641836,-9.642013,1.7679292
1409347365751,-1.3688848,-10.323798,-1.1905168,-0.07552929,-9.741586,1.1252488
1409347365752,-2.2900538,-11.077971,-2.059612,-0.07552929,-9.741586,1.1252488
1409347365768,-3.3554738,-12.29662,-3.6373909,-0.07552929,-9.741586,1.1252488
1409347365769,-4.7081976,-13.005303,-4.8069587,-0.32547495,-9.77395,0.7309977
1409347365784,-5.029619,-13.059174,-4.2317514,-0.6575253,-9.780928,0.26741418
1409347365785,-6.2303114,-13.628395,-2.694674,-0.9917072,-9.755642,-0.11978833
1409347365799,-5.787384,-13.65892,-1.0450691,-1.3900118,-9.700454,-0.37341312
1409347365802,-5.2061915,-13.591883,0.9528923,-1.7025778,-9.645644,-0.48289514
1409347365816,-5.2462945,-13.965977,3.6912606,-1.9282223,-9.607233,-0.3916696
1409347365832,-5.8023477,-14.480132,7.6488757,-2.1161547,-9.575439,-0.05696831
1409347365834,-6.1728506,-15.13315,12.097901,-2.3031106,-9.517253,0.5366485
1409347365852,-3.1022868,-13.378201,2.9873652,-2.4729636,-9.388533,1.382138
1409347365854,-2.0428526,-12.129624,-2.4349031,-2.4840512,-9.369755,1.485788
1409347365866,-1.9782091,-11.912351,-3.4344823,-2.4810286,-9.406439,1.2384769
1409347365884,-2.0015526,-13.400946,-4.9158945,-2.4668198,-9.442348,0.9629392
1409347365884,-1.0576386,-14.696807,-5.78918,-2.3918035,-9.493055,0.57580763
1409347365899,0.16819267,-14.108432,-5.153519,-2.2328587,-9.5481615,0.13181728
1409347365902,0.33159694,-13.218388,-4.7159786,-2.021882,-9.593394,-0.22169404
1409347365922,-0.048482586,-13.066955,-4.92607,-1.8589748,-9.612977,-0.55251
1409347365923,0.14065935,-13.931261,-4.6603136,-1.7399575,-9.614542,-0.83875054
1409347365936,0.5650316,-16.748638,-3.2531216,-1.5956104,-9.618089,-1.0567694
1409347365949,2.1140802,-19.561226,-0.7104794,-1.4088976,-9.639056,-1.128714
1409347365968,5.807136,-19.608511,2.1511903,-1.12355,-9.69069,-0.99928707
1409347365968,8.4347725,-19.608511,3.3327289,-0.6420979,-9.760694,-0.6978266
1409347365985,8.641871,-18.988413,0.008978256,-0.051635496,-9.80025,-0.35046932
1409347365986,5.6299653,-14.821305,-5.2528787,0.47150195,-9.791569,-0.27071065
1409347366001,3.120842,-12.537237,-9.277532,0.79044574,-9.760268,-0.5317067
1409347366002,2.0452468,-11.139024,-8.448539,0.9671163,-9.700461,-1.0658953
1409347366017,3.0238767,-9.818622,-4.9308586,1.0874512,-9.620608,-1.5594021
1409347366032,4.4161053,-8.197746,-1.5987282,1.2415113,-9.553144,-1.8347924
1409347366034,5.28939,-6.293159,-0.28790274,1.452632,-9.513614,-1.8845127
1409347366049,4.3622355,-5.218761,-2.321777,1.7292846,-9.481306,-1.8123996
1409347366067,3.0113072,-4.4639893,-4.162918,1.9610654,-9.421765,-1.8854537
1409347366067,0.99658644,-4.7620673,-6.037578,2.113069,-9.351251,-2.0638444
1409347366083,1.1803415,-5.525219,-4.083311,2.0870445,-9.267649,-2.4341958
1409347366083,0.62249243,-6.2554507,-2.010531,2.0687776,-9.202985,-2.6824663
1409347366098,0.092176765,-6.1979895,-0.62728083,1.9950098,-9.197698,-2.75548
1409347366102,-0.07062895,-5.8921304,-0.439336,1.8656992,-9.2423935,-2.695874
1409347366116,0.866701,-5.097255,-0.557849,1.7228765,-9.297506,-2.5997038
1409347366132,2.095525,-4.238934,-1.4814123,1.6999159,-9.324562,-2.5165913
1409347366134,3.378817,-3.4638114,-1.4287399,1.8342754,-9.29077,-2.5470371
1409347366151,4.07134,-2.7084408,-2.2050598,2.1406155,-9.21486,-2.5835114
1409347366166,4.6806645,-1.9752164,-2.7659016,2.5469193,-9.071283,-2.7194483
1409347366166,5.407305,-1.3227965,-2.8688521,3.0352595,-8.8499155,-2.9388096
1409347366183,5.687426,-0.9271546,-3.068768,3.6241262,-8.539559,-3.179936
1409347366184,6.005256,-0.55964464,-3.4051533,4.2379227,-8.146149,-3.4424803
1409347366198,6.4805055,-0.42676646,-3.5242648,4.860346,-7.657251,-3.7301393
1409347366204,6.5367694,-0.3705027,-3.9085343,5.470025,-7.101615,-3.9769666
1409347366215,5.9082913,-1.4161704,-3.2740707,6.001098,-6.4908876,-4.2456512
1409347366235,5.1481323,-3.3542767,-1.4993688,6.363773,-6.0468626,-4.3713017
1409347366236,4.0683475,-6.4002995,1.1779473,6.579345,-5.930989,-4.2078514
1409347366248,-0.9696517,-14.362218,11.988965,6.589214,-6.282614,-3.644369
1409347366269,-13.130401,-19.608511,18.689737,5.7700286,-7.789856,-1.4816648
1409347366269,-19.095554,-19.608511,17.118542,5.909263,-7.6408854,-1.6934739
1409347366282,-19.60911,-19.608511,14.582484,5.9782996,-7.5350637,-1.9113264
1409347366283,-8.643666,-18.191744,4.167108,5.9813557,-7.4554834,-2.1930654
1409347366303,-6.6145806,-8.005013,5.6245785,-2.3164113,-8.896723,3.413643
1409347366315,-3.019687,-8.696339,5.6347537,-2.8391702,-8.708112,3.504041
1409347366315,0.5542577,-9.239823,4.470573,-2.9475431,-8.632244,3.6009371
1409347366332,1.7034745,-9.0476885,3.305794,-2.6403337,-8.683922,3.7132878
1409347366334,3.828927,-10.010756,0.14784196,-2.2203531,-8.769427,3.786497
1409347366346,4.9548006,-14.51784,-2.7802668,-1.62275,-8.99413,3.5556571
1409347366368,3.453636,-15.954362,-4.778228,-0.95097446,-9.31402,2.9180613
1409347366368,0.7062895,-13.017873,-4.892551,-0.5262372,-9.55665,2.1363308
1409347366387,-2.0560207,-10.998962,-4.332308,-0.3991811,-9.683304,1.4982306
1409347366388,-1.3718776,-10.68652,-2.9706059,-0.5285101,-9.742549,0.98682684
1409347366414,0.47764325,-10.047267,-2.336741,-0.5795891,-9.769945,0.61856884
1409347366415,1.5466543,-9.862315,-1.9740193,-0.46694064,-9.789095,0.35491732
1409347366416,1.1707647,-11.091738,-0.84694886,-0.28108636,-9.801021,0.17716011
1409347366433,1.1150994,-10.744578,-0.3333926,-0.14004882,-9.805194,0.09472762
1409347366435,2.7455509,-8.641871,-0.37469256,-0.014520693,-9.806561,0.03927344
1409347366454,4.659715,-7.405266,-0.7870938,0.25329,-9.803062,-0.078867495
1409347366455,5.193622,-7.9792757,-1.941099,0.6569985,-9.782466,-0.20516777
1409347366463,4.75668,-8.983045,-3.2842462,1.0777224,-9.740192,-0.37086016
1409347366487,4.2640734,-8.89446,-3.8977604,1.4514152,-9.67816,-0.6300825
1409347366488,3.8307228,-8.267179,-3.1723173,1.7701684,-9.60011,-0.93530107
1409347366495,3.4111388,-8.367735,-2.3415294,2.0260093,-9.525226,-1.1557372
1409347366524,3.1890767,-8.673594,-1.7322049,2.1945515,-9.47068,-1.288627
1409347366525,2.8299465,-8.904634,-1.2503718,2.3338463,-9.430143,-1.3401328
1409347366525,2.4510639,-9.298481,-1.062427,2.411722,-9.408959,-1.3511153
1409347366549,2.178125,-9.801862,-1.0672154,2.4399881,-9.40374,-1.3366005
1409347366549,1.9446903,-10.477625,-1.1204864,2.4340842,-9.407562,-1.3203812
1409347366565,1.4862007,-11.463438,-1.0708067,2.3921337,-9.420555,-1.3043121
1409347366566,0.91578215,-12.056602,-0.8750807,2.2924905,-9.449255,-1.2753052
1409347366580,0.40162733,-12.115259,-0.95947635,2.140554,-9.491488,-1.2247616
1409347366583,-0.21188685,-11.651382,-1.198298,1.9552261,-9.53688,-1.1812755
1409347366597,-0.504578,-10.694899,-1.2635399,1.7320924,-9.581631,-1.1673162
1409347366612,-0.23642741,-9.885659,-1.1869255,1.5055151,-9.620564,-1.1612735
1409347366617,0.03172317,-9.188348,-1.0097545,1.3226982,-9.648754,-1.1499656
1409347366629,0.037110128,-8.771756,-1.299453,1.1891274,-9.66857,-1.1292162
1409347366635,-0.37948096,-8.924387,-0.80684596,1.0816453,-9.679213,-1.1459832
1409347366646,-1.0097545,-9.457097,-0.80804306,0.958392,-9.695866,-1.1144863
1409347366666,-1.7034745,-9.723452,-2.9454668,0.7852245,-9.715183,-1.0812231
1409347366666,-3.0723593,-10.724827,-3.0903158,0.54525256,-9.711208,-1.2512004
1409347366679,-3.738546,-11.000758,-3.7116113,0.18765023,-9.700251,-1.4284011
1409347366683,-3.5314474,-10.468647,-2.8856115,-0.19649054,-9.659464,-1.6812279
1409347366697,-3.1890767,-10.039486,-2.1637597,-0.5181591,-9.619049,-1.837347
1409347366714,-2.8233624,-9.805453,-1.0630256,-0.7847607,-9.58954,-1.8961215
1409347366716,-2.457648,-9.619304,-0.09636662,-0.9942051,-9.580513,-1.8427503
1409347366728,-2.2691047,-9.715671,0.670975,-1.1410543,-9.588098,-1.7136931
1409347366746,-2.1799207,-10.596138,0.6865373,-1.2476529,-9.608519,-1.5133178
1409347366746,-1.8261774,-10.869077,0.83976626,-1.3159479,-9.625842,-1.3348385
1409347366763,-1.2791022,-11.405977,0.8050503,-1.3409815,-9.645097,-1.1594061
1409347366764,-0.9044097,-11.94168,1.2126632,-1.3119574,-9.666248,-1.0063844
1409347366784,-0.8463503,-12.014104,1.5209166,-1.2486583,-9.691548,-0.82771766
1409347366784,-0.76075757,-11.507132,1.9045875,-1.1843566,-9.714159,-0.6346717
1409347366804,-0.4997896,-10.779893,2.5258827,-1.1240476,-9.733173,-0.4150313
1409347366804,-0.2669535,-9.959879,3.0663738,-1.0619438,-9.747588,-0.16485563
1409347366815,0.439336,-9.202713,4.6459484,-0.9970773,-9.754983,0.12860888
1409347366829,0.931943,-9.085996,5.3899465,-0.8928087,-9.750335,0.5515797
1409347366849,0.60932434,-9.646238,4.8135424,-0.7597823,-9.725874,1.0002507
1409347366849,-0.55485624,-10.761338,2.7234044,-0.6655552,-9.693209,1.3300765
1409347366860,-1.8303672,-12.03266,0.80325466,-0.67587274,-9.680179,1.4169317
1409347366863,-3.2836475,-13.2752495,-1.9506758,-0.7841687,-9.683306,1.337565
1409347366883,-4.613028,-13.481152,-4.0456023,-0.9762553,-9.699033,1.070542
1409347366884,-5.6359506,-13.185468,-4.06296,-1.2355748,-9.707818,0.6340307
1409347366899,-6.467936,-13.392566,-2.6844985,-1.5494249,-9.679135,0.2898382
1409347366911,-6.1758432,-13.561955,-0.6967127,-1.8757367,-9.625452,0.051876795
1409347366915,-4.803367,-14.5346,0.2825158,-2.1276293,-9.573,-0.035669263
1409347366928,-5.605425,-16.424223,2.0817583,-2.246298,-9.545888,-0.02361346
1409347366945,-5.853823,-17.880497,6.471527,-2.3946397,-9.50879,0.1377982
1409347366946,-4.6776714,-18.541895,11.686098,-2.4901977,-9.466808,0.5906496
1409347366962,-3.0532057,-17.27656,9.135675,-2.512978,-9.459222,0.6151868
1409347366963,-1.638831,-14.097059,2.1003134,-2.38963,-9.341019,1.7903725
1409347366980,-0.7386112,-12.670714,0.29807812,-2.328679,-9.3477955,1.8347603
1409347366983,-0.48362875,-13.174095,-1.678934,-2.2571576,-9.376448,1.7770396
1409347366996,-0.16639702,-13.986926,-5.459977,-2.133894,-9.442569,1.566775
1409347367012,0.5189432,-13.654132,-6.167464,-1.9561504,-9.5485735,1.0810189
1409347367017,0.6015432,-11.634025,-5.41748,-1.7567444,-9.632244,0.5514587
1409347367029,0.034117375,-11.493365,-4.815338,-1.598976,-9.674759,0.11266645
1409347367049,-0.20350714,-12.683284,-4.5603557,-1.4875692,-9.690672,-0.22000651
1409347367050,-0.10354923,-15.1128,-3.2381577,-1.3975769,-9.6933975,-0.505152
1409347367061,0.7206547,-18.912996,-1.4748282,-1.2966797,-9.699182,-0.6441086
1409347367063,3.09271,-19.608511,1.7687165,-1.1294765,-9.721029,-0.62946314
1409347367077,6.125565,-19.608511,3.9773676,-0.8225743,-9.763723,-0.40431476
1409347367084,7.7703815,-18.997393,1.5825673,-0.35905486,-9.799854,-0.06572606
1409347367096,5.393538,-14.244303,-3.5362358,0.16039748,-9.805001,0.08132168
1409347367113,1.79206,-11.708843,-8.180388,0.51496786,-9.792341,-0.12355112
1409347367115,0.23163901,-10.529699,-10.031705,0.617351,-9.767211,-0.6251944
1409347367133,0.7769185,-9.122507,-5.9130797,0.63654345,-9.701864,-1.2802445
1409347367149,2.48159,-8.0684595,-2.920926,0.65942925,-9.642697,-1.6594883
1409347367150,3.8762126,-6.9461775,-1.7818847,0.76484543,-9.606482,-1.8168452
1409347367163,4.4801497,-5.805939,-1.2312182,0.9847803,-9.579631,-1.8523748
1409347367164,4.2395325,-5.331289,-2.2385786,1.2824352,-9.551385,-1.8157065
1409347367184,1.9207484,-4.2904096,-6.6067996,1.5711665,-9.502476,-1.8452088
1409347367197,2.6551697,-4.4514194,-3.1130607,1.6587106,-9.388223,-2.2978988
1409347367199,1.9764135,-5.197812,-0.33997664,1.8135277,-9.321662,-2.4470694
1409347367212,1.91596,-5.0224366,1.3156139,1.9079481,-9.318745,-2.3856103
1409347367216,1.5406688,-4.38917,-0.89303726,2.003457,-9.34918,-2.179307
1409347367228,1.459266,-4.036624,-3.1124623,2.0485744,-9.33477,-2.199042
1409347367246,2.0440497,-3.7337575,-2.44448,2.0796447,-9.268633,-2.4367888
1409347367247,2.6725276,-3.0597897,-2.9777884,2.2047246,-9.199382,-2.584754
1409347367264,3.5877113,-2.4265234,-1.7645266,2.4169943,-9.076599,-2.8184915
1409347367265,4.7698483,-1.8698715,-1.8291701,2.75822,-8.94405,-2.9268746
1409347367280,5.60722,-1.4257472,-2.6491842,3.2733896,-8.726668,-3.0496833
1409347367297,6.583456,-0.93373865,-3.3033998,3.8905387,-8.389032,-3.2646964
1409347367297,7.361572,-0.52073884,-3.8630445,4.603563,-7.9072127,-3.5289679
1409347367311,7.253234,-1.0055647,-3.8301241,5.3438125,-7.2871423,-3.8094146
1409347367326,6.531981,-2.1936872,-3.2770636,5.9397893,-6.6876645,-4.0204983
1409347367327,5.629367,-3.7804444,-1.9416976,6.3272576,-6.2655697,-4.108385
1409347367344,3.7600937,-7.125743,0.09756372,6.526486,-6.142436,-3.9806871
1409347367345,-3.8792052,-15.867572,13.454216,6.4220796,-6.489755,-3.5791597
1409347367360,-15.989676,-19.608511,17.158047,5.25255,-8.1788645,-1.2989602
1409347367364,-19.60911,-19.608511,17.24304,5.40645,-8.040309,-1.5146353
1409347367385,-19.60911,-19.608511,13.183672,5.5137815,-7.921895,-1.7355647
1409347367386,-16.18181,-15.673043,3.8845923,5.506349,-7.8646626,-1.9993917
1409347367396,-7.968502,-6.071097,1.910573,5.407246,-7.8638654,-2.2564743
1409347367418,-7.8463974,-5.783194,5.686229,-3.924924,-8.478816,2.9791033
1409347367419,-3.690662,-7.3753386,6.2392898,-4.3699965,-8.216037,3.0935824
1409347367424,-0.3345897,-8.9519205,3.6846764,-4.2805157,-8.15533,3.3672233
1409347367448,2.554613,-9.950901,0.90859956,-3.8934758,-8.291744,3.501174
1409347367449,6.343437,-14.170083,-1.6478093,-3.3061714,-8.576702,3.4175763
1409347367465,7.3466077,-18.336592,-3.333926,-2.349042,-9.041974,2.982462
1409347367466,6.220136,-15.590443,-3.1681273,-1.3601532,-9.432503,2.3126335
1409347367478,4.2640734,-12.246342,-2.2649148,-0.63915014,-9.61999,1.7937925
1409347367495,1.927931,-11.660959,-0.8391677,-0.197825,-9.699401,1.4327857
1409347367498,1.4137762,-11.030685,-1.5490485,0.013762276,-9.730778,1.2174495
1409347367509,2.3642743,-11.258135,-3.0172927,0.16413346,-9.760107,0.9400807
1409347367516,2.7036524,-11.9333,-3.056797,0.3793775,-9.782508,0.5735934
1409347367527,2.11827,-12.038645,-1.9602526,0.5904484,-9.785356,0.2618132
1409347367542,2.4247277,-10.33098,-0.75716627,0.7301418,-9.779293,0.052163318
1409347367544,3.5745432,-8.426991,0.20051439,0.88448715,-9.766523,-0.055590954
1409347367561,4.1299977,-7.9702973,0.110133275,1.1216098,-9.742177,-0.04830752
1409347367564,3.9719806,-8.057087,-0.7386112,1.4087241,-9.704886,-0.032793432
1409347367582,3.7732618,-7.7769656,-1.1216835,1.6713922,-9.662751,-0.08976152
1409347367605,3.4650085,-7.008427,-1.0121487,1.9139854,-9.616456,-0.17555852
1409347367606,3.0873232,-6.5523314,-0.6961141,2.123422,-9.570772,-0.24860272
1409347367607,3.0340521,-6.9665284,-0.6500258,2.292643,-9.530406,-0.29246494
1409347367630,2.7012582,-7.831434,-1.1959038,2.4401941,-9.492353,-0.33324295
1409347367631,2.3690627,-9.841366,-1.5059528,2.5308924,-9.464706,-0.4293252
1409347367645,2.0171149,-11.065402,-1.7908629,2.5389376,-9.456792,-0.54157066
1409347367646,1.3587095,-12.492346,-2.0614076,2.4765754,-9.465204,-0.668487
1409347367659,0.25797522,-14.026431,-2.4492683,2.339128,-9.489708,-0.80269116
1409347367664,-0.6123171,-14.0473795,-2.8341362,2.0862086,-9.535633,-0.9433088
1409347367684,-0.16220717,-11.3551,-2.3092074,1.780558,-9.582242,-1.0865788
1409347367685,0.42796355,-8.590994,-1.8477252,1.5704286,-9.610348,-1.1598969
1409347367698,0.3842694,-7.354389,-2.0189106,1.4473586,-9.626347,-1.1870131
1409347367713,0.7697359,-7.0712748,-2.1057005,1.3463126,-9.632639,-1.2530454
1409347367731,1.0947487,-7.2729864,-2.4438813,1.3089076,-9.623236,-1.3603348
1409347367732,1.1965023,-7.8224554,-5.345055,1.3201842,-9.602907,-1.4871812
1409347367745,-1.1815386,-9.639056,-12.484565,1.3187357,-9.530228,-1.8989767
1409347367747,-4.5142674,-11.282676,-9.054871,1.0124825,-9.315957,-2.8910534
1409347367760,-3.9719806,-11.75972,-3.6828809,0.4399404,-9.192531,-3.387357
1409347367765,-4.0282445,-11.96203,-1.7202339,0.01948942,-9.18992,-3.4227707
1409347367778,-3.821146,-12.123639,-2.100912,-0.35727614,-9.229145,-3.2963066
1409347367793,-2.6767175,-11.267113,-1.8968062,-0.66718,-9.26519,-3.1434898
1409347367805,-1.7549498,-10.527904,-1.1300632,-0.8357824,-9.298542,-3.0014954
1409347367817,-1.3479356,-10.605715,-1.002572,-0.9082561,-9.344041,-2.8344975
1409347367817,-1.4454993,-10.856507,-0.9068039,-0.93631935,-9.384599,-2.6875634
1409347367824,-1.6561891,-11.031883,-0.19931729,-0.9674407,-9.420182,-2.548458
1409347367843,-1.91596,-11.286865,1.055843,-1.015373,-9.463143,-2.3639743
1409347367844,-2.0638018,-11.664551,2.3421278,-1.0861001,-9.518038,-2.097079
1409347367861,-2.2050598,-11.972804,3.654749,-1.1642992,-9.578698,-1.7502424
1409347367866,-2.3343468,-12.372636,5.1343656,-1.2375991,-9.640111,-1.3065184
1409347367883,-2.3989902,-12.760496,7.4495587,-1.3164457,-9.684366,-0.8064767
1409347367885,-2.0524294,-12.6222315,12.12723,-1.3847083,-9.7068615,-0.17258994
1409347367896,-1.2545617,-12.415731,18.567633,-1.4218531,-9.670871,0.789312
1409347367923,-1.400608,-12.747927,16.14889,-1.4483285,-9.695237,0.27406627
1409347367924,-2.1559787,-12.779052,8.22109,-1.4194168,-9.172469,3.1656628
1409347367925,-2.2301989,-11.07019,-2.0003555,-1.540202,-9.015394,3.5384812
1409347367943,-2.4959552,-9.48882,-11.492766,-1.6694331,-9.133785,3.1555307
1409347367945,-1.1552023,-9.332,-10.315418,-1.7245326,-9.402951,2.1865225
1409347367962,-0.49440265,-11.402985,-7.433398,-1.6242774,-9.594817,1.2130796
1409347367965,-1.4119805,-14.5884695,-3.7056258,-1.4097438,-9.69358,0.46643898
1409347367978,-3.2734723,-16.027983,-3.3105824,-1.2899897,-9.720485,0.13598414
1409347367990,-5.740697,-15.178041,-2.7928362,-1.363616,-9.710863,-0.100311995
1409347367996,-6.853402,-14.057555,0.7858967,-1.6622927,-9.659803,-0.3088135
1409347368011,-5.887342,-12.935872,4.584896,-2.002238,-9.595743,-0.28835827
1409347368029,-4.056975,-12.659342,7.455544,-2.219891,-9.552064,0.023098644
1409347368030,-2.920926,-14.136564,6.8947024,-2.2943077,-9.516741,0.5815523
1409347368047,-2.1948843,-16.245855,7.3567834,-2.2760143,-9.478505,1.0714871
1409347368048,-1.6801311,-17.718887,10.713454,-2.191999,-9.434884,1.532476
1409347368064,-1.2216414,-17.510593,6.1040173,-2.0736248,-9.349082,2.1130888
1409347368066,-2.4229321,-13.511079,-2.758719,-1.9649532,-9.327701,2.3028996
1409347368076,-3.369839,-12.266692,-2.9628246,-1.9976349,-9.397343,1.9671805
1409347368092,-3.122039,-11.737574,-4.38498,-2.0708826,-9.442622,1.6488565
1409347368109,-1.6460136,-12.86225,-5.251083,-2.1060703,-9.495677,1.2517871
1409347368110,-0.55964464,-13.111846,-4.988918,-2.051957,-9.557122,0.78821754
1409347368125,-0.47405192,-12.288838,-5.8095303,-1.9461386,-9.60456,0.36789867
1409347368125,-0.18375498,-12.25532,-6.1704564,-1.8572139,-9.628842,-0.080910765
1409347368140,0.30765492,-13.4500265,-5.120599,-1.7444131,-9.637814,-0.48986703
1409347368145,0.38486794,-16.359581,-3.0855274,-1.5953699,-9.645671,-0.76563513
1409347368159,1.115698,-19.524715,-0.47105917,-1.4250889,-9.664373,-0.85988915
1409347368189,3.799598,-19.608511,3.8642416,-1.1950419,-9.704902,-0.7464212
1409347368190,7.213131,-19.608511,4.5459905,-0.80458045,-9.766474,-0.37286517
1409347368190,8.438364,-17.995419,-1.1043255,-0.2557618,-9.803313,-0.0060792835
1409347368197,5.9920883,-13.247118,-8.024167,0.28230566,-9.8024845,-0.044626493
1409347368222,3.9264908,-11.321581,-10.650606,0.6421175,-9.771606,-0.52322924
1409347368223,2.7102363,-10.389638,-8.881889,0.90096366,-9.696655,-1.1547835
1409347368225,2.3223755,-9.941324,-4.835689,1.0768132,-9.603456,-1.6686867
1409347368244,4.016872,-8.583812,-3.8229415,1.1723355,-9.545458,-1.9183936
1409347368245,5.051167,-5.601235,-4.060566,1.3588884,-9.489068,-2.069149
1409347368261,4.4597993,-3.900753,-3.7062242,1.63483,-9.4003,-2.2654116
1409347368265,2.379238,-4.5483847,-6.6546836,1.8963264,-9.304969,-2.4478421
1409347368279,0.42078096,-5.4779334,-7.1221514,2.009026,-9.167838,-2.8434045
1409347368292,-0.2220622,-5.837662,-1.7076644,1.9453807,-9.043931,-3.2547166
1409347368297,-0.31902736,-5.489306,1.3311762,1.8063282,-9.070131,-3.261945
1409347368312,0.16101007,-5.204396,0.92176765,1.6379353,-9.176027,-3.0476365
1409347368335,0.30107087,-5.0002904,-0.40761283,1.5218024,-9.2619,-2.8410792
1409347368336,0.6596026,-4.1677065,-1.5161282,1.4593267,-9.305217,-2.7301533
1409347368339,1.8148049,-2.9789855,-1.9321208,1.4586931,-9.300712,-2.7457933
1409347368345,2.5953147,-2.3540988,-3.1064768,1.6145395,-9.245395,-2.8436434
1409347368366,3.643975,-1.6531962,-2.7868507,1.860409,-9.113177,-3.1079369
1409347368384,4.835689,-0.931943,-2.4366987,2.2645447,-8.930707,-3.3592713
1409347368386,6.131551,-0.38486794,-3.378817,2.8608,-8.668635,-3.5834355
1409347368408,6.8486137,-0.04189853,-4.295198,3.622153,-8.229518,-3.9147735
1409347368409,7.15567,0.1352724,-5.0182467,4.4234724,-7.6275163,-4.2923503
1409347368410,7.0485296,0.20470424,-4.988918,5.152927,-6.892176,-4.7027287
1409347368432,6.9186444,-0.439336,-3.9624038,5.7666316,-6.1350303,-5.0276995
1409347368433,6.585252,-2.345719,-2.3546975,6.2667184,-5.512507,-5.148871
1409347368437,6.0848637,-5.418677,1.103727,6.6342077,-5.218918,-4.992052
1409347368445,-0.25258827,-15.07988,15.5258,6.904533,-5.441249,-4.346336
1409347368471,-14.225748,-19.608511,17.423803,6.3292418,-7.3063383,-1.6518261
1409347368472,-19.507956,-19.608511,15.912463,6.4709363,-7.1212916,-1.8932863
1409347368477,-19.60911,-19.608511,14.156316,6.5751157,-6.9740753,-2.073775
1409347368499,-13.825916,-16.23987,3.3931823,6.569564,-6.9126005,-2.2863014
1409347368500,-5.8879404,-4.653131,-0.2765303,-2.8922596,-8.796968,3.2277818
1409347368505,-3.551798,-6.519411,6.4511766,-3.4643297,-8.697388,2.9196303
1409347368532,0.40940848,-8.6712,4.338892,-3.5347674,-8.572952,3.1906593
1409347368533,2.885013,-10.63684,1.8986019,-3.1234581,-8.665822,3.3642132
1409347368538,6.0687027,-13.487736,0.47405192,-2.5128913,-8.879895,3.3171132
1409347368545,6.827665,-16.038757,-3.3201592,-1.6071374,-9.186324,3.0329747
1409347368571,4.5441947,-13.816938,-4.4915223,-0.7515812,-9.492618,2.344303
1409347368572,2.746748,-10.910975,-3.086126,-0.23205695,-9.657301,1.6891127
1409347368579,0.33518824,-10.99597,-1.0941502,0.03619769,-9.720567,1.2960203
1409347368591,-0.5626374,-11.555614,-1.3239936,0.11839053,-9.745411,1.0878123
1409347368609,0.5105635,-10.404003,-2.144606,0.06879004,-9.771492,0.82680786
1409347368610,1.0199299,-10.131663,-0.9008184,0.12707536,-9.791374,0.53218454
1409347368626,0.7954735,-10.557831,-0.1352724,0.21796587,-9.795903,0.40393707
1409347368627,1.3132197,-10.246585,-0.79726917,0.27851766,-9.7959385,0.36388418
1409347368642,2.408567,-8.908226,-1.934515,0.38526276,-9.796202,0.23749183
1409347368645,3.1280246,-8.228871,-3.0322564,0.5820973,-9.789359,0.0018529344
1409347368666,3.1723173,-8.731653,-4.0539823,0.8208242,-9.767729,-0.29681846
1409347368666,3.1693244,-8.895657,-4.300585,1.0577736,-9.72715,-0.6588482
1409347368676,3.632004,-7.964312,-2.947861,1.2913547,-9.667666,-1.0193325
1409347368695,3.903746,-7.247847,-1.7160441,1.5571938,-9.604336,-1.22567
1409347368710,3.8367083,-7.5387425,-1.0779893,1.8254598,-9.545773,-1.3100907
1409347368711,3.4524388,-8.273164,-0.6374562,2.0780113,-9.493285,-1.3152251
1409347368727,2.8383262,-9.111135,-0.43035775,2.2617254,-9.4565735,-1.2760166
1409347368728,2.2619221,-9.835381,-0.51834464,2.3585534,-9.442645,-1.2017028
1409347368745,1.9033904,-10.610503,-0.7092823,2.372282,-9.447999,-1.1304729
1409347368746,1.6502035,-11.326369,-0.8002619,2.3263338,-9.465826,-1.0754887
1409347368765,1.2090719,-11.8099985,-0.760159,2.240065,-9.491618,-1.0303665
1409347368766,0.61530983,-11.854291,-0.7110779,2.1123126,-9.525669,-0.98496324
1409347368777,0.05925649,-11.572374,-0.65660983,1.9449297,-9.56463,-0.9515864
1409347368790,-0.3549404,-11.226412,-0.7410054,1.7489597,-9.605083,-0.92408293
1409347368806,-0.7116765,-10.897807,-0.6434417,1.5343995,-9.643063,-0.9095783
1409347368806,-0.98700964,-10.468647,-0.74758947,1.3071362,-9.67859,-0.8869474
1409347368824,-1.435324,-9.776124,-1.5280992,1.0779548,-9.707855,-0.8751766
1409347368825,-1.8950106,-9.452309,-2.0123265,0.8337185,-9.726241,-0.9357088
1409347368840,-1.5676036,-9.237429,-2.2876596,0.5694044,-9.736572,-1.0224185
1409347368845,-0.94810385,-8.817246,-2.8754363,0.362697,-9.734053,-1.1344743
1409347368857,-1.6166847,-8.922591,-2.3594859,0.23284547,-9.719092,-1.2866476
1409347368872,-2.7048495,-8.923788,-2.132635,0.050903384,-9.705549,-1.403606
1409347368880,-2.9909565,-9.618706,-2.6408045,-0.21289662,-9.685141,-1.5241762
1409347368892,-3.3806129,-10.299856,-2.7575219,-0.47203445,-9.651712,-1.6709324
1409347368913,-3.1675289,-10.102334,-1.5592239,-0.75149643,-9.613664,-1.7841303
1409347368913,-2.6138697,-9.547478,-0.5746084,-1.001824,-9.591679,-1.7794563
1409347368933,-2.022502,-9.296685,-0.11192893,-1.1833252,-9.58827,-1.6838174
1409347368934,-1.4293385,-9.194932,0.18435353,-1.2777637,-9.593936,-1.5792707
1409347368951,-0.99419224,-9.493608,0.34117374,-1.30154,-9.609717,-1.4593593
1409347368952,-1.1498153,-9.722255,0.30765492,-1.2620085,-9.632839,-1.3364582
1409347368971,-1.4676456,-10.1939125,0.30466217,-1.2317656,-9.651747,-1.2234923
1409347368972,-1.3724761,-10.506954,0.6476316,-1.2316377,-9.665115,-1.1131132
1409347368977,-1.1976994,-10.857106,0.9487024,-1.2260332,-9.681295,-0.969411
1409347368991,-1.0205284,-11.168352,0.99299514,-1.2102242,-9.698518,-0.8028127
1409347369007,-0.9295488,-11.428721,1.0929531,-1.1762309,-9.714442,-0.6453493
1409347369008,-0.95947635,-11.807006,1.2072762,-1.1404778,-9.728119,-0.4831202
1409347369026,-1.0366893,-12.125435,1.4586674,-1.1061428,-9.738577,-0.3270202
1409347369026,-1.103727,-12.175713,2.034473,-1.0790285,-9.745565,-0.1733842
1409347369039,-1.228824,-12.238561,3.5577838,-1.0637989,-9.748779,0.007453257
1409347369046,-1.8082209,-12.74673,5.473145,-1.0691916,-9.743713,0.2953695
1409347369060,-2.4779987,-14.308348,8.592192,-1.1300361,-9.715759,0.70529854
1409347369074,-3.12982,-15.497069,8.1163435,-1.2368747,-9.641429,1.2974471
1409347369077,-4.313154,-15.142129,1.1653777,-1.3639804,-9.553523,1.7436005
1409347369089,-4.705205,-13.046005,-4.7548847,-1.5601488,-9.542638,1.6353463
1409347369105,-5.1942205,-12.235568,-5.3007627,-1.771564,-9.574559,1.1660872
1409347369106,-5.8598084,-13.713987,-0.36032736,-1.9882532,-9.576822,0.7083165
1409347369126,-6.4338183,-14.7955675,2.1637597,-2.186778,-9.5386505,0.63446724
1409347369126,-6.7570357,-16.814478,3.4099417,-2.366057,-9.488491,0.735324
1409347369139,-6.1345434,-18.875887,9.721058,-2.5237422,-9.432309,0.9125002
1409347369146,-4.4897265,-18.0032,10.316615,-2.5200431,-9.426586,0.9794065
1409347369161,-3.5577838,-15.59583,3.0484173,-2.5270288,-9.270029,1.9624184
1409347369177,-2.2936451,-13.293805,1.0546459,-2.540003,-9.260238,1.9916844
1409347369201,-1.9141643,-12.315175,-1.5095441,-2.5408273,-9.263008,1.9776841
1409347369202,-1.4478935,-12.934674,-3.8151605,-2.5206537,-9.305082,1.7978154
1409347369203,-0.16759412,-14.050971,-5.498883,-2.4288652,-9.394137,1.4216815
1409347369206,0.516549,-12.639589,-5.865794,-2.2407453,-9.503422,0.9134539
1409347369236,-0.02633622,-11.097125,-5.773019,-2.0476706,-9.581194,0.42207968
1409347369237,-0.44232875,-11.443686,-5.691616,-1.9152602,-9.617803,0.004725823
1409347369240,-0.107739076,-12.992135,-4.7405195,-1.8195074,-9.628706,-0.38449204
1409347369269,0.32561144,-16.910845,-3.4530375,-1.6936021,-9.637494,-0.6486846
1409347369270,2.1218612,-19.608511,-0.5955577,-1.5148008,-9.657192,-0.78382915
1409347369271,6.1399302,-19.608511,4.347272,-1.2135493,-9.706119,-0.69924676
1409347369278,9.008782,-19.506758,4.085107,-0.6762291,-9.778613,-0.302995
1409347369304,6.2165446,-15.368381,-2.2798786,-0.01034633,-9.80661,0.025791151
1409347369305,3.4632127,-11.871051,-6.1848216,0.3935393,-9.798217,-0.1022057
1409347369306,1.6873137,-10.802039,-8.16363,0.6447648,-9.772854,-0.49595615
1409347369332,0.9475053,-10.398617,-7.019201,0.76254857,-9.723312,-1.0227935
1409347369332,2.6755204,-8.948928,-4.267066,0.7833748,-9.66583,-1.4589146
1409347369337,3.9025488,-6.779781,-3.0310593,0.88880414,-9.619196,-1.6886306
1409347369358,3.4159272,-5.0679264,-3.4530375,1.0839459,-9.576415,-1.8132076
1409347369360,1.1971009,-5.0721164,-3.684078,1.2841458,-9.523608,-1.9550565
1409347369379,0.7721301,-4.565144,-5.016451,1.3245603,-9.480535,-2.1296477
1409347369399,0.88405895,-4.9135003,-4.028843,1.3321555,-9.401726,-2.4501598
1409347369400,0.47225627,-5.808932,-3.074155,1.3404411,-9.332468,-2.6978948
1409347369416,-0.0700304,-5.964555,-0.5614403,1.3074528,-9.295028,-2.8396208
1409347369420,-0.005985504,-5.407903,-1.1905168,1.1992592,-9.33626,-2.7507231
1409347369436,0.9696517,-4.7644615,-1.6567876,1.0911405,-9.352578,-2.7402668
1409347369438,2.1918917,-3.946243,-1.6190789,1.1071566,-9.338856,-2.780352
1409347369454,2.5803509,-3.2932243,-2.7694929,1.292299,-9.30138,-2.8257139
1409347369480,3.357868,-2.96881,-2.0452468,1.530525,-9.206067,-3.0126739
1409347369480,4.554969,-2.4624364,-1.927931,1.8837492,-9.104342,-3.1197495
1409347369481,5.6000376,-1.7304093,-2.7934349,2.403939,-8.9462185,-3.218177
1409347369482,6.1279593,-1.2372037,-3.6912606,3.0552075,-8.660058,-3.4408617
1409347369486,6.571485,-0.9235633,-4.0043025,3.7452269,-8.24367,-3.766375
1409347369510,6.5882444,-0.66498953,-3.9121256,4.4499865,-7.724968,-4.0856934
1409347369512,6.6109896,-0.43394905,-3.292626,5.0992546,-7.1556315,-4.354874
1409347369535,6.269217,-1.6645688,-1.9536686,5.7033095,-6.5738783,-4.5195956
1409347369537,5.6305637,-3.9468415,0.076015905,6.167803,-6.20381,-4.431855
1409347369541,2.6114755,-9.5570545,6.4338183,6.475499,-6.164012,-4.030298
1409347369568,-13.263279,-19.45229,19.608511,6.3009677,-7.018801,-2.6841478
1409347369570,-18.81603,-19.608511,16.977882,6.4186816,-6.82704,-2.89179
1409347369571,-19.60911,-19.608511,18.100763,6.53492,-6.6217713,-3.1011844
1409347369598,-18.175583,-18.989012,7.2664022,6.573319,-6.4914274,-3.2898693
1409347369600,-9.711481,-9.892242,1.1941081,6.521835,-6.4320326,-3.5021465
1409347369601,-8.582615,-6.770204,4.2102036,-3.6004617,-8.526449,3.2414112
1409347369607,-5.3923407,-7.32925,4.8614264,-4.13898,-8.27099,3.260361
1409347369633,-1.0031705,-8.292317,2.6426,-4.2873683,-8.168331,3.326746
1409347369634,2.5276785,-9.381081,1.1348516,-4.0056934,-8.292666,3.3699405
1409347369638,6.3985043,-12.950835,-0.95349085,-3.437942,-8.557268,3.3352852
1409347369662,7.7877398,-17.414825,-1.1988965,-2.4723675,-9.002097,3.0033376
1409347369663,4.9972973,-14.961367,-2.1960814,-1.3981863,-9.37838,2.5022907
1409347369668,1.9488802,-11.412561,-0.5746084,-0.7626909,-9.569575,2.0029755
1409347369691,0.19692309,-10.220847,-1.7663223,-0.5102441,-9.634503,1.756813
1409347369692,-0.07062895,-10.851121,-4.276643,-0.4467562,-9.688711,1.449023
1409347369709,0.78050977,-9.254189,-4.6591167,-0.41763097,-9.754087,0.9239745
1409347369710,1.3275849,-8.311471,-1.6915035,-0.30377778,-9.792886,0.4213105
1409347369723,1.4790181,-9.1033535,-0.16699557,-0.15130612,-9.802657,0.23539867
1409347369726,3.1292217,-9.267356,-0.9475053,0.0065787937,-9.804985,0.18066227
1409347369743,5.505467,-8.36175,-1.4586674,0.3162062,-9.801531,0.019870529
1409347369754,6.349423,-8.062474,-2.143409,0.82662123,-9.770766,-0.13864772
1409347369757,5.569512,-8.787319,-3.1771057,1.3691399,-9.704746,-0.33732614
1409347369773,4.374805,-9.665392,-4.0922894,1.8142779,-9.618801,-0.5978674
1409347369788,3.7660792,-9.842564,-4.256292,2.1147614,-9.530689,-0.9295909
1409347369788,3.5511997,-9.408015,-3.4123359,2.3067243,-9.450039,-1.2434564
1409347369804,3.4171243,-8.93935,-2.1811178,2.4380794,-9.386249,-1.4575615
1409347369806,3.1118636,-8.701127,-1.4526819,2.5449257,-9.343002,-1.5498604
1409347369820,2.5264814,-8.525154,-1.0935516,2.6237404,-9.317703,-1.5705905
1409347369826,2.1027076,-8.486248,-1.01574,2.6449707,-9.313278,-1.5612013
1409347369840,1.6172832,-9.936536,-1.0833763,2.6448705,-9.31836,-1.5307611
1409347369854,1.3215994,-10.794258,-1.049259,2.5587568,-9.347302,-1.5003666
1409347369858,0.8475474,-11.391612,-0.96665895,2.4339478,-9.386986,-1.4597096
1409347369871,0.31663316,-11.579556,-0.81881696,2.2678902,-9.436148,-1.4093267
1409347369885,-0.107140526,-11.543644,-1.1552023,2.064923,-9.491718,-1.3467677
1409347369886,-0.59256494,-11.265318,-1.8321629,1.8393954,-9.541994,-1.3180832
1409347369903,-0.830788,-10.5207205,-1.827973,1.5955987,-9.581078,-1.3518194
1409347369906,-0.6991069,-9.41041,-1.5562311,1.3509291,-9.614741,-1.3791763
1409347369930,-0.6123171,-8.465898,-1.5167267,1.1511086,-9.640141,-1.383115
1409347369931,-1.1593921,-9.496002,-0.21787235,0.98590606,-9.656974,-1.3932772
1409347369938,-1.9632454,-11.09114,0.19093758,0.77962625,-9.693553,-1.2639687
1409347369964,-4.9919105,-11.898584,-3.602675,0.51695526,-9.733303,-1.0797846
1409347369967,-6.7283053,-11.973403,-4.4143095,-0.023202596,-9.728494,-1.2354177
1409347369967,-4.9518075,-10.383054,-2.6246436,-0.6634984,-9.677226,-1.4427181
1409347369988,-3.657143,-10.032902,-1.6711528,-1.0537691,-9.627507,-1.539835
1409347369989,-2.493561,-9.522937,-1.1659763,-1.3299042,-9.576114,-1.643102
1409347370005,-1.8010383,-9.356541,-0.6380547,-1.4588478,-9.543831,-1.7197291
1409347370006,-1.6334441,-9.705495,-0.29688102,-1.4997225,-9.54098,-1.7002716
1409347370024,-1.7328035,-9.910798,-0.05566519,-1.5043772,-9.553862,-1.622024
1409347370027,-1.6567876,-9.683349,0.077811554,-1.501803,-9.571861,-1.5147489
1409347370040,-1.3485341,-9.589975,0.15143326,-1.4960032,-9.590265,-1.399705
1409347370056,-1.1025299,-10.191518,0.4189853,-1.4724987,-9.610251,-1.2826605
1409347370058,-0.8619126,-11.116279,0.96785605,-1.4278573,-9.633664,-1.1507051
1409347370073,-0.6865373,-11.848306,1.2707225,-1.3532358,-9.663873,-0.97403324
1409347370090,-0.7182605,-12.369643,1.5753847,-1.2611301,-9.693912,-0.7797466
1409347370090,-0.32680854,-12.4552355,2.4744074,-1.1785613,-9.718941,-0.56883967
1409347370105,0.2124854,-12.287642,4.11683,-1.0765535,-9.743064,-0.29007527
1409347370106,1.4616601,-11.488577,5.9837084,-0.9495661,-9.76,0.105375975
1409347370124,1.9135658,-11.24377,6.3847375,-0.7433485,-9.758428,0.62524176
1409347370142,1.2072762,-10.977415,4.9643774,-0.52231616,-9.729513,1.1109159
1409347370142,0.08020575,-10.484808,2.9843724,-0.3850514,-9.69466,1.4267663
1409347370147,-1.1486182,-10.26514,1.4580688,-0.36380497,-9.67608,1.5529072
1409347370175,-2.469619,-11.180324,0.18674773,-0.4492996,-9.669458,1.5716518
1409347370176,-3.9121256,-13.025056,-0.8319851,-0.6231456,-9.671973,1.4949962
1409347370194,-5.276222,-14.137162,-4.221576,-0.8715844,-9.676937,1.3295125
1409347370195,-6.301539,-13.643957,-7.289746,-1.1746137,-9.696937,0.87181675
1409347370200,-5.568913,-12.579136,-5.3163247,-1.524772,-9.685531,0.18959323
1409347370207,-4.4897265,-12.537836,-2.7216089,-1.8008024,-9.635851,-0.27904773
1409347370221,-4.960786,-13.666702,-1.4449008,-1.964562,-9.593977,-0.5162389
1409347370241,-6.23091,-15.667057,0.23163901,-2.141477,-9.552069,-0.5851788
1409347370242,-5.1648917,-16.709732,5.915474,-2.3557894,-9.506274,-0.50137556
1409347370260,-2.7730842,-17.366941,13.9917145,-2.4394548,-9.498387,-0.009456066
1409347370261,-1.2354081,-16.98686,14.073117,-2.4781427,-9.488369,0.0057420144
1409347370267,-0.16101007,-14.273033,3.8965633,-2.5506122,-9.468713,0.09078352
1409347370288,-0.56443304,-12.955026,-2.3349452,-2.0033336,-9.381705,2.034859
1409347370288,-0.2777274,-12.992135,-3.857059,-1.9258145,-9.442284,1.8179454
1409347370304,0.6793547,-13.075334,-4.1880574,-1.8190663,-9.527428,1.4455104
1409347370306,1.1540052,-11.954847,-4.0839095,-1.6329963,-9.614668,1.0304893
1409347370320,0.59974754,-11.607688,-4.1216183,-1.4491452,-9.677865,0.63975567
1409347370335,0.33159694,-12.250531,-4.5034933,-1.321708,-9.712885,0.28870308
1409347370338,0.59855044,-13.984532,-4.272453,-1.2100818,-9.731588,-0.048157796
1409347370360,1.1504139,-17.647661,-3.4883518,-1.078358,-9.741591,-0.3300345
1409347370361,3.5458126,-19.608511,-1.2072762,-0.90100545,-9.751783,-0.5111662
1409347370367,6.4565635,-19.608511,3.1956608,-0.5819614,-9.776353,-0.5046018
1409347370391,7.9565306,-19.184738,4.1802764,-0.114774525,-9.803857,-0.20394298
1409347370392,5.653309,-14.718953,-0.7248446,0.38509238,-9.798312,0.123124495
1409347370404,2.5103204,-11.868656,-6.333262,0.71235186,-9.780282,0.09478929
1409347370407,1.1791444,-10.200497,-9.737817,0.8436276,-9.765538,-0.30486047
1409347370427,1.353921,-8.962694,-7.0664864,0.9005396,-9.719867,-0.93999803
1409347370428,2.148796,-8.412626,-4.685453,0.9629683,-9.663661,-1.3626184
1409347370440,3.405752,-7.4591355,-3.3393128,1.0509064,-9.607425,-1.6623335
1409347370452,4.296395,-5.7616463,-2.349909,1.2237453,-9.553217,-1.8463211
1409347370473,2.005144,-5.255273,-3.7134068,1.4728216,-9.499804,-1.9377626
1409347370474,1.4227544,-5.037999,-4.980538,1.5537317,-9.447091,-2.1233897
1409347370498,1.8962077,-4.88058,-4.8135424,1.5989518,-9.3708725,-2.4084284
1409347370499,1.9710265,-5.345055,-2.60968,1.6976044,-9.281594,-2.6721776
1409347370501,1.3371617,-5.5168395,-1.1480197,1.7981671,-9.237018,-2.7594414
1409347370507,0.35434186,-5.345654,-1.4814123,1.8031989,-9.242727,-2.7369502
1409347370530,-0.20829555,-5.093664,-1.496376,1.7278645,-9.249139,-2.7637527
1409347370533,0.024540568,-4.26946,-1.5634137,1.5767522,-9.267299,-2.7931035
1409347370539,0.8870517,-3.1962593,-1.0259154,1.4780136,-9.270502,-2.8361394
1409347370562,1.893215,-2.6366146,-1.9752164,1.5141096,-9.260701,-2.8490813
1409347370563,3.169923,-2.582745,-1.7250223,1.6917148,-9.18517,-2.9901755
1409347370567,4.3418846,-2.480393,-2.148796,2.0527425,-9.079144,-3.0863943
1409347370600,5.1744685,-2.3116016,-2.9993362,2.5644002,-8.902558,-3.2153826
1409347370600,5.878962,-1.7651252,-3.5434184,3.1580856,-8.619945,-3.4486897
1409347370601,6.1183825,-1.4281414,-4.1317935,3.824884,-8.221696,-3.7342193
1409347370609,6.2099605,-1.650802,-4.5256395,4.464854,-7.727542,-4.0645537
1409347370640,6.120178,-2.1733365,-4.3155484,5.0093317,-7.1987977,-4.3879757
1409347370641,5.3384714,-3.4793737,-3.2196028,5.440815,-6.7271404,-4.616657
1409347370643,4.4981065,-5.783793,-1.3060371,5.6971784,-6.4857435,-4.652712
1409347370661,1.7872716,-11.844116,7.3777328,5.778148,-6.5912824,-4.3975425
1409347370662,-13.451822,-19.608511,19.598934,5.441476,-7.6315002,-2.8846028
1409347370668,-19.359514,-19.608511,18.59397,5.552192,-7.4456635,-3.1473231
1409347370693,-19.60911,-19.608511,17.736845,5.632429,-7.2692513,-3.4064803
1409347370694,-17.353773,-17.688362,7.20954,5.611139,-7.1689143,-3.6458478
1409347370699,-9.57142,-8.151658,1.9806033,5.513994,-7.144576,-3.8368368
1409347370707,-9.572617,-7.2089415,6.344036,-3.835997,-8.432212,3.2176602
1409347370724,-4.1659107,-7.57286,7.602189,-4.3279433,-8.158606,3.2979457
1409347370728,1.6316484,-10.767922,2.4648306,-4.2676377,-8.040416,3.6481972
1409347370762,5.5467668,-15.264832,-0.8738836,-3.7391038,-8.303101,3.6397798
1409347370763,6.479308,-19.05964,-3.5763388,-2.8067799,-8.7958975,3.3052363
1409347370764,4.5980644,-15.136143,-5.016451,-1.8626008,-9.265653,2.617022
1409347370767,2.8963854,-10.780492,-5.8813562,-1.2827841,-9.527349,1.937653
1409347370793,2.2421699,-9.695918,-4.654927,-0.93475926,-9.673325,1.3127935
1409347370794,2.1146786,-8.970475,-2.633622,-0.6552534,-9.750001,0.82372785
1409347370802,2.2643163,-8.90643,-2.3169887,-0.3935697,-9.785362,0.51205844
1409347370807,2.0530279,-9.8276,-1.8866309,-0.1422098,-9.802355,0.25294396
1409347370825,1.816002,-10.487202,-1.5292963,0.083466515,-9.806157,0.052073594
1409347370828,2.4199393,-9.606135,-1.7238252,0.258731,-9.802795,-0.09310469
1409347370839,3.4422636,-8.620922,-2.8072014,0.47075173,-9.79142,-0.27726474
1409347370865,4.098873,-8.74123,-4.3957543,0.75238025,-9.761812,-0.55796444
1409347370866,4.493318,-9.065644,-4.8398786,1.0646847,-9.703443,-0.9381267
1409347370868,4.4765587,-8.63828,-3.7630866,1.4007573,-9.617239,-1.3103538
1409347370900,3.994127,-7.880515,-2.203264,1.7111057,-9.530541,-1.5528239
1409347370901,3.5290532,-7.949947,-1.287482,1.9818145,-9.462264,-1.6457062
1409347370902,3.2716765,-8.378509,-0.78888947,2.1847208,-9.415577,-1.6565942
1409347370908,2.9706059,-8.616134,-0.45070848,2.3372025,-9.387175,-1.6089913
1409347370926,2.5067291,-9.014768,-0.40162733,2.4413183,-9.37613,-1.5160978
1409347370928,2.2373815,-9.892242,-0.7074866,2.4833684,-9.381128,-1.4134009
1409347370940,2.2637177,-11.088146,-1.0737995,2.4723012,-9.395329,-1.336386
1409347370959,2.070386,-12.014104,-1.2354081,2.4347296,-9.411763,-1.288869
1409347370960,1.5622166,-12.438477,-1.4796166,2.3608875,-9.435098,-1.2551982
1409347370968,1.22224,-12.0332575,-2.0123265,2.2428503,-9.465485,-1.242824
1409347371002,0.9235633,-11.505336,-2.3104045,2.1149533,-9.48981,-1.2809703
1409347371004,0.49799395,-11.4359045,-2.191293,1.9828336,-9.509453,-1.3450065
1409347371006,0.31124622,-11.219828,-1.7190368,1.8283842,-9.533026,-1.3959979
1409347371023,0.023343466,-10.794857,-0.86011696,1.6765149,-9.559255,-1.4072294
1409347371024,-0.43754035,-10.669162,-0.350152,1.5170211,-9.594523,-1.3469027
1409347371036,-0.9427169,-10.347141,-1.1605892,1.336993,-9.634596,-1.2479577
1409347371042,-1.8285716,-9.964069,-1.9309237,1.1265777,-9.664026,-1.2279285
1409347371055,-2.9460652,-10.144233,-1.1348516,0.85346717,-9.684088,-1.288561
1409347371068,-3.4207156,-10.43034,-1.0205284,0.5045479,-9.708654,-1.2875779
1409347371069,-3.4225113,-10.109517,-1.8285716,0.14316812,-9.718941,-1.3008058
1409347371082,-3.2704794,-9.487623,-3.3602622,-0.1859557,-9.7061,-1.388324
1409347371087,-3.2573113,-9.435549,-3.705027,-0.46827686,-9.665242,-1.5919209
1409347371106,-3.1711202,-9.467871,-2.2439656,-0.72365624,-9.61369,-1.795471
1409347371124,-3.0801406,-9.260174,-1.3144168,-0.95461136,-9.583896,-1.8460853
1409347371125,-2.8514943,-8.812458,-0.7026982,-1.1608994,-9.56586,-1.8212793
1409347371128,-2.480393,-8.5778265,-0.074818805,-1.3390713,-9.555435,-1.7524168
1409347371141,-2.1589713,-8.732252,0.4842273,-1.4642597,-9.556737,-1.6416786
1409347371169,-1.9686323,-9.029133,0.7649474,-1.5412086,-9.569057,-1.4927251
1409347371170,-1.7938557,-9.2547865,0.8511387,-1.5900366,-9.585687,-1.3254391
1409347371171,-0.9816227,-10.108918,1.210269,-1.6176492,-9.602612,-1.1590762
1409347371194,-0.6135142,-10.377667,1.7687165,-1.5535675,-9.635488,-0.9561537
1409347371195,-0.7146692,-10.836157,2.1458032,-1.4539281,-9.6718855,-0.71492904
1409347371200,-0.99060094,-11.687296,2.203264,-1.371086,-9.699652,-0.45525053
1409347371231,-0.55605334,-12.342709,2.3397336,-1.3088017,-9.716569,-0.21384509
1409347371231,-0.480636,-12.430696,2.6635494,-1.2079291,-9.731965,0.013339977
1409347371232,-0.6422446,-11.980585,3.4733882,-1.1238532,-9.739204,0.23500568
1409347371240,-1.246182,-11.969213,3.8379054,-1.0769709,-9.734776,0.4946521
1409347371260,-2.2756886,-12.8927765,3.9749734,-1.0862706,-9.717264,0.75178754
1409347371261,-3.550601,-13.950415,1.7178397,-1.1731844,-9.686354,0.9841611
1409347371269,-4.689044,-14.089278,-1.3581109,-1.3332876,-9.661445,1.0243126
1409347371298,-5.834071,-13.722367,-2.8335378,-1.5497415,-9.646205,0.8481859
1409347371300,-6.1650696,-13.756484,-1.6424223,-1.8245687,-9.61773,0.5836125
1409347371302,-5.8532248,-13.995306,0.6171055,-2.0835152,-9.573851,0.41321045
1409347371322,-4.7165775,-14.362816,0.9624691,-2.271865,-9.530541,0.42164665
1409347371323,-4.9536033,-15.118785,3.82773,-2.3515983,-9.509255,0.46309063
1409347371340,-5.4049106,-15.989676,8.80767,-2.4390926,-9.471669,0.71323675
1409347371342,-5.1780596,-16.280571,11.839328,-2.5124576,-9.396884,1.2475982
1409347371348,-3.840898,-14.65012,6.217143,-2.5502822,-9.274619,1.9099478
1409347371374,-2.540248,-13.395558,-1.1240777,-2.5752635,-9.213181,2.1577113
1409347371374,-2.5420437,-12.5025215,-3.7792473,-2.5865393,-9.253039,1.9650568
1409347371379,-2.4211364,-11.842918,-4.373608,-2.60583,-9.312882,1.6279685
1409347371388,-1.4814123,-13.117232,-4.900931,-2.586884,-9.376652,1.2477201
1409347371408,-0.20171149,-14.050971,-5.5192337,-2.474147,-9.455172,0.80543756
1409347371409,0.45310268,-12.847885,-5.061941,-2.271095,-9.533479,0.354025
1409347371421,0.020949265,-12.367249,-4.4005427,-2.0810826,-9.583101,-0.060667254
1409347371452,-0.06344634,-13.217191,-4.386776,-1.9389988,-9.606425,-0.35674292
1409347371453,-0.02813187,-15.581465,-3.8899791,-1.7976322,-9.621306,-0.6077453
1409347371454,-0.40521863,-19.315222,-3.0627825,-1.6421063,-9.636192,-0.78592134
1409347371478,2.5510218,-19.608511,-0.38606504,-1.4987805,-9.653375,-0.8581327
1409347371480,8.249821,-19.608511,3.7391446,-1.1882975,-9.706227,-0.73991776
1409347371482,10.235811,-19.608511,3.6391866,-0.55207086,-9.783949,-0.37409437
1409347371489,7.764396,-16.299725,-1.8183962,-0.8697867,-9.767521,-0.09708076
1409347371513,4.4358573,-12.445659,-7.33763,0.6375737,-9.784826,-0.145089
1409347371514,2.5983074,-10.738593,-9.403227,0.9389257,-9.744466,-0.57810444
1409347371524,2.486977,-9.779716,-6.2003837,1.1060101,-9.676381,-1.1466423
1409347371549,2.9125464,-8.924387,-1.7669208,1.2147914,-9.6126995,-1.5134909
1409347371550,3.9073372,-7.960122,-1.6729485,1.3073367,-9.589496,-1.582033
1409347371551,5.0679264,-6.385336,-2.9783869,1.4690084,-9.561494,-1.6094197
1409347371578,4.622605,-5.425261,-2.3840263,1.7517926,-9.494142,-1.7213001
1409347371579,3.229778,-5.2061915,-3.6104562,2.0239556,-9.43017,-1.7736562
1409347371582,2.2972364,-4.408324,-4.9781437,2.1984112,-9.358408,-1.9384453
1409347371590,-0.047285482,-4.783615,-5.759252,2.2892666,-9.2644,-2.2584424
1409347371612,-1.3664906,-5.3941364,-4.4208937,2.1390026,-9.180708,-2.7036343
1409347371622,-0.19512744,-6.045359,-1.0995371,1.8548806,-9.140914,-3.028781
1409347371625,1.3634979,-5.3636103,-1.3317747,1.6886326,-9.184626,-2.993594
1409347371649,2.183512,-4.674679,-1.8914193,1.6937466,-9.192416,-2.9666696
1409347371650,3.0424318,-3.930082,-1.946486,1.8196532,-9.158264,-2.997571
1409347371651,3.8600516,-3.0603883,-2.112883,2.0666997,-9.087989,-3.050839
1409347371670,4.819528,-2.0153193,-2.3654714,2.4267168,-8.965288,-3.1472313
1409347371670,5.398925,-1.234211,-3.1519666,2.92048,-8.761664,-3.297643
1409347371683,5.840655,-0.79487497,-3.3608606,3.4935071,-8.446882,-3.5519006
1409347371689,6.1129956,-0.46986207,-3.6487634,4.119542,-8.040208,-3.815082
1409347371703,6.2566476,-0.10594343,-4.1198225,4.751045,-7.542154,-4.0882607
1409347371717,6.0585275,-0.18435353,-4.127005,5.3293467,-6.9656844,-4.387218
1409347371720,5.448006,-0.8924387,-3.6661212,5.816228,-6.371939,-4.6626487
1409347371732,4.367024,-2.8323407,-2.7952304,6.163741,-5.9001584,-4.8339267
1409347371748,3.904943,-5.901707,-1.158195,6.302241,-5.740631,-4.847403
1409347371749,-4.4047327,-15.59583,12.44925,6.2821846,-5.9923887,-4.5602427
1409347371768,-19.5726,-19.608511,19.608511,5.1727314,-7.9950085,-2.343726
1409347371769,-19.60911,-19.608511,19.559431,5.3444376,-7.8005114,-2.5998921
1409347371782,-19.60911,-19.608511,10.744578,5.457371,-7.640403,-2.8304994
1409347371788,-11.138425,-12.163742,2.7539306,5.4766054,-7.5272627,-3.0850353
1409347371803,-8.953117,-4.96318,3.3482912,-3.4230902,-8.648464,3.1075537
1409347371815,-7.7931266,-4.308366,6.955156,-4.155031,-8.330604,3.083367
1409347371821,-1.1707647,-4.345476,5.7616463,-4.6265516,-7.988922,3.3079517
1409347371834,2.657564,-7.7248917,0.42078096,-4.428479,-7.948099,3.6587813
1409347371851,6.7719994,-14.957775,-3.8546648,-3.84165,-8.26851,3.6116278
1409347371851,9.103952,-19.608511,-4.1802764,-2.6916099,-8.958816,2.9436817
1409347371869,7.2149267,-17.021578,-2.4791958,-2.6973865,-8.937507,3.0025806
1409347371870,3.1944637,-11.081563,-0.44592008,-0.49845952,-9.665641,1.5802823
1409347371882,-0.14544775,-10.636241,0.9708488,-0.13318098,-9.706124,1.3942089
1409347371900,-0.4405331,-11.804013,-1.151611,-0.116433546,-9.71076,1.3630732
1409347371901,0.7625532,-9.993997,-3.1914709,-0.13654578,-9.74221,1.114047
1409347371915,1.8908207,-9.001001,-1.9895816,-0.052586515,-9.780481,0.7140166
1409347371920,2.5312698,-8.943541,-1.2066777,0.12374855,-9.794585,0.47027153
1409347371935,3.469797,-8.638878,-1.6962919,0.3519497,-9.795357,0.31227732
1409347371948,4.408922,-7.717709,-1.2210429,0.66008395,-9.783701,0.11788492
1409347371949,4.3341036,-7.569867,-1.5370775,1.0416075,-9.751158,-0.018648002
1409347371967,3.6284127,-8.191162,-2.60549,1.3923321,-9.706118,-0.15191285
1409347371968,3.518878,-8.340201,-3.0508115,1.6568384,-9.658137,-0.3816697
1409347371981,3.508104,-8.094796,-3.3333273,1.8900524,-9.6012,-0.64424366
1409347372001,3.566762,-7.6985555,-2.9472623,2.097372,-9.5348425,-0.9264117
1409347372003,3.4075475,-7.81228,-2.2499511,2.2962978,-9.463521,-1.157233
1409347372016,3.0663738,-8.385692,-1.7567455,2.4530747,-9.405688,-1.2984025
1409347372021,2.5839422,-8.884883,-1.508347,2.566993,-9.364982,-1.3704197
1409347372034,2.243367,-9.43495,-1.6142905,2.6147678,-9.3451185,-1.4149826
1409347372050,2.095525,-10.189124,-1.7890673,2.6097064,-9.339744,-1.4591216
1409347372050,1.797447,-11.227011,-1.2054806,2.568133,-9.343415,-1.5085464
1409347372072,1.0235212,-12.640786,-0.9367314,2.479048,-9.371615,-1.4824153
1409347372073,0.83976626,-12.406754,-0.9588778,2.2977161,-9.428416,-1.4127514
1409347372081,0.62249243,-11.692682,-1.2252327,2.116498,-9.480685,-1.3444062
1409347372107,0.4973954,-11.018116,-1.6651673,1.9492877,-9.520896,-1.3127158
1409347372109,0.31783026,-10.229825,-1.6208745,1.7852062,-9.552752,-1.3146739
1409347372111,0.28072014,-8.950125,-1.5071499,1.6320971,-9.580328,-1.3130004
1409347372143,0.011372458,-8.309077,-3.715801,1.5101167,-9.599931,-1.3157804
1409347372144,-1.4580688,-9.582193,-8.631696,1.3752131,-9.58617,-1.5441806
1409347372145,-4.583101,-11.115082,-7.173627,1.0776392,-9.499209,-2.1849663
1409347372149,-4.84347,-11.219828,-2.8455088,0.51875937,-9.447345,-2.5785582
1409347372182,-4.4208937,-10.810419,-1.3718776,0.011188041,-9.465932,-2.5625014
1409347372183,-4.2299557,-10.516531,-0.9600749,-0.41834146,-9.472446,-2.5036266
1409347372184,-3.5021186,-10.055647,-0.45370123,-0.7944997,-9.474285,-2.403561
1409347372213,-2.718616,-9.901819,-0.17896658,-1.0547488,-9.489782,-2.236501
1409347372214,-2.3762453,-10.48002,-0.1316811,-1.2164152,-9.508621,-2.0680609
1409347372215,-2.2984335,-10.934917,0.26396075,-1.3229592,-9.526105,-1.916635
1409347372221,-2.1948843,-10.766725,0.98940384,-1.4004976,-9.548221,-1.743704
1409347372238,-2.0428526,-10.458471,1.726818,-1.461322,-9.575083,-1.5338541
1409347372261,-1.6627731,-10.50875,2.2062569,-1.5060257,-9.60719,-1.2665666
1409347372262,-1.4508862,-11.032481,2.6689363,-1.514757,-9.636804,-1.0039321
1409347372263,-1.2659341,-11.537658,3.0603883,-1.497145,-9.664876,-0.72049236
1409347372269,-0.8535329,-11.6747265,3.6116533,-1.4565125,-9.688554,-0.42532554
1409347372285,-0.44113165,-11.573571,4.4639893,-1.3811014,-9.708417,-0.0979348
1409347372301,0.2717419,-11.426328,5.753267,-1.2830174,-9.718049,0.28947106
1409347372302,1.3605051,-11.277288,7.2191167,-1.1397477,-9.7094555,0.77320665
1409347372316,2.4235306,-11.368268,7.994838,-0.92791617,-9.673045,1.3196878
1409347372331,2.2307975,-11.592126,6.974908,-0.6612882,-9.598737,1.8966628
