time,acc_x,acc_y,acc_z,gravity_x,gravity_y,gravity_z
1409347798482,-0.4938041,3.8492777,8.418014,-1.3842528,3.754259,8.953198
1409347798513,-0.5602432,4.1946416,8.482059,-1.2968189,3.7553322,8.965831
1409347798514,-1.0606314,4.2461166,8.653842,-1.2214587,3.756162,8.976062
1409347798515,-1.6095021,4.1102457,8.947132,-1.1641616,3.7523792,8.985253
1409347798520,-1.9764135,4.0025067,9.301474,-1.1554031,3.7450333,8.989447
1409347798535,-2.1440077,4.0294414,9.606135,-1.2015454,3.738287,8.986205
1409347798552,-2.135628,4.035427,9.743204,-1.284494,3.7352104,8.976005
1409347798552,-2.0159178,3.887585,9.651027,-1.3788329,3.736004,8.961667
1409347798565,-1.769315,3.74513,9.537901,-1.4649965,3.739919,8.94635
1409347798582,-1.4012065,3.7553053,9.488221,-1.5279917,3.7450128,8.933673
1409347798583,-1.1719618,3.8576574,9.406818,-1.5582639,3.7504115,8.926176
1409347798600,-1.1198878,3.912724,9.378687,-1.5699782,3.7545593,8.922379
1409347798601,-1.2156559,3.881001,9.416395,-1.5522268,3.7537196,8.9258375
1409347798614,-1.3682863,3.8325183,9.436746,-1.5186168,3.7464159,8.934683
1409347798629,-1.567005,3.803788,9.399636,-1.4834081,3.7361207,8.944903
1409347798631,-1.7447745,3.781043,9.330204,-1.4556588,3.728029,8.952834
1409347798647,-1.8237832,3.7355533,9.145252,-1.4391931,3.7265205,8.956124
1409347798663,-1.821389,3.6661212,8.908226,-1.4342229,3.7298384,8.95554
1409347798664,-1.8106151,3.627814,8.576031,-1.4337046,3.742128,8.950495
1409347798693,-1.785476,3.632004,8.347982,-1.4377263,3.7618732,8.941568
1409347798694,-1.7226281,3.6673183,8.279748,-1.4413794,3.7846355,8.931369
1409347798695,-1.6328455,3.6996403,8.230667,-1.4416721,3.8056543,8.922385
1409347798700,-1.5490485,3.6912606,8.298303,-1.4368355,3.8219156,8.916213
1409347798724,-1.4867992,3.6589386,8.486847,-1.4279925,3.8315876,8.913482
1409347798725,-1.484405,3.6373909,8.602965,-1.4185022,3.8348327,8.913602
1409347798732,-1.429937,3.5877113,8.58022,-1.4107673,3.8356426,8.914481
1409347798750,-1.2940661,3.5649664,8.635885,-1.4031726,3.834448,8.916193
1409347798751,-1.1923125,3.549404,8.63828,-1.397325,3.8334303,8.917549
1409347798767,-1.1558008,3.5966895,8.605958,-1.391012,3.8336172,8.918456
1409347798783,-1.1079168,3.6248214,8.575432,-1.3819089,3.8351378,8.919217
1409347798784,-1.0839748,3.5883098,8.513782,-1.3707799,3.837008,8.92013
1409347798798,-1.0354922,3.5344403,8.5060005,-1.359612,3.8371866,8.921762
1409347798800,-0.91817635,3.520075,8.4664955,-1.3491441,3.8355603,8.92405
1409347798816,-0.8206126,3.4781766,8.41921,-1.3380826,3.830766,8.927774
1409347798830,-0.7254431,3.4446578,8.306085,-1.3263344,3.8226118,8.933022
1409347798833,-0.5823896,3.3973722,8.254609,-1.314256,3.8122206,8.939245
1409347798849,-0.45609543,3.3554738,8.197746,-1.302745,3.8005981,8.945876
1409347798863,-0.41180268,3.304597,8.08881,-1.292901,3.7881355,8.952587
1409347798864,-0.3573346,3.2740707,7.984064,-1.2865995,3.7745736,8.959222
1409347798881,-0.23463176,3.2501287,7.937976,-1.2847482,3.759414,8.965858
1409347798881,-0.079008654,3.2800562,7.9272017,-1.2842823,3.7431822,8.972713
1409347798897,0.21547815,3.3087866,7.6051817,-1.2816037,3.7252195,8.980569
1409347798900,0.45310268,3.2507274,7.589619,-1.272951,3.7076385,8.989071
1409347798919,0.7158663,3.132813,7.4764934,-1.260223,3.6905105,8.997909
1409347798920,0.866701,2.9759927,7.289147,-1.2477835,3.6754673,9.005796
1409347798932,0.9756372,2.4893713,6.5726824,-1.2414199,3.665224,9.010849
1409347798954,1.0648212,2.5276785,6.1076083,-1.2511151,3.6615674,9.010995
1409347798955,1.6298528,2.7551277,5.5312047,-1.2832161,3.6640642,9.005464
1409347798960,1.1599907,2.3582888,5.804742,-1.3347934,3.677634,8.992426
1409347798995,0.22685061,2.2750902,6.9000893,-1.3962119,3.68744,8.979074
1409347798996,-0.44232875,2.730587,7.2687964,-1.4752432,3.6830585,8.968229
1409347798997,-0.2112883,2.7712884,7.1425023,-1.5644927,3.6651292,8.960444
1409347799001,-0.46387658,2.4193408,7.179612,-1.6434011,3.6368792,8.95783
1409347799041,-0.4189853,2.307412,7.3950906,-1.7179935,3.6045108,8.956919
1409347799042,-0.2645593,2.4540567,7.77936,-1.78888,3.575869,8.954521
1409347799044,-0.11432313,2.8508956,8.2037325,-1.8401897,3.5512674,8.953915
1409347799047,0.20410569,3.1615434,8.486847,-1.8788381,3.53696,8.951551
1409347799078,-0.076015905,3.095703,8.433576,-1.9058998,3.533766,8.947091
1409347799079,-0.741604,2.689287,8.301296,-1.9459654,3.538117,8.936741
1409347799080,-1.6412252,2.2541409,8.378509,-2.0157003,3.5417666,8.919822
1409347799081,-2.3906105,2.112883,8.50181,-2.1203542,3.5375545,8.897202
1409347799098,-2.6102784,2.070386,8.7370405,-2.2526364,3.524866,8.869687
1409347799100,-2.7048495,1.8746599,9.543288,-2.3999598,3.5060985,8.83843
1409347799115,-2.9759927,1.83336,10.605715,-2.5582247,3.4821992,8.803418
1409347799130,-3.3081882,2.0057425,11.642405,-2.713917,3.452964,8.768243
1409347799134,-4.156933,1.922544,12.11107,-2.8745687,3.4237165,8.728425
1409347799150,-4.7722425,1.8477252,11.31799,-3.0503366,3.3992765,8.678176
1409347799181,-5.4019175,1.8441339,10.955269,-3.2482507,3.3943303,8.6080065
1409347799182,-5.771223,2.417545,11.938088,-3.470363,3.4186776,8.511147
1409347799184,-5.499481,2.883816,11.048642,-3.6959226,3.4762332,8.39204
1409347799185,-9.469068,4.4861355,10.405201,-3.8907707,3.5574944,8.26901
1409347799222,-8.191162,7.8906903,9.069236,-4.1054354,3.6673758,8.115796
1409347799225,-8.631696,8.47727,8.533533,-4.2775025,3.836863,7.9468136
1409347799227,-7.5926123,9.144653,4.643554,-4.43891,4.0275,7.761811
1409347799229,-6.9850836,9.360131,3.799598,-4.5775456,4.238406,7.5665298
1409347799234,-6.1207767,8.11395,4.341286,-4.685468,4.454894,7.373649
1409347799286,-5.0421886,6.4828997,4.656722,-4.7593794,4.6393085,7.210791
1409347799286,-4.51726,4.939238,5.2319293,-4.7863803,4.764007,7.1109204
1409347799287,-4.3358994,3.8486793,6.2530565,-4.779202,4.8478165,7.0589156
1409347799288,-4.378995,3.417723,6.7504516,-4.772934,4.853239,7.0594306
1409347799288,-5.2600613,3.4165258,6.8563952,-4.776228,4.790172,7.100162
1409347799292,-6.0926447,4.2251673,7.1873937,-4.7933326,4.6827397,7.160049
1409347799301,-5.9681463,4.89315,7.3789296,-4.8155575,4.5583477,7.225113
1409347799324,-6.4380083,2.0111294,6.8252707,-4.8229213,4.442862,7.29183
1409347799325,-6.47033,0.96785605,8.495825,-4.8156767,4.329822,7.3642573
1409347799333,-5.28939,-0.45250413,5.6467247,-4.772417,4.2191687,7.4560738
1409347799356,-3.3482912,0.58777654,5.1355624,-4.6881576,4.169228,7.5371814
1409347799356,-2.0907366,1.0420763,5.645528,-4.527888,4.1708126,7.6336718
1409347799361,-1.1857284,1.5873557,5.616797,-4.345719,4.176669,7.735667
1409347799389,-0.8218097,2.0123265,5.1409497,-4.1668696,4.168735,7.8376803
1409347799390,-0.6979098,1.8962077,4.234744,-3.981759,4.135948,7.950466
1409347799393,-1.2198458,1.4341269,3.3800142,-3.8146455,4.066509,8.067365
1409347799401,-1.7010803,1.0875661,2.9346926,-3.690692,3.955479,8.179447
1409347799423,-1.4263457,1.1617863,3.1358056,-3.6055222,3.8204906,8.280969
1409347799424,-1.073201,0.45848963,4.3065705,-3.5437984,3.6336927,8.390957
1409347799447,-1.4682442,-0.18734628,5.415684,-3.5221558,3.381789,8.504605
1409347799448,-2.0620062,-0.80564886,6.087258,-3.5500684,3.0590944,8.614485
1409347799473,-2.4893713,-1.8351556,6.921637,-3.6301825,2.6719613,8.709351
1409347799474,-2.694674,-3.052607,7.6949644,-3.7635477,2.2180412,8.779885
1409347799475,-3.4919431,-3.9953241,8.577228,-3.9668086,1.69764,8.806409
1409347799480,-5.2103815,-4.223372,9.275736,-4.2393928,1.13974,8.769203
1409347799501,-7.08145,-4.0557775,9.832987,-4.5448985,0.5483162,8.67258
1409347799502,-8.470686,-3.9312792,10.140641,-4.884619,-0.046269,8.503454
1409347799518,-9.806051,-3.8630445,10.180145,-5.224368,-0.6136375,8.276462
1409347799520,-11.402985,-3.5889084,9.396045,-5.5534005,-1.136972,8.002338
1409347799532,-12.580333,-3.5847185,8.162432,-5.874307,-1.6027912,7.68726
1409347799552,-12.758701,-3.9653966,8.261791,-6.186602,-2.0192475,7.3361425
1409347799555,-12.479776,-4.4316673,8.458116,-6.4777226,-2.394209,6.9625626
1409347799561,-12.03625,-4.643554,8.608353,-6.737569,-2.745242,6.5756516
1409347799590,-11.999141,-4.766257,8.9363575,-6.969368,-3.0450258,6.190809
1409347799591,-12.356475,-4.8099513,8.832211,-7.1699924,-3.287734,5.8268685
1409347799593,-12.579136,-4.644751,8.182783,-7.3465624,-3.4763668,5.487556
1409347799601,-12.661138,-4.489128,7.393295,-7.5008225,-3.622249,5.175652
1409347799622,-12.554595,-4.320337,6.664859,-7.6343074,-3.7330272,4.8941026
1409347799623,-12.637196,-4.1838675,6.253655,-7.7515783,-3.8141382,4.640663
1409347799635,-12.681488,-3.86484,6.2704144,-7.852718,-3.8780272,4.41204
1409347799661,-12.379818,-3.4404678,6.851008,-7.9494324,-3.9193442,4.1971025
1409347799663,-11.780669,-3.0478187,7.4058642,-8.035712,-3.942476,4.0068183
1409347799664,-10.930129,-2.903568,8.159439,-8.113707,-3.9492586,3.8394675
1409347799691,-9.797672,-3.0137014,9.01417,-8.183571,-3.94035,3.697731
1409347799693,-8.635287,-3.0969,9.785102,-8.246295,-3.917267,3.5810628
1409347799694,-7.499837,-3.1543608,10.129868,-8.303354,-3.8799481,3.4886522
1409347799723,-6.612785,-2.8658595,9.775525,-8.357717,-3.8298168,3.4134285
1409347799725,-6.215348,-2.4690206,8.593389,-8.418467,-3.7728345,3.3264902
1409347799726,-6.129755,-2.291251,7.2849574,-8.485287,-3.7050517,3.2315474
1409347799756,-6.2261214,-2.3648727,6.1022215,-8.56011,-3.6365457,3.109732
1409347799757,-6.5924344,-2.6982653,4.96737,-8.637775,-3.5774634,2.9598944
1409347799758,-7.203554,-3.208829,3.8863878,-8.711152,-3.536154,2.7895927
1409347799761,-7.872135,-3.7708676,2.9987376,-8.775962,-3.5168977,2.6046774
1409347799808,-8.613141,-4.336498,2.4115596,-8.83157,-3.5176396,2.4083157
1409347799809,-9.651626,-4.685453,1.7896658,-8.878949,-3.529108,2.209086
1409347799810,-9.891046,-4.7620673,1.8866309,-8.921224,-3.542687,2.0078654
1409347799811,-9.69951,-4.5777135,2.1188686,-8.957263,-3.550142,1.8260125
1409347799814,-9.38168,-4.3556514,2.3630772,-8.989858,-3.542477,1.6744267
1409347799836,-9.167996,-4.124611,2.4791958,-9.022856,-3.5122712,1.556414
1409347799837,-9.099164,-4.0066967,2.473809,-9.058556,-3.4576268,1.4689485
1409347799841,-9.446921,-4.019266,2.6659436,-9.095998,-3.3855693,1.4039695
1409347799869,-9.650429,-4.0946836,2.9400797,-9.131672,-3.3074756,1.3577701
1409347799870,-9.474455,-4.023456,2.9454668,-9.163728,-3.2307448,1.3261873
1409347799874,-9.345766,-3.8373067,2.991555,-9.191904,-3.1604397,1.3003508
1409347799881,-9.4696665,-3.8127663,3.1381998,-9.217328,-3.0942438,1.2794273
1409347799898,-9.64145,-3.90614,2.9951463,-9.240443,-3.034865,1.2546704
1409347799912,-9.76535,-3.630807,2.0979192,-9.261675,-2.9854436,1.2160932
1409347799919,-9.871892,-3.3195608,1.204882,-9.284019,-2.9402115,1.1543478
1409347799953,-9.808446,-3.3051953,0.62847793,-9.310263,-2.8913183,1.062869
1409347799954,-9.481039,-3.5194764,0.02873042,-9.339776,-2.8368456,0.94408643
1409347799955,-9.056067,-3.769072,-0.31663316,-9.3685,-2.7808638,0.8175667
1409347799955,-8.701726,-3.7361517,-0.7846996,-9.395937,-2.719835,0.6994781
1409347799961,-8.592192,-3.3327289,-1.54845,-9.42044,-2.6560576,0.6091396
1409347800047,-8.611943,-2.8502972,-2.6264393,-9.440746,-2.597372,0.5443904
1409347800048,-8.505402,-2.7802668,-3.477578,-9.456248,-2.5531611,0.48076516
1409347800048,-8.616134,-3.3680432,-3.4051533,-9.466573,-2.53053,0.38835692
1409347800051,-9.085996,-4.2957964,-2.861071,-9.469463,-2.536253,0.25898412
1409347800052,-9.613318,-5.065532,-2.2972364,-9.46554,-2.5613072,0.11698563
1409347800060,-9.966463,-5.233126,-1.7010803,-9.45036,-2.619143,-0.033937927
1409347800060,-10.002377,-5.026028,-0.8595184,-9.428965,-2.6889145,-0.1863754
1409347800061,-9.895834,-4.69084,-0.08738836,-9.407896,-2.74709,-0.33965105
1409347800205,-9.782708,-4.204817,0.24181437,-9.391305,-2.7827222,-0.47984162
1409347800206,-9.463082,-3.8666358,0.47644615,-9.381857,-2.793386,-0.5900404
1409347800206,-9.023148,-3.6326025,0.7308301,-9.37965,-2.7844954,-0.662652
1409347800207,-8.823831,-3.1783028,0.83258367,-9.38245,-2.7646296,-0.7048732
1409347800207,-8.893262,-2.6180596,0.7278373,-9.387462,-2.7402065,-0.73294955
1409347800208,-8.936956,-2.0440497,0.65182143,-9.392713,-2.7161617,-0.75487846
1409347800208,-8.824429,-1.726818,0.75596917,-9.395273,-2.7000628,-0.7803297
1409347800209,-8.471883,-1.6897079,1.0271125,-9.3936825,-2.6944396,-0.81800157
1409347800209,-7.912238,-1.6873137,1.2910733,-9.388165,-2.6976755,-0.86907065
1409347800210,-7.404069,-1.7112557,1.6208745,-9.37886,-2.708567,-0.93328214
1409347800210,-7.2149267,-1.8525136,2.4013844,-9.364838,-2.729483,-1.01001
1409347800211,-6.8198833,-1.8154035,2.5629928,-9.346638,-2.7576077,-1.0983412
1409347800211,-6.4272346,-1.7615339,2.243367,-9.322056,-2.8031394,-1.1883272
1409347800212,-6.066907,-1.8555063,2.095525,-9.290332,-2.8658712,-1.283323
1409347800212,-5.928642,-2.1865046,2.2307975,-9.253368,-2.943775,-1.3710312
1409347800213,-6.245275,-2.6408045,1.8112136,-9.209867,-3.0425868,-1.446168
1409347800214,-6.7199254,-3.2956185,1.1420342,-9.154809,-3.174318,-1.5111463
1409347800257,-6.704962,-4.231153,0.061650693,-9.081793,-3.3478088,-1.5759465
1409347800257,-7.961319,-6.361394,-2.7527335,-8.986829,-3.5598903,-1.6536323
1409347800258,-10.426748,-7.2885485,-4.4304705,-8.867932,-3.798149,-1.7618805
1409347800258,-9.959281,-6.75943,-5.2840033,-8.728024,-4.0615745,-1.8696448
1409347800261,-7.9972324,-5.6018333,-5.21936,-8.575803,-4.33025,-1.968495
1409347800306,-7.539341,-5.341464,-4.420295,-8.431886,-4.575062,-2.035311
1409347800306,-6.6283474,-5.2840033,-2.8496985,-8.313117,-4.7778354,-2.0578473
1409347800307,-5.5006785,-5.1475334,-1.2384008,-8.218307,-4.950299,-2.0308607
1409347800307,-4.337695,-5.3881507,0.08619126,-8.137554,-5.11117,-1.9561563
1409347800313,-3.2231941,-6.047155,-0.6799533,-8.063892,-5.2707577,-1.8338884
1409347800329,-2.861071,-7.0012445,-0.6715736,-7.981598,-5.439483,-1.69603
1409347800344,-1.816002,-7.4088573,-0.23702596,-7.87911,-5.6347227,-1.5296786
1409347800345,-0.46507367,-7.007828,-1.210269,-7.738686,-5.8681235,-1.3595039
1409347800361,-0.8122329,-7.111976,-1.1965023,-7.55425,-6.134138,-1.2149364
1409347800361,-1.8076223,-7.9146323,-0.35673606,-7.3275957,-6.4259286,-1.0881951
1409347800378,-4.5765166,-9.951499,-1.2192472,-7.0519977,-6.741469,-0.99614805
1409347800381,-8.383896,-13.494319,-1.0893618,-6.720386,-7.078166,-0.9520254
1409347800395,-9.79827,-14.3179245,-0.33399114,-6.3532715,-7.4133334,-0.9213076
1409347800408,-9.370307,-13.214198,0.15143326,-5.9686923,-7.728268,-0.904941
1409347800413,-7.9852614,-12.244546,0.3693056,-5.6255255,-7.984843,-0.87528646
1409347800425,-5.617396,-9.909002,-2.0452468,-5.3431735,-8.185697,-0.78436995
1409347800441,-3.7415388,-8.013393,-1.353921,-5.1046915,-8.345836,-0.67788756
1409347800442,-3.809175,-9.511565,0.8170213,-4.900572,-8.4740305,-0.58786947
1409347800459,-4.630985,-12.46182,2.6928782,-4.7082105,-8.584181,-0.56123805
1409347800461,-4.554969,-12.378621,2.0709844,-4.502838,-8.695065,-0.53915775
1409347800476,-3.755904,-10.779893,1.9967642,-4.2939615,-8.801282,-0.51937574
1409347800493,-3.2022448,-10.059238,2.0751743,-4.1058054,-8.892889,-0.47881344
1409347800495,-3.441665,-10.311827,1.9434932,-3.949739,-8.965358,-0.4385095
1409347800509,-4.144962,-10.5704,2.030283,-3.8197231,-9.023609,-0.39319384
1409347800525,-4.601057,-10.521918,1.9189527,-3.7127588,-9.070679,-0.3296043
1409347800526,-4.4795513,-10.506954,1.590947,-3.6321864,-9.105618,-0.25559857
1409347800541,-3.9665937,-10.648212,1.021127,-3.5850482,-9.126037,-0.18235739
1409347800542,-3.3955765,-10.5045595,0.64463884,-3.5514548,-9.140178,-0.12136545
1409347800555,-2.92751,-10.682329,0.3549404,-3.540744,-9.144908,-0.06474165
1409347800561,-2.789245,-10.781689,0.2633622,-3.5401733,-9.145334,-0.021325696
1409347800575,-2.9753942,-10.560823,0.22685061,-3.5434437,-9.144088,0.008467969
1409347800592,-3.4608185,-10.31901,-0.16101007,-3.5428085,-9.144294,0.028286768
1409347800596,-3.8534677,-10.064027,-0.37588966,-3.5339773,-9.147687,0.035431962
1409347800608,-3.9001546,-9.910798,-0.31244332,-3.5231621,-9.151874,0.030440146
1409347800613,-3.809175,-10.118495,-0.2160767,-3.5152605,-9.154938,0.021782793
1409347800625,-3.7948096,-10.811018,-0.28491,-3.5160158,-9.154664,0.010652912
1409347800641,-3.466804,-11.023503,-0.32202014,-3.5237699,-9.15169,-6.458967E-4
1409347800641,-2.871845,-10.524312,-0.712275,-3.5354512,-9.147179,-0.010343115
1409347800658,-2.5570073,-10.276512,-0.842759,-3.5488873,-9.141965,-0.016881578
1409347800661,-2.280477,-9.908403,-0.9564836,-3.5567439,-9.138913,-0.016127544
1409347800677,-2.0626047,-9.392453,-0.8391677,-3.5533946,-9.1402235,-0.009360534
1409347800690,-2.0847511,-8.252214,-0.664391,-3.5405524,-9.145211,0.001987959
1409347800695,-2.0913353,-7.550115,-0.439336,-3.526624,-9.150574,0.01791852
1409347800708,-2.1583729,-7.032369,-0.20290859,-3.5045135,-9.159042,0.026949966
1409347800731,-2.295441,-6.359598,0.046686932,-3.471432,-9.171624,0.02901216
1409347800732,-2.5396495,-5.04159,0.29568392,-3.424332,-9.189325,0.025252515
1409347800733,-2.5995045,-3.5619736,0.7314286,-3.3651419,-9.211181,0.018961307
1409347800741,-2.0961237,-2.5671828,1.0109516,-3.296173,-9.236094,0.014462241
1409347800758,-1.5113398,-1.9303252,1.2252327,-3.2215424,-9.26239,0.014048984
1409347800761,-1.0618285,-1.5735891,1.2467805,-3.142404,-9.289535,0.015877953
1409347800775,-0.91219085,-1.4089876,1.2192472,-3.0580573,-9.317641,0.015237901
1409347800791,-1.1306617,-1.5077485,1.2000936,-2.9552956,-9.35075,0.009771452
1409347800793,-1.845331,-1.9554642,1.1246762,-2.8280377,-9.390026,-0.0040302784
1409347800808,-2.7754784,-2.6048915,1.158195,-2.6796517,-9.433425,-0.01882862
1409347800822,-3.2609026,-2.9951463,0.65541273,-2.5230289,-9.476509,-0.022198388
1409347800823,-3.5541923,-3.6284127,0.5189432,-2.3703992,-9.515858,-0.0070364745
1409347800840,-4.1359835,-4.4717703,0.6075287,-2.2386112,-9.54767,0.031719666
1409347800842,-5.0763063,-6.612785,0.024540568,-2.1249142,-9.573314,0.08255027
1409347800857,-6.4487824,-15.465346,-5.6497173,-2.0533957,-9.588207,0.1422282
1409347800862,-6.6905966,-19.608511,-6.787562,-2.040446,-9.59128,0.11978023
1409347800875,0.20649989,-19.608511,-6.9342065,-2.0678372,-9.585988,0.057243984
1409347800890,2.457648,-19.608511,-5.168483,-2.0010045,-9.600316,-0.017955929
1409347800894,0.84694886,-16.825253,-1.7788919,-1.8166817,-9.636569,-0.08124153
1409347800906,0.19093758,-9.674371,-0.44711718,-1.4594493,-9.696572,-0.12994799
1409347800923,0.47524905,-7.0605006,0.16938977,-0.970378,-9.756436,-0.20173839
1409347800923,-0.029927522,-8.438364,0.54887074,-0.4718388,-9.787207,-0.39793083
1409347800939,-0.7517793,-12.239159,0.62009823,-0.029943887,-9.781855,-0.696286
1409347800942,-0.46926352,-14.498089,3.7612908,0.3046154,-9.7444315,-1.0600363
1409347800957,1.0546459,-14.017452,7.784148,0.51284814,-9.691054,-1.4109745
1409347800962,2.416348,-12.219407,7.5213847,0.5888266,-9.643523,-1.681106
1409347800975,3.1639376,-10.738593,4.197036,0.5390613,-9.618198,-1.8357741
1409347800990,3.928885,-9.92636,0.65182143,0.42735624,-9.62347,-1.8375562
1409347800995,4.7776294,-9.572617,-1.7860745,0.34641048,-9.638379,-1.7753971
1409347801007,5.392939,-9.488221,-3.2136173,0.2959905,-9.665374,-1.6319705
1409347801024,5.6257753,-9.543886,-4.024653,0.31435674,-9.688169,-1.4869267
1409347801025,5.1822495,-9.61272,-4.1826706,0.3893895,-9.699932,-1.3892794
1409347801041,4.5358152,-9.508572,-3.54282,0.50169367,-9.700069,-1.3517952
1409347801042,3.9366663,-9.806051,-2.9538465,0.6353072,-9.69045,-1.3645465
1409347801056,3.4332852,-10.334572,-2.119467,0.77350044,-9.672905,-1.4166888
1409347801062,2.8353333,-10.578181,-1.3670892,0.8999361,-9.650539,-1.4925218
1409347801076,2.678513,-9.952098,-1.1623849,1.008008,-9.627377,-1.5709704
1409347801092,2.8245595,-9.3343935,-0.8619126,1.086296,-9.605076,-1.653143
1409347801093,2.4941597,-9.390657,-0.51954174,1.1258365,-9.58781,-1.7253414
1409347801107,1.9782091,-9.601347,-0.14065935,1.13297,-9.576794,-1.7809471
1409347801122,1.5592239,-9.934141,0.18195933,1.1192454,-9.571118,-1.8197166
1409347801122,1.0348936,-10.720636,0.8810662,1.0873296,-9.570605,-1.8416333
1409347801142,0.9032126,-10.754754,1.2162545,1.0343577,-9.576572,-1.8411347
1409347801142,0.80684596,-10.583569,1.3132197,0.96716106,-9.585063,-1.83345
1409347801156,0.6925228,-10.450092,1.1270704,0.8891326,-9.597092,-1.8098692
1409347801162,0.59615624,-10.338761,0.8098387,0.7983485,-9.611292,-1.7765433
1409347801176,0.5674258,-10.150817,0.41479546,0.7003306,-9.626704,-1.7339299
1409347801187,0.7517793,-10.05864,0.06344634,0.6017875,-9.642728,-1.6810943
1409347801205,1.1528081,-10.110115,-0.17537527,0.5075833,-9.659032,-1.617371
1409347801206,1.3108255,-10.2417965,-0.36990416,0.41860098,-9.675468,-1.5428777
1409347801221,1.1318588,-10.199299,-0.58418524,0.33843204,-9.6913,-1.4610149
1409347801222,0.62847793,-10.0748005,-0.79607207,0.26588207,-9.705741,-1.3777801
1409347801241,0.03232172,-9.988011,-1.0474633,0.21082447,-9.718791,-1.2927047
1409347801242,-0.2837129,-10.102334,-1.2737153,0.17981471,-9.73048,-1.2065666
1409347801262,-0.47046062,-10.1861315,-1.3838485,0.170695,-9.740932,-1.1204928
1409347801263,-0.5267244,-9.824607,-1.417966,0.17269553,-9.750271,-1.0357465
1409347801297,-0.41958386,-10.000581,-1.4945804,0.17589638,-9.758424,-0.955311
1409347801298,-0.29568392,-10.351331,-1.5879543,0.17606851,-9.765381,-0.8813421
1409347801298,-0.23044191,-10.813412,-1.6340426,0.17362171,-9.771368,-0.81279874
1409347801302,-0.24121583,-11.027095,-1.5586253,0.17009968,-9.77608,-0.7547937
1409347801327,-0.30226797,-10.890026,-1.4149733,0.16641104,-9.779556,-0.70923084
1409347801327,-0.17836803,-10.444705,-1.2611457,0.16411036,-9.781952,-0.67595106
1409347801342,0.13706805,-10.076596,-1.0959458,0.16305064,-9.783457,-0.6540449
1409347801343,0.4357447,-9.975441,-0.9947908,0.16035599,-9.78437,-0.6409224
1409347801358,0.65182143,-10.000581,-0.95468795,0.15526333,-9.784814,-0.6353829
1409347801376,0.7703344,-10.038888,-0.9804256,0.15094459,-9.784718,-0.6378852
1409347801377,0.75118077,-9.907207,-1.0103531,0.14871319,-9.784305,-0.6447329
1409347801391,0.6823475,-9.648034,-1.0073603,0.14759587,-9.783284,-0.6602742
1409347801394,0.7386112,-9.482236,-1.0552444,0.147206,-9.78175,-0.6827315
1409347801410,0.80445176,-9.665392,-1.1067197,0.14581658,-9.779788,-0.7105571
1409347801422,0.7332243,-9.731233,-1.1605892,0.14171997,-9.777521,-0.7418869
1409347801423,0.6775591,-9.953295,-1.2557588,0.13713263,-9.774958,-0.7757541
1409347801441,0.6464345,-10.316016,-1.3533225,0.13621786,-9.77205,-0.81169575
1409347801442,0.61291564,-10.545261,-1.3784616,0.13746902,-9.7688465,-0.849194
1409347801460,0.52073884,-10.734404,-1.3102269,0.14266163,-9.765213,-0.8891829
1409347801480,0.42916065,-10.796054,-1.151611,0.14848727,-9.761089,-0.9324761
1409347801481,0.4249708,-10.758944,-0.9648633,0.15327539,-9.756464,-0.97891986
1409347801482,0.36631286,-10.532692,-0.6787562,0.15708208,-9.751395,-1.0276433
1409347801507,0.4189853,-10.337564,-0.35913026,0.16007045,-9.746179,-1.0755396
1409347801507,0.3369839,-10.163984,-0.2184709,0.16475129,-9.741057,-1.1202806
1409347801526,0.23882163,-10.437522,-0.13587095,0.17170565,-9.73614,-1.1612427
1409347801526,0.05805939,-10.451289,0.05686229,0.17928426,-9.731356,-1.1995687
1409347801553,-0.18854338,-10.062231,0.32800564,0.1870733,-9.726756,-1.235162
1409347801554,-0.2837129,-9.861717,0.5243302,0.1909598,-9.72213,-1.2704928
1409347801556,-0.37948096,-9.572617,0.6925228,0.18956572,-9.717702,-1.3041098
1409347801572,-0.3716998,-9.683349,0.741604,0.18257396,-9.713841,-1.3335406
1409347801574,-0.23163901,-10.338761,0.4237737,0.17257541,-9.711082,-1.3548089
1409347801587,-0.011971008,-10.682928,0.14065935,0.16131109,-9.709699,-1.3660733
1409347801604,0.16879122,-10.7194395,-0.08080431,0.15230975,-9.709012,-1.3719782
1409347801605,0.29448682,-10.539874,-0.2657564,0.14224516,-9.710075,-1.3655081
1409347801621,0.6332663,-10.307637,-0.4961983,0.13237989,-9.712587,-1.3485329
1409347801622,0.7990648,-9.828198,-0.5943606,0.12537469,-9.715804,-1.3258342
1409347801640,0.39324763,-9.260772,-0.57999533,0.11984219,-9.719245,-1.3008863
1409347801643,0.06284779,-8.950125,-0.670975,0.11336452,-9.722587,-1.2762715
1409347801656,0.13826515,-9.142858,-0.8439561,0.10851912,-9.725426,-1.2548691
1409347801672,0.011372458,-9.531317,-0.98581254,0.103110835,-9.728136,-1.2341671
1409347801676,-0.17417817,-9.896433,-1.0366893,0.09330957,-9.731039,-1.2118512
1409347801690,-0.21428105,-10.025121,-1.0163386,0.07744448,-9.734816,-1.1822815
1409347801695,-0.23044191,-10.080787,-1.0145429,0.05961656,-9.7391405,-1.1471564
1409347801704,-0.24660277,-10.243592,-1.0342951,0.038029872,-9.743683,-1.1088504
1409347801720,-0.22924481,-10.5680065,-1.1025299,0.011630525,-9.74832,-1.0679479
1409347801723,-0.1945289,-10.86788,-1.1139023,-0.016955812,-9.752906,-1.0251398
1409347801744,-0.2124854,-10.9822035,-1.1228806,-0.04622779,-9.757216,-0.98234576
1409347801744,-0.49200845,-10.775703,-1.0552444,-0.07564912,-9.76116,-0.940432
1409347801760,-0.7009025,-10.527305,-0.9911995,-0.103167534,-9.764547,-0.90186644
1409347801771,-0.6781576,-10.38904,-1.0043676,-0.125733,-9.767369,-0.86781335
1409347801776,-0.47524905,-10.286688,-0.9995792,-0.14287673,-9.769626,-0.83929807
1409347801789,-0.34356794,-10.264542,-1.0115502,-0.15832156,-9.7713785,-0.81575704
1409347801803,-0.2765303,-10.216658,-1.0013748,-0.17368513,-9.772724,-0.79629946
1409347801804,-0.11192893,-10.193314,-0.9552865,-0.18717384,-9.773836,-0.7794325
1409347801822,0.11731588,-10.216658,-0.8595184,-0.19821197,-9.774814,-0.7642974
1409347801823,0.21667525,-10.349535,-0.74878657,-0.2077347,-9.77575,-0.7496546
1409347801839,0.19692309,-10.213664,-0.6404489,-0.21634383,-9.776423,-0.73834175
1409347801843,0.142455,-9.987412,-0.5746084,-0.22328824,-9.776769,-0.73165953
1409347801857,0.060453594,-9.938332,-0.55365914,-0.22688334,-9.776808,-0.730048
1409347801863,-0.038905777,-9.9550905,-0.56443304,-0.22809038,-9.776666,-0.73154086
1409347801880,-0.09876082,-10.048465,-0.58777654,-0.22824733,-9.776557,-0.7329519
1409347801883,-0.15442601,-10.244789,-0.62967503,-0.2275611,-9.776591,-0.7327415
1409347801903,-0.15741876,-10.298658,-0.6099229,-0.22688714,-9.776688,-0.7316478
1409347801903,-0.19273324,-10.2495775,-0.47225627,-0.2266966,-9.7768955,-0.7289286
1409347801920,-0.16340427,-10.170568,-0.338181,-0.22827655,-9.777139,-0.7251637
1409347801923,-0.1945289,-10.242993,-0.20051439,-0.23112464,-9.777347,-0.72143215
1409347801937,-0.2813187,-10.402806,-0.1328782,-0.23488428,-9.777551,-0.7174206
1409347801943,-0.21906945,-10.3932295,-0.17597382,-0.23889177,-9.7778225,-0.71241707
1409347801956,-0.12749124,-10.287286,-0.22804771,-0.24317193,-9.7782,-0.7057494
1409347801972,-0.062249243,-10.237606,-0.2657564,-0.24950522,-9.77876,-0.6956915
1409347801977,-0.0011971008,-10.315418,-0.31543607,-0.25628597,-9.7794,-0.6841414
1409347801995,0.053869538,-10.466252,-0.39264908,-0.2640724,-9.780155,-0.67023855
1409347802009,0.11552023,-10.527904,-0.45250413,-0.2712319,-9.780929,-0.6559528
1409347802011,0.18495208,-10.565612,-0.48841715,-0.27640462,-9.781733,-0.64165133
1409347802028,0.23582886,-10.518925,-0.52373165,-0.27860332,-9.782597,-0.6273656
1409347802029,0.37110126,-10.282497,-0.49440265,-0.27708033,-9.783515,-0.6135703
1409347802037,0.3854665,-10.1382475,-0.43873745,-0.27205694,-9.784473,-0.60036886
1409347802043,0.35314476,-10.01315,-0.3752911,-0.2664093,-9.785417,-0.58739424
1409347802059,0.31543607,-9.945514,-0.37708676,-0.26106706,-9.786244,-0.57589316
1409347802075,0.29747957,-9.961076,-0.4321534,-0.25596827,-9.786908,-0.5668588
1409347802078,0.29209262,-10.004171,-0.4878186,-0.25070146,-9.787483,-0.5592302
1409347802090,0.36152446,-10.086772,-0.51595044,-0.24478345,-9.788155,-0.55000585
1409347802110,0.44831428,-10.135853,-0.5386954,-0.23782384,-9.789,-0.5378893
1409347802111,0.48482585,-10.178948,-0.56443304,-0.22989802,-9.789936,-0.5241443
1409347802115,0.521936,-10.207679,-0.6015432,-0.22240211,-9.790761,-0.5118091
1409347802123,0.5638345,-10.24419,-0.66259533,-0.2152765,-9.791466,-0.5012439
1409347802137,0.6051345,-10.274716,-0.6871359,-0.20943683,-9.791922,-0.49479544
1409347802143,0.6362591,-10.234015,-0.6985083,-0.20383039,-9.79213,-0.49297115
1409347802157,0.66858083,-10.278308,-0.6955156,-0.19865182,-9.792121,-0.49528643
1409347802179,0.770933,-10.351331,-0.6512229,-0.19382103,-9.791947,-0.50061905
1409347802179,0.8858546,-10.70687,-0.59256494,-0.1884785,-9.791649,-0.50840837
1409347802184,0.87089086,-10.705074,-0.4842273,-0.1825304,-9.791295,-0.5173416
1409347802215,0.7781156,-9.658808,-0.29628247,-0.17751989,-9.790894,-0.52658117
1409347802216,0.85293436,-9.579201,-0.219668,-0.17427637,-9.7904415,-0.5359505
1409347802220,0.88525605,-10.131064,-0.26635495,-0.16989742,-9.789921,-0.54677874
1409347802223,0.80445176,-10.390237,-0.2813187,-0.16499417,-9.789377,-0.5579127
1409347802238,0.7326257,-10.338761,-0.28072014,-0.15976386,-9.788849,-0.5686287
1409347802256,0.6799533,-10.278308,-0.28311434,-0.15336773,-9.788354,-0.57883334
1409347802257,0.61890113,-10.220248,-0.3333926,-0.14643969,-9.787933,-0.58761984
1409347802271,0.57281274,-10.245986,-0.43035775,-0.13913725,-9.787639,-0.59429216
1409347802291,0.6087258,-10.396222,-0.44711718,-0.13157412,-9.787382,-0.60023266
1409347802292,0.6380547,-10.4488945,-0.44951138,-0.12265842,-9.787271,-0.60389763
1409347802306,0.65780693,-10.356119,-0.4866215,-0.11287527,-9.787217,-0.60666883
1409347802307,0.61112,-10.179547,-0.4985925,-0.10210779,-9.787126,-0.61005205
1409347802320,0.5255273,-9.973047,-0.49679685,-0.090984635,-9.787028,-0.61335814
1409347802323,0.45908818,-9.877279,-0.47405192,-0.07972528,-9.786913,-0.6167431
1409347802337,0.35793316,-9.840768,-0.42317516,-0.06809505,-9.786729,-0.62104106
1409347802353,0.22565351,-9.8276,-0.3776853,-0.05715075,-9.786476,-0.6260937
1409347802355,0.06344634,-9.9473095,-0.3172317,-0.04734715,-9.786192,-0.63135844
1409347802371,-0.08020575,-10.044274,-0.22565351,-0.03832973,-9.785802,-0.6380086
1409347802389,-0.22984336,-10.075399,-0.11552023,-0.029963762,-9.785288,-0.6462515
1409347802390,-0.39923313,-10.067618,-0.016759412,-0.023736557,-9.784655,-0.6560253
1409347802407,-0.5746084,-10.075998,0.094570965,-0.020450084,-9.7838745,-0.6676678
1409347802408,-0.6374562,-10.244789,0.21428105,-0.021294132,-9.782912,-0.68158174
1409347802424,-0.66259533,-10.327389,0.30286652,-0.02201251,-9.781838,-0.6968115
1409347802425,-0.6691794,-10.25676,0.24361002,-0.028515609,-9.780755,-0.71165305
1409347802437,-0.6326678,-10.131064,0.078410104,-0.039002225,-9.779659,-0.7260457
1409347802450,-0.4902128,-9.97604,-0.077213004,-0.051585227,-9.778594,-0.73946756
1409347802457,-0.2645593,-9.97604,-0.19512744,-0.06519669,-9.777474,-0.75310034
1409347802472,0.12030864,-9.974244,-0.24480712,-0.07895751,-9.776133,-0.76903677
1409347802475,0.20649989,-10.187328,-0.23822308,-0.089895666,-9.77455,-0.78770524
1409347802491,0.25079262,-10.253169,-0.21667525,-0.100304544,-9.772768,-0.80830497
1409347802507,0.20410569,-10.19092,-0.18794483,-0.110095866,-9.770987,-0.8283272
1409347802508,0.110731825,-10.250774,-0.11851298,-0.12034137,-9.769276,-0.8468799
1409347802521,0.092775315,-10.435128,-0.007182605,-0.13050124,-9.76791,-0.86096686
1409347802523,0.0724246,-10.43034,0.01316811,-0.14047143,-9.766977,-0.86995035
1409347802535,0.090381116,-10.220248,-0.11971009,-0.15011574,-9.766406,-0.8747516
1409347802554,0.093972415,-10.311228,-0.3345897,-0.15962914,-9.766201,-0.8753677
1409347802557,0.1921347,-10.505757,-0.6015432,-0.1678741,-9.766495,-0.8705062
1409347802570,0.3764882,-10.486604,-0.82779527,-0.17296793,-9.76726,-0.86088735
1409347802589,0.58119243,-10.470443,-0.9672575,-0.17538697,-9.76814,-0.850335
1409347802590,0.7224504,-10.368689,-1.0785879,-0.17433746,-9.769436,-0.8355261
1409347802602,0.7990648,-10.057443,-1.163582,-0.17000644,-9.771076,-0.81706166
1409347802603,0.8738836,-9.935937,-1.2006922,-0.16262305,-9.773016,-0.79505444
1409347802621,1.0007763,-10.113707,-1.2629414,-0.15136662,-9.775121,-0.77102995
1409347802624,1.091756,-10.391434,-1.3192052,-0.13540918,-9.777191,-0.7473826
1409347802639,1.0702082,-10.487801,-1.388637,-0.115921505,-9.779118,-0.7251076
1409347802659,0.919972,-10.423157,-1.3976152,-0.09491467,-9.7808485,-0.70456046
1409347802660,0.6326678,-10.262147,-1.287482,-0.074844815,-9.782394,-0.6852134
1409347802664,0.2908955,-10.0508585,-1.1833342,-0.05510843,-9.78375,-0.66755617
1409347802684,0.022744916,-9.908403,-1.062427,-0.03584522,-9.784927,-0.651362
1409347802685,-0.17357962,-9.879673,-0.9911995,-0.017456746,-9.786036,-0.6352964
1409347802709,-0.29209262,-9.986216,-0.91817635,-0.0012818566,-9.787089,-0.6191092
1409347802709,-0.36750996,-10.1226845,-0.8846575,0.012668051,-9.78816,-0.6017834
1409347802715,-0.44771573,-10.228628,-0.85772276,0.024366088,-9.789224,-0.5838532
1409347802724,-0.5291186,-10.250176,-0.84934306,0.034505203,-9.79026,-0.5657073
1409347802738,-0.6075287,-10.258555,-0.8319851,0.042224694,-9.791232,-0.54808867
1409347802756,-0.62368953,-10.278907,-0.82240826,0.046758536,-9.79208,-0.5323294
1409347802758,-0.6147113,-10.360908,-0.82599956,0.04820172,-9.792752,-0.5197142
1409347802770,-0.635062,-10.4728365,-0.8535329,0.047205113,-9.793203,-0.51121294
1409347802788,-0.6099229,-10.497976,-0.8822633,0.043342005,-9.79341,-0.5075824
1409347802788,-0.5189432,-10.477625,-0.90021986,0.03760434,-9.793368,-0.5088567
1409347802801,-0.43035775,-10.432734,-0.9343372,0.03143354,-9.793087,-0.5146423
1409347802804,-0.35075054,-10.292074,-0.9415198,0.025808103,-9.792695,-0.5223551
1409347802823,-0.25797522,-10.15381,-0.94810385,0.019999124,-9.792181,-0.5321581
1409347802824,-0.1388637,-10.14543,-0.98461545,0.0141606275,-9.791571,-0.54344285
1409347802839,-0.0077811554,-10.1621895,-0.99179804,0.008270108,-9.790854,-0.55632806
1409347802855,0.093972415,-10.185533,-0.95468795,0.002732932,-9.790053,-0.5702882
1409347802858,0.16160862,-10.165182,-0.9403227,-0.0023135378,-9.789203,-0.58471185
1409347802871,0.17657238,-10.121488,-0.91697925,-0.0063429396,-9.788305,-0.5995248
1409347802888,0.20590134,-10.089765,-0.87448215,-0.008472061,-9.787399,-0.614125
1409347802889,0.2172738,-10.153211,-0.85652566,-0.009658348,-9.786528,-0.6278262
1409347802901,0.24301147,-10.226832,-0.8242039,-0.010450959,-9.785735,-0.6400801
1409347802904,0.24660277,-10.17416,-0.7954735,-0.010539514,-9.784979,-0.6515268
1409347802918,0.28491,-9.946113,-0.66139823,-0.01044716,-9.784201,-0.6631021
1409347802924,0.28491,-10.043676,-0.66020113,-0.010575171,-9.783435,-0.6742951
1409347802938,0.24121583,-10.168175,-0.6440403,-0.010261574,-9.782616,-0.6860849
1409347802952,0.19512744,-10.253169,-0.62368953,-0.009501111,-9.781798,-0.6976567
1409347802955,0.11552023,-10.246585,-0.59256494,-0.008731004,-9.781027,-0.70839727
1409347802969,-0.005985504,-10.175956,-0.56563014,-0.007809505,-9.780374,-0.71735626
1409347802991,-0.107140526,-10.108918,-0.5303157,-0.0069803605,-9.7798395,-0.72464466
1409347802992,-0.20051439,-10.132261,-0.5243302,-0.0068470896,-9.779424,-0.73023856
1409347802998,-0.27593175,-10.188525,-0.5189432,-0.007761282,-9.779078,-0.73485214
1409347803004,-0.35553896,-10.206482,-0.48722005,-0.010123335,-9.778744,-0.739232
1409347803020,-0.40402153,-10.14124,-0.4782418,-0.014235446,-9.778417,-0.7434698
1409347803024,-0.4333505,-10.135254,-0.46387658,-0.019996494,-9.778087,-0.74769
1409347803038,-0.44592008,-10.298658,-0.4441244,-0.02658055,-9.777771,-0.7515631
1409347803052,-0.43275195,-10.458471,-0.46028528,-0.034914955,-9.777522,-0.75447226
1409347803067,-0.41240123,-10.502765,-0.44592008,-0.045010526,-9.777292,-0.7569331
1409347803068,-0.39863458,-10.488997,-0.4285621,-0.05639029,-9.777049,-0.7593086
1409347803088,-0.35553896,-10.416573,-0.3878607,-0.0684405,-9.77672,-0.7625404
1409347803088,-0.30346507,-10.320207,-0.3878607,-0.08087416,-9.776268,-0.7671143
1409347803101,-0.23104046,-10.2896805,-0.4285621,-0.093444884,-9.775683,-0.77309453
1409347803104,-0.142455,-10.274716,-0.5243302,-0.10527619,-9.77503,-0.77981883
1409347803118,-0.017956512,-10.262746,-0.60453594,-0.11622604,-9.774338,-0.7868927
1409347803135,0.089184016,-10.257957,-0.6362591,-0.12633885,-9.773756,-0.7925597
1409347803136,0.207697,-10.266935,-0.6913257,-0.1350643,-9.773396,-0.79555243
1409347803152,0.3369839,-10.314819,-0.682946,-0.14130846,-9.773187,-0.797012
1409347803157,0.42556936,-10.311228,-0.6398504,-0.14504297,-9.773021,-0.798395
1409347803170,0.41479546,-10.226234,-0.55126494,-0.1471303,-9.772804,-0.8006699
1409347803188,0.35793316,-10.156203,-0.4854244,-0.1480597,-9.772666,-0.8021721
1409347803189,0.31483752,-10.143634,-0.45669398,-0.1486068,-9.772636,-0.80241936
1409347803217,0.27473465,-10.17416,-0.48482585,-0.14593437,-9.772923,-0.79942954
1409347803218,0.29149407,-10.189124,-0.52971715,-0.1414733,-9.773618,-0.7917086
1409347803219,0.33758244,-10.177752,-0.54887074,-0.13559681,-9.774639,-0.78003514
1409347803232,0.37110126,-10.166379,-0.58298814,-0.12802082,-9.77584,-0.7661299
1409347803238,0.3890578,-10.195708,-0.62249243,-0.11923487,-9.7770195,-0.75237435
1409347803250,0.41240123,-10.19451,-0.6374562,-0.10968232,-9.77807,-0.7400778
1409347803256,0.44532153,-10.170568,-0.6679823,-0.09946605,-9.779031,-0.7287439
1409347803272,0.47345337,-10.139444,-0.65900403,-0.08898849,-9.779823,-0.71939975
1409347803285,0.47165772,-10.038289,-0.6751649,-0.078307815,-9.78046,-0.711936
1409347803286,0.4842273,-10.001778,-0.7009025,-0.06717735,-9.780988,-0.7058254
1409347803301,0.4997896,-10.039486,-0.7422025,-0.055562604,-9.781455,-0.70033556
1409347803304,0.44651863,-10.05864,-0.78888947,-0.043596566,-9.78191,-0.69477445
1409347803318,0.39504328,-10.089765,-0.8631097,-0.032166824,-9.782391,-0.6886451
1409347803331,0.31304187,-10.111911,-0.89603,-0.02040303,-9.782876,-0.6821365
1409347803337,0.18495208,-10.108319,-0.91219085,-0.0088683665,-9.783341,-0.67566466
1409347803347,0.10654198,-10.162787,-0.96187055,0.0020285833,-9.783781,-0.66932666
1409347803365,0.08140286,-10.21127,-0.9295488,0.012252748,-9.784136,-0.6640426
1409347803366,0.09756372,-10.25676,-0.84814596,0.021817865,-9.784434,-0.6593623
1409347803385,0.090381116,-10.301053,-0.8391677,0.030458268,-9.784616,-0.6563322
1409347803386,0.073621705,-10.305243,-0.8762778,0.03838146,-9.784611,-0.6559674
1409347803400,0.06943185,-10.296863,-0.90620536,0.04574293,-9.784446,-0.65798813
1409347803404,0.092176765,-10.284293,-0.93014735,0.052871466,-9.78421,-0.6609253
1409347803421,0.14544775,-10.268132,-0.9588778,0.059965223,-9.783915,-0.6646844
1409347803434,0.24301147,-10.239402,-0.94211835,0.067355625,-9.783552,-0.6693045
1409347803436,0.3369839,-10.148422,-0.9103952,0.07507599,-9.78309,-0.6752245
1409347803454,0.4201824,-10.099341,-0.84216046,0.08276421,-9.782434,-0.68375504
1409347803468,0.46866497,-10.118495,-0.81043726,0.09022885,-9.781585,-0.694882
1409347803469,0.45968673,-10.140641,-0.83018947,0.09763269,-9.780613,-0.7074533
1409347803483,0.43873745,-10.1065235,-0.8523358,0.105038,-9.779534,-0.72117203
1409347803484,0.46447513,-10.020332,-0.80924016,0.11266484,-9.77839,-0.7354104
1409347803500,0.45310268,-10.01734,-0.7745243,0.121542856,-9.777209,-0.7495599
1409347803504,0.44831428,-10.026319,-0.7260417,0.13077362,-9.776003,-0.7636019
1409347803518,0.44831428,-10.019734,-0.65660983,0.14001112,-9.774735,-0.7780396
1409347803534,0.46148238,-10.000581,-0.55844754,0.14959405,-9.773365,-0.793302
1409347803538,0.42676646,-9.988609,-0.47884035,0.15946458,-9.771965,-0.80851245
1409347803551,0.39803603,-10.169372,-0.4441244,0.16936961,-9.770586,-0.8230109
1409347803567,0.33518824,-10.3932295,-0.47165772,0.17899902,-9.76927,-0.8365099
1409347803568,0.2717419,-10.319608,-0.47105917,0.1884557,-9.768044,-0.84864336
1409347803585,0.18315643,-10.195708,-0.44592008,0.19752544,-9.76698,-0.8587737
1409347803585,0.11192893,-10.1304655,-0.36631286,0.20507775,-9.7661295,-0.8666408
1409347803601,0.11671733,-10.012551,-0.32441434,0.21090835,-9.765511,-0.8721961
1409347803604,0.08379706,-10.0029745,-0.26515785,0.21584436,-9.765002,-0.8766735
1409347803618,0.074818805,-10.096349,-0.25558102,0.21925884,-9.764687,-0.8793144
1409347803633,0.049679685,-10.135254,-0.32022446,0.22172202,-9.764648,-0.8791484
1409347803638,0.02873042,-10.120291,-0.37828386,0.22398792,-9.764712,-0.8778566
1409347803649,-0.032920275,-10.060435,-0.40521863,0.2252271,-9.765017,-0.87413555
1409347803664,-0.08200141,-10.029311,-0.40701428,0.2244646,-9.765507,-0.86885846
1409347803666,-0.11492168,-10.147225,-0.40641573,0.22113895,-9.766148,-0.8624726
1409347803683,-0.1316811,-10.323798,-0.39085343,0.21529724,-9.766904,-0.8553367
1409347803685,-0.12689269,-10.348338,-0.3728969,0.2073381,-9.76769,-0.8483149
1409347803703,-0.092176765,-10.332177,-0.37588966,0.19747604,-9.76852,-0.8410703
1409347803705,-0.04309563,-10.333375,-0.4189853,0.1872741,-9.769374,-0.83347154
1409347803718,0.05686229,-10.312426,-0.5009867,0.17632833,-9.770326,-0.8246593
1409347803732,0.20949265,-10.260351,-0.6206968,0.16531068,-9.771377,-0.81440735
1409347803736,0.39983168,-10.197504,-0.7344214,0.15450113,-9.772452,-0.8035709
1409347803752,0.587178,-10.121488,-0.8415619,0.14451748,-9.773498,-0.7926351
1409347803766,0.6817489,-10.093356,-0.8996213,0.13604455,-9.774462,-0.7821663
1409347803767,0.78529817,-10.119692,-0.9756372,0.1295166,-9.775353,-0.7720581
1409347803785,0.8451532,-10.137649,-1.0229226,0.12570757,-9.776081,-0.76344466
1409347803786,0.8475474,-10.0508585,-1.0450691,0.122941904,-9.7767105,-0.7557506
1409347803799,0.7858967,-9.937134,-1.0205284,0.12200141,-9.777261,-0.74881756
1409347803805,0.6769605,-9.88506,-0.95708215,0.12291151,-9.777777,-0.7418635
1409347803818,0.38067806,-10.272921,-0.94570965,0.12575433,-9.7783375,-0.7339432
1409347803832,0.2753332,-10.425551,-0.93613285,0.12831132,-9.778981,-0.72488254
1409347803838,0.17657238,-10.349535,-0.8631097,0.13088322,-9.779609,-0.71592826
1409347803848,0.08379706,-10.26095,-0.7930793,0.1328855,-9.780244,-0.7068267
1409347803864,0.005985504,-10.164583,-0.70509243,0.13403234,-9.78088,-0.6977181
1409347803865,-0.025737667,-10.16578,-0.6715736,0.1342454,-9.781399,-0.69038
1409347803884,-0.0077811554,-10.36031,-0.7218518,0.1332935,-9.781738,-0.6857424
1409347803885,0.04129998,-10.420763,-0.76195467,0.13183336,-9.781902,-0.6836399
1409347803899,0.10055647,-10.296863,-0.78649527,0.12993805,-9.78193,-0.6836428
1409347803905,0.110731825,-10.210671,-0.82121116,0.12732874,-9.781877,-0.68489015
1409347803917,0.089184016,-10.168175,-0.8738836,0.12382074,-9.781751,-0.6873317
1409347803936,0.11731588,-10.166379,-0.9367314,0.11999942,-9.781516,-0.691355
1409347803952,0.13706805,-10.093356,-0.9804256,0.11682927,-9.781208,-0.6962211
1409347803953,0.16998832,-9.965864,-0.9660604,0.11390432,-9.780881,-0.7012895
1409347803973,0.1921347,-10.019135,-0.97743285,0.11108956,-9.780598,-0.7056787
1409347803973,0.20410569,-10.250774,-0.9463082,0.10861031,-9.780262,-0.7106892
1409347803976,0.20530279,-10.350134,-0.8499416,0.10631226,-9.779833,-0.7169044
1409347803985,0.16699557,-10.296863,-0.7433996,0.10384674,-9.779323,-0.7241899
1409347804011,0.108337626,-10.253767,-0.6422446,0.10059447,-9.778781,-0.7319103
1409347804012,5.985504E-4,-10.2406,-0.56563014,0.09634148,-9.778312,-0.7387486
1409347804020,-0.074220255,-10.254366,-0.5201403,0.091020286,-9.777984,-0.7437211
1409347804053,-0.108337626,-10.313622,-0.44472298,0.0865636,-9.777843,-0.7461095
1409347804056,-0.1352724,-10.3453455,-0.39324763,0.08217794,-9.777974,-0.744882
1409347804057,-0.094570965,-10.25676,-0.39983168,0.076544896,-9.778323,-0.740895
1409347804074,0.05865794,-10.152613,-0.44831428,0.06993425,-9.7787075,-0.7364578
1409347804075,0.24121583,-10.075399,-0.5554548,0.06295242,-9.778996,-0.7332611
1409347804079,0.4249708,-10.052654,-0.7038953,0.056255266,-9.779266,-0.7302011
1409347804085,0.58119243,-10.110714,-0.8972271,0.05149404,-9.779516,-0.72717273
1409347804104,0.6955156,-10.198102,-1.0145429,0.049196284,-9.77986,-0.7227169
1409347804122,0.7787141,-10.231023,-1.0528502,0.049179334,-9.780238,-0.7175743
1409347804123,0.84335756,-10.166978,-1.0654198,0.051371876,-9.780512,-0.7136884
1409347804126,0.88286185,-10.083779,-1.0049661,0.055384036,-9.780571,-0.71257776
1409347804159,0.8678981,-10.096349,-0.94930094,0.061370123,-9.780368,-0.71487206
1409347804166,0.8655039,-10.161591,-0.9187749,0.068523504,-9.77994,-0.7200433
1409347804167,0.8750807,-10.21546,-0.90261406,0.0769564,-9.779444,-0.7259101
1409347804168,0.85891986,-10.269928,-0.8702923,0.0859253,-9.778906,-0.73212653
1409347804196,0.7858967,-10.270527,-0.8678981,0.095723934,-9.778396,-0.7377134
1409347804197,0.7206547,-10.304046,-0.8403648,0.10565642,-9.77784,-0.74371994
1409347804200,0.6793547,-10.331579,-0.7769185,0.11560411,-9.777225,-0.75028473
1409347804229,0.5793968,-10.211869,-0.7230489,0.12438655,-9.776498,-0.7583067
1409347804230,0.49440265,-10.06283,-0.62967503,0.13107173,-9.775626,-0.7683453
1409347804231,0.415394,-10.043676,-0.5931635,0.13714842,-9.7747,-0.77900285
1409347804257,0.36032736,-10.140042,-0.59495914,0.14297493,-9.773792,-0.78928226
1409347804257,0.34596214,-10.191518,-0.6560113,0.14809126,-9.772953,-0.7986714
1409347804259,0.36750996,-10.166978,-0.7200562,0.15267536,-9.772172,-0.8072914
1409347804267,0.40701428,-10.236409,-0.7625532,0.15640987,-9.771389,-0.8159955
1409347804283,0.49081135,-10.324995,-0.83138657,0.15912761,-9.770576,-0.8251941
1409347804285,0.5943606,-10.402806,-0.85652566,0.16250351,-9.769568,-0.8363754
1409347804301,0.65541273,-10.398617,-0.8834604,0.16711685,-9.768453,-0.8484394
1409347804317,0.7278373,-10.381259,-0.8948329,0.17301176,-9.767251,-0.8609552
1409347804319,0.7613561,-10.301053,-0.94331545,0.18003128,-9.766002,-0.87359893
1409347804342,0.80086046,-10.140042,-0.96785605,0.18908231,-9.764706,-0.8860978
1409347804343,0.83138657,-9.918579,-0.95947635,0.20076953,-9.763456,-0.8972113
1409347804346,0.82360536,-9.718663,-0.93493575,0.21442309,-9.76229,-0.9067238
1409347804376,0.8098387,-9.557653,-0.8678981,0.22866935,-9.761234,-0.9145582
1409347804378,0.81163436,-9.532514,-0.84216046,0.24236791,-9.760279,-0.92119426
1409347804380,0.7577648,-9.609727,-0.7990648,0.25568333,-9.759311,-0.92784554
1409347804386,0.6925228,-9.722255,-0.7679402,0.26820204,-9.758361,-0.9342799
1409347804409,0.56563014,-9.8515415,-0.7236475,0.27984074,-9.757489,-0.93994397
1409347804410,0.3800795,-9.922769,-0.76195467,0.28960925,-9.75682,-0.94392395
1409347804421,0.17417817,-9.981427,-0.8499416,0.29717064,-9.756326,-0.9466882
1409347804450,0.017357962,-10.127473,-0.90381116,0.30292466,-9.755978,-0.9484277
1409347804451,-0.09876082,-10.300454,-0.92057055,0.30629942,-9.755764,-0.94956577
1409347804451,-0.19093758,-10.30225,-0.9091981,0.3077806,-9.755605,-0.9507091
1409347804476,-0.27832595,-10.275315,-0.86849666,0.30700845,-9.755509,-0.9519208
1409347804477,-0.3196259,-10.213066,-0.8403648,0.3046049,-9.755462,-0.95319855
1409347804480,-0.3645172,-10.126875,-0.8170213,0.30049366,-9.75541,-0.9550275
1409347804486,-0.350152,-10.057443,-0.79726917,0.29427403,-9.755468,-0.95634973
1409347804504,-0.3465607,-10.089765,-0.8026561,0.28653294,-9.755662,-0.9567542
1409347804506,-0.362123,-10.178948,-0.8439561,0.27745178,-9.755904,-0.95695764
1409347804517,-0.38606504,-10.222044,-0.8415619,0.26730478,-9.756086,-0.95799106
1409347804540,-0.36631286,-10.183139,-0.825401,0.2562398,-9.756221,-0.9596435
1409347804541,-0.39384618,-10.148422,-0.86610246,0.24501258,-9.756304,-0.9617273
1409347804546,-0.46028528,-10.0748005,-0.8846575,0.23290217,-9.756224,-0.9655442
1409347804570,-0.4818331,-10.001778,-0.91099375,0.22005379,-9.756067,-0.9701222
1409347804572,-0.46746787,-10.055647,-0.9498995,0.20722237,-9.755879,-0.9748247
1409347804578,-0.43514615,-10.201095,-1.0061632,0.19427812,-9.755683,-0.97945005
1409347804586,-0.35254622,-10.308834,-1.0205284,0.1818249,-9.755403,-0.9846213
1409347804609,-0.23942018,-10.331579,-1.0540473,0.1707327,-9.7550125,-0.99044895
1409347804610,-0.16879122,-10.246585,-1.0714053,0.16094343,-9.7544565,-0.9975392
1409347804620,-0.12509704,-10.053851,-1.0708067,0.15201661,-9.753779,-1.0055308
1409347804641,-0.09876082,-9.991602,-1.1031284,0.14521365,-9.752822,-1.015771
1409347804642,-0.13108255,-10.101137,-1.18094,0.14093202,-9.751527,-1.0287305
1409347804646,-0.19812019,-10.241198,-1.3132197,0.13892186,-9.749928,-1.0440309
1409347804671,-0.28072014,-10.357915,-1.4371196,0.1386369,-9.748323,-1.0589386
1409347804672,-0.3657143,-10.411784,-1.4664485,0.13927783,-9.747177,-1.0693682
1409347804679,-0.3890578,-10.344149,-1.3652935,0.13931525,-9.746736,-1.0733979
1409347804685,-0.3196259,-10.287286,-1.1498153,0.13759266,-9.746634,-1.0745155
1409347804703,-0.23762453,-10.326791,-0.85054016,0.13417964,-9.746712,-1.0742553
1409347804706,-0.23882163,-10.329783,-0.33159694,0.12576573,-9.746259,-1.0793653
1409347804719,-0.2825158,-10.407595,-0.32920274,0.11195757,-9.744918,-1.0928969
1409347804736,-0.3669114,-10.371682,-0.48722005,0.0939692,-9.742149,-1.1189824
1409347804758,-0.38606504,-10.225037,-0.7344214,0.07459142,-9.738387,-1.1526556
1409347804759,-0.3854665,-10.081385,-0.9672575,0.05781857,-9.734702,-1.1843174
1409347804761,-0.3705027,-9.93893,-0.9564836,0.045185298,-9.732112,-1.205964
1409347804767,-0.36750996,-9.860519,-0.83976626,0.034691084,-9.73024,-1.2213298
1409347804792,-0.45789108,-9.822811,-0.9223662,0.026686056,-9.729648,-1.2262446
1409347804795,-0.39504328,-9.718064,-1.079785,0.019027065,-9.729386,-1.2284395
1409347804801,-0.22924481,-9.53012,-1.2042835,0.01252572,-9.728665,-1.2342204
1409347804836,-0.10175357,-9.4457245,-1.2910733,0.0075301034,-9.727226,-1.2455566
1409347804840,-0.1400608,-9.601946,-1.2719196,0.0041200025,-9.72489,-1.2636966
1409347804842,-0.17238252,-9.753978,-1.1911154,0.0040519056,-9.721584,-1.288855
1409347804844,-0.01616086,-9.733627,-1.1959038,0.00661708,-9.717888,-1.3164427
1409347804847,0.019153614,-9.758167,-1.2892777,0.016231881,-9.713397,-1.3490946
1409347804876,-0.22325931,-9.888053,-1.6017209,0.027228784,-9.708616,-1.3829069
1409347804877,-0.18495208,-9.931747,-1.7782934,0.037163027,-9.703795,-1.4161106
1409347804879,-0.03172317,-9.957485,-1.757344,0.049107146,-9.69889,-1.4489783
1409347804905,0.25857377,-9.947908,-1.654992,0.061765846,-9.693069,-1.4869307
1409347804906,0.54288524,-10.040684,-1.5897499,0.077780865,-9.6857,-1.5334692
1409347804907,0.7074866,-9.943718,-1.5646108,0.09955285,-9.677059,-1.5858839
1409347804941,0.8050503,-9.941922,-1.5460558,0.12512714,-9.667894,-1.6390684
1409347804942,0.84455466,-9.816227,-1.4383167,0.15285598,-9.6581545,-1.6932406
1409347804943,0.7918822,-9.6767645,-1.2270284,0.18125,-9.647987,-1.7475375
1409347804946,0.6955156,-9.67856,-1.0217255,0.20880497,-9.637347,-1.802309
1409347804973,0.5626374,-9.679757,-0.9295488,0.23608606,-9.626397,-1.8566468
1409347804973,0.5315128,-9.629479,-0.94690675,0.26449236,-9.615521,-1.908447
1409347804980,0.6488287,-9.546879,-0.9379285,0.29453358,-9.605388,-1.9545313
1409347805000,0.6476316,-9.548077,-0.83856916,0.32753626,-9.595503,-1.9973522
1409347805001,0.54408234,-9.661801,-0.80684596,0.36142042,-9.58687,-2.0326533
1409347805013,0.3812766,-9.931747,-0.81343,0.39699587,-9.5794,-2.061044
1409347805032,0.2136825,-10.301651,-0.85473,0.4343509,-9.573465,-2.0809844
1409347805033,0.02813187,-10.519524,-0.9235633,0.4736787,-9.569426,-2.0909622
1409347805049,-0.17298107,-10.5362835,-1.0660183,0.5129697,-9.567429,-2.0908237
1409347805050,-0.37828386,-10.479421,-1.2198458,0.5510621,-9.566863,-2.0837188
1409347805067,-0.50757074,-10.479421,-1.3042414,0.5866747,-9.566869,-2.073941
1409347805068,-0.55844754,-10.529699,-1.323395,0.62021893,-9.566651,-2.0651574
1409347805081,-0.57161564,-10.556035,-1.3503298,0.6505945,-9.565777,-2.059868
1409347805097,-0.6332663,-10.475231,-1.4850036,0.6792343,-9.564325,-2.0573676
1409347805100,-0.8726865,-10.414778,-1.6555905,0.70704705,-9.562832,-2.054934
1409347805113,-1.163582,-10.482413,-1.7645266,0.7324413,-9.561934,-2.0502093
1409347805117,-1.4047978,-10.627263,-1.8626889,0.7536881,-9.561724,-2.0434792
1409347805129,-1.5729905,-10.836756,-1.9285295,0.7692399,-9.561784,-2.0373867
1409347805148,-1.7872716,-11.088745,-1.881244,0.77662414,-9.56218,-2.0327287
1409347805148,-1.8154035,-11.142016,-1.9470845,0.7782994,-9.561946,-2.0331776
1409347805165,-1.7980455,-11.150395,-1.934515,0.77165747,-9.559946,-2.045093
1409347805170,-1.6639702,-11.183316,-1.7256209,0.759137,-9.555325,-2.0712008
1409347805184,-1.8118122,-11.451467,-1.4862007,0.7458041,-9.548203,-2.1085522
1409347805198,-2.1631613,-11.803414,-1.3036429,0.7312772,-9.539401,-2.153018
1409347805200,-2.6246436,-12.11466,-1.2072762,0.7126,-9.52976,-2.201423
1409347805214,-3.1992521,-12.267291,-1.0456676,0.6865087,-9.519405,-2.2538896
1409347805218,-3.8067808,-12.417527,-0.7942764,0.65021867,-9.509128,-2.3074124
1409347805231,-4.450821,-12.509106,-0.3633201,0.6030077,-9.498192,-2.364549
1409347805258,-5.213374,-12.63899,0.19153613,0.54101855,-9.487308,-2.4225404
1409347805258,-5.884948,-12.662932,0.4770447,0.46112582,-9.477795,-2.4757144
1409347805259,-5.7454853,-12.626421,0.94930094,0.3647212,-9.469043,-2.5248032
1409347805267,-5.0643353,-13.222577,2.088941,0.26532093,-9.459381,-2.5729573
1409347805289,-3.9264908,-13.989919,4.2916064,0.17075054,-9.450622,-2.6128497
1409347805290,-2.2505496,-14.425664,7.0886326,0.09303484,-9.448789,-2.6233857
1409347805298,-1.1306617,-14.668675,10.465055,0.0444941,-9.459099,-2.587244
1409347805321,-0.54527944,-15.090653,11.743559,0.0052300096,-9.491485,-2.466182
1409347805322,-0.023343466,-14.531608,5.878962,-0.03143091,-9.541631,-2.2642233
1409347805326,0.048482586,-13.302185,2.0428526,-0.06933686,-9.583133,-2.080663
1409347805350,-0.10414778,-12.787432,1.0606314,-0.12018793,-9.632906,-1.8338726
1409347805351,-0.3250129,-13.130401,-0.020949265,-0.19937399,-9.684439,-1.5304561
1409347805370,-0.83138657,-13.472772,-2.472612,-0.31212798,-9.7221575,-1.2460335
1409347805371,-0.33638534,-14.57171,-2.6928782,-0.44476944,-9.7452755,-1.0010902
1409347805380,0.19871874,-14.926052,-3.378817,-0.57392365,-9.758764,-0.77944887
1409347805410,1.1803415,-15.368381,-3.256713,-0.7027043,-9.764333,-0.5783119
1409347805411,2.5737667,-15.096041,-4.024653,-0.83671415,-9.763001,-0.39255905
1409347805412,4.243124,-14.170681,-4.5058875,-0.98108613,-9.754593,-0.23619711
1409347805442,6.085462,-12.590508,-3.8151605,-1.1274002,-9.741076,-0.103755556
1409347805443,6.177639,-11.845911,-1.7872716,-1.2601585,-9.725309,0.026831893
1409347805444,4.4077253,-11.97041,-0.6584055,-1.3697125,-9.708983,0.17301556
1409347805447,2.1625626,-12.716803,-0.84814596,-1.4732196,-9.689724,0.33056584
1409347805471,0.08678981,-13.618219,-0.62967503,-1.5414315,-9.672532,0.48634326
1409347805471,-1.3652935,-13.696031,-1.5682021,-1.602956,-9.653185,0.6457202
1409347805478,-2.7730842,-13.128007,-4.24073,-1.7013392,-9.625561,0.79019237
1409347805498,-3.2842462,-11.919533,-3.7421372,-1.8662796,-9.584494,0.90823185
1409347805500,-2.183512,-10.431537,-2.973,-2.0673494,-9.530542,1.0320944
1409347805519,-0.25737667,-9.659407,-4.6471453,-2.2504692,-9.477701,1.1309178
1409347805520,1.0606314,-9.248801,-4.3299136,-2.4076135,-9.430861,1.1969278
1409347805527,2.3175871,-7.9846625,-3.9558198,-2.542919,-9.38888,1.2461435
1409347805552,2.3038206,-7.277775,-3.819949,-2.6645825,-9.344762,1.321279
1409347805553,1.821389,-6.7923503,-2.569577,-2.7840753,-9.295922,1.4160435
1409347805561,0.8924387,-6.0920463,-1.9644425,-2.8968263,-9.243585,1.5280583
1409347805567,-0.207697,-5.3402667,-3.0119057,-2.9899414,-9.190457,1.6631647
1409347805603,0.25139117,-4.4580035,-2.7216089,-3.0592666,-9.1393385,1.8121225
1409347805605,0.98102415,-4.06715,-2.9682117,-3.1153924,-9.0902405,1.9576153
1409347805608,3.4608185,-3.389591,-1.9620483,-3.167924,-9.042933,2.088063
1409347805609,3.9911342,-3.1040826,-1.9847932,-3.206029,-9.002796,2.2003229
1409347805642,4.1922474,-2.8161798,-1.8142064,-3.2338204,-8.970963,2.2879338
1409347805643,4.1276035,-2.1703439,-2.2062569,-3.2499382,-8.94793,2.3543227
1409347805644,4.1718965,-1.7866731,-2.5145104,-3.256391,-8.934428,2.3963113
1409347805647,4.0503907,-1.9339164,-2.384625,-3.2529953,-8.931158,2.4130514
1409347805672,3.684078,-2.1458032,-2.2224178,-3.2392182,-8.93866,2.4037943
1409347805673,3.2872388,-2.0847511,-2.2661119,-3.221965,-8.951533,2.378944
1409347805680,3.2513258,-1.9847932,-2.4384944,-3.1867988,-8.976663,2.331144
1409347805699,3.1860838,-2.3774424,-2.7712884,-3.1297355,-9.013559,2.2651458
1409347805700,3.4039562,-3.57993,-3.0298622,-3.0505693,-9.060402,2.1848435
1409347805719,3.9707835,-5.877765,-3.0945058,-2.944646,-9.118963,2.0842216
1409347805720,3.1609447,-10.732608,3.6673183,-2.8049266,-9.19328,1.9458617
1409347805727,-11.744757,-19.474436,19.608511,-2.6199718,-9.277795,1.7968432
1409347805755,-19.571402,-19.608511,18.377295,-2.4657803,-9.362536,1.5598744
1409347805756,-19.60911,-19.608511,6.95336,-2.298429,-9.443708,1.3053608
1409347805759,-18.752584,-18.687344,2.9741971,-2.1710167,-9.496137,1.1315836
1409347805793,-15.361198,-9.768942,3.918111,-2.1931918,-9.502171,1.0339485
1409347805794,-11.386824,-7.712322,5.083489,-4.666117,-8.36966,2.0848248
1409347805796,-6.3865333,-9.272743,2.1883004,-5.1475606,-8.046574,2.2193823
1409347805801,-2.6384103,-10.184336,0.18914193,-5.104013,-8.05641,2.2833512
1409347805828,0.8002619,-9.528923,-1.353921,-4.8148565,-8.2448635,2.2382524
1409347805828,5.1960163,-9.891046,-3.1370027,-4.381923,-8.525709,2.0691555
1409347805829,8.631696,-12.504915,-4.301183,-3.644023,-8.942363,1.7104403
1409347805847,8.425795,-10.119692,-3.7002387,-2.546637,-9.395086,1.1905326
1409347805848,6.566098,-8.143877,-2.9299042,-1.5575936,-9.655113,0.7232699
1409347805863,4.811148,-8.630499,-2.0374656,-0.7839245,-9.768863,0.35377488
1409347805892,3.345897,-11.147403,-1.7459716,-0.19257878,-9.804277,0.09721067
1409347805893,0.7649474,-14.997878,-0.46148238,0.20282632,-9.803875,-0.11520985
1409347805894,-1.7477672,-14.946403,0.86729956,0.26838475,-9.801189,-0.18728724
1409347805899,-1.4137762,-12.424709,1.9602526,0.083968766,-9.805551,-0.12064298
1409347805920,1.2635399,-10.080188,2.2852654,-0.05687807,-9.806463,-0.020385785
1409347805921,4.2880154,-8.193557,0.96905315,0.025189241,-9.805775,0.12860125
1409347805927,5.251083,-6.663662,0.008978256,0.37101263,-9.797397,0.2091998
1409347805949,4.720767,-6.498462,-0.88645315,0.83149105,-9.768527,0.23429391
1409347805950,4.0378213,-7.639898,-1.6017209,1.2701414,-9.722604,0.1676701
1409347805967,3.365649,-9.0554695,-2.208651,1.6246482,-9.671118,0.020352468
1409347805968,2.8694508,-9.983821,-2.554613,1.8513042,-9.628506,-0.18691607
1409347805980,2.5953147,-10.2974615,-2.4995465,1.9652545,-9.599397,-0.39969784
1409347806001,2.4558525,-10.034698,-2.054225,2.0269506,-9.577503,-0.5773405
1409347806002,2.2852654,-9.831789,-1.6376339,2.0608754,-9.562163,-0.6987346
1409347806007,2.0644004,-9.834184,-1.3982137,2.0831552,-9.551435,-0.77520347
1409347806029,1.8183962,-10.277709,-1.5245079,2.0903904,-9.54553,-0.82675946
1409347806030,1.7220296,-10.817003,-1.8950106,2.0699244,-9.544657,-0.8861779
1409347806067,1.690905,-10.954071,-1.7669208,2.0322175,-9.544517,-0.97093177
1409347806068,1.3467385,-10.707469,-1.7004818,1.9883404,-9.547288,-1.032562
1409347806069,0.825401,-10.910975,-1.6226702,1.9281583,-9.55434,-1.0803572
1409347806070,0.38606504,-10.863091,-1.4101849,1.8196092,-9.571447,-1.1165999
1409347806078,-0.09756372,-10.538078,-1.5705963,1.6771094,-9.596003,-1.1289017
1409347806096,-0.13108255,-9.704298,-2.3660698,1.4970229,-9.622188,-1.158796
1409347806114,0.2705448,-8.7532015,-3.9564183,1.3252813,-9.633121,-1.2716057
1409347806117,0.047884032,-8.209119,-6.211756,1.2024453,-9.610243,-1.5387452
1409347806141,-2.0691888,-8.917803,-6.4523735,1.0633184,-9.540809,-2.0031748
1409347806145,-3.738546,-9.909601,-3.6367924,0.74320483,-9.464967,-2.4561107
1409347806146,-4.367024,-10.036493,-2.6126726,0.30801982,-9.447153,-2.6128147
1409347806148,-5.2624555,-10.284293,-1.5251064,-0.12907267,-9.437413,-2.6625118
1409347806180,-5.183447,-10.468647,-0.6751649,-1.3872695,-9.469882,-2.137101
1409347806181,-4.2730513,-10.295666,-0.46148238,-1.3872695,-9.469882,-2.137101
1409347806181,-2.7563248,-9.752781,0.077811554,-1.3872695,-9.469882,-2.137101
1409347806199,-1.7962499,-9.920973,0.2160767,-1.5339886,-9.491473,-1.9311247
1409347806199,-1.596334,-10.794258,0.30406362,-1.5583512,-9.523733,-1.7436785
1409347806207,-1.3329718,-11.287464,0.55605334,-1.5448875,-9.556743,-1.5660107
1409347806243,-1.0007763,-11.281479,1.1378443,-1.4855335,-9.593972,-1.3853742
1409347806244,-0.39803603,-10.773309,1.666963,-1.4059248,-9.633591,-1.1780121
1409347806245,-0.065242,-10.261548,1.5735891,-1.2977009,-9.673084,-0.95803666
1409347806247,-0.15861586,-10.26514,1.3868413,-1.18287,-9.70302,-0.78906894
1409347806274,-0.39025488,-10.654198,1.3281834,-1.0846219,-9.724119,-0.6599071
1409347806274,-0.599149,-11.170148,1.4041992,-1.0029337,-9.74113,-0.5243302
1409347806280,-0.6099229,-11.5633955,1.8902222,-0.9465856,-9.753123,-0.38850015
1409347806297,-0.30885202,-11.701661,2.7365725,-0.89254713,-9.764051,-0.19250469
1409347806312,0.29747957,-11.614871,3.5769374,-0.82475805,-9.771577,0.08022797
1409347806313,0.87089086,-11.388618,4.5058875,-0.7196166,-9.771688,0.4082605
1409347806329,0.85473,-11.231799,4.6776714,-0.5820257,-9.757666,0.7871397
1409347806330,0.1592144,-11.406575,3.7241807,-0.46100044,-9.730202,1.1318258
1409347806346,-0.56802434,-11.262324,2.6342204,-0.41220775,-9.704715,1.348697
1409347806347,-1.2479776,-10.74398,1.738789,-0.43647185,-9.690876,1.4376363
1409347806361,-2.3708582,-10.919954,0.5446809,-0.51164865,-9.681172,1.4776655
1409347806379,-3.6936548,-12.261904,-0.9900024,-0.672636,-9.679444,1.42348
1409347806380,-4.772841,-13.430873,-1.9488802,-0.9041481,-9.685431,1.2431203
1409347806396,-5.6778493,-13.685257,-3.558981,-1.1800039,-9.684507,0.9941522
1409347806419,-5.8562174,-13.035232,-5.813122,-1.4928602,-9.672395,0.6217115
1409347806420,-5.1367598,-12.4229145,-6.213552,-1.7951772,-9.640573,0.08429741
1409347806421,-5.6790466,-12.783241,-3.9564183,-2.010611,-9.587463,-0.45647362
1409347806427,-6.2883706,-13.551182,-0.20111294,-2.2325177,-9.520191,-0.7431208
1409347806446,-7.4310036,-14.785991,6.903082,-2.4523146,-9.466508,-0.7360358
1409347806447,-7.5974007,-16.353594,12.889185,-2.7072926,-9.424305,-0.15313713
1409347806461,-5.54557,-16.530766,14.870387,-2.6845934,-9.429691,-0.21039106
1409347806479,-3.9636009,-15.085266,8.713697,-2.7100084,-9.421684,-0.24102469
1409347806480,-2.7736826,-12.80838,-0.7505822,-2.9779837,-9.079392,2.2060392
1409347806505,-1.9752164,-12.869432,-2.532467,-2.996304,-9.106351,2.0656517
1409347806506,-1.2671312,-14.931438,-1.8154035,-2.8954055,-9.198873,1.7798136
1409347806507,-0.57161564,-14.3694,-5.2265425,-2.71334,-9.296565,1.5433751
1409347806532,0.31184477,-12.603676,-7.8847046,-2.5079324,-9.421357,1.0576783
1409347806533,0.21428105,-13.387777,-7.378331,-2.31209,-9.521526,0.40641105
1409347806540,0.108337626,-14.812327,-6.482301,-2.116212,-9.574359,-0.15394787
1409347806548,1.2186487,-17.460913,-6.169259,-1.9148335,-9.600612,-0.57626086
1409347806566,2.9771898,-19.608511,-2.6551697,-1.6429724,-9.626106,-0.8994962
1409347806589,6.661866,-19.608511,2.5121162,-1.2944994,-9.676812,-0.9241046
1409347806590,8.309675,-19.544468,2.5719712,-0.7407935,-9.7584715,-0.6275766
1409347806590,4.7560816,-15.78557,-2.878429,-0.14773674,-9.799191,-0.3526935
1409347806622,1.3204023,-12.91612,-6.459556,0.17715894,-9.79486,-0.44685763
1409347806622,-0.736217,-11.92492,-7.4968443,0.3081304,-9.769651,-0.79329795
1409347806623,-0.8038532,-11.16955,-5.653309,0.31154317,-9.723745,-1.2337439
1409347806628,-0.30885202,-10.593145,-6.2650275,0.27013415,-9.677583,-1.562634
1409347806646,1.4425066,-9.234436,-6.215348,0.21955168,-9.616529,-1.9090661
1409347806648,4.0078936,-6.4404025,-3.6260185,0.28828737,-9.550047,-2.209954
1409347806665,3.8869865,-5.1864395,-3.7469256,0.5351004,-9.503392,-2.3600013
1409347806668,2.7509377,-5.0822916,-4.9542017,0.7883017,-9.444568,-2.51974
1409347806679,1.4305356,-5.1355624,-5.0763063,0.97281235,-9.364227,-2.74505
1409347806702,0.85532856,-4.84766,-3.727772,1.0398936,-9.279463,-2.9967568
1409347806703,0.87089086,-4.731541,-2.5312698,1.0347904,-9.215926,-3.1884663
1409347806708,0.5835867,-4.697424,-1.5197195,1.0201504,-9.179879,-3.2953825
1409347806738,0.7380127,-4.225766,-1.5993267,0.9885435,-9.178621,-3.308491
1409347806739,1.5448587,-3.3961751,-1.8561049,0.9916226,-9.172233,-3.3252387
1409347806740,2.4774003,-2.5025394,-2.2655134,1.1208057,-9.135174,-3.3856719
1409347806773,3.4165258,-1.7208325,-2.7742813,1.3594155,-9.051398,-3.5205877
1409347806773,4.2730513,-0.9379285,-2.5635915,1.7331834,-8.897549,-3.7416754
1409347806774,4.811747,-0.7284359,-2.327164,2.2518518,-8.682114,-3.964905
1409347806780,5.85921,-0.4770447,-3.107674,2.862732,-8.409227,-4.1545243
1409347806801,6.4523735,-0.62847793,-3.90614,3.5958197,-7.9867635,-4.4104505
1409347806803,6.895301,-1.0462662,-3.506907,4.319607,-7.455298,-4.68294
1409347806809,7.2023573,-0.8822633,-3.6942532,5.010684,-6.91274,-4.824677
1409347806842,7.1861963,-1.6142905,-3.0585926,5.6476665,-6.3184133,-4.9347696
1409347806843,7.0467343,-3.2632968,-1.8082209,6.1675477,-5.8423185,-4.898883
1409347806844,7.0168066,-5.3725886,1.0324994,6.564276,-5.6226897,-4.6331463
1409347806872,4.9302597,-10.000581,10.9187565,6.8942237,-5.7337914,-3.970351
1409347806872,-6.3326635,-18.731636,19.608511,6.9632754,-6.613118,-1.9874247
1409347806873,-18.934544,-19.608511,18.795082,7.0720873,-6.4376116,-2.170971
1409347806895,-19.60911,-19.608511,12.281656,7.165085,-6.266708,-2.3580363
1409347806895,-17.256208,-19.416975,5.7496753,7.2041855,-6.162417,-2.5089247
1409347806913,-9.318831,-13.117232,4.522647,7.146812,-6.139451,-2.7204118
1409347806915,-7.217321,-9.198523,6.2769985,-2.8440485,-8.780088,3.3153925
1409347806920,-3.1052797,-7.8212585,6.029797,-3.2057908,-8.593496,3.4706092
1409347806928,0.8206126,-6.6187706,4.721366,-3.1602094,-8.489791,3.7559159
1409347806946,3.1663318,-5.0397944,1.5873557,-2.8433185,-8.484768,4.0118146
1409347806960,8.156446,-10.228628,-4.0276456,-2.3840702,-8.613044,4.0375814
1409347806961,9.375095,-13.038822,-5.6982,-1.4133508,-9.098021,3.3762186
1409347806989,7.4190326,-14.385561,-4.3993454,-0.33915365,-9.493433,2.4351785
1409347806990,3.8031895,-15.775993,-1.0450691,0.4294921,-9.6541815,1.6681466
1409347806991,0.8403648,-15.887324,1.4305356,0.7631135,-9.686807,1.3243203
1409347807022,1.0085574,-15.212159,-1.0468647,0.78970426,-9.695245,1.2445956
1409347807023,2.7024553,-14.358626,-4.12102,0.80196154,-9.725994,0.9655536
1409347807024,1.5652094,-12.727576,-4.059369,0.9286217,-9.7482,0.5297697
1409347807028,0.8146271,-10.158598,-2.0362685,0.9615824,-9.757856,0.17325404
1409347807051,1.7316064,-8.582016,-1.067814,0.94912857,-9.760591,0.020600306
1409347807051,2.7216089,-7.5507135,-1.4173675,1.0429986,-9.750441,-0.10696868
1409347807061,2.954445,-7.4567413,-2.3882163,1.2101543,-9.728013,-0.2677046
1409347807090,2.7766755,-7.726089,-3.5093012,1.375622,-9.698233,-0.471549
1409347807092,2.8652608,-7.5447283,-3.5883098,1.5268196,-9.65759,-0.7551269
1409347807101,3.09271,-7.141904,-2.195483,1.6946667,-9.603788,-1.0323633
1409347807155,3.0005333,-7.1568675,-1.0486604,1.882641,-9.553374,-1.1658143
1409347807157,2.8299465,-7.824251,-0.635062,2.046344,-9.518316,-1.1766624
1409347807158,2.546832,-8.829816,-0.59855044,2.174334,-9.494219,-1.1412609
1409347807161,2.3265655,-10.0269165,-0.85173726,2.2472699,-9.482344,-1.0978771
1409347807162,2.086547,-11.20247,-1.1947067,2.2698634,-9.480019,-1.0711668
1409347807168,1.6729485,-12.018892,-1.4544775,2.2441447,-9.486597,-1.0670997
1409347807171,1.2761095,-12.137405,-2.0147207,2.163823,-9.503928,-1.0786995
1409347807209,0.9816227,-11.923723,-3.1112652,2.0503383,-9.522369,-1.1362077
1409347807211,1.234211,-11.3964,-4.324527,1.9178206,-9.530176,-1.2915584
1409347807213,1.5957354,-10.726623,-5.145738,1.8218237,-9.514175,-1.5270319
1409347807214,1.1725603,-10.016143,-6.0782795,1.7628593,-9.474035,-1.8180689
1409347807218,-0.3752911,-10.081385,-4.1258082,1.6728181,-9.4131155,-2.1829636
1409347807243,-1.4371196,-9.983223,-2.4594438,1.4610785,-9.402411,-2.372821
1409347807243,-2.0045455,-9.783307,-2.2379801,1.1810417,-9.424004,-2.4420671
1409347807244,-2.971803,-9.514558,-2.8431146,0.88366544,-9.448253,-2.4738755
1409347807268,-3.1262288,-9.503185,-1.5831659,0.5284959,-9.464523,-2.5127444
1409347807269,-3.0400376,-9.928156,0.47225627,0.19347441,-9.500428,-2.423806
1409347807269,-2.9843724,-10.171167,1.9428947,-0.1215864,-9.569162,-2.1416724
1409347807296,-2.6449943,-10.092158,0.8146271,-0.40524817,-9.6398945,-1.754591
1409347807297,-2.3732524,-9.998785,-0.10115502,-0.62727064,-9.670313,-1.5039959
1409347807301,-2.212841,-9.76954,-0.35434186,-0.7947101,-9.679639,-1.3577234
1409347807308,-1.7040731,-9.304466,-0.35075054,-0.9273525,-9.680067,-1.2675679
1409347807332,-1.3108255,-8.713697,0.019752163,-1.0043945,-9.679228,-1.2141426
1409347807333,-1.2611457,-8.346188,0.32680854,-1.0424861,-9.685058,-1.1328286
1409347807340,-1.4975731,-8.473679,0.49799395,-1.0740111,-9.6902275,-1.0566034
1409347807367,-1.7842789,-8.782531,0.5243302,-1.1191972,-9.693406,-0.9775749
1409347807368,-1.7537527,-8.935161,0.47764325,-1.1884894,-9.692432,-0.9025848
1409347807369,-1.5328877,-9.431359,0.40821138,-1.2537483,-9.690721,-0.82970953
1409347807411,-1.3862427,-10.109517,0.53450555,-1.2889717,-9.692762,-0.7478654
1409347807412,-1.5699978,-11.114483,0.9115923,-1.2950685,-9.699448,-0.64335227
1409347807413,-1.6801311,-13.251906,1.7932571,-1.3022262,-9.707036,-0.49804598
1409347807415,-1.2593501,-13.509882,3.004723,-1.2926447,-9.716825,-0.28774786
1409347807439,-0.7404069,-13.335704,3.9791632,-1.2487332,-9.726818,0.0067991586
1409347807440,-0.3842694,-12.905944,4.378995,-1.1771502,-9.729906,0.33711424
1409347807441,-0.26156655,-12.060791,4.5513773,-1.0954142,-9.72368,0.64845866
1409347807469,-0.7667431,-11.921329,4.437054,-1.0231664,-9.708708,0.9297718
1409347807470,-1.9806033,-12.843097,4.138976,-1.0048966,-9.684102,1.1742046
1409347807470,-3.1064768,-13.940838,3.7140055,-1.0811347,-9.649462,1.3745602
1409347807496,-4.648941,-14.383765,1.489792,-1.2294862,-9.613472,1.4966391
1409347807497,-6.035184,-13.678074,-4.0144777,-1.4638015,-9.58175,1.4892083
1409347807500,-6.894104,-12.430097,-7.0742674,-1.770598,-9.582475,1.1006945
1409347807508,-7.203554,-12.843097,-2.8927941,-2.1101453,-9.563117,0.51428574
1409347807532,-6.4326215,-13.618219,0.29029694,-2.4264257,-9.498118,0.26189035
1409347807533,-6.827665,-14.739305,2.2182279,-2.6246228,-9.445722,0.24511692
1409347807542,-7.577648,-16.381128,7.3448124,-2.8003848,-9.390363,0.3863865
1409347807563,-5.9561753,-17.551294,14.119804,-2.9588394,-9.309125,0.869412
1409347807564,-4.087501,-15.94239,12.713211,-2.9568338,-9.307764,0.89053255
1409347807569,-2.303222,-13.439253,1.1976994,-2.8834782,-9.080709,2.3230743
1409347807592,-1.3449428,-12.949638,-4.0503907,-2.8594573,-9.107371,2.2471468
1409347807593,-1.2779051,-13.968371,-3.525462,-2.793576,-9.20389,1.9117403
1409347807613,-0.7404069,-15.225925,-2.641403,-2.669904,-9.300792,1.5928848
1409347807613,-0.28909984,-14.713567,-5.281609,-2.469723,-9.401714,1.2956208
1409347807621,-0.046088383,-12.555792,-7.229292,-2.2754567,-9.503936,0.81724405
1409347807629,-0.6171055,-12.6222315,-7.591415,-2.1143723,-9.572536,0.25766954
1409347807652,-0.7206547,-13.444041,-7.6829934,-2.0015826,-9.595404,-0.30379066
1409347807653,0.17178397,-15.92204,-7.0395517,-1.8870957,-9.59009,-0.79967505
1409347807662,1.7172412,-19.49718,-4.9224787,-1.7105411,-9.586157,-1.1619097
1409347807684,5.5683146,-19.608511,1.0618285,-1.435914,-9.614456,-1.2925789
1409347807685,8.639477,-19.608511,5.856816,-0.9311884,-9.708748,-1.0215163
1409347807689,5.4114943,-16.530167,1.1881226,-1.1972668,-9.70815,-0.69910634
1409347807719,1.7914615,-13.2908125,-4.59567,0.1897057,-9.79827,-0.35823244
1409347807720,-0.581791,-12.74673,-8.124723,0.33073652,-9.78207,-0.6100094
1409347807724,-1.4981717,-12.048222,-8.220491,0.32027474,-9.738461,-1.1091297
1409347807760,1.2922704,-9.953295,-6.3338604,0.22373979,-9.673932,-1.5922786
1409347807763,4.757279,-6.6403184,-6.1519012,0.2661258,-9.609944,-1.9361101
1409347807764,5.342661,-4.76087,-5.4671597,0.5268151,-9.528154,-2.2598937
1409347807765,4.534618,-4.4657845,-5.12838,0.86884314,-9.440293,-2.509267
1409347807788,2.3942018,-4.4125137,-5.6580973,1.19117,-9.344976,-2.724504
1409347807789,1.7280151,-3.7780502,-3.3931823,1.3054638,-9.229217,-3.0475745
1409347807790,1.3581109,-4.458602,-2.7766755,1.3844366,-9.153708,-3.2347121
1409347807818,0.64703304,-4.985925,-1.5999253,1.4051237,-9.103762,-3.3641615
1409347807819,-0.022146367,-4.887164,-1.7633295,1.370184,-9.108128,-3.3667538
1409347807820,0.41180268,-4.3903675,-1.5622166,1.2764423,-9.117368,-3.378561
1409347807846,1.7579426,-3.715801,-2.1547816,1.232721,-9.122357,-3.3813295
1409347807847,3.899556,-2.690484,-2.7144263,1.3489747,-9.074943,-3.4635377
1409347807848,4.787206,-1.4077905,-2.3870192,1.7386925,-8.941575,-3.632571
1409347807860,5.439028,-1.1707647,-3.0873232,2.2778585,-8.749202,-3.7991083
1409347807890,5.9238534,-1.0163386,-3.5553896,2.9001882,-8.451743,-4.0407114
1409347807892,6.8611836,-0.96187055,-3.1250317,3.5598822,-8.05656,-4.3115497
1409347807893,6.791153,-1.0498575,-3.0867245,4.308297,-7.591453,-4.4697723
1409347807922,6.9318123,-0.9020155,-3.5087025,4.97999,-7.102321,-4.5746193
1409347807923,7.9792757,-0.41180268,-3.727772,5.577278,-6.558958,-4.695152
1409347807923,8.847174,-0.2825158,-3.1842883,6.207204,-5.9067364,-4.7698503
1409347807944,9.1668,-1.1617863,-3.0364463,6.8220954,-5.258726,-4.6877723
1409347807945,9.249998,-2.9819782,-2.991555,7.2967763,-4.717214,-4.547013
1409347807949,5.905897,-9.11712,7.203554,7.6021433,-4.4163575,-4.344376
1409347807989,-16.402077,-19.608511,19.608511,7.7556515,-5.212814,-2.974363
1409347807990,-19.516933,-19.608511,12.162544,7.8923273,-4.9372325,-3.0830736
1409347807992,-19.60911,-19.608511,6.8384385,8.032613,-4.6339602,-3.1896572
1409347807993,-18.54848,-18.000206,6.1489086,8.091833,-4.4408097,-3.3123803
1409347808018,-11.848905,-7.015011,4.782418,8.041648,-4.374184,-3.5169327
1409347808019,-7.067683,-6.0238113,7.0144124,-3.6512861,-8.797457,2.33308
1409347808023,-1.6460136,-5.866991,6.3350577,-4.144114,-8.45704,2.7340748
1409347808050,2.1098902,-6.211756,5.146935,-3.9967258,-8.37375,3.174411
1409347808066,6.5786676,-9.703699,-1.525705,-3.437853,-8.437661,3.627316
1409347808068,11.346721,-16.339828,-7.033566,-2.4364398,-8.899346,3.3220184
1409347808069,9.681553,-15.502456,-6.0531406,-0.95339465,-9.512146,2.1864374
1409347808086,5.303157,-13.624804,-1.3192052,0.1441089,-9.725125,1.2536118
1409347808087,-0.6596026,-12.928689,3.3488896,0.6921562,-9.735105,0.9586691
1409347808089,-0.42916065,-10.985794,-2.4594438,0.57451606,-9.724005,1.13316
1409347808109,3.1004913,-9.450513,-6.1165867,0.503186,-9.762893,0.7765987
1409347808110,2.707842,-9.0429,-6.9886746,0.74022275,-9.777143,0.17301439
1409347808129,1.0007763,-9.024344,-4.357447,0.9372258,-9.753153,-0.40991294
1409347808130,0.7793127,-8.243835,-1.6915035,0.98602086,-9.726752,-0.7671055
1409347808142,2.4953568,-6.0244102,-0.7278373,1.016107,-9.706649,-0.9585902
1409347808162,3.4931402,-5.957372,-1.5059528,1.1968411,-9.674658,-1.0672324
1409347808163,4.1000705,-8.007407,-3.0693667,1.468971,-9.62398,-1.1796266
1409347808169,4.4436383,-10.234015,-3.99293,1.7583858,-9.543547,-1.4139316
1409347808207,4.8877625,-10.286688,-2.806603,2.035875,-9.446801,-1.6683939
1409347808208,5.0122614,-8.921394,-1.3078327,2.320072,-9.36569,-1.7525767
1409347808209,4.4161053,-8.090606,-0.89782566,2.599814,-9.303652,-1.689208
1409347808210,4.079121,-8.191162,-0.87328506,2.8125336,-9.255874,-1.6089901
1409347808231,3.8564603,-8.963293,-0.90261406,2.9813297,-9.215559,-1.5347879
1409347808232,3.4195185,-9.969456,-1.1480197,3.1013973,-9.18716,-1.4655472
1409347808241,3.0011318,-11.150395,-1.5047557,3.1325483,-9.185637,-1.4077017
1409347808271,2.4277205,-12.1044855,-1.9045875,3.0957372,-9.201824,-1.383198
1409347808272,2.0608091,-12.034455,-2.3421278,2.9795945,-9.238445,-1.3941139
1409347808272,1.8842367,-11.344326,-2.8652608,2.837322,-9.274963,-1.4474206
1409347808305,1.6873137,-10.973225,-3.016694,2.6995256,-9.299315,-1.5510365
1409347808306,1.7040731,-10.596138,-3.7750576,2.564981,-9.318141,-1.6623873
1409347808307,1.1348516,-9.83957,-4.322731,2.4475524,-9.316899,-1.837192
1409347808309,0.0053869537,-9.832388,-4.293402,2.3007019,-9.306616,-2.0649703
1409347808331,-1.697489,-9.998186,-3.1681273,2.0715857,-9.314188,-2.2638059
1409347808332,-2.1308396,-10.21546,-1.3892355,1.702964,-9.361009,-2.3752544
1409347808341,-2.9975405,-10.724827,0.1921347,1.3352709,-9.426573,-2.3509903
1409347808365,-3.6092591,-10.299257,0.08200141,0.93398446,-9.517309,-2.1723056
1409347808366,-3.4781766,-9.569624,-0.96187055,0.51648533,-9.59066,-1.9806186
1409347808369,-3.1663318,-9.869498,-2.285864,0.1452382,-9.625112,-1.8725743
1409347808413,-3.6020765,-10.794258,-2.1733365,-0.16899025,-9.619999,-1.8966906
1409347808414,-3.3423057,-10.747571,-1.246182,-0.48412764,-9.613035,-1.8776456
1409347808415,-3.0262709,-10.007165,-0.6039374,-0.7501824,-9.613247,-1.7869278
1409347808416,-2.9753942,-9.105747,-0.047285482,-0.9690604,-9.61373,-1.6755531
1409347808421,-2.6719291,-8.637681,0.36631286,-1.1762875,-9.61147,-1.5512493
1409347808448,-2.4426842,-8.525752,1.0755951,-1.3350787,-9.610855,-1.4210691
1409347808449,-2.2930467,-8.759786,1.7788919,-1.4580323,-9.617625,-1.243308
1409347808450,-2.3133974,-9.750985,2.030283,-1.5522716,-9.629615,-1.0155717
1409347808479,-2.018312,-10.585364,2.0416555,-1.6226228,-9.641621,-0.7593588
1409347808481,-1.5993267,-11.174338,2.271499,-1.648523,-9.651347,-0.55159986
1409347808482,-1.7208325,-11.7860565,2.7563248,-1.6291549,-9.664258,-0.3440636
1409347808490,-1.7980455,-12.091317,3.41473,-1.6147736,-9.672225,-0.10464053
1409347808518,-1.5292963,-11.950658,3.9282866,-1.6008333,-9.673409,0.1813105
1409347808519,-1.1282675,-11.7064495,4.2078094,-1.5710338,-9.667642,0.48881403
1409347808522,-0.94451255,-11.647791,4.0863037,-1.5221239,-9.655197,0.7941712
1409347808540,-1.091756,-11.306618,3.803788,-1.4664477,-9.638746,1.0556834
1409347808541,-1.1671734,-10.871471,3.6834793,-1.4332626,-9.619758,1.255551
1409347808554,-1.8154035,-11.369465,2.767697,-1.4079256,-9.595114,1.456685
1409347808569,-2.9484594,-12.706627,0.43873745,-1.4366604,-9.574384,1.5612773
1409347808570,-3.970185,-13.732542,-3.3506854,-1.5299461,-9.575019,1.4658325
1409347808589,-4.7536874,-14.110228,-5.094861,-1.6646912,-9.602602,1.0905238
1409347808590,-5.3103395,-13.71698,-4.597466,-1.8354061,-9.613263,0.6219623
1409347808604,-5.1319714,-12.941857,-1.0726024,-2.0329282,-9.591338,0.20933716
1409347808620,-5.514445,-12.740745,1.2114661,-2.2095466,-9.553663,0.1257628
1409347808623,-5.823297,-13.500305,1.5113398,-2.3892775,-9.509542,0.17428339
1409347808640,-5.8705826,-15.0900545,3.6457705,-2.5634398,-9.461523,0.28063247
1409347808642,-4.7901993,-17.328035,6.8587894,-2.6965005,-9.413381,0.5362234
1409347808656,-3.1842883,-18.723854,10.812814,-2.6930745,-9.379978,0.9663012
1409347808673,-2.321777,-18.029535,10.477027,-2.5671003,-9.329643,1.5931594
1409347808673,-1.4449008,-15.080478,1.9243397,-2.44693,-9.256157,2.122847
1409347808687,-1.027711,-13.146562,-1.6370354,-2.3750527,-9.275938,2.1181374
1409347808689,-1.7070658,-13.04002,-2.1529858,-2.2850542,-9.349748,1.8791231
1409347808705,-1.4490906,-14.1186075,-0.5494693,-2.2342472,-9.406252,1.6434541
1409347808721,-0.96546185,-15.300146,-2.393603,-2.135522,-9.456729,1.4765532
1409347808722,-0.08080431,-14.381969,-5.461174,-2.0154307,-9.52637,1.1647698
1409347808739,0.38486794,-12.54023,-8.058883,-1.8734084,-9.601696,0.6842139
1409347808755,-0.08439561,-12.732365,-7.1365166,-1.7193052,-9.654443,0.07794366
1409347808756,0.29029694,-15.549143,-4.76925,-1.5994997,-9.66673,-0.40784782
1409347808771,1.3347675,-19.421165,-1.1049241,-1.4440234,-9.677038,-0.66339785
1409347808772,4.212598,-19.608511,2.80361,-1.207633,-9.711391,-0.63314945
1409347808788,7.335834,-19.562424,2.5635915,-0.81342214,-9.766672,-0.34760934
1409347808790,4.9374423,-15.117588,-2.6701334,-0.26564035,-9.802517,-0.10225568
1409347808804,1.8459295,-12.0248785,-6.616975,0.07577771,-9.80406,-0.21226797
1409347808821,-0.14185645,-11.736377,-7.1849995,0.23157997,-9.785823,-0.5953408
1409347808822,-1.2395979,-11.713034,-7.717709,0.27194035,-9.748411,-1.0319564
1409347808837,0.7254431,-9.656414,-7.189788,0.20690876,-9.687912,-1.5073031
1409347808841,4.1000705,-6.022016,-6.5469446,0.2543835,-9.617059,-1.9020816
1409347808856,4.449624,-3.7134068,-7.776367,0.50428516,-9.523955,-2.2826333
1409347808871,2.8395233,-4.2000284,-7.2951326,0.78395754,-9.379476,-2.7533991
1409347808871,1.9021933,-5.1182046,-3.5422213,0.9583758,-9.2319145,-3.1660125
1409347808888,1.0067618,-5.755062,-0.41299978,1.0675775,-9.169056,-3.3104568
1409347808890,1.1803415,-5.7215433,-0.28431144,1.0749823,-9.196957,-3.229674
1409347808904,1.0995371,-5.2474914,-1.5873557,1.0720067,-9.235697,-3.1181853
1409347808920,1.7842789,-4.372411,-1.3640964,1.0729014,-9.238843,-3.1085477
1409347808923,3.0556,-3.3010056,-1.2617443,1.192373,-9.2343445,-3.0782337
1409347808937,3.875614,-2.4235306,-2.0290859,1.4711906,-9.193759,-3.07909
1409347808955,4.4927197,-1.8058267,-2.2331917,1.8581644,-9.081998,-3.199207
1409347808956,4.818331,-1.4856021,-2.956839,2.3365529,-8.913532,-3.355566
1409347808971,5.130774,-0.7978677,-3.2692823,2.8637028,-8.664786,-3.5904136
1409347808972,5.6904187,-0.42556936,-3.4243069,3.4399712,-8.323935,-3.879317
1409347808988,6.3697734,-0.34476504,-2.8592753,4.0790787,-7.88358,-4.1690087
1409347808990,6.5846534,-0.7870938,-2.9502552,4.7706666,-7.395474,-4.3264413
1409347809009,6.9587474,-0.91697925,-2.8862102,5.3962374,-6.8766537,-4.4455276
1409347809010,6.882133,-1.055843,-2.9352913,5.9830847,-6.338946,-4.4934263
1409347809022,6.7091517,-1.7782934,-2.6982653,6.4751763,-5.827948,-4.5030527
1409347809050,6.5146227,-3.3806129,-1.8321629,6.848968,-5.4351826,-4.440812
1409347809051,6.0262055,-6.8905125,1.086369,7.098331,-5.2838225,-4.226737
1409347809075,-3.17531,-17.414825,18.230051,7.187222,-5.6230965,-3.590967
1409347809088,-17.348385,-19.608511,15.258247,7.308672,-5.3864665,-3.706707
1409347809088,-19.60911,-19.608511,16.577452,7.4309754,-5.128549,-3.827401
1409347809089,-19.167978,-19.56003,10.098145,7.494151,-4.9415717,-3.9482865
1409347809090,-11.250953,-10.565014,1.7681179,7.4177394,-4.849997,-4.198225
1409347809104,-10.195708,-6.3589997,4.398747,-2.9894574,-8.83475,3.029968
1409347809119,-5.9280434,-6.2847795,6.895301,-3.7809176,-8.513334,3.0656462
1409347809122,-1.3964181,-6.9120603,5.7843914,-3.9595795,-8.299578,3.407216
1409347809136,1.2443863,-7.9475527,2.554613,-3.7140243,-8.259728,3.7620873
1409347809153,2.9370868,-8.851364,0.61411273,-3.260092,-8.428419,3.8084056
1409347809154,6.488885,-11.157578,-2.2613235,-2.6873693,-8.704108,3.6313796
1409347809169,8.2833395,-14.410102,-5.3803697,-1.7619311,-9.130055,3.1157799
1409347809170,5.5264163,-13.924677,-4.7830167,-0.70872724,-9.526875,2.2151177
1409347809187,1.3443443,-11.928512,-3.7002387,-0.045163378,-9.694205,1.4801188
1409347809194,1.353921,-13.385982,-3.4560301,0.1354894,-9.756751,0.9786972
1409347809209,1.3293805,-13.09329,-3.228581,0.27233738,-9.78765,0.54601187
1409347809210,0.28491,-12.58572,-2.6084828,0.37203044,-9.797743,0.1902496
1409347809223,-0.79966336,-12.051214,-0.86370826,0.36653513,-9.799532,-0.072436295
1409347809236,0.08319851,-10.296863,0.2908955,0.27619398,-9.801388,-0.16401684
1409347809260,2.0374656,-8.082227,0.6805518,0.2791285,-9.8008795,-0.18778877
1409347809260,3.3686419,-7.0485296,0.5734113,0.44001302,-9.794842,-0.19463351
1409347809261,4.086902,-7.181408,0.5470751,0.6910946,-9.780852,-0.1664093
1409347809270,4.0456023,-7.4567413,0.53570265,1.0155818,-9.753384,-0.102485396
1409347809297,3.3411086,-7.5800424,0.54049104,1.3500124,-9.713226,-0.033050623
1409347809298,2.915539,-7.917625,0.78888947,1.5929945,-9.676353,0.030552376
1409347809302,3.0059202,-8.59279,0.7966706,1.7820158,-9.642543,0.12721126
1409347809328,3.145981,-9.326612,0.46926352,1.9399841,-9.610162,0.22724049
1409347809329,2.9987376,-10.498574,-0.29568392,2.0678146,-9.581865,0.28705695
1409347809330,2.3517046,-11.636418,-0.91578215,2.1449108,-9.565638,0.2614134
1409347809359,1.5191209,-12.233173,-1.5795746,2.1391056,-9.568828,0.17925768
1409347809360,0.7966706,-12.196063,-2.1086931,2.0543942,-9.588917,0.050460607
1409347809362,0.39683893,-11.926117,-2.566584,1.9116204,-9.617633,-0.1314502
1409347809370,-0.25797522,-11.830948,-2.8981812,1.7457166,-9.64483,-0.3164397
1409347809393,-0.64463884,-11.3880205,-3.0017304,1.5358995,-9.672364,-0.50673723
1409347809395,-0.64823014,-10.370484,-4.3837833,1.3146038,-9.693202,-0.69574416
1409347809404,-0.5021838,-9.260174,-5.8903346,1.1192775,-9.69004,-1.0103152
1409347809431,-0.83617496,-8.531737,-4.9254713,0.95477223,-9.649776,-1.4630829
1409347809432,-1.2389994,-8.559271,-5.33069,0.78218585,-9.598439,-1.8516339
1409347809433,-2.2056582,-8.875306,-5.9519854,0.6032573,-9.519015,-2.2792158
1409347809459,-1.7890673,-8.076839,-4.8578353,0.36100656,-9.432992,-2.6568298
1409347809460,-1.6412252,-7.996035,-3.4183214,0.16421676,-9.35743,-2.9294963
1409347809465,-2.095525,-9.198523,-2.5031378,-0.0285197,-9.325699,-3.033304
1409347809471,-1.6328455,-10.349535,-1.6597804,-0.26337272,-9.331999,-3.0024698
1409347809492,-1.4454993,-10.90499,-0.37349546,-0.41574645,-9.370618,-2.8616533
1409347809493,-1.2425907,-10.842741,-0.037708677,-0.51930255,-9.43653,-2.6177497
1409347809503,-1.4185646,-10.825981,-0.3298013,-0.5741782,-9.495614,-2.3820279
1409347809538,-1.4981717,-10.476428,-0.5189432,-0.6253958,-9.53892,-2.188205
1409347809539,-1.2306197,-9.667787,-0.24839842,-0.6850345,-9.569367,-2.031829
1409347809541,-0.842759,-8.935161,0.025139118,-0.7296821,-9.59633,-1.88372
1409347809569,-0.76315176,-8.752603,0.31004912,-0.7459604,-9.621463,-1.7439556
1409347809570,-0.90021986,-9.156026,0.76315176,-0.76104486,-9.64603,-1.5954016
1409347809572,-1.0378864,-9.584588,1.3138182,-0.783148,-9.673125,-1.4098668
1409347809573,-1.1252748,-9.85633,1.7723078,-0.8107456,-9.701377,-1.1816852
1409347809608,-1.3132197,-10.1065235,2.3020248,-0.84285426,-9.72667,-0.92297876
1409347809610,-1.6071079,-10.566211,2.9334955,-0.8849343,-9.746331,-0.6295348
1409347809612,-1.9698294,-11.094132,4.160524,-0.9507398,-9.755874,-0.29904082
1409347809613,-2.280477,-11.362882,4.8739963,-1.039828,-9.750728,0.11168168
1409347809627,-2.5390508,-11.40059,4.701015,-1.1506639,-9.724073,0.537379
1409347809669,-2.7096379,-10.97502,1.881244,-1.2785487,-9.682234,0.88884795
1409347809671,-3.567959,-11.6112795,0.32022446,-1.4159286,-9.65805,0.9421418
1409347809673,-4.3478703,-12.895769,-1.2731167,-1.6028336,-9.638368,0.8385721
1409347809675,-4.0533834,-14.1629,-3.280655,-1.8036817,-9.620895,0.5962579
1409347809676,-4.563947,-14.698004,-5.033809,-1.9152094,-9.615631,0.20492987
1409347809711,-4.80636,-13.99351,-2.1266496,-2.0411136,-9.588533,-0.25354046
1409347809712,-5.029021,-13.877392,2.4546554,-2.190736,-9.551252,-0.38028586
1409347809714,-5.1104236,-13.889362,8.483255,-2.3417742,-9.522392,-0.102663085
1409347809716,-5.1840453,-13.542203,8.171411,-2.4556832,-9.476083,0.58641106
1409347809738,-5.6616883,-14.381969,6.1728506,-2.533311,-9.405975,1.1315228
1409347809738,-5.723339,-15.775395,5.5096564,-2.640565,-9.328042,1.4783211
1409347809754,-5.931635,-16.922815,7.241263,-2.7359753,-9.262844,1.6984041
1409347809754,-6.4032927,-16.177023,8.098388,-2.812106,-9.165643,2.0623918
1409347809770,-5.953781,-15.113399,2.8299465,-2.9196644,-9.046074,2.4113314
1409347809771,-5.1768627,-13.269264,-2.5617957,-3.025057,-9.019634,2.380251
1409347809787,-4.496909,-11.371261,-4.3382936,-3.1537333,-9.057094,2.04778
1409347809802,-3.5296519,-12.80838,-0.6063316,-3.2651205,-9.0998955,1.6435604
1409347809803,-2.7605145,-14.706384,-2.030283,-3.2381184,-9.137748,1.4786925
1409347809817,-1.1258733,-13.7205715,-6.2632318,-3.122331,-9.217613,1.2070904
1409347809834,0.24660277,-11.963826,-8.024167,-2.937306,-9.330541,0.6954478
1409347809834,0.7589619,-11.917139,-8.117541,-2.7302115,-9.418668,0.07099661
1409347809851,0.99898064,-12.838308,-7.668628,-2.4827104,-9.472241,-0.5321651
1409347809851,1.0666169,-16.059706,-5.873575,-2.20015,-9.500596,-1.033647
1409347809866,2.0278888,-19.474436,-3.1094694,-1.9036171,-9.530996,-1.3064176
1409347809871,5.127183,-19.608511,2.6156654,-1.5523332,-9.593812,-1.3112761
1409347809884,7.489063,-19.608511,5.565322,-1.032353,-9.707374,-0.9335551
1409347809901,3.4404678,-16.20276,1.7058687,-0.41717035,-9.788082,-0.43568802
1409347809903,0.52852005,-13.036428,-5.731719,-0.094399706,-9.803478,-0.23082595
1409347809917,-0.7918822,-11.956045,-9.694122,0.027548518,-9.791137,-0.5507184
1409347809935,-1.0474633,-11.052833,-7.5333557,0.031249417,-9.740228,-1.1390146
1409347809935,-0.5267244,-10.071808,-2.8963854,-0.024896834,-9.676664,-1.5912124
1409347809950,0.91099375,-9.181764,-1.8297687,-0.092868544,-9.65128,-1.7362562
1409347809951,2.705448,-7.747637,-4.6962266,-0.07689707,-9.644154,-1.7761633
1409347809966,4.219182,-6.1423244,-8.0924015,0.095666505,-9.6022625,-1.9894215
1409347809972,4.043208,-5.0876784,-5.9561753,0.4213334,-9.483632,-2.4604018
1409347809985,2.8670566,-4.757279,-4.4544125,0.7254076,-9.382196,-2.7601714
1409347810001,2.1751323,-4.610634,-2.3810337,0.91640073,-9.294077,-2.9917789
1409347810004,1.0366893,-4.1706996,-1.8992004,1.0270855,-9.249733,-3.0915878
1409347810024,-0.017956512,-4.144363,-2.9694088,1.0449721,-9.223303,-3.1637213
1409347810025,0.88046765,-4.244321,-2.1170728,0.96584433,-9.173767,-3.3285968
1409347810031,2.0572178,-4.018069,-1.8734628,0.9921166,-9.146276,-3.3958466
1409347810050,2.4229321,-3.6445735,-2.3505075,1.1556447,-9.112587,-3.43448
1409347810051,3.027468,-3.2495303,-1.3844471,1.3754246,-9.043806,-3.5338597
1409347810067,3.5936968,-2.7617116,-1.5783775,1.6894977,-8.990149,-3.53458
1409347810071,4.184466,-2.3768437,-2.695871,2.083007,-8.893195,-3.569674
1409347810090,5.155315,-1.903989,-3.2866404,2.54632,-8.69844,-3.7448354
1409347810091,5.8508306,-1.4389153,-3.8708255,3.1407347,-8.395478,-3.9777014
1409347810102,6.63553,-1.1019313,-4.5082817,3.8006108,-7.974466,-4.258365
1409347810124,7.0646906,-1.2234371,-4.9745526,4.4924,-7.4262524,-4.56503
1409347810125,6.688801,-1.6777369,-4.6818614,5.109319,-6.8353834,-4.831439
1409347810131,6.717531,-2.8060043,-4.1252093,5.576126,-6.3171034,-5.017112
1409347810156,7.2262993,-5.7059813,-1.1713632,5.940534,-5.9502597,-5.047262
1409347810157,2.7886465,-15.975311,19.021334,6.2603154,-5.972153,-4.616519
1409347810163,-12.706627,-19.608511,19.608511,6.3708253,-5.776674,-4.713066
1409347810173,-19.60911,-19.608511,19.595942,6.49045,-5.5378914,-4.834896
1409347810200,-19.60911,-19.608511,11.112088,6.5544095,-5.3687034,-4.9383316
1409347810201,-14.252084,-17.42859,3.0699651,6.407472,-5.28182,-5.217
1409347810203,-5.089474,-9.467272,5.12838,6.165986,-5.2176766,-5.561189
1409347810229,-4.279037,-6.6103907,6.4583592,-2.7731824,-8.817661,3.2754688
1409347810230,-1.0049661,-5.7802014,5.844845,-3.1142058,-8.644259,3.427666
1409347810232,1.7729063,-5.4881086,3.7846344,-2.9748154,-8.563531,3.739892
1409347810265,2.6737247,-5.363012,1.4161704,-2.5747263,-8.585331,3.9791038
1409347810266,5.531803,-6.929418,0.89662856,-2.1430113,-8.701442,3.9828146
1409347810267,8.416816,-12.965799,-2.6030958,-1.389296,-8.914522,3.8433752
1409347810273,6.873753,-14.103045,-3.7750576,-0.3436682,-9.2878895,3.1284788
1409347810292,3.7882257,-12.708423,-4.2185836,0.4038272,-9.517501,2.329058
1409347810293,1.9261353,-13.157934,-5.391144,0.76974463,-9.633824,1.6635154
1409347810305,2.1098902,-14.820707,-6.0226145,0.9156509,-9.713121,0.9936007
1409347810320,1.2964603,-14.913483,-4.920683,1.0197053,-9.747721,0.33547172
1409347810339,-0.32561144,-13.264476,-3.5164838,1.0061542,-9.753912,-0.13870996
1409347810340,-0.9540894,-10.991181,-1.5179238,0.8674945,-9.758242,-0.44112873
1409347810343,-0.1340753,-9.47206,-0.5859809,0.70472676,-9.76589,-0.54876786
1409347810351,1.4155718,-8.785523,-0.7769185,0.6350528,-9.766663,-0.61598146
1409347810375,2.5103204,-8.51857,-1.3054385,0.6990796,-9.757102,-0.69328976
1409347810376,2.938284,-8.573038,-1.6980876,0.85420305,-9.738644,-0.7743144
1409347810383,2.6839,-8.431181,-1.8285716,1.0511174,-9.711625,-0.8659721
1409347810407,2.2541409,-7.77517,-1.5370775,1.2333483,-9.680469,-0.9683938
1409347810408,2.392406,-7.4585366,-0.9983821,1.3761318,-9.654031,-1.037472
1409347810411,2.6300306,-8.088212,-0.84575176,1.521246,-9.631883,-1.0406979
1409347810444,2.5073278,-8.836999,-0.7445967,1.6617445,-9.609757,-1.0303239
1409347810445,2.231396,-9.622895,-0.6512229,1.7751552,-9.59362,-0.99078625
1409347810446,2.0446482,-10.323798,-0.84934306,1.8424721,-9.585333,-0.9471359
1409347810451,1.8626889,-11.077373,-1.3718776,1.8730515,-9.581714,-0.9235048
1409347810472,1.513734,-11.786655,-2.0488381,1.8652751,-9.58143,-0.9419927
1409347810473,1.1917139,-11.81359,-2.6599581,1.814013,-9.584557,-1.0079887
1409347810485,0.95588505,-11.46224,-2.920926,1.7359153,-9.586606,-1.1198148
1409347810505,0.62847793,-11.234792,-2.8018146,1.6441565,-9.586606,-1.2506583
1409347810506,0.51834464,-10.543466,-2.694674,1.528088,-9.589298,-1.3713865
1409347810511,0.32680854,-9.89344,-2.7006595,1.4239169,-9.590383,-1.4722259
1409347810545,-0.19632454,-9.090784,-3.502717,1.3051945,-9.589125,-1.58604
1409347810546,-1.6232687,-9.285912,-1.8237832,1.1492517,-9.574024,-1.7854058
1409347810547,-2.4366987,-9.470863,-1.3485341,0.8783742,-9.592864,-1.8373382
1409347810552,-3.5404258,-9.760562,-1.1911154,0.5594155,-9.61001,-1.8722119
1409347810572,-3.3452983,-8.928576,-0.5566519,0.16992344,-9.626369,-1.8639994
1409347810573,-3.1681273,-8.775947,-0.6835446,-0.15511107,-9.644363,-1.7699212
1409347810583,-3.2956185,-9.738416,-1.3515269,-0.46062285,-9.6496105,-1.6861832
1409347810602,-3.3399115,-10.231023,-1.7399861,-0.74114627,-9.639371,-1.6442648
1409347810625,-3.0909145,-10.365098,-1.2198458,-0.9814234,-9.622125,-1.6192385
1409347810625,-2.7150247,-10.245388,-0.79008657,-1.1684201,-9.612727,-1.5494103
1409347810626,-2.3211784,-9.890448,-0.415394,-1.3098726,-9.606496,-1.4730408
1409347810631,-1.8614918,-9.674969,-0.22325931,-1.4082997,-9.604168,-1.3953655
1409347810655,-1.7316064,-9.706094,-0.10175357,-1.4559184,-9.607801,-1.319418
1409347810655,-1.8806454,-9.868899,0.14305355,-1.4814085,-9.616057,-1.2277029
1409347810665,-1.8363527,-10.197504,0.45010993,-1.5128944,-9.622293,-1.1371167
1409347810688,-1.745373,-10.842142,0.7116765,-1.5289325,-9.632183,-1.0265566
1409347810689,-1.3084313,-11.133038,1.1450269,-1.5299165,-9.645061,-0.895861
1409347810692,-1.0079589,-11.267113,2.168548,-1.4932953,-9.664495,-0.7334803
1409347810703,-0.6787562,-11.174936,3.406949,-1.4365625,-9.688701,-0.48555708
1409347810724,-0.39923313,-10.973225,4.23654,-1.3583205,-9.710923,-0.15272446
1409347810726,-0.492607,-11.1414175,3.9246953,-1.2619228,-9.722683,0.21772681
1409347810732,-0.7032967,-10.69011,3.2561142,-1.1913173,-9.72139,0.49572074
1409347810754,-0.9947908,-9.683349,2.5971103,-1.1563547,-9.714786,0.6753937
1409347810755,-2.078167,-9.750386,1.7651252,-1.1582628,-9.704421,0.8080951
1409347810763,-4.3394904,-12.063784,1.282095,-1.2488494,-9.686619,0.883264
1409347810785,-5.616797,-14.426262,3.6774938,-1.4945585,-9.650452,0.8974618
1409347810788,-6.019023,-14.579492,3.3028011,-1.793302,-9.576431,1.1164371
1409347810807,-6.192004,-13.256695,-2.4929626,-2.0861933,-9.494529,1.293115
1409347810808,-5.312135,-11.532271,-3.6721067,-2.3484573,-9.471883,0.96880704
1409347810812,-5.0266266,-11.711836,0.12868834,-2.5594015,-9.447677,0.6010305
1409347810839,-5.5778913,-12.704233,2.6210523,-2.7005873,-9.411343,0.55121815
1409347810841,-6.3141084,-13.608044,2.777274,-2.8128445,-9.367553,0.71221364
1409347810845,-6.583456,-15.343841,2.6593595,-2.9407213,-9.312704,0.8922417
1409347810852,-5.8083334,-16.597803,6.83784,-3.0596557,-9.260528,1.0254408
1409347810881,-4.642357,-18.310854,10.289082,-3.0815294,-9.202948,1.4072411
1409347810883,-4.3119574,-17.350182,5.6999955,-2.9769278,-9.144954,1.9178406
1409347810885,-3.2429461,-14.059351,-1.3569138,-2.9262712,-9.123472,2.090359
1409347810922,-2.9921536,-13.329718,-3.8337154,-2.9359565,-9.167783,1.8714433
1409347810923,-2.3122003,-13.454815,-1.8249803,-2.9371629,-9.230506,1.5301129
1409347810924,-1.4700398,-14.568717,-2.112883,-2.858464,-9.286848,1.3244057
1409347810925,-0.7134721,-14.009072,-5.1918263,-2.7066407,-9.364434,1.0732348
1409347810932,-0.16101007,-12.266692,-6.985682,-2.5469854,-9.449977,0.61739075
1409347810955,-0.006584055,-11.707646,-7.581838,-2.3820722,-9.512661,0.07342764
1409347810957,-0.046088383,-11.936293,-6.9168487,-2.2100773,-9.543612,-0.45322952
1409347810990,-0.37110126,-14.0473795,-6.0645127,-2.0436199,-9.549013,-0.90021163
1409347810992,2.9945478,-19.608511,1.039682,-1.8972926,-9.544864,-1.2108874
1409347810994,8.528147,-19.608511,5.521628,-1.4791703,-9.648135,-0.9465321
1409347810995,8.503007,-18.391659,3.1064768,-1.7603184,-9.623754,-0.67456806
1409347811024,4.098873,-13.811551,-3.8349125,-0.08886486,-9.805245,-0.14023557
1409347811026,1.8046296,-12.552799,-8.441956,0.22795098,-9.797671,-0.35222003
1409347811027,0.64463884,-11.519701,-9.105747,0.3556246,-9.7625885,-0.8577759
1409347811033,0.46028528,-10.191518,-5.473145,0.43111268,-9.697608,-1.3931729
1409347811073,1.7459716,-9.123106,-3.5631707,0.4602977,-9.647162,-1.7002217
1409347811074,3.3441012,-7.9451585,-4.103063,0.5267365,-9.609786,-1.8828082
1409347811075,4.4155064,-6.489484,-3.268684,0.6850515,-9.557355,-2.087599
1409347811076,3.6697125,-6.0543375,-3.675698,0.9487518,-9.505402,-2.2175622
1409347811086,3.4883518,-6.1955953,-5.407305,1.1906503,-9.442934,-2.363
1409347811122,2.7210102,-6.167464,-5.6060233,1.4208373,-9.341723,-2.623696
1409347811124,2.891597,-5.959168,-2.3169887,1.5682611,-9.23453,-2.9042106
1409347811125,1.9752164,-5.8879404,-2.4744074,1.7201614,-9.200979,-2.9246266
1409347811126,1.1827357,-5.2887917,-1.6777369,1.7634509,-9.165716,-3.0083618
1409347811132,1.2324153,-4.6004586,-1.0672154,1.7442671,-9.159083,-3.0395904
1409347811154,1.9129672,-3.5523968,-1.7423803,1.7681487,-9.164361,-3.0097418
1409347811155,2.421735,-2.4361002,-2.2571337,1.8875504,-9.120441,-3.0700347
1409347811165,2.854487,-1.7004818,-2.2068555,2.0883777,-9.025054,-3.2183027
1409347811189,3.4835634,-1.0552444,-2.3259668,2.3684886,-8.896707,-3.377765
1409347811190,4.3957543,-0.15083471,-2.6503813,2.7557611,-8.705181,-3.57715
1409347811192,4.947618,0.5363012,-3.2010477,3.2953627,-8.399894,-3.840935
1409347811223,5.403115,0.94451255,-3.5164838,3.9236178,-7.9529767,-4.186381
1409347811224,5.3115363,1.0360907,-3.9199066,4.605131,-7.3667436,-4.5490904
1409347811224,4.7524905,0.7015011,-4.018069,5.2218127,-6.6880913,-4.9165573
1409347811234,4.2437224,0.09876082,-3.2782607,5.677138,-6.0310745,-5.250395
1409347811248,3.2902317,-1.9973627,-2.1990743,6.0160675,-5.5077147,-5.444484
1409347811271,3.6643257,-4.575918,-0.6985083,6.138846,-5.3968287,-5.418417
1409347811271,3.3836055,-11.14441,12.1840925,6.2249103,-5.651027,-5.048444
1409347811272,-12.215816,-19.604921,19.608511,6.284594,-7.1264157,-2.4266152
1409347811284,-19.60911,-19.608511,19.331383,6.4020314,-6.9472127,-2.6307075
1409347811298,-19.60911,-19.608511,11.545439,6.5067353,-6.772913,-2.8214276
1409347811316,-15.588049,-18.042105,4.2317514,6.502542,-6.6658473,-3.0747056
1409347811317,-10.242993,-10.636241,4.5938745,6.429251,-6.6456656,-3.2665362
1409347811331,-6.367379,-7.351995,6.2805896,-3.940088,-8.39839,3.1801176
1409347811332,-1.3760674,-6.6624646,5.449203,-4.1523867,-8.2024975,3.4127889
1409347811347,1.762731,-7.8996687,4.385579,-3.9463043,-8.18143,3.6961157
1409347811382,5.979519,-10.247183,3.5003228,-3.4518478,-8.303016,3.913449
1409347811383,11.097125,-16.86775,0.6051345,-2.5329244,-8.596234,3.982395
1409347811383,9.586384,-18.637064,-3.3542767,-1.1308979,-9.072689,3.5465136
1409347811403,4.7387238,-14.7716255,-3.454833,-0.09829174,-9.415904,2.738882
1409347811404,-0.85532856,-11.877635,0.22565351,0.3450307,-9.565783,2.1324072
1409347811405,-2.2188265,-11.225215,-1.1881226,0.24045916,-9.608386,1.9471734
1409347811412,0.6793547,-10.210671,-5.769428,0.034751873,-9.665033,1.6602169
1409347811429,1.8052281,-8.628104,-2.9981391,0.09147008,-9.751675,1.0328835
1409347811432,2.2014685,-8.828619,-1.3311762,0.24313436,-9.77593,0.7365046
1409347811446,4.0563765,-8.455123,-0.89543146,0.43414328,-9.781331,0.5544985
1409347811460,4.9063177,-8.866327,-1.5143325,0.8010808,-9.767581,0.35073242
1409347811464,5.1319714,-9.653421,-1.8776526,1.2012516,-9.732134,0.11385376
1409347811486,4.812944,-10.283096,-1.9087774,1.5765785,-9.678725,-0.08433014
1409347811487,4.63278,-9.722255,-1.6950948,1.8831054,-9.620612,-0.2610317
1409347811493,4.19105,-8.425795,-1.1881226,2.1628659,-9.5570545,-0.3938415
1409347811521,3.5817258,-7.6333137,-0.82480246,2.3901484,-9.499905,-0.45758188
1409347811522,3.0855274,-7.7081323,-0.40581718,2.5493014,-9.456988,-0.48665714
1409347811525,2.5995045,-8.409035,-0.3645172,2.6515193,-9.429276,-0.47812605
1409347811533,2.256535,-9.529521,-0.6159084,2.6925216,-9.418373,-0.46368718
1409347811553,1.9093759,-10.93791,-1.1737574,2.6734664,-9.423468,-0.47035074
1409347811554,1.192911,-12.4702,-1.9422961,2.5842478,-9.445131,-0.53059626
1409347811566,0.3333926,-13.137584,-2.3505075,2.4095414,-9.484541,-0.6387468
1409347811588,-0.15263036,-12.232575,-2.2643163,2.1641116,-9.534719,-0.7590467
1409347811589,-0.08020575,-10.207679,-1.8243817,1.9135503,-9.580386,-0.8514333
1409347811593,-0.16699557,-8.711303,-1.5586253,1.7154585,-9.613464,-0.89941204
1409347811618,-0.7978677,-8.552687,-2.3780408,1.5400676,-9.640274,-0.9293659
1409347811619,-0.842759,-8.365341,-4.794389,1.3226898,-9.66117,-1.0405062
1409347811626,0.34715924,-7.888296,-10.979211,1.1130744,-9.642709,-1.3962924
1409347811633,-2.4534583,-9.400833,-12.220604,0.9982031,-9.478233,-2.3102095
1409347811647,-5.385158,-11.063606,-9.712678,0.6053455,-9.246075,-3.2115514
1409347811666,-4.848857,-9.680356,-6.839636,0.013900077,-9.037435,-3.807221
1409347811669,-3.2070332,-7.714118,-2.7724855,-0.4001748,-8.863952,-4.17619
1409347811686,-3.4153287,-7.9714947,-1.5939398,-0.65686494,-8.843081,-4.187937
1409347811687,-3.663727,-10.096349,-1.3958195,-0.95673627,-8.902419,-4.0002465
1409347811693,-3.2345665,-11.810597,-2.067393,-1.2066917,-9.002103,-3.698167
1409347811720,-2.472612,-12.064383,-1.4706384,-1.3459883,-9.074564,-3.46569
1409347811721,-1.7136499,-11.973403,-0.5327099,-1.4094197,-9.155235,-3.219563
1409347811724,-1.4718355,-12.279262,-0.4237737,-1.4039071,-9.242311,-2.962962
1409347811732,-1.5885528,-12.479776,-0.48003745,-1.378836,-9.318694,-2.7260149
1409347811748,-1.6956934,-12.116456,-0.03232172,-1.3659202,-9.380994,-2.5102978
1409347811769,-1.8632874,-11.751939,0.58897364,-1.3713781,-9.435165,-2.2950697
1409347811770,-1.8567034,-11.6747265,1.4131776,-1.4035507,-9.483666,-2.0641034
1409347811773,-1.7687165,-11.729793,3.6721067,-1.4411379,-9.533801,-1.7888948
1409347811800,-1.804031,-11.51611,8.130111,-1.4595903,-9.605547,-1.3317186
1409347811801,-2.0626047,-12.244546,9.989208,-1.4928838,-9.677277,-0.5403876
1409347811815,-1.7794905,-12.807183,10.562619,-1.5183017,-9.683825,0.297825
1409347811816,1.1767502,-11.48738,18.351557,-1.511225,-9.635054,1.0258266
1409347811837,1.525705,-11.944673,15.589845,-1.3352543,-9.435863,2.3134367
1409347811838,-1.7483658,-11.719019,-1.2198458,-1.1976708,-9.160099,3.290682
1409347811845,-3.2788591,-10.742783,-8.965088,-1.2680448,-9.204894,3.1356616
1409347811867,-3.70383,-10.600328,-9.099164,-1.3761849,-9.433924,2.2972994
1409347811868,-3.550601,-10.703877,-6.2488666,-1.4930896,-9.58157,1.4610145
1409347811873,-4.590882,-12.671911,-3.41473,-1.5738595,-9.646436,0.7997873
1409347811901,-6.6163764,-13.396157,-0.59495914,-1.741683,-9.641471,0.42305532
1409347811908,-7.2071457,-14.008474,-1.1294646,-2.0608156,-9.581631,0.34028935
1409347811909,-6.175245,-12.693459,-1.4838065,-2.3790188,-9.511692,0.19581191
1409347811913,-4.4208937,-12.033856,2.6018987,-2.6155753,-9.4514065,0.006990297
1409347811956,-3.774459,-14.076709,9.386468,-2.7059593,-9.424647,0.15554653
1409347811957,-4.0414124,-16.109985,11.818976,-2.6835082,-9.39652,0.821338
1409347811958,-3.9719806,-17.642273,10.857705,-2.6377323,-9.310188,1.5915929
1409347811959,-4.1174283,-19.032707,7.269395,-2.5826962,-9.208081,2.1705592
1409347811965,-3.6858735,-17.685968,0.4213795,-2.562315,-9.144542,2.4458754
1409347811987,-2.4145525,-14.734516,-2.8275523,-2.5695443,-9.1821165,2.2927222
1409347811988,-1.7818847,-13.754689,-1.1623849,-2.5322876,-9.268192,1.9643122
1409347811993,-1.513734,-13.341689,-2.2200236,-2.4456387,-9.336288,1.738654
1409347812020,-0.84096336,-11.874043,-6.417658,-2.3282542,-9.412133,1.4701602
1409347812021,-0.19273324,-10.064027,-8.295909,-2.2078047,-9.510053,0.92460316
1409347812025,-0.5494693,-10.853515,-7.117363,-2.0956967,-9.576066,0.2782289
1409347812033,-0.78410107,-11.753735,-5.9082913,-2.0127432,-9.59361,-0.28619888
1409347812051,-1.151611,-12.942456,-5.928642,-1.9178815,-9.590896,-0.71192896
1409347812053,-1.1426327,-16.42123,-6.155493,-1.8380227,-9.574853,-1.05557
1409347812065,-0.26276365,-19.58038,-4.050989,-1.7360227,-9.560428,-1.3247119
1409347812085,1.9548657,-19.608511,3.3464954,-1.5644162,-9.582098,-1.3807191
1409347812086,4.1024647,-19.608511,6.1884127,-1.2634376,-9.677675,-0.9574498
1409347812093,3.0550013,-17.14847,0.57640404,-0.8424501,-9.761864,-0.4082605
1409347812121,1.3730747,-13.318345,-6.0525417,-0.530209,-9.788334,-0.2789397
1409347812122,0.1340753,-12.361263,-9.201516,-0.339955,-9.781387,-0.61584175
1409347812126,-0.5674258,-11.900379,-7.0742674,-0.23431087,-9.733343,-1.1736884
1409347812155,0.7930793,-10.895413,-2.3199813,-0.21777971,-9.674815,-1.587728
1409347812156,2.7844565,-9.703101,-0.99299514,-0.17867811,-9.661505,-1.6714679
1409347812157,4.4418426,-8.536526,-2.1559787,-0.011877777,-9.670247,-1.6299025
1409347812168,4.8799815,-7.6045833,-5.6215854,0.26563948,-9.660686,-1.6646278
1409347812188,4.6495395,-6.518214,-6.821679,0.6027926,-9.595995,-1.9297459
1409347812189,3.7630866,-6.0920463,-4.5807066,0.9432237,-9.489329,-2.2876487
1409347812193,2.8095956,-5.6156,-1.7513585,1.193201,-9.403628,-2.513654
1409347812219,1.8136078,-4.7656584,-0.83497787,1.3433855,-9.368434,-2.5686884
1409347812220,1.2108675,-3.739743,-1.7118542,1.4105958,-9.358694,-2.5681689
1409347812226,0.9540894,-3.4207156,-2.7150247,1.4411652,-9.330873,-2.6510897
1409347812243,1.292869,-3.2650926,-3.5446155,1.4605567,-9.278228,-2.8198645
1409347812245,1.0576386,-3.2477345,-2.5863364,1.5281208,-9.187626,-3.0696595
1409347812269,1.7543513,-2.861071,-1.4383167,1.5811775,-9.125571,-3.2240095
1409347812270,2.9783869,-2.2331917,-1.596334,1.7316611,-9.080076,-3.2747464
1409347812273,3.7481227,-1.7304093,-2.4558525,2.0436182,-8.981077,-3.3666468
1409347812301,4.7381253,-1.3449428,-2.678513,2.4751165,-8.794331,-3.5642574
1409347812302,5.5042696,-0.82719666,-3.181894,3.059378,-8.518822,-3.7736318
1409347812306,5.758055,-0.9528923,-3.145981,3.7353022,-8.122665,-4.029912
1409347812313,7.080253,-1.7417817,-2.8048072,4.3775535,-7.676142,-4.252564
1409347812330,7.767389,-1.8830396,-2.6360161,5.097549,-7.1902695,-4.2994723
1409347812348,7.3843164,-2.586935,-2.8263552,5.782393,-6.6767893,-4.260844
1409347812349,6.937798,-3.5488055,-3.2112231,6.2618656,-6.2588043,-4.21744
1409347812367,6.559514,-5.0385976,-3.8522706,6.55359,-5.9683437,-4.1952047
1409347812373,4.7363296,-11.502942,4.408922,6.6607885,-5.8391366,-4.2081776
1409347812374,-8.761581,-19.608511,19.608511,6.51715,-6.6409287,-3.097613
1409347812400,-19.071611,-19.608511,19.608511,6.66289,-6.4241357,-3.2414124
1409347812400,-19.60911,-19.608511,16.985065,6.828782,-6.168335,-3.389657
1409347812406,-19.194315,-18.935143,5.036802,6.938128,-5.983722,-3.4968321
1409347812413,-9.677363,-6.0728927,3.870227,6.862314,-5.9102564,-3.761372
1409347812427,-2.8868086,0.04129998,6.2530565,-3.215016,-8.635687,3.3554392
1409347812440,-3.7313633,-2.9053638,4.5154643,-3.688203,-8.323114,3.6459994
1409347812444,0.17238252,-5.73112,1.2072762,-3.890179,-8.156602,3.8087747
1409347812458,6.129156,-14.426262,-3.9594111,-3.5187407,-8.335206,3.783279
1409347812477,11.124659,-19.608511,-4.6363716,-2.4585366,-8.988136,3.0560412
1409347812477,10.688315,-17.263391,-1.5382746,-2.5536206,-8.9678,3.0377557
1409347812491,8.483255,-10.869676,3.1358056,0.20182723,-9.651024,1.7284085
1409347812493,1.3581109,-9.646837,7.9062524,0.9993068,-9.579086,1.8473943
1409347812507,-0.96426475,-9.622895,-3.5098996,1.0723552,-9.451502,2.3852825
1409347812513,-1.8908207,-9.841965,-10.041881,0.91297734,-9.586061,1.8558828
1409347812526,-2.0290859,-8.602366,-6.783372,0.6595269,-9.753272,0.7804332
1409347812541,-0.31124622,-6.8438253,-3.0364463,0.4205663,-9.797288,0.08157763
1409347812545,1.30484,-5.9651537,-1.8231846,0.38498396,-9.796524,-0.22425182
1409347812556,2.3762453,-5.981314,-2.2152352,0.48318583,-9.785898,-0.41610944
1409347812564,2.391209,-6.965331,-2.5785553,0.69138753,-9.761222,-0.6410177
1409347812574,1.9841946,-8.508394,-3.157952,0.9102863,-9.724466,-0.88121295
1409347812589,1.5981296,-9.7563715,-3.5122938,1.0737851,-9.678856,-1.1563339
1409347812593,1.6418238,-10.157999,-3.3632548,1.1655124,-9.631526,-1.4302853
1409347812605,2.3319526,-10.092757,-2.8443117,1.226321,-9.591573,-1.6334792
1409347812613,2.5809495,-10.024523,-2.0284874,1.3391428,-9.553177,-1.7646325
1409347812625,2.5025394,-10.323199,-1.3174095,1.4570458,-9.530227,-1.7950562
1409347812641,2.2427685,-10.679337,-0.9564836,1.5544451,-9.523373,-1.7491438
1409347812646,2.1051018,-11.073781,-0.92655605,1.6198132,-9.528059,-1.6621366
1409347812656,2.297835,-11.394605,-1.3509283,1.6633608,-9.536973,-1.5651621
1409347812673,2.7665,-11.291654,-2.5725696,1.7158164,-9.537576,-1.5036639
1409347812673,2.855684,-11.195886,-3.9109285,1.8072213,-9.512012,-1.5575551
1409347812691,2.3014264,-11.455657,-4.83928,1.8856543,-9.465166,-1.7393531
1409347812693,1.3994108,-11.65677,-4.741118,1.9106834,-9.415703,-1.9657612
1409347812708,0.6099229,-11.422736,-3.6613328,1.8348652,-9.385778,-2.1704538
1409347812713,0.39504328,-10.469246,-2.9293058,1.6815175,-9.388782,-2.2789557
1409347812725,-0.717662,-9.829993,-1.3575124,1.515532,-9.401254,-2.3430777
1409347812739,-1.5688007,-9.415198,-0.30166942,1.2768178,-9.448196,-2.2960265
1409347812745,-1.9015948,-9.0016,0.3866636,1.0097954,-9.509667,-2.1718466
1409347812757,-2.1990743,-8.985439,0.5626374,0.75529903,-9.575497,-1.9773225
1409347812774,-2.6641479,-9.564238,0.44232875,0.49684012,-9.634715,-1.7594962
1409347812775,-2.6635494,-9.96766,-0.98700964,0.19065322,-9.680099,-1.5587656
1409347812788,-2.3870192,-9.773131,-2.8299465,-0.07933365,-9.691577,-1.4958214
1409347812793,-2.552219,-9.668385,-3.044826,-0.29637307,-9.6682825,-1.6145862
1409347812805,-2.7551277,-9.425373,-1.8142064,-0.5125848,-9.635021,-1.7532963
1409347812813,-2.753332,-9.109938,-0.85891986,-0.73095894,-9.614286,-1.7893063
1409347812827,-2.582745,-9.015367,-0.28491,-0.93625885,-9.603217,-1.7527275
1409347812838,-2.19249,-8.780735,0.2112883,-1.1108599,-9.60315,-1.6480092
1409347812845,-1.9207484,-8.683769,0.6003461,-1.2314147,-9.608926,-1.523986
1409347812859,-1.7495629,-9.009979,0.80205756,-1.3145267,-9.621189,-1.3693606
1409347812876,-1.6837224,-9.412804,0.8858546,-1.3642557,-9.637064,-1.1984148
1409347812877,-1.3599066,-9.8916445,1.5316905,-1.3955729,-9.652652,-1.0242466
1409347812892,-1.5873557,-10.832565,1.4562732,-1.3889544,-9.675367,-0.79273504
1409347812893,-1.6316484,-11.720216,1.0815806,-1.3960844,-9.688955,-0.5878128
1409347812908,-1.1115081,-11.903373,1.6071079,-1.397017,-9.696688,-0.43931088
1409347812913,-0.5291186,-11.774684,2.3882163,-1.3464111,-9.710157,-0.26541328
1409347812925,-0.2220622,-11.823765,3.0142999,-1.2622963,-9.725001,-0.0366881
1409347812948,-0.3609259,-11.750143,3.0657754,-1.158777,-9.735728,0.20788638
1409347812948,-0.93613285,-11.476007,2.6042929,-1.0719547,-9.738786,0.42115095
1409347812953,-1.9524715,-11.334749,2.6928782,-1.043461,-9.734374,0.56879944
1409347812972,-2.891597,-11.868656,3.8666358,-1.1119611,-9.716718,0.72062665
1409347812973,-4.6519337,-13.130401,3.8708255,-1.26182,-9.676887,0.96750474
1409347812991,-6.5206084,-13.693038,1.8124107,-1.529234,-9.617114,1.1588463
1409347812993,-7.5788455,-13.259089,-0.7098808,-1.8993329,-9.547065,1.1901667
1409347813007,-7.1664443,-12.523471,-1.091756,-2.2928014,-9.47564,1.0609815
1409347813013,-6.855198,-13.238738,0.46986207,-2.6106634,-9.407594,0.9230454
1409347813026,-6.7283053,-13.4979105,0.9367314,-2.8340037,-9.346993,0.87892807
1409347813038,-6.693589,-14.020445,1.6783354,-2.993565,-9.298791,0.86106914
1409347813045,-7.569867,-15.061923,4.687248,-3.1336417,-9.248172,0.906649
1409347813056,-9.229648,-16.162058,11.61547,-3.3060822,-9.160117,1.154325
1409347813074,-8.002619,-16.317083,10.599131,-3.495396,-8.9814825,1.8126177
1409347813075,-5.3683987,-14.991294,0.1400608,-3.5815928,-8.832193,2.3097506
1409347813089,-4.2491093,-13.778631,-6.6163764,-3.6265044,-8.86002,2.1257763
1409347813093,-4.2251673,-13.071743,-5.9867015,-3.6633928,-8.962923,1.5543419
1409347813112,-3.6212301,-13.512276,-4.0318356,-3.6520762,-9.0394745,1.0585932
1409347813113,-2.6180596,-14.052168,-5.7760115,-3.5654964,-9.10632,0.72975457
1409347813127,-1.3329718,-13.054385,-7.4932528,-3.4301686,-9.182066,0.3065689
1409347813139,-0.41838676,-11.969213,-7.092224,-3.2497091,-9.25035,-0.20208968
1409347813146,-0.41060558,-12.214619,-6.8091097,-3.0555906,-9.293738,-0.6783628
1409347813159,-0.29747957,-13.475165,-6.5720835,-2.861381,-9.317434,-1.0808681
1409347813174,-0.006584055,-16.844406,-5.659893,-2.6476235,-9.336979,-1.4075878
1409347813174,0.7182605,-19.608511,-3.9019501,-2.3872178,-9.376992,-1.5948744
1409347813193,3.8762126,-19.608511,1.9123687,-2.0746727,-9.449312,-1.6051702
1409347813194,7.2340803,-19.608511,1.4862007,-1.5932802,-9.596453,-1.2409523
1409347813210,4.693234,-13.416508,-4.68246,-0.9263658,-9.714643,-0.9684856
1409347813214,1.8602947,-12.572552,-9.356541,-0.5181553,-9.721394,-1.1816934
1409347813225,0.41958386,-11.505336,-8.441956,-0.24853784,-9.658608,-1.6792473
1409347813239,0.9504981,-9.920973,-4.2880154,-0.075891696,-9.577724,-2.1051996
1409347813256,2.943671,-7.723695,-2.3463178,0.037427377,-9.537404,-2.2818658
1409347813257,4.2060137,-5.6616883,-1.3479356,0.18907909,-9.518406,-2.352569
1409347813274,4.95899,-5.1571107,-3.3243492,0.4078433,-9.507265,-2.369806
1409347813275,4.4238863,-5.3408656,-4.9494133,0.7405684,-9.448998,-2.5176113
1409347813292,2.6767175,-5.4432178,-3.140594,1.0742186,-9.34841,-2.7610996
1409347813294,1.1701661,-5.158906,-4.1276035,1.254665,-9.302748,-2.838145
1409347813308,0.2885013,-4.8775873,-3.8911762,1.2918966,-9.238395,-3.0254703
1409347813314,0.6721721,-5.2049947,-2.0883424,1.2116026,-9.176799,-3.2386365
1409347813326,1.423353,-5.34326,-1.5945383,1.1700864,-9.162164,-3.2948546
1409347813341,1.5771804,-4.947618,-2.4121583,1.2258233,-9.155923,-3.291932
1409347813345,1.6280571,-4.1491513,-1.8776526,1.3083012,-9.1207695,-3.3571262
1409347813358,2.348712,-3.3279405,-2.0524294,1.4152324,-9.096282,-3.380112
1409347813376,3.1310172,-2.4911668,-3.2016463,1.6086166,-9.03491,-3.4573348
1409347813377,3.9815574,-1.6130934,-2.782661,1.9125946,-8.882524,-3.6896029
1409347813392,5.134964,-1.1917139,-2.3403323,2.346645,-8.679299,-3.9157834
1409347813394,6.1926026,-0.85413146,-3.2920272,2.9644172,-8.411154,-4.0786204
1409347813408,6.652888,-0.20829555,-4.5118732,3.695182,-7.9879966,-4.325269
1409347813425,6.5379663,0.22325931,-4.4179006,4.425499,-7.386844,-4.6925364
1409347813427,6.5026517,0.33997664,-3.4919431,5.1025815,-6.720737,-4.9965734
1409347813439,6.2351,-0.5758055,-2.405574,5.742844,-6.081579,-5.1190333
1409347813446,6.172252,-2.2014685,-1.5376761,6.2496233,-5.6022387,-5.0722327
1409347813454,5.3660045,-5.0427876,1.2605472,6.6482368,-5.351084,-4.830863
1409347813470,4.245518,-10.274118,10.635044,6.887736,-5.590592,-4.1802874
1409347813474,-5.410896,-18.96507,19.604921,6.905067,-6.638578,-2.1023073
1409347813492,-19.139847,-19.608511,19.49778,7.0410285,-6.449405,-2.235946
1409347813494,-19.60911,-19.608511,17.073051,7.1791835,-6.256182,-2.3430526
1409347813506,-17.694946,-19.536686,6.047155,7.2206883,-6.117485,-2.5706859
1409347813520,-8.200739,-12.079945,3.8552632,7.1847773,-6.0228324,-2.8766065
1409347813525,-5.01705,-5.327099,5.697003,-2.8336983,-8.622152,3.7147024
1409347813540,-2.408567,-3.493739,5.5084596,-3.2851202,-8.412161,3.822818
1409347813558,0.22565351,-5.2899885,3.3171666,-3.3246067,-8.251613,4.1265326
1409347813559,3.4901476,-6.513426,1.3060371,-3.0345826,-8.285418,4.2794323
1409347813575,5.507262,-6.947375,2.3588872,-2.4627013,-8.496924,4.2317553
1409347813576,7.9691005,-10.097546,1.2180501,-1.6593665,-8.684275,4.242673
1409347813590,7.314286,-14.053964,-2.641403,-0.5848165,-8.946771,3.9728668
1409347813594,4.780622,-14.450204,-4.56275,0.2574556,-9.267594,3.1962166
1409347813608,1.2910733,-12.791621,-4.6662993,0.72575027,-9.494883,2.3432589
1409347813622,-1.638831,-12.93647,-3.6056678,0.7787353,-9.638372,1.6327158
1409347813626,-1.8686744,-15.394118,-2.6521769,0.5334489,-9.733067,1.0738918
1409347813640,-0.272939,-15.043966,-2.5079262,0.29091215,-9.780261,0.6574714
1409347813656,-0.10354923,-10.401609,-0.60932434,0.22241336,-9.797724,0.35432783
1409347813657,1.2258313,-8.522759,-0.74998367,0.18812779,-9.801342,0.2621563
1409347813671,2.891597,-7.240066,-0.96187055,0.2888444,-9.801192,0.15351416
1409347813674,3.9869444,-7.047931,-1.5239093,0.5411606,-9.791708,0.0041015903
1409347813688,4.3873744,-8.209119,-2.1272483,0.8757465,-9.766266,-0.15330197
1409347813694,4.0701427,-8.854955,-2.432509,1.227728,-9.723537,-0.3404168
1409347813706,3.614646,-8.693346,-2.473809,1.5362462,-9.670004,-0.548997
1409347813721,3.550601,-8.524555,-2.3301568,1.785365,-9.614004,-0.74416476
1409347813728,3.6314054,-8.75799,-1.6262615,2.0002167,-9.558016,-0.9021441
1409347813739,3.316568,-9.036914,-0.908001,2.1863556,-9.510651,-0.968378
1409347813756,2.710835,-9.816227,-0.6859388,2.3114157,-9.4813175,-0.9655898
1409347813756,2.2290018,-10.931925,-0.93493575,2.3613021,-9.473665,-0.9188766
1409347813774,1.8806454,-11.793838,-1.4083891,2.339642,-9.480001,-0.90887547
1409347813774,1.6992847,-12.055404,-1.6089035,2.272084,-9.493305,-0.9408523
1409347813788,1.46585,-11.715427,-1.5921441,2.1865857,-9.509192,-0.98209906
1409347813794,1.4975731,-10.685921,-1.3299791,2.0915723,-9.526827,-1.0174861
1409347813810,1.536479,-9.724648,-1.1055226,2.0248442,-9.539424,-1.0342957
1409347813821,1.1450269,-9.435549,-1.483208,1.9848564,-9.546973,-1.0421271
1409347813826,0.676362,-9.673173,-1.7459716,1.9189624,-9.556193,-1.0803461
1409347813838,0.16938977,-10.107122,-1.3509283,1.8163892,-9.569904,-1.1349329
1409347813856,0.014963761,-10.022727,-1.2120646,1.6702528,-9.595934,-1.1395926
1409347813857,-0.110731825,-9.5492735,-2.553416,1.5150563,-9.622161,-1.1353589
1409347813872,-1.7399861,-9.864111,-3.5338416,1.3521907,-9.629564,-1.2702187
1409347813874,-3.5954924,-10.396821,-3.6589386,1.0431501,-9.635267,-1.4979484
1409347813888,-3.8055837,-10.016742,-3.7427359,0.5938737,-9.634151,-1.7322949
1409347813895,-3.916914,-9.932345,-4.338892,0.18957944,-9.61208,-1.9345255
1409347813908,-4.1934443,-9.948506,-4.0743327,-0.21510172,-9.557459,-2.1861207
1409347813921,-3.9264908,-9.633071,-2.8257565,-0.6020427,-9.498115,-2.3651123
1409347813929,-3.8426938,-9.69532,-1.3928268,-0.92842126,-9.460868,-2.4084039
1409347813939,-3.727772,-9.671976,-0.7398083,-1.2161204,-9.450016,-2.3213458
1409347813956,-3.0603883,-9.25359,-0.19692309,-1.4599603,-9.445974,-2.1937346
1409347813957,-2.2774844,-8.868722,0.1340753,-1.6153356,-9.452896,-2.05032
1409347813973,-1.8668787,-9.039907,0.1945289,-1.6839334,-9.474514,-1.8890088
1409347813974,-1.8459295,-9.5798,0.21068975,-1.702053,-9.499434,-1.7418735
1409347813989,-2.022502,-10.248381,0.13826515,-1.6985531,-9.526474,-1.5910932
1409347813995,-2.2481554,-10.9582615,0.17178397,-1.7035397,-9.548594,-1.4466151
1409347814006,-2.0859482,-11.477803,0.31184477,-1.7272435,-9.565395,-1.3000866
