time,acc_x,acc_y,acc_z,gravity_x,gravity_y,gravity_z
1409346970448,-2.8149827,4.0054994,8.181585,-2.676329,4.246279,8.424771
1409346970448,-2.5169046,4.1934443,8.0684595,-2.6906743,4.2377334,8.424505
1409346970472,-2.166154,4.545392,8.228272,-2.7016184,4.2366915,8.421526
1409346970472,-2.1332338,4.707599,8.197148,-2.7038703,4.241211,8.418528
1409346970476,-2.4229321,4.5801077,8.197746,-2.7036564,4.2458153,8.416275
1409346970482,-2.7222073,4.402937,8.340201,-2.717139,4.244764,8.412462
1409346970497,-2.735974,4.472967,8.368334,-2.7500746,4.237868,8.405233
1409346970511,-2.8574798,4.324527,8.445546,-2.7928677,4.2302427,8.3949585
1409346970514,-3.17531,3.970185,8.313267,-2.8366005,4.220676,8.385104
1409346970529,-3.2740707,3.9522285,8.113351,-2.8784697,4.209272,8.376564
1409346970546,-3.0891187,4.200627,8.189367,-2.90863,4.1973233,8.372141
1409346970547,-2.8245595,4.361637,8.452729,-2.9235606,4.184289,8.373465
1409346970569,-2.6725276,4.353257,8.470686,-2.9260514,4.16969,8.379874
1409346970570,-2.722806,4.2413282,8.383896,-2.920058,4.1542187,8.389644
1409346970574,-2.834735,4.2054152,8.365341,-2.9110792,4.1383,8.400623
1409346970582,-2.8628666,4.18686,8.528745,-2.904708,4.122625,8.410531
1409346970598,-2.7754784,4.1258082,8.719683,-2.9001849,4.1075425,8.419466
1409346970617,-2.7868507,4.1120415,8.813655,-2.8993146,4.091772,8.427441
1409346970619,-2.8514943,4.1162314,8.717887,-2.900953,4.076079,8.434479
1409346970635,-2.8508956,4.0940847,8.605958,-2.9040895,4.0627065,8.43985
1409346970636,-2.6964695,4.0174704,8.5778265,-2.9078803,4.052752,8.44333
1409346970642,-2.5725696,3.9911342,8.567052,-2.9106755,4.0452757,8.445952
1409346970665,-2.5755625,3.9863458,8.51857,-2.9112432,4.0387177,8.4488945
1409346970666,-2.6426,3.9953241,8.412027,-2.9109795,4.033023,8.451704
1409346970677,-2.6599581,4.0276456,8.292317,-2.9106002,4.0276055,8.454418
1409346970682,-2.7527335,4.028843,8.429984,-2.9109159,4.0216255,8.457155
1409346970697,-2.8113914,3.9636009,8.59279,-2.9125228,4.012194,8.4610815
1409346970719,-2.823961,3.9282866,8.623316,-2.9147124,3.997328,8.467361
1409346970720,-2.8748376,3.9791632,8.69993,-2.914708,3.978335,8.476303
1409346970723,-2.8604724,3.9881415,8.7849245,-2.9121625,3.9590025,8.486224
1409346970774,-2.759916,3.9240966,8.733449,-2.9088154,3.9407253,8.4958725
1409346970778,-2.7012582,3.875614,8.682572,-2.9042592,3.9249187,8.504745
1409346970780,-2.6994624,3.8971617,8.693346,-2.8992345,3.9114785,8.512648
1409346970783,-2.5833437,3.90614,8.750209,-2.8942318,3.9007466,8.519272
1409346970811,-2.4438813,3.8845923,8.756194,-2.8878589,3.8921351,8.525371
1409346970824,-2.4247277,3.7762547,8.595782,-2.8798354,3.885643,8.531045
1409346970826,-2.416348,3.6978445,8.355764,-2.8747523,3.8807828,8.53497
1409346970827,-2.3540988,3.7193923,8.146272,-2.8740242,3.8770785,8.536899
1409346970829,-2.3888147,3.7553053,8.04392,-2.875447,3.8759017,8.536954
1409346970869,-2.416348,3.769072,8.098388,-2.8785248,3.8750193,8.536317
1409346970870,-2.3104045,4.008492,8.176199,-2.8820941,3.8708172,8.537019
1409346970872,-2.7060466,3.9947255,8.435969,-2.8867776,3.863484,8.538758
1409346970875,-3.156755,3.857059,8.381501,-2.8975537,3.8507955,8.540839
1409346970876,-3.417723,3.8863878,8.459911,-2.9152346,3.833718,8.542506
1409346970878,-3.525462,3.781043,8.82802,-2.9351761,3.8142407,8.544395
1409346970885,-3.3201592,3.7475243,9.0081835,-2.9546947,3.7917655,8.547671
1409346970907,-3.0071173,3.743933,9.091981,-2.9679601,3.7677116,8.55371
1409346970908,-2.801216,3.705027,9.037513,-2.9712846,3.7460449,8.562067
1409346970916,-2.6940753,3.726575,8.835203,-2.967204,3.7308922,8.570095
1409346970952,-2.569577,3.70802,8.648455,-2.9573045,3.7246706,8.576221
1409346970953,-2.5007436,3.7283707,8.469488,-2.9455392,3.7252588,8.580013
1409346970954,-2.634819,3.7325604,8.351574,-2.9371135,3.728726,8.581396
1409346970958,-2.6551697,3.7002387,8.381501,-2.9333344,3.7318714,8.581322
1409346970963,-2.581548,3.667917,8.500014,-2.9316115,3.731393,8.582118
1409346970990,-2.5462334,3.6715083,8.557475,-2.9297547,3.726083,8.585058
1409346970991,-2.6671407,3.6475663,8.578424,-2.926991,3.7164109,8.590192
1409346970995,-2.802413,3.650559,8.63828,-2.925109,3.7038755,8.596246
1409346971025,-2.8999767,3.6984432,8.742428,-2.9258494,3.690068,8.60193
1409346971026,-2.9903579,3.6924577,8.781932,-2.9287434,3.6757076,8.607091
1409346971027,-3.019687,3.6649241,8.727464,-2.9344778,3.6594856,8.612049
1409346971056,-3.0119057,3.667917,8.722675,-2.9388115,3.6442897,8.617014
1409346971057,-2.907758,3.626617,8.66701,-2.9422393,3.6295872,8.622047
1409346971058,-2.814384,3.6499605,8.610746,-2.9418826,3.6162856,8.627757
1409346971063,-2.782661,3.6804867,8.45213,-2.9367886,3.6058204,8.633871
1409346971101,-2.6874914,3.6846764,8.306683,-2.92946,3.5985718,8.639382
1409346971103,-2.56419,3.6541502,8.322844,-2.9213524,3.5943906,8.6438675
1409346971104,-2.4678235,3.57993,8.51857,-2.9130657,3.5907874,8.648161
1409346971126,-2.432509,3.5362358,8.614936,-2.9042819,3.5853326,8.653377
1409346971127,-2.4438813,3.5619736,8.702923,-2.8952138,3.5765357,8.660053
1409346971128,-2.48578,3.5942953,8.863934,-2.8868785,3.5650218,8.66758
1409346971153,-2.5498247,3.6403837,9.042301,-2.8805912,3.5518017,8.6750965
1409346971154,-2.7168205,3.691859,9.096769,-2.8778694,3.5380826,8.6816025
1409346971155,-2.918532,3.7325604,9.171588,-2.8800054,3.525041,8.686198
1409346971163,-2.9502552,3.8420951,9.102755,-2.8875375,3.5138457,8.688233
1409346971184,-3.1184478,3.739743,9.059659,-2.8983057,3.5064676,8.687629
1409346971185,-3.152565,3.6230257,8.9279785,-2.9112535,3.4996445,8.686051
1409346971198,-3.0639796,3.6589386,8.872313,-2.9232633,3.495076,8.683857
1409346971220,-2.9771898,3.7541082,8.86513,-2.9301083,3.4931417,8.682327
1409346971221,-2.995745,3.7535098,8.801085,-2.9299822,3.4936514,8.682166
1409346971223,-2.9855695,3.643975,8.690353,-2.9245598,3.4952245,8.68336
1409346971251,-2.9245174,3.5619736,8.572439,-2.917142,3.496573,8.685312
1409346971252,-2.7970262,3.5164838,8.48146,-2.9092922,3.4988663,8.687021
1409346971257,-2.654571,3.472191,8.406641,-2.9018176,3.5021443,8.688201
1409346971263,-2.6192567,3.466804,8.286332,-2.8934438,3.5073519,8.688893
1409346971293,-2.693477,3.4542346,8.249222,-2.8857923,3.5134242,8.688984
1409346971295,-2.8329391,3.4231098,8.2833395,-2.8807752,3.5183108,8.688671
1409346971296,-2.920926,3.4165258,8.394072,-2.8796418,3.520509,8.688156
1409346971320,-2.9430726,3.442862,8.516175,-2.8805242,3.5187602,8.688573
1409346971321,-2.9771898,3.4201171,8.464102,-2.8818612,3.5139627,8.690071
1409346971324,-2.9083564,3.3836055,8.397064,-2.883698,3.507552,8.692051
1409346971351,-2.7802668,3.37762,8.358757,-2.8841915,3.5007868,8.694614
1409346971352,-2.6569653,3.3530796,8.311471,-2.8816586,3.4938202,8.698256
1409346971355,-2.4797945,3.3093853,8.337808,-2.8725781,3.486016,8.704389
1409346971363,-2.345719,3.2674868,8.380304,-2.857256,3.4766119,8.713188
1409346971381,-2.2601264,3.2255883,8.406641,-2.8382814,3.4669762,8.723223
1409346971397,-2.1362264,3.204639,8.375516,-2.8195817,3.4581964,8.732767
1409346971398,-1.9117701,3.1741128,8.356362,-2.805152,3.4508708,8.740309
1409346971417,-1.8082209,3.198055,8.238448,-2.7950432,3.444936,8.745888
1409346971417,-1.7244238,3.1387985,8.23366,-2.7886398,3.4400373,8.749858
1409346971423,-1.6172832,3.0603883,8.322844,-2.7831466,3.4341662,8.753913
1409346971447,-1.4921862,2.9358897,8.383896,-2.7791522,3.4251964,8.758695
1409346971447,-1.3820529,2.7521348,8.416816,-2.7758303,3.4114997,8.765091
1409346971464,-1.270124,2.566584,8.350976,-2.7728386,3.3923318,8.773473
1409346971464,-1.1043255,2.3983915,8.082825,-2.7725134,3.3707228,8.781901
1409346971481,-0.83258367,2.3169887,7.5920134,-2.7769697,3.3515027,8.7878475
1409346971505,-0.38307226,2.273893,7.1712327,-2.7863095,3.3357494,8.790884
1409346971506,0.1436521,2.1362264,6.8839283,-2.7966352,3.3269188,8.790952
1409346971506,0.56802434,1.8501194,6.669049,-2.8089743,3.3222828,8.788771
1409346971515,0.825401,1.4987702,6.479308,-2.8215625,3.3177006,8.7864685
1409346971533,0.8038532,1.1887212,6.3739634,-2.8364682,3.3099043,8.78461
1409346971535,0.44232875,0.9792285,6.277597,-2.8606896,3.296163,8.781922
1409346971543,-0.3633201,1.0271125,6.367379,-2.9061391,3.273871,8.775335
1409346971627,-1.5514427,1.4077905,7.006033,-2.984775,3.2424877,8.760581
1409346971628,-2.7084408,1.7567455,7.539341,-3.0853593,3.202401,8.740457
1409346971629,-3.7576995,1.917157,8.012196,-3.2250855,3.1490161,8.709357
1409346971630,-4.4777555,1.9548657,8.640076,-3.3933878,3.0812855,8.669543
1409346971631,-4.848857,2.058415,9.305663,-3.5715115,3.0006466,8.62617
1409346971633,-5.000889,2.3187842,9.803658,-3.741202,2.9126084,8.584318
1409346971634,-4.979341,2.6330233,10.064027,-3.8856058,2.8265333,8.548869
1409346971635,-5.0661306,3.0232782,10.016143,-3.9988794,2.7499962,8.521554
1409346971658,-5.6179943,3.4811692,10.00896,-4.0869865,2.6829123,8.501112
1409346971659,-6.1207767,3.6565444,10.416573,-4.165667,2.6312034,8.479054
1409346971660,-6.4230447,3.7942111,10.718841,-4.2277017,2.5923953,8.460285
1409346971664,-6.7761893,4.0737343,10.760739,-4.2716103,2.571533,8.444581
1409346971693,-7.15986,4.31495,10.714052,-4.297082,2.5797577,8.429136
1409346971694,-7.107786,4.333505,10.217256,-4.3162007,2.6229975,8.405991
1409346971696,-6.7761893,4.4322658,9.03452,-4.34019,2.7024055,8.368402
1409346971711,-6.5385647,4.809353,7.9301944,-4.372396,2.8070374,8.317036
1409346971715,-6.558317,5.057751,7.4124484,-4.4131255,2.9335382,8.25161
1409346971732,-6.671443,5.0984526,7.350199,-4.453839,3.063856,8.182084
1409346971737,-6.7785835,5.227141,7.7949224,-4.4892406,3.1785722,8.118731
1409346971743,-9.762358,6.118981,7.1221514,-4.50233,3.2711809,8.074576
1409346971777,-9.327211,5.2768207,9.595961,-4.5253954,3.351207,8.028735
1409346971778,-6.1644707,4.665102,9.970653,-4.526935,3.4000204,8.007316
1409346971779,-6.5816603,5.5509567,8.173804,-4.471098,3.4377875,8.022549
1409346971811,-5.8783636,5.5204306,7.513005,-4.385713,3.4871297,8.048344
1409346971812,-4.3640313,5.0397944,6.367978,-4.284575,3.5389574,8.080135
1409346971813,-3.1381998,4.891354,5.9825115,-4.1929283,3.57301,8.113158
1409346971840,-2.2379801,4.408922,6.9665284,-4.094216,3.5621843,8.168147
1409346971841,-2.1960814,3.915717,7.805696,-3.9860272,3.4870021,8.253654
1409346971842,-2.521693,3.2794578,8.307879,-3.874547,3.350613,8.362515
1409346971844,-3.1962593,2.6461914,9.1512375,-3.7716942,3.164168,8.4813175
1409346971871,-3.6128504,1.9081788,10.062231,-3.7093637,2.9441736,8.587365
1409346971872,-4.2155905,1.4850036,10.91756,-3.7003183,2.708072,8.668586
1409346971876,-5.142745,1.0827777,11.305421,-3.7244256,2.4694884,8.7293
1409346971903,-5.41329,0.78769237,12.199057,-3.7974746,2.2458282,8.758186
1409346971905,-4.706402,0.86011696,13.050195,-3.888191,2.051385,8.766082
1409346971906,-3.4955344,1.1007342,13.144167,-3.9654188,1.9004037,8.765518
1409346971947,-2.3145945,1.1019313,12.84549,-4.000569,1.8018653,8.770354
1409346971949,-1.8058267,1.0474633,12.36246,-3.9858875,1.7521979,8.7870865
1409346971950,-1.7663223,0.91219085,11.878832,-3.9511316,1.7266556,8.807815
1409346971951,-2.3594859,0.9139865,11.64001,-3.9216855,1.7464287,8.817072
1409346971974,-3.3686419,1.2976574,11.971008,-3.9197156,1.813045,8.804492
1409346971975,-4.035427,1.8602947,11.683105,-3.9583127,1.9325864,8.761693
1409346971977,-4.795586,2.4809916,10.065224,-4.0289326,2.1126049,8.687634
1409346972002,-4.936844,2.420538,9.794081,-4.1139965,2.3594804,8.583605
1409346972003,-4.6399627,2.224812,9.820416,-4.183168,2.6626408,8.460605
1409346972004,-4.247314,2.7682958,8.015189,-4.2260756,3.011997,8.320971
1409346972038,-3.318962,3.728969,7.9391727,-4.238908,3.3827546,8.17062
1409346972039,-3.289633,5.257667,4.8428717,-4.2246027,3.784728,7.9999347
1409346972040,-3.867833,4.8698063,5.592855,-4.206432,4.2022033,7.7985773
1409346972044,-3.198055,4.0677485,5.3402667,-4.1964355,4.5810223,7.587789
1409346972079,-1.4041992,3.6816838,4.124611,-4.2021313,4.8633184,7.4067945
1409346972082,-2.0069396,4.0467997,4.420295,-4.2084727,5.041838,7.282789
1409346972083,-3.7481227,4.569334,4.4520183,-4.2127385,5.1539183,7.201413
1409346972107,-5.6042275,5.2181625,3.8420951,-4.219328,5.246475,7.1303687
1409346972108,-6.117784,5.1385555,3.5470097,-4.232387,5.3194685,7.068277
1409346972109,-5.113416,4.0581717,3.572149,-4.220274,5.3851533,7.0256534
1409346972152,-4.2119994,3.2782607,4.6339774,-4.1794863,5.4394717,7.0081677
1409346972153,-3.6834793,3.2028434,6.654085,-4.1191354,5.4707003,7.0195837
1409346972154,-3.3506854,3.5901055,7.824251,-4.05227,5.465686,7.0622797
1409346972155,-3.1771057,4.1539397,8.003218,-3.9811327,5.42939,7.130407
1409346972159,-3.1591492,4.51726,8.013991,-3.9114873,5.3782983,7.2072577
1409346972196,-3.7421372,3.6894648,7.6321163,-3.8629754,5.322313,7.2746687
1409346972198,-4.223372,3.2196028,8.277952,-3.838981,5.25044,7.339312
1409346972199,-4.088698,3.54282,9.717466,-3.8471928,5.1639285,7.396171
1409346972200,-3.5248635,3.50152,8.394072,-3.857523,5.0915456,7.4408383
1409346972214,-2.9418752,3.5470097,7.0706763,-3.8396916,5.064187,7.468679
1409346972217,-2.8078,3.41473,6.005855,-3.798173,5.0621395,7.4912624
1409346972224,-3.1346085,3.1501708,5.2199583,-3.7700918,5.0656776,7.503047
1409346972244,-3.316568,2.9532478,4.730344,-3.749621,5.0697355,7.5105605
1409346972244,-2.697667,3.2154129,3.99293,-3.7308943,5.0708957,7.519098
1409346972264,-2.6354175,3.0220811,3.6463692,-3.6992106,5.0636144,7.539632
1409346972264,-2.859874,2.5611973,3.1621418,-3.662976,5.035349,7.5761633
1409346972277,-3.080739,1.9482816,3.321955,-3.6321747,4.97592,7.630066
1409346972299,-3.2758665,1.4598645,3.603872,-3.6026855,4.876984,7.707534
1409346972300,-2.565387,1.4682442,3.9881415,-3.5594497,4.738838,7.813074
1409346972304,-1.6130934,0.94451255,3.560178,-3.4764621,4.564835,7.9527903
1409346972334,0.15502456,-0.8463503,1.8291701,-3.35019,4.3709283,8.114284
1409346972335,0.6817489,-1.2354081,3.903746,-3.196728,4.1392536,8.295655
1409346972339,0.7823054,-1.2785037,4.0402155,-3.010449,3.8554795,8.49958
1409346972345,0.35553896,-2.6551697,3.945046,-2.811825,3.495359,8.720464
1409346972372,-1.447295,-4.3993454,6.157887,-2.6012723,3.0403743,8.953205
1409346972372,-3.153762,-5.786187,6.645107,-2.411151,2.4858997,9.174805
1409346972376,-4.344279,-7.001843,7.347805,-2.276308,1.856927,9.356315
1409346972408,-4.68665,-7.2670007,8.731653,-2.141931,1.1853939,9.496176
1409346972409,-4.0078936,-6.999449,9.787497,-1.9954201,0.51200616,9.587833
1409346972410,-2.295441,-6.2979474,10.831967,-1.8100652,-0.12800239,9.637306
1409346972440,0.1352724,-5.1786585,11.642405,-1.585767,-0.7128984,9.651296
1409346972442,2.520496,-3.9468415,12.149975,-1.3417261,-1.2293572,9.63633
1409346972443,3.9995139,-3.1226375,12.51928,-1.1017672,-1.6710552,9.600212
1409346972445,4.2143936,-2.8377275,13.312959,-0.8744656,-2.0456045,9.550979
1409346972484,3.4542346,-2.19249,14.085089,-0.6629229,-2.3635669,9.494444
1409346972485,1.9249382,-1.5526398,15.085266,-0.4785652,-2.649271,9.429885
1409346972487,-0.10235212,-1.6304513,15.380352,-0.31931022,-2.8866675,9.366727
1409346972488,-1.9381063,-2.6402059,14.885949,-0.21102841,-3.0946937,9.303157
1409346972499,-3.2363622,-4.0414124,13.597869,-0.17713775,-3.2861347,9.237983
1409346972538,-3.9881415,-5.1547165,12.012308,-0.238939,-3.4647071,9.171102
1409346972539,-4.5016975,-5.6443305,10.700286,-0.40683824,-3.6240492,9.103358
1409346972540,-4.863222,-5.580884,10.046669,-0.6741638,-3.7600126,9.032065
1409346972541,-5.1265845,-5.2522798,10.1143055,-1.0166667,-3.8832982,8.947445
1409346972545,-5.6670756,-4.993706,10.731411,-1.3857597,-3.994069,8.848586
1409346972577,-6.618172,-5.1319714,11.798027,-1.8030976,-4.112614,8.718121
1409346972578,-7.7428484,-5.3875523,12.552799,-2.2678802,-4.257535,8.538178
1409346972579,-8.837597,-5.895123,12.720992,-2.7783113,-4.4321136,8.295043
1409346972606,-9.461287,-6.6415157,12.32954,-3.331575,-4.6253166,7.979814
1409346972606,-9.675568,-7.0012445,12.162544,-3.908047,-4.8125496,7.598482
1409346972607,-9.848549,-7.3178773,11.843517,-4.4835286,-4.964663,7.170807
1409346972630,-9.716867,-7.581838,11.3323555,-5.0159535,-5.086363,6.7185946
1409346972630,-9.100361,-7.3567834,10.2495775,-5.5101504,-5.1546807,6.2640147
1409346972638,-8.471883,-6.7546415,8.980651,-5.9491177,-5.162931,5.841449
1409346972648,-8.082227,-5.9651537,7.721899,-6.34401,-5.1101136,5.459915
1409346972677,-7.9116397,-5.5126495,6.739678,-6.700864,-5.00847,5.1170344
1409346972678,-8.403049,-6.0740895,6.482301,-7.024672,-4.8791885,4.797696
1409346972679,-9.3738985,-6.618172,6.4840965,-7.3134327,-4.744607,4.4914136
1409346972701,-10.481216,-6.137536,6.0489507,-7.569414,-4.611384,4.196367
1409346972702,-11.193492,-5.2756233,5.4551888,-7.8083663,-4.4750834,3.8953094
1409346972704,-10.852318,-4.4244847,4.6279917,-8.032343,-4.3302073,3.5918164
1409346972730,-9.673772,-3.7858315,3.834314,-8.246422,-4.1709137,3.281828
1409346972730,-8.22109,-3.4207156,3.38181,-8.450187,-3.9937432,2.9689627
1409346972736,-7.2646065,-3.2824504,3.3626564,-8.636617,-3.8056595,2.663868
1409346972745,-7.7081323,-2.6150668,3.733159,-8.799655,-3.617037,2.3777142
1409346972785,-8.171411,-2.2110453,3.899556,-8.937632,-3.4324431,2.123074
1409346972786,-7.941567,-2.2050598,3.9630024,-9.056065,-3.2478971,1.8998008
1409346972787,-7.465121,-2.343325,3.7241807,-9.157683,-3.07527,1.6881746
1409346972788,-7.176021,-2.6234465,3.3159695,-9.2452755,-2.909675,1.4930028
1409346972823,-7.143699,-2.5486276,2.4480712,-9.321457,-2.7505996,1.3095874
1409346972824,-6.853402,-2.5240872,1.5562311,-9.388684,-2.5980394,1.1283565
1409346972824,-6.5218053,-2.746748,1.2761095,-9.448186,-2.4521866,0.9428391
1409346972825,-6.9210386,-2.8526914,1.1540052,-9.50099,-2.3100455,0.75186235
1409346972850,-7.3711486,-2.6659436,0.84455466,-9.545408,-2.1765797,0.56400985
1409346972851,-7.5985975,-2.3810337,0.7026982,-9.581609,-2.0507107,0.39717796
1409346972857,-7.8954787,-2.2224178,1.2372037,-9.6077385,-1.949886,0.24431027
1409346972883,-8.403049,-2.4744074,1.8004397,-9.625394,-1.8730261,0.118139476
1409346972884,-9.291897,-2.791639,2.0320787,-9.636467,-1.8190173,0.010054361
1409346972885,-10.101137,-3.0813377,1.7549498,-9.641835,-1.7884634,-0.08242986
1409346972924,-10.317812,-3.3722332,1.3904326,-9.642495,-1.7785931,-0.17125615
1409346972924,-10.132261,-3.3913867,1.1839328,-9.640074,-1.778923,-0.2735019
1409346972925,-9.585187,-3.044826,1.1498153,-9.636466,-1.7768247,-0.3896534
1409346972925,-8.755595,-2.4169466,1.2030864,-9.634,-1.7608635,-0.5057833
1409346972991,-8.35337,-1.970428,1.1348516,-9.6344595,-1.7264524,-0.60576403
1409346972991,-8.65025,-1.6298528,1.027711,-9.638118,-1.6798356,-0.67470604
1409346972993,-8.995614,-1.3820529,0.58657944,-9.643541,-1.6312317,-0.7152526
1409346972994,-9.169194,-1.3108255,-0.027533319,-9.648205,-1.5891722,-0.7463567
1409346972994,-9.366715,-1.2270284,0.009576807,-9.649453,-1.5588127,-0.7928268
1409346973002,-8.869919,-0.82121116,-0.3890578,-9.646109,-1.5399362,-0.8669301
1409346973117,-7.832032,-0.0664391,-0.23582886,-9.639285,-1.5232854,-0.9665204
1409346973118,-6.8767457,0.11671733,0.27952304,-9.630858,-1.5097665,-1.0665648
1409346973119,-7.1646485,-0.74639237,0.6805518,-9.622491,-1.5026618,-1.1489474
1409346973119,-8.738836,-1.578976,-0.17657238,-9.613625,-1.5163893,-1.2038211
1409346973119,-10.275315,-2.3427265,-1.8776526,-9.59931,-1.5672323,-1.2519687
1409346973120,-11.268311,-3.4284968,-3.6128504,-9.571905,-1.6639822,-1.3342472
1409346973120,-11.51611,-4.1060557,-5.1523223,-9.525315,-1.8009006,-1.4817233
1409346973121,-10.957663,-4.0037036,-5.192425,-9.461898,-1.950681,-1.6845483
1409346973121,-9.679159,-3.4290953,-4.5244427,-9.391685,-2.0979803,-1.8881618
1409346973122,-8.206126,-2.4821887,-2.8790276,-9.3240185,-2.2231014,-2.0714445
1409346973122,-6.8168907,-1.7423803,-1.0073603,-9.26866,-2.3197143,-2.2093554
1409346973123,-5.6461263,-1.0989386,0.14664486,-9.224768,-2.3990319,-2.3062289
1409346973123,-4.855441,-0.18794483,0.8583213,-9.187007,-2.4743314,-2.3763404
1409346973124,-3.9989154,1.4024036,1.8273745,-9.150423,-2.555468,-2.430995
1409346973170,-3.3291376,1.364695,2.1410148,-9.111891,-2.6508942,-2.473177
1409346973171,-2.8652608,-0.31603462,1.5717934,-9.070814,-2.763447,-2.5008185
1409346973171,-2.712032,-2.2900538,1.163582,-9.014263,-2.9304626,-2.5151193
1409346973172,-2.3421278,-3.5511997,1.1133038,-8.939347,-3.169645,-2.4923499
1409346973207,-4.4723687,-7.3232646,3.0005333,-8.84019,-3.4832835,-2.426559
1409346973207,-7.2951326,-10.490194,3.3488896,-8.702103,-3.8886065,-2.3070624
1409346973208,-10.5704,-11.561002,-0.374094,-8.516963,-4.352389,-2.1652749
1409346973208,-10.166379,-11.3551,-2.119467,-8.2935915,-4.793764,-2.0991771
1409346973222,-8.508993,-10.494983,-4.2904096,-8.032133,-5.1989436,-2.1508682
1409346973225,-6.297349,-8.887876,-5.7903767,-7.7630844,-5.555171,-2.2460966
1409346973238,-4.231153,-6.9360023,-7.117363,-7.494452,-5.860762,-2.3780262
1409346973255,-2.9221232,-4.9757495,-7.1383123,-7.2470584,-6.119094,-2.4914281
1409346973257,-2.8508956,-3.7541082,-6.0902505,-7.031608,-6.339553,-2.556749
1409346973273,-4.225766,-4.4861355,-4.659715,-6.834547,-6.5457973,-2.5713627
1409346973290,-6.818088,-8.911818,-3.3033998,-6.6278644,-6.7644477,-2.546378
1409346973291,-10.745776,-15.329475,-4.687847,-6.3742356,-7.02518,-2.4872394
1409346973307,-9.822212,-13.900137,-4.5962687,-6.0801644,-7.309521,-2.402683
1409346973307,-7.523779,-10.899603,-2.5037365,-5.763455,-7.585175,-2.327679
1409346973322,-6.579266,-8.640674,-1.168969,-5.5299573,-7.789686,-2.2160237
1409346973325,-6.518214,-7.9714947,-0.8750807,-5.4231205,-7.911733,-2.0407476
1409346973339,-6.8623805,-8.68796,-0.40641573,-5.394233,-7.989547,-1.7999376
1409346973356,-5.683236,-7.061698,-0.7092823,-5.3887973,-8.0460005,-1.5469793
1409346973358,-3.4745853,-3.6122518,-0.76075757,-5.3798003,-8.0859785,-1.3583447
1409346973374,-2.2583308,-1.9812019,-0.34715924,-5.3625236,-8.118712,-1.2248446
1409346973377,-1.4772224,-1.2617443,-0.32800564,-5.3379393,-8.148434,-1.1312989
1409346973389,-0.985214,-1.09834,-0.051475335,-5.2692676,-8.203253,-1.0544553
1409346973406,-0.6805518,-1.110311,0.34955344,-5.1400995,-8.295048,-0.9705431
1409346973406,-0.51355624,-1.2473791,0.60812724,-4.950219,-8.419257,-0.8842045
1409346973423,-0.28909984,-1.3024458,0.6901286,-4.70976,-8.564606,-0.79753745
1409346973425,-0.11133038,-1.3365631,0.65900403,-4.4309545,-8.720377,-0.70147306
1409346973438,-0.06404489,-1.4293385,0.62608373,-4.1236844,-8.877832,-0.59138244
1409346973455,-0.15023616,-1.4879963,0.777517,-3.80025,-9.028081,-0.4714128
1409346973456,-0.11911154,-1.4496891,0.90021986,-3.4575412,-9.170339,-0.3473685
1409346973471,-0.01616086,-1.875857,-0.46208093,-3.1033645,-9.300024,-0.22150633
1409346973487,-0.39444473,-2.8233624,-1.3335704,-2.7453055,-9.413973,-0.103692435
1409346973488,-3.9857473,-9.513959,-3.056797,-4.9579635,-8.392283,-1.0763521
1409346973506,-3.8432922,-18.231846,-3.1944637,-4.618074,-8.523702,-1.4799668
1409346973506,4.253299,-19.608511,-1.021127,-3.7575622,-8.920589,-1.5729584
1409346973520,-3.2453403,-19.608511,-3.342904,-2.1864355,-9.460912,-1.3715087
1409346973525,-5.5282116,-19.608511,-0.9151836,-1.9427425,-9.508393,-1.4094688
1409346973538,-0.7398083,-15.26962,0.6901286,-1.8748868,-9.562406,-1.1025492
1409346973555,2.2816741,-5.2852,1.6448165,-1.5725518,-9.642409,-0.84937286
1409346973557,2.6910827,-2.669535,3.867833,-1.4076451,-9.679473,-0.7047855
1409346973573,2.3493104,-2.5187001,4.4322658,-1.1685181,-9.731272,-0.327588
1409346973577,2.4187422,-2.966416,3.643975,-0.8914903,-9.765209,0.12770298
1409346973590,2.5312698,-4.2281604,3.5865142,-0.6082548,-9.776835,0.46246058
1409346973607,2.4540567,-6.0884547,4.4544125,-0.2517644,-9.768724,0.82403487
1409346973607,2.4331074,-8.916007,7.076063,0.058421355,-9.723948,1.2695693
1409346973623,2.654571,-13.774441,7.9565306,0.34469557,-9.59743,1.9851717
1409346973625,2.4498668,-16.431406,3.4674027,0.5647384,-9.450493,2.5572739
1409346973641,2.8083985,-14.631565,-3.6828809,0.6512629,-9.444407,2.5591812
1409346973662,3.9360676,-10.475829,-5.4845176,0.7480741,-9.570285,2.005091
1409346973663,4.6621094,-9.228451,-5.0080714,0.9936359,-9.658193,1.3792744
1409346973665,5.0810947,-8.670003,-5.1505265,1.3363453,-9.682671,0.79402053
1409346973692,5.0014873,-8.533533,-5.04997,1.7336974,-9.650349,0.18836874
1409346973692,4.502895,-8.907627,-4.8225207,2.0787163,-9.5772085,-0.3555267
1409346973706,4.068946,-9.037513,-4.4807487,2.3434315,-9.488143,-0.808608
1409346973706,3.6774938,-8.919,-3.9671922,2.538355,-9.398878,-1.1782322
1409346973722,3.0783448,-8.754398,-3.2028434,2.6688616,-9.320548,-1.4747776
1409346973725,2.5420437,-8.91062,-2.3995886,2.7229204,-9.269796,-1.6813594
1409346973739,2.204461,-9.329007,-1.882441,2.7116582,-9.252386,-1.7918209
1409346973754,1.9865888,-9.545682,-1.483208,2.6450627,-9.26325,-1.8347324
1409346973757,1.6932992,-9.926959,-1.055843,2.576605,-9.286758,-1.8131788
1409346973774,1.3838485,-10.653001,-0.55725044,2.468477,-9.327294,-1.7545927
1409346973788,1.1683705,-11.052234,-0.24121583,2.3324418,-9.383998,-1.634227
1409346973789,0.7918822,-11.671135,0.079008654,2.1901987,-9.443239,-1.4827871
1409346973804,-0.20470424,-10.828975,0.6302736,2.0239358,-9.506886,-1.3012171
1409346973805,-1.1869255,-10.201694,1.09834,1.8090557,-9.575855,-1.0957763
1409346973821,-1.9009962,-10.5045595,1.4012065,1.5386118,-9.645237,-0.87888443
1409346973825,-2.3810337,-10.298658,1.6777369,1.2110959,-9.710157,-0.6453598
1409346973839,-2.6797101,-10.107122,1.8668787,0.86985767,-9.759169,-0.41519737
1409346973857,-2.6372132,-10.266336,1.7286136,0.5225348,-9.790775,-0.19505294
1409346973858,-2.331354,-10.366295,1.3628993,0.2060957,-9.80448,-0.011903569
1409346973870,-2.0751743,-10.419566,0.98102415,-0.05066709,-9.805763,0.12176238
1409346973884,-1.8626889,-10.4728365,0.52852005,-0.25327802,-9.800973,0.21719737
1409346973885,-1.8088194,-10.487801,0.05207389,-0.406497,-9.794452,0.27178925
1409346973901,-1.8764555,-10.517728,-0.41120413,-0.5357199,-9.788385,0.26629648
1409346973905,-1.9782091,-10.651803,-0.84216046,-0.6485554,-9.7824335,0.2318873
1409346973920,-1.8543092,-10.446501,-1.1306617,-0.75515056,-9.776314,0.1544282
1409346973927,-1.608305,-9.9473095,-1.3443443,-0.84395885,-9.770143,0.04918759
1409346973938,-1.3706805,-9.683948,-1.4862007,-0.9144439,-9.763618,-0.07702596
1409346973954,-1.0929531,-9.259575,-1.6585833,-0.9644806,-9.756788,-0.21277517
1409346973960,-0.87208796,-8.761581,-1.6340426,-0.98837364,-9.7501,-0.35923722
1409346973973,-0.7098808,-9.109339,-1.6699557,-0.9933871,-9.7436695,-0.49445832
1409346973988,-0.36272156,-9.81922,-1.7495629,-0.9750591,-9.73873,-0.613825
1409346973989,0.12569559,-10.257957,-1.7202339,-0.9203759,-9.735971,-0.73085666
1409346974003,0.45968673,-9.847352,-1.4610616,-0.8200635,-9.73704,-0.82944286
1409346974005,0.5069722,-10.063428,-1.4377182,-0.6981255,-9.740567,-0.8968562
1409346974019,0.40043023,-10.697293,-1.6567876,-0.57716686,-9.743098,-0.95356315
1409346974027,0.338181,-11.331757,-1.9901801,-0.47290862,-9.742187,-1.0181195
1409346974039,0.36750996,-11.757924,-2.3187842,-0.38546503,-9.737117,-1.1001611
1409346974054,0.3716998,-11.56998,-2.5252843,-0.30595133,-9.72861,-1.1962091
1409346974057,0.18076223,-10.394426,-2.2571337,-0.24133477,-9.716445,-1.3049358
1409346974073,-0.19153613,-9.360131,-1.821389,-0.2026105,-9.705288,-1.3916717
1409346974088,-0.207697,-9.679159,-1.6124948,-0.20296967,-9.697938,-1.4419341
1409346974089,-0.05925649,-10.296265,-1.0372878,-0.20768647,-9.695219,-1.4594446
1409346974103,-0.6027403,-9.965266,-0.83737206,-0.19949001,-9.703005,-1.4079471
1409346974106,-0.7068881,-9.882666,-0.95229375,-0.24026538,-9.711014,-1.3449442
1409346974120,-0.65900403,-10.223241,-1.1067197,-0.28477526,-9.71627,-1.2974665
1409346974140,-0.51116204,-11.097723,-1.2964603,-0.32128158,-9.719061,-1.2676888
1409346974140,-0.6727707,-10.245388,-1.1168951,-0.33746874,-9.721434,-1.2450755
1409346974153,-1.4443022,-8.812458,-0.7422025,-0.36734396,-9.723077,-1.2236072
1409346974180,-1.9153614,-8.616732,-0.6787562,-0.46901453,-9.722599,-1.1922616
1409346974181,-2.0242975,-9.537901,-0.7098808,-0.60780925,-9.718497,-1.1626488
1409346974181,-1.4921862,-10.172963,-0.62608373,-0.7468948,-9.71343,-1.1232977
1409346974186,-1.1827357,-10.147225,-0.3429694,-0.8278464,-9.713107,-1.0679848
1409346974205,-1.323395,-10.141838,-0.12749124,-0.8682325,-9.717722,-0.9911887
1409346974206,-0.5021838,-10.6715555,-0.44592008,-0.9195199,-9.721769,-0.90115273
1409346974222,0.21308395,-10.290278,-0.88645315,-0.8705083,-9.730884,-0.84999686
1409346974239,-1.1150994,-9.449316,-0.7835025,-0.75860184,-9.739889,-0.8540875
1409346974239,-1.851915,-10.357317,-1.1366472,-0.7864096,-9.737071,-0.86105263
1409346974255,-1.6699557,-10.7433815,-1.3706805,-0.8635329,-9.726647,-0.9039089
1409346974274,-1.2850877,-10.7912655,-1.3946224,-0.9252514,-9.715858,-0.95729125
1409346974275,-1.2036849,-10.851719,-1.4502877,-0.9634116,-9.708359,-0.99498355
1409346974288,-1.091756,-10.655395,-1.3694834,-0.98410076,-9.7028,-1.0284004
1409346974289,-0.8690952,-10.248979,-1.1192893,-0.9937971,-9.699488,-1.0500908
1409346974303,-0.59735334,-10.076596,-0.8972271,-0.97989136,-9.7010355,-1.0488861
1409346974306,-0.50397944,-10.26514,-0.7302315,-0.9434327,-9.706566,-1.0309888
1409346974320,-0.641646,-10.159795,-0.45549688,-0.9003578,-9.713863,-1.0003151
1409346974337,-0.581791,-10.016742,-0.24540567,-0.8732053,-9.721403,-0.94985396
1409346974339,-0.40342298,-9.849746,-0.24361002,-0.8435674,-9.730216,-0.88415295
1409346974356,-0.4770447,-9.635465,-0.40641573,-0.8025617,-9.738866,-0.8250841
1409346974357,-0.6919243,-9.884461,-0.729633,-0.77492374,-9.744525,-0.7836649
1409346974372,-0.86729956,-10.226234,-1.0342951,-0.7639,-9.746189,-0.77370447
1409346974388,-0.96187055,-10.605117,-1.3120226,-0.764858,-9.744613,-0.7923915
1409346974388,-0.8858546,-10.729615,-1.4437037,-0.7729741,-9.74043,-0.83482295
1409346974400,-0.6500258,-10.614095,-1.4526819,-0.7745675,-9.735855,-0.88518476
1409346974406,-0.45908818,-10.142437,-1.2695254,-0.7567764,-9.732704,-0.93389237
1409346974418,-0.272939,-9.552865,-0.9696517,-0.72587126,-9.7318535,-0.9667104
1409346974437,0.013766659,-9.51755,-0.79008657,-0.6845657,-9.734313,-0.9720756
1409346974439,0.15083471,-9.745598,-0.6973112,-0.61593384,-9.739779,-0.9631749
1409346974453,0.11192893,-9.791686,-0.6254852,-0.53726125,-9.746727,-0.93970907
1409346974469,0.073023155,-9.721656,-0.57999533,-0.4665686,-9.753501,-0.90660983
1409346974470,0.093373865,-9.8515415,-0.7374141,-0.4062455,-9.759554,-0.8697486
1409346974484,0.010773907,-9.9790325,-0.9151836,-0.35042396,-9.763767,-0.84644973
1409346974486,-0.15203181,-9.7563715,-1.0139444,-0.30702406,-9.7658,-0.83980685
1409346974500,-0.2220622,-9.635465,-1.0779893,-0.2860865,-9.765492,-0.8507129
1409346974506,-0.21188685,-9.953894,-1.1821371,-0.27131197,-9.764773,-0.8637133
1409346974520,-0.25019407,-10.449493,-1.3533225,-0.25659385,-9.763373,-0.8837965
1409346974534,-0.32202014,-10.603919,-1.395221,-0.24430546,-9.760828,-0.91484576
1409346974537,-0.50996494,-10.42196,-1.2443863,-0.23828766,-9.75776,-0.94854736
1409346974549,-0.98581254,-10.263344,-1.2216414,-0.25266647,-9.755462,-0.9682648
1409346974567,-1.2372037,-10.180145,-1.2401965,-0.3143379,-9.751819,-0.9867076
1409346974567,-1.335366,-9.991004,-1.340753,-0.39573157,-9.746968,-1.0051793
1409346974585,-1.3946224,-9.929952,-1.5059528,-0.48028424,-9.740422,-1.0314556
1409346974587,-1.5239093,-10.005967,-1.6400281,-0.5658515,-9.731722,-1.069479
1409346974604,-1.816002,-10.052056,-1.7328035,-0.6537369,-9.721154,-1.1145366
1409346974606,-2.099715,-10.022128,-1.7100586,-0.75700074,-9.707812,-1.1643578
1409346974619,-2.202067,-10.002377,-1.6430209,-0.87667805,-9.692168,-1.2098438
1409346974633,-2.0931308,-10.034698,-1.5777789,-0.99748075,-9.675913,-1.2458453
1409346974641,-1.9369092,-10.269928,-1.5227122,-1.101301,-9.661106,-1.2730124
1409346974651,-1.8417397,-10.67395,-1.5167267,-1.175265,-9.65051,-1.2871728
1409346974666,-1.7794905,-10.943896,-1.3545196,-1.2321023,-9.641696,-1.3000162
1409346974667,-1.6340426,-10.860099,-1.0600328,-1.272622,-9.637249,-1.2939433
1409346974683,-1.3329718,-10.5440645,-0.84814596,-1.2946339,-9.638341,-1.2635999
1409346974686,-0.9864111,-10.264542,-0.6871359,-1.2929344,-9.644105,-1.2206255
1409346974703,-0.6003461,-10.144831,-0.66259533,-1.2664582,-9.65405,-1.1686641
1409346974706,-0.19273324,-10.09156,-0.6500258,-1.2084113,-9.6673,-1.1195638
1409346974718,0.20051439,-10.119094,-0.6985083,-1.1160672,-9.683427,-1.0751805
1409346974735,0.44352585,-10.149619,-0.7577648,-0.9918707,-9.700723,-1.0404629
1409346974740,0.59136784,-10.221446,-0.84814596,-0.8551475,-9.716211,-1.0170236
1409346974756,0.7751228,-10.248979,-0.9828198,-0.7142837,-9.728785,-1.0054456
1409346974768,1.1055226,-10.208876,-1.1097125,-0.5679758,-9.738216,-1.0074347
1409346974769,1.4059949,-10.138845,-1.2024878,-0.406351,-9.74498,-1.0201228
1409346974784,1.762731,-10.286089,-1.264737,-0.23421939,-9.748512,-1.0402181
1409346974786,2.0368671,-10.814011,-1.4077905,-0.044627663,-9.748672,-1.0638579
1409346974801,2.2930467,-10.955269,-1.4532804,0.15321575,-9.744315,-1.0932884
1409346974806,2.5791538,-10.633847,-1.3239936,0.3525147,-9.735574,-1.1246166
1409346974820,2.818574,-10.207081,-1.2006922,0.5597912,-9.723475,-1.1450164
1409346974833,2.9903579,-9.996989,-0.9923966,0.769793,-9.707587,-1.1578346
1409346974838,3.1872811,-9.897031,-0.7858967,0.97791976,-9.689518,-1.1520712
1409346974850,3.3441012,-9.810242,-0.6775591,1.1861496,-9.669069,-1.128075
1409346974876,3.4518404,-9.603742,-0.5153519,1.3881141,-9.645955,-1.0950195
1409346974877,3.603872,-9.260174,-0.47046062,1.5823046,-9.6212435,-1.0480349
1409346974880,3.4871547,-8.7609825,-0.43514615,1.7785451,-9.592151,-0.99891037
1409346974886,3.1771057,-8.525752,-0.3477578,1.9526554,-9.562918,-0.9529496
1409346974902,3.0556,-8.632295,-0.5835867,2.0913477,-9.539254,-0.8940397
1409346974917,2.8245595,-8.709507,-0.92057055,2.2031107,-9.517749,-0.8538986
1409346974920,2.3852234,-8.941146,-1.2150574,2.277419,-9.5012665,-0.8424508
1409346974933,1.7675194,-9.3260145,-1.4508862,2.300242,-9.49439,-0.8578098
1409346974950,1.0127473,-9.828198,-1.4999673,2.25933,-9.500644,-0.8964243
1409346974950,0.4985925,-10.036493,-1.400608,2.142491,-9.523093,-0.9438321
1409346974968,0.15203181,-10.188525,-1.0570401,1.9785805,-9.55607,-0.9680404
1409346974968,-0.18555063,-10.46745,-0.8714894,1.7930946,-9.594338,-0.95071054
1409346974984,-0.60932434,-11.003153,-0.6667852,1.7638249,-9.608471,-0.8582704
1409346974986,-1.9273324,-11.999739,-0.43394905,1.7162486,-9.626673,-0.74297225
1409346975002,-2.6384103,-12.042834,-0.57520694,1.6260421,-9.651777,-0.60794306
1409346975020,-3.0945058,-11.632828,-0.6386533,1.5211818,-9.676658,-0.46765447
1409346975021,-3.4153287,-11.067198,-0.480636,1.4131267,-9.698805,-0.32657447
1409346975039,-4.007295,-10.820595,-0.760159,1.3075432,-9.71737,-0.1829526
1409346975053,-4.6662993,-10.897209,-1.6340426,1.1889683,-9.7341175,-0.060754474
1409346975053,-4.969764,-10.737396,-2.521693,1.0550148,-9.749725,0.01337156
1409346975068,-4.69084,-10.21965,-3.5296519,0.9202581,-9.76331,0.035975415
1409346975068,-3.9109285,-9.811439,-3.2597055,0.79680055,-9.774213,0.017005509
1409346975085,-3.0992942,-10.305841,-2.1206641,0.69261473,-9.782158,-0.009970402
1409346975087,-1.8698715,-10.394426,-1.3455414,0.60485774,-9.787891,-0.041764244
1409346975103,-1.0899603,-10.415975,-0.6536171,0.54554313,-9.791179,-0.07476704
1409346975117,-0.89423436,-10.420763,-0.30705637,0.49923965,-9.793133,-0.12523922
1409346975120,-0.8936358,-10.525509,-0.10654198,0.44547564,-9.79464,-0.19220407
1409346975134,-0.8206126,-10.714052,0.08319851,0.38490716,-9.795336,-0.2713566
1409346975151,-0.6099229,-10.623073,0.29149407,0.21595505,-9.791406,-0.5021583
1409346975151,-0.37708676,-10.410587,0.40701428,0.21595505,-9.791406,-0.5021583
1409346975168,-0.18674773,-10.255563,0.4369418,0.21595505,-9.791406,-0.5021583
1409346975169,-0.044292733,-10.171167,0.43155485,0.16771844,-9.788602,-0.5705548
1409346975185,0.053869538,-10.100538,0.39205053,0.1240933,-9.785348,-0.63401645
1409346975187,0.050876785,-10.172364,0.51714754,0.089131586,-9.782344,-0.6842522
1409346975208,0.026934769,-10.392631,0.736217,0.06406543,-9.780471,-0.7132039
1409346975209,-0.11911154,-10.712257,0.82899237,0.049372446,-9.780275,-0.7170699
1409346975220,-0.36870706,-11.092935,0.64942724,0.04148034,-9.781826,-0.69610244
1409346975236,-0.61112,-11.0935335,0.24899697,0.036678128,-9.784894,-0.65183246
1409346975251,-0.78649527,-10.748769,-0.22026655,0.035666466,-9.788897,-0.58872956
1409346975251,-1.0498575,-10.381857,-0.7667431,0.04087178,-9.793158,-0.51265085
1409346975269,-1.283292,-10.062231,-1.3485341,0.046605796,-9.796746,-0.43816245
1409346975269,-1.364695,-9.897031,-1.7699136,0.055195965,-9.799832,-0.36145195
1409346975285,-1.3455414,-10.023325,-2.0655975,0.068149775,-9.802266,-0.2851766
1409346975287,-1.2886791,-10.160992,-2.1841104,0.08362126,-9.804031,-0.21056944
1409346975301,-1.2970588,-10.301053,-2.3654714,0.099670045,-9.805155,-0.13931808
1409346975317,-1.4616601,-10.481216,-2.5743654,0.11540216,-9.80568,-0.07577304
1409346975318,-1.5939398,-10.652402,-2.6683378,0.12767226,-9.805783,-0.026561184
1409346975334,-1.6316484,-10.666168,-2.5408466,0.13749701,-9.805676,0.013381271
1409346975351,-1.6310499,-10.511144,-2.3008277,0.14404164,-9.80551,0.04059002
1409346975352,-1.602918,-10.371682,-2.0033484,0.14652587,-9.805366,0.061188716
1409346975367,-1.5155296,-10.376471,-1.6927006,0.14548692,-9.805257,0.0785055
1409346975367,-1.3383588,-10.542868,-1.3844471,0.14159946,-9.805192,0.09254929
1409346975384,-1.0839748,-10.646417,-1.0672154,0.13533825,-9.805195,0.10126397
1409346975387,-0.79487497,-10.465654,-0.82480246,0.12835701,-9.805254,0.10438154
1409346975401,-0.5363012,-10.090961,-0.6362591,0.1208246,-9.805368,0.10273293
1409346975416,-0.24660277,-9.93893,-0.5482722,0.11459391,-9.80546,0.10112748
1409346975420,-0.021547815,-9.96766,-0.50517654,0.10810341,-9.805576,0.096820794
1409346975433,0.0700304,-9.818023,-0.4758476,0.102958344,-9.805684,0.091313235
1409346975449,0.27832595,-9.46847,-0.8062474,0.09932288,-9.805762,0.08705276
1409346975450,0.53809685,-9.76116,-1.1587936,0.09761417,-9.805798,0.084821686
1409346975469,0.6338649,-10.331579,-1.4449008,0.09611666,-9.805791,0.08731129
1409346975470,0.47345337,-10.482413,-1.5047557,0.093333095,-9.805769,0.0926254
1409346975491,0.01436521,-10.301651,-1.1839328,0.087938525,-9.805768,0.09789916
1409346975491,-0.45789108,-10.062231,-0.59974754,0.07705058,-9.805805,0.103105515
1409346975499,-0.7457938,-9.809643,-0.055066638,0.06238602,-9.805905,0.10365323
1409346975525,-0.7517793,-9.455899,0.14963761,0.04697616,-9.806076,0.09519027
1409346975526,-0.4890157,-9.057863,-0.04070143,0.03185184,-9.806301,0.07653624
1409346975527,-0.18315643,-8.677185,-0.42197806,0.016203312,-9.806497,0.052355845
1409346975559,-0.01436521,-8.63828,-0.8194155,-2.3943478E-4,-9.806607,0.028777122
1409346975560,0.21906945,-8.991425,-1.1755531,-0.016880263,-9.806633,0.0073402114
1409346975561,0.5823896,-9.528324,-1.3976152,-0.030856766,-9.806589,-0.01639857
1409346975567,1.0109516,-9.998186,-1.4437037,-0.040062767,-9.80646,-0.04633423
1409346975588,1.3383588,-10.392033,-1.4377182,-0.046462405,-9.806137,-0.08887222
1409346975589,1.4203602,-10.799645,-1.429937,-0.055939768,-9.80537,-0.14814734
1409346975601,1.441908,-10.983999,-1.4879963,-0.07003698,-9.8039,-0.22148345
1409346975630,1.3784616,-11.088146,-1.5173253,-0.083581515,-9.801622,-0.30270183
1409346975631,1.2617443,-11.244369,-1.5089456,-0.0942931,-9.798645,-0.3848413
1409346975632,1.1923125,-11.497555,-1.4425066,-0.10469693,-9.795035,-0.4655187
1409346975660,1.1988965,-11.748946,-1.4754268,-0.11095117,-9.790918,-0.54407513
1409346975661,1.1821371,-11.926117,-1.5023615,-0.11381752,-9.786117,-0.62396973
1409346975662,1.1994951,-12.000338,-1.4574703,-0.11521716,-9.780402,-0.7077117
1409346975668,1.2575544,-11.825561,-1.3383588,-0.11497049,-9.773454,-0.7979751
1409346975693,1.1097125,-11.672332,-1.0935516,-0.114752315,-9.765004,-0.89551955
1409346975695,0.9708488,-11.664551,-0.8122329,-0.11915742,-9.754916,-0.99890846
1409346975701,0.9600749,-11.604097,-0.5255273,-0.12958369,-9.74329,-1.1054056
1409346975731,1.0737995,-11.146805,-0.17776948,-0.14551292,-9.730526,-1.2108372
1409346975732,1.2018893,-10.527305,0.31783026,-0.16888884,-9.716237,-1.3178072
1409346975733,1.4335283,-10.136452,0.8463503,-0.20224692,-9.700486,-1.4247841
1409346975762,1.5131354,-10.016742,1.513734,-0.24070407,-9.683855,-1.5282036
1409346975763,1.6783354,-9.8437605,3.8307228,-0.28013796,-9.667482,-1.6222494
1409346975764,2.0266917,-9.829993,8.885481,-0.3147174,-9.656084,-1.6826748
1409346975768,2.3810337,-9.627684,8.279149,-0.33516252,-9.660917,-1.6506732
1409346975794,2.4768016,-8.915408,3.9839516,-0.3406532,-9.665744,-1.6210289
1409346975795,2.006341,-8.404845,0.5710171,-0.34316346,-9.666417,-1.6164725
1409346975799,1.6101006,-7.925406,-1.0444705,-0.33158174,-9.671477,-1.5883948
1409346975830,1.2737153,-7.4830775,-1.4981717,-0.30820203,-9.681684,-1.5298458
1409346975832,0.6697779,-7.638102,-1.7363948,-0.28560588,-9.694472,-1.4512247
1409346975833,0.16879122,-8.112753,-2.3181858,-0.26769787,-9.708468,-1.3580738
1409346975860,0.22445641,-8.47727,-2.540248,-0.25126433,-9.722234,-1.2591364
1409346975861,0.52253455,-8.817246,-2.1996727,-0.23442689,-9.734872,-1.1609162
1409346975862,0.7020996,-9.363124,-1.7878702,-0.21773937,-9.746251,-1.0646833
1409346975868,0.8122329,-10.103531,-1.3599066,-0.1957368,-9.755274,-0.98320544
1409346975892,0.93732995,-10.810419,-1.1300632,-0.16775165,-9.761944,-0.92017055
1409346975893,1.1480197,-11.729194,-1.3904326,-0.13224545,-9.766658,-0.8748036
1409346975901,1.1240777,-11.742961,-1.5658079,-0.0895207,-9.769667,-0.8461584
1409346975914,1.174356,-11.478401,-1.6627731,-0.0442638,-9.771429,-0.8292151
1409346975919,1.3371617,-11.204266,-1.7555484,0.0026595746,-9.7721405,-0.82198876
1409346975931,1.5161282,-11.090541,-1.8381484,0.048758186,-9.772152,-0.8204044
1409346975955,1.7166426,-11.100118,-1.8441339,0.09377368,-9.771125,-0.82869893
1409346975956,1.7753005,-10.98759,-1.7980455,0.13501316,-9.769092,-0.8467584
1409346975960,1.7818847,-10.596737,-1.5957354,0.17029577,-9.766168,-0.873703
1409346975968,1.822586,-10.259154,-1.3838485,0.19935411,-9.762512,-0.90774906
1409346975996,1.8662802,-10.049662,-1.1713632,0.2233128,-9.758209,-0.94755983
1409346975996,1.8447324,-9.835381,-1.0073603,0.24186406,-9.753499,-0.99053985
1409346976002,1.7675194,-9.628283,-0.90979666,0.2547247,-9.748581,-1.0347183
1409346976025,1.7166426,-9.539098,-0.94451255,0.26470426,-9.743509,-1.0790559
1409346976026,1.7950528,-9.3978405,-0.83976626,0.2710884,-9.738125,-1.1251067
1409346976028,1.7992426,-9.250597,-1.021127,0.27671823,-9.732437,-1.1719718
1409346976057,1.751957,-9.145252,-1.1324574,0.28181088,-9.726063,-1.2225834
1409346976058,1.7998412,-9.052477,-1.049259,0.28724167,-9.718983,-1.2764142
1409346976062,1.6915035,-9.110536,-0.94930094,0.29569122,-9.711214,-1.3324026
1409346976068,1.4562732,-9.400234,-0.85772276,0.30665773,-9.702698,-1.390683
1409346976089,1.2563573,-9.94312,-0.84096336,0.3208312,-9.693896,-1.4476937
1409346976090,1.0785879,-10.588956,-0.88405895,0.33622402,-9.685364,-1.500366
1409346976099,0.8451532,-11.147403,-0.96426475,0.35618776,-9.67822,-1.5412928
1409346976117,0.5823896,-11.352706,-1.0295067,0.3795508,-9.673483,-1.5652753
1409346976136,0.39983168,-11.115082,-1.009156,0.40477088,-9.671727,-1.5697938
1409346976137,0.35793316,-10.656591,-0.9744401,0.42991352,-9.672835,-1.5562288
1409346976150,0.4225766,-10.320805,-0.9343372,0.45312312,-9.675763,-1.5312396
1409346976150,0.45250413,-10.224439,-0.8924387,0.47272944,-9.679098,-1.5039967
1409346976168,0.40462008,-10.398617,-0.75357497,0.48977032,-9.682077,-1.4791526
1409346976169,0.30107087,-10.623672,-0.5907693,0.5032801,-9.684061,-1.4615116
1409346976185,0.11552023,-10.669162,-0.45729253,0.51348937,-9.684822,-1.4529104
1409346976199,-0.22864626,-10.668563,-0.45908818,0.51929367,-9.684926,-1.4501476
1409346976203,-0.5614403,-10.722432,-0.45848963,0.51961833,-9.685361,-1.4471257
1409346976220,-0.78529817,-10.825383,-0.47046062,0.51567924,-9.687091,-1.4369209
1409346976221,-0.95468795,-10.881048,-0.492607,0.5079244,-9.69055,-1.4162012
1409346976228,-1.1091139,-10.670957,-0.46387658,0.4947826,-9.695068,-1.3896935
1409346976254,-1.2761095,-10.269928,-0.34835634,0.4785957,-9.70102,-1.3533503
1409346976255,-1.4335283,-9.812037,-0.24540567,0.45849314,-9.7079315,-1.310066
1409346976263,-1.5304934,-9.463681,-0.26874915,0.4387924,-9.715058,-1.2631254
1409346976269,-1.7052702,-9.464878,-0.38067806,0.42306644,-9.721926,-1.2147275
1409346976295,-1.9979613,-9.798869,-0.5243302,0.41308337,-9.728488,-1.1646014
1409346976297,-2.3199813,-10.162787,-0.65780693,0.40859163,-9.734855,-1.1117771
1409346976303,-2.545635,-10.235811,-0.7763199,0.40772682,-9.740975,-1.0571425
1409346976329,-2.5504234,-10.099341,-0.88525605,0.40585694,-9.74678,-1.0029671
1409346976330,-2.4169466,-10.113707,-1.0121487,0.40284255,-9.752248,-0.94961226
1409346976331,-2.1871033,-10.354323,-1.1228806,0.39284927,-9.757432,-0.89921945
1409346976357,-1.3060371,-10.69011,-1.2066777,0.37365678,-9.762056,-0.856178
1409346976358,-0.7745243,-10.660782,-1.2030864,0.35045186,-9.765567,-0.8254117
1409346976364,-0.2908955,-10.673351,-1.1234791,0.32056877,-9.767899,-0.80981433
1409346976372,0.1340753,-10.682329,-1.0600328,0.28728434,-9.7688055,-0.8113576
1409346976406,0.41718966,-10.681731,-0.98102415,0.25667408,-9.767956,-0.83159447
1409346976408,0.59495914,-10.602123,-0.89782566,0.2300991,-9.766098,-0.8606939
1409346976410,0.6865373,-10.526108,-0.7254431,0.2115151,-9.762252,-0.90779173
1409346976411,0.7015011,-10.45907,-0.4973954,0.20222236,-9.756435,-0.97028416
1409346976434,0.8355764,-10.255563,-0.45310268,0.20069559,-9.748929,-1.0433081
1409346976435,1.0785879,-9.94312,-0.81163436,0.20443098,-9.740424,-1.1192657
1409346976450,1.436521,-9.607931,-1.1456255,0.20875849,-9.732273,-1.1872947
1409346976451,1.8046296,-9.365519,-1.4167689,0.21029812,-9.725864,-1.2384433
1409346976465,1.9734207,-9.398438,-1.5945383,0.2130445,-9.720252,-1.2812986
1409346976468,1.9524715,-9.655815,-1.6729485,0.21286446,-9.716314,-1.3108523
1409346976482,1.827973,-10.02572,-1.8064252,0.2153747,-9.713126,-1.3338536
1409346976500,1.7723078,-10.276512,-1.9141643,0.22357085,-9.709745,-1.3569179
1409346976527,1.858499,-10.237008,-1.9195513,0.23690906,-9.705792,-1.3826897
1409346976528,1.7753005,-10.1065235,-1.7902644,0.25154695,-9.701337,-1.4110961
1409346976528,1.5167267,-10.047866,-1.6065093,0.26367226,-9.696697,-1.4404619
1409346976529,1.2384008,-9.993398,-1.4580688,0.27486995,-9.692022,-1.4695508
1409346976548,1.0516531,-9.946113,-1.3186066,0.28378215,-9.687488,-1.4974861
1409346976548,0.878672,-10.040684,-1.2270284,0.2964464,-9.683371,-1.5214605
1409346976564,0.7380127,-10.213664,-1.1121067,0.3084791,-9.680097,-1.5397964
1409346976568,0.712275,-10.366295,-1.002572,0.31772712,-9.677795,-1.5523248
1409346976581,0.7493851,-10.468048,-0.91219085,0.3232856,-9.676377,-1.5600019
1409346976596,0.7625532,-10.469246,-0.8074445,0.32372108,-9.67563,-1.5645428
1409346976602,0.79726917,-10.38904,-0.7044938,0.31891397,-9.675258,-1.5678414
1409346976613,0.80684596,-10.257359,-0.5859809,0.31212914,-9.6749115,-1.5713284
1409346976626,0.81761986,-10.116699,-0.51116204,0.30272478,-9.67417,-1.577719
1409346976628,0.7930793,-10.038888,-0.40701428,0.29157707,-9.6728325,-1.5879841
1409346976648,0.6793547,-10.059837,-0.33399114,0.2794938,-9.671071,-1.6008381
1409346976649,0.45609543,-10.056845,-0.25977087,0.26820698,-9.669123,-1.6144799
1409346976674,0.16160862,-9.993398,-0.18016368,0.25907764,-9.667594,-1.6250869
1409346976676,-0.10594343,-9.973047,-0.14784196,0.2524322,-9.667034,-1.629453
1409346976683,-0.21308395,-10.02153,-0.17717093,0.24694881,-9.667958,-1.6247984
1409346976703,-0.18794483,-10.141838,-0.33039984,0.2416507,-9.669755,-1.6148782
1409346976703,-0.18794483,-10.304645,-0.5374983,0.23558658,-9.673384,-1.5939146
1409346976708,-0.22744916,-10.450092,-0.7565677,0.22875966,-9.678627,-1.5627695
1409346976732,-0.19572599,-10.382456,-0.8774749,0.2230214,-9.684626,-1.526011
1409346976733,-5.985504E-4,-10.216658,-0.9540894,0.21953562,-9.69043,-1.489223
1409346976743,0.2825158,-10.1382475,-0.98102415,0.21684945,-9.695126,-1.4587423
1409346976749,0.5129577,-10.147225,-0.99538934,0.2131465,-9.69817,-1.4389058
1409346976767,0.65421563,-10.149021,-1.0761937,0.21140608,-9.700261,-1.4250127
1409346976784,0.7080852,-10.099341,-1.1815386,0.20869623,-9.700556,-1.4233927
1409346976785,0.7882909,-10.02572,-1.4694413,0.20792028,-9.69949,-1.4307512
1409346976804,0.7715315,-10.029311,-1.532289,0.20925942,-9.697756,-1.4422803
1409346976805,0.7541735,-10.043676,-1.5879543,0.21192485,-9.696442,-1.4506884
1409346976809,0.74998367,-10.051457,-1.685518,0.21624184,-9.695926,-1.4535011
1409346976828,0.7392098,-10.03769,-1.7399861,0.22266543,-9.696171,-1.4508944
1409346976829,0.7086837,-10.037092,-1.7417817,0.22968583,-9.697044,-1.4439324
1409346976854,0.6488287,-10.0508585,-1.6867151,0.2331462,-9.698147,-1.435966
1409346976855,0.53330845,-10.078392,-1.5951369,0.239279,-9.69932,-1.4270087
1409346976863,0.43873745,-10.084976,-1.4706384,0.24470279,-9.700304,-1.4193639
1409346976886,0.3184288,-10.107721,-1.3670892,0.24959084,-9.700954,-1.4140671
1409346976887,0.19572599,-10.157999,-1.311424,0.25296617,-9.701252,-1.4114269
1409346976889,0.12330139,-10.224439,-1.2449849,0.25437808,-9.701272,-1.4110347
1409346976918,0.12030864,-10.231023,-1.1959038,0.25456074,-9.701034,-1.4126304
1409346976919,0.142455,-10.183737,-1.1252748,0.2535466,-9.700676,-1.4152725
1409346976923,0.17118542,-10.081984,-1.06123,0.25175038,-9.69996,-1.4204893
1409346976929,0.22625206,-10.035296,-0.99898064,0.24885611,-9.698824,-1.4287378
1409346976950,0.28431144,-10.010158,-0.9648633,0.24557519,-9.697267,-1.4398291
1409346976951,0.31423897,-10.011354,-0.9103952,0.24195144,-9.695329,-1.453428
1409346976970,0.3172317,-10.024523,-0.85413146,0.2381047,-9.69325,-1.4678558
1409346976971,0.31543607,-10.014946,-0.83378077,0.23415713,-9.691217,-1.4818422
1409346976983,0.32680854,-10.044274,-0.80564886,0.23038785,-9.689358,-1.4945532
1409346977000,0.30047232,-10.063428,-0.7625532,0.22660072,-9.687629,-1.5062866
1409346977010,0.31902736,-10.064626,-0.7517793,0.22256489,-9.686207,-1.5159999
1409346977011,0.3298013,-10.10413,-0.7314286,0.21890637,-9.685074,-1.5237551
1409346977029,0.3369839,-10.137649,-0.7170634,0.21550125,-9.684225,-1.5296137
1409346977030,0.35673606,-10.200497,-0.7044938,0.21152094,-9.683613,-1.5340436
1409346977044,0.34356794,-10.187328,-0.688333,0.20673692,-9.683215,-1.5371988
1409346977049,0.29747957,-10.205285,-0.6793547,0.20060705,-9.682986,-1.5394509
1409346977061,0.24899697,-10.214263,-0.6865373,0.19297348,-9.682842,-1.5413278
1409346977078,0.17956513,-10.143036,-0.6823475,0.18452159,-9.682672,-1.5434409
1409346977084,0.14784196,-10.201694,-0.6961141,0.17518209,-9.682527,-1.5454365
1409346977109,0.16280572,-10.21127,-0.7152678,0.1654799,-9.682466,-1.5468881
1409346977111,0.28191724,-10.210073,-0.7553706,0.15574352,-9.682649,-1.5467557
1409346977112,0.48362875,-10.197504,-0.79248077,0.14680414,-9.683083,-1.544913
1409346977143,0.61112,-10.1304655,-0.8086416,0.13965836,-9.683525,-1.5428044
1409346977144,0.6548142,-10.023924,-0.7882909,0.13477029,-9.683668,-1.5423435
1409346977146,0.7290344,-10.007165,-0.7954735,0.13172376,-9.683576,-1.5431732
1409346977151,0.8206126,-10.042479,-0.8714894,0.13183014,-9.683015,-1.5466981
1409346977169,0.82719666,-10.02153,-0.99658644,0.13402152,-9.682269,-1.5511703
1409346977170,0.7565677,-9.977237,-1.1402385,0.13691285,-9.681782,-1.5539334
1409346977180,0.66379243,-10.02572,-1.2773066,0.14157121,-9.681884,-1.5528905
1409346977198,0.59495914,-10.126875,-1.3347675,0.14883476,-9.682632,-1.5475293
1409346977212,0.60214174,-10.118495,-1.359308,0.15787235,-9.683851,-1.5389912
1409346977213,0.7110779,-10.113108,-1.3599066,0.16798341,-9.685115,-1.5299455
1409346977228,0.8002619,-10.107721,-1.3425486,0.17741905,-9.6863,-1.5213494
1409346977229,0.7685388,-10.046669,-1.2264298,0.18648499,-9.686967,-1.5160078
1409346977246,0.6931214,-9.920375,-1.1528081,0.19416122,-9.686963,-1.5150758
1409346977249,0.58119243,-9.821614,-1.0995371,0.20057665,-9.686337,-1.5182387
1409346977264,0.4165911,-9.750985,-1.1121067,0.20500089,-9.68534,-1.5239924
1409346977276,0.25438392,-9.790489,-1.1282675,0.20705724,-9.684271,-1.5304908
1409346977284,0.13587095,-9.850345,-1.1647792,0.20649639,-9.683446,-1.5357851
1409346977296,0.08439561,-9.898827,-1.1755531,0.20517011,-9.682732,-1.5404508
1409346977313,-0.0011971008,-9.90601,-1.1959038,0.2025953,-9.682198,-1.54414
1409346977314,-0.065242,-9.92636,-1.18094,0.19731939,-9.681783,-1.5474256
1409346977327,-0.13946225,-9.968858,-1.1007342,0.18889731,-9.681419,-1.5507559
1409346977329,-0.18555063,-9.998785,-1.0049661,0.1778855,-9.680881,-1.5554099
1409346977344,-0.18974048,-10.020931,-0.90021986,0.16448855,-9.680064,-1.5619556
1409346977349,-0.21068975,-10.110714,-0.79966336,0.14887218,-9.679009,-1.5700316
1409346977361,-0.2172738,-10.183139,-0.7422025,0.13070728,-9.678027,-1.5776811
1409346977377,-0.20051439,-10.324396,-0.74519527,0.11123481,-9.677074,-1.5850083
1409346977382,-0.19512744,-10.419566,-0.80684596,0.08967326,-9.676343,-1.5908281
1409346977393,-0.15203181,-10.357915,-0.83737206,0.066688396,-9.675802,-1.5952421
1409346977410,-0.046088383,-10.201694,-0.8415619,0.043931495,-9.675341,-1.5988185
1409346977411,0.12868834,-10.063428,-0.80804306,0.022153087,-9.674632,-1.6035633
1409346977427,0.30945057,-9.877279,-0.7697359,0.0010413257,-9.673348,-1.6114249
1409346977429,0.5231331,-9.752182,-0.75118077,-0.019536767,-9.671208,-1.624109
1409346977445,0.7206547,-9.712678,-0.7649474,-0.037377544,-9.668567,-1.6394448
1409346977449,0.9115923,-9.67856,-0.7942764,-0.052988663,-9.665115,-1.6592628
1409346977481,1.043872,-9.615114,-0.86251116,-0.06482027,-9.661327,-1.6807641
1409346977482,1.1653777,-9.639056,-0.9498995,-0.07237375,-9.657526,-1.7021643
1409346977484,1.210269,-9.798869,-1.1013328,-0.07392974,-9.654073,-1.7215649
1409346977496,1.1683705,-10.053851,-1.2491747,-0.06922902,-9.651109,-1.7383064
1409346977515,1.033098,-10.209475,-1.3150153,-0.058401044,-9.6486845,-1.7521026
1409346977516,0.7811083,-10.107721,-1.3239936,-0.04251374,-9.646902,-1.762344
1409346977527,0.29688102,-9.927557,-1.2575544,-0.027382514,-9.645549,-1.7700416
1409346977529,-0.15083471,-9.909601,-1.1761516,-0.011615327,-9.645563,-1.7701374
1409346977543,-0.42556936,-10.098145,-1.1306617,0.004788988,-9.647755,-1.7581866
1409346977549,-0.66498953,-10.326791,-1.1133038,0.021355508,-9.652697,-1.7307161
1409346977565,-0.9504981,-10.6158905,-1.1994951,0.034802727,-9.660342,-1.687302
1409346977569,-1.2395979,-11.043256,-1.472434,0.042355333,-9.670273,-1.629247
1409346977583,-1.407192,-11.304822,-1.8321629,0.04315613,-9.681701,-1.5598782
1409346977595,-1.8201919,-11.254543,-2.143409,0.038373277,-9.693094,-1.4875597
1409346977611,-2.8179753,-11.394006,-2.558803,0.026891222,-9.704923,-1.4086043
1409346977611,-3.3596635,-11.280281,-2.658761,8.1862294E-4,-9.716308,-1.328065
1409346977627,-3.117849,-10.781689,-2.203264,-0.038316287,-9.726672,-1.2493174
1409346977629,-2.6922798,-10.178948,-1.5693992,-0.0914201,-9.735506,-1.1755824
1409346977643,-3.445855,-10.052056,-1.70946,-0.15975013,-9.741726,-1.1151928
1409346977659,-2.8904,-9.561244,-0.8822633,-0.24551469,-9.743949,-1.0796267
1409346977661,-1.7184383,-8.859145,-0.17657238,-0.32952306,-9.742139,-1.0735563
1409346977678,-1.0995371,-8.719683,0.37948096,-0.40134647,-9.738077,-1.0859147
1409346977694,-0.65182143,-8.845977,0.004189853,-0.466988,-9.729796,-1.1328602
1409346977694,0.022146367,-9.260772,-0.40821138,-0.5100278,-9.718626,-1.2077222
1409346977710,0.2220622,-9.474455,-0.79966336,-0.5279437,-9.705914,-1.2988231
1409346977711,0.35254622,-9.679159,-1.0965444,-0.52972734,-9.691274,-1.4032134
1409346977725,0.44951138,-9.942521,-1.4083891,-0.5191916,-9.673982,-1.5214885
1409346977729,0.5129577,-10.232818,-1.638831,-0.49787092,-9.652742,-1.6574394
1409346977743,0.6985083,-10.476428,-1.8477252,-0.46605596,-9.628275,-1.8026316
1409346977762,0.94570965,-10.512939,-2.0207062,-0.42586923,-9.598742,-1.9629446
1409346977764,1.2485762,-10.356119,-2.2882583,-0.37401307,-9.565211,-2.1300807
1409346977784,1.5879543,-10.156203,-2.0679917,-0.31290072,-9.529118,-2.2952924
1409346977785,1.8100165,-9.974244,-1.6472107,-0.24832653,-9.493274,-2.4467196
1409346977790,1.6968905,-10.040085,-1.0570401,-0.18545039,-9.457658,-2.586256
1409346977813,1.513734,-10.150218,-0.89303726,-0.12737522,-9.422017,-2.7165735
1409346977814,1.3180081,-10.170568,-0.5201403,-0.07395693,-9.3861685,-2.8398485
1409346977829,0.8086416,-10.195708,-0.093373865,-0.031013856,-9.351352,-2.9532464
1409346977830,0.1945289,-10.28549,0.25797522,0.009809739,-9.320587,-3.0490856
1409346977843,-0.374094,-10.390836,0.66738373,0.041720543,-9.296071,-3.1227705
1409346977864,-0.89423436,-10.370484,1.1330559,0.06530892,-9.28046,-3.1684694
1409346977865,-1.5508442,-10.342353,1.5239093,0.078297295,-9.275638,-3.1822612
1409346977879,-2.110489,-10.465654,1.6448165,0.078953125,-9.281943,-3.1638172
1409346977882,-2.223615,-10.452486,1.5107412,0.07231647,-9.298713,-3.114335
1409346977894,-2.0961237,-10.539276,1.0354922,0.06797259,-9.319234,-3.052485
1409346977910,-2.0458453,-10.8469305,0.11851298,0.06803659,-9.345829,-2.9700623
1409346977911,-2.0614076,-11.1414175,-1.3126211,0.07743366,-9.37592,-2.873416
1409346977929,-1.8201919,-11.358093,-3.3620577,0.09992752,-9.406738,-2.7701426
1409346977930,-1.8064252,-11.807006,-5.4007206,0.1354311,-9.435707,-2.66824
1409346977945,-2.0685902,-12.295423,-5.7975593,0.17281477,-9.460105,-2.578171
1409346977959,-1.6053122,-12.148179,-4.3239284,0.20155571,-9.479232,-2.5047824
1409346977961,-1.9351135,-12.211027,-2.5258827,0.22202596,-9.4924135,-2.4525936
1409346977977,-2.6629508,-12.246941,-1.4784195,0.21935295,-9.503874,-2.4080358
1409346977994,-2.8580782,-11.9297085,-1.163582,0.19744098,-9.505196,-2.4047158
1409346977995,-2.7748797,-11.595717,-1.0606314,0.16881548,-9.497476,-2.4371831
1409346978010,-2.5276785,-11.327567,-1.0342951,0.141205,-9.485894,-2.483599
1409346978011,-2.404377,-11.273099,-0.99538934,0.1142223,-9.472563,-2.5353293
1409346978027,-2.5558102,-11.480197,-0.90500826,0.09243746,-9.4582405,-2.5891237
1409346978029,-2.8933928,-11.733982,-0.57999533,0.08087796,-9.44422,-2.640185
1409346978047,-3.4171243,-11.9746,0.25857377,0.076057404,-9.431621,-2.684985
1409346978063,-4.0677485,-11.996147,2.4534583,0.07097031,-9.422489,-2.7169998
1409346978064,-4.593276,-12.056602,4.136582,0.058210783,-9.42086,-2.722935
1409346978079,-5.1140146,-12.436681,3.5033157,0.03121873,-9.422731,-2.7169058
1409346978081,-6.0968347,-13.459603,6.409278,-4.8749126E-4,-9.41444,-2.7456686
1409346978096,-6.0441623,-15.387534,19.258959,-0.028563248,-9.409574,-2.7621536
1409346978113,-3.918111,-14.458584,9.743204,0.045616966,-9.3704815,-2.891778
1409346978114,-1.8866309,-11.893197,-2.6007016,-2.7494373,-9.129752,2.2931592
1409346978128,-0.30286652,-11.770494,-1.9596541,-2.6949537,-9.215993,1.9932629
1409346978130,-0.7098808,-12.843097,-1.1965023,-2.5195658,-9.2963705,1.8438234
1409346978150,-1.8525136,-13.369223,-3.4985273,-2.284322,-9.396077,1.6327904
1409346978150,-1.6903064,-13.050794,-3.8510735,-2.1465385,-9.48994,1.2263029
1409346978164,-1.7405846,-13.145365,-3.8001966,-2.0696018,-9.549142,0.8372899
1409346978188,-0.97982705,-13.4608,-3.6092591,-2.0191352,-9.584121,0.4879738
1409346978189,-0.094570965,-13.882778,-3.645172,-1.9049176,-9.618051,0.18654168
1409346978190,1.2605472,-14.437634,-3.447052,-1.7386694,-9.650936,-0.08283515
1409346978222,3.3081882,-15.898696,-2.698864,-1.4847265,-9.688477,-0.31530786
1409346978223,6.452972,-17.68537,-2.3558946,-1.1157081,-9.731941,-0.46359724
1409346978224,8.66701,-18.287512,-1.882441,-0.5594975,-9.7747555,-0.55814594
1409346978232,6.9102645,-16.81747,-1.6328455,0.080660224,-9.788602,-0.58917457
1409346978253,3.5356374,-14.676456,-2.1254525,0.54877895,-9.772978,-0.598421
1409346978253,0.79846627,-13.681067,-3.0496144,0.78612876,-9.752985,-0.65703374
1409346978261,-1.0007763,-12.898163,-5.3887496,0.81613433,-9.740773,-0.7884717
1409346978285,-2.8909986,-12.14399,-5.4342394,0.6858491,-9.72461,-1.063936
1409346978285,-4.3795934,-11.642405,-2.183512,0.40779024,-9.705886,-1.3415961
1409346978290,-4.1240125,-10.4249525,-1.8297687,0.033699147,-9.706424,-1.3980685
1409346978321,-0.31603462,-8.356362,-2.3529017,-0.30159956,-9.6917095,-1.4663588
1409346978322,1.2569559,-7.703344,-3.067571,-0.34123453,-9.674554,-1.5674659
1409346978323,2.3187842,-7.2364745,-4.3143516,-0.23681612,-9.65512,-1.7008774
1409346978333,2.6844985,-6.2183404,-5.671864,-0.018002981,-9.614367,-1.932363
1409346978371,2.7281928,-5.303157,-4.8626237,0.22457215,-9.536432,-2.275169
1409346978372,2.0153193,-5.1810527,-3.8911762,0.43750003,-9.458074,-2.5541754
1409346978373,1.5005659,-5.1182046,-3.6661212,0.58603144,-9.392498,-2.7582524
1409346978374,1.0001777,-4.9320555,-3.132813,0.6612278,-9.3239975,-2.9658396
1409346978412,1.1845313,-4.7285485,-1.9231426,0.6963886,-9.268641,-3.126939
1409346978413,1.3700819,-4.4657845,-2.059612,0.76692575,-9.249016,-3.168269
1409346978415,2.0081367,-3.9857473,-2.417545,0.85914546,-9.218258,-3.233567
1409346978424,3.1681273,-3.4985273,-0.98222125,1.0314322,-9.159894,-3.3470676
1409346978466,4.245518,-3.044826,-0.26276365,1.3714044,-9.129836,-3.3069222
1409346978466,4.767454,-2.678513,-1.0456676,1.8620877,-9.082957,-3.1942036
1409346978467,5.0146556,-2.5103204,-2.0769699,2.4258735,-8.956336,-3.1732595
1409346978468,4.895544,-2.597709,-2.5061307,3.001469,-8.744524,-3.2703059
1409346978469,4.613028,-2.8089972,-2.5151088,3.525852,-8.494676,-3.402827
1409346978470,4.257489,-3.1381998,-2.469619,3.9627273,-8.24772,-3.5273688
1409346978500,3.8738184,-3.9641995,-1.763928,4.295599,-8.030181,-3.6379194
1409346978501,3.6284127,-5.393538,-0.6290765,4.5214944,-7.9178696,-3.6102376
1409346978502,3.0753522,-7.1867948,0.748188,4.6359987,-7.9535847,-3.379113
1409346978511,1.0079589,-9.905411,4.407127,4.6055217,-8.151738,-2.9169776
1409346978557,-3.6314054,-14.23293,11.419145,4.2214723,-8.636117,-1.9408921
1409346978560,-10.344747,-19.066824,14.900314,3.1013403,-9.303048,-0.07329495
1409346978562,-15.275605,-19.608511,12.870629,3.1694582,-9.27757,-0.22717035
1409346978566,-14.176068,-19.29906,9.344569,3.2118127,-9.258284,-0.3726064
1409346978569,-11.914146,-17.364546,4.131195,3.210422,-9.25245,-0.50572777
1409346978626,-9.202713,-15.743671,3.0352492,-2.5745933,-9.064488,2.7160459
1409346978628,-6.081272,-14.583082,2.3582888,-2.960674,-9.002936,2.5203094
1409346978631,-2.4007857,-10.901998,3.0280666,-3.075924,-9.003346,2.376729
1409346978633,-1.8980033,-8.428787,3.6379895,-2.984232,-9.014788,2.4491563
1409346978635,-0.8972271,-5.9849057,2.3732524,-2.8952496,-8.995664,2.6203005
1409346978637,0.6171055,-5.6886234,-0.24660277,-2.7838204,-9.000212,2.7234046
1409346978663,3.1196449,-10.250176,-2.2110453,-2.5802326,-9.095019,2.6064177
1409346978664,4.406528,-14.677055,-4.176685,-2.0879953,-9.324324,2.206273
1409346978665,3.4290953,-16.45475,-4.370615,-1.4628099,-9.570017,1.5637628
1409346978665,-0.39205053,-16.21533,1.1522095,-0.95568013,-9.71186,0.96791637
1409346978670,-5.395334,-16.892889,12.826936,-0.8348738,-9.727244,0.9241699
1409346978697,1.6777369,-12.587516,3.1651347,-1.1205204,-9.581774,1.7619437
1409346978698,4.507085,-11.286267,-5.804742,-0.87134707,-9.601909,1.7929081
1409346978704,3.2603042,-11.378444,-4.9045224,-0.4648951,-9.719397,1.2196747
1409346978710,3.4099417,-10.378864,-2.0398598,-0.17647623,-9.773909,0.7809939
1409346978731,4.6339774,-7.5309615,0.032920275,0.12577012,-9.790166,0.55427843
1409346978732,5.4192758,-5.4761376,0.61770403,0.52621675,-9.7810755,0.4733292
1409346978742,5.5377884,-5.217564,-0.08140286,0.9753309,-9.747438,0.45448622
1409346978768,4.423288,-6.1303535,-1.4173675,1.4263536,-9.693659,0.4109218
1409346978769,2.6839,-7.4872675,-2.7760768,1.7760218,-9.640857,0.26458734
1409346978776,2.0290859,-8.193557,-4.1677065,1.9468393,-9.611464,-0.0054673254
1409346978803,2.2894554,-8.552089,-4.8560395,2.026835,-9.586473,-0.40236384
1409346978804,2.8772318,-8.66282,-4.2078094,2.0942216,-9.543695,-0.83815765
1409346978804,3.086126,-8.803479,-2.8981812,2.1918485,-9.485666,-1.1782717
1409346978810,3.0148985,-9.52174,-2.079364,2.294848,-9.438858,-1.3461224
1409346978824,2.6791117,-10.700885,-1.7914615,2.366366,-9.408079,-1.4348406
1409346978845,2.1757307,-11.99495,-1.785476,2.3822415,-9.397088,-1.4798908
1409346978846,1.3335704,-13.315951,-1.6741456,2.3269606,-9.408708,-1.4939486
1409346978850,0.20171149,-14.112622,-1.5819688,2.1775656,-9.448225,-1.4695786
1409346978862,-0.39085343,-13.454815,-1.6496049,1.9308764,-9.508302,-1.4262791
1409346978881,-0.3549404,-11.703457,-1.5610195,1.6743282,-9.560855,-1.3989456
1409346978883,-0.39444473,-10.505757,-1.4748282,1.4562808,-9.59869,-1.3837557
1409346978890,-0.6380547,-10.086173,-1.5855601,1.263037,-9.627549,-1.3731103
1409346978910,-0.7170634,-9.546281,-1.6927006,1.0752839,-9.649329,-1.3800597
1409346978910,-0.89303726,-9.089587,-1.553837,0.9099095,-9.6617155,-1.4119757
1409346978925,-1.5316905,-8.823232,-1.5861586,0.75022507,-9.669436,-1.4524294
1409346978941,-2.4277205,-8.8806925,-2.0883424,0.5523028,-9.673522,-1.5127132
1409346978944,-3.2231941,-9.399037,-1.3575124,0.2907172,-9.668726,-1.6129478
1409346978960,-3.3716345,-9.503185,-1.5263035,-0.026514499,-9.67389,-1.6079631
1409346978977,-2.7263973,-9.200318,-2.2601264,-0.35035425,-9.666555,-1.6141081
1409346978978,-1.9626468,-9.1590185,-3.2136173,-0.5942714,-9.642742,-1.6836805
1409346978993,-2.1691468,-9.428367,-3.1675289,-0.74134535,-9.6036625,-1.841329
1409346978994,-1.9937714,-8.966286,-2.4289176,-0.8794892,-9.564166,-1.9808068
1409346979011,-1.596334,-8.841787,-1.1097125,-0.99627376,-9.538019,-2.050378
1409346979012,-1.4993688,-9.463681,-0.109534726,-1.0808873,-9.539903,-1.9980808
1409346979028,-1.2575544,-10.043676,0.5650316,-1.1382918,-9.565956,-1.8349831
1409346979048,-0.8888474,-10.257957,1.0187328,-1.1596053,-9.601588,-1.6233386
1409346979049,-1.0289081,-10.685921,1.1917139,-1.1372288,-9.642629,-1.3772455
1409346979051,-1.1019313,-10.699089,1.3120226,-1.1197511,-9.676254,-1.1343057
1409346979077,-1.0468647,-10.700286,1.2683283,-1.10719,-9.701532,-0.9081926
1409346979078,-0.9552865,-10.721235,1.1234791,-1.093094,-9.71947,-0.71235377
1409346979093,-0.86849666,-11.096526,1.0468647,-1.0757725,-9.731929,-0.5501383
1409346979093,-0.8062474,-11.819575,0.9935937,-1.0490967,-9.741584,-0.41390288
1409346979115,-0.7212533,-12.29662,1.1611878,-1.0093136,-9.750016,-0.2981191
1409346979116,-0.5093664,-12.254123,1.7830818,-0.9621628,-9.757606,-0.18378946
1409346979124,-0.19153613,-11.955446,2.3780408,-0.90395087,-9.764837,-0.035438467
1409346979152,-0.01316811,-11.5155115,2.5139117,-0.8347408,-9.770071,0.13900478
1409346979153,-0.11611878,-10.922348,2.1110873,-0.7701804,-9.771966,0.29303706
1409346979154,-0.56982,-10.42615,1.7154455,-0.7261498,-9.771962,0.3897
1409346979179,-1.6071079,-11.090541,1.70946,-0.7194354,-9.769212,0.46402976
1409346979180,-2.694674,-12.752715,3.3081882,-0.7989678,-9.759219,0.5382184
1409346979184,-3.5924997,-13.841478,5.746084,-0.9451767,-9.731185,0.76228964
1409346979191,-4.4861355,-13.690045,4.945224,-1.1424336,-9.668122,1.1800888
1409346979210,-5.499481,-12.813169,0.25917232,-1.3772478,-9.590848,1.5130199
1409346979211,-6.0046577,-12.358271,-3.882198,-1.6607211,-9.554094,1.4600235
1409346979225,-4.8722005,-12.464214,-3.5236664,-1.9583539,-9.550086,1.0635331
1409346979255,-4.470573,-12.762891,-2.1027076,-2.1375048,-9.545892,0.69094807
1409346979255,-5.317522,-13.946823,-0.5710171,-2.262938,-9.531645,0.4441386
1409346979256,-6.9892735,-16.276382,6.6774287,-2.412588,-9.498287,0.36382207
1409346979278,-5.549161,-18.588581,18.268358,-2.6047978,-9.419982,0.8058193
1409346979278,-2.790442,-16.07467,9.032724,-2.6112864,-9.415529,0.8362882
1409346979282,-1.0133458,-12.832322,0.17298107,-2.477586,-9.197327,2.3326244
1409346979291,-1.3138182,-12.930485,-0.97623575,-2.4061513,-9.23615,2.2526338
1409346979311,-1.9075803,-13.296798,-3.7600937,-2.3494873,-9.285306,2.1055648
1409346979312,-1.6106992,-12.639589,-6.6732388,-2.2874057,-9.382384,1.7055852
1409346979323,-0.5674258,-11.684303,-7.409456,-2.2168043,-9.487171,1.1179293
1409346979343,-0.87089086,-11.033679,-7.1263413,-2.0974755,-9.568467,0.46412176
1409346979343,-1.1025299,-10.875661,-6.9090676,-2.027505,-9.593817,-0.13512829
1409346979368,-1.0869676,-12.671911,-6.0208187,-1.9601787,-9.5882635,-0.6271209
1409346979369,-0.026934769,-15.75684,-4.69084,-1.87884,-9.575639,-0.97339714
1409346979371,2.2062569,-19.24998,-2.2691047,-1.7107682,-9.586228,-1.160979
1409346979397,5.1223946,-19.608511,1.9357121,-1.3808287,-9.643158,-1.1283661
1409346979398,9.81084,-19.608511,4.0701427,-0.8835978,-9.732632,-0.8157854
1409346979402,7.669825,-17.735048,2.0811598,-1.1362334,-9.725523,-0.5418031
1409346979411,4.231153,-13.854048,-2.0560207,0.41707012,-9.794901,-0.23742783
1409346979427,1.7675194,-12.62702,-5.2780175,0.72922003,-9.773581,-0.34024215
1409346979443,1.2635399,-11.020511,-7.8009076,0.83752316,-9.75022,-0.63416386
1409346979443,1.6196774,-9.173983,-7.2580223,0.8581635,-9.707813,-1.0919126
1409346979462,2.8526914,-7.9128366,-4.0958805,0.87619776,-9.648159,-1.5217353
1409346979463,3.781043,-7.1305313,-2.3289597,0.98231095,-9.59947,-1.7480358
1409346979471,3.78643,-6.631939,-2.1470003,1.1814512,-9.561566,-1.8305744
1409346979497,0.82360536,-6.666056,-5.595848,1.3979034,-9.519452,-1.8963866
1409346979497,0.7870938,-4.9745526,-4.8823757,1.3911422,-9.45212,-2.211915
1409346979503,1.0307038,-4.8494554,-5.0200424,1.3945769,-9.378909,-2.50233
1409346979527,1.0468647,-4.8464627,-4.656722,1.4072517,-9.285386,-2.8234155
1409346979528,0.9624691,-4.7536874,-1.7124528,1.4230776,-9.189636,-3.1138055
1409346979531,1.1210849,-4.3646297,-0.12090719,1.4376205,-9.177365,-3.143181
1409346979544,1.553837,-3.8660371,-0.39743748,1.4759148,-9.207803,-3.0345454
1409346979559,2.0937295,-3.268684,-1.9297266,1.555389,-9.219299,-2.9589977
1409346979577,2.6689363,-2.6036944,-2.9801826,1.7245687,-9.15884,-3.0515416
1409346979578,3.3441012,-1.8956091,-3.0508115,1.9686599,-9.030879,-3.276893
1409346979594,4.3981485,-1.3922282,-2.373851,2.3285272,-8.850037,-3.52494
1409346979594,5.1301756,-1.352724,-2.7096379,2.8459496,-8.623022,-3.703301
1409346979604,5.786187,-1.2785037,-3.940856,3.4343362,-8.312719,-3.9082448
1409346979625,6.045958,-1.8537107,-4.1706996,4.044028,-7.867432,-4.2331767
1409346979626,5.691616,-3.217807,-3.1543608,4.5967464,-7.4104733,-4.4861116
1409346979639,4.7022123,-5.0212393,-0.4842273,5.002555,-7.119658,-4.5227604
1409346979642,2.8078,-7.778163,3.743933,5.244596,-7.152199,-4.1845713
1409346979660,-0.46567222,-12.252926,10.30225,5.2052436,-7.6427197,-3.2656817
1409346979664,-12.469003,-19.169775,19.479824,4.5554924,-8.571785,-1.3936955
1409346979671,-19.328989,-19.608511,18.285715,4.6256886,-8.502223,-1.5765806
1409346979695,-19.331982,-19.608511,13.791201,4.669368,-8.446099,-1.7409143
1409346979695,-12.997522,-17.235859,7.257424,4.6209626,-8.440067,-1.8927124
1409346979703,-5.643732,-9.567828,3.0819361,4.5419717,-8.457684,-2.0021138
1409346979729,-5.7760115,-9.270947,2.622848,-3.2506216,-8.576139,3.471839
1409346979729,-3.5966895,-9.294889,3.3728316,-3.5075724,-8.553296,3.2723746
1409346979731,-0.9876082,-9.188348,3.7834373,-3.4849565,-8.580013,3.226273
1409346979762,0.061650693,-8.558074,2.870648,-3.252651,-8.646903,3.289638
1409346979763,0.7284359,-6.3524156,3.2513258,-2.9733696,-8.724603,3.3482451
1409346979764,2.379238,-6.1542954,2.5390508,-2.646385,-8.763269,3.5174084
1409346979771,4.4562078,-11.173141,-2.7443538,-2.1985686,-8.852299,3.6018736
1409346979796,6.667852,-16.254833,-5.5030727,-1.5722628,-9.1935625,3.0293224
1409346979797,6.0764837,-16.402676,-7.821857,-0.7410738,-9.538096,2.155442
1409346979803,3.6433764,-14.158112,-5.8119245,-0.08392273,-9.732326,1.2021656
1409346979850,1.8543092,-16.25663,-1.3108255,0.27424335,-9.787509,0.5475918
1409346979851,1.608305,-16.94975,1.4041992,0.41022682,-9.79377,0.29018092
1409346979851,2.134431,-15.277401,2.8634653,0.48813453,-9.791034,0.26029083
1409346979852,2.6150668,-12.33792,1.9434932,0.5814353,-9.781289,0.3984075
1409346979853,3.0466216,-9.446921,0.41599256,0.7157512,-9.767664,0.50081605
1409346979879,4.07134,-8.487445,-0.5279215,0.88152623,-9.753521,0.51198477
1409346979880,4.618415,-8.220491,-1.436521,1.1480285,-9.727722,0.47311786
1409346979883,4.0306387,-7.581838,-1.9045875,1.4626362,-9.690136,0.36378625
1409346979891,2.7162218,-7.1305313,-2.40318,1.7283138,-9.651084,0.19982728
1409346979918,1.9937714,-6.541558,-2.731784,1.8821614,-9.624305,-0.024778469
1409346979918,2.054225,-6.3949127,-2.6647465,1.9696205,-9.60265,-0.28307664
1409346979924,2.4331074,-7.1622543,-2.2122424,2.049453,-9.575593,-0.5274202
1409346979950,2.2589293,-9.966463,-1.4053963,2.140261,-9.543581,-0.71396106
1409346979950,1.702876,-11.486781,-1.411382,2.1623528,-9.533835,-0.7749942
1409346979951,0.6488287,-13.594277,-1.905186,2.1087523,-9.54179,-0.82329327
1409346979979,-0.6667852,-15.596429,-2.195483,1.9316028,-9.573405,-0.88836604
1409346979980,-1.726818,-15.722723,-2.2972364,1.634567,-9.623205,-0.9447385
1409346979983,-2.1272483,-13.748105,-2.0961237,1.2855791,-9.671444,-0.99037445
1409346979991,-2.0015526,-11.625645,-1.441908,0.95374453,-9.7063265,-1.023708
1409346980012,-1.721431,-10.550649,-0.94451255,0.6809496,-9.729021,-1.0260963
1409346980013,-1.5041572,-9.986814,-0.81881696,0.44201985,-9.745893,-0.99628425
1409346980026,-1.3916297,-9.300277,-1.1025299,0.24091391,-9.754921,-0.9766665
1409346980048,-1.6160861,-8.139688,-1.0139444,0.077147834,-9.7555275,-0.99702954
1409346980049,-1.8992004,-7.1395097,-0.96665895,-0.08097002,-9.751582,-1.0346363
1409346980051,-2.285864,-6.981492,-1.5951369,-0.24235359,-9.740378,-1.1120815
1409346980073,-2.5821466,-7.149685,-2.046444,-0.42179742,-9.7158,-1.2632179
1409346980074,-2.4384944,-7.1155677,-1.7896658,-0.6186378,-9.682925,-1.4243001
1409346980090,-1.6316484,-7.1592617,-1.7938557,-0.8008409,-9.65485,-1.5208278
1409346980092,-0.8643068,-7.715315,-1.8608932,-0.9096038,-9.632523,-1.5992289
1409346980106,-0.56682724,-8.550293,-1.5682021,-0.9353721,-9.620131,-1.6578897
1409346980121,-0.18076223,-8.793902,-1.1641805,-0.91678137,-9.6208105,-1.6642998
1409346980123,-0.018555064,-8.675988,-0.86131406,-0.84535253,-9.633077,-1.630829
1409346980139,-0.37229836,-8.86932,-0.6997054,-0.7564742,-9.648513,-1.5825206
1409346980155,-1.0001777,-9.546281,-0.75836337,-0.7065955,-9.661079,-1.527963
1409346980156,-1.1833342,-10.259154,-0.7493851,-0.72631025,-9.668228,-1.4724925
1409346980172,-1.0342951,-10.696694,-0.66259533,-0.7567668,-9.67347,-1.4218729
1409346980173,-1.0342951,-10.928333,-0.56084174,-0.77611005,-9.680034,-1.3656482
1409346980187,-1.1887212,-11.149199,-0.4854244,-0.7994541,-9.686668,-1.3037349
1409346980192,-1.3808558,-11.288661,-0.54288524,-0.82897156,-9.692251,-1.242357
1409346980206,-1.5891514,-11.332953,-0.5770026,-0.8648685,-9.695265,-1.1934073
1409346980219,-1.7896658,-11.62744,-0.5446809,-0.91276896,-9.695513,-1.155097
1409346980224,-2.1452048,-12.231378,-0.3878607,-0.9721233,-9.694389,-1.1154455
1409346980235,-2.5923219,-12.707824,-0.22864626,-1.0522255,-9.692472,-1.0579283
1409346980258,-2.818574,-12.754511,0.0688333,-1.1594385,-9.687013,-0.9938956
1409346980259,-2.9520507,-12.640786,0.3705027,-1.2774228,-9.680101,-0.9133349
1409346980281,-2.943671,-12.518084,0.6913257,-1.4031603,-9.671303,-0.81697625
1409346980282,-3.402759,-13.117232,3.4051533,-1.5213407,-9.662141,-0.7063673
1409346980288,-4.724957,-14.1904335,10.320805,-1.6570991,-9.658507,-0.3709853
1409346980294,-6.8462195,-15.462353,13.706206,-1.856233,-9.616809,0.4916883
1409346980314,-7.690176,-15.307328,9.531317,-2.1393042,-9.459457,1.4534247
1409346980315,-7.363966,-13.323133,-0.6925228,-2.4214375,-9.303395,1.9374957
1409346980326,-5.0918684,-12.180501,-2.8341362,-2.7327328,-9.260328,1.7172347
1409346980340,-5.271434,-13.769652,-0.075417355,-2.885751,-9.257941,1.4606053
1409346980362,-5.7520695,-15.06312,2.971803,-2.946783,-9.247577,1.4032731
1409346980364,-5.723339,-17.06587,7.141305,-3.000609,-9.2277565,1.419591
1409346980365,-5.497087,-17.624916,11.230601,-2.9407074,-9.176798,1.8190668
1409346980372,-2.6617537,-16.63671,1.1683705,-2.918237,-9.064042,2.3446603
1409346980400,-1.1121067,-12.710218,-0.6775591,-2.8093455,-9.13939,2.1793432
1409346980401,-1.376666,-12.216414,-0.26755205,-2.7037375,-9.202233,2.0442812
1409346980404,-2.3127987,-12.208633,-2.8712463,-2.6293433,-9.249009,1.9268497
1409346980422,-2.4133554,-11.620856,-7.2370734,-2.585055,-9.321075,1.6141403
1409346980423,-1.7890673,-10.149619,-8.504205,-2.5527956,-9.414853,1.0070423
1409346980438,-1.1988965,-10.469246,-7.712322,-2.5292873,-9.469302,0.3246509
1409346980458,-1.2270284,-12.039244,-6.777985,-2.4611995,-9.488466,-0.2861499
1409346980458,-0.78529817,-14.274829,-5.7640405,-2.3607044,-9.488949,-0.7465218
1409346980474,0.60094464,-17.925388,-4.7177744,-2.200255,-9.496266,-1.0724738
1409346980474,3.4919431,-19.608511,-0.9780314,-1.9185739,-9.535813,-1.2481022
1409346980489,8.822633,-19.608511,4.210802,-1.4772561,-9.628998,-1.1271666
1409346980492,7.7769656,-19.322405,5.100847,-0.73323774,-9.75443,-0.69562215
1409346980508,3.709217,-14.896125,-0.25797522,-0.1269754,-9.802356,-0.26093584
1409346980512,1.1300632,-13.028647,-5.819107,0.1887845,-9.802059,-0.23319852
1409346980524,0.6979098,-11.453861,-8.020576,0.31890288,-9.784722,-0.5726311
1409346980535,0.62728083,-9.114726,-7.4322004,0.37142888,-9.74439,-1.0388944
1409346980555,0.92775315,-8.083424,-4.0456023,0.37901658,-9.685959,-1.4862428
1409346980555,1.8501194,-7.751827,-2.1972785,0.3840604,-9.64932,-1.7069142
1409346980573,2.4678235,-7.380127,-3.265691,0.44983256,-9.630977,-1.7922912
1409346980573,1.371279,-6.9491706,-5.4432178,0.5916066,-9.596225,-1.9320588
1409346980588,0.7326257,-5.7263317,-5.6060233,0.67312956,-9.530294,-2.211514
1409346980602,0.557849,-5.2744265,-6.6534867,0.7198042,-9.44855,-2.5253165
1409346980604,1.8249803,-5.1529207,-4.3640313,0.7375199,-9.323623,-2.948986
1409346980620,2.071583,-5.048773,-2.4558525,0.8638217,-9.233374,-3.1888878
1409346980637,1.4742297,-5.277419,-2.5677812,0.991476,-9.1945,-3.263207
1409346980637,1.0600328,-5.3899465,-2.670732,1.0306013,-9.158651,-3.350728
1409346980652,1.3120226,-5.04159,-2.195483,1.0325357,-9.12693,-3.4356074
1409346980653,2.007538,-4.38498,-1.3000516,1.0909023,-9.107152,-3.4698815
1409346980671,2.9951463,-3.6750996,-1.3515269,1.2460835,-9.100222,-3.435648
1409346980672,3.90614,-2.9813797,-2.2152352,1.5330031,-9.057778,-3.4317539
1409346980686,4.4681787,-2.2888567,-2.813187,1.9411303,-8.93889,-3.5353475
1409346980703,4.815338,-1.988983,-3.0753522,2.4283617,-8.738397,-3.730127
1409346980704,5.3265004,-1.7615339,-3.0921116,2.9649186,-8.474979,-3.9439073
1409346980726,5.675455,-1.5155296,-3.5224693,3.5511441,-8.150197,-4.1393304
1409346980727,5.5288105,-1.471237,-3.9905357,4.140529,-7.7437553,-4.365852
1409346980732,5.4527946,-1.6490064,-3.9618053,4.649582,-7.294883,-4.619142
1409346980757,5.6185927,-2.4372973,-3.3423057,5.0923305,-6.856839,-4.8189564
1409346980757,5.509058,-4.5238442,-1.2761095,5.4804893,-6.512562,-4.870436
1409346980784,4.6818614,-8.38629,4.5358152,5.7619143,-6.4898214,-4.5665097
1409346980784,-1.6382325,-16.247652,15.728708,5.89278,-7.039713,-3.4478912
1409346980785,-13.300987,-19.608511,16.95454,6.000332,-6.871014,-3.5993865
1409346980816,-19.600132,-19.608511,18.917187,6.101364,-6.7047086,-3.740399
1409346980816,-19.562424,-19.608511,17.18977,6.121274,-6.5981297,-3.894234
1409346980817,-12.820352,-16.495451,7.2831616,6.006005,-6.5480065,-4.149929
1409346980850,-6.4541693,-8.045116,4.8722005,5.8631563,-6.5456886,-4.3529058
1409346980850,-3.3614593,-8.668207,3.301604,-3.2777934,-8.421831,3.8077843
1409346980851,-0.7751228,-8.765172,1.5173253,-3.3062148,-8.436267,3.7508287
1409346980852,0.6811504,-8.696339,0.20530279,-3.1067474,-8.5636835,3.6306806
1409346980867,3.4201171,-10.8152075,-0.076015905,-2.792727,-8.741936,3.4568222
1409346980872,5.4761376,-15.292963,-2.3529017,-2.1847613,-9.003612,3.2143707
1409346980886,4.51307,-15.714343,-4.208408,-1.3894296,-9.337586,2.655061
1409346980902,2.0799627,-12.975975,-3.5476084,-0.80658907,-9.570372,1.9818643
1409346980904,0.3657143,-11.218631,-1.7872716,-0.52147627,-9.677892,1.4956182
1409346980918,-0.23403321,-12.7970085,-1.0253168,-0.43343934,-9.7221775,1.2090398
1409346980934,1.7435774,-13.645753,-2.7407625,-0.38645667,-9.748993,0.9890201
1409346980934,3.0005333,-12.950835,-2.866458,-0.18812545,-9.784892,0.62521017
1409346980952,2.7455509,-12.710218,-1.0708067,0.07844488,-9.801379,0.31181848
1409346980953,3.4650085,-10.169372,-0.2765303,0.28820378,-9.800677,0.18453152
1409346980971,5.2744265,-7.1963716,0.61291564,0.5547306,-9.790398,0.103689216
1409346980972,6.130952,-6.510433,0.60453594,0.96435213,-9.758457,0.113649175
1409346980986,5.3103395,-7.4693108,-0.56443304,1.4433725,-9.698506,0.16136517
1409346981000,4.24492,-8.316858,-2.0859482,1.8212098,-9.635475,0.10579671
1409346981005,3.4039562,-7.941567,-2.6473885,2.1008482,-9.578575,-0.0880027
1409346981024,2.8939912,-7.0712748,-2.6276364,2.2971146,-9.528704,-0.3121908
1409346981026,2.6503813,-6.5762734,-2.1709423,2.432544,-9.485764,-0.5228569
1409346981033,2.5953147,-6.7725983,-1.62686,2.5317435,-9.448924,-0.6917311
1409346981055,2.493561,-7.3484035,-1.3108255,2.6134946,-9.417366,-0.8082506
1409346981056,2.1823149,-8.434174,-1.270124,2.6752336,-9.39325,-0.8833859
1409346981070,1.6597804,-9.957485,-1.7369933,2.6684742,-9.389488,-0.94189686
1409346981073,1.0630256,-11.413758,-2.2373815,2.5866675,-9.404871,-1.0138658
1409346981088,0.33159694,-12.3594675,-2.5528176,2.414646,-9.438694,-1.1184467
1409346981105,-0.46627077,-12.85387,-2.5151088,2.1648726,-9.485528,-1.2281971
1409346981108,-0.9708488,-12.134413,-2.195483,1.8508196,-9.540759,-1.3110145
1409346981122,-0.9900024,-10.350134,-1.7675194,1.5287589,-9.591602,-1.3544197
1409346981138,-0.7870938,-9.018958,-1.6747441,1.2522359,-9.630244,-1.3640801
1409346981138,-0.35314476,-8.835203,-1.8261774,1.0449054,-9.651293,-1.389647
1409346981152,-0.10295067,-9.039907,-1.946486,0.8955498,-9.662155,-1.4181569
1409346981153,0.16639702,-9.387665,-1.8872294,0.7908502,-9.66297,-1.4737556
1409346981168,-1.0097545,-9.312846,-5.7263317,0.7400655,-9.65754,-1.5344808
1409346981173,-7.9810715,-11.64839,-9.67856,0.5767986,-9.591018,-1.9621518
1409346981185,-7.669825,-11.566987,-4.919486,-0.24965954,-9.444047,-2.6302183
1409346981198,-6.0956373,-10.474632,-3.1310172,-0.92322314,-9.341395,-2.8383787
1409346981204,-4.5801077,-9.843162,-3.2136173,-1.4030557,-9.257242,-2.9163842
1409346981217,-2.6090813,-9.19134,-1.9057846,-1.679591,-9.197942,-2.9575763
1409346981239,-1.6298528,-9.15423,-0.6206968,-1.794602,-9.196272,-2.8945436
1409346981249,-1.5251064,-9.961675,0.07062895,-1.7863387,-9.246183,-2.7363305
1409346981250,-1.8614918,-10.907384,0.08200141,-1.7360332,-9.320794,-2.5058658
1409346981254,-2.2439656,-11.637616,-0.16220717,-1.6993624,-9.388251,-2.2678819
1409346981277,-2.355296,-11.849503,-0.025737667,-1.7031971,-9.435071,-2.0612946
1409346981277,-1.7471687,-10.777499,-0.0077811554,-1.7327948,-9.469601,-1.869349
1409346981286,-1.3575124,-10.726024,0.31603462,-1.7367893,-9.49874,-1.7111113
1409346981301,-1.1025299,-11.428123,0.6655881,-1.6999372,-9.534126,-1.5430717
1409346981305,-0.94570965,-12.665327,2.4378958,-1.6400784,-9.573673,-1.3510491
1409346981317,-0.23822308,-13.337499,6.6870055,-1.5476736,-9.63053,-1.0138804
1409346981334,0.8738836,-12.750321,8.109161,-1.3900571,-9.701543,-0.3437921
1409346981335,1.520318,-12.130223,8.107366,-1.164984,-9.731234,0.34098676
1409346981352,1.9919758,-11.959636,15.28997,-0.9418524,-9.720708,0.88947254
1409346981353,0.076614454,-13.172897,15.61618,-0.73965824,-9.584344,1.94002
1409346981376,-2.8161798,-12.58153,0.6356605,-0.75311893,-9.353662,2.8481956
1409346981376,-4.3807907,-10.881048,-5.2768207,-0.90180135,-9.397737,2.6532443
1409346981384,-4.9398365,-10.085575,-6.657676,-1.1610225,-9.479211,2.228669
1409346981403,-5.9801173,-11.886613,-6.811504,-1.4446328,-9.547417,1.7118007
1409346981415,-6.303933,-13.727156,-6.129156,-1.7419305,-9.594441,1.0405515
1409346981416,-5.0667295,-14.08449,-4.7722425,-1.9972742,-9.592302,0.41111684
1409346981432,-5.2127757,-13.86542,-4.4807487,-2.146638,-9.568769,-0.031794894
1409346981433,-5.0463786,-13.2429285,-3.132813,-2.3139782,-9.523277,-0.3508157
1409346981453,-4.2778397,-13.504495,-0.7751228,-2.462788,-9.474858,-0.5762909
1409346981454,-4.6166196,-14.176068,3.894169,-2.5178301,-9.457805,-0.6171198
1409346981475,-4.6160207,-15.941194,13.09329,-2.5684652,-9.459288,-0.30864882
1409346981476,-3.169923,-17.519571,13.992313,-2.5768213,-9.438148,0.6721318
1409346981485,-1.8872294,-17.140688,6.681618,-2.5918713,-9.434627,0.6636268
1409346981512,-1.555034,-15.738285,1.6879122,-2.3396585,-9.327733,1.9208784
1409346981513,-1.0169371,-13.682862,-0.533907,-2.273769,-9.340085,1.9398844
1409346981514,-0.6410475,-12.665327,0.035314474,-2.1783164,-9.39537,1.7754891
1409346981539,-0.86729956,-11.86686,-1.7232267,-2.063066,-9.436853,1.6911308
1409346981540,-0.62967503,-11.156382,-5.04997,-1.9658705,-9.497297,1.4515792
1409346981547,-0.5105635,-10.4488945,-6.872556,-1.8710308,-9.576374,0.98116595
1409346981553,-0.04369418,-10.824186,-6.5625067,-1.7954695,-9.632704,0.39712268
1409346981576,0.24361002,-11.834539,-5.916671,-1.6844012,-9.660008,-0.1319216
1409346981577,0.87927055,-13.32912,-5.1355624,-1.5496676,-9.667654,-0.5526284
1409346981587,1.5933412,-17.391481,-3.9947255,-1.3675535,-9.67329,-0.85303944
1409346981610,3.5996823,-19.608511,1.4425066,-1.1184208,-9.690052,-1.0111564
1409346981611,6.879739,-19.608511,7.435792,-0.75125957,-9.748956,-0.75087875
1409346981613,7.996035,-19.309835,4.3754034,-1.0171964,-9.739619,-0.5249223
1409346981643,5.058948,-14.469956,-1.7687165,0.3416139,-9.798589,0.20335327
1409346981644,2.5899277,-11.9297085,-5.9268465,0.6605685,-9.783808,0.10555837
1409346981647,0.2693477,-11.289858,-8.752603,0.81626844,-9.76908,-0.26300576
1409346981653,0.07062895,-10.33098,-7.3537903,0.7930592,-9.739447,-0.8274229
1409346981692,0.8343793,-9.263765,-4.505289,0.7427885,-9.695113,-1.2741376
1409346981693,1.2731167,-9.073426,-4.541202,0.7205767,-9.658635,-1.5368559
1409346981695,1.697489,-8.531139,-4.3520603,0.7290295,-9.615998,-1.7808605
1409346981696,1.359308,-7.1844006,-2.8335378,0.788046,-9.57115,-1.9855675
1409346981726,1.2689269,-5.331289,-4.308366,0.84376585,-9.542429,-2.0977314
1409346981727,2.2918496,-4.8895583,-5.3342814,0.91288465,-9.481039,-2.333868
1409346981727,1.8854338,-4.845266,-3.8552632,1.0848271,-9.386611,-2.6239433
1409346981734,1.7351977,-4.5016975,-0.93732995,1.2063006,-9.316314,-2.8145232
1409346981758,1.376666,-4.0144777,-0.5722142,1.2836481,-9.312685,-2.792226
1409346981759,1.8537107,-3.0131028,-0.8571242,1.3573402,-9.31209,-2.759169
1409346981767,2.3971944,-2.3540988,-1.4209588,1.477672,-9.284859,-2.7889557
1409346981796,2.7844565,-1.9428947,-2.8125885,1.6919209,-9.219077,-2.8838205
1409346981797,3.41892,-1.5735891,-3.6152446,1.9779067,-9.079444,-3.134006
1409346981797,4.3101616,-1.4389153,-4.171298,2.3519235,-8.863256,-3.475856
1409346981805,5.222951,-1.352724,-4.288614,2.8334413,-8.555547,-3.8658261
1409346981823,6.161478,-1.0660183,-3.9815574,3.4053857,-8.168264,-4.225308
1409346981827,6.439804,-1.0378864,-4.2634745,4.072598,-7.6955543,-4.5125136
1409346981833,6.3823433,-1.2366052,-4.350863,4.700342,-7.160177,-4.775882
1409346981858,6.1219735,-1.9835961,-3.7122097,5.227798,-6.6282096,-4.99073
1409346981859,5.4204726,-3.3854012,-2.4115596,5.6449895,-6.218678,-5.0628576
1409346981865,4.3263226,-6.1507044,0.76434886,5.918245,-6.0602517,-4.9414687
1409346981902,0.5793968,-12.328343,13.2429285,6.0264454,-6.36776,-4.393632
1409346981903,-13.5775175,-19.587563,19.597738,5.6554475,-7.7454414,-2.0480409
1409346981904,-19.592352,-19.608511,17.688961,5.7541065,-7.6106715,-2.2667928
1409346981928,-19.60911,-19.608511,18.223467,5.853328,-7.475473,-2.4548318
1409346981929,-16.344616,-18.166006,8.771756,5.86526,-7.42113,-2.5876503
1409346981930,-6.968324,-7.9104424,3.6170402,5.7329054,-7.447489,-2.7998412
1409346981934,-7.429208,-5.047576,5.2486887,-3.4742591,-8.359562,3.7706268
1409346981958,-4.197634,-4.572925,4.144962,-3.9488358,-8.123536,3.8190618
1409346981958,0.022146367,-5.650316,0.24600422,-4.069922,-8.019641,3.9104342
1409346981965,3.4931402,-10.679935,-3.5817258,-3.841434,-8.18749,3.7919364
1409346981984,7.69257,-18.986618,-5.6245785,-3.1946006,-8.681344,3.2556376
1409346981985,7.5549035,-19.608511,-4.059369,-1.9451319,-9.315922,2.366529
1409346982008,3.3596635,-15.78557,-0.23223756,-0.8960586,-9.619711,1.6818473
1409346982009,-0.64823014,-11.397597,3.779846,-0.43443334,-9.685454,1.4743202
1409346982014,-1.9099745,-10.8624935,3.6481647,-0.42496175,-9.653998,1.6703608
1409346982046,0.8415619,-8.918402,-2.0009542,-0.5638968,-9.623418,1.8006239
1409346982047,3.064578,-7.1993647,-2.9119477,-0.4876973,-9.685576,1.4567645
1409346982048,3.7720647,-7.1861963,-1.8968062,-0.20665713,-9.743272,1.0937771
1409346982055,3.9761705,-7.0371575,-0.6865373,0.14685002,-9.767614,0.86170787
1409346982082,4.8374844,-6.215348,-0.15682021,0.52803516,-9.765473,0.72601753
1409346982083,5.4264584,-6.6564794,-0.830788,0.9922774,-9.735615,0.6352783
1409346982086,5.08708,-7.7799582,-2.540248,1.4797993,-9.680366,0.52067196
1409346982107,4.2161894,-8.525154,-3.620033,1.901619,-9.617317,0.24789223
1409346982107,3.3291376,-8.4347725,-3.5805287,2.2009315,-9.55558,-0.13101211
1409346982113,2.7820623,-8.03554,-3.1118636,2.3671205,-9.504531,-0.480643
1409346982133,2.7287915,-8.016386,-2.493561,2.4729526,-9.45862,-0.76773155
1409346982133,2.8909986,-8.486847,-2.0859482,2.54882,-9.418613,-0.98164636
1409346982149,2.9400797,-9.394249,-1.8046296,2.6195085,-9.381464,-1.1387241
1409346982153,2.2942438,-10.906786,-2.0201077,2.6771882,-9.352651,-1.237337
1409346982168,0.5141548,-14.946403,-2.3864205,2.6378787,-9.351995,-1.3236972
1409346982181,-0.85173726,-16.714521,-2.4905684,2.3448482,-9.421503,-1.381075
1409346982187,-1.3192052,-15.762825,-2.1266496,1.9380642,-9.509876,-1.4059049
1409346982200,-1.0618285,-12.823943,-1.5221137,1.5676465,-9.578516,-1.4017487
1409346982213,-1.0121487,-10.322002,-1.0378864,1.290292,-9.627537,-1.3476118
1409346982214,-1.3275849,-9.255983,-0.9331401,1.0464132,-9.666813,-1.2759838
1409346982237,-1.8267759,-9.096769,-1.3976152,0.8070915,-9.697117,-1.2185653
1409346982238,-2.0799627,-8.525752,-2.343325,0.56025136,-9.7139845,-1.2226976
1409346982247,-1.851915,-7.7159133,-2.4426842,0.3183879,-9.710258,-1.3341339
1409346982264,-1.6938977,-7.650073,-1.5376761,0.11505525,-9.694471,-1.4745661
1409346982266,-2.9167361,-8.277952,-1.5939398,-0.059254155,-9.687727,-1.5214485
1409346982282,-4.696825,-9.188348,-2.2110453,-0.3439099,-9.666764,-1.6142476
1409346982285,-4.8398786,-9.236232,-1.7142484,-0.76312727,-9.6168585,-1.7618387
1409346982296,-3.845088,-8.423999,-0.12449849,-1.1404461,-9.566454,-1.8310511
1409346982319,-3.1914709,-8.103774,0.415394,-1.4191253,-9.548686,-1.7259908
1409346982320,-3.0538042,-8.943541,0.83018947,-1.643051,-9.542473,-1.55306
1409346982333,-2.546832,-9.898827,0.8038532,-1.8161864,-9.546124,-1.3203744
1409346982334,-1.483208,-10.416573,-0.01436521,-1.894523,-9.558483,-1.1029923
1409346982351,-0.94930094,-10.858303,-0.41060558,-1.844539,-9.5795555,-1.0001041
1409346982365,-0.7781156,-11.54065,-0.4890157,-1.75029,-9.603549,-0.93741167
1409346982367,-0.7068881,-12.081141,-0.30346507,-1.629038,-9.628348,-0.90086
1409346982382,-0.64703304,-12.304401,-0.22505496,-1.4993964,-9.652803,-0.8634712
1409346982386,-0.7954735,-12.051813,-0.22804771,-1.3772035,-9.674332,-0.82522285
1409346982399,-0.8158242,-11.54903,-0.092176765,-1.2900151,-9.689065,-0.79263693
1409346982414,-0.6895301,-11.011532,0.43394905,-1.2257338,-9.700371,-0.7555165
1409346982414,-0.19153613,-10.511743,2.2296004,-1.1666573,-9.713703,-0.6732533
1409346982432,0.108936176,-10.606314,4.43466,-1.0812441,-9.736161,-0.45660517
1409346982434,0.06823475,-11.142614,6.695385,-0.97890323,-9.757416,-0.07069381
1409346982448,0.46627077,-11.213842,10.257957,-0.8870966,-9.755457,0.46317655
1409346982463,0.7966706,-11.526884,17.675793,-0.7775327,-9.696478,1.2426282
1409346982465,-1.4784195,-12.927492,13.047202,-0.67382264,-9.445578,2.5490055
1409346982481,-3.5673606,-12.752117,-0.6667852,-0.7768654,-9.201251,3.3020942
1409346982499,-5.0745106,-13.566145,-6.5684924,-1.0147789,-9.246604,3.104985
1409346982499,-5.9370217,-14.647127,-9.509769,-1.2922806,-9.427681,2.370484
1409346982516,-6.7444663,-14.884752,-8.987833,-1.5827284,-9.562092,1.4939073
1409346982517,-6.5619082,-14.181456,-4.3143516,-1.8740494,-9.605017,0.6340309
1409346982532,-5.9477954,-13.01488,-3.4434607,-2.1369936,-9.569362,0.17600293
1409346982534,-6.76781,-13.017275,-2.497751,-2.356524,-9.518168,-0.14713892
1409346982548,-7.2262993,-14.223952,1.496376,-2.613571,-9.4460335,-0.33480787
1409346982567,-7.5968018,-16.356588,14.103643,-2.8351574,-9.385263,-0.22154532
1409346982567,-5.0224366,-17.943344,18.392258,-2.8256993,-9.3871765,-0.2583482
1409346982583,-0.9935937,-16.631323,6.3272767,-2.8296852,-9.38517,-0.28616524
1409346982586,0.7206547,-14.426262,-1.7944542,-2.7010844,-9.16813,2.1954367
1409346982599,0.32022446,-13.084312,-2.9514523,-2.5097053,-9.261706,2.0230036
1409346982614,-1.6675615,-11.582549,-6.2746043,-2.3119547,-9.367547,1.7533718
1409346982615,-1.8662802,-9.929952,-6.7929487,-2.232412,-9.472007,1.2115402
1409346982630,-1.3335704,-9.280524,-6.766014,-2.217391,-9.53204,0.62751657
1409346982634,-0.48123455,-9.998186,-6.051345,-2.19222,-9.558259,0.06520704
1409346982647,-0.16460137,-11.193492,-5.337274,-2.085762,-9.574608,-0.3832506
1409346982684,0.27952304,-14.05995,-5.088876,-1.9509388,-9.58195,-0.7419345
1409346982684,1.4610616,-19.034502,-4.572925,-1.7600933,-9.594294,-1.01093
1409346982685,3.8205473,-19.608511,-0.22325931,-1.4526863,-9.62868,-1.1612911
1409346982698,7.2149267,-19.608511,3.7846344,-1.0151949,-9.704336,-0.98266214
1409346982699,6.4362125,-16.774975,2.034473,-0.39559302,-9.782497,-0.56272304
1409346982716,4.3502645,-12.874221,-0.8038532,0.102011636,-9.799728,-0.35398194
1409346982717,2.9113493,-12.045827,-3.5823243,0.43700698,-9.789711,-0.37543696
1409346982731,2.2373815,-10.714651,-6.3344593,0.61802083,-9.768742,-0.6000826
1409346982734,2.6270378,-9.299079,-5.6682725,0.7583847,-9.727732,-0.9830919
1409346982748,3.851672,-8.22528,-3.2279825,0.88972795,-9.679315,-1.2998455
1409346982762,4.6112323,-7.563283,-2.1284454,1.0807675,-9.63958,-1.442517
1409346982765,4.7961845,-6.7749925,-2.0847511,1.3258903,-9.596809,-1.5210654
1409346982780,2.80361,-6.142923,-3.6284127,1.6110777,-9.539719,-1.6026845
1409346982798,1.5628152,-5.5964465,-5.242703,1.7634175,-9.475278,-1.8110373
1409346982799,1.4490906,-4.984728,-6.6109896,1.8026135,-9.395315,-2.1561656
1409346982812,1.3227965,-4.7429137,-4.84347,1.83835,-9.268034,-2.6257162
1409346982814,0.75596917,-4.8099513,-2.915539,1.8595018,-9.16989,-2.9369676
1409346982829,0.20111294,-4.956596,-1.809418,1.8403409,-9.131824,-3.0648541
1409346982834,-0.5327099,-5.2277393,-1.6849195,1.7431457,-9.137751,-3.1037598
1409346982848,-0.26874915,-4.993108,-1.3138182,1.5494047,-9.1644945,-3.127589
1409346982863,1.4317327,-3.7379475,-0.92057055,1.4016099,-9.194457,-3.1093135
1409346982866,2.695871,-2.9293058,-1.5263035,1.4885832,-9.19146,-3.0775878
1409346982880,3.603872,-2.4343045,-2.4049757,1.7563822,-9.121575,-3.1436296
1409346982894,4.344279,-2.0027497,-1.9901801,2.1522284,-8.973313,-3.319335
1409346982897,4.7219644,-1.8782512,-2.4600422,2.6723256,-8.788113,-3.4348483
1409346982918,4.924873,-2.3145945,-3.3626564,3.2224913,-8.531295,-3.6059558
1409346982919,4.530428,-3.357868,-3.5889084,3.724084,-8.209216,-3.8613937
1409346982927,3.5392287,-4.608838,-2.2655134,4.076051,-7.935073,-4.073188
1409346982934,2.1057005,-6.279991,-0.23822308,4.239509,-7.8550725,-4.061375
1409346982953,0.12928689,-8.276755,2.1092918,4.16018,-8.05581,-3.737274
1409346982954,-2.9107506,-11.009736,7.3202715,3.7785,-8.509216,-3.080026
1409346982968,-9.198523,-17.236456,15.7987385,2.9241378,-9.211979,-1.6611048
1409346982994,-14.681844,-19.608511,15.727511,2.935164,-9.170569,-1.8589907
1409346982995,-16.048334,-19.608511,13.406332,2.9239101,-9.134077,-2.0469005
1409346982997,-13.734338,-19.35293,10.852318,2.8788905,-9.112293,-2.2019308
1409346983037,-8.585608,-14.681844,5.683835,2.827572,-9.101654,-2.3097956
1409346983038,-6.6415157,-11.814787,4.4520183,-3.2220507,-8.687394,3.212158
1409346983039,-4.791396,-10.427945,5.016451,-3.416074,-8.625405,3.1785553
1409346983041,-1.7345991,-8.756793,4.5124717,-3.4613376,-8.582681,3.2445478
1409346983047,0.8074445,-7.9984293,1.2946646,-3.3121202,-8.592275,3.372398
1409346983071,5.9567738,-16.576855,-1.4293385,-2.9868596,-8.720999,3.3456306
1409346983072,6.7402763,-19.608511,-3.104681,-2.0980232,-9.123194,2.9216492
1409346983076,4.631583,-19.18354,-4.219182,-1.2470906,-9.447514,2.3150911
1409346983116,0.64703304,-15.677832,-0.8870517,-0.70557344,-9.630694,1.709471
1409346983117,-1.2096704,-13.786412,7.2167225,-0.5640312,-9.680326,1.4640826
1409346983120,2.7299886,-10.055647,1.6250644,-0.5611676,-9.613749,1.8523842
1409346983121,4.245518,-7.080253,-2.9975405,-0.31762686,-9.637521,1.7854098
1409346983142,4.3047748,-5.940613,-2.7090392,-1.2654898E-4,-9.703592,1.4179888
1409346983144,4.2754455,-6.2380924,-1.5855601,0.3153814,-9.732472,1.1618574
1409346983148,5.0745106,-5.8262897,-0.19572599,0.6554235,-9.734425,0.99085
1409346983171,5.5282116,-5.7424927,0.23582886,1.0895011,-9.704619,0.8965265
1409346983172,4.969764,-6.4416,-0.7392098,1.5532191,-9.645602,0.84868664
1409346983178,3.9510314,-7.2664022,-1.9201498,1.9356797,-9.5861635,0.7273139
1409346983212,3.3135753,-7.475296,-2.834735,2.2001104,-9.543842,0.49498397
1409346983213,3.1358056,-7.510012,-3.056797,2.3902895,-9.509083,0.18503128
1409346983213,3.108871,-7.976283,-2.7485435,2.5396032,-9.471193,-0.13140637
1409346983215,3.0747535,-8.762179,-2.3786395,2.651267,-9.433096,-0.39732906
1409346983231,2.6725276,-10.201694,-2.1942859,2.7299569,-9.399446,-0.6067384
1409346983247,1.8626889,-11.662156,-2.36188,2.7327516,-9.386116,-0.77670395
1409346983248,0.5734113,-13.631986,-2.742558,2.6116276,-9.406095,-0.93551356
1409346983262,-1.0893618,-15.899894,-3.0142999,2.3642712,-9.4555235,-1.0833695
1409346983293,-2.0326772,-15.98369,-2.8407204,1.9567794,-9.532911,-1.2103856
1409346983296,-1.8249803,-13.516466,-2.273893,1.517925,-9.603475,-1.2804466
1409346983298,-1.5735891,-11.131242,-1.8010383,1.1567267,-9.652314,-1.2904239
1409346983299,-1.7663223,-9.7563715,-1.8890251,0.85834146,-9.686245,-1.2689918
1409346983326,-2.2068555,-9.056666,-2.846706,0.58847296,-9.704916,-1.2801117
1409346983327,-2.5713725,-8.509591,-4.2024226,0.322543,-9.700999,-1.3989135
1409346983329,-2.4103625,-8.158242,-4.2957964,0.045213062,-9.667515,-1.6454487
1409346983359,-2.677316,-7.8104844,-3.5972881,-0.19241905,-9.612906,-1.9301238
1409346983360,-3.4560301,-8.136096,-2.593519,-0.4329019,-9.547105,-2.199036
1409346983361,-5.192425,-8.890269,-1.5197195,-0.7014482,-9.48998,-2.3703692
1409346983368,-5.3528366,-8.853159,-0.5255273,-1.0994612,-9.449493,-2.3808932
1409346983397,-4.791396,-8.356362,-0.034117375,-1.497335,-9.424846,-2.2584648
1409346983398,-4.0737343,-8.482059,0.6733692,-1.8416414,-9.406389,-2.073303
1409346983399,-3.4111388,-9.312247,0.43993455,-2.085225,-9.406832,-1.8258609
1409346983436,-2.3971944,-9.828198,-0.6560113,-2.2370768,-9.414846,-1.5895118
1409346983437,-1.3587095,-10.022727,-0.7667431,-2.261634,-9.426602,-1.4814183
1409346983439,-0.7380127,-10.646417,-0.4141969,-2.1770198,-9.457085,-1.4122759
1409346983441,-0.7386112,-11.508329,-0.6075287,-2.0199811,-9.503401,-1.3324654
1409346983450,-1.1133038,-12.238561,-0.56084174,-1.8561049,-9.544318,-1.2772084
1409346983479,-1.4454993,-12.554595,-0.013766659,-1.733327,-9.575005,-1.2186974
1409346983481,-1.6543933,-12.385804,1.0079589,-1.6574311,-9.600614,-1.1187245
1409346983482,-1.4466964,-12.127829,2.778471,-1.619223,-9.627182,-0.93052274
1409346983498,-0.7092823,-11.77648,4.429273,-1.5785484,-9.658603,-0.6244863
1409346983499,-0.5177461,-11.431715,4.831499,-1.4962037,-9.689238,-0.2246382
1409346983510,-0.8098387,-10.8864355,4.9853263,-1.4245338,-9.70184,0.12403131
1409346983515,-0.59136784,-10.012551,5.2606597,-1.3904284,-9.698033,0.4304003
1409346983532,0.12090719,-9.522937,6.969521,-1.3348905,-9.683647,0.78448844
1409346983550,1.2623428,-9.795278,12.318168,-1.2221014,-9.638939,1.3295567
1409346983551,0.24600422,-11.168352,6.8707604,-1.040853,-9.481474,2.2778635
1409346983555,-3.168726,-12.516288,-2.3259668,-0.9207444,-9.38868,2.678672
1409346983583,-5.3743844,-13.848661,-7.2753806,-1.0692894,-9.476219,2.2865446
1409346983584,-5.8771667,-14.566323,-8.121731,-1.3467606,-9.589761,1.5469711
1409346983587,-5.3085437,-13.801375,-6.994062,-1.617658,-9.6399765,0.7902102
1409346983597,-4.863222,-13.02745,-3.6661212,-1.8411314,-9.630922,0.16105855
1409346983620,-5.251083,-13.278841,-2.782661,-2.0389993,-9.591014,-0.15918986
1409346983621,-5.9041014,-13.54759,-2.0410569,-2.2308514,-9.542227,-0.37360233
1409346983629,-6.1596823,-15.042769,0.05207389,-2.432935,-9.488198,-0.47468966
1409346983653,-5.8149176,-16.864159,5.3247046,-2.5837903,-9.449482,-0.4491247
1409346983655,-4.301782,-18.526932,14.604032,-2.6555753,-9.440084,-0.055644386
1409346983656,-2.755726,-18.16002,12.103887,-2.6434464,-9.443128,-0.099757284
1409346983694,-1.9422961,-15.541961,5.4521956,-2.452851,-9.347798,1.6651068
1409346983695,-0.79128367,-12.977172,2.6180596,-2.372398,-9.314092,1.9467493
1409346983696,-1.0534488,-12.145785,-0.16579847,-2.2910461,-9.308476,2.06731
1409346983697,-1.8872294,-12.05301,-2.6270378,-2.2218335,-9.352908,1.9382848
1409346983714,-1.7908629,-11.574768,-4.4322658,-2.1775742,-9.417827,1.6532036
1409346983715,-1.0989386,-9.76535,-5.8999114,-2.1313953,-9.494667,1.2160695
1409346983733,-0.7146692,-9.543886,-6.3326635,-2.0833142,-9.558976,0.67538583
1409346983735,-0.59855044,-10.661979,-5.6323595,-2.0181246,-9.595813,0.13399482
1409346983749,-0.23882163,-12.0170965,-5.071518,-1.9207215,-9.612205,-0.29454365
1409346983764,0.4189853,-15.152304,-3.8241386,-1.7880905,-9.622177,-0.62193817
1409346983779,1.9692309,-19.239805,-0.3752911,-1.5901816,-9.643572,-0.80203366
1409346983780,4.577115,-19.608511,3.4596214,-1.2654749,-9.700329,-0.68743694
1409346983797,6.996456,-19.608511,3.9983168,-0.802254,-9.767881,-0.33952057
1409346983798,6.137536,-17.081432,0.8110358,-0.24442953,-9.803597,-0.009419278
1409346983809,3.5613751,-12.318767,-3.1872811,0.18792029,-9.804599,0.07001688
1409346983815,1.721431,-10.700286,-5.9681463,0.438603,-9.796215,-0.11018647
1409346983829,-0.12988544,-9.7084875,-8.407838,0.55811787,-9.779166,-0.4762461
1409346983845,-0.7715315,-8.69993,-7.2328835,0.5259958,-9.73855,-1.0268139
1409346983847,-0.54527944,-8.634688,-4.8344917,0.42967826,-9.684454,-1.4822528
1409346983859,0.415394,-9.095572,-4.7698483,0.34736413,-9.638514,-1.774474
1409346983875,1.5586253,-8.052299,-3.4272997,0.32337067,-9.587274,-2.0371552
1409346983876,1.4371196,-6.1782374,-2.665345,0.4048384,-9.551158,-2.1867516
1409346983893,1.0486604,-5.46297,-5.8358665,0.5092875,-9.520986,-2.2938735
1409346983896,1.6250644,-5.2049947,-6.7773867,0.59627956,-9.425375,-2.6414282
1409346983919,2.1428106,-4.96737,-3.1142578,0.72517717,-9.2884865,-3.0608056
1409346983920,1.3455414,-5.0026846,-0.6051345,0.86622226,-9.230634,-3.196161
1409346983929,1.0295067,-4.5202527,-0.130484,0.89204353,-9.254323,-3.119636
1409346983953,1.644218,-3.7786489,-2.2439656,0.93781483,-9.285393,-3.0120373
1409346983954,2.6497827,-2.6539726,-3.352481,1.0474685,-9.235708,-3.1264808
1409346983955,3.2291796,-2.2900538,-3.0747535,1.3098454,-9.11277,-3.3781848
1409346983993,4.259285,-2.0231004,-2.3600843,1.6624537,-8.966413,-3.6069467
1409346983994,5.0308166,-1.8327614,-2.3906105,2.1544082,-8.797218,-3.7600336
1409346983994,5.9489927,-1.316811,-3.3560722,2.7414296,-8.564793,-3.9114306
1409346983996,6.8025255,-0.700304,-4.5525746,3.4292257,-8.1925335,-4.1585097
1409346984013,6.8563952,-0.7846996,-5.08708,4.1696873,-7.6402197,-4.5178657
1409346984031,6.522404,-1.6986861,-4.2730513,4.8113356,-7.0226765,-4.868622
1409346984032,5.704784,-3.2273839,-2.9897594,5.32044,-6.5301394,-5.022013
1409346984035,4.9416323,-5.7562594,-0.7835025,5.6438923,-6.289354,-4.9760385
1409346984065,1.7393875,-11.197681,8.668207,5.798876,-6.423038,-4.613893
1409346984066,-11.166556,-19.32061,19.608511,5.581333,-7.4923253,-2.9806304
1409346984068,-19.592949,-19.608511,19.266142,5.6807404,-7.3194423,-3.2133086
1409346984076,-19.60911,-19.608511,16.630724,5.773591,-7.1364665,-3.4506333
1409346984099,-16.907852,-18.701708,7.2502413,5.819313,-7.0181856,-3.6126246
1409346984100,-10.345944,-10.727819,4.721366,5.7412677,-6.987846,-3.7918653
1409346984109,-7.994838,-6.482301,6.289568,-3.5567203,-8.51356,3.3225636
1409346984133,-3.3117795,-4.665102,3.441665,-4.0411806,-8.250547,3.4304113
1409346984134,0.1945289,-5.109825,-1.1025299,-4.1013865,-8.175003,3.5381231
1409346984135,2.8149827,-8.009802,-3.071761,-3.8680313,-8.345127,3.4011147
1409346984148,5.1223946,-15.131953,-3.9683893,-3.3147388,-8.729999,2.9950016
1409346984163,6.3871317,-19.594746,-3.3207579,-2.382326,-9.229541,2.3044488
1409346984179,4.228759,-18.208502,-1.4251486,-1.3764795,-9.569951,1.6406472
1409346984180,0.908001,-12.980165,1.9351135,-0.7571128,-9.6902275,1.3025626
1409346984195,-1.3383588,-11.638813,5.2804117,-0.55737203,-9.697111,1.3512164
1409346984196,2.0039468,-10.023325,0.260968,-0.6026514,-9.647634,1.6523852
1409346984212,4.1078515,-8.416218,-3.442862,-0.40500703,-9.682649,1.5008867
1409346984233,4.437653,-8.66282,-3.3452983,-0.04708441,-9.746149,1.0866293
1409346984234,4.1216183,-8.875904,-1.7417817,0.34337446,-9.774194,0.7194427
1409346984237,4.1282024,-7.7213006,-0.6015432,0.6915157,-9.768054,0.52661276
1409346984258,4.672883,-7.331644,-0.80564886,1.0388026,-9.743107,0.40394115
1409346984259,4.4657845,-8.236053,-1.9668367,1.4189751,-9.699762,0.2674147
1409346984277,3.5272577,-9.020155,-2.9604304,1.7459341,-9.649794,0.059777595
1409346984278,2.9233203,-9.330803,-3.6014779,1.9624469,-9.605719,-0.22218262
1409346984293,2.7910407,-9.315839,-3.5703533,2.0966938,-9.564074,-0.5502145
1409346984296,2.9712043,-9.069236,-2.8640637,2.18608,-9.521981,-0.8505016
1409346984308,3.0992942,-9.198523,-2.1200657,2.2742212,-9.480338,-1.059018
1409346984324,2.7497406,-9.78989,-1.6741456,2.3654883,-9.443772,-1.1789888
1409346984327,2.1338322,-10.546458,-1.4059949,2.412469,-9.422994,-1.2480478
1409346984341,1.6166847,-11.61547,-1.287482,2.3933103,-9.424975,-1.2697674
1409346984359,1.2360066,-12.861651,-1.4748282,2.3035774,-9.449599,-1.2525965
1409346984360,0.770933,-13.730148,-1.751957,2.1548896,-9.487979,-1.226818
1409346984377,0.33159694,-13.384186,-1.9285295,1.9577795,-9.533326,-1.205487
1409346984378,-0.24779987,-12.203246,-1.958457,1.75498,-9.571472,-1.2154648
1409346984393,-1.5125369,-10.043676,-1.7812861,1.5401903,-9.609361,-1.2076229
1409346984396,-1.3868413,-9.346365,-2.2870612,1.26243,-9.648955,-1.2142227
1409346984411,-0.7613561,-8.520366,-3.2980127,1.0207123,-9.6685,-1.2839967
1409346984425,-1.0821792,-7.702147,-2.8095956,0.85000885,-9.65884,-1.4678941
1409346984428,-1.6819267,-7.869741,-2.528277,0.6667264,-9.645577,-1.6397253
1409346984440,-3.9636009,-9.00579,-3.2956185,0.45205754,-9.624471,-1.8263562
1409346984465,-4.150947,-8.854357,-2.961029,0.04857231,-9.585499,-2.0703263
1409346984466,-3.5338416,-8.149264,-1.9620483,-0.32557228,-9.547911,-2.2140012
1409346984469,-3.0819361,-8.07265,-1.8902222,-0.64544225,-9.516201,-2.279422
1409346984476,-2.7042508,-8.58022,-2.1733365,-0.90447867,-9.489018,-2.3045268
1409346984491,-2.2870612,-9.32362,-1.8142064,-1.100067,-9.466634,-2.3115158
1409346984496,-1.9093759,-9.84795,-1.2455834,-1.2210964,-9.464596,-2.2584875
1409346984513,-1.7142484,-10.237606,-0.7433996,-1.2861335,-9.480016,-2.1553574
1409346984524,-1.5837644,-10.785878,-0.40102878,-1.3224612,-9.504952,-2.0192556
1409346984529,-1.4999673,-11.386225,-0.26755205,-1.3345205,-9.536392,-1.856526
1409346984545,-1.520318,-11.438897,-0.23343466,-1.3245486,-9.566048,-1.7049019
1409346984564,-1.5945383,-11.177929,-0.05746084,-1.3183131,-9.589768,-1.5712372
1409346984565,-1.7088615,-11.064803,0.34237084,-1.3240848,-9.60882,-1.4449108
1409346984568,-1.827973,-10.965444,0.66858083,-1.3432887,-9.62706,-1.2983385
1409346984576,-1.9213469,-10.891224,0.8439561,-1.375302,-9.642605,-1.1397765
1409346984599,-2.0219033,-10.953473,0.94570965,-1.4168656,-9.654268,-0.97876185
1409346984599,-2.0787656,-11.206061,2.0745757,-1.4651481,-9.661515,-0.8239355
1409346984608,-1.7130513,-11.142614,5.8125234,-1.5050242,-9.6732235,-0.5779565
1409346984631,-0.6937199,-10.852917,7.683592,-1.5169224,-9.688598,-0.019848501
1409346984632,-0.42676646,-11.124659,7.4896617,-1.4443413,-9.67937,0.62774044
1409346984636,-0.57041854,-11.356895,7.0754647,-1.3697169,-9.64441,1.1312089
1409346984663,-1.8124107,-12.409746,12.16434,-1.3330626,-9.595987,1.5199809
1409346984665,-3.7553053,-14.2622595,10.3226,-1.4115233,-9.428362,2.2986941
1409346984679,-5.168483,-13.737929,-1.2886791,-1.606302,-9.248621,2.837818
1409346984679,-5.9477954,-13.309367,-7.480085,-1.8522632,-9.312086,2.4544976
1409346984689,-5.441422,-13.948619,-8.265982,-2.116023,-9.403615,1.8068995
1409346984696,-5.0403934,-15.242685,-4.293402,-2.2722225,-9.477807,1.0856125
1409346984709,-4.955399,-15.972318,1.2569559,-2.335605,-9.504672,0.6136571
1409346984726,-5.7323174,-16.490664,6.7360864,-2.369274,-9.498464,0.5797876
1409346984728,-6.9371996,-17.488447,11.645397,-2.446555,-9.444873,0.98951435
1409346984741,-6.464943,-17.435774,12.345102,-2.4350686,-9.442606,1.0382835
1409346984758,-5.499481,-17.283144,6.628946,-2.4480352,-9.426554,1.1478678
1409346984759,-4.2341456,-15.708358,2.4157495,-2.7257514,-9.083436,2.4963741
1409346984772,-2.7126305,-13.878589,0.30885202,-2.7740428,-9.0693245,2.4944768
1409346984776,-2.0404584,-12.735357,-1.5993267,-2.779353,-9.107289,2.3458092
1409346984791,-2.1350293,-13.163919,-4.4484267,-2.7166789,-9.19055,2.079385
1409346984796,-2.629432,-12.391191,-8.5060005,-2.6350603,-9.303985,1.6317779
1409346984811,-1.8620903,-10.53329,-9.127894,-2.610656,-9.406727,0.93185467
1409346984831,-1.4862007,-10.089765,-7.2987237,-2.5748277,-9.46009,0.21762235
1409346984831,-1.1976994,-10.49199,-5.433641,-2.5121434,-9.474664,-0.3004826
1409346984836,0.005985504,-16.635511,-4.7070007,-2.419151,-9.480405,-0.66335404
1409346984861,1.6352397,-19.608511,0.4961983,-2.1666274,-9.524648,-0.87018865
1409346984861,5.613206,-19.608511,6.131551,-1.8028289,-9.615204,-0.68416667
1409346984876,8.507795,-19.608511,2.8095956,-1.2125734,-9.729924,-0.1692339
1409346984877,5.8747725,-16.046537,-2.1691468,-0.51875323,-9.792707,0.06440576
1409346984890,3.0813377,-12.637794,-6.389526,-0.07939649,-9.806264,-0.03556202
1409346984911,1.38325,-11.660959,-7.7626004,0.17694734,-9.796157,-0.417626
1409346984912,0.56982,-10.253767,-7.6530657,0.29426235,-9.762838,-0.8779437
1409346984927,1.3443443,-8.920197,-5.6120086,0.3418024,-9.708533,-1.3408824
1409346984928,3.0651767,-7.887099,-3.4117374,0.40715778,-9.655751,-1.6646602
1409346984941,3.590704,-7.642292,-3.66672,0.56123394,-9.617834,-1.8310207
1409346984959,1.8968062,-7.4166384,-4.3766007,0.7568302,-9.568117,-2.0121408
1409346984960,0.8487445,-6.031593,-4.015076,0.8516867,-9.510847,-2.2335699
1409346984983,1.1330559,-4.914099,-5.8574142,0.90050745,-9.454299,-2.4445283
1409346984984,1.6986861,-4.9961004,-6.3697734,0.9724866,-9.344691,-2.8109396
1409346984988,1.4993688,-5.2528787,-5.728726,1.0754524,-9.206009,-3.2036195
1409346985010,1.6687586,-4.8841715,-1.91596,1.1493375,-9.086941,-3.5038457
1409346985011,0.97862995,-4.3688197,-0.6757634,1.2211639,-9.071366,-3.5198593
1409346985026,1.0636241,-3.2878375,-0.5710171,1.2095939,-9.089644,-3.4764445
1409346985028,1.8680758,-2.3403323,-1.2395979,1.2376182,-9.101911,-3.4342258
1409346985044,2.4408886,-1.7495629,-2.059612,1.396398,-9.064872,-3.471104
1409346985067,2.9945478,-1.3323733,-2.8095956,1.6588273,-8.962272,-3.6188936
1409346985074,3.9360676,-1.1055226,-3.208829,2.0091403,-8.787594,-3.8615994
1409346985075,4.887164,-1.0408791,-3.1214404,2.4891722,-8.525508,-4.158143
1409346985076,5.6006365,-1.0791864,-2.8921957,3.1000624,-8.190237,-4.413618
1409346985096,5.9741316,-1.0720038,-3.4075475,3.7849944,-7.794332,-4.592666
1409346985097,6.1345434,-1.1857284,-4.1760864,4.448212,-7.3089333,-4.792004
1409346985108,6.351817,-1.7770962,-4.3568487,5.0230994,-6.761277,-5.0223465
1409346985125,6.168062,-3.052607,-3.8504748,5.505514,-6.255525,-5.169924
1409346985139,5.4061074,-5.6401405,-1.0618285,5.8466277,-5.9481096,-5.158231
1409346985139,2.0925324,-12.401965,11.999141,6.0280447,-6.093962,-4.7641096
1409346985162,-8.126519,-19.580978,19.608511,6.060637,-7.1550074,-2.8713949
1409346985163,-17.735048,-19.608511,16.038158,6.060637,-7.1550074,-2.8713949
1409346985168,-19.60911,-19.608511,16.915634,6.060637,-7.1550074,-2.8713949
1409346985176,-17.659632,-19.450495,10.019135,6.049852,-7.118753,-2.9821162
1409346985192,-7.0491285,-11.928512,4.460996,5.9210777,-7.121215,-3.224826
1409346985230,-5.4462104,-6.853402,4.131195,-3.050246,-8.624555,3.5331907
1409346985232,-4.4939165,-6.39192,4.3819876,-3.3876274,-8.504904,3.5158186
1409346985233,-0.53091425,-5.686229,3.040636,-3.5242317,-8.400114,3.6315632
1409346985233,1.4700398,-6.7133417,2.0099323,-3.3524501,-8.422442,3.7408466
1409346985237,3.9133227,-9.515156,2.1721394,-2.9758809,-8.549159,3.77179
1409346985287,6.949769,-16.90486,-0.38845924,-2.2746801,-8.785353,3.7166908
1409346985289,6.667253,-19.608511,-4.5633483,-1.2533698,-9.190481,3.1834738
1409346985291,3.9977183,-16.29314,-3.8432922,-0.45152593,-9.519398,2.3124888
1409346985293,-0.8439561,-12.083536,0.29448682,-0.046797406,-9.657803,1.7014943
1409346985296,1.5304934,-11.81359,-2.5187001,-0.11405104,-9.679048,1.572712
1409346985316,2.5635915,-11.043256,-4.250905,0.034870237,-9.736039,1.1741865
1409346985317,2.0745757,-10.552444,-2.9251158,0.2541162,-9.779335,0.68587244
1409346985318,2.0213048,-9.876082,-1.0049661,0.4042121,-9.789791,0.40862435
1409346985373,3.333926,-8.58022,-0.46627077,0.5546055,-9.786501,0.2953484
1409346985375,4.5795093,-8.080431,-1.0767922,0.8271701,-9.770162,0.17359774
1409346985377,4.63697,-8.595184,-2.018312,1.1726105,-9.736257,0.026474457
1409346985379,3.9600096,-8.990826,-2.7515364,1.4966669,-9.690457,-0.1594412
1409346985382,3.1663318,-8.533533,-2.939481,1.7373055,-9.643636,-0.39047524
1409346985384,2.9173348,-7.633912,-2.4702177,1.9204776,-9.595934,-0.6326131
1409346985415,3.0107086,-7.104195,-2.0506337,2.0821083,-9.547521,-0.8246803
1409346985415,3.2597055,-7.1927805,-1.5891514,2.2357075,-9.499122,-0.9688579
1409346985416,3.2249897,-7.801506,-1.2078748,2.3888402,-9.452247,-1.0577631
1409346985417,2.8538885,-8.772355,-1.1192893,2.517749,-9.414353,-1.0960294
1409346985440,2.493561,-10.162787,-1.2862848,2.5906396,-9.392759,-1.111338
1409346985441,1.8848352,-12.084733,-1.7022774,2.5841603,-9.392483,-1.1286235
1409346985462,0.8631097,-13.989321,-1.9853917,2.4938393,-9.413696,-1.1547744
1409346985463,-0.4381389,-15.007455,-2.1230583,2.2808888,-9.463532,-1.1872183
1409346985469,-1.2479776,-13.973758,-1.8602947,1.960819,-9.531741,-1.2130419
1409346985477,-1.4909891,-11.670536,-1.1623849,1.6189927,-9.595889,-1.2116829
1409346985500,-1.4191631,-9.54209,-0.79726917,1.3059342,-9.649877,-1.1596701
1409346985501,-1.8118122,-8.587403,-1.0163386,1.0391303,-9.689453,-1.0977643
1409346985511,-2.273893,-8.165425,-2.132635,0.7764859,-9.715343,-1.0860852
1409346985527,-2.4899697,-8.255207,-6.962937,0.48509824,-9.723705,-1.1766858
1409346985541,-4.335301,-9.609727,-6.9988503,0.17838527,-9.652461,-1.7229502
1409346985542,-4.5561657,-9.735423,-2.8790276,-0.26819998,-9.5499525,-2.212879
1409346985557,-4.7040076,-9.503185,-1.5987282,-0.6667887,-9.495383,-2.3586996
1409346985557,-4.3897686,-8.893861,-0.90859956,-1.0291827,-9.452263,-2.4012256
1409346985577,-3.9749734,-8.687361,-0.40462008,-1.3368098,-9.434671,-2.3174007
1409346985578,-4.080917,-9.6049385,-0.32022446,-1.5936694,-9.433813,-2.152619
1409346985588,-4.123414,-10.970232,-0.0712275,-1.8262247,-9.430775,-1.9737806
1409346985609,-3.8492777,-11.605294,0.24959552,-2.0213299,-9.433717,-1.7577215
1409346985611,-2.9191303,-11.23539,0.37110126,-2.167258,-9.439141,-1.5414222
1409346985625,-2.0925324,-10.638636,0.5303157,-2.2298968,-9.452527,-1.3593047
1409346985641,-1.8435353,-10.333973,0.52612585,-2.2207186,-9.476987,-1.1939616
1409346985642,-2.0015526,-10.592546,0.7398083,-2.178441,-9.503343,-1.0541716
1409346985657,-2.2517467,-10.974422,1.3617022,-2.1351607,-9.527853,-0.9118682
1409346985657,-1.9141643,-11.368867,2.271499,-2.1155856,-9.548601,-0.7203685
1409346985674,-1.1013328,-11.716026,3.0490158,-2.0642087,-9.574937,-0.4796111
1409346985677,-0.2717419,-11.880029,3.2704794,-1.9615178,-9.606211,-0.20873211
1409346985691,0.15861586,-11.729793,3.1854854,-1.8130798,-9.637563,0.022232693
1409346985706,0.3196259,-11.26412,3.5954924,-1.6442004,-9.665855,0.19549309
1409346985709,0.24600422,-10.915764,4.402937,-1.4626727,-9.688478,0.4054341
1409346985723,0.6206968,-10.734404,6.039374,-1.289764,-9.69541,0.7112696
1409346985740,0.9600749,-10.9660425,12.397775,-1.1047453,-9.673009,1.1759319
1409346985740,-2.4223335,-12.205042,3.6349967,-0.9504129,-9.529759,2.1096852
1409346985754,-5.258864,-13.698425,-4.010886,-1.0569317,-9.496222,2.2079563
1409346985757,-6.271013,-15.497667,-5.221754,-1.3529353,-9.563578,1.6964424
1409346985772,-6.1626754,-15.684415,-4.666898,-1.6539668,-9.592647,1.1899227
1409346985777,-5.103241,-15.108011,-1.6723499,-1.8995548,-9.589986,0.7708911
1409346985791,-4.0414124,-14.565126,0.6194997,-2.0506654,-9.572191,0.581637
1409346985804,-3.330933,-13.6649065,0.24181437,-2.1153278,-9.560314,0.54420114
1409346985809,-4.6579194,-14.492103,4.4484267,-2.1339924,-9.558416,0.5031306
1409346985821,-6.697779,-15.784373,17.195755,-2.2231112,-9.522262,0.7447886
1409346985838,-5.419874,-14.894927,14.097059,-2.2093263,-9.524611,0.7556666
1409346985838,-3.4003649,-13.145963,0.52971715,-2.466139,-9.1382475,2.5653386
1409346985862,-2.7922378,-11.840525,-4.4723687,-2.5393698,-9.149408,2.4516
1409346985863,-3.3435028,-12.099697,-2.9999347,-2.6217794,-9.217569,2.0816035
1409346985870,-3.6607344,-12.626421,-3.6433764,-2.6945043,-9.267783,1.7373025
1409346985893,-3.9073372,-13.382989,-6.1261635,-2.7212548,-9.329097,1.3164753
1409346985894,-3.0220811,-12.839505,-6.8947024,-2.730852,-9.385797,0.78719896
1409346985899,-1.8872294,-11.750742,-5.410896,-2.713104,-9.421415,0.21536973
1409346985925,-1.1204864,-10.928333,-4.6339774,-2.652426,-9.439109,-0.19551155
1409346985926,-0.3196259,-11.540052,-4.723161,-2.555595,-9.453755,-0.5155604
1409346985939,0.57041854,-13.690644,-4.9063177,-2.3904748,-9.477628,-0.7940864
1409346985940,1.0247183,-17.907433,-2.9245174,-2.1458895,-9.511959,-1.0431406
1409346985961,1.8650831,-19.608511,1.9590555,-1.8369113,-9.5716305,-1.0863017
1409346985962,4.5406036,-19.608511,3.2944214,-1.4905761,-9.661843,-0.7728838
1409346985971,7.611766,-19.608511,0.9175778,-1.0066853,-9.745833,-0.41916922
1409346985978,6.476914,-16.344616,-2.8562827,-0.40647185,-9.794362,-0.27501494
1409346986002,3.6379895,-12.539632,-5.7664347,0.046677288,-9.7980175,-0.40879956
1409346986007,2.271499,-11.034876,-6.494272,0.32124943,-9.774036,-0.73171574
1409346986010,1.7040731,-9.755175,-5.357625,0.5045774,-9.731995,-1.0973026
1409346986047,1.7124528,-9.137471,-3.5033157,0.6046917,-9.688599,-1.3913273
1409346986048,1.3138182,-9.7479925,-4.795586,0.6679408,-9.659219,-1.55684
1409346986049,2.2050598,-8.359355,-5.6485205,0.6947817,-9.6182,-1.7826608
1409346986050,1.4532804,-6.4146647,-6.0740895,0.79334587,-9.549841,-2.08363
