time,acc_x,acc_y,acc_z,gravity_x,gravity_y,gravity_z
1409347525997,-0.05327099,1.4562732,8.889671,-1.3169782,1.8087411,9.548006
1409347526022,0.05925649,1.8656816,9.683948,-1.259838,1.8429544,9.549173
1409347526023,-0.27473465,2.1278467,9.949105,-1.1933008,1.8567827,9.555039
1409347526028,-0.8283938,2.0368671,9.768343,-1.1491673,1.8515294,9.561466
1409347526037,-0.9504981,1.7489643,9.862315,-1.1447198,1.8390951,9.564399
1409347526051,-0.8858546,1.7477672,9.991004,-1.1729578,1.8269991,9.563296
1409347526068,-0.8631097,1.8866309,9.958083,-1.2109578,1.8274828,9.558466
1409347526070,-1.0546459,1.822586,9.547478,-1.2522154,1.8428476,9.550197
1409347526092,-1.3455414,1.6525977,9.247005,-1.2903469,1.8687923,9.540074
1409347526093,-1.4143747,1.6244658,9.068039,-1.3252275,1.9011097,9.5289
1409347526097,-1.2539631,1.733402,8.935161,-1.3533465,1.936738,9.517767
1409347526127,-1.1324574,1.8148049,8.895657,-1.3672017,1.9701877,9.508917
1409347526127,-1.1474211,1.8656816,8.819042,-1.366986,2.0007703,9.502561
1409347526129,-1.1121067,1.9201498,8.808268,-1.3616347,2.0239165,9.498426
1409347526137,-1.002572,1.9434932,8.926183,-1.3501182,2.0409682,9.496421
1409347526159,-0.97743285,1.922544,9.075222,-1.3366905,2.0514488,9.496062
1409347526159,-1.067814,1.8261774,9.227253,-1.3259815,2.054899,9.496818
1409347526171,-1.1444284,1.7423803,9.336788,-1.3202387,2.0505838,9.49855
1409347526187,-0.59974754,1.448492,9.975441,-1.3189713,2.0381444,9.501404
1409347526206,-0.10474633,1.388637,9.589376,-1.3161291,2.0183394,9.506024
1409347526207,-0.3226187,1.3239936,9.483433,-1.3128363,1.9997342,9.51041
1409347526209,-0.87089086,0.9672575,9.816227,-1.3162816,1.9877108,9.512454
1409347526219,-1.525705,1.1127052,9.962274,-1.3472242,1.9812667,9.509467
1409347526235,-2.0069396,1.4933833,10.128671,-1.4126604,1.9838572,9.499426
1409347526237,-2.079364,1.893215,9.944916,-1.5024589,2.0050147,9.481188
1409347526252,-1.6430209,2.2146366,9.591172,-1.5913684,2.049545,9.4571295
1409347526266,-1.0534488,2.2284033,9.537901,-1.6472644,2.1080518,9.434671
1409347526269,-0.6667852,2.1242554,9.433753,-1.6736732,2.1683242,9.416347
1409347526285,-0.7200562,2.1254525,9.5385,-1.6906073,2.2288957,9.399163
1409347526304,-0.7697359,2.2463598,9.385869,-1.707638,2.2880478,9.381855
1409347526305,-0.8038532,2.1086931,9.367912,-1.7412097,2.3469086,9.361122
1409347526310,-0.85473,1.7753005,8.937555,-1.8048466,2.4058678,9.334063
1409347526317,-0.75716627,1.6525977,7.4327993,-1.9080297,2.4705224,9.2965765
1409347526333,1.2210429,0.97144735,7.9732904,-2.0371892,2.5431864,9.249457
1409347526337,-0.110133275,0.9780314,9.275137,-2.1562223,2.5966697,9.207519
1409347526351,-2.1481974,0.31603462,9.388862,-2.2647564,2.6289608,9.172232
1409347526368,-3.3782187,0.54049104,10.0341,-2.3788724,2.6218352,9.145345
1409347526369,-3.0322564,1.3090298,9.794679,-2.4751804,2.616929,9.12116
1409347526383,-2.0727801,1.3634979,8.86513,-2.529502,2.6634276,9.092753
1409347526398,-1.2497733,1.1947067,7.426215,-2.5218303,2.7586274,9.066462
1409347526398,-0.94690675,0.85293436,6.2979474,-2.4618077,2.8853083,9.0435
1409347526417,-0.20470424,0.7906851,4.771045,-2.3745086,3.0277205,9.020255
1409347526418,0.6967127,1.1139023,3.0424318,-2.2601166,3.1762168,8.99855
1409347526432,1.4496891,0.46926352,1.7100586,-2.132507,3.3105347,8.981267
1409347526437,2.4953568,0.7266402,0.45010993,-1.9956247,3.4157016,8.973341
1409347526449,3.3261447,0.9672575,-0.45429978,-1.8585125,3.477631,8.978997
1409347526467,3.305794,0.62728083,0.046088383,-1.7123879,3.4716117,9.010329
1409347526471,2.5354595,5.985504E-4,1.5598224,-1.5663136,3.3743782,9.073623
1409347526484,1.447295,-0.93613285,3.5541923,-1.428772,3.1758986,9.167479
1409347526500,-0.13347675,-2.8221653,7.1867948,-1.2944195,2.867857,9.288178
1409347526501,-2.349909,-4.5645456,9.848549,-1.1795036,2.4750824,9.415579
1409347526520,-4.361637,-5.2504845,11.006743,-1.1142397,1.9539268,9.54521
1409347526521,-4.9799395,-4.995502,10.50037,-1.1154953,1.374667,9.645535
1409347526534,-4.5016975,-4.8386817,8.978855,-1.1582804,0.8317731,9.702418
1409347526548,-3.6876693,-4.4999022,7.3507977,-1.2405107,0.36537465,9.721009
1409347526550,-3.0747535,-3.6601357,5.580884,-1.3589101,-0.018462928,9.712024
1409347526571,-2.8275523,-3.2321723,4.261679,-1.5070552,-0.34828675,9.683898
1409347526572,-2.6198552,-3.6577415,4.2425256,-1.6841037,-0.6640598,9.638113
1409347526577,-2.653374,-4.537012,5.194819,-1.8784798,-1.0035037,9.5726
1409347526608,-3.7367504,-5.878962,7.1832037,-2.0981328,-1.3983971,9.476957
1409347526608,-5.653309,-7.043741,10.156203,-2.3302479,-1.8661298,9.341193
1409347526610,-7.1580644,-7.3484035,13.077129,-2.5605783,-2.391572,9.159378
1409347526619,-7.768586,-6.859388,15.339052,-2.7686725,-2.9340537,8.938466
1409347526645,-7.78355,-6.600814,17.269377,-2.9395878,-3.4310255,8.703866
1409347526645,-7.1251445,-7.3286514,18.695723,-3.071329,-3.8354654,8.486844
1409347526652,-5.8065376,-7.460931,18.360535,-3.1358333,-4.1781316,8.299407
1409347526673,-4.3879733,-5.8322754,15.464747,-3.1652565,-4.4138107,8.165158
1409347526673,-3.1974564,-4.127005,12.741343,-3.1646247,-4.5429792,8.09425
1409347526678,-2.6850972,-3.406949,11.669339,-3.176245,-4.59942,8.057741
1409347526701,-2.9735985,-3.554791,12.009914,-3.226928,-4.6304274,8.019754
1409347526702,-3.6050692,-4.317344,12.685678,-3.3108294,-4.6769037,7.9583526
1409347526720,-4.097078,-4.7147818,12.319963,-3.420056,-4.7623534,7.860891
1409347526721,-4.3646297,-4.7734394,10.854114,-3.5756786,-4.8751416,7.721264
1409347526730,-4.8656163,-5.321712,10.051457,-3.8135507,-5.018789,7.512588
1409347526759,-6.10701,-6.2422824,9.853935,-4.08176,-5.185905,7.2536893
1409347526760,-7.4465656,-7.076063,9.591172,-4.407545,-5.363228,6.926739
1409347526761,-8.365341,-7.851186,7.9116397,-4.7462616,-5.5387664,6.554804
1409347526803,-8.69993,-7.113772,6.815694,-5.0687175,-5.703929,6.1598454
1409347526805,-8.637083,-6.729502,6.8809357,-5.3696895,-5.836941,5.7677493
1409347526806,-8.265982,-6.9479733,7.867945,-5.6469474,-5.939321,5.3858
1409347526808,-7.6931686,-7.156269,9.097966,-5.891238,-6.0255938,5.0155663
1409347526828,-7.1784153,-6.923433,9.729437,-6.1083145,-6.1017413,4.6505523
1409347526829,-6.729502,-6.5738792,9.931149,-6.293111,-6.1680117,4.3038087
1409347526831,-6.281787,-6.201581,9.812037,-6.456548,-6.2178426,3.977664
1409347526852,-6.3589997,-6.297349,9.487623,-6.6090903,-6.247791,3.6681647
1409347526853,-7.128137,-7.423821,9.190742,-6.7518687,-6.2599273,3.3757923
1409347526870,-7.960122,-8.311471,8.704121,-6.880323,-6.260436,3.104593
1409347526871,-8.365341,-8.2037325,7.2634096,-6.995044,-6.25608,2.8462586
1409347526878,-8.3821,-7.5788455,5.5748987,-7.107445,-6.2347355,2.6043575
1409347526906,-8.285733,-6.911462,4.204817,-7.2239404,-6.1917777,2.3763351
1409347526908,-8.51019,-6.745663,3.2381577,-7.3465075,-6.1263423,2.160361
1409347526910,-9.083601,-6.8863225,2.5713725,-7.467924,-6.0478215,1.9555913
1409347526918,-9.569026,-7.1634517,2.1045034,-7.578802,-5.9691253,1.7611624
1409347526939,-9.816826,-7.474099,1.8537107,-7.6743026,-5.9004006,1.568679
1409347526940,-9.832388,-7.6369047,2.0374656,-7.7588515,-5.8399267,1.365965
1409347526952,-9.3978405,-7.6692266,2.1158757,-7.836747,-5.780197,1.1597923
1409347526968,-8.446145,-7.506421,1.899799,-7.9122996,-5.7160068,0.9450705
1409347526983,-7.728483,-7.0407486,1.2300211,-7.9908204,-5.637521,0.7318062
1409347526983,-7.356185,-6.356007,0.15502456,-8.076011,-5.5383883,0.52412355
1409347527003,-6.8719573,-5.765238,-0.9127894,-8.159992,-5.4298344,0.3191165
1409347527004,-6.2889695,-5.505467,-1.5263035,-8.234209,-5.3250546,0.1093433
1409347527012,-5.681441,-5.3504424,-1.8579005,-8.294702,-5.230337,-0.108983524
1409347527018,-5.2726307,-4.832696,-2.4582467,-8.340026,-5.148358,-0.3298545
1409347527039,-5.177461,-3.954024,-2.9532478,-8.375842,-5.072022,-0.5387579
1409347527040,-5.5461683,-2.9251158,-2.9466639,-8.397946,-5.009421,-0.7420307
1409347527054,-6.1938,-2.753332,-2.3570917,-8.407452,-4.962592,-0.926189
1409347527072,-6.5708866,-4.496909,-0.9995792,-8.40369,-4.9363494,-1.0866648
1409347527072,-6.497265,-5.5150437,-0.18734628,-8.385054,-4.93862,-1.2129648
1409347527078,-6.242881,-5.0900726,-0.7038953,-8.359316,-4.9560146,-1.3153584
1409347527102,-5.5324016,-4.331111,-0.62967503,-8.335874,-4.9667177,-1.4196137
1409347527103,-4.8189297,-4.049194,1.3796587,-8.3129835,-4.97088,-1.5346214
1409347527113,-5.0667295,-4.086902,3.503914,-8.292446,-4.9727006,-1.6364555
1409347527119,-6.0687027,-3.3800142,4.016872,-8.273343,-4.9820094,-1.7034608
1409347527159,-5.966949,-2.1829133,3.1172507,-8.257285,-5.0022264,-1.7220278
1409347527160,-5.1666875,-1.3066356,1.3545196,-8.241435,-5.035016,-1.7022784
1409347527161,-4.209605,-1.3688848,-0.107140526,-8.222504,-5.0809436,-1.6567574
1409347527162,-3.5350387,-1.9506758,-0.7302315,-8.191249,-5.1502132,-1.5966128
1409347527185,-3.8774097,-3.8732197,-0.2124854,-8.136647,-5.254915,-1.5333772
1409347527186,-4.9182887,-5.9825115,0.5650316,-8.064821,-5.383343,-1.4658384
1409347527192,-6.129156,-7.301717,0.9163807,-7.959403,-5.5533533,-1.4066094
1409347527198,-6.950966,-8.385093,-0.81283146,-7.82793,-5.746312,-1.3688717
1409347527219,-6.7426705,-7.837419,-1.0965444,-7.6759496,-5.943987,-1.3853508
1409347527220,-6.187814,-6.803124,-2.7491422,-7.512282,-6.1336274,-1.4541786
1409347527242,-5.3318872,-6.2943563,-5.3265004,-7.342553,-6.308228,-1.5695822
1409347527243,-4.3544545,-5.903503,-6.0758853,-7.1708336,-6.471042,-1.6956216
1409347527253,-3.2333694,-5.130774,-6.293159,-7.0013795,-6.62789,-1.7950389
1409347527275,-3.084929,-4.685453,-5.6443305,-6.8400173,-6.7788734,-1.8524102
1409347527276,-5.717354,-8.265383,-3.8750155,-6.685575,-6.9295373,-1.858758
1409347527278,-9.111135,-12.594698,-0.36391866,-6.514662,-7.1008043,-1.8188355
1409347527309,-10.92175,-13.842077,1.2587515,-6.313876,-7.304107,-1.7191113
1409347527310,-11.704654,-13.402741,1.9434932,-6.109091,-7.500788,-1.6085865
1409347527312,-10.559028,-11.672931,1.5759833,-5.9391646,-7.6528807,-1.5264829
1409347527318,-7.9714947,-9.564836,0.6781576,-5.801312,-7.7658415,-1.4855566
1409347527337,-5.5401826,-8.234857,0.38486794,-5.663235,-7.865423,-1.4944052
1409347527339,-4.398747,-8.463503,-0.40940848,-5.5473843,-7.949335,-1.484927
1409347527350,-4.3400893,-9.912594,-1.62686,-5.4360948,-8.026917,-1.4791496
1409347527374,-3.7834373,-10.824784,-3.0131028,-5.3103585,-8.109302,-1.4865205
1409347527375,-2.1655555,-10.644621,-3.7253778,-5.164076,-8.197314,-1.5187976
1409347527379,-0.7978677,-9.689334,-3.8654387,-5.0167527,-8.280102,-1.5628425
1409347527409,0.24480712,-8.614338,-3.7361517,-4.9029527,-8.344682,-1.5804223
1409347527411,1.0965444,-6.9120603,-3.1531637,-4.8186226,-8.399355,-1.5498778
1409347527412,1.9524715,-4.4603977,-2.5252843,-4.764658,-8.438713,-1.5021855
1409347527434,1.3880384,-3.9390604,-1.5221137,-4.726275,-8.472063,-1.4341669
1409347527435,-1.2162545,-7.53994,0.9451111,-4.668822,-8.519539,-1.3378972
1409347527438,-5.0320134,-13.006501,4.2784386,-4.55785,-8.603444,-1.1735184
1409347527450,-8.045116,-16.096817,5.415684,-4.4031286,-8.717451,-0.8881879
1409347527471,-9.697116,-16.837822,4.71119,-4.2510266,-8.821759,-0.52512175
1409347527472,-9.940127,-15.00147,2.6821043,-4.1229,-8.895907,-0.18689495
1409347527479,-9.801862,-11.505336,1.0420763,-4.011727,-8.948351,0.05889101
1409347527508,-7.9475527,-9.70789,-0.08379706,-3.9421837,-8.975026,0.28015065
1409347527509,-5.635352,-9.31105,-0.61890113,-3.8932798,-8.988497,0.46873623
1409347527511,-3.560178,-8.69993,-0.44951138,-3.8576546,-8.995385,0.60987574
1409347527547,-1.8357542,-7.844003,-0.20829555,-3.8274326,-9.002758,0.686674
1409347527548,-0.31603462,-6.993463,-0.24420857,-3.7913191,-9.0171,0.6987056
1409347527549,0.30047232,-6.2141504,-0.10534488,-3.736322,-9.04245,0.6666321
1409347527572,-0.5518635,-6.0860605,0.4770447,-3.6674752,-9.07364,0.62376267
1409347527573,-1.9722236,-6.059126,1.3245921,-3.5636098,-9.118833,0.56387854
1409347527575,-3.3123782,-6.3913217,2.384625,-3.4279754,-9.174299,0.50162476
1409347527579,-3.9109285,-6.6606693,3.3800142,-3.290298,-9.227707,0.4401888
1409347527617,-4.1066546,-7.1634517,3.9121256,-3.1843534,-9.267738,0.3732088
1409347527619,-4.0426097,-7.7254906,3.6858735,-3.1177723,-9.293208,0.29357418
1409347527620,-3.9199066,-8.344392,3.4464533,-3.0773485,-9.309177,0.1988687
1409347527621,-3.9228995,-9.514558,2.7712884,-3.0559645,-9.317867,0.09378713
1409347527631,-4.7159786,-12.29662,-1.1641805,-3.0408087,-9.323248,-0.03038847
1409347527662,-5.1026425,-14.866796,-0.86610246,-3.0441854,-9.320607,-0.17206037
1409347527663,-3.9953241,-12.706627,0.23343466,-3.0751662,-9.307947,-0.27533123
1409347527664,-3.1998506,-10.664971,0.016759412,-3.1613626,-9.278824,-0.28223184
1409347527693,-2.705448,-9.239224,-0.83976626,-3.3173487,-9.226593,-0.18856859
1409347527694,-3.2878375,-9.400833,-2.0811598,-3.5305104,-9.149031,-0.03369776
1409347527695,-2.3169887,-8.923788,-8.264186,-3.7790596,-9.048472,0.119195156
1409347527699,3.1214404,-2.2026656,-9.757569,-4.0341654,-8.936496,0.18685164
1409347527724,2.6180596,-2.2888567,-3.8744168,-4.2844257,-8.818495,0.21955527
1409347527725,1.6166847,-1.5777789,-1.0570401,-4.5716405,-8.672971,0.22377047
1409347527733,0.5470751,-1.6573862,-0.89662856,-4.7596107,-8.573072,0.13752441
1409347527755,-1.021127,-3.09271,-1.7292122,-4.731504,-8.589338,0.08089388
1409347527756,-3.911527,-6.5750766,-3.8313212,-2.1677477,-9.323452,-2.1317816
1409347527759,-5.879561,-12.169727,-6.7486563,-2.399098,-9.201182,-2.3985293
1409347527794,-5.7604494,-17.05749,-6.5666966,-2.6595032,-9.016949,-2.791421
1409347527795,-3.9833531,-19.506758,-1.827973,-2.709154,-8.962291,-2.9168801
1409347527795,-1.6717514,-19.608511,-1.8806454,-2.573281,-9.105651,-2.5759888
1409347527799,0.61171854,-19.608511,-0.79008657,-2.2979565,-9.240048,-2.3476164
1409347527822,0.30107087,-16.90426,-0.19692309,-1.8777804,-9.40029,-2.0685515
1409347527823,-0.30406362,-10.427347,0.75716627,-1.5163317,-9.513175,-1.8359294
1409347527830,-0.6871359,-7.7590094,1.2611457,-1.271335,-9.57975,-1.6680785
1409347527848,-0.9223662,-7.49445,0.5033809,-1.14006,-9.623078,-1.5056576
1409347527867,-1.388637,-10.018537,0.6278794,-1.1047766,-9.643674,-1.3962051
1409347527868,-2.4809916,-15.134946,0.3196259,-1.0885357,-9.664802,-1.2558095
1409347527871,-3.1944637,-18.196531,0.8050503,-1.1271044,-9.679694,-1.0970567
1409347527879,-2.1888988,-16.266207,2.6342204,-1.1890275,-9.693185,-0.8937346
1409347527905,-0.39205053,-12.203845,3.4314895,-1.2232711,-9.713876,-0.5609209
1409347527906,0.7428011,-10.290877,3.5314474,-1.2057928,-9.730744,-0.17046021
1409347527913,1.8477252,-10.1304655,4.1419687,-1.1209598,-9.739789,0.22438014
1409347527945,3.141791,-10.532692,4.6100354,-0.9192504,-9.744637,0.6061566
1409347527946,4.1820717,-10.580576,2.60968,-0.5885646,-9.744503,0.9320132
1409347527947,4.2515035,-10.422559,0.5859809,-0.21770313,-9.74762,1.0520926
1409347527972,3.6056678,-10.26514,-0.6835446,0.11847031,-9.757863,0.96979225
1409347527973,3.0843303,-10.234015,-1.2557588,0.38645285,-9.766393,0.79913014
1409347527973,2.9789855,-10.0825815,-1.4508862,0.6068953,-9.768456,0.6158803
1409347527979,3.0011318,-10.16578,-1.412579,0.8071467,-9.763189,0.44614387
1409347527998,2.6485856,-10.00477,-1.3958195,0.9966214,-9.751251,0.3004304
1409347527999,2.106299,-9.32362,-1.3533225,1.1493293,-9.737764,0.15940541
1409347528013,1.6478093,-9.204509,-1.4185646,1.246845,-9.726977,0.040896513
1409347528037,1.2503718,-9.68694,-1.4951789,1.305526,-9.719099,-0.07140205
1409347528038,0.724246,-9.395446,-1.316811,1.315199,-9.716168,-0.19156544
1409347528040,0.39863458,-9.645041,-1.127669,1.2770975,-9.718659,-0.2950742
1409347528069,0.19273324,-9.877877,-0.8086416,1.2042085,-9.72504,-0.37931496
1409347528075,0.011971008,-9.300875,-0.40282443,1.1101161,-9.734251,-0.4270848
1409347528076,0.130484,-9.8198185,0.0712275,1.0082533,-9.74507,-0.43290102
1409347528079,0.16579847,-10.418368,0.16998832,0.9221249,-9.755558,-0.3862484
1409347528109,0.06943185,-10.796653,-0.0017956513,0.8392089,-9.765091,-0.3303088
1409347528110,0.08200141,-11.174338,-0.30406362,0.7516937,-9.773436,-0.29209253
1409347528114,0.15562311,-11.303625,-0.5895722,0.6734858,-9.779367,-0.28420755
1409347528135,0.2172738,-10.965444,-0.8265981,0.61114967,-9.782904,-0.3027923
1409347528135,0.20949265,-10.583569,-1.0498575,0.56257135,-9.78452,-0.3422153
1409347528139,0.15023616,-10.327988,-1.2862848,0.5217105,-9.784568,-0.400566
1409347528164,0.15442601,-10.224439,-1.5466543,0.48384252,-9.783044,-0.47787496
1409347528165,0.23642741,-10.170568,-1.7447745,0.45141605,-9.779507,-0.572619
1409347528180,0.33399114,-9.999383,-1.797447,0.4297839,-9.7737,-0.6785782
1409347528180,0.16519992,-9.677363,-1.7579426,0.42021105,-9.766505,-0.7805026
1409347528194,-0.1448492,-9.372701,-1.5981296,0.39693904,-9.759412,-0.8756263
1409347528200,-0.3441665,-9.261371,-1.441908,0.34883186,-9.753853,-0.9545063
1409347528214,-0.37588966,-9.4217825,-1.3036429,0.28588936,-9.749988,-1.0131158
1409347528238,-0.31603462,-9.704298,-1.2192472,0.2197364,-9.747945,-1.0486488
1409347528240,-0.23283611,-9.885659,-1.1282675,0.16262335,-9.747055,-1.0671856
1409347528241,-0.22266077,-9.750386,-0.9911995,0.115877084,-9.74712,-1.0726866
1409347528270,-0.30585927,-9.543886,-0.8379706,0.07471374,-9.748298,-1.0656116
1409347528271,-0.25139117,-9.76116,-0.86131406,0.03292086,-9.750452,-1.0478566
1409347528273,-0.08200141,-10.483012,-1.0803835,0.0034779054,-9.752117,-1.0327734
1409347528279,-0.11851298,-9.61272,-1.0313023,-0.0047433954,-9.752136,-1.032579
1409347528302,-0.33159694,-8.81605,-0.90620536,-0.013268355,-9.75187,-1.0350074
1409347528303,-0.30945057,-9.382876,-1.0666169,-0.038844403,-9.752022,-1.0329355
1409347528311,-0.28072014,-10.858902,-1.4425066,-0.06275091,-9.751039,-1.0410277
1409347528334,-0.27473465,-11.749545,-1.726818,-0.07934271,-9.747865,-1.069229
1409347528334,-0.30107087,-11.40897,-1.7052702,-0.093905635,-9.743144,-1.1102952
1409347528339,-0.47644615,-10.476428,-1.4383167,-0.11110563,-9.738807,-1.146177
1409347528360,-0.65182143,-10.029909,-1.2186487,-0.14528424,-9.736545,-1.1614561
1409347528360,-0.83138657,-9.909002,-1.0336965,-0.19265755,-9.736172,-1.1576928
1409347528376,-1.021127,-9.876082,-0.9151836,-0.25366542,-9.7372465,-1.1367047
1409347528379,-1.1091139,-9.959879,-0.92176765,-0.32847384,-9.738249,-1.108602
1409347528400,-1.1115081,-10.105926,-0.98461545,-0.40393928,-9.738682,-1.0795039
1409347528401,-1.0977415,-10.283695,-1.074398,-0.47363672,-9.73789,-1.0580878
1409347528413,-1.1318588,-10.542868,-1.1300632,-0.5338687,-9.736081,-1.0459983
1409347528439,-1.3018472,-10.76493,-1.2389994,-0.58722264,-9.733914,-1.0375195
1409347528441,-1.4969746,-11.064204,-1.3922282,-0.64652693,-9.730112,-1.0379425
1409347528442,-1.6059108,-11.399991,-1.726818,-0.7142446,-9.724195,-1.0489581
1409347528473,-1.7896658,-11.095928,-1.9596541,-0.78324884,-9.714772,-1.0863372
1409347528474,-1.9321208,-10.412383,-1.9662381,-0.8648709,-9.701118,-1.1448586
1409347528475,-1.7070658,-9.755774,-1.8555063,-0.9557966,-9.684832,-1.2086809
1409347528480,-1.3563153,-9.490017,-1.6112977,-1.026038,-9.6700325,-1.268123
1409347528501,-1.2737153,-9.853935,-1.3880384,-1.0633941,-9.660737,-1.3075752
1409347528502,-1.2695254,-10.295666,-1.2234371,-1.0835869,-9.656519,-1.3220797
1409347528513,-0.6835446,-10.864288,-1.0851719,-1.093987,-9.65604,-1.3169833
1409347528537,-0.47644615,-11.146206,-1.1767502,-1.0465233,-9.664321,-1.2946371
1409347528538,-0.26156655,-10.67814,-1.1593921,-0.9813863,-9.673826,-1.2745034
1409347528540,-0.017956512,-10.166978,-1.1210849,-0.91011775,-9.682495,-1.2614945
1409347528568,0.17118542,-10.158598,-1.1713632,-0.8226624,-9.691834,-1.2497978
1409347528569,0.18076223,-10.361506,-1.3389573,-0.7245027,-9.700798,-1.2409658
1409347528573,0.03232172,-10.566211,-1.5167267,-0.6318009,-9.707019,-1.2429913
1409347528579,-0.338181,-10.56681,-1.6310499,-0.5581363,-9.709567,-1.2582512
1409347528596,-0.46866497,-9.985018,-1.5215151,-0.5251961,-9.708062,-1.2837821
1409347528611,-0.55126494,-9.676167,-1.3437457,-0.51275206,-9.705827,-1.3055446
1409347528611,-0.44891283,-9.857527,-1.1959038,-0.5156841,-9.704797,-1.3120126
1409347528642,-0.3441665,-10.136452,-1.0642227,-0.5101042,-9.706253,-1.3034031
1409347528643,-0.27593175,-10.263943,-0.9427169,-0.49446043,-9.710228,-1.2796054
1409347528644,-0.110731825,-10.293272,-0.830788,-0.4714373,-9.715773,-1.2457583
1409347528669,-0.16519992,-10.324396,-0.7350199,-0.43299198,-9.722448,-1.2070224
1409347528669,-0.25677812,-10.396821,-0.6781576,-0.4025855,-9.728773,-1.1658907
1409347528671,-0.2717419,-10.51713,-0.6159084,-0.3828532,-9.734496,-1.1240238
1409347528679,-0.20649989,-10.656591,-0.6087258,-0.36588907,-9.740536,-1.0763315
1409347528696,-0.18854338,-10.530297,-0.5614403,-0.3444877,-9.746238,-1.0308027
1409347528708,-0.24241292,-10.245986,-0.521936,-0.32333705,-9.75198,-0.98221755
1409347528713,-0.31603462,-9.985018,-0.5231331,-0.30917364,-9.757178,-0.93395734
1409347528729,-0.27473465,-9.701305,-0.5722142,-0.30343527,-9.761327,-0.89153737
1409347528732,-0.207697,-9.564836,-0.6739678,-0.29639044,-9.764491,-0.85863477
1409347528755,-0.25438392,-9.472659,-0.75477207,-0.28474942,-9.766504,-0.83946437
1409347528756,-0.26874915,-9.595362,-0.9044097,-0.27846608,-9.767342,-0.8317837
1409347528760,-0.29927522,-9.858126,-0.96426475,-0.27362522,-9.7667055,-0.8408228
1409347528780,-0.39504328,-10.1143055,-0.9935937,-0.27193755,-9.765878,-0.8509334
1409347528781,-0.5614403,-10.04607,-0.9816227,-0.2803408,-9.764845,-0.85999465
1409347528802,-0.7733272,-9.758766,-0.9516952,-0.30484805,-9.763596,-0.86582315
1409347528803,-0.89902276,-9.853935,-1.09834,-0.34789383,-9.762004,-0.867549
1409347528814,-1.1354501,-9.874885,-1.2683283,-0.39843717,-9.75892,-0.88039875
1409347528831,-1.1611878,-9.74859,-1.3305776,-0.46763694,-9.753262,-0.9086352
1409347528834,-0.99658644,-9.840768,-1.429937,-0.53404695,-9.746414,-0.94477075
1409347528840,-0.9708488,-9.67856,-1.4772224,-0.5807111,-9.739865,-0.9839592
1409347528867,-0.825401,-9.465476,-1.4089876,-0.6222299,-9.73308,-1.0248796
1409347528869,-0.6183026,-9.419987,-1.3802572,-0.64497125,-9.7280245,-1.0582713
1409347528873,-0.5758055,-9.4295635,-1.3940239,-0.6472085,-9.72466,-1.0874401
1409347528880,-0.59735334,-9.574412,-1.5316905,-0.6459917,-9.721504,-1.1159872
1409347528901,-0.58418524,-9.887454,-1.6885108,-0.64498323,-9.717143,-1.1539131
1409347528902,-0.5398925,-10.150817,-1.8070238,-0.63956434,-9.712033,-1.1990575
1409347528912,-0.427365,-10.259753,-1.8567034,-0.6268088,-9.706581,-1.2489249
1409347528941,-0.3549404,-10.353127,-1.8926164,-0.6051089,-9.701646,-1.2970372
1409347528943,-0.24181437,-10.478224,-1.917157,-0.57844156,-9.69663,-1.3458015
1409347528945,0.036511578,-10.531495,-1.7531542,-0.5435763,-9.691966,-1.3930984
1409347528980,0.10654198,-10.287286,-1.5699978,-0.4852518,-9.690859,-1.4220352
1409347528980,0.19273324,-10.17835,-1.4239515,-0.427167,-9.691637,-1.4353156
1409347528981,0.2681506,-10.075399,-1.3688848,-0.3660789,-9.69425,-1.434532
1409347528982,0.34955344,-10.05864,-1.3401544,-0.30399874,-9.697603,-1.4263575
1409347528995,0.43873745,-10.04607,-1.3461399,-0.24085225,-9.700611,-1.4179405
1409347529007,0.45968673,-10.19092,-1.4024036,-0.17509559,-9.703189,-1.4099257
1409347529014,0.5291186,-10.451887,-1.4275428,-0.11267843,-9.704849,-1.4048618
1409347529027,0.6254852,-10.720038,-1.4305356,-0.04947262,-9.706154,-1.3994644
1409347529042,0.676362,-10.839149,-1.3221979,0.015405951,-9.7074175,-1.3914684
1409347529043,0.7038953,-10.637438,-1.115698,0.07571371,-9.709694,-1.3734988
1409347529066,0.65900403,-10.31901,-0.9211691,0.13091756,-9.713462,-1.3423543
1409347529066,0.5722142,-10.095152,-0.8026561,0.17778248,-9.718584,-1.2992121
1409347529073,0.58897364,-9.998785,-0.7691373,0.21205124,-9.723766,-1.254517
1409347529080,0.6135142,-10.035895,-0.760159,0.24643224,-9.728424,-1.2113845
1409347529092,0.62728083,-10.108319,-0.7763199,0.28071663,-9.73273,-1.1685724
1409347529106,0.58119243,-10.136452,-0.75477207,0.31326237,-9.73642,-1.1288856
1409347529113,0.6302736,-10.107122,-0.7218518,0.33899668,-9.740012,-1.0897801
1409347529129,0.7020996,-10.074203,-0.7218518,0.3668778,-9.743311,-1.0505472
1409347529149,0.76434886,-9.975441,-0.6973112,0.3969345,-9.745744,-1.0165188
1409347529150,0.8319851,-10.029311,-0.6667852,0.429195,-9.747884,-0.982315
1409347529152,0.943914,-10.1304655,-0.66738373,0.46620035,-9.74977,-0.946065
1409347529160,1.0067618,-10.14124,-0.6925228,0.5103085,-9.750855,-0.91149205
1409347529176,0.9307459,-10.308235,-0.7284359,0.55624855,-9.751099,-0.88152385
1409347529190,0.8367735,-10.181343,-0.74399817,0.5899233,-9.751393,-0.85598254
1409347529194,0.74639237,-9.980828,-0.7266402,0.6134378,-9.751605,-0.83683324
1409347529208,0.49559975,-10.262746,-0.75596917,0.62679815,-9.7521105,-0.8208787
1409347529212,0.2669535,-10.438121,-0.7769185,0.6120624,-9.754095,-0.8083387
1409347529232,0.23163901,-10.206482,-0.7613561,0.57801324,-9.757178,-0.7960962
1409347529234,0.19692309,-10.172963,-0.7493851,0.5432814,-9.760033,-0.78551006
1409347529240,0.10534488,-10.25257,-0.7553706,0.5376666,-9.7621155,-0.7631474
1409347529261,0.19991584,-9.994595,-0.75836337,0.52885294,-9.764366,-0.74015456
1409347529262,0.2681506,-9.835381,-0.7858967,0.5219443,-9.766371,-0.7183275
1409347529288,0.30945057,-10.002377,-0.85473,0.5154771,-9.768209,-0.6976732
1409347529289,0.33279404,-10.056845,-0.8972271,0.5094766,-9.769882,-0.678412
1409347529294,0.3226187,-10.099341,-0.8996213,0.5046442,-9.77131,-0.66122556
1409347529319,0.49679685,-10.227431,-0.97503865,0.49903178,-9.772626,-0.6458706
1409347529325,0.5734113,-10.262746,-1.0923545,0.49482307,-9.773669,-0.63317084
1409347529326,0.5542577,-10.210073,-1.2018893,0.49040276,-9.774532,-0.623255
1409347529350,0.54767364,-10.090961,-1.34195,0.4867961,-9.775191,-0.61569107
1409347529351,0.6745663,-10.175357,-1.4335283,0.48649043,-9.77547,-0.61150235
1409347529354,0.86131406,-10.382456,-1.4089876,0.49205506,-9.775212,-0.61113995
1409347529360,0.95947635,-10.531495,-1.352724,0.502682,-9.774618,-0.6120134
1409347529379,0.85173726,-10.373477,-1.2401965,0.52028805,-9.77343,-0.61626405
1409347529380,0.9427169,-10.151415,-1.1085154,0.54282564,-9.771857,-0.6217379
1409347529392,0.9343372,-9.895236,-1.1791444,0.5716129,-9.769978,-0.62545556
1409347529409,0.76195467,-9.763555,-1.2773066,0.5997614,-9.768046,-0.62925893
1409347529432,0.6901286,-9.610326,-1.3694834,0.62352675,-9.766293,-0.63337356
1409347529434,0.4369418,-9.665392,-1.3910311,0.64624435,-9.764487,-0.6383744
1409347529435,0.15322891,-9.7958765,-1.4550761,0.66514677,-9.7628765,-0.6435842
1409347529441,-0.12928689,-9.993398,-1.429937,0.6800017,-9.761472,-0.6493581
1409347529463,-0.28790274,-10.251971,-1.3850456,0.6927653,-9.760273,-0.6538667
1409347529464,-0.37588966,-10.405799,-1.2198458,0.7050902,-9.75923,-0.6562508
1409347529474,-0.48243165,-10.43872,-1.1534066,0.715705,-9.758615,-0.6538977
1409347529490,-0.6560113,-10.492589,-1.3078327,0.72338986,-9.758424,-0.6482869
1409347529494,-0.97025025,-10.439917,-1.3186066,0.7273292,-9.758439,-0.6436234
1409347529505,-1.1917139,-10.524911,-1.1174936,0.7264708,-9.75875,-0.6398891
1409347529512,-1.2330139,-10.556035,-0.98700964,0.7217083,-9.759446,-0.6346328
1409347529530,-1.2635399,-10.580576,-0.9792285,0.7157814,-9.760011,-0.63263994
1409347529535,-1.3599066,-10.587758,-0.9235633,0.7064334,-9.760442,-0.63648766
1409347529541,-1.4556746,-10.493188,-0.7493851,0.6925797,-9.760932,-0.64416784
1409347529561,-1.4478935,-10.350733,-0.599149,0.67725486,-9.761411,-0.6531534
1409347529561,-1.411382,-10.279505,-0.545878,0.6617567,-9.761724,-0.66424775
1409347529577,-1.3826514,-10.341156,-0.51834464,0.6442913,-9.761873,-0.6790726
1409347529591,-1.30484,-10.40939,-0.48602295,0.6234467,-9.761869,-0.6982933
1409347529594,-1.1725603,-10.3692875,-0.44532153,0.60256475,-9.761711,-0.7185629
1409347529606,-0.99538934,-10.235212,-0.44352585,0.5809436,-9.761281,-0.74182034
1409347529626,-0.81522566,-10.084976,-0.49320555,0.55967885,-9.7606945,-0.76552194
1409347529626,-0.61052144,-10.010756,-0.54288524,0.5388943,-9.760069,-0.78805953
1409347529642,-0.41599256,-9.953894,-0.5979519,0.5200902,-9.759414,-0.8085542
1409347529642,-0.25378537,-9.913791,-0.6781576,0.5042304,-9.758583,-0.8283822
1409347529656,-0.1328782,-9.934141,-0.724246,0.49120837,-9.757477,-0.8489911
1409347529660,-0.012569559,-9.985018,-0.7757214,0.4807016,-9.756125,-0.87026435
1409347529675,0.092775315,-10.055049,-0.8295909,0.47217387,-9.754521,-0.89262563
1409347529689,0.17477672,-10.090961,-0.89662856,0.46531114,-9.752765,-0.91512764
1409347529692,0.23942018,-10.04607,-0.9343372,0.46017715,-9.750871,-0.9376232
1409347529708,0.2777274,-9.905411,-0.95708215,0.4562275,-9.748997,-0.9588105
1409347529727,0.29867667,-9.829993,-0.98341835,0.45284212,-9.747296,-0.97752154
1409347529728,0.31124622,-9.82341,-0.9995792,0.44936553,-9.745895,-0.99297816
1409347529740,0.33279404,-9.822811,-1.0097545,0.4458242,-9.744909,-1.0041896
1409347529741,0.3357868,-9.77792,-1.0055647,0.44201443,-9.744127,-1.0134072
1409347529759,0.30286652,-9.837176,-1.086369,0.43802947,-9.743831,-1.0179813
1409347529760,0.23762453,-9.730635,-1.1192893,0.43351373,-9.743809,-1.0201209
1409347529774,0.19393034,-9.74859,-1.0534488,0.42873746,-9.743981,-1.0204946
1409347529789,0.15143326,-9.807847,-1.0205284,0.4228351,-9.744408,-1.0188854
1409347529794,0.13467385,-9.825804,-1.0283096,0.414885,-9.7450285,-1.016216
1409347529805,0.15023616,-9.898229,-1.0540473,0.40537587,-9.745717,-1.0134377
1409347529829,0.20350714,-10.029311,-1.0803835,0.39556015,-9.7463665,-1.0110714
1409347529830,0.32621,-10.260351,-1.1761516,0.38623673,-9.7469,-1.0095254
1409347529835,0.3878607,-10.383653,-1.2479776,0.37824062,-9.747138,-1.0102736
1409347529841,0.4345476,-10.43872,-1.2755109,0.37211278,-9.747029,-1.0135875
1409347529863,0.5303157,-10.432136,-1.2892777,0.36905178,-9.746587,-1.0189401
1409347529865,0.6039374,-10.4171715,-1.2731167,0.37048796,-9.745828,-1.0256654
1409347529872,0.6751649,-10.395025,-1.2629414,0.37618837,-9.744889,-1.0324789
1409347529893,0.7128736,-10.299257,-1.2431892,0.38615504,-9.743742,-1.039604
1409347529896,0.724246,-10.166379,-1.2318168,0.39823565,-9.742466,-1.0469638
1409347529919,0.75716627,-10.123283,-1.2521675,0.41408962,-9.740966,-1.0547559
1409347529920,0.79607207,-10.189124,-1.3084313,0.43343365,-9.739361,-1.0617918
1409347529921,0.7691373,-10.259154,-1.4203602,0.45570204,-9.737787,-1.0668772
1409347529940,0.7038953,-10.242394,-1.54845,0.47910908,-9.736297,-1.0702262
1409347529941,0.6254852,-10.146626,-1.6879122,0.5029145,-9.734926,-1.0717608
1409347529956,0.3890578,-10.191518,-1.797447,0.5259315,-9.733754,-1.0713576
1409347529961,0.0700304,-10.224439,-1.8058267,0.5454168,-9.732807,-1.0702176
1409347529979,0.19093758,-9.815628,-1.8381484,0.56040746,-9.732612,-1.0642418
1409347529981,0.30705637,-9.709685,-1.8890251,0.5771027,-9.732848,-1.0531108
1409347529993,0.28311434,-9.8754835,-2.0260932,0.5895998,-9.733614,-1.0390245
1409347530022,0.15203181,-10.113707,-2.295441,0.59390086,-9.734673,-1.0265538
1409347530023,-0.09816227,-10.242394,-2.5234885,0.59295595,-9.735408,-1.0200998
1409347530023,-0.516549,-10.05864,-2.3654714,0.58745795,-9.735578,-1.021687
1409347530046,-0.9008184,-9.78989,-1.6262615,0.5752797,-9.735483,-1.0294749
1409347530047,-1.0223241,-9.504382,-0.90021986,0.5574895,-9.735934,-1.0349787
1409347530052,-1.1953052,-9.4972,-0.8194155,0.5336809,-9.735872,-1.0480258
1409347530079,-1.4083891,-9.5809965,-1.0534488,0.4996385,-9.734821,-1.0742372
1409347530080,-1.5113398,-9.728839,-1.1827357,0.45740885,-9.732826,-1.1105287
1409347530081,-1.4490906,-9.6923275,-1.2258313,0.4138529,-9.730044,-1.1512489
1409347530110,-1.3341689,-9.603143,-1.1941081,0.37204906,-9.726267,-1.196538
1409347530111,-1.186327,-9.679159,-1.252766,0.33123058,-9.720966,-1.2503946
1409347530128,-1.0289081,-9.918579,-1.2868834,0.2934452,-9.71433,-1.3099928
1409347530129,-0.87567925,-10.231621,-1.2749124,0.25655425,-9.705208,-1.3832912
1409347530134,-0.724246,-10.516531,-1.1438298,0.22400048,-9.693395,-1.4691238
1409347530141,-0.4938041,-10.654198,-0.9451111,0.19630584,-9.678576,-1.5674934
1409347530157,-0.24540567,-10.6398325,-0.7254431,0.17320144,-9.660573,-1.6774198
1409347530179,0.02873042,-10.582372,-0.50038815,0.15350232,-9.639574,-1.7959541
1409347530181,0.26156655,-10.443508,-0.2837129,0.13699864,-9.616477,-1.9170331
1409347530182,0.4770447,-10.296265,-0.08319851,0.124494836,-9.591951,-2.0370033
1409347530216,0.59974754,-10.08737,0.14724341,0.11677345,-9.566634,-2.1532032
1409347530218,0.7026982,-9.877279,0.40880993,0.11430048,-9.541145,-2.2636018
1409347530219,0.682946,-9.69951,0.6548142,0.11784166,-9.516313,-2.3656507
1409347530221,0.6757634,-9.570822,0.97144735,0.12749636,-9.492389,-2.4594064
1409347530240,0.52971715,-9.526528,1.2659341,0.14465836,-9.470375,-2.5419452
1409347530241,0.3238158,-9.512762,1.34195,0.16837505,-9.451287,-2.6105964
1409347530255,0.21906945,-9.36492,0.4285621,0.1989093,-9.436637,-2.6609716
1409347530276,-0.24959552,-9.44333,-0.6841431,0.2356009,-9.422074,-2.7091286
1409347530277,-0.32680854,-9.467871,-1.5490485,0.27150574,-9.412197,-2.7399297
1409347530299,-0.16220717,-9.380483,-1.9021933,0.3120615,-9.408377,-2.748728
1409347530300,0.17896658,-9.531317,-1.685518,0.35663873,-9.410936,-2.7344937
1409347530301,0.2765303,-9.64564,-1.4203602,0.40162235,-9.418471,-2.702132
1409347530327,0.08439561,-9.667188,-1.365892,0.4410922,-9.428182,-2.6618087
1409347530328,-0.3585317,-9.704897,-1.4670471,0.47300243,-9.438971,-2.6177292
1409347530335,-1.0989386,-9.860519,-1.7968484,0.4971141,-9.451778,-2.5665505
1409347530341,-1.6663644,-9.99639,-2.2625206,0.51009095,-9.465649,-2.512309
1409347530353,-1.9434932,-10.491392,-2.4971523,0.519705,-9.482092,-2.4474964
1409347530378,-1.9566613,-11.18152,-2.9047651,0.5249631,-9.500842,-2.3725212
1409347530379,-1.3730747,-11.586141,-3.8163576,0.52548987,-9.518802,-2.2992713
1409347530381,-0.7906851,-11.8339405,-4.9057193,0.53056365,-9.533079,-2.238144
1409347530411,-1.2006922,-12.440272,-4.7255554,0.5414074,-9.5426,-2.194559
1409347530412,-1.6514006,-12.804191,-4.211401,0.54811084,-9.548169,-2.1685085
1409347530413,-1.6765398,-12.728773,-3.755904,0.55164033,-9.550914,-2.155483
1409347530421,-1.8794483,-12.476185,-3.2082303,0.5561806,-9.544083,-2.1843853
1409347530440,-2.2361844,-12.76349,-2.6527755,0.5521673,-9.530786,-2.2426832
1409347530441,-2.5480292,-13.335105,-2.3666685,0.53209746,-9.514754,-2.3144627
1409347530456,-2.6312277,-14.279617,-2.167351,0.49536318,-9.4954405,-2.400337
1409347530476,-3.0998926,-15.242086,-1.608305,0.4470748,-9.471267,-2.5031261
1409347530477,-3.855862,-15.734694,-0.077213004,0.38886985,-9.443268,-2.616079
1409347530482,-4.5394063,-15.775993,3.1118636,0.32671618,-9.415999,-2.7207708
1409347530513,-4.024653,-15.814301,7.647679,0.26452377,-9.40022,-2.7814164
1409347530514,-2.5737667,-16.26441,12.904149,0.2008315,-9.403763,-2.7747588
1409347530515,-1.204882,-16.927006,19.20449,0.14552256,-9.4368,-2.6638372
1409347530521,-1.0755951,-16.16505,13.703214,0.14086817,-9.385062,-2.8409808
1409347530546,-0.35434186,-13.693038,0.9576807,-1.5941894,-9.408482,2.2604008
1409347530547,-0.87328506,-11.771092,-3.5661635,-1.5533617,-9.403296,2.3098636
1409347530555,-2.0482395,-11.570579,-5.257068,-1.5191978,-9.464392,2.0706797
1409347530581,-3.1142578,-12.008119,-3.5410242,-1.5056977,-9.563791,1.5611517
1409347530582,-2.5617957,-11.997345,-2.9628246,-1.5759122,-9.607485,1.1760621
1409347530583,-1.6986861,-12.564172,-2.8736405,-1.622424,-9.635677,0.83177114
1409347530612,-0.9451111,-13.122021,-2.4720132,-1.6121962,-9.657009,0.55981636
1409347530613,-0.34955344,-13.828909,-2.0015526,-1.5524135,-9.676674,0.34989232
1409347530615,0.35434186,-14.514848,-1.6777369,-1.4519318,-9.6967535,0.18774047
1409347530622,1.4101849,-14.817116,-2.4193408,-1.3072294,-9.718903,0.06690518
1409347530645,2.3870192,-14.880562,-3.7020345,-1.0928288,-9.745149,-0.09060719
1409347530646,2.067393,-14.840459,-4.1299977,-0.8253549,-9.766576,-0.3211555
1409347530653,0.6775591,-14.966753,-3.8247373,-0.59101224,-9.77315,-0.55374837
1409347530678,0.0688333,-14.503475,-3.0974984,-0.46404704,-9.767341,-0.7443637
1409347530679,-0.3764882,-13.86542,-2.8329391,-0.4028366,-9.759084,-0.8765773
1409347530682,-1.2114661,-13.30817,-2.2972364,-0.4024019,-9.7485,-0.98752403
1409347530717,-1.4562732,-12.245743,-0.7044938,-0.46664003,-9.738451,-1.0560378
1409347530718,0.038307227,-11.28926,-2.4995465,-0.5472317,-9.740109,-1.0006065
1409347530720,1.4640543,-10.375273,-3.5978866,-0.52222484,-9.735253,-1.0594913
1409347530722,3.454833,-9.778519,-2.3642743,-0.3911803,-9.723883,-1.2097561
1409347530765,4.6100354,-9.075222,-2.914342,-0.11833514,-9.723689,-1.2673962
1409347530767,4.31495,-7.735666,-3.3602622,0.24213205,-9.703559,-1.3973911
1409347530769,3.8905778,-6.4828997,-4.401141,0.57075614,-9.662226,-1.5767204
1409347530770,2.8592753,-5.5084596,-4.350863,0.8536118,-9.59321,-1.8471751
1409347530774,1.638831,-5.0984526,-3.804985,1.0502546,-9.513863,-2.133956
1409347530797,0.7613561,-4.8386817,-2.168548,1.1377608,-9.446797,-2.3735914
1409347530798,-0.12569559,-5.065532,-2.7299886,1.1345693,-9.424126,-2.463531
1409347530802,0.02633622,-5.354632,-2.5067291,1.0460104,-9.398356,-2.59753
1409347530832,1.1540052,-5.297171,-1.1336545,0.9657722,-9.375499,-2.7088206
1409347530833,2.6198552,-5.064934,-0.8343793,1.0293071,-9.376006,-2.6835494
1409347530834,3.7780502,-4.7201686,-1.5705963,1.2676146,-9.362154,-2.6293771
1409347530842,4.5160627,-4.2197804,-1.7525556,1.6336977,-9.298727,-2.652381
1409347530864,4.570531,-3.6092591,-1.8088194,2.090993,-9.194829,-2.693187
1409347530865,4.557363,-2.9538465,-2.1272483,2.5580823,-9.058064,-2.7528338
1409347530874,4.6561236,-2.393603,-2.693477,3.0130858,-8.881642,-2.8649879
1409347530888,4.5238442,-2.0296845,-2.891597,3.48167,-8.639195,-3.0680106
1409347530905,4.3155484,-1.6980876,-2.681506,3.9226303,-8.358689,-3.3038862
1409347530906,3.9390604,-1.9033904,-2.4594438,4.335085,-8.062403,-3.5178246
1409347530928,2.9406781,-3.1004913,-2.0590134,4.669037,-7.794119,-3.6908274
1409347530929,2.3768437,-4.449624,-1.5089456,4.798759,-7.6745586,-3.7740557
1409347530934,1.5269021,-6.1943984,0.15741876,4.7862735,-7.703281,-3.7311413
1409347530979,-2.1266496,-10.444705,8.803479,4.598394,-7.9714847,-3.3883
1409347530981,-9.791686,-17.98704,19.495985,3.8413918,-8.866776,-1.6716356
1409347530983,-17.041328,-19.608511,16.07527,3.9570117,-8.769136,-1.9012381
1409347530988,-19.60911,-19.608511,6.7719994,4.065413,-8.671272,-2.1099453
1409347530990,-19.221848,-19.608511,2.3307555,4.1261454,-8.61047,-2.2372184
1409347530996,-13.654132,-14.850635,2.3648727,4.1430917,-8.591112,-2.2799048
1409347531003,-8.835203,-9.476849,4.69084,-4.3176928,-8.54693,2.116098
1409347531040,-7.237672,-9.093777,5.798158,-4.583973,-8.36799,2.265907
1409347531042,-3.8612487,-8.273164,5.5497594,-4.660737,-8.243884,2.546818
1409347531043,-0.5069722,-6.606201,3.4901476,-4.5454116,-8.221553,2.8134866
1409347531059,1.5837644,-5.430648,-0.6931214,-4.315102,-8.276144,3.0092707
1409347531060,4.167108,-5.917868,-4.7381253,-4.0020795,-8.462378,2.9226587
1409347531062,6.7684083,-8.823232,-7.1670427,-3.4754646,-8.838489,2.443898
1409347531074,8.133103,-9.34038,-5.6341553,-2.6022666,-9.32045,1.5899105
1409347531093,6.3829417,-11.222222,-4.5753193,-1.5259593,-9.649431,0.85459614
1409347531096,3.5835214,-13.059772,-3.2734723,-0.6597282,-9.78077,0.26776305
1409347531102,2.3780408,-14.784794,-2.4600422,-0.1229986,-9.805018,-0.12991072
1409347531130,1.5628152,-16.918028,-2.106299,0.19662732,-9.797237,-0.38191974
1409347531131,-0.63206923,-18.13967,1.1988965,0.33198944,-9.786073,-0.5412705
1409347531134,0.82899237,-12.151173,5.5431757,0.2244038,-9.795791,-0.40314418
1409347531164,3.8073792,-8.605359,2.867655,0.2513523,-9.803416,0.015972206
1409347531166,4.9583917,-7.093421,0.53809685,0.5153224,-9.791263,0.18975407
1409347531168,5.0840874,-6.5511346,-0.997185,0.8682783,-9.765211,0.23908187
1409347531175,4.132991,-6.2045736,-2.0745757,1.2630314,-9.7235565,0.16614304
1409347531189,3.0017304,-6.190807,-2.6120741,1.5804172,-9.678445,0.01965338
1409347531205,2.4019828,-6.5499372,-2.7383683,1.8126513,-9.635806,-0.1895964
1409347531206,2.4678235,-7.2233067,-2.5845408,1.9728079,-9.597293,-0.41278964
1409347531222,2.1697452,-8.15106,-2.054225,2.1003184,-9.559232,-0.6165584
1409347531222,1.5813702,-9.155427,-1.6663644,2.1580262,-9.536076,-0.759343
1409347531235,1.5610195,-9.918579,-1.2802993,2.1316953,-9.534252,-0.8510566
1409347531253,1.8614918,-10.69849,-0.87208796,2.081745,-9.541098,-0.89675653
1409347531254,1.6472107,-11.647193,-0.94331545,2.0640914,-9.546968,-0.87483025
1409347531273,0.78050977,-12.637794,-1.3688848,1.9972184,-9.562045,-0.8653356
1409347531288,-0.019752163,-12.896966,-1.922544,1.838874,-9.591447,-0.8905457
1409347531288,-0.43873745,-12.331336,-2.404377,1.6261727,-9.622982,-0.96132225
1409347531308,-0.61890113,-11.549629,-2.5474305,1.4021304,-9.646618,-1.0710669
1409347531309,-0.8655039,-10.940904,-2.9963434,1.1844994,-9.661634,-1.1917065
1409347531314,-1.2611457,-10.59973,-3.2106245,0.96386933,-9.664711,-1.3545176
1409347531322,-1.9111716,-10.320805,-2.2385786,0.73791534,-9.660215,-1.5186002
1409347531340,-1.8800468,-9.496002,-1.0043676,0.47213647,-9.661866,-1.6111659
1409347531354,-1.8644845,-8.866926,0.207697,0.24078327,-9.667255,-1.6299098
1409347531355,-3.2010477,-9.0716305,0.1945289,0.046542555,-9.685308,-1.537204
1409347531371,-3.870227,-9.333197,-0.24540567,-0.25059038,-9.702322,-1.4044791
1409347531373,-3.578733,-9.198523,-1.2378023,-0.5807301,-9.705395,-1.2800064
1409347531386,-3.0029275,-9.129091,-2.2098482,-0.8620149,-9.688485,-1.2492359
1409347531402,-2.64679,-9.519944,-2.1003134,-1.077677,-9.655057,-1.3374861
1409347531403,-2.2062569,-9.488221,-1.6663644,-1.2333932,-9.627864,-1.3976351
1409347531423,-1.7776948,-9.5971575,-0.7398083,-1.3444812,-9.608466,-1.4283333
1409347531425,-1.4826094,-9.841965,0.28072014,-1.4043432,-9.607096,-1.3791155
1409347531438,-1.4335283,-9.846753,0.91338795,-1.4234838,-9.621892,-1.2503127
1409347531458,-0.866701,-9.454702,1.4999673,-1.4331931,-9.640721,-1.0829731
1409347531459,-0.26994625,-9.088389,1.9297266,-1.3922298,-9.667673,-0.87647456
1409347531462,0.12749124,-9.269152,1.6561891,-1.3006235,-9.698734,-0.6429228
1409347531488,0.20111294,-9.953894,1.4185646,-1.1670272,-9.726803,-0.44469666
1409347531489,0.108337626,-10.706271,0.92176765,-1.0269369,-9.748769,-0.27801967
1409347531503,0.046088383,-11.151593,0.3824737,-0.89776516,-9.763937,-0.17317647
1409347531503,0.31483752,-11.278485,0.219668,-0.78901136,-9.773986,-0.13057323
1409347531520,0.58657944,-11.443686,0.22385786,-0.6732637,-9.782901,-0.10938831
1409347531522,0.712275,-11.56998,0.32022446,-0.54620326,-9.790974,-0.09425003
1409347531536,0.39504328,-11.634624,-0.37708676,-0.41790438,-9.797467,-0.0731769
1409347531551,0.15382746,-11.523891,-0.427365,-0.32887453,-9.8003845,-0.12133851
1409347531554,0.060453594,-11.283274,0.40761283,-0.27533072,-9.801263,-0.17279802
1409347531566,0.19153613,-10.796054,2.8215668,-0.24088381,-9.80259,-0.14691497
1409347531585,-1.0965444,-11.212047,3.8642416,-0.21039091,-9.803862,0.10194049
1409347531585,-3.3806129,-13.213,4.045004,-0.30075896,-9.792754,0.42652154
1409347531601,-5.495291,-14.384962,3.5523968,-0.56871474,-9.76315,0.7265238
1409347531602,-6.4523735,-14.021044,1.1540052,-0.9617587,-9.713242,0.947801
1409347531620,-6.0244102,-12.968193,-1.7513585,-1.3761988,-9.661039,0.9699323
1409347531625,-5.04578,-12.726379,-1.9776106,-1.7129703,-9.627609,0.7384423
1409347531643,-5.0397944,-13.802573,0.30526072,-1.9480435,-9.595986,0.5408833
1409347531644,-4.485537,-14.542979,2.9867666,-2.1328747,-9.558308,0.5099128
1409347531655,-3.7427359,-15.490485,5.9322333,-2.2175958,-9.529136,0.66949356
1409347531674,-4.8380833,-16.988058,8.740632,-2.2138994,-9.497209,1.035399
1409347531675,-4.8021703,-16.381727,7.0569096,-2.2626357,-9.4156475,1.5480504
1409347531683,-3.3883939,-13.792996,2.9628246,-2.321617,-9.34054,1.8801132
1409347531709,-2.095525,-12.307992,0.36032736,-2.369578,-9.322515,1.9095079
1409347531710,-1.8321629,-13.038224,-1.5269021,-2.3567054,-9.340067,1.8383372
1409347531715,-1.0773908,-13.748703,-2.8514943,-2.3231645,-9.382435,1.6562726
1409347531723,-0.19393034,-14.092271,-3.8013937,-2.2060585,-9.45728,1.3651172
1409347531740,-0.06943185,-13.103466,-6.136339,-2.0303073,-9.543069,0.98897177
1409347531743,0.23223756,-12.940062,-7.201759,-1.8879791,-9.611931,0.4655147
1409347531757,1.0480618,-14.6585,-7.1125746,-1.7346113,-9.651758,-0.07129794
1409347531778,2.415151,-17.62312,-4.2359414,-1.5202268,-9.673373,-0.5340178
1409347531778,3.3411086,-19.594147,-2.094328,-1.2070701,-9.704645,-0.7302483
1409347531783,4.3957543,-19.608511,-0.4333505,-0.86852515,-9.738376,-0.7616566
1409347531808,5.513248,-19.608511,2.1470003,-0.49495772,-9.769553,-0.6937251
1409347531809,3.7642837,-16.78934,1.3359646,-0.082376815,-9.794391,-0.48321512
1409347531816,1.4640543,-12.889784,-2.1859062,0.18008798,-9.798023,-0.36973864
1409347531846,0.61650693,-11.479,-4.320337,0.28236586,-9.790774,-0.4810608
1409347531847,0.65541273,-10.395624,-4.8614264,0.3139856,-9.775579,-0.7140503
1409347531848,1.0384849,-9.792285,-4.453215,0.3224071,-9.751391,-0.9883372
1409347531855,1.7872716,-8.649054,-3.8337154,0.35315967,-9.723399,-1.225236
1409347531875,2.2643163,-7.4776907,-4.3400893,0.43236968,-9.693992,-1.4177445
1409347531877,3.554791,-6.0728927,-5.7945666,0.5545625,-9.653323,-1.6359098
1409347531883,1.1881226,-6.353014,-6.0884547,0.79182404,-9.576811,-1.9565547
1409347531909,1.5855601,-6.467337,-3.8780081,0.8495479,-9.494236,-2.3039336
1409347531910,0.9187749,-6.4745197,-3.7588966,0.95489836,-9.435358,-2.4965127
1409347531915,0.50996494,-5.6102133,-2.517503,0.97714615,-9.381266,-2.6846628
1409347531958,0.74758947,-4.987122,-1.2330139,0.93457043,-9.3588,-2.7766614
1409347531959,1.4490906,-4.510676,-1.115698,0.93054485,-9.359562,-2.7754421
1409347531970,1.8076223,-4.100669,-2.0398598,1.0046269,-9.352362,-2.7738879
1409347531973,1.7872716,-3.7415388,-2.296638,1.1455097,-9.3109865,-2.8572218
1409347531975,2.4319103,-3.3315318,-2.1871033,1.2972558,-9.25618,-2.9682777
1409347532024,3.1376014,-2.7335799,-1.9734207,1.5269337,-9.184273,-3.0802603
1409347532025,4.0940847,-2.3139958,-1.5454572,1.851837,-9.085984,-3.1915503
1409347532025,5.1122193,-1.5688007,-1.6208745,2.3205247,-8.952952,-3.2603989
1409347532026,6.1501055,-1.0151415,-2.9245174,2.9417799,-8.738527,-3.3398254
1409347532027,6.461352,-0.6817489,-3.4608185,3.6821501,-8.351526,-3.586666
1409347532027,6.295553,-1.091756,-3.750517,4.423318,-7.849872,-3.8709447
1409347532035,6.178836,-1.9327193,-3.6978445,5.038854,-7.3263555,-4.135803
1409347532052,7.1730285,-2.345719,-2.8407204,5.5114965,-6.864934,-4.320469
1409347532073,7.934983,-3.900753,-1.0420763,6.022797,-6.428496,-4.3093777
1409347532074,7.2047515,-8.39048,4.4023385,6.49513,-6.1785965,-3.9760056
1409347532084,-11.165958,-19.14703,19.608511,6.7086964,-6.557524,-2.8570354
1409347532087,-19.384655,-19.608511,19.566614,6.794263,-6.3854294,-3.0388663
1409347532104,-19.60911,-19.608511,10.897807,6.9041433,-6.1616464,-3.2461226
1409347532105,-19.003977,-18.547281,2.1086931,6.9704113,-5.9820094,-3.4350154
1409347532168,-12.564771,-9.133281,2.6318262,6.9360847,-5.908877,-3.625781
1409347532169,-9.657013,-7.3220673,5.009867,-3.6937683,-8.718283,2.553039
1409347532169,-3.803788,-6.5230026,4.392163,-4.311243,-8.418306,2.5914674
1409347532171,0.0077811554,-6.649895,2.2038627,-4.2971683,-8.356438,2.8061864
1409347532172,2.6844985,-6.197391,0.95109665,-3.9811728,-8.4714,2.925069
1409347532179,4.9123034,-6.1770406,-0.28191724,-3.49973,-8.671117,2.955339
1409347532345,7.165247,-9.651027,-4.97156,-2.7670186,-8.959057,2.8721607
1409347532346,6.4044895,-14.174273,-5.9124813,-1.739573,-9.407809,2.1534646
1409347532346,4.1198225,-14.649522,-4.4280763,-0.81563896,-9.69199,1.2531627
1409347532347,2.1589713,-13.494918,-2.167351,-0.2494304,-9.78336,0.6277191
1409347532347,0.86251116,-15.158888,0.41000703,0.02571984,-9.801594,0.313813
1409347532348,0.45489833,-15.552135,-0.96905315,0.11150632,-9.801638,0.29305705
1409347532348,0.9864111,-14.25807,-2.532467,0.14203034,-9.804676,0.13609643
1409347532349,0.5554548,-12.592304,-1.7459716,0.22320232,-9.803657,-0.09424714
1409347532349,0.80564886,-10.790668,-1.4580688,0.25497547,-9.8008175,-0.2221876
1409347532350,2.7814639,-8.379706,-1.0049661,0.31163552,-9.794602,-0.372894
1409347532350,4.1760864,-7.035362,-1.1767502,0.5331015,-9.779539,-0.49681148
1409347532351,3.8414967,-7.502231,-1.7687165,0.86069447,-9.750955,-0.5903125
1409347532351,2.7335799,-8.186374,-1.9847932,1.1634871,-9.711272,-0.7126465
1409347532352,1.3796587,-7.9750857,-1.7106571,1.3476126,-9.676437,-0.84908354
1409347532352,0.7188591,-7.2125325,-1.3090298,1.4051833,-9.65815,-0.9570693
1409347532353,1.1593921,-7.049727,-0.748188,1.3844521,-9.654678,-1.0202345
1409347532353,1.7609353,-7.5291657,-0.02813187,1.3909149,-9.654029,-1.0175846
1409347532354,1.7764976,-8.796297,0.41060558,1.4562349,-9.653436,-0.92787707
1409347532398,1.5215151,-10.170568,0.4141969,1.5223019,-9.656253,-0.7808765
1409347532398,1.2707225,-11.2844715,0.13227965,1.5513103,-9.662586,-0.6310922
1409347532399,1.049259,-11.662156,-0.8391677,1.5230858,-9.673221,-0.528584
1409347532399,0.8242039,-11.378444,-1.9692309,1.4765494,-9.681596,-0.50684303
1409347532400,0.83378077,-10.704475,-2.2822728,1.407871,-9.687051,-0.59101945
1409347532403,0.40282443,-10.406996,-2.4091654,1.3556603,-9.687294,-0.6992384
1409347532444,-0.22625206,-10.693104,-2.3582888,1.2727804,-9.689356,-0.81657857
1409347532444,-0.14604631,-10.5123415,-2.8119898,1.1312057,-9.697931,-0.9169968
1409347532445,1.1055226,-9.424176,-4.150947,0.99427116,-9.698503,-1.0587162
1409347532445,0.025737667,-9.130887,-11.506534,0.9768901,-9.665324,-1.3407495
1409347532454,-2.8742392,-10.57878,-8.416218,0.82703245,-9.50108,-2.2838368
1409347532465,-3.3476925,-10.513538,-3.2124202,0.4364511,-9.383093,-2.8173409
1409347532480,-3.669114,-10.004171,-0.43035775,0.05514087,-9.361824,-2.9195218
1409347532483,-3.5901055,-8.908226,0.23163901,-0.3353478,-9.377385,-2.8500218
1409347532497,-3.5392287,-8.419808,0.3561375,-0.6806109,-9.403072,-2.6998894
1409347532503,-3.6343982,-9.094974,0.57760113,-0.9757436,-9.439559,-2.4724553
1409347532515,-3.2680852,-9.498397,0.7954735,-1.2279075,-9.482271,-2.1792655
1409347532530,-1.9632454,-9.298481,0.997185,-1.4133474,-9.517232,-1.8960859
1409347532536,-0.919972,-9.31943,1.0893618,-1.4600449,-9.562046,-1.6142963
1409347532547,-0.35553896,-9.7324295,1.1055226,-1.4132359,-9.607597,-1.3664554
1409347532565,-0.33159694,-10.475231,1.0845734,-1.3156929,-9.651276,-1.1367486
1409347532565,-0.40162733,-11.425131,0.84814596,-1.2065744,-9.688354,-0.9221557
1409347532582,-0.31483752,-12.077551,0.682946,-1.0988648,-9.716264,-0.74639237
1409347532583,-0.11312603,-12.304401,0.63087213,-0.99190223,-9.737455,-0.60701233
1409347532597,0.27952304,-12.375628,1.0630256,-0.8867472,-9.753883,-0.49581602
1409347532603,1.110311,-12.066178,1.8088194,-0.7606875,-9.77032,-0.36415216
1409347532615,1.6938977,-11.818378,2.304419,-0.5896331,-9.787,-0.19320881
1409347532630,1.6071079,-11.945869,2.4570496,-0.39801878,-9.798529,-0.027949864
1409347532635,1.2737153,-11.9057665,2.6366146,-0.23645489,-9.803229,0.105529435
1409347532647,0.82779527,-11.560403,3.1669302,-0.10817762,-9.802969,0.24587049
1409347532664,0.51834464,-10.593744,5.156512,-0.02250234,-9.7959,0.4585018
1409347532664,-0.26874915,-10.141838,7.0066314,0.017838001,-9.767842,0.8714103
1409347532680,-2.1631613,-11.192893,6.26383,-0.031715427,-9.705708,1.4030808
1409347532683,-4.286818,-12.847885,3.1304188,-0.24811092,-9.630624,1.8330097
1409347532698,-5.5898623,-13.746309,-0.825401,-0.6055547,-9.592929,1.9440665
1409347532704,-5.9603653,-13.81215,-3.8019924,-1.0145859,-9.5987835,1.7333151
1409347532718,-5.471948,-13.148357,-5.474941,-1.3876903,-9.61851,1.3148943
1409347532731,-5.231331,-13.611635,-2.6880898,-1.663738,-9.633235,0.7766349
1409347532735,-5.227141,-13.918093,0.47105917,-1.8649557,-9.616938,0.4547802
1409347532748,-5.366603,-14.299968,1.5059528,-2.021507,-9.587907,0.39486217
1409347532764,-5.995081,-15.060726,5.8203044,-2.1767569,-9.55076,0.46378326
1409347532765,-7.15986,-16.506824,13.955203,-2.342956,-9.486492,0.8291002
1409347532780,-6.687604,-16.246454,12.480375,-2.3240988,-9.4911375,0.8290037
1409347532783,-4.302979,-13.613431,0.997185,-2.674251,-9.144031,2.324967
1409347532801,-2.6850972,-12.316372,-4.2239704,-2.7974224,-9.131696,2.2264183
1409347532818,-2.867655,-12.602479,-4.173094,-2.8470905,-9.200382,1.8486258
1409347532819,-2.9119477,-13.9198885,-4.0863037,-2.8289623,-9.273243,1.4745545
1409347532834,-2.3068132,-14.602835,-6.1100025,-2.7607036,-9.344091,1.1121612
1409347532837,-1.2324153,-13.657125,-7.6225395,-2.6587186,-9.4204645,0.5970498
1409347532849,-0.35673606,-12.750321,-6.715736,-2.5456252,-9.4704895,0.0026385684
1409347532865,-0.56084174,-12.784438,-5.8149176,-2.3921225,-9.499263,-0.46059197
1409347532866,-0.26874915,-13.771448,-5.2558713,-2.2519479,-9.510165,-0.8098567
1409347532885,0.95349085,-17.566856,-4.144363,-2.0834374,-9.522248,-1.0753778
1409347532885,6.4427967,-19.608511,6.489484,-1.8073841,-9.563901,-1.1981447
1409347532900,10.136452,-19.608511,2.6833014,-1.162239,-9.720235,-0.5801977
1409347532904,6.9725137,-16.07467,-4.270657,-1.4360431,-9.6966,-0.290082
1409347532917,3.3333273,-12.114062,-8.693945,0.107712045,-9.793354,-0.49901247
1409347532931,1.3676877,-11.138425,-7.765593,0.35012862,-9.749686,-0.9957056
1409347532935,1.292869,-10.195708,-3.376423,0.5075503,-9.68541,-1.451082
1409347532947,2.6198552,-9.173384,-1.1749545,0.61384267,-9.6502285,-1.6329972
1409347532965,4.252701,-7.902063,-2.3906105,0.73458445,-9.637142,-1.6601958
1409347532965,5.4444146,-5.9801173,-5.1170077,0.9520894,-9.60423,-1.7385852
1409347532981,5.4085016,-4.3873744,-4.3281183,1.2880516,-9.510419,-2.0157394
1409347532983,2.5474305,-4.250905,-4.5501804,1.654384,-9.410603,-2.207706
1409347532998,2.1086931,-4.980538,-4.414908,1.7997794,-9.327285,-2.4357557
1409347533013,1.8992004,-5.729325,-2.473809,1.8857998,-9.236935,-2.7005935
1409347533017,1.4838065,-5.8634,-3.084929,1.9399899,-9.195096,-2.8030403
1409347533033,0.7954735,-5.765238,-1.1534066,1.9468484,-9.148395,-2.9473822
1409347533037,0.23523031,-5.471948,-1.0552444,1.8893723,-9.171642,-2.9123278
1409347533047,0.84694886,-4.3179426,-2.9526494,1.7842954,-9.208036,-2.8633525
1409347533063,1.9129672,-3.1310172,-2.3768437,1.7496331,-9.159253,-3.0359938
1409347533064,3.0657754,-2.1763294,-2.248754,1.8800325,-9.08751,-3.1706502
1409347533081,4.3059716,-1.697489,-2.7383683,2.1780276,-8.965315,-3.3241112
1409347533084,5.6856303,-1.2988545,-2.3068132,2.6415808,-8.753178,-3.546026
1409347533096,6.373365,-0.7272388,-2.7257986,3.2978315,-8.461578,-3.7008677
1409347533112,6.510433,-0.29029694,-2.918532,4.0424204,-8.042838,-3.8912692
1409347533115,6.3003416,0.02932897,-3.2920272,4.7782946,-7.526882,-4.084652
1409347533129,6.563704,-0.02873042,-3.626617,5.4363465,-6.9400373,-4.2956257
1409347533148,6.1183825,-1.0755951,-3.2956185,6.018151,-6.3187985,-4.4749384
1409347533148,5.475539,-2.3133974,-2.3008277,6.4235196,-5.835378,-4.5669656
1409347533164,4.9667716,-4.347272,-0.51355624,6.697414,-5.586962,-4.483403
1409347533164,3.354875,-8.706514,6.6708446,6.850491,-5.6714077,-4.1323514
1409347533180,-8.443152,-18.608334,19.608511,6.7978005,-6.5158963,-2.739238
1409347533184,-17.735048,-19.608511,15.358206,6.934572,-6.3135204,-2.8673284
1409347533198,-19.60911,-19.608511,17.931973,7.0480995,-6.134555,-2.9768963
1409347533213,-19.571402,-19.608511,9.444528,7.082302,-5.994118,-3.1752002
1409347533216,-11.052234,-14.327501,4.4478283,7.0203424,-5.918552,-3.443241
1409347533229,-3.930082,-5.905897,5.589264,-3.2574503,-8.538759,3.556545
1409347533235,-5.783194,-6.5445504,6.9725137,-3.5150633,-8.366105,3.7179315
1409347533246,-0.23104046,-5.5760956,6.1040173,-3.730831,-8.16299,3.9518209
1409347533263,3.008913,-7.9631147,1.7878702,-3.473148,-8.115215,4.2721086
1409347533264,9.733627,-16.429611,-3.3333273,-2.9549277,-8.342435,4.2240486
1409347533277,11.847707,-19.331383,-4.7536874,-1.7019424,-8.999708,3.5041444
1409347533284,8.066664,-14.887146,-1.2246342,-1.7619661,-8.967746,3.55604
1409347533296,0.2908955,-12.076353,5.069722,0.3859981,-9.556218,2.1679747
1409347533311,-3.9510314,-11.183915,-1.3521254,0.4169538,-9.512533,2.3469718
1409347533319,-2.0045455,-8.822633,-9.996989,0.061767597,-9.603648,1.9840709
1409347533331,1.8531121,-8.257602,-3.0705638,-0.1243357,-9.757544,0.97225386
1409347533346,2.3570917,-9.200917,-2.0219033,0.057806,-9.784794,0.65182537
1409347533346,2.9700072,-9.7641535,-1.6543933,0.27899933,-9.794179,0.40816477
1409347533363,3.6355953,-9.8042555,-1.3718776,0.5418761,-9.789565,0.202933
1409347533364,3.8414967,-10.005967,-1.5005659,0.8568781,-9.769125,0.018901685
1409347533379,3.8085763,-10.047267,-1.7166426,1.1565032,-9.737109,-0.14689152
1409347533384,3.626617,-9.330204,-1.472434,1.4161454,-9.699273,-0.29838994
1409347533396,3.4183214,-8.461707,-1.0690111,1.6401179,-9.659947,-0.40720806
1409347533412,3.0029275,-8.1402855,-0.8643068,1.8358643,-9.621745,-0.4711939
1409347533415,2.6593595,-8.368932,-0.7428011,1.9820255,-9.5903,-0.517825
1409347533429,2.2301989,-8.797494,-0.6865373,2.0840409,-9.5667,-0.55264735
1409347533446,1.5831659,-9.205706,-0.6745663,2.1278214,-9.555769,-0.57451165
1409347533447,0.9187749,-9.826403,-1.0833763,2.1069639,-9.559294,-0.59243953
1409347533462,0.42317516,-10.7356,-1.6675615,2.0143986,-9.575944,-0.64333355
1409347533464,-0.062249243,-11.780669,-2.1362264,1.8649665,-9.5996065,-0.73476565
1409347533479,-0.23582886,-12.119449,-2.4115596,1.6615713,-9.62771,-0.846618
1409347533484,-0.15083471,-11.122264,-2.4187422,1.4531168,-9.650741,-0.9602517
1409347533498,-0.13467385,-9.485229,-2.1990743,1.2778763,-9.66507,-1.0601074
1409347533512,-0.1933318,-8.100781,-2.1170728,1.1391239,-9.671207,-1.1578254
1409347533519,-0.2765303,-7.4286094,-2.3343468,1.0214179,-9.67553,-1.2293092
1409347533528,-0.2657564,-7.3537903,-2.741361,0.90805215,-9.6718,-1.3424206
1409347533544,-0.74399817,-8.261791,-2.9975405,0.8042279,-9.656996,-1.505335
1409347533545,-1.3946224,-9.758766,-5.2319293,0.6519813,-9.640717,-1.6738869
1409347533564,-4.585495,-11.10311,-5.9106855,0.42065322,-9.588494,-2.0135057
1409347533565,-4.4927197,-10.801441,-2.4540567,-0.1250763,-9.520174,-2.3496814
1409347533584,-2.712032,-9.835381,-1.1468226,-0.59556437,-9.481947,-2.4307113
1409347533585,-2.654571,-9.31943,0.17597382,-0.7903031,-9.476304,-2.3969738
1409347533597,-3.2333694,-9.390059,0.022744916,-1.0034715,-9.482942,-2.2884963
1409347533611,-3.0160956,-10.459669,-0.79487497,-1.2051383,-9.499468,-2.1161625
1409347533618,-2.1583729,-10.935516,-1.4137762,-1.3472819,-9.513423,-1.9621524
1409347533629,-1.4532804,-10.963648,-1.2204443,-1.3915321,-9.527367,-1.8609917
1409347533645,-0.98341835,-10.87626,-0.8122329,-1.3818178,-9.5468025,-1.766226
1409347533645,-0.6985083,-10.766127,-0.3812766,-1.3371546,-9.570742,-1.6683328
1409347533661,-0.6440403,-10.785878,-0.089184016,-1.2689127,-9.600085,-1.5487549
1409347533664,-0.57161564,-10.978612,0.2813187,-1.1988826,-9.628282,-1.4245269
1409347533678,-0.53929394,-11.600506,0.8283938,-1.12602,-9.657428,-1.2792768
1409347533684,-0.51595044,-12.348095,1.5664065,-1.0528018,-9.687816,-1.0991834
1409347533697,0.11971009,-12.396578,2.885013,-0.9829452,-9.718359,-0.87046427
1409347533710,1.3012487,-11.565191,4.1557355,-0.8739409,-9.751591,-0.5595472
1409347533716,2.078167,-10.939706,4.9536033,-0.6903854,-9.780449,-0.19127372
1409347533730,2.0602105,-10.89661,5.3743844,-0.45854998,-9.794012,0.19351488
1409347533746,1.4281414,-10.915764,5.2486887,-0.24746114,-9.784873,0.60449404
1409347533746,0.8595184,-10.594941,6.1423244,-0.09811536,-9.757392,0.97675884
1409347533763,0.29927522,-9.90601,6.781576,-0.030154753,-9.699871,1.4429113
1409347533764,-2.9640217,-11.01273,-0.09935937,-0.04543496,-9.608499,1.960889
1409347533776,-4.583101,-12.395381,-4.345476,-0.32009113,-9.629517,1.8276571
1409347533793,-5.7508726,-14.0150585,-6.453571,-0.67616034,-9.6924,1.3306192
1409347533797,-6.0489507,-14.292187,-5.386954,-1.0560167,-9.72512,0.69085455
1409347533816,-5.5647235,-13.902531,-2.9083564,-1.4024565,-9.703935,0.19283906
1409347533817,-6.021417,-13.593678,-3.3704374,-1.6790593,-9.66177,-0.037241068
1409347533826,-7.5207863,-13.613431,-0.57041854,-1.9524268,-9.604295,-0.34049866
1409347533842,-8.250419,-14.830284,4.061165,-2.2974777,-9.527043,-0.35701853
1409347533844,-7.915829,-16.755821,10.06283,-2.6207817,-9.449925,-0.02785013
1409347533862,-6.56131,-18.744804,16.129139,-2.8393486,-9.362922,0.66647506
1409347533864,-4.293402,-18.230648,11.33056,-2.855598,-9.360744,0.6264456
1409347533877,-1.721431,-15.562909,0.3537433,-2.8345606,-9.124816,2.2075741
1409347533893,-1.1563994,-13.939641,-3.7403417,-2.717579,-9.2023,2.0255451
1409347533896,-1.3389573,-12.886192,-1.4550761,-2.6208792,-9.291582,1.7227544
1409347533913,-1.3976152,-13.790003,-3.0903158,-2.530497,-9.343657,1.5694095
1409347533930,-1.1797429,-14.700997,-6.2512608,-2.3907135,-9.425748,1.2689164
1409347533930,-0.22385786,-13.725958,-7.2807674,-2.2458029,-9.515109,0.767765
1409347533947,0.093373865,-13.044808,-6.464943,-2.0948532,-9.577579,0.22791362
1409347533947,0.4369418,-13.612234,-5.685032,-1.9538673,-9.607364,-0.22657382
1409347533960,1.2324153,-15.051149,-5.094861,-1.7881526,-9.625309,-0.5712539
1409347533965,1.6879122,-17.857153,-4.605247,-1.5615346,-9.646243,-0.8258026
1409347533979,2.4378958,-19.608511,-2.2140381,-1.3052815,-9.667946,-0.99873334
1409347533995,5.378574,-19.608511,2.8574798,-1.0136654,-9.703111,-0.9962606
1409347533997,8.554482,-19.520525,4.007295,-0.55507636,-9.765284,-0.70815897
1409347534012,6.473323,-15.433024,-0.19512744,0.04557561,-9.798293,-0.4021626
1409347534016,3.4626143,-12.083536,-4.3568487,0.4693524,-9.787779,-0.38666007
1409347534026,2.007538,-10.716447,-6.085462,0.70661277,-9.761743,-0.61602366
1409347534045,1.0893618,-9.858126,-6.0489507,0.8181164,-9.726983,-0.9417511
1409347534046,1.0049661,-8.877101,-4.235343,0.845406,-9.685902,-1.280224
1409347534061,1.8980033,-7.435792,-4.3777976,0.83692694,-9.655048,-1.5000077
1409347534065,3.0059202,-5.385158,-4.345476,0.88489366,-9.610815,-1.7376939
1409347534078,2.8832173,-4.6279917,-3.7780502,1.0427809,-9.54956,-1.9720273
1409347534095,2.456451,-4.5124717,-3.3836055,1.2302514,-9.491288,-2.138306
1409347534098,2.2104468,-4.9296613,-4.024653,1.4076319,-9.436647,-2.26686
1409347534110,2.4552538,-5.139154,-2.4331074,1.5441569,-9.357074,-2.496231
1409347534140,1.6292542,-5.185242,-3.508104,1.6829342,-9.3054495,-2.597454
1409347534140,0.7649474,-4.830302,-3.3183637,1.7253956,-9.231091,-2.8249564
1409347534141,0.22685061,-4.392163,-1.8884265,1.6686147,-9.172702,-3.0409985
1409347534145,0.3764882,-3.8564603,-1.7591397,1.5770231,-9.162285,-3.1202452
1409347534227,1.0815806,-3.2489316,-1.8614918,1.5211773,-9.149002,-3.186247
1409347534228,2.2541409,-2.3702598,-1.210269,1.5676783,-9.111708,-3.2694893
1409347534229,3.3692403,-1.927931,-1.7687165,1.7993063,-9.056172,-3.304332
1409347534230,4.542998,-1.7567455,-2.0284874,2.1824708,-8.930562,-3.4135501
1409347534231,5.6305637,-1.1091139,-2.3523033,2.73593,-8.724439,-3.5453176
1409347534232,6.491279,-0.40701428,-3.2585084,3.4513388,-8.392386,-3.7184045
1409347534234,6.2380924,-0.64583594,-3.900753,4.2586946,-7.876595,-3.9991446
1409347534235,5.8520274,-1.5382746,-4.010886,4.9303756,-7.3033285,-4.303853
1409347534261,5.5790887,-2.682703,-3.4997244,5.4170604,-6.8015003,-4.534915
1409347534262,5.0493712,-5.053561,-2.043451,5.7549114,-6.4562163,-4.622627
1409347534263,4.023456,-9.049484,2.4366987,5.907257,-6.448607,-4.437365
1409347534265,-7.9565306,-18.334797,18.664,5.8351703,-7.029616,-3.5645022
1409347534285,-17.096395,-19.608511,19.608511,5.9402294,-6.8568544,-3.7239225
1409347534286,-19.60911,-19.608511,17.848175,6.0597982,-6.640778,-3.9178224
1409347534298,-19.442713,-19.566614,7.4310036,6.139341,-6.4682784,-4.0792437
1409347534313,-9.916184,-9.916184,3.7062242,6.09818,-6.4083858,-4.232634
1409347534331,-7.8529816,-6.4805055,5.762245,-3.4119108,-8.557726,3.3607414
1409347534332,-4.537611,-5.6497173,6.1183825,-3.942643,-8.282918,3.4668756
1409347534346,1.271321,-3.8977604,3.9187095,-4.0834737,-8.120921,3.6805286
1409347534347,4.1066546,-5.1505265,0.37708676,-3.7471619,-8.173168,3.9151607
1409347534364,7.041347,-8.760384,-0.20649989,-3.1753702,-8.420447,3.8965971
1409347534365,9.976639,-15.0583315,-3.0538042,-2.1684844,-8.820108,3.6978045
1409347534390,8.627506,-19.29188,-4.249708,-0.8035027,-9.320256,2.9423828
1409347534391,5.2199583,-15.334264,-2.9873652,0.19054946,-9.592997,2.026942
1409347534418,0.5662287,-12.331934,1.965041,0.66994774,-9.673069,1.467416
1409347534418,-3.3303347,-13.047202,2.60549,0.6509303,-9.674842,1.4642777
1409347534419,-0.7290344,-10.755353,-3.157952,0.27296326,-9.686061,1.5086814
1409347534425,1.8237832,-9.890448,-3.383007,0.18050504,-9.747496,1.0602633
1409347534450,2.171541,-9.720459,-2.2062569,0.32295594,-9.777421,0.68420756
1409347534450,2.172738,-9.526528,-1.4544775,0.48728406,-9.783406,0.46682286
1409347534458,3.1118636,-9.165603,-1.3275849,0.66541475,-9.779758,0.2897168
1409347534467,3.911527,-8.39886,-1.6256629,0.92565763,-9.762318,0.10350071
1409347534488,3.425504,-8.075044,-2.0398598,1.2244343,-9.729616,-0.075873576
1409347534489,2.1984756,-8.161235,-2.3026235,1.4572818,-9.69413,-0.2656728
1409347534497,1.0672154,-8.305486,-2.6850972,1.5635414,-9.669438,-0.47715223
1409347534518,0.7344214,-8.109161,-2.3181858,1.5627033,-9.654571,-0.71946084
1409347534519,1.3383588,-7.9409685,-1.2779051,1.522067,-9.645242,-0.90720105
1409347534525,2.043451,-8.243237,-0.39624038,1.5316333,-9.637749,-0.9686501
1409347534557,2.2110453,-8.867524,0.20709845,1.6059734,-9.629888,-0.9254779
1409347534558,2.0266917,-9.907207,0.28550854,1.7012388,-9.623839,-0.8111153
1409347534559,1.9446903,-11.24377,-0.032920275,1.7692878,-9.621861,-0.6780901
1409347534565,2.0380642,-12.233772,-0.7769185,1.7881984,-9.624432,-0.5857412
1409347534580,2.457648,-12.357074,-1.8070238,1.8051877,-9.623456,-0.54843646
1409347534594,2.789245,-11.739369,-3.0418332,1.8494006,-9.611865,-0.60181993
1409347534597,2.460641,-11.403583,-4.3646297,1.9236856,-9.58571,-0.7642066
1409347534611,2.0242975,-11.001357,-5.8029466,1.963849,-9.5523,-1.0330857
1409347534626,1.87047,-10.110115,-7.5016327,1.9492996,-9.505926,-1.4170252
1409347534626,1.3982137,-9.711481,-7.917625,1.8950875,-9.422243,-1.949451
1409347534642,0.13347675,-9.913192,-4.506486,1.7774549,-9.318897,-2.4837878
1409347534646,-1.0175357,-9.815628,-1.7741034,1.5717723,-9.296923,-2.6957629
1409347534667,-1.7046716,-9.937733,-0.42556936,1.2625413,-9.337828,-2.7168636
1409347534668,-2.6755204,-9.970055,0.10354923,0.92845255,-9.398868,-2.6400142
1409347534677,-2.9191303,-9.458893,0.58657944,0.57771194,-9.470313,-2.4798803
1409347534702,-2.7455509,-8.896853,0.98222125,0.25771454,-9.540731,-2.2535276
1409347534703,-3.031658,-8.908825,0.8643068,-0.020044426,-9.601817,-1.9937589
1409347534706,-3.7175968,-9.357738,0.7015011,-0.30219987,-9.645604,-1.7439544
1409347534735,-3.8762126,-9.534908,0.9780314,-0.6255831,-9.668632,-1.5154464
1409347534736,-3.1232362,-9.313444,1.5358804,-0.9250889,-9.681011,-1.2619919
1409347534741,-2.1481974,-8.941146,2.098518,-1.1309832,-9.691147,-0.9863674
1409347534746,-1.5801731,-8.98484,2.3852234,-1.2491338,-9.701826,-0.6961469
1409347534771,-1.2904748,-9.494805,2.4145525,-1.3091165,-9.710332,-0.40746555
1409347534772,-1.0773908,-10.084976,2.1440077,-1.323766,-9.7159195,-0.13762149
1409347534778,-0.7679402,-10.53748,2.0745757,-1.3035381,-9.719249,0.08603238
1409347534797,-0.22445641,-10.96664,2.3199813,-1.2452804,-9.72355,0.26882097
1409347534797,-0.090381116,-11.903373,2.5420437,-1.1376117,-9.729302,0.46573606
1409347534809,0.46627077,-12.504915,2.7455509,-1.022892,-9.731657,0.6472421
1409347534839,1.1605892,-12.528857,2.6683378,-0.86840504,-9.734026,0.81548464
1409347534840,1.0749966,-12.609662,1.8387469,-0.6805932,-9.737597,0.94149613
1409347534841,0.52073884,-12.636597,1.1073183,-0.530419,-9.745449,0.9567038
1409347534846,-0.16400282,-12.097302,0.439336,-0.44122052,-9.75602,0.8920709
1409347534862,-0.6745663,-10.976217,-0.15382746,-0.41217166,-9.766339,0.78683543
1409347534878,-1.477821,-10.502765,-0.75357497,-0.43343082,-9.774512,0.6644157
1409347534879,-2.7006595,-11.665748,-1.1330559,-0.5124497,-9.779948,0.51029235
1409347534893,-3.83192,-13.136985,-0.27353755,-0.6813642,-9.777169,0.33623242
1409347534898,-4.1060557,-13.79539,2.9071593,-0.9194997,-9.759888,0.26365685
1409347534913,-4.119224,-13.8480625,4.8398786,-1.160255,-9.7251835,0.4949573
1409347534933,-4.398747,-13.624205,2.6024973,-1.3754656,-9.670282,0.8741536
1409347534934,-4.44304,-12.964602,0.32321724,-1.5761164,-9.626058,1.0125386
1409347534939,-4.212598,-12.97777,0.15741876,-1.7609099,-9.601977,0.9335924
1409347534946,-4.64535,-13.811551,0.7015011,-1.9089677,-9.580598,0.85928774
1409347534959,-4.8219223,-14.991294,1.6226702,-2.0500765,-9.552607,0.8457598
1409347534994,-5.1379566,-16.746841,5.380968,-2.1564875,-9.523477,0.90740055
1409347535000,-5.481525,-17.394474,11.7681,-2.234768,-9.473132,1.1983161
1409347535002,-4.06296,-15.368381,9.300277,-2.310062,-9.349996,1.8470422
1409347535023,-1.9333179,-13.007099,1.4586674,-2.356627,-9.239928,2.2892027
1409347535023,-1.2737153,-13.000515,-1.2557588,-2.3456576,-9.244405,2.282383
1409347535025,-1.5753847,-14.583082,-1.5897499,-2.2614522,-9.317133,2.0608897
1409347535026,-1.5041572,-15.549742,-4.365228,-2.1622875,-9.385909,1.8437986
1409347535048,-0.98461545,-13.158532,-7.8966756,-2.0507336,-9.488453,1.3907399
1409347535048,-0.9451111,-11.807006,-6.7480574,-1.9770101,-9.578753,0.71366256
1409347535059,-0.86610246,-12.810176,-6.985682,-1.9137796,-9.616624,0.16845766
1409347535084,-0.2657564,-15.849017,-6.4344172,-1.8256962,-9.630052,-0.3151169
1409347535085,4.1359835,-19.3242,-2.131438,-1.6842831,-9.637845,-0.66744804
1409347535086,7.2227077,-19.608511,1.5903485,-1.2346635,-9.704753,-0.681012
1409347535113,8.735844,-18.900427,1.6406267,-0.62807417,-9.775932,-0.45508137
1409347535114,5.1882353,-14.866197,-0.8170213,0.0079343,-9.80298,-0.26816565
1409347535132,1.2366052,-12.776657,-4.004901,0.3683023,-9.795584,-0.28508517
1409347535133,0.35254622,-11.675923,-6.3601966,0.45529872,-9.780989,-0.5434799
1409347535138,0.55725044,-10.507553,-6.6504936,0.47567865,-9.747995,-0.95955443
1409347535146,0.9804256,-9.075222,-6.791153,0.47751027,-9.700014,-1.3609196
1409347535162,3.5625722,-6.7444663,-4.56694,0.48645753,-9.6357355,-1.7568023
1409347535188,3.4009635,-5.692813,-3.0609868,0.69043523,-9.577335,-1.9920647
1409347535189,1.7411832,-4.7758336,-2.9005754,0.89445937,-9.532103,-2.1235251
1409347535190,1.1839328,-4.6980224,-3.9875429,0.9819857,-9.496245,-2.2421808
1409347535220,2.2511482,-5.619191,-6.595427,1.0474718,-9.442584,-2.4312174
1409347535221,2.2583308,-6.2249246,-4.2916064,1.1912428,-9.317085,-2.81838
1409347535222,1.9967642,-5.916671,-1.1611878,1.3333526,-9.236615,-3.0128877
1409347535226,0.919972,-5.8065376,-1.5939398,1.4423356,-9.230135,-2.9823973
1409347535252,0.29927522,-5.468955,-1.2904748,1.4083923,-9.23204,-2.9927013
1409347535253,0.59017074,-4.6160207,-1.0115502,1.3092946,-9.250089,-2.981949
1409347535258,1.4251486,-3.8241386,-1.6741456,1.2963343,-9.268481,-2.9300492
1409347535284,2.1589713,-3.364452,-2.48159,1.3823422,-9.240921,-2.977398
1409347535285,3.1010897,-2.8963854,-1.774702,1.5670979,-9.160333,-3.13096
1409347535286,4.23654,-2.2972364,-1.7848774,1.89702,-9.07029,-3.2096038
1409347535323,5.2385135,-1.6430209,-2.77069,2.388139,-8.9198,-3.3021746
1409347535324,5.9890957,-1.3461399,-3.0669725,3.0049932,-8.642028,-3.5292718
1409347535325,6.5259953,-1.1492168,-3.4219127,3.701023,-8.2674675,-3.757903
1409347535326,6.7869635,-1.13964,-3.8540661,4.416474,-7.7870827,-4.003311
1409347535341,6.8198833,-1.0175357,-3.9612067,5.08113,-7.2351933,-4.2431717
1409347535346,6.555324,-1.417966,-3.3632548,5.6590376,-6.655149,-4.455862
1409347535360,6.173449,-3.1304188,-2.1176715,6.125567,-6.161844,-4.5474715
1409347535373,5.677251,-5.7281275,1.3180081,6.4452763,-5.930137,-4.4116087
1409347535378,0.44651863,-13.199833,13.1794815,6.656346,-6.123836,-3.7897332
1409347535390,-16.853384,-19.608511,19.608511,6.1114607,-7.5185413,-1.5139333
1409347535407,-19.592352,-19.608511,19.156008,6.236373,-7.3588305,-1.7679473
1409347535407,-19.60911,-19.608511,10.373477,6.3458867,-7.203536,-2.0022922
1409347535430,-15.337854,-16.212337,5.834071,6.371761,-7.115013,-2.2243268
1409347535431,-6.256049,-6.169858,5.153519,6.331263,-7.0941133,-2.399806
1409347535438,-7.2233067,-6.297349,6.033388,-3.5509448,-8.429086,3.5371857
1409347535447,-1.5520413,-4.8297033,4.8380833,-3.9302819,-8.185445,3.7042885
1409347535467,1.8806454,-5.34326,1.9357121,-3.7985337,-8.116206,3.9835594
1409347535468,4.0521865,-7.8062944,0.088585466,-3.3893313,-8.259002,4.058536
1409347535480,7.5405383,-14.053964,-3.9001546,-2.7431834,-8.581658,3.873046
1409347535493,6.7851677,-19.04767,-5.5138464,-1.6333251,-9.158565,3.1021519
1409347535509,2.7874494,-17.255013,-2.6791117,-0.6964656,-9.552768,2.1047482
1409347535510,-1.6005238,-14.626178,2.7204118,-0.30985332,-9.677261,1.557245
1409347535531,1.1671734,-12.80479,-4.6351743,-0.40374622,-9.671959,1.5686351
1409347535532,2.0961237,-9.664195,-5.507262,-0.26871377,-9.754733,0.97126484
1409347535540,2.0530279,-8.5383215,-3.2770636,-0.06204612,-9.797299,0.4236365
1409347535547,2.2307975,-8.132504,-1.4640543,0.13778,-9.804975,0.11779577
1409347535569,3.1974564,-7.355586,-0.5446809,0.35180327,-9.800319,-0.019739596
1409347535570,4.1437645,-6.889914,-0.44891283,0.6474907,-9.784475,-0.12328181
1409347535578,4.052785,-7.754221,-1.4239515,1.0106854,-9.752195,-0.2088773
1409347535598,3.4650085,-8.531139,-2.4486697,1.324508,-9.710506,-0.34947455
1409347535601,3.0430303,-8.523956,-2.8215668,1.5602068,-9.665325,-0.5635802
1409347535607,2.7659016,-8.362348,-2.4768016,1.7463676,-9.617371,-0.7916846
1409347535628,2.8137856,-8.500613,-1.8154035,1.8841461,-9.575279,-0.96664083
1409347535629,2.885013,-8.7849245,-1.1875241,2.0133438,-9.538704,-1.0629975
1409347535647,2.6264393,-9.275736,-0.8607155,2.1331317,-9.509729,-1.0886648
1409347535648,2.2589293,-10.186729,-0.7445967,2.2106586,-9.492827,-1.0814812
1409347535660,2.2942438,-11.384429,-0.6979098,2.2323654,-9.490889,-1.0535446
1409347535677,2.397793,-12.136807,-0.7541735,2.2321038,-9.496602,-1.0013251
1409347535692,2.4468741,-11.637616,-1.055843,2.217086,-9.50629,-0.9409356
1409347535695,2.5959132,-10.5919485,-1.6124948,2.2097018,-9.511041,-0.9097861
1409347535711,2.2212207,-10.322002,-2.8856115,2.2330697,-9.501404,-0.95241386
1409347535711,1.5388732,-10.476428,-4.395156,2.226455,-9.488952,-1.083084
1409347535731,0.6817489,-10.600926,-5.5347958,2.1556768,-9.473048,-1.335966
1409347535731,0.45848963,-10.060435,-6.7690067,2.0024352,-9.453076,-1.6733053
1409347535738,-0.54049104,-10.375872,-6.3925185,1.8192545,-9.400981,-2.1171288
1409347535755,-1.6729485,-10.658387,-3.58412,1.5273194,-9.356865,-2.5073395
1409347535758,-2.0667946,-10.314221,-2.0691888,1.1607807,-9.366069,-2.6645277
1409347535774,-2.7569232,-10.087969,-1.0905589,0.84009624,-9.404616,-2.6491222
1409347535792,-2.814384,-9.285313,-0.33877954,0.48454148,-9.4451,-2.5933907
1409347535793,-2.4899697,-8.198345,0.3890578,0.17592034,-9.493634,-2.4515996
1409347535809,-2.7539306,-8.336611,0.6793547,-0.07844576,-9.543679,-2.2544162
1409347535810,-3.9893386,-9.972448,-0.044891283,-0.33636314,-9.5910225,-2.0173066
1409347535823,-5.029619,-11.034277,-0.34955344,-0.6774581,-9.614541,-1.8088675
1409347535826,-4.622605,-10.778696,0.092775315,-1.0733325,-9.612697,-1.6169174
1409347535840,-3.3800142,-10.031107,0.44113165,-1.4083169,-9.599707,-1.4257206
1409347535853,-2.190096,-9.726444,0.748188,-1.6017169,-9.593149,-1.2555425
1409347535859,-1.2515689,-9.854534,1.1264719,-1.6893697,-9.597248,-1.099649
1409347535898,-0.6464345,-10.392033,1.7064673,-1.6646754,-9.618643,-0.93859816
1409347535899,-0.2136825,-11.099519,2.2026656,-1.5602608,-9.653719,-0.73598653
1409347535900,-0.18614918,-11.862671,2.2930467,-1.4073595,-9.692212,-0.50071573
1409347535958,-0.021547815,-12.054806,2.123657,-0.9878081,-9.756617,0.05531493
1409347535959,0.2885013,-11.757326,2.1948843,-0.9878081,-9.756617,0.05531493
1409347535960,0.58657944,-11.163564,2.7102363,-0.9878081,-9.756617,0.05531493
1409347535960,1.0474633,-10.975619,3.0005333,-0.85006267,-9.766189,0.26338452
1409347535961,1.1755531,-11.344925,2.6964695,-0.68698317,-9.770307,0.48940963
1409347535962,1.049259,-11.574169,2.7886465,-0.5175199,-9.769544,0.67718434
1409347535963,-0.2861071,-11.84232,5.6215854,-0.3679176,-9.761956,0.8597906
1409347535977,-1.2599486,-11.5155115,5.7664347,-0.36500993,-9.718681,1.2587188
1409347535990,-2.7168205,-11.493365,2.3451207,-0.45305687,-9.659917,1.6282244
1409347535991,-3.989937,-12.539033,-2.717419,-0.6421003,-9.63924,1.6861594
1409347536005,-4.4262805,-13.84507,-4.859631,-0.8886337,-9.681314,1.2856525
1409347536006,-4.7536874,-14.879964,-3.086126,-1.1278969,-9.708094,0.80694133
1409347536027,-5.783793,-15.188217,-4.9518075,-1.3578961,-9.69643,0.5529458
1409347536028,-6.539762,-14.140754,-4.9536033,-1.6280228,-9.66937,0.15236573
1409347536041,-5.6946087,-12.78803,-2.7982233,-1.9324753,-9.611179,-0.24727519
1409347536052,-5.2343235,-12.476185,0.43155485,-2.157993,-9.553814,-0.48794514
1409347536058,-6.187216,-14.054563,4.372411,-2.3315003,-9.514016,-0.46691635
1409347536071,-7.019201,-15.458163,8.756793,-2.5193653,-9.476893,-0.10797186
1409347536089,-6.0902505,-15.474324,11.828553,-2.7127972,-9.407009,0.5650665
1409347536089,-3.714604,-14.2383175,6.7923503,-2.8105073,-9.295717,1.3642155
1409347536103,-1.614889,-12.530653,-0.5602432,-2.8070157,-9.236355,1.7265059
1409347536106,-0.91937345,-13.47337,-0.86610246,-2.7510078,-9.275994,1.5994544
1409347536120,-0.83378077,-15.367783,-1.6663644,-2.618439,-9.334603,1.4762578
1409347536127,-0.18255788,-15.656283,-5.318719,-2.4207532,-9.416032,1.2840197
1409347536140,0.30406362,-13.646351,-7.259818,-2.1902068,-9.522143,0.83794254
1409347536154,0.83856916,-12.203845,-6.681618,-1.986834,-9.598994,0.28672457
1409347536159,0.5805939,-12.261904,-5.5820813,-1.8023162,-9.637004,-0.2240402
1409347536174,0.17058687,-13.163919,-4.5699325,-1.6432424,-9.648092,-0.6200599
1409347536189,0.54408234,-15.853806,-4.6525326,-1.5086917,-9.649816,-0.88049704
1409347536189,2.0147207,-19.437326,-2.813187,-1.3411101,-9.655582,-1.068425
1409347536205,4.570531,-19.608511,0.5410896,-1.0752597,-9.689784,-1.0593663
1409347536207,8.258201,-19.608511,2.236783,-0.6733146,-9.748322,-0.82900834
1409347536223,6.8528037,-16.721703,-1.4993688,-0.07285613,-9.790863,-0.55143726
1409347536227,2.8113914,-13.011888,-5.069722,0.35785395,-9.784059,-0.56083435
1409347536239,0.91458505,-11.629835,-7.3909006,0.54676294,-9.754589,-0.8482046
1409347536256,0.13946225,-10.552444,-6.055535,0.6264925,-9.701087,-1.2910349
1409347536260,1.168969,-9.562442,-3.5565867,0.6215651,-9.649476,-1.6345237
1409347536271,3.6715083,-7.7254906,-2.7180176,0.6421419,-9.618224,-1.8021685
1409347536287,4.9823337,-5.9968767,-2.8006175,0.83080053,-9.5852,-1.8984513
1409347536288,5.2379146,-4.975151,-3.3854012,1.1406407,-9.538288,-1.9724145
1409347536330,3.7936125,-5.439028,-6.0800753,1.5005063,-9.460201,-2.1032093
1409347536331,1.8363527,-5.861604,-7.61416,1.7463915,-9.342622,-2.415766
1409347536332,0.92416185,-6.0728927,-4.6046486,1.7996131,-9.199353,-2.8816147
1409347536334,-0.004189853,-6.1620765,-2.0578163,1.745888,-9.127082,-3.1334805
1409347536340,0.0676362,-5.7478795,-1.3587095,1.5863153,-9.134653,-3.1956403
1409347536373,0.015562311,-5.8304796,-1.7405846,1.438988,-9.162602,-3.1853433
1409347536374,0.415394,-5.6126075,-1.5191209,1.3177993,-9.185299,-3.1723938
1409347536375,1.5233108,-4.520851,-1.2617443,1.2717323,-9.204569,-3.1351242
1409347536395,2.6485856,-4.1545386,-1.3293805,1.3611141,-9.20147,-3.1065626
1409347536396,3.9588125,-3.8642416,-1.9626468,1.5944299,-9.168869,-3.0919285
1409347536400,5.489306,-2.5187001,-2.4355016,1.983345,-9.075316,-3.1425054
1409347536407,6.181829,-2.0805612,-1.6831238,2.5795784,-8.874105,-3.2812223
1409347536431,6.357204,-1.4634558,-1.8842367,3.2700279,-8.625557,-3.328228
1409347536431,6.343437,-1.2641385,-1.6956934,3.9751656,-8.2926,-3.4060652
1409347536440,6.335656,-1.2539631,-1.4293385,4.652036,-7.913898,-3.4495187
1409347536456,6.0758853,-1.541866,-1.1468226,5.279286,-7.5237784,-3.4194064
1409347536459,5.4683566,-2.147599,-0.41299978,5.819847,-7.148324,-3.3468275
1409347536475,3.4847605,-4.1317935,1.2755109,6.23699,-6.8799696,-3.1521997
1409347536492,-0.46567222,-8.109161,7.1221514,6.3390346,-6.970854,-2.7192316
1409347536492,-8.693945,-16.079458,16.709732,5.8294187,-7.763685,-1.3832804
1409347536513,-17.691954,-19.608511,11.09114,5.951033,-7.6438165,-1.5256699
1409347536514,-19.60911,-19.608511,17.521366,6.0722795,-7.512783,-1.6899346
1409347536520,-18.79149,-19.608511,13.002311,6.15283,-7.3994284,-1.8872097
1409347536540,-11.792641,-16.734272,6.0968347,6.200013,-7.2959747,-2.1210816
1409347536540,-9.248801,-10.058042,6.9689226,-3.3737385,-8.461798,3.6312869
1409347536554,-5.285799,-8.269572,6.640917,-3.8357224,-8.219029,3.7289662
1409347536573,-1.9470845,-8.300697,4.395156,-3.97902,-8.074558,3.890925
1409347536573,-0.04369418,-8.937555,1.3365631,-3.8314786,-8.098188,3.9886713
1409347536597,4.6603136,-11.35091,-2.1332338,-3.5340457,-8.275154,3.8990693
1409347536597,6.9767036,-18.268358,-4.7668557,-2.8430269,-8.70916,3.4983034
1409347536599,3.537433,-18.872295,-5.374983,-1.8897458,-9.23854,2.6923282
1409347536608,-0.61890113,-14.875175,-1.2360066,-1.32665,-9.530385,1.8926578
1409347536635,-0.7577648,-11.062409,-1.8956091,-1.1828321,-9.606009,1.5798485
1409347536637,1.1976994,-8.863934,-2.4762032,-1.1312162,-9.655152,1.2918204
1409347536648,2.8078,-6.9557543,-2.1571758,-0.97479475,-9.706968,0.9974616
1409347536680,2.7210102,-6.6534867,-2.023699,-0.6885794,-9.752062,0.77042294
1409347536681,2.3133974,-7.4842744,-0.56563014,-0.38872403,-9.782677,0.5643765
1409347536682,3.5488055,-7.043741,-0.9331401,-0.11521044,-9.795912,0.44408444
1409347536683,5.866991,-6.057929,-1.1438298,0.25405192,-9.799247,0.28395286
1409347536687,7.141904,-6.615778,-1.6879122,0.8258327,-9.771608,0.063906215
1409347536705,6.551733,-8.200141,-2.747945,1.4692388,-9.695053,-0.1330369
1409347536707,5.312135,-8.929175,-3.5835214,2.0197368,-9.588338,-0.39345515
1409347536728,4.3981485,-8.634089,-4.2281604,2.4042094,-9.480867,-0.70945907
1409347536729,4.11683,-8.714894,-4.1760864,2.6540642,-9.380528,-1.0639791
1409347536742,3.952827,-9.144054,-3.2555158,2.8330631,-9.285374,-1.387809
1409347536761,3.3680432,-10.049063,-2.1751323,2.9529917,-9.21524,-1.5904719
1409347536762,2.4133554,-11.195287,-1.3910311,3.0032768,-9.188078,-1.6522657
1409347536768,1.4682442,-12.065579,-1.033098,2.9333932,-9.213817,-1.6343756
1409347536797,1.0522517,-12.204443,-0.80205756,2.7616565,-9.278788,-1.5645372
1409347536798,1.0103531,-11.553819,-0.7978677,2.5585325,-9.35429,-1.4565535
1409347536802,0.85173726,-10.520123,-0.98461545,2.375688,-9.419108,-1.3442092
1409347536808,0.56084174,-9.741408,-1.3281834,2.2182863,-9.469694,-1.2547803
1409347536824,0.56682724,-9.117719,-1.4856021,2.0716279,-9.50889,-1.208212
1409347536840,-0.17357962,-9.128492,-2.1930888,1.9498342,-9.533293,-1.2185439
1409347536841,-0.623091,-9.813833,-2.6126726,1.7741219,-9.560902,-1.2696736
1409347536854,-0.62847793,-10.101137,-3.2184057,1.552548,-9.586381,-1.364278
1409347536873,-1.2389994,-10.53329,-5.5910597,1.3350576,-9.595873,-1.5189525
1409347536873,-2.48578,-11.134235,-8.528745,1.0494769,-9.567397,-1.8798773
1409347536886,-4.312556,-11.404779,-5.493496,0.6430197,-9.474384,-2.448048
1409347536887,-5.7921724,-10.338163,0.33877954,0.12308745,-9.433267,-2.6774452
1409347536902,-4.994903,-9.04709,1.0049661,-0.44564447,-9.499498,-2.3940096
1409347536907,-4.848857,-9.256582,0.21428105,-0.92143524,-9.5084095,-2.2161884
1409347536922,-3.903746,-9.6845455,-0.86610246,-1.3156624,-9.4818945,-2.1291096
1409347536934,-2.4971523,-9.312846,-1.0564415,-1.5234628,-9.46105,-2.0827854
1409347536940,-1.4556746,-9.220071,-0.8242039,-1.5925825,-9.462001,-2.0259798
1409347536953,-1.2114661,-9.627085,-0.48123455,-1.5812565,-9.479913,-1.9496757
1409347536971,-1.3796587,-10.139444,-0.26156655,-1.5406939,-9.5087595,-1.8385239
1409347536972,-1.4107834,-10.749966,-0.074818805,-1.5031916,-9.540046,-1.7024443
1409347536991,-1.3377602,-11.501146,0.12270284,-1.4736298,-9.570473,-1.5507565
1409347536992,-1.1444284,-11.935694,0.4141969,-1.4221548,-9.602889,-1.3901017
1409347537013,-1.0259154,-12.303204,0.64703304,-1.3663762,-9.6345625,-1.2159808
1409347537014,-0.7541735,-12.746131,1.1869255,-1.3084911,-9.662673,-1.0444952
1409347537020,-0.25857377,-12.728175,2.3900118,-1.2319443,-9.692038,-0.84682953
1409347537039,0.27593175,-12.318168,3.4213142,-1.1248698,-9.724927,-0.5751813
1409347537041,0.66498953,-12.0727625,4.147356,-0.98884064,-9.75321,-0.25981444
1409347537055,0.31663316,-12.029667,5.4504004,-0.8345432,-9.770744,0.08043453
1409347537071,-0.7188591,-11.727399,8.756793,-0.72807133,-9.768077,0.47431114
1409347537072,-2.296638,-11.361684,10.51713,-0.7319962,-9.716481,1.1065971
1409347537086,-3.807978,-11.036672,6.525397,-0.8848253,-9.590509,1.8465104
1409347537088,-4.912902,-11.066599,0.38187516,-1.1468891,-9.47629,2.2483184
1409347537104,-5.9717374,-12.39957,-4.758476,-1.4553692,-9.446972,2.192486
1409347537108,-6.7265096,-13.812748,-8.770559,-1.7768793,-9.48939,1.7217909
1409347537131,-5.449203,-14.41908,-9.019556,-2.0807867,-9.540183,0.90863
1409347537132,-4.44304,-14.256274,-5.910087,-2.2449865,-9.54531,0.13225013
1409347537139,-5.380968,-13.328521,-1.0289081,-2.3301396,-9.517009,-0.40913522
1409347537165,-4.6399627,-12.947843,1.4532804,-2.4866354,-9.471594,-0.5253274
1409347537166,-4.051588,-14.762648,5.17387,-2.5704122,-9.454739,-0.4138838
1409347537168,-4.409521,-16.857574,10.645219,-2.5776265,-9.461816,0.016897067
1409347537189,-3.7732618,-16.95454,13.810354,-2.5708592,-9.428923,0.8102516
1409347537190,-2.8951883,-15.961544,8.751406,-2.6220863,-9.411613,0.8465352
1409347537206,-2.753332,-14.970943,1.1468226,-2.4587998,-9.253098,2.1224747
1409347537209,-2.7820623,-13.284826,-2.9400797,-2.447622,-9.264386,2.0858257
1409347537224,-2.3403323,-12.26789,-2.380435,-2.4709845,-9.3227825,1.7749158
1409347537238,-2.0141222,-13.496115,-2.19668,-2.4453735,-9.376546,1.5069578
1409347537240,-1.4945804,-14.796166,-4.9548006,-2.3644123,-9.434688,1.2516451
1409347537256,-0.45310268,-13.978547,-6.6271505,-2.2540803,-9.509207,0.8151673
1409347537271,-0.29628247,-12.719795,-6.647501,-2.1161578,-9.571364,0.28505373
1409347537271,-0.08619126,-12.54023,-5.322909,-1.9895109,-9.600567,-0.2034137
1409347537289,0.85054016,-16.540941,-3.6194344,-1.8480154,-9.616061,-0.5353422
1409347537290,2.4797945,-19.598337,-0.35075054,-1.611689,-9.648148,-0.6971944
1409347537309,4.976947,-19.608511,3.8444893,-1.2740476,-9.705554,-0.59110564
1409347537328,8.08881,-19.608511,3.4434607,-0.80942196,-9.770637,-0.22340865
1409347537328,6.9820905,-16.70614,-1.8291701,-0.20109527,-9.804339,0.06973984
1409347537329,3.4691982,-13.110648,-5.959168,0.25354266,-9.803364,-0.013178594
1409347537342,1.5945383,-11.543644,-9.679757,0.46877766,-9.788171,-0.37728074
1409347537359,1.2096704,-10.390237,-9.021352,0.57709235,-9.742927,-0.9553766
1409347537360,2.56419,-8.933365,-6.4846954,0.63498133,-9.668974,-1.5093386
1409347537368,3.9228995,-7.4992385,-4.5920787,0.77932054,-9.592117,-1.8852973
1409347537391,3.4979286,-5.6365495,-2.8209682,0.9894304,-9.518665,-2.1415865
1409347537392,2.4905684,-4.4478283,-1.6573862,1.1733795,-9.465928,-2.2781134
1409347537401,2.3062148,-3.891775,-3.7618895,1.3166306,-9.436484,-2.3215594
1409347537426,3.4392707,-4.279037,-6.145317,1.467207,-9.365213,-2.5120642
1409347537428,2.9724014,-4.6513352,-5.2863975,1.709365,-9.226372,-2.850005
1409347537429,1.4347254,-5.2594624,-3.0783448,1.8959371,-9.09949,-3.1265154
1409347537440,0.1592144,-5.6784477,-1.8489223,1.9279493,-9.05593,-3.2316415
1409347537462,0.009576807,-4.903325,-1.2228385,1.7944057,-9.068242,-3.273764
1409347537463,0.41838676,-3.530849,-1.3617022,1.6429508,-9.093839,-3.2822554
1409347537469,1.3006501,-2.4366987,-1.7208325,1.5717294,-9.087051,-3.3355036
1409347537490,2.3834279,-1.7543513,-3.0735564,1.6509216,-9.03365,-3.440642
1409347537491,3.74094,-1.4933833,-3.4715924,1.8883158,-8.884416,-3.6975477
1409347537506,5.0374002,-1.7004818,-2.8275523,2.3109372,-8.654236,-3.9917662
1409347537520,5.495291,-1.7112557,-3.2866404,2.8930848,-8.388235,-4.175878
1409347537522,5.8280854,-1.5490485,-3.232771,3.5111933,-8.038164,-4.385186
1409347537536,6.0447607,-1.3461399,-3.176507,4.1359286,-7.636068,-4.5557604
1409347537540,5.858013,-1.1043255,-3.9282866,4.74838,-7.1909275,-4.6812253
1409347537557,5.7987566,-1.3395559,-3.8361096,5.2566624,-6.6848693,-4.88369
1409347537560,5.644929,-2.432509,-2.7461493,5.684143,-6.211953,-5.0271816
1409347537569,4.9146976,-4.687847,-1.2617443,6.0312166,-5.9241953,-4.969786
1409347537599,3.632004,-8.904634,3.8115692,6.1872697,-6.007791,-4.6684594
1409347537602,-4.3502645,-18.367718,19.27033,6.1437793,-6.7228255,-3.6370296
1409347537603,-17.22269,-19.608511,16.44637,6.2508574,-6.5269294,-3.8074143
1409347537629,-19.60911,-19.608511,17.973272,6.3492546,-6.3306365,-3.972454
1409347537630,-19.065626,-19.608511,10.052056,6.3566875,-6.2042427,-4.155753
1409347537631,-10.684125,-14.292187,3.2333694,6.2368264,-6.130252,-4.4376073
1409347537654,-7.838018,-8.359355,7.157466,-3.148936,-8.712524,3.2165978
1409347537654,-3.0544028,-6.8905125,8.980651,-3.6066751,-8.467058,3.3869178
1409347537669,0.5931635,-6.7743936,6.130952,-3.5645506,-8.281345,3.8579376
1409347537669,2.3343468,-6.4727244,3.7134068,-3.2273724,-8.260701,4.185126
1409347537683,5.401319,-6.952163,1.8363527,-2.753746,-8.345319,4.352349
1409347537688,8.486847,-12.006922,-1.6747441,-2.0282726,-8.572795,4.308559
1409347537702,6.8905125,-15.984888,-5.0906715,-0.98251003,-9.009186,3.7469528
1409347537720,1.0977415,-14.849438,-3.084929,-0.16787995,-9.400789,2.786999
1409347537722,-0.25797522,-12.501324,-1.7292122,-0.01177344,-9.562556,2.1743405
1409347537741,0.20171149,-12.795811,-2.1655555,-0.020725977,-9.641435,1.7924076
1409347537742,1.0552444,-12.2080345,-3.4476504,0.008968904,-9.705568,1.404375
1409347537749,0.670975,-11.737574,-2.777274,0.108381465,-9.760216,0.9470206
1409347537771,0.14544775,-10.781689,-1.0965444,0.16488633,-9.7853985,0.62382513
1409347537772,1.0887632,-9.044097,-0.7733272,0.17076573,-9.793401,0.4801428
1409347537788,2.4552538,-7.4669166,-0.9504981,0.26517478,-9.797267,0.33708677
1409347537788,3.2267854,-7.2472486,-1.3479356,0.47320673,-9.793631,0.17679098
1409347537805,3.4446578,-8.051102,-1.9213469,0.73362994,-9.779152,0.019509295
1409347537819,3.769072,-8.617331,-2.3349452,1.010975,-9.75292,-0.1699781
1409347537822,3.828927,-8.622119,-1.9458874,1.3031889,-9.711836,-0.3903028
1409347537839,3.6948519,-8.611345,-1.216853,1.5843209,-9.662119,-0.5511662
1409347537850,3.472191,-8.944737,-0.6985083,1.8253696,-9.615356,-0.61916244
1409347537851,2.9472623,-9.689334,-0.5626374,2.0167694,-9.576652,-0.6251123
1409347537870,2.4983494,-10.930728,-0.76315176,2.1245184,-9.554076,-0.6135583
1409347537871,2.172738,-12.035053,-1.0139444,2.1556406,-9.546868,-0.61715955
1409347537892,1.8986019,-12.597691,-1.2725182,2.1247187,-9.552212,-0.64124537
1409347537893,1.6693572,-12.230181,-1.3174095,2.0663192,-9.562695,-0.6749714
1409347537901,1.2348095,-11.549629,-1.2850877,1.9940935,-9.575998,-0.7030232
1409347537923,0.49919105,-11.236588,-1.1611878,1.9007448,-9.593689,-0.7201909
1409347537924,-0.31124622,-11.022306,-1.2264298,1.7590299,-9.620875,-0.7175965
1409347537929,-0.6434417,-10.502765,-1.9351135,1.5660262,-9.654244,-0.7166037
1409347537959,-0.65900403,-10.039486,-3.2184057,1.3625425,-9.679511,-0.7880086
1409347537960,-0.46926352,-9.764751,-4.961983,1.1691235,-9.686779,-0.9848189
1409347537962,-0.7493851,-9.578004,-6.6103907,1.0035785,-9.663032,-1.337546
1409347537969,-2.9107506,-10.043676,-4.787805,0.82007194,-9.600364,-1.8250787
1409347537993,-3.7032316,-9.753379,-3.0986955,0.45339143,-9.558609,-2.1442554
1409347537994,-4.2730513,-8.419808,-2.9281087,0.055406537,-9.52114,-2.3484533
1409347538003,-4.951209,-7.5052238,-3.5631707,-0.35883945,-9.470394,-2.5205672
1409347538024,-4.43466,-7.6387005,-2.3373394,-0.81490713,-9.397546,-2.6818783
1409347538025,-3.9019501,-8.449138,-0.29328972,-1.196301,-9.3584585,-2.6755362
1409347538029,-3.691859,-9.171588,0.12509704,-1.4887761,-9.374223,-2.46533
1409347538060,-2.7018566,-9.43914,-0.09995792,-1.7182555,-9.398549,-2.2102625
1409347538062,-1.496376,-9.564836,-0.10055647,-1.8116336,-9.427018,-2.0049129
1409347538063,-0.8194155,-9.862914,-0.24361002,-1.7747718,-9.467164,-1.842118
1409347538069,-0.4333505,-10.103531,-0.51954174,-1.6714015,-9.509096,-1.7186936
1409347538092,-0.35254622,-10.065224,-0.81163436,-1.5334872,-9.547344,-1.633106
1409347538093,-0.3321955,-10.334572,-0.7649474,-1.4020252,-9.574373,-1.59251
1409347538101,-0.17058687,-11.063606,-0.55365914,-1.283969,-9.596568,-1.5581083
1409347538125,-0.055066638,-11.939285,-0.30166942,-1.1585777,-9.623748,-1.4871324
1409347538126,0.09696517,-12.318767,0.34955344,-1.0376577,-9.648896,-1.4115418
1409347538129,0.36152446,-11.927315,2.1206641,-0.9221695,-9.677903,-1.2877064
1409347538163,0.37469256,-11.732785,4.771045,-0.80560124,-9.71956,-1.0254724
1409347538164,0.22266077,-12.283452,8.919599,-0.6998903,-9.765672,-0.5587369
1409347538165,-0.6919243,-13.701418,15.843031,-0.60824794,-9.784858,0.23870882
1409347538170,-1.1270704,-13.109451,11.505336,-0.6131323,-9.66737,1.5285325
1409347538187,-2.356493,-11.847707,1.407192,-0.6943694,-9.518887,2.253673
1409347538189,-3.6715083,-11.720815,-6.2662244,-0.84797835,-9.517126,2.2080846
1409347538203,-3.8642416,-12.604874,-10.563218,-1.0995079,-9.606859,1.633931
1409347538220,-4.8201265,-13.974956,-10.4171715,-1.2774136,-9.692154,0.7750913
1409347538221,-4.8165355,-14.348451,-7.499837,-1.4701403,-9.69576,-0.036478013
1409347538243,-5.1104236,-13.704411,-1.6927006,-1.641705,-9.648908,-0.6113915
1409347538244,-5.09127,-12.77546,3.0843303,-1.8417977,-9.602661,-0.7530513
1409347538249,-4.4526167,-12.366651,6.06152,-2.0340536,-9.578979,-0.5255488
1409347538272,-3.8792052,-13.364434,8.443152,-2.1519177,-9.567567,-0.035982747
1409347538273,-4.593276,-15.257648,9.861118,-2.1949682,-9.539633,0.58985436
1409347538280,-5.5264163,-15.652692,9.436746,-2.2698495,-9.456048,1.2654402
1409347538306,-5.85502,-15.393519,3.8786068,-2.41355,-9.327193,1.8299222
1409347538307,-5.9172697,-14.340071,-2.908955,-2.5904403,-9.254288,1.9540123
1409347538309,-5.422867,-13.101071,-3.430891,-2.7875643,-9.261464,1.6202279
1409347538323,-5.1439424,-13.03583,-2.6791117,-2.9422903,-9.266962,1.27935
1409347538343,-4.460996,-13.6972275,-4.8404775,-3.0347273,-9.27087,1.005862
1409347538344,-3.3716345,-13.654132,-7.750031,-3.0655224,-9.295564,0.60453016
1409347538349,-2.0572178,-13.131,-7.819463,-3.0263412,-9.3278885,0.04646803
1409347538376,-1.1366472,-12.792818,-6.4936733,-2.9277272,-9.346411,-0.49334788
1409347538376,-0.84216046,-13.6972275,-5.7484784,-2.7853518,-9.359149,-0.9047152
1409347538381,0.4417302,-16.300323,-5.3965306,-2.6168666,-9.374753,-1.1985028
1409347538401,2.4073699,-19.52651,-2.349909,-2.3427973,-9.420317,-1.3925805
1409347538402,6.1824274,-19.608511,4.2425256,-1.9327532,-9.522569,-1.3249745
1409347538423,10.782886,-19.608511,5.801749,-1.3210037,-9.6793995,-0.8570779
1409347538424,7.885902,-17.777546,-0.08020575,-1.592647,-9.661388,-0.5398242
1409347538429,3.3291376,-14.31972,-4.812944,0.12808219,-9.801946,-0.27544492
1409347538460,1.5340848,-13.067553,-7.9870567,0.4132912,-9.78248,-0.550116
1409347538461,1.2623428,-11.507132,-8.013393,0.54409784,-9.7384205,-1.018594
1409347538462,2.7252002,-10.1304655,-4.4023385,0.5818261,-9.677611,-1.4750345
1409347538469,3.989937,-7.8170686,-2.5791538,0.66791654,-9.636923,-1.6893747
1409347538492,4.642357,-5.4300494,-3.357868,0.8648244,-9.604988,-1.7795135
1409347538493,4.3119574,-4.437054,-4.7081976,1.1373335,-9.545414,-1.9395728
1409347538502,3.7020345,-4.2024226,-5.2127757,1.409284,-9.456859,-2.1799457
1409347538524,1.7034745,-4.8985367,-4.1036615,1.6496927,-9.348708,-2.4597807
1409347538525,1.5777789,-5.0493712,-3.739743,1.7120799,-9.274905,-2.6861355
1409347538529,0.96785605,-5.3366756,-5.04578,1.753796,-9.201667,-2.902402
1409347538556,1.0881647,-5.4384294,-2.783858,1.7188991,-9.102779,-3.2179463
1409347538557,0.777517,-5.2756233,-2.3666685,1.701388,-9.068866,-3.3213515
1409347538562,0.7565677,-5.2037973,-1.1935096,1.6504555,-9.056388,-3.3805609
1409347538570,1.1432313,-4.994903,-1.0923545,1.6247523,-9.083502,-3.3197207
1409347538601,2.6330233,-4.235343,-1.6418238,1.6417332,-9.106409,-3.2478282
1409347538602,3.7978024,-3.5344403,-1.851915,1.8456808,-9.066954,-3.2487242
1409347538603,5.710171,-2.0602105,-2.005144,2.2121773,-8.97031,-3.2878902
1409347538623,6.271013,-1.4652514,-2.7042508,2.8502967,-8.754013,-3.3783782
1409347538624,6.349423,-1.1725603,-3.843891,3.5451174,-8.425895,-3.5506098
1409347538629,6.4110737,-0.8631097,-4.7740383,4.196788,-7.9887533,-3.8389037
1409347538652,6.3446345,-0.3633201,-5.295376,4.7746544,-7.4531465,-4.221812
1409347538653,5.6886234,-0.20829555,-4.923077,5.298626,-6.833933,-4.625184
1409347538679,5.803545,-0.3417723,-3.7373488,5.701939,-6.2451496,-4.965523
1409347538680,5.762245,-1.8974048,-2.0518308,6.0995774,-5.716153,-5.127489
1409347538682,3.6260185,-6.9970546,3.5781345,6.443848,-5.434947,-5.0108414
1409347538713,-13.779229,-19.324799,19.608511,6.5366488,-6.040563,-4.117553
1409347538714,-19.463663,-19.608511,19.608511,6.6419635,-5.801789,-4.288819
1409347538715,-19.60911,-19.608511,13.206416,6.743585,-5.5415792,-4.470496
1409347538735,-18.980633,-18.769344,4.5142674,6.791399,-5.36041,-4.61663
1409347538735,-10.3932295,-7.374141,4.414908,6.674393,-5.2957253,-4.8557367
1409347538756,-7.351995,-3.6750996,8.013991,-3.9636216,-8.504416,2.8521934
1409347538756,-3.5703533,-3.900753,6.3763576,-4.523596,-8.094864,3.190711
1409347538761,1.0480618,-4.7919946,2.4079683,-4.5648727,-7.9099755,3.5727615
1409347538769,3.2489316,-6.051345,-2.0745757,-4.16547,-8.033431,3.779318
1409347538786,7.3484035,-7.9445596,-3.7361517,-3.6002486,-8.420702,3.5071888
1409347538799,11.07438,-14.518439,-6.806117,-2.5311677,-8.991688,2.985485
1409347538802,9.223063,-16.32187,-6.863578,-0.93973905,-9.584511,1.8505193
1409347538816,3.5733461,-14.941614,-4.587889,0.21651714,-9.768699,0.8342855
1409347538835,-1.401805,-14.331692,1.3850456,0.5937696,-9.785094,0.26410043
1409347538836,-2.2661119,-15.565903,1.3305776,0.42713353,-9.791314,0.34368894
1409347538850,-0.59495914,-14.452,-1.8369513,0.166141,-9.798094,0.3743746
1409347538850,-0.036511578,-12.492945,-0.98222125,0.07345044,-9.805242,0.14916633
1409347538863,1.2850877,-9.246407,-0.760159,0.053652972,-9.806367,0.051975686
1409347538869,2.8095956,-7.1832037,-0.97025025,0.15486206,-9.805391,-0.026805736
1409347538882,4.2718544,-5.895722,-1.0630256,0.41092125,-9.796831,-0.15368658
1409347538898,4.7638626,-6.238691,-1.4502877,0.79683226,-9.770863,-0.25631094
1409347538903,4.4741645,-7.581838,-2.190096,1.215095,-9.724398,-0.36056644
1409347538913,3.8552632,-8.614936,-2.6659436,1.5866956,-9.662427,-0.53880584
1409347538949,3.1902738,-9.123704,-2.746748,1.8611169,-9.598844,-0.75424075
1409347538950,3.1352072,-9.574412,-2.6647465,2.0293195,-9.546875,-0.95365125
1409347538951,3.0095115,-9.908403,-2.1505916,2.1498404,-9.501088,-1.1304291
1409347538952,2.5504234,-10.179547,-1.5478514,2.2362607,-9.467652,-1.2381886
1409347538973,1.9255368,-10.471041,-1.1665748,2.2653272,-9.455382,-1.278447
1409347538974,1.3509283,-10.9834,-1.0887632,2.2354255,-9.463242,-1.2729195
1409347538982,0.9498995,-11.737574,-1.3640964,2.143219,-9.48826,-1.2449645
1409347539001,0.61530983,-12.09012,-1.8249803,2.0030696,-9.521273,-1.2261764
1409347539001,0.38965634,-11.407773,-2.2655134,1.8356194,-9.553672,-1.2362363
1409347539015,0.27712885,-10.028113,-2.1440077,1.675207,-9.5742445,-1.3030276
1409347539032,0.32561144,-8.880095,-2.1386206,1.5430119,-9.592179,-1.3340216
1409347539033,0.3549404,-8.833407,-2.56419,1.4386022,-9.60203,-1.3790718
1409347539048,-0.022146367,-9.743204,-2.5929205,1.3445851,-9.601301,-1.4756457
1409347539049,0.14065935,-9.826403,-2.7156234,1.2124192,-9.604037,-1.5693572
1409347539066,-0.83497787,-10.089166,-4.088698,1.1009511,-9.598382,-1.6820711
1409347539071,-3.980959,-11.051635,-5.6269727,0.88906217,-9.576492,-1.9159266
1409347539087,-6.305729,-11.653777,-2.2661119,0.38335663,-9.540942,-2.2346947
1409347539090,-4.6537294,-9.8198185,-0.18255788,-0.25435618,-9.55871,-2.1764164
1409347539102,-3.6780925,-8.571242,0.1400608,-0.68529963,-9.564129,-2.056253
1409347539124,-2.5773582,-8.184579,-0.55844754,-1.0084908,-9.548379,-1.9954518
1409347539126,-2.0374656,-8.857947,-1.2030864,-1.1769634,-9.534196,-1.9708524
1409347539131,-1.4496891,-9.539697,-0.83018947,-1.2502577,-9.530541,-1.9432027
1409347539165,-1.2539631,-9.99639,-0.705691,-1.2494767,-9.548332,-1.854338
1409347539167,-1.2144588,-9.948506,-0.8571242,-1.2274743,-9.569548,-1.7571166
1409347539168,-1.1228806,-9.874885,-0.9379285,-1.2160195,-9.584165,-1.6838843
1409347539191,-1.0001777,-9.908403,-0.8331822,-1.1893259,-9.596848,-1.6298578
1409347539192,-0.87208796,-9.996989,-0.49919105,-1.1614864,-9.609538,-1.5742058
1409347539193,-0.6679823,-10.359112,-0.035913024,-1.1333941,-9.625048,-1.4980928
1409347539220,-0.53211135,-10.994174,0.4866215,-1.0912566,-9.646967,-1.3840419
1409347539220,-0.26396075,-11.440094,1.5717934,-1.0365555,-9.674083,-1.2280269
1409347539224,0.33997664,-11.386824,3.4685998,-0.9595139,-9.710163,-0.9810552
1409347539231,0.9068039,-11.294048,5.109226,-0.83750796,-9.752877,-0.59192914
1409347539257,1.3664906,-11.756129,6.7145386,-0.6733253,-9.783068,-0.092913225
1409347539258,1.1510124,-12.356475,9.522937,-0.4925552,-9.783496,0.45934615
1409347539264,-0.5422867,-12.651561,11.966819,-0.35915473,-9.729031,1.1778525
1409347539289,-2.7670987,-12.413338,10.451289,-0.4089294,-9.586848,2.0237362
1409347539290,-4.350863,-12.081141,3.7259765,-0.6540184,-9.410552,2.6803234
1409347539291,-5.625177,-12.749125,-3.6373909,-0.9979615,-9.343385,2.8063467
1409347539302,-6.435614,-13.972561,-9.201516,-1.3721339,-9.4151125,2.3755634
1409347539321,-7.357382,-14.948797,-9.592369,-1.6945082,-9.550951,1.4416592
1409347539323,-7.04015,-15.034988,-8.322844,-2.0341501,-9.57595,0.5777272
1409347539330,-7.301717,-14.211383,-4.496909,-2.2843053,-9.535896,-0.13781321
1409347539353,-7.4723034,-13.945626,-0.76075757,-2.5449898,-9.456518,-0.51737356
1409347539354,-7.511808,-14.955381,5.3378725,-2.7905364,-9.383696,-0.57406914
1409347539361,-6.602011,-17.06168,17.297508,-2.989955,-9.338277,-0.16477643
1409347539411,-4.8165355,-18.158224,18.343775,-2.987204,-9.337917,-0.22431058
1409347539412,-3.0358477,-15.835849,5.0840874,-3.0241039,-9.326,-0.22565636
1409347539414,-2.2182279,-14.633361,-3.6655228,-2.8882802,-9.087916,2.288667
1409347539416,-2.7192147,-14.383765,-4.392163,-2.8424644,-9.168867,2.0056605
1409347539419,-3.3261447,-13.087904,-4.799177,-2.8132265,-9.255806,1.6081626
1409347539432,-3.1280246,-13.569139,-6.4445925,-2.7896507,-9.326467,1.1854337
1409347539433,-2.348712,-13.446435,-6.9407907,-2.7518685,-9.387898,0.6818755
1409347539449,-1.1797429,-12.328941,-5.9585695,-2.6963677,-9.427212,0.1663911
1409347539450,-0.9768343,-11.697471,-5.0721164,-2.5944672,-9.453916,-0.25030944
1409347539466,-0.9888053,-11.196485,-4.8626237,-2.4804027,-9.471287,-0.5592286
1409347539480,0.6051345,-12.727576,-4.7866077,-2.3807151,-9.475951,-0.84195924
1409347539481,2.7461493,-19.608511,-1.6753427,-2.1520472,-9.506361,-1.0808071
1409347539499,8.06008,-19.608511,4.1437645,-1.7131292,-9.602114,-1.0173318
1409347539515,9.950302,-19.42775,4.505289,-0.97354096,-9.741146,-0.57678986
1409347539520,6.377555,-14.709376,-0.5554548,-1.2092294,-9.728238,-0.2636686
1409347539537,3.3973722,-12.471396,-5.771223,0.26820275,-9.800929,-0.20059933
1409347539538,2.1015105,-11.462839,-8.942344,0.53591484,-9.775354,-0.57061225
1409347539542,2.1230583,-9.731832,-6.655881,0.68446183,-9.720582,-1.1009808
1409347539550,2.9430726,-8.067263,-3.7936125,0.8037793,-9.659156,-1.4916605
1409347539564,3.4835634,-7.08145,-2.4762032,0.94552994,-9.614132,-1.6866623
1409347539582,4.0252514,-5.9130797,-3.5541923,1.0990549,-9.577689,-1.7973043
1409347539582,4.281431,-4.5154643,-5.1343656,1.3192148,-9.51203,-1.9878026
1409347539598,1.816002,-4.6710877,-6.172252,1.6010753,-9.40253,-2.28022
1409347539602,-0.37349546,-5.419874,-7.976283,1.6834204,-9.296736,-2.628145
1409347539616,-0.42437226,-5.5982423,-3.401562,1.5443586,-9.1611185,-3.1399477
1409347539632,0.93972415,-5.4192758,-1.5023615,1.422598,-9.138011,-3.2624154
1409347539632,1.1558008,-5.6150017,-2.2517467,1.4058982,-9.136869,-3.2728374
1409347539646,0.80804306,-5.221754,-2.5755625,1.3797086,-9.109805,-3.3583033
1409347539650,0.5153519,-4.4514194,-2.2655134,1.3414568,-9.081508,-3.4492152
1409347539662,1.6968905,-3.105878,-1.0660183,1.3116181,-9.062863,-3.5092134
1409347539680,3.2435448,-1.7435774,-1.6585833,1.4438603,-9.04919,-3.4925418
1409347539683,4.490924,-0.8098387,-2.3403323,1.7879149,-8.947539,-3.5937867
1409347539696,5.673061,-0.39444473,-3.2495303,2.3309824,-8.737627,-3.7935238
1409347539713,6.3470287,-0.18555063,-3.9234982,3.044683,-8.375809,-4.0922084
1409347539713,6.241085,-0.2873042,-4.079121,3.823959,-7.8651314,-4.4370565
1409347539731,5.6976013,-0.0700304,-4.406528,4.517593,-7.2949457,-4.748215
1409347539731,5.01286,-0.18495208,-4.43885,5.071674,-6.6863613,-5.073568
1409347539745,5.2235494,-0.5518635,-4.137779,5.4662805,-6.1137834,-5.3769727
1409347539750,5.04997,-1.9440918,-3.3081882,5.8259983,-5.590009,-5.565962
1409347539763,4.8799815,-4.0695443,-0.3549404,6.0920153,-5.310716,-5.554641
1409347539785,5.04159,-7.928399,7.2107368,6.3423514,-5.44342,-5.1297336
1409347539786,-3.6882677,-17.8793,19.582176,6.67044,-6.256942,-3.5392556
1409347539791,-17.832014,-19.608511,19.608511,6.7822204,-6.040317,-3.6995134
1409347539818,-19.60911,-19.608511,18.13907,6.910684,-5.8206096,-3.8122566
1409347539819,-18.352154,-19.608511,8.719683,6.956617,-5.6775417,-3.9422565
1409347539823,-8.209718,-13.258491,3.9151182,6.8731103,-5.5978293,-4.1946425
1409347539831,-6.097433,-5.837064,5.1200004,-2.9485633,-8.622687,3.6229305
1409347539858,-5.412093,-4.1922474,5.7484784,-3.3905177,-8.423618,3.703702
1409347539860,0.55605334,-4.305373,4.7016134,-3.6548653,-8.1874,3.97226
1409347539864,3.5434184,-8.118738,3.4530375,-3.36087,-8.159456,4.2776427
1409347539890,7.1610575,-14.010868,2.0733786,-2.7242582,-8.348883,4.3640532
1409347539891,10.144233,-18.529325,-1.6543933,-1.6493031,-8.759053,4.0901337
1409347539892,6.362591,-15.495872,-2.9706059,-0.42295521,-9.211712,3.3370478
1409347539926,1.1492168,-12.142793,0.6147113,0.23192981,-9.436656,2.6582193
1409347539926,-1.3006501,-11.007941,-5.6539073,0.3398577,-9.491949,2.4408612
1409347539927,1.1318588,-10.970232,-7.120356,0.1998641,-9.65316,1.7166646
1409347539930,2.6719291,-10.745776,-5.446809,0.29215866,-9.761481,0.89361024
1409347539951,2.2601264,-10.827777,-2.6755204,0.51945496,-9.786957,0.34064344
1409347539951,1.5107412,-10.34774,-1.1893197,0.68428606,-9.782151,0.1079571
1409347539962,1.9075803,-8.71669,-1.7184383,0.76316756,-9.776904,-0.011020576
1409347539988,3.164536,-7.101202,-2.1871033,0.88680655,-9.764062,-0.21694267
1409347539989,4.0037036,-6.55712,-2.9933507,1.1229899,-9.731125,-0.46312633
1409347539991,4.4903255,-6.7630215,-3.6739025,1.4388913,-9.672645,-0.73481387
1409347540020,4.4526167,-6.9467764,-3.3464954,1.7776433,-9.585056,-1.0663369
1409347540021,3.8780081,-6.913856,-2.321777,2.109323,-9.483461,-1.3360751
1409347540022,3.3249476,-7.3202715,-1.412579,2.3676631,-9.400882,-1.4791701
1409347540031,2.8736405,-8.073248,-0.79607207,2.5397065,-9.351163,-1.5086446
1409347540052,2.3505075,-9.204509,-0.6799533,2.6278348,-9.333595,-1.4658985
1409347540054,1.8321629,-10.38904,-0.96187055,2.6262908,-9.343726,-1.4027617
1409347540063,1.2880806,-11.469423,-1.2773066,2.5456119,-9.372325,-1.3600737
1409347540085,0.7703344,-12.178705,-1.4449008,2.3915737,-9.416358,-1.3352847
1409347540087,0.4213795,-12.1398,-1.3437457,2.1961977,-9.467094,-1.3119602
1409347540091,0.17537527,-11.666347,-0.8912416,1.9899333,-9.517746,-1.2740047
1409347540123,-0.12330139,-11.168352,-0.7194576,1.7902731,-9.567207,-1.1974291
1409347540123,-0.98820674,-11.314399,-1.151611,1.5942309,-9.611829,-1.1142428
1409347540124,-1.9297266,-11.459248,-1.389834,1.3400749,-9.6549225,-1.0756805
1409347540130,-2.4378958,-10.962451,-1.8531121,1.026077,-9.694651,-1.063625
1409347540146,-2.5013423,-10.268132,-2.9269116,0.69589376,-9.718716,-1.110281
1409347540163,-1.8010383,-9.267955,-4.7722425,0.37985945,-9.717513,-1.2633367
1409347540164,-3.265691,-9.986216,-3.2052376,0.13941811,-9.674787,-1.5967145
1409347540178,-4.9601874,-10.26933,-2.2080526,-0.21076925,-9.643588,-1.7683854
1409347540196,-4.7165775,-9.3421755,-2.156577,-0.6651687,-9.600641,-1.885636
1409347540197,-3.8750155,-8.3312235,-2.0679917,-1.034595,-9.542472,-2.0102766
1409347540213,-3.5476084,-8.039729,-1.3479356,-1.2964472,-9.496742,-2.0740035
1409347540213,-3.3560722,-8.334216,-0.36272156,-1.5219816,-9.473766,-2.0252652
1409347540228,-2.6420016,-8.854357,-0.24660277,-1.7202283,-9.470171,-1.8780563
1409347540231,-1.6214731,-9.393052,-0.58298814,-1.8288302,-9.481942,-1.7083774
1409347540245,-0.65900403,-9.739613,-0.4985925,-1.8368001,-9.50221,-1.5825957
1409347540260,0.022146367,-10.061034,-0.58777654,-1.7406417,-9.537101,-1.4779251
1409347540262,0.3764882,-10.331579,-0.7080852,-1.5660377,-9.577565,-1.4100375
1409347540286,0.26156655,-10.69849,-0.62249243,-1.3570412,-9.614759,-1.3730338
1409347540286,0.020350715,-11.21444,-0.3788824,-1.1713144,-9.644481,-1.335079
1409347540291,-0.22505496,-11.614871,-0.045489833,-1.0328053,-9.670356,-1.2601242
1409347540319,0.0664391,-11.584345,0.39324763,-0.9362055,-9.691065,-1.1735293
1409347540320,0.5859809,-11.337742,0.88944596,-0.8397233,-9.713053,-1.0591817
1409347540322,0.7781156,-11.323377,1.7687165,-0.7189022,-9.737492,-0.91369134
1409347540331,1.103727,-11.740566,2.8993783,-0.5946167,-9.762963,-0.70807225
1409347540346,1.352724,-11.983578,5.043386,-0.44701546,-9.787085,-0.42841932
1409347540360,0.13108255,-11.262324,5.9382186,-0.28941154,-9.802365,0.017267726
1409347540363,-1.3066356,-11.248558,7.5806413,-0.25555238,-9.789335,0.5234337
1409347540378,-3.426701,-12.315175,8.473679,-0.37162915,-9.735321,1.1206367
1409347540383,-5.0984526,-13.615825,5.861006,-0.64190865,-9.63012,1.7375697
1409347540395,-6.654085,-13.987525,-2.682703,-1.0223763,-9.536569,2.0442586
1409347540410,-7.3232646,-13.344083,-11.28088,-1.4628096,-9.554467,1.6561234
1409347540411,-6.196194,-12.878411,-8.996812,-1.8754822,-9.60409,0.6437453
1409347540431,-4.8757915,-13.848661,-1.2054806,-2.1445532,-9.568714,-0.104754835
1409347540431,-5.121796,-14.36102,1.1282675,-2.2783825,-9.536012,-0.2093326
1409347540446,-6.647501,-15.733497,3.5362358,-2.401789,-9.507675,-0.077035055
1409347540474,-7.2747817,-16.709133,9.821015,-2.5650969,-9.46396,0.15536045
1409347540474,-6.6145806,-16.415844,15.71135,-2.7111497,-9.385631,0.85439634
1409347540475,-5.2361193,-15.268423,8.04751,-2.6976922,-9.388785,0.8622921
1409347540496,-3.638588,-13.478158,-0.75956047,-2.8455026,-9.124198,2.1960273
1409347540496,-3.4105403,-13.897143,-2.0979192,-2.8864799,-9.147162,2.041577
1409347540512,-3.6463692,-14.643537,-1.5807717,-2.9036326,-9.190972,1.807017
1409347540512,-2.565387,-15.760431,-2.5492263,-2.8818107,-9.238254,1.5875258
1409347540531,-1.4389153,-15.33965,-7.302315,-2.7530172,-9.320765,1.3094404
1409347540531,-0.5231331,-12.86225,-8.921394,-2.611765,-9.425772,0.7098548
1409347540544,-0.5722142,-11.972205,-7.402273,-2.4770954,-9.488515,0.04981544
1409347540563,-1.1252748,-12.239159,-6.2746043,-2.355609,-9.508338,-0.46153662
1409347540564,-0.38187516,-13.309367,-6.1159883,-2.2579274,-9.506519,-0.8356
1409347540578,0.98461545,-17.773355,-5.12838,-2.1067996,-9.510101,-1.1356708
1409347540596,3.389591,-19.608511,-2.7970262,-1.8320941,-9.546762,-1.293499
1409347540597,9.045294,-19.608511,2.6246436,-1.4152187,-9.620057,-1.2736074
1409347540612,10.132261,-19.45648,4.642956,-0.67470515,-9.740998,-0.91002417
1409347540613,5.6545057,-15.428834,1.276708,-0.9056218,-9.748543,-0.5622579
1409347540636,2.7820623,-13.294403,-3.9636009,0.48152915,-9.787734,-0.37255716
1409347540636,2.409764,-12.058995,-8.611943,0.68857145,-9.763052,-0.6156803
1409347540645,2.415151,-10.553042,-7.86615,0.8188988,-9.707175,-1.1271831
1409347540659,3.5936968,-8.500613,-4.4556093,0.91276515,-9.637555,-1.5667729
1409347540663,5.737106,-6.415862,-1.9476831,1.0617589,-9.582753,-1.7927281
1409347540689,5.7664347,-4.7189717,-3.6493618,1.3730448,-9.533369,-1.8439112
1409347540690,3.833117,-4.0414124,-4.6938324,1.720829,-9.444632,-2.0020278
1409347540692,2.8616695,-3.5895069,-6.3260794,1.9382988,-9.350633,-2.2313826
1409347540724,2.3289597,-3.7457285,-5.957971,2.0982108,-9.213592,-2.6225183
1409347540725,1.5933412,-4.1174283,-4.0186677,2.2091591,-9.065249,-3.0184858
1409347540726,0.61530983,-4.261679,-2.8975825,2.2332761,-8.965939,-3.2855473
1409347540731,-0.07182605,-4.550779,-1.7932571,2.1491897,-8.919143,-3.4641461
1409347540752,-0.24660277,-4.5884876,-1.8351556,2.0002298,-8.93924,-3.501348
1409347540753,0.40342298,-3.9270895,-2.2242134,1.8541769,-8.961701,-3.5242531
1409347540765,1.6316484,-2.8790276,-2.2391772,1.7802193,-8.94414,-3.6060483
1409347540784,2.8640637,-1.9458874,-1.8662802,1.8838813,-8.876395,-3.719006
1409347540785,5.115212,-1.2090719,-2.4001873,2.1831112,-8.763864,-3.8208835
1409347540792,5.915474,-1.5454572,-2.6078842,2.7968128,-8.509802,-3.9914277
1409347540819,6.2554507,-1.2473791,-3.1998506,3.4883385,-8.1805,-4.1329556
1409347540820,6.130952,-0.9923966,-4.095282,4.182531,-7.7472878,-4.3193045
1409347540824,5.394735,-1.1833342,-4.601057,4.7754927,-7.2388425,-4.5786734
1409347540833,4.8973393,-1.264737,-4.24073,5.1865306,-6.7368965,-4.887181
1409347540851,4.132991,-2.0829554,-2.9724014,5.511397,-6.293192,-5.1176786
1409347540852,3.4847605,-4.297592,-1.7316064,5.727853,-6.047689,-5.17567
1409347540863,1.3928268,-10.659584,7.4028716,5.7870555,-6.129077,-5.0114694
1409347540896,-11.748347,-19.608511,19.608511,5.562035,-7.3031282,-3.449412
1409347540896,-19.549255,-19.608511,19.608511,5.6859956,-7.1096544,-3.6459062
1409347540897,-19.60911,-19.608511,13.245921,5.791414,-6.907166,-3.8627663
1409347540922,-15.422849,-18.59756,6.1704564,5.8467526,-6.7568135,-4.0412126
1409347540923,-9.725846,-9.560646,6.1303535,5.779239,-6.671847,-4.2728505
1409347540925,-6.581062,-4.1635165,7.353192,-3.6399586,-8.516105,3.2244437
1409347540972,-1.5939398,-3.2902317,4.4304705,-4.1053305,-8.180676,3.5203953
1409347540973,2.1045034,-4.587889,0.9708488,-4.067971,-8.078169,3.7901437
1409347540974,4.672883,-7.755418,0.82719666,-3.6687818,-8.243402,3.8414521
1409347540974,8.455722,-13.286024,1.555034,-2.8945205,-8.582497,3.7593753
1409347540975,7.901464,-17.114353,-1.5682021,-1.6310782,-9.010165,3.5109665
1409347540997,4.56275,-14.996082,-3.7481227,-0.57945263,-9.37819,2.8078766
1409347540998,1.328782,-12.523471,-3.6607344,-0.039440323,-9.580558,2.0932648
1409347541013,0.30645782,-12.396578,-2.9538465,0.10871377,-9.681039,1.5607923
1409347541013,1.2880806,-12.341511,-2.2254105,0.12740853,-9.740056,1.133785
1409347541026,1.2138603,-11.476605,-2.6270378,0.23196898,-9.770899,0.8038341
1409347541031,0.1388637,-11.167754,-1.9219455,0.3226488,-9.788516,0.50123745
1409347541044,0.090381116,-9.986216,-1.174356,0.30403614,-9.7976465,0.2899357
1409347541060,2.2158337,-7.9475527,-0.59735334,0.2849556,-9.801503,0.14042935
1409347541079,4.7860093,-6.8264675,-0.43754035,0.46056703,-9.795826,0.0075759883
1409347541080,5.6443305,-7.4202294,-1.4586674,0.8706889,-9.7675905,-0.08044512
1409347541093,5.3145294,-8.170812,-1.963844,1.3468767,-9.711394,-0.2124664
1409347541094,4.3915644,-8.005013,-1.941099,1.7800986,-9.636364,-0.37699762
1409347541110,3.731962,-7.3226657,-1.9800048,2.1044466,-9.56386,-0.52371264
1409347541112,3.292626,-7.803302,-1.8842367,2.3428826,-9.499409,-0.6652248
1409347541128,2.879626,-8.826823,-1.62686,2.4905832,-9.451711,-0.7953522
1409347541142,2.5779567,-9.890448,-1.4215573,2.5647473,-9.425065,-0.8721403
1409347541145,2.2134395,-10.875063,-1.6220716,2.5760906,-9.417077,-0.9234718
1409347541173,1.5568297,-11.76391,-1.8124107,2.5282161,-9.422998,-0.9927739
1409347541174,0.5907693,-12.764687,-2.0769699,2.404558,-9.447182,-1.0673584
1409347541175,-0.41838676,-13.336901,-2.4361002,2.185113,-9.491271,-1.1451842
1409347541195,-0.91937345,-12.692861,-2.534861,1.8828429,-9.545089,-1.2315005
1409347541196,-0.6751649,-10.988189,-2.2307975,1.5695442,-9.589823,-1.3199419
1409347541211,-0.08140286,-9.18715,-1.7896658,1.3347315,-9.618955,-1.3654972
1409347541212,-0.37469256,-8.576031,-1.9117701,1.1920415,-9.636862,-1.3712571
1409347541238,-1.1085154,-8.507795,-2.8538885,1.0445684,-9.648426,-1.4096518
1409347541239,-1.1139023,-8.651448,-3.0873232,0.85008776,-9.646102,-1.549349
1409347541246,-2.0231004,-9.226056,-3.618836,0.6699898,-9.632561,-1.7132647
1409347541266,-5.614403,-9.978435,-4.960786,0.40525985,-9.610688,-1.9080808
1409347541268,-7.678205,-10.36031,-2.694674,-0.19859628,-9.559067,-2.1806388
1409347541272,-5.5647235,-8.96449,0.5590461,-0.9244085,-9.517185,-2.1769395
1409347541302,-3.6044707,-8.550891,0.8984242,-1.3979902,-9.5017605,-1.9830742
1409347541303,-2.8419175,-8.992621,-0.31304187,-1.6675535,-9.486242,-1.8441429
1409347541305,-2.5623944,-9.722853,-1.4335283,-1.7941371,-9.474954,-1.7823248
1409347541312,-2.1045034,-10.469844,-1.8782512,-1.8250479,-9.472761,-1.7624899
1409347541346,-1.0953473,-10.86788,-1.6801311,-1.7905524,-9.476393,-1.778279
1409347541352,-0.4141969,-10.797251,-1.5095441,-1.6811771,-9.495428,-1.783503
1409347541353,-0.49320555,-10.523115,-1.246182,-1.5412289,-9.522256,-1.7668225
1409347541392,-0.6967127,-10.612898,-0.9564836,-1.4294515,-9.54486,-1.7385801
1409347541393,-0.86610246,-10.921151,-0.6560113,-1.3383089,-9.566153,-1.6935356
1409347541395,-1.1001357,-11.313202,-0.33039984,-1.2678361,-9.587622,-1.6249667
1409347541400,-1.0133458,-11.654375,0.20350714,-1.2298815,-9.608127,-1.5302523
1409347541402,-0.94211835,-11.751341,1.2060791,-1.1910092,-9.633262,-1.3971926
1409347541439,-0.7667431,-11.583746,3.4584243,-1.1555933,-9.665982,-1.1848241
1409347541440,0.03232172,-11.101315,9.7240505,-1.117181,-9.710676,-0.7905953
1409347541441,0.931943,-11.467628,14.813524,-1.0154108,-9.752976,0.13705364
1409347541442,-0.06464344,-12.570157,15.547946,-0.8430906,-9.670833,1.3908943
1409347541444,-1.5209166,-12.498331,10.717644,-0.7817933,-9.462534,2.4534974
1409347541468,-2.991555,-10.913968,0.36032736,-0.8992141,-9.2987,2.9826105
1409347541469,-4.086902,-10.453085,-6.4828997,-1.1591125,-9.319743,2.822983
1409347541472,-4.927267,-12.564771,-10.516531,-1.4291407,-9.438247,2.2466471
1409347541492,-5.6976013,-14.680048,-9.130288,-1.6292019,-9.580984,1.3118176
1409347541493,-4.1000705,-14.329297,-5.5868697,-1.8229274,-9.625187,0.45069557
1409347541508,-5.597045,-13.778032,-2.405574,-1.9131988,-9.618163,-0.03155483
1409347541512,-7.3071036,-13.508086,0.80564886,-2.1169958,-9.570082,-0.3197762
1409347541533,-7.0449386,-14.20839,5.2181625,-2.419655,-9.499735,-0.26586074
1409347541533,-6.2542534,-16.207548,9.738416,-2.6441073,-9.442506,0.13481066
1409347541546,-4.5555673,-18.02355,12.4390745,-2.766681,-9.372296,0.82214177
1409347541574,-2.4301147,-18.344374,10.326791,-2.8028152,-9.360589,0.8330593
1409347541574,-1.6514006,-17.53274,3.549404,-2.6095247,-9.205842,2.1478455
1409347541575,-1.5412674,-15.640721,-1.3844471,-2.4690833,-9.239656,2.168584
1409347541592,-2.333748,-14.549563,-0.75237787,-2.3708048,-9.30799,1.9776189
1409347541592,-2.415151,-13.830705,-0.62488663,-2.3188539,-9.353526,1.8179204
