time,acc_x,acc_y,acc_z,gravity_x,gravity_y,gravity_z
1409347975063,-1.1366472,4.7680526,8.407239,-1.3789275,4.652543,8.521901
1409347975087,-1.4754268,4.6124296,8.504803,-1.3725606,4.65396,8.522155
1409347975088,-1.7016789,4.549582,8.488044,-1.3810891,4.6528187,8.5213995
1409347975095,-1.7459716,4.55856,8.508993,-1.408383,4.651555,8.517622
1409347975103,-1.3371617,4.6405616,8.834005,-1.4405913,4.6505094,8.512805
1409347975119,-1.3844471,4.498705,8.644864,-1.4598242,4.6474533,8.511198
1409347975133,-1.3180081,4.311359,8.579621,-1.4667832,4.6428313,8.512524
1409347975138,-1.1336545,4.305373,8.4664955,-1.4680008,4.6354127,8.5163555
1409347975161,-1.0259154,4.4167037,8.285733,-1.4619573,4.629467,8.520628
1409347975162,-1.0767922,4.385579,8.196549,-1.4499915,4.628288,8.523313
1409347975164,-1.151611,4.2622776,8.148665,-1.4342662,4.630155,8.52496
1409347975192,-1.1300632,4.243124,8.06427,-1.4230005,4.632106,8.525787
1409347975192,-1.1456255,4.2419267,7.9487495,-1.420721,4.633854,8.525217
1409347975196,-1.1671734,4.2275615,8.052897,-1.4258721,4.635577,8.52342
1409347975203,-1.2192472,4.2730513,8.207922,-1.4340137,4.6351385,8.522293
1409347975218,-1.2605472,4.277241,8.350976,-1.4459084,4.631008,8.52253
1409347975239,-1.2330139,4.226963,8.556877,-1.4583684,4.6215563,8.525536
1409347975240,-1.1168951,4.235343,8.584411,-1.4695657,4.6066813,8.531662
1409347975243,-0.86370826,4.2904096,8.508394,-1.4789913,4.589506,8.539287
1409347975272,-0.5895722,4.233547,8.471284,-1.4822476,4.574077,8.546996
1409347975273,-0.4381389,4.137779,8.480263,-1.4787177,4.560988,8.5546
1409347975276,-0.5374983,4.0216603,8.531737,-1.4723256,4.5485454,8.562324
1409347975283,-0.7589619,4.0940847,8.543709,-1.4683646,4.5368953,8.569181
1409347975307,-0.8798691,4.268862,8.506598,-1.471222,4.5277643,8.57352
1409347975308,-0.9840169,4.3915644,8.41921,-1.4820199,4.5228205,8.574269
1409347975317,-0.99179804,4.4442368,8.137293,-1.4991739,4.522057,8.57169
1409347975343,-0.9032126,4.4113164,8.031349,-1.5181566,4.5245504,8.567031
1409347975344,-1.0007763,4.3358994,8.254609,-1.5327804,4.526404,8.563448
1409347975345,-1.0893618,4.3089647,8.260594,-1.542045,4.5257287,8.562141
1409347975379,-1.0851719,4.268263,8.230068,-1.5488548,4.5233216,8.562184
1409347975389,-1.0390835,4.2185836,8.202535,-1.5510623,4.523882,8.561489
1409347975390,-0.90620536,4.325125,7.9289975,-1.5521597,4.531721,8.557143
1409347975391,-0.7368156,4.3718123,7.3873096,-1.5507944,4.5508738,8.54722
1409347975417,-0.587178,4.3119574,6.855198,-1.5459044,4.5806108,8.5322075
1409347975418,-0.37110126,4.237737,6.5403605,-1.5415882,4.6126876,8.515692
1409347975419,-0.22385786,4.172495,6.651691,-1.5369799,4.6350765,8.50436
1409347975444,-0.4225766,4.063559,7.3220673,-1.5275972,4.6477137,8.499152
1409347975445,-0.74399817,4.068946,8.01459,-1.5198545,4.634329,8.507845
1409347975446,-0.84575176,4.1641154,8.462306,-1.5125756,4.595886,8.529966
1409347975471,-0.825401,4.1862617,8.699332,-1.5057387,4.542816,8.559554
1409347975472,-0.7398083,4.127005,8.653243,-1.4997797,4.4869943,8.58999
1409347975475,-0.80684596,4.048595,8.41921,-1.4902114,4.437868,8.617133
1409347975483,-1.1198878,4.1156325,8.2169,-1.4739118,4.399452,8.6396055
1409347975506,-1.3718776,4.2796354,7.9451585,-1.4575334,4.3676524,8.658499
1409347975506,-1.4694413,4.2143936,7.57286,-1.4454107,4.3458543,8.67149
1409347975517,-1.5149311,3.9995139,7.299921,-1.4432063,4.328566,8.680499
1409347975536,-1.271321,4.0396166,7.153875,-1.4491148,4.3094025,8.689046
1409347975537,-0.80205756,3.9803603,7.171831,-1.4494264,4.2811112,8.702967
1409347975567,-0.86490536,3.5595794,7.8188643,-1.4355025,4.2314157,8.729538
1409347975568,-1.13964,3.8061821,10.315418,-1.4133551,4.152476,8.770962
1409347975569,-1.1174936,3.911527,10.69849,-1.3787177,4.0517507,8.823426
1409347975590,-0.7200562,3.9516299,10.014347,-1.3343109,3.9533398,8.874745
1409347975591,-0.4782418,3.933075,9.240421,-1.2879496,3.8846884,8.911833
1409347975596,-0.7260417,3.9258924,7.8050976,-1.2533989,3.864023,8.925733
1409347975617,-0.8631097,3.858256,6.425439,-1.2478733,3.8912802,8.914658
1409347975618,-0.51475334,3.9833531,7.067085,-1.2717826,3.9477534,8.886406
1409347975634,0.11192893,3.7523127,8.37013,-1.3072098,4.0086207,8.853956
1409347975636,0.76315176,4.244321,9.81084,-1.3286525,4.0564885,8.828928
1409347975653,0.694917,5.319318,10.707469,-1.3005896,4.0964494,8.814644
1409347975655,0.4830302,6.260239,10.551247,-1.2225139,4.127232,8.811459
1409347975664,-0.3681085,6.0651116,10.218452,-1.1496661,4.151597,8.809818
1409347975708,-1.7064673,5.3163247,10.316016,-1.1050277,4.172116,8.805836
1409347975710,-2.1859062,4.8338933,9.879673,-1.1043807,4.193304,8.795848
1409347975711,-2.0081367,4.493318,8.994417,-1.1262226,4.2242184,8.778269
1409347975713,-1.8644845,4.0503907,8.328231,-1.1451066,4.268728,8.754261
1409347975717,-1.6484078,3.6882677,7.8517847,-1.1655209,4.31907,8.726831
1409347975755,-1.6023195,3.3824084,7.4603324,-1.1979663,4.367795,8.698139
1409347975756,-2.146402,2.8329391,7.417237,-1.2274727,4.4036846,8.675901
1409347975757,-1.8872294,3.0220811,7.997831,-1.2598988,4.408271,8.6689205
1409347975758,-1.922544,3.3441012,9.598953,-1.2898468,4.372317,8.682714
1409347975764,-2.2427685,3.3207579,11.651382,-1.3204275,4.2913446,8.718442
1409347975794,-3.7822402,4.5884876,12.989142,-1.3536046,4.1748333,8.769773
1409347975795,-3.4410665,4.745308,11.0857525,-1.3945757,4.0672464,8.8138
1409347975798,-3.8205473,5.3181205,9.009979,-1.4200141,3.985372,8.847076
1409347975822,-4.875193,2.847903,9.168595,-1.4630473,3.953559,8.854336
1409347975823,-4.3478703,2.4779987,8.55149,-1.536042,3.926936,8.853821
1409347975824,-3.0017304,3.4081461,8.388684,-1.6360084,3.8965735,8.849327
1409347975859,-2.207454,3.0238767,8.899846,-1.7242464,3.866762,8.84565
1409347975860,-1.9267339,2.4762032,8.558673,-1.8019851,3.8304298,8.845962
1409347975861,-1.7992426,2.3110032,8.484452,-1.888298,3.781686,8.84893
1409347975864,-2.1003134,2.2457612,8.92738,-1.9831152,3.7306316,8.84986
1409347975888,-3.1441853,2.3259668,8.996213,-2.081974,3.6816607,8.847664
1409347975890,-4.5561657,2.5504234,9.0016,-2.18595,3.639254,8.840127
1409347975896,-5.681441,2.9311013,9.564238,-2.2809832,3.5948126,8.834298
1409347975919,-5.0403934,2.954445,9.354745,-2.3629854,3.539612,8.835034
1409347975920,-3.815759,3.0346506,9.221268,-2.4116566,3.4755998,8.847288
1409347975924,-2.9041667,3.365649,9.758167,-2.426851,3.408488,8.869216
1409347975965,-2.7156234,3.3812113,9.533113,-2.4266462,3.338787,8.895744
1409347975966,-2.5031378,2.6803088,8.666411,-2.4136746,3.2698438,8.924836
1409347975967,-2.3469162,1.7555484,7.6704235,-2.393887,3.2013092,8.95496
1409347975969,-2.3822308,1.2509704,7.4483614,-2.3780286,3.1360617,8.982232
1409347975995,-2.2188265,1.1067197,7.756615,-2.3718438,3.0671306,9.007633
1409347975996,-1.2144588,1.2312182,8.392276,-2.3704822,2.9866407,9.034998
1409347975998,-1.0133458,1.929128,9.456498,-2.36699,2.8938074,9.06607
1409347976022,-2.3361423,2.5582044,12.49055,-2.3780475,2.7960513,9.093809
1409347976023,-4.5872903,1.9961656,11.594521,-2.4146821,2.7251873,9.10566
1409347976024,-3.8857894,2.3349452,11.045051,-2.4469426,2.688501,9.107954
1409347976061,-2.6719291,2.1200657,9.675568,-2.436446,2.72929,9.098631
1409347976063,-1.8531121,1.620276,8.4904375,-2.3465922,2.818536,9.095039
1409347976066,-1.1839328,1.726818,7.428011,-2.202166,2.9380763,9.093326
1409347976067,-0.4345476,2.0129251,6.9240313,-2.032734,3.075504,9.087335
1409347976103,0.04189853,2.191293,6.4882865,-1.8648335,3.2002838,9.080252
1409347976105,0.36272156,2.3122003,5.952584,-1.7224478,3.2920375,9.075575
1409347976106,0.6584055,2.058415,5.557541,-1.6208408,3.3456526,9.074683
1409347976107,0.16160862,1.0474633,5.255273,-1.557849,3.3787103,9.073467
1409347976117,-0.8858546,0.0023942017,4.6016555,-1.5269904,3.3695726,9.082108
1409347976149,-1.7878702,-0.19871874,3.6709096,-1.545543,3.32164,9.096614
1409347976152,-2.3708582,0.046686932,3.063381,-1.5997306,3.2406163,9.11645
1409347976153,-2.4187422,-0.046088383,3.6062663,-1.6756334,3.1232834,9.143727
1409347976182,-1.4820108,-0.34596214,4.8614264,-1.7675917,2.961923,9.180034
1409347976183,-0.36152446,-1.1749545,4.469376,-1.8664973,2.753559,9.225209
1409347976186,-0.6368576,-3.2411506,3.755904,-1.9636368,2.5244794,9.270465
1409347976188,-0.49919105,-4.285621,4.720767,-2.0629568,2.2528288,9.318764
1409347976210,-0.24181437,-4.457405,4.7459064,-2.1646357,1.9358224,9.366821
1409347976211,-0.28909984,-3.828927,5.3558292,-2.261574,1.5755073,9.411346
1409347976219,-0.91937345,-3.3566709,6.247071,-2.3507867,1.1829904,9.446942
1409347976238,-1.9093759,-3.6409822,7.152079,-2.4538858,0.76759356,9.463595
1409347976238,-2.9167361,-3.9630024,7.574057,-2.5788548,0.33673897,9.455502
1409347976244,-4.0599675,-4.175488,7.933786,-2.73103,-0.106028184,9.4181
1409347976268,-5.370793,-4.047398,8.013393,-2.9239807,-0.55399424,9.344186
1409347976269,-6.9108634,-3.8307228,7.9475527,-3.1460834,-1.0114703,9.233064
1409347976278,-8.1959505,-4.313753,7.778163,-3.4275055,-1.4732642,9.069293
1409347976306,-9.398438,-5.5587378,7.567473,-3.7619817,-1.9425931,8.845575
1409347976306,-10.587758,-7.0982094,8.1797905,-4.136812,-2.4230745,8.554875
1409347976307,-11.464635,-7.603386,9.123106,-4.535092,-2.9199784,8.190058
1409347976316,-11.812991,-7.1047935,10.047267,-4.9291,-3.404217,7.7643843
1409347976335,-11.789049,-6.59004,10.99597,-5.2910905,-3.844336,7.3072453
1409347976338,-11.72261,-6.1938,11.774684,-5.62624,-4.213966,6.838005
1409347976344,-11.464036,-6.14831,12.179304,-5.930241,-4.4988256,6.3846054
1409347976385,-11.498753,-6.2303114,11.958439,-6.1946507,-4.706756,5.9701886
1409347976386,-11.6442,-5.1002483,10.553042,-6.4317307,-4.8568954,5.5869317
1409347976387,-11.792042,-4.0396166,8.842984,-6.6666603,-4.957121,5.21085
1409347976387,-12.250531,-3.7978024,7.231686,-6.910136,-5.027729,4.8106503
1409347976398,-13.019071,-4.220978,5.74369,-7.1541367,-5.0916405,4.3662252
1409347976414,-13.636774,-5.21517,4.720767,-7.386845,-5.1566906,3.8747196
1409347976418,-14.169484,-6.3793507,4.0282445,-7.5789495,-5.2384934,3.3597758
1409347976432,-14.452599,-6.979098,3.5182793,-7.7288384,-5.3318324,2.829667
1409347976455,-14.403518,-6.9689226,3.4093432,-7.843296,-5.4142656,2.310593
1409347976456,-13.937246,-6.4751186,3.7523127,-7.9383087,-5.4616027,1.8233284
1409347976458,-13.010691,-5.697003,4.293402,-8.026463,-5.4588423,1.3954688
1409347976465,-10.964846,-5.027225,5.4162827,-8.114577,-5.4060197,1.0483242
1409347976488,-10.044873,-5.0427876,5.9483943,-8.20043,-5.319193,0.7934119
1409347976489,-9.296086,-5.2037973,6.2740054,-8.283028,-5.2172685,0.5847838
1409347976496,-8.434174,-5.1265845,6.333262,-8.3677435,-5.0945034,0.44417644
1409347976514,-7.6285253,-4.642956,6.1195793,-8.45398,-4.957856,0.34678164
1409347976530,-7.0287776,-4.0863037,5.5778913,-8.539535,-4.8141365,0.26618192
1409347976530,-6.669049,-3.8229415,4.88896,-8.619023,-4.674366,0.18206395
1409347976558,-6.534375,-3.7152026,4.11683,-8.684714,-4.553999,0.08506664
1409347976559,-6.599617,-3.9641995,3.4620156,-8.734016,-4.459417,-0.031351417
1409347976560,-6.9348054,-4.365228,2.8215668,-8.773407,-4.3781967,-0.17069851
1409347976565,-7.377134,-4.8003745,2.1452048,-8.797973,-4.3206925,-0.312531
1409347976587,-7.911041,-5.245097,1.5340848,-8.810839,-4.281021,-0.46084407
1409347976588,-8.401853,-5.533,0.985214,-8.815097,-4.253741,-0.60839087
1409347976597,-8.638878,-5.6245785,0.320823,-8.813707,-4.2347383,-0.7456278
1409347976612,-8.581417,-5.4881086,-0.40821138,-8.810088,-4.220028,-0.86263216
1409347976616,-8.558673,-5.2636523,-1.1671734,-8.807933,-4.2050595,-0.9529981
1409347976630,-8.529344,-5.0559554,-2.0290859,-8.808192,-4.1876397,-1.0245967
1409347976658,-8.532336,-5.031415,-2.7455509,-8.809067,-4.1706576,-1.084605
1409347976662,-8.494628,-5.4180784,-3.0125043,-8.807773,-4.157058,-1.1456057
1409347976663,-8.307879,-5.9142766,-3.0651767,-8.802319,-4.1503196,-1.210141
1409347976665,-8.325238,-6.2351,-3.2034419,-8.792654,-4.149871,-1.2799311
1409347976690,-8.662222,-6.201581,-3.413533,-8.780746,-4.1517963,-1.3533324
1409347976693,-9.1590185,-5.9783216,-3.5206735,-8.767019,-4.153833,-1.4336843
1409347976698,-9.744401,-5.7802014,-3.5990837,-8.7509985,-4.1545706,-1.5264088
1409347976717,-10.075399,-5.551555,-3.3740287,-8.734614,-4.1515794,-1.6252059
1409347976718,-9.913192,-5.295376,-3.107674,-8.720117,-4.141264,-1.7262341
1409347976724,-9.4696665,-4.973954,-2.80361,-8.711787,-4.11764,-1.8221407
1409347976764,-9.044696,-4.462792,-2.457648,-8.713735,-4.0756054,-1.9054327
1409347976765,-8.798093,-3.8977604,-2.1613655,-8.727074,-4.0145254,-1.9728608
1409347976766,-8.71669,-3.5877113,-1.8327614,-8.7494135,-3.9393473,-2.024771
1409347976766,-8.751406,-3.5128925,-1.4053963,-8.777339,-3.8567526,-2.0625696
1409347976799,-8.641871,-3.4554317,-1.0839748,-8.807364,-3.7736084,-2.088215
1409347976800,-8.27077,-3.232771,-1.0600328,-8.837692,-3.691185,-2.107309
1409347976803,-7.751827,-2.9083564,-1.2497733,-8.8661375,-3.6111927,-2.1263387
1409347976818,-7.2789717,-2.7682958,-1.3569138,-8.890366,-3.5335267,-2.1554525
1409347976819,-7.2149267,-2.7341783,-1.340753,-8.908207,-3.4614289,-2.1983511
1409347976825,-7.4232225,-2.7072437,-1.3275849,-8.920392,-3.3968565,-2.2490714
1409347976882,-7.7105265,-2.8431146,-0.38067806,-8.92912,-3.341646,-2.2966585
1409347976883,-7.8769236,-2.966416,0.53689975,-8.937295,-3.2981672,-2.3274908
1409347976883,-3.0334535,-1.091756,7.423821,-8.947864,-3.2613137,-2.338793
1409347976884,-7.7548194,-1.3509283,0.30226797,-8.965954,-3.236661,-2.303501
1409347976893,-7.9547353,-1.6765398,-1.5801731,-8.978286,-3.227824,-2.2675838
1409347976975,-7.843405,-2.1511903,-1.536479,-8.975646,-3.266326,-2.2224522
1409347976975,-8.283937,-2.6036944,-0.26036942,-8.968758,-3.4360635,-1.9812258
1409347976976,-9.172785,-3.117849,0.9768343,-8.968758,-3.4360635,-1.9812258
1409347976977,-9.3733,-3.4021606,1.5286977,-8.968758,-3.4360635,-1.9812258
1409347976977,-8.42759,-3.3560722,1.3299791,-8.973891,-3.502221,-1.8368834
1409347976978,-9.543886,-3.9151182,1.4760253,-8.974698,-3.5697079,-1.6977544
1409347976978,-10.873865,-4.808754,0.50397944,-8.972333,-3.6423326,-1.549529
1409347976978,-14.079701,-6.3901243,-3.4440591,-8.959378,-3.728855,-1.4126468
1409347976979,-10.999561,-3.4500446,-4.8404775,-8.93197,-3.827899,-1.3181436
1409347976979,-7.3005195,-0.74878657,-3.1196449,-8.909239,-3.907617,-1.2354606
1409347977027,-5.8065376,-0.6440403,-0.29029694,-8.904861,-3.949681,-1.1286627
1409347977028,-5.3276973,-1.6142905,1.5855601,-8.916192,-3.9571621,-1.0063597
1409347977028,-6.0746884,-2.5833437,2.542642,-8.929052,-3.9636216,-0.85564363
1409347977029,-6.8569937,-3.7582982,3.0059202,-8.930772,-3.9900522,-0.70086044
1409347977029,-6.8719573,-5.173271,3.2190042,-8.9110365,-4.0580983,-0.5437439
1409347977075,-6.944382,-6.1746464,2.7090392,-8.861297,-4.1798472,-0.4203256
1409347977075,-6.4416,-6.3685765,1.0791864,-8.783531,-4.3469753,-0.35181612
1409347977076,-5.9944825,-6.919243,-0.51954174,-8.684818,-4.541505,-0.3450725
1409347977076,-5.923255,-7.2723875,-1.9147629,-8.566026,-4.7578692,-0.3952958
1409347977077,-5.6682725,-7.41185,-2.9221232,-8.427836,-4.989378,-0.49806234
1409347977094,-5.943606,-7.1724296,-3.7379475,-8.273444,-5.226306,-0.63736737
1409347977097,-5.559336,-7.055114,-4.173094,-8.103016,-5.468219,-0.78111356
1409347977111,-5.8771667,-9.36073,-5.434838,-7.9172983,-5.71232,-0.92530227
1409347977128,-6.2422824,-11.246762,-6.6079965,-7.7103214,-5.965156,-1.0668857
1409347977129,-5.8693852,-11.740566,-7.6243353,-7.4947753,-6.21137,-1.1906272
1409347977146,-3.019687,-8.681973,-5.849633,-7.308579,-6.4134197,-1.2740088
1409347977147,-1.6621746,-7.5207863,-3.3686419,-7.1991553,-6.5443134,-1.2306664
1409347977160,-1.9692309,-7.5094137,-1.4347254,-7.133311,-6.6496468,-1.0336592
1409347977165,-4.2622776,-7.8703394,0.65660983,-7.070037,-6.7541947,-0.7522043
1409347977179,-6.2422824,-7.8248496,2.2062569,-6.961849,-6.8953147,-0.39705873
1409347977192,-7.9888525,-9.025542,2.397793,-6.794096,-7.071506,-0.066733114
1409347977197,-8.971074,-9.685144,3.371036,-6.5885754,-7.261454,0.17984979
1409347977210,-8.533533,-9.048286,3.1316159,-6.3801155,-7.440189,0.32884032
1409347977230,-5.0308166,-4.2419267,1.4335283,-6.193161,-7.593014,0.4016174
1409347977230,-3.0550013,-2.9017725,1.6873137,-6.038349,-7.71459,0.44024378
1409347977245,-1.8537107,-2.6084828,1.5400703,-5.888762,-7.8275046,0.4722604
1409347977245,-1.0145429,-2.64679,1.7154455,-5.714838,-7.9524355,0.5193775
1409347977259,-0.6003461,-2.9999347,2.7485435,-5.486305,-8.106232,0.59988254
1409347977277,-0.60453594,-3.3734303,4.2239704,-5.2100005,-8.278525,0.7016478
1409347977278,-0.41838676,-2.8868086,4.235343,-4.9015346,-8.455394,0.8072598
1409347977294,-0.130484,-2.1212628,3.0430303,-4.5862393,-8.622622,0.8872458
1409347977310,0.094570965,-1.6220716,2.1499932,-4.2909856,-8.771406,0.90570384
1409347977311,0.11731588,-1.2012907,1.4227544,-4.013695,-8.906515,0.85711074
1409347977332,0.107739076,-0.9139865,0.86969376,-3.758356,-9.024554,0.77625036
1409347977333,0.1340753,-0.83018947,0.6302736,-3.5151124,-9.130543,0.66900635
1409347977337,-0.02932897,-1.0283096,0.6159084,-3.2760437,-9.226415,0.5578648
1409347977345,-2.4115596,-5.7263317,1.1450269,-3.037959,-9.313377,0.44968614
1409347977363,-1.1228806,-18.316242,0.65301853,-4.4235787,-8.339531,2.6560411
1409347977376,9.326612,-19.608511,-5.0308166,-3.2166166,-9.052637,1.9681308
1409347977377,1.1097125,-19.608511,-6.305729,-2.9501953,-9.151968,1.9256735
1409347977395,-5.66528,-14.9889,-4.311359,-0.32152826,-9.799922,-0.16891046
1409347977397,-2.1218612,-6.694188,-1.780089,-0.4605106,-9.772409,-0.67701024
1409347977408,-0.92057055,-3.952827,-0.53809685,-0.5115385,-9.752859,-0.8890818
1409347977427,-0.94331545,-3.977966,-0.08619126,-0.7485241,-9.733892,-0.928129
1409347977427,-1.1091139,-5.925649,-0.16759412,-0.960342,-9.718952,-0.8888842
1409347977445,-0.2681506,-9.419987,-0.010773907,-1.0724097,-9.711819,-0.83721364
1409347977446,-0.37828386,-13.551182,-0.427365,-0.9750185,-9.729243,-0.74935067
1409347977458,0.3633201,-15.239693,0.16101007,-0.8251599,-9.7469635,-0.69725394
1409347977476,3.0466216,-12.73835,0.34596214,-0.6551471,-9.767898,-0.57391924
1409347977479,5.309142,-10.498574,0.20111294,-0.3231015,-9.791236,-0.44460255
1409347977498,7.4669166,-9.902418,-0.20949265,0.124588504,-9.800302,-0.33005556
1409347977499,8.823831,-9.109339,-0.9995792,0.7449907,-9.774349,-0.27825814
1409347977505,9.241618,-8.053496,-1.7824832,1.487282,-9.686931,-0.34893852
1409347977528,8.354567,-7.117962,-2.4145525,2.2517583,-9.530821,-0.51325
1409347977529,6.781576,-7.0820484,-2.517503,2.9088194,-9.337103,-0.726409
1409347977544,5.7658362,-7.5124063,-2.321777,3.352288,-9.172297,-0.8952979
1409347977545,5.3558292,-8.60117,-2.147599,3.6674352,-9.030287,-1.0836195
1409347977558,5.003283,-9.646238,-1.6304513,3.8718684,-8.930884,-1.1909415
1409347977576,4.5441947,-10.171766,-0.8678981,3.964178,-8.885581,-1.2256167
1409347977577,3.7708676,-10.175956,0.06284779,3.9740603,-8.886751,-1.1844237
1409347977591,2.823961,-10.010158,0.6362591,3.9125853,-8.9293165,-1.0627108
1409347977609,2.1374235,-9.965266,0.79367787,3.78187,-9.003715,-0.89495736
1409347977609,1.5149311,-10.067618,0.7457938,3.6045966,-9.090739,-0.73193336
1409347977624,0.9163807,-10.180145,0.53450555,3.3865988,-9.186019,-0.56426454
1409347977625,0.3465607,-10.222044,0.10534488,3.1247928,-9.285978,-0.42033714
1409347977643,-0.22266077,-10.435727,-0.34476504,2.8287942,-9.383995,-0.33005702
1409347977645,-0.6841431,-10.716447,-0.770933,2.4945855,-9.479503,-0.294049
1409347977659,-0.88166475,-11.062409,-0.94690675,2.1327717,-9.566815,-0.3126441
1409347977674,-0.55365914,-11.297041,-0.89782566,1.7700112,-9.638993,-0.3567498
1409347977678,-0.13826515,-11.597513,-0.58777654,1.4642186,-9.688457,-0.40036973
1409347977692,1.3317747,-11.971607,0.024540568,1.2426962,-9.718937,-0.4103215
1409347977697,3.4075475,-11.835736,0.65242,1.1624233,-9.730781,-0.36207888
1409347977709,3.7307649,-10.852318,0.98581254,1.2933345,-9.717373,-0.26524055
1409347977726,1.555034,-9.560047,0.7697359,1.4942414,-9.691026,-0.14712241
1409347977726,-0.83737206,-9.385271,0.039504327,1.5652976,-9.680784,-0.05172259
1409347977745,-2.247557,-10.390836,-0.7170634,1.4436326,-9.699795,-0.017517244
1409347977746,-2.742558,-11.497555,-1.3916297,1.1537992,-9.738419,-0.04860709
1409347977759,-2.5611973,-11.476007,-1.7537527,0.7895891,-9.773576,-0.15534341
1409347977775,-2.088941,-10.514136,-1.7986441,0.4663579,-9.79168,-0.27545887
1409347977779,-1.6053122,-9.458294,-1.8602947,0.21040888,-9.796448,-0.39461893
1409347977791,-1.3874398,-9.258977,-2.0428526,0.028811084,-9.792636,-0.5233207
1409347977808,-1.3670892,-9.855133,-2.2882583,-0.105423786,-9.783096,-0.67104226
1409347977808,-0.92655605,-9.955689,-2.3493104,-0.21670827,-9.768883,-0.83209497
1409347977825,-0.22445641,-9.606734,-2.2373815,-0.28056875,-9.752471,-0.99043614
1409347977826,0.31244332,-9.149442,-1.8908207,-0.2825237,-9.73707,-1.1314018
1409347977842,1.1797429,-9.120112,-1.7429788,-0.23326544,-9.727634,-1.2202959
1409347977845,1.411382,-9.193136,-1.6286557,-0.09949966,-9.719066,-1.3039479
1409347977860,1.5155296,-9.6767645,-1.5520413,0.050661683,-9.710586,-1.3683406
1409347977876,1.5197195,-10.207679,-1.4574703,0.20233606,-9.70234,-1.4121137
1409347977877,1.5741876,-10.381259,-1.2880806,0.34063628,-9.695477,-1.4325275
1409347977891,1.7196354,-10.386645,-1.1821371,0.46855393,-9.690544,-1.4297657
1409347977908,1.8267759,-10.574591,-0.9935937,0.5921344,-9.686364,-1.4121494
1409347977909,2.1110873,-10.854712,-1.0181342,0.7070117,-9.6846485,-1.3704373
1409347977925,2.2930467,-11.572374,-1.1168951,0.83297205,-9.680375,-1.3292396
1409347977926,1.951873,-8.406641,-0.5291186,0.95103085,-9.675118,-1.2876292
1409347977942,2.190096,-6.9599442,-0.37828386,1.0549057,-9.672098,-1.2280536
1409347977946,2.533664,-7.6482773,-0.6997054,1.1941631,-9.662767,-1.1727339
1409347977959,2.3385365,-9.272743,-1.1091139,1.3521029,-9.645503,-1.1430068
1409347977973,1.8357542,-10.900801,-1.4610616,1.4620769,-9.629625,-1.1415046
1409347977980,1.6358383,-11.7543335,-1.5705963,1.4940201,-9.622369,-1.1611855
1409347977991,2.0087352,-11.844714,-1.417966,1.4853547,-9.621475,-1.1795382
1409347978007,2.27928,-11.669938,-1.1976994,1.5020549,-9.618638,-1.1815561
1409347978007,2.0925324,-11.377247,-0.8619126,1.5310438,-9.616643,-1.1603963
1409347978022,1.887828,-11.277288,-0.6368576,1.5456048,-9.619845,-1.1135919
1409347978026,1.7040731,-11.297041,-0.5734113,1.555928,-9.625075,-1.0523458
1409347978041,1.3144168,-10.65719,-0.4261679,1.5551865,-9.631778,-0.9902789
1409347978046,1.1971009,-10.338761,-0.29927522,1.529142,-9.642335,-0.9260054
1409347978060,0.9792285,-9.737218,-0.17238252,1.4985493,-9.653169,-0.8608657
1409347978074,0.79008657,-9.701305,0.009576807,1.4560282,-9.6650505,-0.7982079
1409347978080,0.46088383,-9.452907,0.13826515,1.4005115,-9.678851,-0.727192
1409347978091,0.11432313,-9.44752,0.25438392,1.3215055,-9.695085,-0.6552368
1409347978108,-0.12449849,-9.435549,0.34237084,1.2155595,-9.713797,-0.5787842
1409347978109,-0.18076223,-9.114726,0.3441665,1.0938617,-9.732765,-0.49712652
1409347978123,-0.20111294,-9.063849,0.18555063,0.97513276,-9.749118,-0.41737494
1409347978126,-0.19273324,-9.298481,-0.054468088,0.86190736,-9.762274,-0.35430327
1409347978140,0.038307227,-9.376292,-0.26755205,0.7600997,-9.771805,-0.32324412
1409347978150,0.58298814,-9.446921,-0.44651863,0.68575376,-9.777652,-0.3125158
1409347978164,0.95588505,-9.501988,-0.5967548,0.67050534,-9.778373,-0.32289165
1409347978166,1.2802993,-10.235212,-0.82360536,0.69420624,-9.77575,-0.3509569
1409347978177,1.5699978,-10.829573,-1.0522517,0.74625677,-9.7700205,-0.40025312
1409347978191,1.6166847,-10.8182,-1.246182,0.8168141,-9.761498,-0.46515143
1409347978207,1.738789,-10.89661,-1.4520833,0.88267076,-9.751952,-0.5391922
1409347978207,1.9566613,-11.003153,-1.6154876,0.9489926,-9.740807,-0.62167525
1409347978221,2.0308816,-10.854114,-1.6903064,1.028112,-9.726912,-0.70753163
1409347978226,1.8441339,-10.134057,-1.5640123,1.1033243,-9.712297,-0.79015434
1409347978240,1.5616181,-9.1272955,-1.389834,1.1648803,-9.699402,-0.8573364
1409347978255,1.3371617,-8.879496,-1.376666,1.2073598,-9.68921,-0.9120611
1409347978259,1.3090298,-9.34397,-1.5167267,1.2276345,-9.681669,-0.96364456
1409347978273,1.388637,-9.873089,-1.6573862,1.2369381,-9.674735,-1.0197575
1409347978286,1.2904748,-10.318411,-1.6627731,1.245428,-9.667104,-1.0800205
1409347978287,1.1198878,-10.380061,-1.4341269,1.2379911,-9.662271,-1.1306331
1409347978304,1.2060791,-10.384252,-1.3138182,1.2162275,-9.662248,-1.1542028
1409347978306,1.1587936,-10.412982,-1.1881226,1.2050796,-9.66262,-1.1627345
1409347978323,1.1785458,-10.406996,-1.1575965,1.1894802,-9.66538,-1.1558447
1409347978326,1.1713632,-10.598533,-1.2425907,1.179509,-9.667591,-1.1475328
1409347978340,1.3449428,-10.844537,-1.3150153,1.1700824,-9.668787,-1.1471137
1409347978355,1.6089035,-10.706271,-1.2719196,1.1753552,-9.667576,-1.1519371
1409347978357,1.6741456,-10.183139,-1.1923125,1.2052052,-9.663509,-1.1551889
1409347978373,1.6376339,-9.60853,-1.2635399,1.2432156,-9.658792,-1.1543629
1409347978389,1.6286557,-9.441534,-1.4131776,1.2809309,-9.6521015,-1.16899
1409347978389,1.7130513,-9.938332,-1.5400703,1.319239,-9.643914,-1.1936872
1409347978405,1.9422961,-10.362105,-1.4873978,1.3572174,-9.6355715,-1.2182617
1409347978406,2.099715,-10.255563,-1.323395,1.4090122,-9.626593,-1.230369
1409347978421,2.1200657,-9.970653,-1.2479776,1.4717586,-9.617153,-1.2307336
1409347978426,1.845331,-9.615712,-1.2611457,1.5330367,-9.6074505,-1.2317104
1409347978440,1.5771804,-9.922171,-1.364695,1.5654536,-9.601386,-1.2381945
1409347978454,1.6525977,-10.231023,-1.3802572,1.5705785,-9.598875,-1.2510978
1409347978460,1.5598224,-10.174759,-1.1671734,1.5756642,-9.596863,-1.2601234
1409347978475,1.4814123,-10.172963,-0.8972271,1.5674545,-9.599868,-1.2474159
1409347978479,1.5729905,-10.406996,-0.6913257,1.5525428,-9.607285,-1.2083412
1409347978488,1.560421,-10.331579,-0.5710171,1.5468931,-9.615588,-1.1480331
1409347978505,1.3784616,-10.092158,-0.6051345,1.540809,-9.624357,-1.0807734
1409347978506,1.1623849,-10.081385,-0.7080852,1.5235245,-9.6332445,-1.0246418
1409347978522,1.0163386,-10.042479,-0.741604,1.4879096,-9.642718,-0.9871692
1409347978526,0.82480246,-9.670779,-0.65660983,1.442641,-9.652795,-0.9553736
1409347978541,0.6871359,-9.398438,-0.52253455,1.3855135,-9.66397,-0.9265128
1409347978555,0.91937345,-10.00477,-0.6015432,1.3214719,-9.676248,-0.8912702
1409347978560,1.1959038,-10.754155,-0.80684596,1.2758473,-9.685291,-0.85891813
1409347978570,1.2132617,-10.641628,-0.9564836,1.2511972,-9.690116,-0.8405717
1409347978586,1.4688427,-10.42196,-1.0737995,1.2343425,-9.692376,-0.8394366
1409347978587,1.775899,-10.205285,-1.1767502,1.2476544,-9.689576,-0.8519711
1409347978603,1.91596,-10.068815,-1.3581109,1.2908503,-9.681545,-0.8785241
1409347978606,1.8357542,-10.009559,-1.5334862,1.3445754,-9.670117,-0.9226731
1409347978621,1.9111716,-10.1065235,-1.6927006,1.3897341,-9.657836,-0.98246557
1409347978626,2.2463598,-10.451289,-1.8411411,1.436109,-9.643818,-1.0510913
1409347978640,2.5246856,-10.715848,-1.939902,1.499422,-9.62638,-1.1202286
1409347978654,2.337938,-10.323798,-1.894412,1.5752873,-9.606686,-1.1834254
1409347978658,2.1978772,-9.770139,-1.8124107,1.6338495,-9.590214,-1.2364274
1409347978671,2.1511903,-9.61272,-1.8171991,1.68335,-9.575452,-1.2835318
1409347978686,2.1206641,-9.959281,-1.977012,1.7277132,-9.5624,-1.3213288
1409347978687,1.9859903,-10.529699,-2.1098902,1.7596295,-9.550452,-1.3649083
1409347978701,1.6627731,-10.817602,-2.0655975,1.7684929,-9.542027,-1.4115818
1409347978706,1.4107834,-10.56681,-1.8423382,1.742124,-9.540916,-1.4513282
1409347978719,1.252766,-10.0029745,-1.4454993,1.6953228,-9.545599,-1.4757348
1409347978726,1.0097545,-9.502586,-1.0468647,1.6448672,-9.555072,-1.471528
1409347978740,0.5081693,-8.938153,-0.57879823,1.5859114,-9.570191,-1.4375978
1409347978754,0.37110126,-9.0237465,-0.52492875,1.4960052,-9.594596,-1.3697038
1409347978760,0.35673606,-9.322423,-0.5374983,1.4009604,-9.619022,-1.2969618
1409347978770,0.2908955,-9.393052,-0.5093664,1.3059151,-9.6414175,-1.2280238
1409347978787,0.29269117,-9.339781,-0.46986207,1.2107697,-9.661976,-1.1621733
1409347978787,0.53809685,-9.387665,-0.4321534,1.124958,-9.679505,-1.1009418
1409347978803,0.9331401,-9.634866,-0.40581718,1.0693512,-9.692163,-1.0434827
1409347978807,1.0737995,-9.79827,-0.46148238,1.0519842,-9.699965,-0.9871073
1409347978824,1.0833763,-9.650429,-0.57760113,1.0502067,-9.705204,-0.93621117
1409347978828,1.2719196,-9.663596,-0.6997054,1.0465543,-9.708534,-0.9052403
1409347978845,1.4802152,-9.842564,-0.842759,1.0637325,-9.708469,-0.8857243
1409347978866,1.5496471,-10.049063,-0.98461545,1.095069,-9.705743,-0.87734747
1409347978867,1.4945804,-10.148422,-1.1438298,1.1263704,-9.701893,-0.8803116
1409347978868,1.4077905,-10.139444,-1.3210008,1.1499784,-9.697508,-0.8979443
1409347978899,1.2689269,-10.095152,-1.4598645,1.1175711,-9.701042,-0.9006641
1409347978900,1.2940661,-10.09575,-1.4850036,1.0788801,-9.7050495,-0.9046786
1409347978901,1.4957775,-10.1161,-1.4544775,1.039709,-9.708971,-0.9084651
1409347978907,1.7980455,-10.34355,-1.435324,1.0004972,-9.712747,-0.9121353
1409347978930,1.95307,-10.837354,-1.4311341,0.9629241,-9.715962,-0.91828096
1409347978931,1.905186,-11.299435,-1.3994108,0.9274416,-9.7183485,-0.92949563
1409347978941,1.7884687,-11.21444,-1.328782,0.89603496,-9.719573,-0.9473265
1409347978962,1.6190789,-10.658986,-1.0516531,0.8691543,-9.719672,-0.9710446
1409347978963,1.4772224,-10.142437,-0.60094464,0.84334207,-9.719531,-0.99495095
1409347978967,1.3132197,-9.561843,-0.1592144,0.815145,-9.720024,-1.0134318
1409347978997,1.127669,-9.323022,0.1376666,0.7832605,-9.721011,-1.0290087
1409347978998,0.866701,-9.452907,0.29269117,0.7468369,-9.722692,-1.0401468
1409347979001,0.6410475,-9.421184,0.33877954,0.7058371,-9.725416,-1.043295
1409347979007,0.55605334,-8.950723,0.3549404,0.6619202,-9.728975,-1.038893
1409347979041,0.49559975,-8.841188,0.25498247,0.6165952,-9.73325,-1.02668
1409347979041,0.40641573,-9.237429,-0.006584055,0.56800944,-9.738393,-1.0057056
1409347979042,0.41120413,-9.841366,-0.32621,0.5165242,-9.744128,-0.9775351
1409347979088,0.58119243,-10.020332,-0.5979519,0.46504417,-9.749593,-0.9484727
1409347979089,0.86849666,-9.784504,-0.75836337,0.41448712,-9.754976,-0.9160025
1409347979090,0.9947908,-10.046669,-0.9540894,0.36787558,-9.760152,-0.88004977
1409347979090,1.062427,-10.403405,-1.2575544,0.32638243,-9.76476,-0.84459263
1409347979091,1.1599907,-10.378265,-1.6328455,0.29229864,-9.768267,-0.8160376
1409347979113,1.264737,-10.357317,-1.9351135,0.26647595,-9.770622,-0.7964584
1409347979114,1.3305776,-10.539276,-2.1320367,0.24886195,-9.7721,-0.78391695
1409347979121,1.4610616,-10.609905,-2.1751323,0.23589462,-9.772999,-0.7767127
1409347979147,1.4850036,-10.490194,-2.1410148,0.23267713,-9.77321,-0.77500534
1409347979148,1.340753,-10.434529,-2.0931308,0.23570758,-9.7729025,-0.77797294
1409347979149,1.1366472,-10.45907,-2.0015526,0.24227673,-9.772348,-0.7828905
1409347979161,0.9528923,-10.495582,-1.8303672,0.25165597,-9.771639,-0.7887737
1409347979173,0.75956047,-10.313024,-1.6232687,0.26256227,-9.770772,-0.79593235
1409347979190,0.62488663,-10.171167,-1.3802572,0.27186522,-9.76976,-0.8051532
1409347979191,0.3561375,-10.19451,-0.8331822,0.27833354,-9.76851,-0.81801265
1409347979212,0.2873042,-10.148422,-0.7104794,0.2796911,-9.767746,-0.82664025
1409347979213,0.3429694,-10.204686,-0.65301853,0.2794117,-9.766459,-0.84179103
1409347979220,0.46567222,-10.30225,-0.6135142,0.2787579,-9.764767,-0.86141986
1409347979235,0.48961425,-10.246585,-0.57760113,0.27777064,-9.762924,-0.8823551
1409347979241,0.4842273,-10.184934,-0.5979519,0.2749629,-9.761032,-0.90389943
1409347979254,0.46148238,-10.1621895,-0.5823896,0.2716808,-9.758839,-0.9282629
1409347979259,0.40761283,-10.136452,-0.5847838,0.26812604,-9.756364,-0.95492756
1409347979275,0.3549404,-10.1621895,-0.5770026,0.26469228,-9.753741,-0.98226744
1409347979290,0.3226187,-10.197504,-0.5770026,0.26114684,-9.751041,-1.0096698
1409347979291,0.3172317,-10.196306,-0.5650316,0.25781187,-9.748556,-1.0342051
1409347979304,0.3309984,-10.233417,-0.56802434,0.25530922,-9.746574,-1.0533266
1409347979307,0.3800795,-10.259154,-0.6159084,0.25401628,-9.7451,-1.0671856
1409347979322,0.40102878,-10.271125,-0.6823475,0.2531465,-9.744131,-1.0762124
1409347979339,0.4297592,-10.253169,-0.79128367,0.25192016,-9.743603,-1.0812865
1409347979341,0.4441244,-10.271125,-0.94092125,0.25211307,-9.743329,-1.0836855
1409347979356,0.4842273,-10.268731,-1.0498575,0.25314444,-9.743009,-1.0863346
1409347979373,0.57161564,-10.305841,-1.1408371,0.25656626,-9.742813,-1.0872726
1409347979374,0.7170634,-10.344747,-1.1420342,0.26241234,-9.74268,-1.0870786
1409347979394,0.85652566,-10.301651,-1.0971429,0.26987725,-9.74264,-1.0856127
1409347979395,0.92775315,-10.247183,-1.043872,0.27856064,-9.742528,-1.0844302
1409347979400,0.9720459,-10.163386,-1.0121487,0.28840983,-9.7421665,-1.0850878
1409347979407,0.99419224,-10.093954,-1.0271125,0.29955432,-9.741564,-1.0874645
1409347979424,1.0145429,-10.078991,-1.0390835,0.31182548,-9.7408495,-1.0904099
1409347979443,1.0199299,-10.125079,-1.0696096,0.32468146,-9.740165,-1.0927771
1409347979444,1.0714053,-10.08737,-1.0935516,0.3389318,-9.7395315,-1.0940946
1409347979448,1.1677719,-10.096349,-1.0893618,0.35538465,-9.738926,-1.0942613
1409347979478,1.2497733,-10.16578,-1.0684125,0.37346506,-9.738392,-1.0929976
1409347979480,1.2719196,-10.151415,-1.0546459,0.39275166,-9.7378025,-1.0914935
1409347979482,1.2838906,-10.149619,-1.0241197,0.41271424,-9.737008,-1.091206
1409347979488,1.2844892,-10.155006,-1.0145429,0.4333511,-9.73601,-1.0921143
1409347979510,1.2856863,-10.123283,-0.97623575,0.4543179,-9.734907,-1.0934411
1409347979511,1.264737,-10.046669,-0.9528923,0.47554392,-9.733722,-1.0949632
1409347979521,1.2449849,-9.946113,-0.9923966,0.49690586,-9.7326,-1.0954303
1409347979543,1.2252327,-9.953894,-1.0977415,0.51939446,-9.731609,-1.0938047
1409347979545,1.1833342,-9.980229,-1.2467805,0.5434034,-9.730766,-1.0896161
1409347979548,1.1306617,-10.011354,-1.3796587,0.56877637,-9.729951,-1.0839555
1409347979583,1.079785,-10.017939,-1.4341269,0.5949337,-9.729065,-1.0778344
1409347979584,1.0205284,-10.006566,-1.4556746,0.62151134,-9.728065,-1.0718559
1409347979585,0.94930094,-9.977836,-1.4466964,0.64739776,-9.726992,-1.0662463
1409347979588,0.84096336,-9.981427,-1.4694413,0.6724822,-9.725883,-1.0608342
1409347979610,0.7326257,-10.015544,-1.5370775,0.6959733,-9.724809,-1.0555308
1409347979612,0.6548142,-10.01315,-1.6172832,0.71844846,-9.723789,-1.049841
1409347979619,0.5823896,-9.991004,-1.6681601,0.73975074,-9.7228775,-1.043475
1409347979649,0.50158525,-9.969456,-1.726818,0.75958884,-9.722102,-1.0364064
1409347979651,0.35553896,-9.999982,-1.8267759,0.77823657,-9.721365,-1.0294805
1409347979653,0.08559271,-10.290278,-1.905186,0.7951655,-9.720622,-1.0235195
1409347979695,-0.033518825,-10.281899,-1.9602526,0.8087059,-9.720104,-1.0178187
1409347979695,-0.049679685,-10.21546,-1.965041,0.819889,-9.71978,-1.0119776
1409347979696,0.0011971008,-10.114903,-1.8567034,0.8274311,-9.719558,-1.0079396
1409347979697,0.004189853,-10.004171,-1.7256209,0.8299349,-9.719281,-1.0085504
1409347979701,0.01316811,-9.933543,-1.567005,0.82627344,-9.71864,-1.0176923
1409347979707,0.038307227,-9.787497,-1.4083891,0.8179306,-9.717256,-1.0374644
1409347979721,0.10055647,-9.744401,-1.3395559,0.8078061,-9.714934,-1.0667385
1409347979743,0.17178397,-9.884461,-1.5095441,0.798596,-9.712085,-1.099114
1409347979744,0.04129998,-10.031107,-1.7459716,0.78938925,-9.708344,-1.138122
1409347979748,-0.049081136,-9.862315,-1.8525136,0.78122085,-9.704197,-1.1784225
1409347979776,0.06823475,-9.669582,-1.7537527,0.7787588,-9.699829,-1.2154093
1409347979777,0.22625206,-9.529521,-1.553837,0.7829788,-9.695474,-1.2470511
1409347979782,0.24660277,-9.552865,-1.3964181,0.78832775,-9.691315,-1.2756693
1409347979788,0.17417817,-9.578603,-1.2449849,0.79185826,-9.686776,-1.3075638
1409347979811,0.130484,-9.584588,-1.2192472,0.7939149,-9.681925,-1.3418103
1409347979812,0.18076223,-9.718663,-1.2677298,0.7980881,-9.675742,-1.3832898
1409347979822,0.21547815,-9.959879,-1.3533225,0.8036127,-9.668465,-1.430183
1409347979842,0.20290859,-10.172963,-1.4173675,0.8093343,-9.660667,-1.4788188
1409347979843,0.1388637,-10.254965,-1.4323312,0.8147265,-9.652812,-1.5263901
1409347979848,0.090979666,-10.164583,-1.3700819,0.81891286,-9.644985,-1.5729104
1409347979877,0.05267244,-10.122087,-1.2970588,0.8206462,-9.636939,-1.6205987
1409347979880,0.05267244,-10.113108,-1.1528081,0.81769353,-9.628067,-1.6739374
1409347979882,0.23523031,-10.06283,-0.8086416,0.8132722,-9.61861,-1.729536
1409347979888,0.3513491,-9.988609,-0.63206923,0.80748105,-9.607565,-1.7925112
1409347979916,0.36391866,-10.040085,-0.57640404,0.80219054,-9.594381,-1.8640736
1409347979917,0.39863458,-10.075998,-0.41000703,0.7998788,-9.578782,-1.943575
1409347979920,0.557849,-10.079589,-0.08379706,0.80295336,-9.561511,-2.0256343
1409347979949,0.7541735,-10.044274,0.24121583,0.810487,-9.543647,-2.1052983
1409347979950,0.96546185,-10.008362,0.40342298,0.82044196,-9.526406,-2.1782665
1409347979950,1.1671734,-9.918579,0.48003745,0.8318901,-9.509617,-2.2462234
1409347979974,1.4191631,-9.872491,0.38606504,0.8465742,-9.494931,-2.3021722
1409347979975,1.5442601,-9.809045,0.24720132,0.866324,-9.482563,-2.3453958
1409347979979,1.5801731,-9.765948,0.0077811554,0.89290833,-9.472587,-2.375545
1409347979988,1.412579,-9.704298,-0.35254622,0.92731154,-9.46421,-2.395676
1409347980023,1.1510124,-9.572019,-0.7092823,0.9693156,-9.456714,-2.4086142
1409347980025,0.95827925,-9.632472,-1.1145009,1.0188322,-9.450117,-2.414054
1409347980026,0.7966706,-9.733627,-1.4401124,1.0727677,-9.445359,-2.4093103
1409347980052,0.5255273,-9.694122,-1.7076644,1.1251158,-9.441526,-2.400438
1409347980052,0.22565351,-9.668983,-1.9632454,1.1780673,-9.440421,-2.3792858
1409347980062,-0.06404489,-9.661801,-2.156577,1.2278996,-9.441199,-2.3508396
1409347980076,-0.362123,-9.673772,-2.336741,1.2730826,-9.443072,-2.3190637
1409347980077,-0.62249243,-9.841366,-2.4672248,1.3126479,-9.445717,-2.2859914
1409347980082,-0.7637503,-10.251373,-2.4109612,1.3444256,-9.449139,-2.2531588
1409347980088,-0.88166475,-10.645219,-2.4103625,1.3664485,-9.453434,-2.221673
1409347980109,-1.2060791,-10.784083,-2.56419,1.3807632,-9.458086,-2.1928282
1409347980110,-1.5167267,-11.401787,-2.634819,1.3840549,-9.4622135,-2.172862
1409347980121,-1.780089,-11.732785,-2.7682958,1.3745888,-9.465251,-2.1656232
1409347980137,-1.8818425,-11.5616,-2.861071,1.3557483,-9.464762,-2.1795945
1409347980140,-1.4407109,-10.910975,-2.7623103,1.3312448,-9.459467,-2.2173564
1409347980153,-1.1444284,-11.027693,-2.4612393,1.3081664,-9.449454,-2.2730794
1409347980168,-1.4437037,-11.94168,-2.2104468,1.2789629,-9.436511,-2.3424184
1409347980168,-1.7896658,-12.747329,-1.9931729,1.2378619,-9.420287,-2.428229
1409347980187,-1.9991584,-13.396157,-1.721431,1.1891207,-9.402671,-2.519166
1409347980188,-2.2990322,-14.050373,-1.5634137,1.1422017,-9.381637,-2.6173723
1409347980210,-2.6689363,-14.643537,-1.323395,1.0912235,-9.361457,-2.7097507
1409347980211,-3.152565,-15.308526,0.013766659,1.0316619,-9.34593,-2.7856205
1409347980220,-3.4542346,-15.923237,3.590704,0.95887953,-9.341363,-2.8266432
1409347980245,-2.3439236,-15.382746,6.35062,0.86944157,-9.357056,-2.8035674
1409347980246,0.08439561,-14.610616,10.258555,0.7815955,-9.379621,-2.753585
1409347980248,1.3880384,-14.911088,14.295778,0.7285662,-9.412149,-2.6553848
1409347980279,1.2150574,-15.119983,8.973468,0.6803034,-9.462528,-2.4835792
1409347980280,1.1013328,-14.689625,4.7907977,0.64329207,-9.490845,-2.383371
1409347980282,0.8822633,-13.924079,3.0897174,0.63213557,-9.53286,-2.2125564
1409347980288,0.8002619,-13.39915,2.0039468,0.6205764,-9.59503,-1.9289042
1409347980303,0.21188685,-13.082517,0.045489833,0.5806468,-9.654502,-1.6198212
1409347980319,0.3453636,-12.318168,-2.1571758,0.5050833,-9.70181,-1.3379678
1409347980320,0.7356185,-12.601881,-3.6870706,0.4123609,-9.738468,-1.0782167
1409347980338,0.57161564,-12.69705,-4.7560816,0.31391543,-9.765896,-0.8361457
1409347980340,0.7128736,-12.986749,-5.5264163,0.19924481,-9.78497,-0.6205153
1409347980358,1.5047557,-14.000094,-5.6946087,0.07043839,-9.796484,-0.44081837
1409347980361,2.6868927,-14.006679,-5.2085857,-0.07008447,-9.80198,-0.29436025
1409347980368,3.3584664,-13.46918,-4.301183,-0.21341187,-9.802959,-0.16384909
1409347980396,3.364452,-13.395558,-3.164536,-0.34431264,-9.800511,-0.04253712
1409347980398,2.6144683,-14.050971,-1.6136919,-0.44872665,-9.796106,0.07301614
1409347980401,1.18094,-14.425664,0.062249243,-0.5435864,-9.789614,0.19587387
1409347980434,-0.2789245,-14.156316,0.29149407,-0.6319041,-9.780903,0.32411155
1409347980435,-0.79487497,-13.442844,-1.0235212,-0.7391101,-9.7684965,0.44788757
1409347980435,0.092176765,-11.963826,-2.0332758,-0.88263774,-9.750609,0.5629706
1409347980475,0.81522566,-11.00435,-3.0358477,-1.0577506,-9.726307,0.6711872
1409347980477,1.5011644,-10.633248,-4.4184995,-1.2501711,-9.696833,0.7608476
1409347980479,1.3958195,-10.242394,-4.032434,-1.4311496,-9.666311,0.8274182
1409347980483,1.834557,-10.14543,-2.4708161,-1.5899072,-9.634081,0.9094202
1409347980484,2.9370868,-8.981249,-3.3028011,-1.7254566,-9.599336,1.0227
1409347980491,3.317765,-7.315483,-4.542998,-1.82858,-9.564742,1.1586113
1409347980510,3.0693667,-6.369175,-4.0898952,-1.924878,-9.528336,1.2946254
1409347980511,2.7491422,-5.544971,-2.8886044,-2.030446,-9.488892,1.4172622
1409347980520,1.8974048,-4.7578773,-2.4253263,-2.1372585,-9.445936,1.5416842
1409347980546,0.48961425,-4.19943,-2.7156234,-2.2338648,-9.400223,1.6781027
1409347980547,-0.3429694,-4.0581717,-2.1176715,-2.3150563,-9.355396,1.813139
1409347980550,-0.24181437,-4.033033,-1.9949685,-2.384593,-9.310778,1.9476942
1409347980589,1.9440918,-4.3275194,-1.8602947,-2.4477475,-9.27026,2.059422
1409347980591,3.0382419,-4.470573,-1.6944963,-2.499766,-9.235774,2.149889
1409347980592,3.5392287,-4.437054,-2.2619221,-2.5460827,-9.206574,2.2196512
1409347980593,3.8564603,-4.1904516,-2.3678656,-2.588266,-9.183246,2.2669916
1409347980617,4.0378213,-3.7654808,-2.4169466,-2.6278565,-9.164625,2.2966151
1409347980618,3.7499185,-3.4859576,-2.695871,-2.6664515,-9.150431,2.3086896
1409347980621,3.311181,-3.0292637,-3.1094694,-2.698074,-9.142678,2.302655
1409347980643,2.891597,-2.6479871,-3.3782187,-2.7235217,-9.138288,2.2900908
1409347980644,2.617461,-2.5558102,-3.425504,-2.732351,-9.142575,2.2622943
1409347980649,2.7940333,-3.0992942,-2.9113493,-2.7220893,-9.156411,2.2182746
1409347980677,3.3997664,-4.2521024,-1.9931729,-2.6897678,-9.180525,2.1572003
1409347980679,3.1800983,-6.7199254,-0.0035913025,-2.6325147,-9.216372,2.073347
1409347980681,-0.14065935,-12.117653,9.498995,-2.5491524,-9.264448,1.9601574
1409347980689,-10.25676,-19.13446,19.587563,-2.4318435,-9.309429,1.8950089
1409347980713,-19.058445,-19.608511,17.242441,-2.3381622,-9.367684,1.7175153
1409347980715,-19.542072,-19.608511,10.995371,-2.2399817,-9.42459,1.5264281
1409347980724,-16.424223,-18.898632,4.7099934,-2.1751287,-9.461316,1.3866134
1409347980744,-11.064204,-14.449606,4.485537,-2.2071333,-9.473523,1.2455087
1409347980745,-6.7187285,-12.480973,5.66109,-3.9274256,-8.589356,2.6398213
1409347980749,-3.2291796,-10.748769,4.7141833,-4.000513,-8.527473,2.729193
1409347980775,-1.1324574,-8.276156,3.5978866,-3.848804,-8.537736,2.9093232
1409347980776,-0.08379706,-6.0142345,1.6783354,-3.6295238,-8.566291,3.1009028
1409347980807,0.7398083,-5.2756233,-1.8471266,-3.408131,-8.634231,3.1630878
1409347980808,2.9592333,-6.2650275,-4.4657845,-3.1956239,-8.795486,2.9321957
1409347980809,6.2368956,-9.974244,-5.8693852,-2.7826116,-9.085993,2.4232607
1409347980810,6.634333,-12.428301,-5.8364654,-1.982949,-9.459176,1.6620045
1409347980820,4.8506527,-12.822745,-3.9073372,-1.1127058,-9.70293,0.88623166
1409347980841,3.2824504,-13.041217,-1.429937,-0.4654957,-9.788489,0.37306994
1409347980842,1.9752164,-16.394896,0.6907272,-0.047124155,-9.805211,0.16132045
1409347980849,-0.5686229,-19.545065,2.7868507,0.16870938,-9.80368,0.17265081
1409347980870,-0.7266402,-18.50239,1.6089035,0.11368483,-9.799424,0.3588181
1409347980871,0.7410054,-13.544598,1.6406267,0.051243283,-9.798511,0.39620766
1409347980887,4.0360255,-8.627506,0.5823896,0.07803835,-9.796181,0.44625732
1409347980906,6.4386067,-5.415086,-0.37110126,0.344775,-9.791069,0.43184888
1409347980907,6.6163764,-4.4364557,-1.2413936,0.8279833,-9.76441,0.37568802
1409347980909,6.315904,-5.109825,-2.5222914,1.3711894,-9.706491,0.2724924
1409347980921,5.553351,-6.147113,-3.3638535,1.9205834,-9.616623,0.048261635
1409347980936,4.6902413,-6.766014,-3.1070752,2.352782,-9.516716,-0.25871465
1409347980955,4.2341456,-7.153875,-2.2649148,2.6853533,-9.417046,-0.52774084
1409347980957,3.755904,-8.191162,-1.6190789,2.9285674,-9.332988,-0.6994541
1409347980969,3.1112652,-9.572617,-1.4131776,3.066669,-9.280045,-0.8041735
1409347980970,2.7700913,-10.573992,-1.311424,3.0895717,-9.266185,-0.87334645
1409347980982,2.5893292,-11.207857,-1.4107834,3.0446563,-9.277819,-0.9069395
1409347981015,2.179322,-12.006323,-1.6496049,2.9637573,-9.301397,-0.9330378
1409347981016,1.3545196,-12.467207,-1.9452889,2.8300903,-9.338687,-0.9746225
1409347981018,0.7422025,-10.324396,-1.5801731,2.6298318,-9.389547,-1.0444167
1409347981046,0.6452374,-9.093777,-1.4556746,2.4431756,-9.436351,-1.0754343
1409347981047,0.59017074,-8.826823,-1.560421,2.281004,-9.473378,-1.1056805
1409347981048,0.4818331,-8.769362,-1.7435774,2.1286032,-9.504359,-1.1430694
1409347981053,0.2873042,-8.860941,-2.0644004,1.9826907,-9.529484,-1.1951082
1409347981077,0.30645782,-9.000402,-1.9165585,1.8290745,-9.549547,-1.2771114
1409347981078,0.5093664,-8.930971,-1.3652935,1.6891114,-9.5664,-1.3421208
1409347981083,0.3716998,-8.957307,-0.40402153,1.5837114,-9.582616,-1.354889
1409347981102,-0.35314476,-9.339781,-1.4987702,1.4803982,-9.609246,-1.2810873
1409347981103,-1.9458874,-10.116699,-1.270124,1.3025243,-9.628917,-1.3257985
1409347981117,-3.481768,-11.021109,0.22804771,0.9855583,-9.666302,-1.3272738
1409347981120,-3.4081461,-10.986992,0.17776948,0.55177873,-9.719244,-1.1841583
1409347981134,-2.4624364,-10.95048,-1.7663223,0.15903439,-9.74511,-1.085331
1409347981151,-1.804031,-10.905589,-3.3333273,-0.11722031,-9.735711,-1.171569
1409347981152,-1.5424645,-10.055049,-4.0743327,-0.29649875,-9.706294,-1.3676065
1409347981169,-0.53091425,-8.988432,-3.1370027,-0.40971565,-9.662955,-1.621673
1409347981170,-0.06344634,-8.9842415,-1.9973627,-0.4274024,-9.633733,-1.7829549
1409347981188,-0.55365914,-10.120291,-1.4030021,-0.39317748,-9.622168,-1.8519472
1409347981189,-1.055843,-11.139024,-0.9624691,-0.39525136,-9.621944,-1.852672
1409347981202,-1.0684125,-11.638214,-0.59974754,-0.4315455,-9.632401,-1.7891356
1409347981217,-0.81522566,-11.83813,-0.33638534,-0.4706854,-9.648847,-1.6877947
1409347981234,-0.46926352,-11.6669445,-0.038307227,-0.49739978,-9.66779,-1.5674224
1409347981234,-0.077811554,-11.332953,0.3657143,-0.49061114,-9.689564,-1.4290087
1409347981253,0.10354923,-11.179725,0.97384155,-0.4562886,-9.712796,-1.2742817
1409347981254,-0.10295067,-11.279084,1.3581109,-0.4066469,-9.7388935,-1.0765736
1409347981273,-0.2813187,-11.545439,1.5753847,-0.37314007,-9.761909,-0.85807467
1409347981274,-0.25917232,-11.265318,1.6687586,-0.35512453,-9.779365,-0.6389608
1409347981282,-0.31603462,-10.786477,1.8938135,-0.3427271,-9.791031,-0.43437168
1409347981300,-0.7074866,-10.657789,2.1655555,-0.34455812,-9.797748,-0.23622341
1409347981301,-1.2300211,-10.723629,2.0871453,-0.3825199,-9.799118,-0.036852937
1409347981317,-1.8644845,-11.255142,1.6304513,-0.46218908,-9.794874,0.13117169
1409347981334,-2.3014264,-12.336124,1.4383167,-0.5907959,-9.78595,0.23777474
1409347981335,-2.4307132,-13.241133,1.389834,-0.7409467,-9.7737665,0.3080521
1409347981351,-2.4558525,-13.39915,1.7190368,-0.87972945,-9.759974,0.37333706
1409347981351,-2.5420437,-12.884397,2.211644,-1.0027096,-9.74329,0.48299336
1409347981368,-2.6330233,-12.202647,2.2505496,-1.1168495,-9.721599,0.6430679
1409347981369,-2.8933928,-12.02009,1.0911574,-1.2216821,-9.69831,0.7878072
1409347981386,-3.4913447,-12.695853,0.45370123,-1.3319781,-9.682569,0.80256724
1409347981406,-3.731962,-13.828909,1.0199299,-1.4619664,-9.666996,0.7630489
1409347981406,-3.903746,-15.362395,2.2900538,-1.5789453,-9.647483,0.7767878
1409347981409,-3.9683893,-16.730682,3.433884,-1.6832652,-9.620246,0.8876307
1409347981438,-3.9971197,-17.865534,8.413823,-1.7676176,-9.587898,1.0574089
1409347981439,-3.4368765,-17.122133,15.007455,-1.8262919,-9.513284,1.527247
1409347981458,-2.8233624,-14.688427,9.3978405,-1.9039564,-9.487313,1.592551
1409347981460,-1.9818004,-12.896966,-0.6793547,-1.891988,-9.19934,2.8218665
1409347981461,-1.122282,-12.612655,-4.4765587,-1.9227647,-9.260616,2.5912058
1409347981469,-0.41718966,-14.234726,-2.6862943,-1.8946751,-9.373389,2.1725948
1409347981488,-0.41718966,-13.851055,-4.176685,-1.7704601,-9.475982,1.8004578
1409347981490,-0.035314474,-13.323133,-5.1235914,-1.6386583,-9.575866,1.3371649
1409347981502,0.56203884,-14.42746,-5.061941,-1.5016557,-9.653219,0.8548466
1409347981513,1.2509704,-15.728708,-5.2863975,-1.3299483,-9.706838,0.4230296
1409347981530,2.7222073,-17.934366,-4.3448777,-1.1237124,-9.742023,0.024909401
1409347981530,5.457583,-19.607914,-1.0881647,-0.84494543,-9.767053,-0.2472516
1409347981548,9.280524,-19.608511,0.20111294,-0.4151792,-9.794329,-0.26301616
1409347981554,7.179612,-17.382504,-0.9056068,0.18676761,-9.802982,-0.19243805
1409347981571,1.857302,-13.92767,-3.6164417,0.5999866,-9.786413,-0.19102643
1409347981572,-1.9003977,-12.855067,-5.9106855,0.69885993,-9.774717,-0.36993808
1409347981581,-2.4157495,-11.9614315,-5.8478374,0.57738316,-9.762782,-0.72462773
1409347981601,-2.0470424,-10.579977,-5.853823,0.38763797,-9.739193,-1.0808692
1409347981601,-0.866701,-9.625289,-4.548983,0.18727204,-9.701215,-1.4218758
1409347981618,0.85652566,-9.308058,-4.6830587,0.08559797,-9.668565,-1.6376514
1409347981635,2.236783,-8.87351,-4.5663414,0.10348142,-9.631237,-1.8436189
1409347981635,1.7298107,-8.236053,-6.0022635,0.24811201,-9.594718,-2.0125113
1409347981649,2.4408886,-6.869563,-6.1040173,0.37083313,-9.52846,-2.2893946
1409347981650,3.040636,-5.6497173,-4.4220905,0.5518179,-9.4360895,-2.612675
1409347981665,2.6449943,-4.9003325,-2.949058,0.77080846,-9.35778,-2.8298786
1409347981669,2.3660698,-4.64535,-1.7896658,0.9327447,-9.304726,-2.9533846
1409347981683,2.4971523,-4.2880154,-1.4053963,1.0651274,-9.279477,-2.987842
1409347981700,2.6821043,-3.447052,-2.190096,1.2206373,-9.256036,-3.0010476
1409347981702,2.48578,-2.9604304,-3.4123359,1.433493,-9.191897,-3.10234
1409347981719,2.9741971,-2.7449522,-2.8089972,1.6251261,-9.07581,-3.3405151
1409347981732,3.508104,-2.3331497,-2.6162639,1.8943601,-8.957547,-3.5134215
1409347981732,4.5136685,-1.6759412,-2.5432408,2.2351632,-8.810814,-3.6802146
1409347981752,5.21098,-0.9684546,-3.0119057,2.7111864,-8.598889,-3.8573203
1409347981753,5.8149176,-0.27593175,-3.2555158,3.2899044,-8.282036,-4.093263
1409347981768,6.2243257,0.3429694,-3.514688,3.9488146,-7.8580904,-4.3390875
1409347981785,6.909666,0.5793968,-3.3381157,4.6437273,-7.301493,-4.6145854
1409347981785,6.6361284,0.06284779,-3.5464113,5.3787704,-6.646515,-4.8024006
1409347981798,6.576872,-0.1316811,-3.9366663,5.957568,-6.0157204,-4.9486213
1409347981813,7.305308,-0.427365,-3.394978,6.4169116,-5.396024,-5.0869017
1409347981813,7.9278,-2.1092918,-3.2794578,6.872901,-4.8237996,-5.0660257
1409347981829,8.425196,-6.2632318,-0.11611878,7.2114964,-4.4624925,-4.9245176
1409347981830,-2.135628,-17.83022,19.375078,7.471135,-4.6863303,-4.28845
1409347981848,-17.635689,-19.608511,17.902044,7.567583,-4.408207,-4.4124565
1409347981850,-19.60911,-19.608511,17.566856,7.6740766,-4.111501,-4.513808
1409347981866,-18.334198,-19.600132,8.009203,7.707205,-3.9515998,-4.5993743
1409347981883,-9.003994,-13.132196,3.816956,7.613448,-3.9113934,-4.7861032
1409347981884,-7.228095,-6.7731967,4.71538,-2.5252352,-8.94222,3.1353314
1409347981900,-5.453393,-4.276643,4.5058875,-3.0641522,-8.7314825,3.2469356
1409347981901,-1.347337,-4.976947,4.5423994,-3.3396142,-8.530471,3.4997776
1409347981927,3.4075475,-6.4781113,0.8158242,-3.2148416,-8.458151,3.7808568
1409347981928,13.829508,-17.559074,-4.237737,-2.6732333,-8.678787,3.7017362
1409347981930,9.1668,-13.860632,-4.3329067,-2.7250519,-8.639146,3.75628
1409347981967,4.8506527,-11.886613,-0.17298107,0.17679976,-9.591897,2.0333827
1409347981967,-1.0929531,-12.361263,4.702811,0.68303955,-9.618503,1.7855676
1409347981969,-0.39145198,-10.893618,1.4796166,0.5397867,-9.583196,2.0103164
1409347981980,1.9877859,-10.903793,-2.6779146,0.45549658,-9.610084,1.8997915
1409347981984,2.191293,-11.259931,-2.7138276,0.59753716,-9.679819,1.4541128
1409347982000,2.2218192,-10.696096,-1.2246342,0.7418692,-9.720314,1.0656133
1409347982002,3.5314474,-9.484032,-0.8110358,0.8938158,-9.725937,0.8818436
1409347982015,4.482544,-8.622119,-1.4891934,1.1763097,-9.710101,0.70753807
1409347982031,4.465186,-8.497022,-2.4247277,1.517996,-9.676503,0.48102644
1409347982031,4.1138372,-8.53892,-2.8724434,1.812215,-9.635268,0.21881343
1409347982055,3.3865983,-8.439561,-2.9017725,2.0653043,-9.586522,-0.05902736
1409347982056,2.7269957,-7.845799,-2.7281928,2.2455885,-9.540546,-0.32507834
1409347982062,2.8221653,-6.8761473,-2.0219033,2.3504307,-9.504054,-0.5646411
1409347982082,3.2860417,-6.723517,-1.5945383,2.4802113,-9.46003,-0.7258143
1409347982082,3.3716345,-7.469909,-1.4287399,2.6355462,-9.409295,-0.8303455
1409347982100,3.0963013,-8.722076,-1.5167267,2.765535,-9.364885,-0.90617436
1409347982113,2.746748,-10.470443,-2.0560207,2.8337064,-9.33694,-0.98085344
1409347982114,2.15957,-12.257115,-2.8101943,2.8228407,-9.328489,-1.0868565
1409347982130,1.6639702,-13.247717,-3.791817,2.7092426,-9.343558,-1.2362556
1409347982130,1.887828,-12.849082,-4.7255554,2.5326273,-9.363096,-1.4452064
1409347982146,1.8962077,-11.954847,-5.7107697,2.3932226,-9.355261,-1.7093787
1409347982150,0.9804256,-11.533468,-5.017648,2.2720218,-9.321437,-2.0295646
1409347982166,-0.15562311,-11.10311,-3.9803603,2.075441,-9.31175,-2.270293
1409347982178,-0.46806642,-10.238205,-3.2363622,1.8071423,-9.327357,-2.430029
1409347982182,-0.34356794,-9.264363,-3.0573955,1.5574583,-9.345523,-2.5309844
1409347982196,-1.0342951,-8.695741,-2.961029,1.3659024,-9.355271,-2.60453
1409347982201,-2.1511903,-8.599374,-2.8921957,1.1463369,-9.367022,-2.6674387
1409347982216,-3.520075,-9.300875,-2.0380642,0.8460085,-9.383909,-2.7197213
1409347982234,-3.6709096,-9.446921,-0.81283146,0.44063804,-9.42191,-2.683996
1409347982235,-3.2800562,-9.121908,0.4333505,0.050552085,-9.472756,-2.5366683
1409347982253,-2.9903579,-9.537302,1.9949685,-0.27873483,-9.532028,-2.2876065
1409347982254,-2.8173769,-10.224439,1.0510546,-0.54956865,-9.605462,-1.8982729
1409347982261,-2.247557,-10.245388,0.4369418,-0.7719962,-9.642072,-1.6139474
1409347982278,-1.1773487,-10.259753,0.08379706,-0.91938806,-9.660567,-1.4137031
1409347982284,-0.40701428,-10.103531,-0.24241292,-0.95100486,-9.676009,-1.2809522
1409347982299,-0.20590134,-9.865907,-0.26874915,-0.8983897,-9.69141,-1.1999568
1409347982316,-0.25737667,-9.649231,-0.110133275,-0.83263624,-9.704365,-1.1412375
1409347982316,-0.051475335,-9.644443,0.36391866,-0.7689353,-9.716193,-1.0838398
1409347982335,0.36152446,-9.957485,0.9463082,-0.69378424,-9.731945,-0.98909056
1409347982336,0.83258367,-10.601525,1.4856021,-0.5910662,-9.751849,-0.8499697
1409347982344,1.3718776,-11.183316,2.4037786,-0.45254475,-9.772729,-0.6777578
1409347982350,1.2587515,-11.798626,3.4853592,-0.27298343,-9.792718,-0.4456243
1409347982364,0.92296475,-12.158954,4.6004586,-0.12318887,-9.805168,-0.11791911
1409347982382,-0.439336,-12.70543,4.759074,-0.02006956,-9.803238,0.2578893
1409347982383,-1.1719618,-12.483368,3.4805708,-0.060121585,-9.787387,0.6114061
1409347982397,-1.9632454,-12.267291,1.845331,-0.16789486,-9.769942,0.8309201
1409347982415,-2.0638018,-11.673529,1.1791444,-0.34123892,-9.75802,0.9137629
1409347982415,-1.6101006,-10.62008,0.6398504,-0.51544136,-9.746078,0.9584973
1409347982432,-1.6986861,-10.4010105,0.51355624,-0.6360411,-9.737537,0.9727298
1409347982432,-1.8321629,-11.948263,0.107140526,-0.7424302,-9.729975,0.97303253
1409347982447,-2.5629928,-13.39496,-1.4161704,-0.81852967,-9.730933,0.89962775
1409347982450,-3.4703953,-13.748105,-3.7882257,-0.9260797,-9.73673,0.71333796
1409347982464,-3.809175,-13.447633,-4.076727,-1.0783757,-9.741156,0.3425766
1409347982481,-4.0396166,-13.469779,-0.98341835,-1.2497914,-9.726672,-0.017162148
1409347982482,-4.268862,-13.353062,-0.21428105,-1.4275843,-9.701803,-0.08618016
1409347982499,-6.1285577,-14.4933,-0.20350714,-1.6052544,-9.674013,-0.08386896
1409347982515,-6.275801,-15.832856,0.08738836,-1.8934911,-9.621819,-0.075402156
1409347982516,-5.1146135,-16.895882,2.8646624,-2.1271598,-9.572989,-0.058960725
1409347982532,-2.8514943,-17.036541,12.889784,-2.2330425,-9.54789,0.14734979
1409347982532,-1.3617022,-16.424822,15.558121,-2.1706326,-9.508265,1.0255057
1409347982548,-0.8206126,-14.105439,4.3065705,-2.2417686,-9.489981,1.041694
1409347982550,-0.664391,-12.181698,-3.4650085,-1.932968,-9.376909,2.1231139
1409347982563,-0.46327803,-12.477382,-3.4225113,-1.8887177,-9.4454565,1.8402363
1409347982580,-0.4297592,-14.395737,-1.6998832,-1.8161808,-9.515486,1.5255902
1409347982583,-0.24779987,-15.064317,-2.6755204,-1.6890862,-9.5764265,1.2686303
1409347982594,0.025737667,-13.852851,-4.5435963,-1.5407796,-9.63534,0.9780723
1409347982613,0.6572084,-13.1238165,-4.894945,-1.4257889,-9.686331,0.55901307
1409347982613,0.8936358,-13.877392,-5.3564277,-1.2886916,-9.720155,0.16804887
1409347982628,1.3317747,-15.421053,-5.167286,-1.1320821,-9.738795,-0.21123452
1409347982630,2.2266076,-18.340782,-3.9845502,-0.9462699,-9.747264,-0.5155945
1409347982651,4.0803185,-19.608511,-1.0205284,-0.7193071,-9.7561865,-0.68541855
1409347982652,7.1155677,-19.608511,1.4209588,-0.404004,-9.778022,-0.63043725
1409347982663,7.4525514,-18.326416,0.3585317,0.07581425,-9.796681,-0.43552434
1409347982689,3.2974143,-13.336302,-3.803788,0.5176029,-9.787838,-0.31730187
1409347982690,-0.29269117,-11.792042,-7.249643,0.7146429,-9.767547,-0.50469315
1409347982691,-1.9578584,-11.361086,-8.6095495,0.694671,-9.736684,-0.9406448
1409347982719,-1.4341269,-10.365696,-5.928642,0.5422215,-9.681722,-1.463101
1409347982720,-0.49200845,-9.655815,-4.9218802,0.38568303,-9.633725,-1.7924778
1409347982723,1.447295,-7.9667063,-5.357026,0.2763716,-9.5892935,-2.0345628
1409347982731,3.4823663,-5.7389016,-3.7373488,0.32853127,-9.529746,-2.2904983
1409347982767,3.020884,-5.6203885,-6.055535,0.5767606,-9.480786,-2.4397547
1409347982769,2.429516,-6.0082493,-6.566098,0.8077949,-9.383759,-2.7318437
1409347982770,2.5863364,-5.542577,-4.673482,0.9901655,-9.268457,-3.0472376
1409347982771,2.1511903,-5.16549,-1.4311341,1.135676,-9.178995,-3.2598622
1409347982783,2.0129251,-5.0014873,-1.8818425,1.204685,-9.170007,-3.2603843
1409347982804,1.9596541,-5.0822916,-1.151611,1.2657367,-9.146134,-3.3040206
1409347982805,2.6497827,-4.258686,-0.973243,1.3680835,-9.150017,-3.2520711
1409347982811,3.2118216,-3.4488475,-2.0841527,1.5752896,-9.136494,-3.1958349
1409347982838,4.079121,-2.7539306,-3.151368,1.8385905,-9.059965,-3.2721612
1409347982839,4.596867,-1.9985598,-3.229778,2.2163258,-8.897869,-3.4765265
1409347982843,5.0014873,-1.6071079,-3.4051533,2.6764681,-8.675657,-3.7067397
1409347982864,5.493496,-1.3940239,-3.41892,3.1821866,-8.3893585,-3.9576142
1409347982865,5.895123,-1.2150574,-3.0855274,3.734001,-8.040184,-4.193216
1409347982878,5.9585695,-1.0929531,-3.3315318,4.3193235,-7.648608,-4.360351
1409347982896,6.5086374,-0.96426475,-3.4943373,4.867278,-7.2091236,-4.528631
1409347982897,6.8426285,-0.89543146,-4.131195,5.4132376,-6.720858,-4.6580386
1409347982911,7.3124905,-1.18094,-4.131195,5.905385,-6.1622057,-4.8294992
1409347982911,7.6147585,-2.8353333,-3.2704794,6.3598213,-5.6209655,-4.912004
1409347982927,7.7069354,-6.4242415,-0.0017956513,6.7169003,-5.2958665,-4.796608
1409347982931,-2.4642322,-17.434576,19.314623,6.974973,-5.4533544,-4.216765
1409347982945,-17.40465,-19.608511,17.045519,7.087044,-5.200663,-4.3471045
1409347982961,-19.60911,-19.608511,19.181746,7.2078223,-4.905628,-4.4891477
1409347982963,-18.790892,-19.608511,10.62846,7.2601204,-4.7081203,-4.614618
1409347982983,-11.315596,-13.901932,4.009091,7.1860595,-4.572907,-4.859984
1409347982984,-8.286931,-8.086416,6.861782,-2.5543098,-8.893318,3.2488072
1409347982992,-4.3263226,-6.2099605,7.256227,-3.202016,-8.616574,3.416449
1409347983018,-0.789488,-6.1004257,5.710171,-3.4092996,-8.411698,3.7135413
1409347983019,2.834735,-6.11539,4.531027,-3.2048626,-8.345113,4.0321627
1409347983023,8.608353,-9.0237465,0.3345897,-2.6723208,-8.393632,4.3099923
1409347983031,11.133636,-14.726735,-5.5551467,-1.5908778,-8.757988,4.115477
1409347983060,6.8647747,-13.219584,-7.3286514,-0.30257076,-9.290734,3.1242778
1409347983061,2.2870612,-11.830948,-8.913613,0.41473904,-9.574578,2.0798633
1409347983065,0.587178,-11.942877,-6.5391636,0.6371001,-9.732618,1.0201211
1409347983092,0.6751649,-13.313557,-2.5127146,0.6649515,-9.779577,0.29679275
1409347983093,0.705691,-13.432669,-1.3724761,0.6611371,-9.784314,0.023022564
1409347983094,-0.08439561,-12.568362,-1.2126632,0.66417366,-9.78358,-0.10418343
1409347983114,-0.1316811,-11.177331,0.06464344,0.6037366,-9.785958,-0.20230478
1409347983115,2.1883004,-8.961497,0.073023155,0.5484025,-9.788315,-0.24199674
1409347983130,4.867412,-6.76362,-0.23582886,0.7079575,-9.7775,-0.2639432
1409347983131,5.8622026,-6.165668,-1.2605472,1.0882449,-9.740569,-0.3277841
1409347983147,6.0441623,-6.6840124,-2.2876596,1.547277,-9.675313,-0.40574354
1409347983162,5.2905874,-7.543531,-2.72939,2.0429792,-9.574832,-0.56500703
1409347983163,4.6034513,-8.207323,-2.4588451,2.4495308,-9.465118,-0.76269525
1409347983176,4.1491513,-8.831612,-1.9925743,2.7412987,-9.370609,-0.92050916
1409347983196,3.6822822,-9.151836,-1.3491327,2.9296057,-9.303163,-1.0192904
1409347983196,3.2243912,-9.504981,-0.908001,3.0245879,-9.2684765,-1.057192
1409347983209,2.9646204,-10.31063,-1.0097545,3.0652785,-9.258564,-1.0263848
1409347983211,2.6617537,-11.455058,-1.2671312,3.0475745,-9.266016,-1.0117466
1409347983226,1.7513585,-12.710816,-1.6567876,2.9723978,-9.29009,-1.0146323
1409347983231,0.27114335,-13.563751,-1.9734207,2.7945545,-9.342154,-1.0416478
1409347983245,-0.90620536,-13.1794815,-2.143409,2.482871,-9.424947,-1.0844904
1409347983261,-0.55605334,-11.275493,-1.769315,2.0954504,-9.512604,-1.1357126
1409347983263,0.23523031,-9.82341,-1.4065934,1.7897017,-9.571861,-1.1605308
1409347983275,0.076614454,-9.218874,-1.6765398,1.6225698,-9.599825,-1.1751608
1409347983298,-0.3345897,-8.680179,-2.8491,1.4587153,-9.6225195,-1.2040093
1409347983299,0.36391866,-8.377911,-4.378995,1.2883263,-9.626238,-1.3587352
1409347983319,-0.66618663,-9.073426,-6.4751186,1.1981423,-9.590354,-1.6613059
1409347983320,-4.460996,-10.579379,-3.9324763,0.99525255,-9.5206585,-2.130006
1409347983324,-4.5232453,-10.038289,-1.3365631,0.4597069,-9.517147,-2.3201318
1409347983331,-3.8642416,-8.920197,0.45968673,-0.0058791214,-9.523496,-2.3395226
1409347983359,-3.1376014,-7.8068933,1.0899603,-0.3444199,-9.559106,-2.1622365
1409347983360,-1.9123687,-7.5848308,1.1234791,-0.6468737,-9.585543,-1.9670577
1409347983366,-1.2018893,-8.580819,0.7990648,-0.80049103,-9.621256,-1.7207717
1409347983382,-0.24001873,-9.117719,0.14065935,-0.85044664,-9.657389,-1.4771518
1409347983383,0.51235914,-9.255983,-0.5847838,-0.7763582,-9.688482,-1.3042163
1409347983391,0.60094464,-9.139266,-1.0366893,-0.628525,-9.708785,-1.2308033
1409347983411,0.26036942,-8.8884735,-1.186327,-0.48685852,-9.717037,-1.229847
1409347983412,0.076614454,-8.822633,-1.1438298,-0.3876967,-9.717355,-1.2621785
1409347983430,0.16998832,-9.135675,-1.049259,-0.3253145,-9.716578,-1.2855664
1409347983433,0.25558102,-9.992201,-0.664391,-0.25725043,-9.7160425,-1.3048779
1409347983456,0.2148796,-10.899603,-0.3752911,-0.19753246,-9.721889,-1.2713205
1409347983457,0.17776948,-11.517307,-0.41000703,-0.15493162,-9.7313175,-1.2032529
1409347983463,0.015562311,-11.947665,-0.33039984,-0.12254735,-9.739433,-1.1396441
1409347983484,-0.2160767,-12.409147,0.39624038,-0.10927345,-9.747215,-1.0724843
1409347983486,-0.74519527,-12.65575,1.5939398,-0.11830285,-9.76048,-0.94310385
1409347983492,-1.4676456,-12.622829,2.4648306,-0.17400749,-9.778881,-0.7166753
1409347983524,-2.3959973,-12.495937,2.823961,-0.2886606,-9.792407,-0.44256374
1409347983525,-3.6565444,-12.385804,2.2176294,-0.47154668,-9.793909,-0.16550533
1409347983526,-5.003283,-12.94485,1.6723499,-0.74366736,-9.778361,0.031387072
1409347983553,-6.347627,-14.0952635,1.1683705,-1.0951278,-9.744044,0.15719664
1409347983554,-7.019201,-14.89792,0.08020575,-1.5006846,-9.688634,0.22066256
1409347983556,-7.1365166,-14.228741,-1.6017209,-1.8869141,-9.621409,0.19602
1409347983564,-6.393716,-13.293206,-0.6703765,-2.2321687,-9.549026,0.062623926
1409347983596,-5.7760115,-13.779229,2.3774424,-2.4826262,-9.487194,0.01177344
1409347983597,-5.029619,-13.797785,3.678691,-2.6447303,-9.441493,0.18438685
1409347983600,-4.9320555,-14.623185,4.244321,-2.7078981,-9.4147835,0.4467191
1409347983625,-4.936844,-17.001825,7.147889,-2.7413783,-9.385771,0.75002223
1409347983626,-5.029619,-18.401834,10.861296,-2.739295,-9.337995,1.2118244
1409347983627,-4.2066126,-17.629704,8.335413,-2.7178907,-9.24643,1.8130037
1409347983653,-4.19105,-15.943587,2.022502,-2.694785,-9.17375,2.179644
1409347983654,-4.096479,-13.810952,-1.0031705,-2.7457728,-9.175554,2.1072052
1409347983655,-3.442862,-11.616667,-2.858677,-2.7963467,-9.197454,1.938471
1409347983680,-2.4785974,-11.051635,-3.2914288,-2.8479488,-9.240306,1.6359518
1409347983681,-1.590947,-11.877635,-4.2556934,-2.8218472,-9.299803,1.3119711
1409347983696,-0.9463082,-11.412561,-6.737882,-2.717516,-9.376637,0.9296213
1409347983697,-0.18674773,-10.9899845,-7.3178773,-2.5984364,-9.448283,0.3853221
1409347983710,0.24001873,-12.485762,-6.217742,-2.442451,-9.496042,-0.1732026
1409347983711,1.2108675,-15.534179,-5.6084175,-2.2381487,-9.5299425,-0.5841735
1409347983728,2.7012582,-19.242199,-4.610634,-1.9451492,-9.571878,-0.87518066
1409347983745,10.581773,-19.608511,1.340753,-1.548317,-9.628319,-1.0337158
1409347983746,7.3340383,-19.564817,0.53450555,-1.8315943,-9.606619,-0.72700435
1409347983765,1.4520833,-16.61995,-2.1080947,-0.08329437,-9.786824,-0.61766076
1409347983766,-0.46028528,-14.046183,-2.11827,0.10366759,-9.782493,-0.68006784
1409347983780,1.1061212,-12.041637,-2.777274,0.16507804,-9.771408,-0.8140648
1409347983793,2.858677,-9.755175,-4.9422307,0.24240561,-9.754081,-0.9846511
1409347983794,3.2112231,-8.807071,-5.9160724,0.3593664,-9.72071,-1.2446079
1409347983811,4.626795,-8.351574,-4.757279,0.52881664,-9.668976,-1.5497206
1409347983812,4.948815,-6.5631056,-5.5377884,0.77417064,-9.619053,-1.744937
1409347983829,4.068946,-4.5364137,-5.8741736,1.0853722,-9.5354395,-2.016864
1409347983846,3.3734303,-4.1066546,-5.2037973,1.344499,-9.424398,-2.3544502
1409347983847,2.3169887,-3.9121256,-5.2223525,1.5633085,-9.303465,-2.678066
1409347983859,1.3605051,-3.6493618,-4.132991,1.7081577,-9.169307,-3.0292637
1409347983864,1.5622166,-3.132813,-3.2357635,1.7615143,-9.067618,-3.293287
1409347983875,1.1468226,-3.6355953,-2.8514943,1.8181185,-8.983596,-3.4870906
1409347983892,1.115698,-3.2662897,-1.9057846,1.836921,-8.918782,-3.6402528
1409347983893,0.9648633,-2.6641479,-1.0546459,1.8634361,-8.880817,-3.7187517
1409347983915,1.1504139,-2.1996727,-0.664391,1.9086025,-8.872532,-3.7156174
1409347983915,1.9728222,-1.7555484,-1.0929531,1.9874538,-8.868261,-3.6843402
1409347983924,2.9921536,-1.6597804,-1.6250644,2.1901724,-8.808416,-3.7128632
1409347983955,3.7666779,-1.2982559,-2.4396915,2.5426245,-8.675879,-3.799287
1409347983956,4.6710877,-0.40880993,-3.5889084,3.0129511,-8.434171,-3.994659
1409347983957,5.727529,0.19752164,-4.7429137,3.6071758,-8.013002,-4.3532186
1409347983994,6.534375,0.44891283,-5.2486887,4.2963815,-7.366439,-4.842218
1409347983994,6.603807,-0.05925649,-5.084686,4.9945784,-6.5710006,-5.295896
1409347983995,6.379949,-0.9672575,-4.654927,5.5595665,-5.826809,-5.595528
1409347983996,6.915652,-2.212841,-3.4847605,5.9659486,-5.2561965,-5.7402296
1409347984012,5.7664347,-5.49589,-1.7292122,6.348876,-4.908734,-5.6361775
1409347984013,1.0061632,-13.51048,13.705607,6.5005426,-5.111193,-5.2715297
1409347984027,-16.766594,-19.608511,19.608511,6.303261,-6.9829507,-2.7708693
1409347984043,-19.60911,-19.608511,18.321629,6.393926,-6.800105,-3.0077744
1409347984044,-19.424158,-19.608511,6.853402,6.44355,-6.6572986,-3.214258
1409347984059,-11.130045,-14.559739,1.0408791,6.3726654,-6.6183357,-3.4288738
1409347984063,-7.165846,-8.409035,3.2878375,-3.1773727,-8.94291,2.469625
1409347984078,-6.2345014,-6.494272,4.091092,-3.6864731,-8.77402,2.3657718
1409347984099,-2.4827871,-4.9224787,4.338892,-3.9189513,-8.625786,2.5314066
1409347984099,0.5895722,-5.871181,4.768651,-3.8371422,-8.554506,2.8752656
1409347984106,2.11827,-6.091448,3.3566709,-3.4815185,-8.576707,3.238755
1409347984113,3.9043443,-5.502474,0.7380127,-3.0216546,-8.66828,3.4497707
1409347984146,6.6762314,-9.68694,-4.6339774,-2.377368,-8.869371,3.442784
1409347984147,7.9433627,-14.875175,-6.8103065,-1.3835151,-9.334063,2.6704957
1409347984148,5.5324016,-16.31409,-6.9126587,-0.27480945,-9.680216,1.5454075
1409347984168,2.2996306,-15.45936,-4.724957,0.39904317,-9.780655,0.5915718
1409347984169,1.3024458,-17.04911,-2.6803088,0.6180037,-9.787106,0.031926002
1409347984172,0.46447513,-19.588161,-2.6886885,0.6666768,-9.781382,-0.22472997
1409347984195,0.830788,-19.608511,3.3871968,0.6049334,-9.77768,-0.44879708
1409347984195,4.3287168,-9.451111,3.4871547,0.5693292,-9.788723,-0.16481121
1409347984214,5.8999114,-4.573524,2.3451207,0.8523827,-9.769487,0.030743513
1409347984215,5.7736173,-3.0178912,1.377863,1.2679644,-9.722862,0.16909575
1409347984224,6.005855,-3.6661212,0.035913024,1.6930717,-9.653936,0.3246879
1409347984245,5.997475,-5.6880245,-1.328782,2.1878629,-9.552472,0.36594287
1409347984246,5.1355624,-7.1431007,-2.3780408,2.6691606,-9.43314,0.24869186
1409347984268,4.3047748,-7.4986396,-3.4081461,2.9865842,-9.340766,0.02893442
1409347984268,3.7792473,-7.3633676,-3.4326868,3.2141745,-9.260466,-0.28852293
1409347984272,3.5793316,-7.513005,-2.6150668,3.3647864,-9.19383,-0.56754214
1409347984295,3.6673183,-8.3312235,-1.9626468,3.456923,-9.146729,-0.7466069
1409347984296,3.6499605,-9.569026,-1.6256629,3.5149577,-9.114511,-0.86089087
1409347984303,3.2124202,-11.068993,-1.7280151,3.5287652,-9.100583,-0.94741416
1409347984312,2.15538,-13.069947,-2.1086931,3.4618723,-9.118009,-1.0235995
1409347984326,0.4866215,-15.205575,-2.6084828,3.2428267,-9.189393,-1.0997926
1409347984345,-0.7799112,-15.158888,-2.6898856,2.8713405,-9.301983,-1.1827426
1409347984346,-0.46327803,-12.549209,-2.2373815,2.4413905,-9.4143095,-1.2572926
1409347984368,0.40821138,-9.688736,-1.8166006,2.1234338,-9.48632,-1.2927374
1409347984369,-0.2112883,-8.781333,-2.0368671,1.9310906,-9.525227,-1.3081863
1409347984372,-0.5722142,-8.373122,-2.3361423,1.7077367,-9.561223,-1.3553678
1409347984397,0.30466217,-7.9451585,-4.1240125,1.4893428,-9.584623,-1.4447359
1409347984398,1.0576386,-7.587225,-7.445369,1.368778,-9.556905,-1.7211598
1409347984404,-4.320337,-9.6767645,-8.605359,1.3104148,-9.44377,-2.295307
1409347984414,-7.2687964,-10.533889,-7.427412,0.7248716,-9.337015,-2.9094853
1409347984441,-6.3141084,-9.148245,-3.8905778,-0.0265484,-9.200831,-3.3932898
1409347984442,-4.0479965,-7.325659,-1.0366893,-0.566893,-9.113109,-3.5777533
1409347984446,-2.220622,-6.794146,-0.22984336,-0.91832674,-9.118101,-3.4910336
1409347984471,-0.5686229,-7.563882,0.10235212,-1.116616,-9.177885,-3.2695513
1409347984472,0.30945057,-8.25401,-0.49320555,-1.097949,-9.2800865,-2.9740362
1409347984473,0.22266077,-9.215881,-0.98581254,-0.9626494,-9.357708,-2.7707424
1409347984500,-0.20649989,-10.682928,-1.0498575,-0.8064634,-9.419004,-2.6081326
1409347984500,-0.49679685,-11.801021,-1.2282255,-0.68735653,-9.470024,-2.4528632
1409347984506,-0.5363012,-12.245743,-1.3024458,-0.6134116,-9.509104,-2.3175592
1409347984525,-0.40342298,-12.291832,-1.2042835,-0.5703823,-9.538684,-2.2042239
1409347984526,-0.17238252,-12.579734,-1.0324994,-0.53748715,-9.563503,-2.1025913
1409347984547,0.011971008,-13.01488,-0.74399817,-0.49485478,-9.587119,-2.0031607
1409347984548,-0.18974048,-13.5535755,-0.11911154,-0.44201985,-9.612805,-1.8891742
1409347984553,-0.46746787,-13.739126,1.1186907,-0.40603024,-9.646233,-1.7192274
1409347984583,-0.7697359,-13.353062,3.3213563,-0.40269235,-9.686187,-1.478523
1409347984584,-1.3210008,-12.844294,6.325481,-0.42991266,-9.736617,-1.08806
1409347984585,-2.1871033,-13.154343,8.219893,-0.50165683,-9.781445,-0.49201605
1409347984593,-3.086126,-13.810952,8.406641,-0.630584,-9.784547,0.18812662
1409347984621,-3.8253357,-13.074137,16.546328,-0.816758,-9.74051,0.7910487
1409347984623,-3.2507274,-11.465234,14.387955,-1.0826143,-9.549257,1.9519285
1409347984626,-4.175488,-9.862914,-1.459266,-1.3166648,-9.304597,2.8037944
1409347984650,-5.4713492,-10.486604,-8.802282,-1.5696886,-9.31563,2.6316357
1409347984652,-4.9242744,-13.220183,-8.744224,-1.8735731,-9.433973,1.913179
1409347984654,-3.2728736,-13.494918,-6.4260373,-2.01659,-9.534604,1.0931937
1409347984695,-3.7972038,-13.977948,-2.8760347,-2.0289946,-9.581954,0.48961657
1409347984696,-5.680842,-12.947245,-1.6490064,-2.0986762,-9.57703,0.21547581
1409347984698,-5.249287,-12.825739,-0.7086837,-2.300778,-9.532829,0.04453005
1409347984700,-3.6912606,-13.140576,1.8806454,-2.4418132,-9.497564,-0.0648264
1409347984734,-2.7910407,-15.103223,9.150041,-2.4571855,-9.493776,0.02857786
1409347984736,-1.9381063,-18.177378,14.674661,-2.372328,-9.489092,0.7067989
1409347984737,-1.417966,-19.20509,12.583325,-2.4021807,-9.482397,0.6957479
1409347984739,-1.6502035,-17.911621,7.3723454,-2.4631279,-9.464002,0.7321733
1409347984759,-2.5887306,-15.125968,-0.8738836,-1.9355897,-9.256309,2.5970469
1409347984760,-2.5276785,-12.530055,-3.7780502,-1.9894022,-9.299181,2.3953922
1409347984776,-1.8501194,-12.00333,-0.8583213,-2.0325763,-9.379419,2.0163069
1409347984776,-1.8405426,-12.592304,-1.2503718,-2.004235,-9.424418,1.8258553
1409347984793,-1.9141643,-13.120824,-4.51726,-1.9509553,-9.478193,1.5899692
1409347984794,-0.93852705,-12.661138,-6.739678,-1.927907,-9.546772,1.14574
1409347984807,-0.12569559,-12.904149,-6.986879,-1.862769,-9.609773,0.5939292
1409347984822,0.56982,-13.721169,-6.491878,-1.7538831,-9.648484,0.03228782
1409347984824,1.2575544,-15.618575,-6.1423244,-1.5741373,-9.669561,-0.43825698
1409347984840,2.5049336,-18.97824,-4.006098,-1.3412039,-9.681857,-0.7957424
1409347984844,6.625355,-19.608511,-0.9516952,-1.0389699,-9.706608,-0.9341695
1409347984858,10.782288,-19.608511,0.93972415,-0.50949824,-9.755562,-0.8601088
1409347984877,6.642114,-18.253992,0.87089086,-0.770935,-9.755942,-0.63056237
1409347984877,0.24779987,-15.172655,-3.572149,0.6399018,-9.772836,-0.50254154
1409347984894,-2.767697,-13.767259,-6.215348,0.6919757,-9.7600765,-0.6575994
1409347984895,-2.9119477,-12.643181,-5.571307,0.5297189,-9.741247,-0.99893624
1409347984904,-1.5753847,-11.101913,-2.5025394,0.2811448,-9.715171,-1.3064514
1409347984921,1.2078748,-9.039907,-2.758719,0.076630235,-9.703336,-1.4176737
1409347984926,2.7090392,-7.5890207,-4.730344,0.08207681,-9.687057,-1.5246693
1409347984946,2.932897,-6.983288,-4.939238,0.25007892,-9.644721,-1.7570454
1409347984947,2.645593,-5.73112,-7.5387425,0.4691111,-9.598921,-1.9521745
1409347984953,2.154183,-5.0158525,-6.597223,0.69248134,-9.498458,-2.338838
1409347984976,2.010531,-4.996699,-5.2115784,0.84718543,-9.383716,-2.720024
1409347984977,2.011728,-4.4442368,-2.7874494,0.95585704,-9.269036,-3.056417
1409347984998,1.0857705,-4.0785227,-1.264737,1.054887,-9.206511,-3.2090113
1409347984999,1.2904748,-3.7696705,-1.3784616,1.0713224,-9.197769,-3.2285786
1409347985005,1.596334,-3.7074213,-1.5676036,1.1249087,-9.185014,-3.2466211
1409347985026,1.8620903,-3.098097,-1.7369933,1.2416284,-9.16005,-3.2744882
1409347985027,1.9602526,-2.5516205,-2.1057005,1.4066147,-9.114998,-3.3329685
1409347985049,2.0733786,-2.0446482,-2.529474,1.5915788,-9.040041,-3.4517965
1409347985050,2.767697,-1.4945804,-2.8939912,1.7934159,-8.925928,-3.6444285
1409347985053,3.9636009,-0.80086046,-2.5635915,2.0997152,-8.748845,-3.9011939
1409347985075,5.1996074,-0.31663316,-2.5288756,2.603817,-8.501065,-4.137925
1409347985076,6.0627174,-0.46746787,-3.53863,3.3059309,-8.138886,-4.3588734
1409347985094,6.6959834,-0.362123,-4.9841294,4.062136,-7.6327133,-4.6272187
1409347985095,7.153875,-0.7212533,-4.44304,4.774847,-6.94618,-5.0121665
1409347985106,6.6175733,-2.3038206,-3.4314895,5.4374933,-6.285006,-5.20603
1409347985123,5.885546,-4.4017396,-1.6334441,5.886761,-5.885183,-5.1846933
1409347985125,4.993706,-8.237251,3.2668881,6.160627,-5.8530006,-4.894839
1409347985141,-3.0651767,-17.37113,18.802265,6.2857056,-6.43391,-3.9070601
1409347985162,-18.550274,-19.608511,19.608511,6.362755,-6.235421,-4.099424
1409347985164,-19.60911,-19.608511,17.3011,6.441055,-6.012738,-4.3046675
1409347985166,-17.362751,-19.452888,5.791574,6.5087137,-5.806512,-4.4823446
1409347985173,-10.300454,-13.051392,2.5516205,6.4716086,-5.698018,-4.6713223
1409347985201,-9.165603,-9.561244,5.6826377,-3.0227604,-8.82581,3.0229795
1409347985202,-4.7656584,-7.267599,6.0681043,-3.6517315,-8.587854,3.013965
1409347985205,-0.7410054,-6.618172,4.074931,-3.754297,-8.459729,3.2416995
1409347985233,1.757344,-6.851008,2.9281087,-3.5092173,-8.473969,3.470969
1409347985234,4.583699,-7.8463974,2.5647886,-3.076948,-8.576812,3.6250622
1409347985236,10.101137,-12.858659,-1.484405,-2.357945,-8.775759,3.6873505
1409347985275,8.701127,-15.049952,-5.4444146,-1.0949116,-9.207932,3.1914797
1409347985277,4.3329067,-14.220361,-6.2195373,-0.10303689,-9.539271,2.2720191
1409347985278,1.8549078,-13.115437,-4.643554,0.3356829,-9.697696,1.418599
1409347985281,1.3664906,-13.441049,-2.9293058,0.5110504,-9.756501,0.8484698
1409347985302,1.4496891,-14.251486,-2.7443538,0.59373826,-9.776071,0.49628365
1409347985302,0.9175778,-13.953407,-3.1705215,0.646056,-9.783542,0.18794951
1409347985305,-0.15861586,-13.0442095,-1.1133038,0.6493587,-9.784561,-0.10529578
1409347985320,0.2136825,-10.641029,0.1604115,0.5606523,-9.788601,-0.19840251
1409347985324,3.2028434,-7.062895,0.41000703,0.52827114,-9.789796,-0.22629298
1409347985341,5.6760535,-5.242703,-0.05207389,0.7600699,-9.773689,-0.2601713
1409347985361,6.235698,-5.699397,-0.96546185,1.194494,-9.729608,-0.27987552
1409347985361,5.5563436,-6.8204823,-1.8686744,1.698797,-9.652297,-0.34299862
1409347985365,4.5160627,-7.6626425,-2.5073278,2.1621704,-9.552852,-0.48829675
1409347985373,3.8139634,-8.045116,-2.4666264,2.4961996,-9.459472,-0.6766086
1409347985387,3.3770216,-8.5143795,-2.1260512,2.6908023,-9.392455,-0.84365976
1409347985408,3.091513,-8.798691,-1.4454993,2.8146315,-9.345861,-0.95033735
1409347985409,2.859874,-9.223662,-0.9792285,2.8715985,-9.32481,-0.98603
1409347985426,2.7138276,-10.00896,-0.79008657,2.8838043,-9.321933,-0.97757316
1409347985428,2.4821887,-10.960655,-0.9684546,2.8616576,-9.332254,-0.94357556
1409347985445,1.6915035,-12.103288,-1.6394296,2.800527,-9.353354,-0.9177263
1409347985458,0.29388827,-13.214198,-2.303222,2.6506884,-9.394029,-0.9468132
1409347985459,-0.46567222,-12.552201,-2.373851,2.3681912,-9.460216,-1.0326637
1409347985472,-0.2112883,-10.727819,-2.4001873,2.0686717,-9.52245,-1.101794
1409347985473,0.12210429,-9.598354,-2.5600002,1.8348333,-9.560722,-1.1816876
1409347985487,0.11492168,-9.386468,-2.8652608,1.6523465,-9.580799,-1.283907
1409347985510,0.28072014,-9.269152,-3.127426,1.489613,-9.588985,-1.4152129
1409347985511,0.55126494,-8.954314,-4.008492,1.3612052,-9.582974,-1.5761166
1409347985513,0.39863458,-8.484452,-8.565256,1.2705691,-9.551377,-1.8240672
1409347985546,-4.1299977,-10.344747,-10.944494,1.148206,-9.415323,-2.490722
1409347985547,-6.2662244,-11.183316,-5.3007627,0.5738428,-9.245178,-3.2199056
1409347985548,-4.378995,-10.165182,0.1945289,-0.08777941,-9.177974,-3.4536254
1409347985554,-3.429694,-8.759786,0.45370123,-0.4848954,-9.237272,-3.257008
1409347985579,-2.6539726,-9.214086,0.6691794,-0.766255,-9.30867,-2.98863
1409347985580,-1.9829975,-10.287286,0.6997054,-0.94600546,-9.393436,-2.6530776
1409347985588,-1.2587515,-11.096526,0.40222588,-1.0216619,-9.473491,-2.319397
1409347985611,-0.7302315,-10.986393,-0.10654198,-1.0121771,-9.536972,-2.0474598
1409347985612,-0.676362,-10.204087,-0.44592008,-0.96236706,-9.579627,-1.8641374
1409347985614,-0.6500258,-9.7162695,-0.55365914,-0.9257184,-9.605263,-1.7471062
1409347985625,-0.4842273,-9.865308,-0.22385786,-0.8884949,-9.622461,-1.6700965
1409347985644,-0.32920274,-10.475829,0.51834464,-0.8403329,-9.642814,-1.5749229
1409347985647,-0.035913024,-11.19828,1.4694413,-0.7869199,-9.672119,-1.4146675
1409347985653,-0.19752164,-11.775881,2.8502972,-0.7147449,-9.708676,-1.1836855
1409347985674,-0.6889315,-12.067974,4.0743327,-0.66536593,-9.746681,-0.8543179
1409347985675,-1.0642227,-12.284649,4.610634,-0.66211075,-9.773505,-0.45890346
1409347985689,-1.5454572,-12.612655,4.6926355,-0.69143474,-9.782122,-0.049086396
1409347985703,-2.3331497,-12.947245,4.183269,-0.7579601,-9.772581,0.3042121
1409347985707,-2.56419,-12.690466,3.8486793,-0.8856474,-9.749045,0.5849182
1409347985721,-0.9259575,-11.62744,7.8009076,-1.0211489,-9.716873,0.8426342
1409347985738,0.24480712,-11.075577,9.266159,-1.0336194,-9.641896,1.4614524
1409347985739,-1.9662381,-12.100295,0.7757214,-0.9558,-9.518138,2.1591375
1409347985752,-4.110844,-13.48594,-3.9695864,-1.0074668,-9.526757,2.096732
1409347985753,-5.029021,-13.983933,-6.295553,-1.1926272,-9.60328,1.5890435
1409347985772,-4.6686935,-13.615825,-5.1720743,-1.43033,-9.652383,0.977778
1409347985774,-5.0679264,-13.3464775,-3.8642416,-1.6394191,-9.656894,0.47654462
1409347985799,-5.951387,-13.391967,-2.5330653,-1.8636166,-9.626932,0.13953649
1409347985801,-4.8787847,-12.589311,-0.01436521,-2.1090007,-9.57699,-0.06095336
1409347985806,-3.7152026,-12.625224,2.3062148,-2.248089,-9.545074,-0.08971768
1409347985848,-3.484162,-13.900735,9.64983,-2.3041842,-9.532055,0.03277765
1409347985849,-5.063138,-15.076288,13.966576,-2.3159137,-9.500556,0.73916477
1409347985849,-4.7004166,-13.658322,6.564901,-2.4047751,-9.360947,1.6613606
1409347985850,-5.191228,-12.967595,-0.85891986,-2.511981,-9.262877,2.0148056
1409347985854,-6.742072,-12.877812,-4.5741224,-2.7177148,-9.240535,1.8430738
1409347985875,-6.335656,-12.598887,-3.3824084,-3.004113,-9.231865,1.3850404
1409347985876,-4.64116,-13.3704195,-1.4089876,-3.1987936,-9.21425,1.01768
1409347985887,-3.1226375,-14.915876,-1.3102269,-3.2371445,-9.219098,0.8363602
1409347985909,-1.584363,-14.560338,-4.198831,-3.1429524,-9.26279,0.7020996
1409347985910,-0.30945057,-13.104663,-5.767632,-2.9705055,-9.338545,0.37158173
1409347985914,0.6925228,-13.084312,-5.9519854,-2.7514615,-9.412603,-0.052050505
1409347985925,1.5197195,-14.254478,-6.105214,-2.4791467,-9.476186,-0.47553077
1409347985941,1.7232267,-16.752829,-5.378574,-2.1499493,-9.530696,-0.84496325
1409347985963,2.2397757,-19.55105,-2.8808231,-1.814572,-9.575627,-1.0886072
1409347985964,4.3718123,-19.608511,1.3880384,-1.4656168,-9.633897,-1.1001801
1409347985966,7.6692266,-19.608511,4.4280763,-1.0215008,-9.718527,-0.8229209
1409347985976,7.038953,-18.273146,1.6597804,-0.40463206,-9.790806,-0.3831325
1409347986003,3.1292217,-13.630789,-3.515885,0.09032296,-9.804009,-0.20892742
1409347986005,0.89662856,-11.993753,-6.981492,0.32661682,-9.793097,-0.39867198
1409347986008,-0.044292733,-11.135432,-4.382586,0.40416124,-9.763057,-0.8305261
1409347986026,1.2144588,-10.447698,-5.297171,0.38143972,-9.739018,-1.0846277
1409347986027,3.098097,-8.611943,-6.7085533,0.4128224,-9.699032,-1.3888024
1409347986034,4.292804,-6.4386067,-6.7444663,0.57081795,-9.628363,-1.7717694
1409347986077,3.1896753,-5.5946507,-5.1690817,0.8393907,-9.528837,-2.160339
1409347986078,2.2146366,-5.4857144,-4.8320975,1.0515176,-9.444128,-2.42346
1409347986079,2.1015105,-5.085883,-3.5775359,1.181671,-9.365547,-2.6571782
1409347986080,2.4881742,-5.2905874,-1.5496471,1.2875483,-9.309395,-2.8013954
1409347986086,1.7022774,-5.740697,-1.0079589,1.3989937,-9.291662,-2.8068209
1409347986116,1.2312182,-5.276222,-2.0213048,1.4354148,-9.295651,-2.7750452
1409347986117,0.99419224,-4.5567646,-2.4510639,1.453763,-9.274592,-2.8353047
1409347986118,1.8608932,-3.8953662,-2.4061728,1.4633398,-9.2414665,-2.9367204
1409347986142,3.157952,-2.7216089,-2.3678656,1.5753348,-9.186937,-3.0477667
1409347986143,4.23654,-1.9015948,-2.5845408,1.848888,-9.086121,-3.1928713
1409347986146,4.7776294,-1.572392,-3.0364463,2.278614,-8.91639,-3.387668
1409347986154,5.5461683,-0.8098387,-3.0789435,2.7827244,-8.672106,-3.6361318
1409347986183,6.079477,-0.4961983,-3.2962172,3.412537,-8.330836,-3.8887248
1409347986184,6.3422403,-0.32022446,-3.1256304,4.0909014,-7.889927,-4.1453533
1409347986188,6.477513,-0.37588966,-2.8981812,4.769946,-7.3841095,-4.3465996
1409347986212,6.479907,-0.623091,-2.9029696,5.4126153,-6.848806,-4.4685397
1409347986213,6.5325794,-0.88765025,-2.920926,5.970877,-6.3185573,-4.538152
1409347986214,7.3729444,-0.5722142,-3.0041246,6.435305,-5.833241,-4.553083
1409347986252,7.9702973,-1.7010803,-3.117849,6.914538,-5.263325,-4.544999
1409347986254,8.143278,-5.434838,1.5113398,7.291392,-4.81637,-4.450688
1409347986256,-4.8997335,-17.901445,19.608511,7.617756,-4.952026,-3.6902041
1409347986258,-18.095377,-19.608511,19.58876,7.745765,-4.68129,-3.7761145
1409347986296,-19.60911,-19.608511,18.713081,7.872224,-4.389577,-3.8639476
1409347986298,-18.18456,-19.607914,7.393295,7.891191,-4.19129,-4.0413566
1409347986299,-10.428544,-12.595297,2.2469583,7.793101,-4.05007,-4.3629017
1409347986301,-8.311471,-6.55293,7.2448545,-2.6834662,-8.809351,3.3711603
1409347986336,-3.5942953,-3.8025908,8.165425,-3.4035535,-8.453558,3.6226459
1409347986337,0.81163436,-3.8977604,6.135142,-3.5143056,-8.17252,4.1267376
1409347986339,3.9606082,-6.142923,2.9526494,-3.1549509,-8.067231,4.5974402
1409347986340,10.346542,-14.511256,-1.9967642,-2.494802,-8.230685,4.711918
1409347986365,12.574945,-17.88349,-4.833295,-1.1224892,-8.873573,4.0212054
1409347986368,8.861539,-13.814544,-4.461595,-1.1481854,-8.844221,4.0782123
1409347986369,4.0402155,-12.07336,-1.697489,1.0988175,-9.503728,2.1545682
1409347986375,-0.9756372,-13.709199,-0.002992752,1.4121628,-9.543827,1.7582828
1409347986390,-1.7950528,-13.925874,-1.1677719,1.1940187,-9.610536,1.5434728
1409347986406,-0.90021986,-12.718598,-4.172495,0.8991856,-9.684467,1.2541741
1409347986407,-0.3866636,-10.17835,-4.0294414,0.71946377,-9.749452,0.77520055
1409347986418,1.525705,-8.136096,-2.2319946,0.61934847,-9.780805,0.35022566
1409347986435,3.5583823,-7.61416,-1.5448587,0.7104567,-9.78063,0.07005612
1409347986435,4.711789,-7.2664022,-1.5328877,0.9948139,-9.755538,-0.10121932
1409347986454,4.597466,-7.61835,-1.8740613,1.3792669,-9.705832,-0.2546949
1409347986455,3.0424318,-8.544308,-2.2972364,1.7433614,-9.6418295,-0.4076824
1409347986466,2.7736826,-8.133103,-1.8914193,1.9323939,-9.5963955,-0.5877432
1409347986484,2.9735985,-7.9433627,-1.3060371,2.0831165,-9.5564995,-0.7101637
1409347986488,3.2603042,-8.32404,-1.2431892,2.2238908,-9.520835,-0.7605249
1409347986501,3.4326868,-9.032724,-1.264737,2.3580587,-9.48525,-0.79999477
1409347986510,3.068768,-9.986216,-1.4107834,2.4807906,-9.450454,-0.8396622
1409347986530,2.0428526,-11.827356,-1.7812861,2.538972,-9.430303,-0.89073306
1409347986531,0.17836803,-14.661492,-2.3493104,2.468245,-9.442835,-0.95448565
1409347986535,-1.417966,-15.868769,-2.7012582,2.1890254,-9.501552,-1.048371
1409347986564,-1.3120226,-13.790003,-2.2864625,1.7910788,-9.573092,-1.1481827
1409347986566,-0.557849,-11.443686,-1.8285716,1.4647137,-9.621724,-1.2030805
1409347986567,-0.49919105,-10.150817,-1.9602526,1.2286139,-9.653242,-1.2148347
1409347986597,-0.93373865,-9.48463,-2.3535004,1.0196404,-9.674529,-1.2386341
1409347986598,-0.99658644,-8.6334915,-3.4674027,0.8192835,-9.682624,-1.3213445
1409347986598,-0.53211135,-7.6572556,-4.927267,0.6372864,-9.670922,-1.4958401
1409347986617,-0.79607207,-7.7189064,-5.2319293,0.51472837,-9.620766,-1.829287
1409347986618,-3.0472202,-8.803479,-4.5154643,0.3785475,-9.549579,-2.1983325
1409347986633,-3.9510314,-8.987833,-3.3488896,0.050354954,-9.481205,-2.5049195
1409347986634,-3.2638955,-8.286931,-1.8495208,-0.30535686,-9.421469,-2.7042737
1409347986662,-2.232593,-8.0367365,-0.14425065,-0.5686374,-9.398872,-2.7401102
1409347986663,-1.7770962,-8.848371,1.0773908,-0.7489263,-9.432346,-2.576886
1409347986668,-1.5029601,-9.603742,0.8283938,-0.86663616,-9.503323,-2.2596874
1409347986693,-1.6382325,-10.059837,-0.32680854,-0.9340227,-9.563194,-1.9604344
1409347986693,-1.1994951,-10.455479,-1.395221,-0.9907772,-9.591754,-1.7852141
1409347986694,-0.2148796,-10.292673,-2.0410569,-0.98770785,-9.600961,-1.7367724
1409347986706,0.3226187,-9.750386,-1.9273324,-0.89515144,-9.603265,-1.7738112
1409347986714,0.16699557,-9.280524,-1.3718776,-0.76795596,-9.606267,-1.8166701
1409347986733,-0.39384618,-9.412804,-0.7433996,-0.66416126,-9.613553,-1.8190298
1409347986734,-0.76315176,-9.712678,-0.16101007,-0.62094027,-9.629204,-1.7502286
1409347986759,-1.2060791,-10.197504,0.36511576,-0.627669,-9.648324,-1.6389836
1409347986760,-1.3533225,-10.548853,0.42197806,-0.6765876,-9.670798,-1.4792858
1409347986766,-1.4802152,-11.035474,0.6727707,-0.7452964,-9.688914,-1.3190252
1409347986791,-1.2491747,-11.623251,1.7944542,-0.8194342,-9.70521,-1.143599
1409347986793,-1.1695676,-12.336124,3.8480806,-0.85837626,-9.729413,-0.87868136
1409347986804,-1.2605472,-12.943653,5.7736173,-0.87795043,-9.756276,-0.4633049
1409347986834,-1.4024036,-13.232753,6.4182563,-0.8962986,-9.765466,0.052037645
1409347986835,-1.4616601,-12.97777,6.220136,-0.92427087,-9.747606,0.547996
1409347986846,-1.3772645,-11.855488,10.114903,-0.95975894,-9.71372,0.9449115
1409347986848,-1.4383167,-11.680113,14.876971,-1.0244982,-9.611029,1.6579874
1409347986875,-3.4207156,-12.401965,3.4261026,-1.117372,-9.357341,2.7133076
1409347986876,-5.4539914,-13.315951,-5.0787005,-1.31118,-9.295534,2.8362358
1409347986878,-6.5020533,-13.649942,-9.621698,-1.5894194,-9.3988495,2.303419
1409347986880,-5.8843493,-12.884397,-7.4992385,-1.887451,-9.530388,1.3340172
1409347986886,-4.7937903,-13.204022,-0.76315176,-2.1240797,-9.557436,0.56043434
1409347986909,-5.3169236,-14.234726,0.6278794,-2.2565968,-9.532406,0.45979837
1409347986923,-8.067862,-17.343597,12.160749,-2.394276,-9.500129,0.4305372
1409347986925,-7.7973166,-18.986618,18.780119,-2.4020386,-9.495678,0.48242024
1409347986945,-5.369596,-17.752407,7.1167645,-2.4020386,-9.495678,0.48242024
1409347986946,-3.5703533,-15.00506,-5.3181205,-2.773792,-9.06866,2.4971743
1409347986947,-3.2154129,-13.575722,-6.4763155,-2.8532674,-9.163803,2.0134492
1409347986955,-3.839701,-13.268666,-3.2728736,-2.9028265,-9.247491,1.4926114
1409347986974,-3.804985,-14.277224,-4.4777555,-2.9180882,-9.290287,1.160048
1409347986975,-3.0705638,-15.127764,-7.061698,-2.8935292,-9.340631,0.74195236
1409347986987,-1.5143325,-13.388376,-7.623737,-2.8061407,-9.393536,0.23972937
1409347987009,-0.6266823,-12.497134,-6.4110737,-2.6892123,-9.427402,-0.25025955
1409347987010,-0.017956512,-13.071743,-5.629367,-2.5386336,-9.449203,-0.6620441
1409347987015,0.79966336,-14.490906,-5.1666875,-2.333696,-9.474392,-0.97986853
1409347987042,1.2958617,-17.533339,-3.4356794,-2.0748866,-9.508772,-1.2035271
1409347987043,1.8740613,-19.608511,-0.6003461,-1.7858593,-9.561334,-1.2497833
1409347987047,4.5046906,-19.608511,2.2373815,-1.4712156,-9.633372,-1.0973072
1409347987056,8.322844,-19.608511,1.5412674,-1.0220728,-9.721417,-0.7872604
1409347987074,7.599196,-18.054674,-2.0392613,-0.39362347,-9.78294,-0.5563795
1409347987075,4.083311,-13.618219,-5.7766104,0.11835516,-9.789298,-0.5709937
1409347987091,2.3475149,-11.766903,-7.9756846,0.4095476,-9.760226,-0.86060035
1409347987107,1.5783775,-10.727819,-7.5710645,0.594374,-9.701011,-1.3067151
1409347987108,0.9780314,-10.33517,-4.672883,0.68664825,-9.630175,-1.720069
1409347987115,1.1258733,-9.967062,-3.7708676,0.7049021,-9.593377,-1.9080414
1409347987144,1.6059108,-8.966884,-5.6982,0.69986355,-9.562509,-2.0588877
1409347987146,2.3828292,-6.5367694,-8.098388,0.7294576,-9.498479,-2.3274808
1409347987149,2.5103204,-4.9386396,-6.2913637,0.8488241,-9.370401,-2.7650487
1409347987155,2.148796,-5.161899,-4.011485,1.016939,-9.254331,-3.081174
1409347987181,1.352724,-5.6377463,-3.3985693,1.1525031,-9.187023,-3.2312179
1409347987182,1.4520833,-5.109226,-2.2744915,1.1763039,-9.141815,-3.3487225
1409347987187,1.2054806,-4.2437224,-2.2613235,1.1842752,-9.120149,-3.4045296
1409347987213,1.7471687,-3.6194344,-1.8255788,1.19292,-9.092489,-3.4747605
1409347987214,1.9446903,-3.4207156,-3.2016463,1.2996325,-9.062709,-3.5140634
1409347987215,2.5486276,-2.9442697,-2.6372132,1.4254208,-8.974984,-3.6862195
1409347987240,3.1489737,-2.11827,-2.2152352,1.6424489,-8.88055,-3.8221214
1409347987241,3.66672,-0.92057055,-2.492364,1.9514446,-8.7621355,-3.9480684
1409347987247,4.404134,-0.11971009,-2.2403743,2.3473902,-8.570472,-4.148153
1409347987281,5.286996,0.31304187,-2.6078842,2.8804064,-8.307343,-4.3430157
1409347987283,6.0244102,0.33518824,-3.2716765,3.5462236,-7.9214835,-4.5656056
1409347987285,6.687604,0.19991584,-3.6685154,4.2740903,-7.389368,-4.826988
1409347987288,6.739079,0.34356794,-3.9695864,5.0144753,-6.7536526,-5.0411944
1409347987316,6.3763576,-0.16699557,-3.940856,5.6633825,-6.057501,-5.234803
1409347987318,6.130952,-0.81283146,-3.3482912,6.1493726,-5.4427547,-5.3602247
1409347987320,5.8921304,-2.574964,-1.882441,6.53087,-4.972529,-5.3658247
1409347987342,6.7306995,-5.7496753,4.2515035,6.8217444,-4.820599,-5.1377087
1409347987343,6.8109055,-13.052589,17.797298,7.265157,-5.2321386,-4.0015755
1409347987348,-13.414712,-19.608511,19.608511,7.322652,-5.021208,-4.163733
1409347987375,-19.511547,-19.608511,9.993997,7.3943663,-4.791062,-4.3057466
1409347987376,-11.216236,-16.918028,3.4326868,7.4106,-4.6281743,-4.453471
1409347987377,-8.325836,-9.171588,3.4542346,-0.40218964,-9.36545,2.8804512
1409347987410,-6.5744777,-6.600814,5.6084175,-1.521303,-9.275376,2.7970378
1409347987411,-1.3329718,-5.107431,5.531803,-2.237472,-9.041606,3.0681405
1409347987412,1.5526398,-5.017648,4.1802764,-2.1794055,-8.901441,3.4906914
1409347987415,2.2272062,-4.298789,2.903568,-1.8023639,-8.864268,3.7876942
1409347987443,3.7523127,-2.8538885,0.025737667,-1.405255,-8.852452,3.9786592
1409347987444,5.9280434,-5.5006785,-4.494515,-0.8113357,-8.962586,3.8966892
1409347987448,6.854001,-13.18427,-6.1836243,0.08267215,-9.310969,3.0772383
1409347987469,5.032612,-16.96711,-6.47033,0.96839875,-9.595011,1.7799878
1409347987469,2.6479871,-15.760431,-5.495291,1.4058001,-9.680608,0.6928087
1409347987483,1.893215,-16.259024,-4.326921,1.5181599,-9.688416,0.01342939
1409347987486,2.5192988,-19.049465,-4.620809,1.4940175,-9.683602,-0.40760466
1409347987513,0.96665895,-18.959085,-3.7852328,1.471774,-9.66637,-0.7520558
1409347987514,-0.9947908,-14.800356,-0.641646,1.3086088,-9.672272,-0.95138365
1409347987516,-0.21308395,-11.014524,0.59855044,1.0655806,-9.705099,-0.91979545
1409347987547,2.248754,-8.438962,0.22744916,0.95739734,-9.719769,-0.8831319
1409347987548,4.742315,-6.52001,-0.006584055,1.0571744,-9.709307,-0.8844009
1409347987548,5.7963624,-6.108207,-0.21667525,1.3637908,-9.676589,-0.8210446
1409347987569,4.988918,-6.6774287,-0.6464345,1.7867756,-9.6135235,-0.74699444
1409347987569,3.4374752,-6.8468184,-0.7882909,2.1374643,-9.542344,-0.7384686
1409347987583,2.5306711,-6.7486563,-0.7350199,2.357984,-9.489867,-0.74348086
1409347987587,2.8353333,-7.114969,-1.0067618,2.486101,-9.457732,-0.7355074
1409347987599,3.478775,-7.957728,-1.1109096,2.6003406,-9.426197,-0.74528766
1409347987614,3.567959,-8.933365,-1.0600328,2.7250013,-9.389569,-0.7620693
1409347987615,3.3207579,-9.9790325,-1.3024458,2.82489,-9.359177,-0.7721482
1409347987635,2.9113493,-11.276092,-1.9608512,2.877432,-9.340439,-0.80434656
1409347987636,2.3774424,-12.70543,-2.6551697,2.8588328,-9.338473,-0.889042
1409347987669,1.6962919,-13.636774,-3.1735144,2.7452626,-9.358576,-1.0251889
1409347987672,1.4652514,-12.889185,-3.1729157,2.5776522,-9.390174,-1.1622143
1409347987674,1.6531962,-11.464635,-2.902371,2.4158494,-9.415653,-1.295964
1409347987696,1.6759412,-10.499771,-3.2076318,2.3030906,-9.427256,-1.4117466
1409347987697,1.3323733,-10.263344,-3.4955344,2.211386,-9.425724,-1.5607331
1409347987698,0.6691794,-10.341754,-2.9903579,2.100835,-9.421306,-1.7308717
1409347987718,-0.35673606,-10.220248,-2.0871453,1.9413071,-9.432592,-1.8514574
1409347987719,-0.7930793,-9.541492,-1.7088615,1.706881,-9.47221,-1.8799381
1409347987732,-1.448492,-9.333197,-0.5710171,1.4714603,-9.508139,-1.8974996
1409347987735,-2.392406,-9.689933,0.61171854,1.1850454,-9.55853,-1.8440742
1409347987755,-4.5501804,-10.740389,-0.82599956,0.85610276,-9.620866,-1.6959974
1409347987760,-5.7305217,-10.58297,-3.691859,0.37280807,-9.662592,-1.6327041
1409347987770,-5.4474072,-9.294291,-2.3570917,-0.17597558,-9.639773,-1.7928286
1409347987788,-5.501277,-9.324219,-0.7517793,-0.6727011,-9.608822,-1.8407618
1409347987789,-5.1050367,-9.772532,-0.65062433,-1.150198,-9.579878,-1.7531145
1409347987795,-4.2239704,-9.5253315,-0.7445967,-1.530283,-9.544436,-1.6529765
1409347987817,-2.697667,-7.9744873,-0.44232875,-1.8008486,-9.508944,-1.58345
1409347987818,-1.9578584,-7.2634096,-0.43155485,-1.9219004,-9.49337,-1.5338229
1409347987837,-1.4490906,-7.548918,-0.41599256,-1.965214,-9.489011,-1.5056589
1409347987838,-1.0702082,-8.610147,-0.272939,-1.9440775,-9.49814,-1.4752315
1409347987847,-1.0773908,-10.079589,-0.092775315,-1.859413,-9.524007,-1.4164368
1409347987877,-1.1324574,-11.530476,0.12449849,-1.7533877,-9.557208,-1.3250655
1409347987878,-1.2036849,-12.406155,1.541866,-1.6443089,-9.593535,-1.1961166
1409347987879,-1.0444705,-12.4468565,3.762488,-1.5538412,-9.636121,-0.94929045
1409347987910,-0.6464345,-12.397775,5.7784057,-1.4724892,-9.680863,-0.5320131
1409347987911,-0.3549404,-12.21821,5.6987987,-1.3834964,-9.708571,-0.0012181436
1409347987912,-0.96067345,-11.914146,4.4077253,-1.2903292,-9.711216,0.4446721
1409347987916,-1.7130513,-11.425729,3.7457285,-1.2635715,-9.6974945,0.72963005
1409347987941,-2.3535004,-10.830172,4.673482,-1.3048022,-9.672557,0.9536784
1409347987942,-3.968988,-11.556811,7.3926964,-1.4062536,-9.62147,1.2728505
1409347987948,-5.6628857,-13.359047,1.685518,-1.6301006,-9.509037,1.7582325
1409347987985,-7.1742253,-14.222755,-6.1596823,-1.908836,-9.460017,1.7420632
1409347987990,-7.4148426,-14.339473,-7.6811976,-2.2266035,-9.48395,1.1257555
1409347987990,-5.851429,-13.705607,-4.3341036,-2.5143251,-9.46758,0.46207684
1409347988010,-5.345654,-13.626599,0.84814596,-2.669233,-9.435952,0.09167232
1409347988011,-4.980538,-13.575124,1.9327193,-2.7779315,-9.403736,0.15244682
1409347988012,-5.4085016,-14.319121,7.0688806,-2.8403018,-9.3813095,0.30674833
1409347988016,-6.23091,-16.601994,12.880207,-2.8988247,-9.332289,0.82195
1409347988039,-4.7081976,-16.943766,10.487801,-2.935698,-9.216494,1.615027
1409347988040,-2.777274,-15.607203,2.3995886,-2.8865585,-9.121337,2.153922
1409347988049,-2.2589293,-14.185645,-3.558981,-2.8389156,-9.136724,2.1520267
1409347988083,-2.5785553,-14.188638,-1.8896236,-2.8186278,-9.2200365,1.7934947
1409347988084,-2.5486276,-14.496891,0.74758947,-2.7726796,-9.280357,1.5354452
1409347988085,-2.2092497,-16.220716,-2.3882163,-2.6798365,-9.319883,1.4589895
1409347988104,-0.9684546,-16.352997,-6.0716953,-2.5499206,-9.395571,1.1796306
1409347988105,0.6410475,-13.733141,-7.1209545,-2.3739748,-9.490689,0.6792893
1409347988109,1.1599907,-11.512519,-6.393716,-2.1802447,-9.560476,0.11916122
1409347988116,1.4909891,-11.35091,-5.6138043,-1.9779838,-9.598747,-0.34931263
1409347988138,1.7393875,-12.2002535,-4.899135,-1.7448481,-9.625447,-0.69042265
1409347988139,0.8026561,-13.899538,-2.9358897,-1.5075027,-9.644391,-0.9399919
1409347988148,0.3549404,-18.61013,-0.6039374,-1.3321424,-9.661368,-1.0265228
1409347988171,0.80086046,-19.608511,1.4383167,-1.1637738,-9.69535,-0.9034493
1409347988172,4.2131963,-19.608511,1.1133038,-0.9789187,-9.7361555,-0.64757603
1409347988176,5.66947,-18.216284,-1.7016789,-0.6070415,-9.776874,-0.46328095
1409347988207,3.6403837,-12.979566,-4.413112,-0.18339257,-9.791927,-0.5048674
1409347988208,1.2497733,-11.746552,-5.680842,0.10280659,-9.776145,-0.7660136
1409347988209,-0.26036942,-11.435306,-6.4218473,0.23943274,-9.741819,-1.1000129
1409347988216,-0.095169514,-10.233417,-6.3607955,0.2314283,-9.694592,-1.4600445
1409347988237,1.875857,-8.351574,-4.526837,0.18698636,-9.638786,-1.7969998
1409347988238,4.72376,-6.1129956,-2.1338322,0.26379034,-9.594319,-2.0124178
1409347988248,4.938041,-5.1996074,-3.4009635,0.58489096,-9.56718,-2.0730104
1409347988269,2.6048915,-5.5503583,-6.6492968,0.94172585,-9.503169,-2.230099
1409347988270,2.7730842,-5.2462945,-2.7635074,1.13129,-9.392027,-2.584653
1409347988276,2.3959973,-5.2678423,-1.70946,1.3260089,-9.352368,-2.6353924
1409347988305,1.8195933,-5.0374002,-1.6759412,1.4411315,-9.322147,-2.6816235
1409347988306,1.4987702,-4.3209357,-2.1392193,1.4882123,-9.290416,-2.7647424
1409347988309,1.666963,-3.2315738,-2.27928,1.5423074,-9.248948,-2.8720512
1409347988316,2.3894134,-2.099715,-2.0512323,1.6458173,-9.192102,-2.9944875
1409347988341,3.803788,-1.3108255,-1.5167267,1.8471718,-9.107986,-3.1309552
1409347988342,5.467758,-0.36272156,-1.8207904,2.2582433,-8.980839,-3.22727
1409347988350,6.4487824,0.108337626,-2.5821466,2.9069505,-8.731201,-3.389121
1409347988376,6.915652,0.1400608,-3.365649,3.6928728,-8.327009,-3.6323495
1409347988377,7.141305,0.36990416,-4.6004586,4.502412,-7.78282,-3.9148962
1409347988378,6.619968,0.90261406,-5.796961,5.243104,-7.086565,-4.2966084
1409347988405,6.0956373,0.54408234,-5.370793,5.8016534,-6.281907,-4.8009205
1409347988405,5.2846017,-0.83976626,-4.0803185,6.1979523,-5.577094,-5.1625395
1409347988410,4.7698483,-2.9029696,-2.1158757,6.4462047,-5.1286926,-5.3210287
1409347988416,4.9422307,-5.5743003,2.7742813,6.621106,-5.0534644,-5.176281
1409347988433,4.5753193,-12.676101,16.21054,6.879141,-5.4761724,-4.34274
1409347988448,-13.327324,-19.608511,19.608511,6.8702693,-6.8577485,-1.3932196
1409347988448,-19.60911,-19.608511,15.738285,6.995945,-6.694569,-1.5523826
1409347988467,-19.60911,-19.608511,10.806828,7.126413,-6.5337806,-1.6414427
1409347988482,-15.519216,-17.431583,5.9130797,7.1529956,-6.4647446,-1.7922447
1409347988483,-8.082825,-8.333617,2.565387,7.1109357,-6.45573,-1.9820541
1409347988497,-5.45878,-3.6511576,4.8285065,-3.362333,-8.619394,3.2513306
1409347988497,-1.4077905,-2.087744,6.169259,-3.7605274,-8.382674,3.4292252
1409347988513,1.0342951,-3.715801,5.2079873,-3.699766,-8.203047,3.897708
1409347988516,2.6839,-6.7869635,3.7738605,-3.3389602,-8.161039,4.2917566
1409347988530,7.398083,-12.978968,1.5304934,-2.739531,-8.302291,4.442671
1409347988546,10.2735195,-18.971056,-2.4971523,-1.5772551,-8.754876,4.1273227
1409347988548,6.6510925,-15.358804,-5.1642933,-0.2790829,-9.262743,3.2084403
1409347988563,2.658761,-11.127052,-5.241506,0.41063643,-9.5263,2.2915835
1409347988578,0.34356794,-10.737994,-4.753089,0.6524196,-9.65299,1.6014187
1409347988578,0.55605334,-13.084312,-4.3514614,0.64408207,-9.731666,1.0247978
1409347988596,0.46507367,-13.636774,-4.9661727,0.634675,-9.772992,0.5061995
1409347988597,-0.25198972,-12.870629,-2.4103625,0.6155068,-9.787314,0.0054834
1409347988611,-1.1162965,-12.344504,0.5363012,0.5328406,-9.789858,-0.21257542
1409347988616,0.077811554,-10.486005,0.4985925,0.3843754,-9.796997,-0.20366672
1409347988630,3.1735144,-7.518392,0.22505496,0.3592733,-9.798253,-0.18862638
1409347988646,5.249287,-6.351817,-0.21068975,0.5940716,-9.786013,-0.22673722
1409347988650,6.0764837,-6.956353,-0.5374983,1.0073543,-9.752014,-0.23203766
1409347988664,5.483919,-7.885902,-0.7577648,1.5265318,-9.683965,-0.24688803
1409347988680,4.1078515,-8.271368,-0.98581254,1.9828706,-9.599883,-0.2843746
1409347988680,3.1651347,-8.881291,-1.2737153,2.2666852,-9.535182,-0.33592823
1409347988695,3.2040405,-9.033323,-1.4945804,2.3994896,-9.499954,-0.40461892
1409347988696,3.4099417,-9.184157,-1.3892355,2.4982753,-9.46988,-0.5003665
1409347988715,2.6809072,-10.971429,-1.8698715,2.591268,-9.441466,-0.5607494
1409347988716,1.5957354,-12.7970085,-2.2212207,2.5733323,-9.439533,-0.6659961
1409347988729,0.110133275,-14.502877,-2.3942018,2.4345806,-9.46668,-0.7906997
1409347988749,-0.42556936,-13.43626,-2.3535004,2.1585717,-9.523664,-0.9004367
1409347988749,-0.2633622,-11.474212,-2.1350293,1.8869117,-9.572485,-0.9886843
1409347988761,-0.207697,-10.196905,-2.0171149,1.6700039,-9.606336,-1.0487094
1409347988781,-0.64583594,-9.497798,-2.0260932,1.4796973,-9.632134,-1.0967695
1409347988781,-1.3293805,-9.405023,-2.3139958,1.2812216,-9.652258,-1.167382
1409347988795,-1.5652094,-9.320627,-3.2501287,1.0422503,-9.671596,-1.2427046
1409347988796,-1.685518,-9.102755,-4.8745947,0.7980961,-9.671457,-1.4129286
1409347988815,-2.5528176,-9.101558,-4.3538556,0.55364007,-9.636758,-1.7311189
1409347988816,-4.0120835,-8.78672,-2.7659016,0.24530075,-9.598356,-1.9954327
1409347988835,-4.498705,-8.336611,-2.2960393,-0.17260961,-9.564876,-2.157243
1409347988836,-4.6830587,-7.6967597,-2.1703439,-0.5907555,-9.515106,-2.2987375
1409347988875,-4.2066126,-7.447763,-1.6597804,-0.9938697,-9.465265,-2.3646162
1409347988877,-2.9981391,-7.9607205,-0.88525605,-1.3283511,-9.42113,-2.3765848
1409347988878,-2.5330653,-9.421184,-0.049679685,-1.533938,-9.415984,-2.2708302
1409347988879,-2.3780408,-10.160992,0.15682021,-1.6441207,-9.446832,-2.055383
1409347988904,-1.9728222,-10.486604,-0.26755205,-1.7018656,-9.483198,-1.828388
1409347988904,-1.2665327,-10.53748,-0.57041854,-1.704448,-9.511472,-1.6724703
1409347988910,-0.4914099,-10.296863,-0.6099229,-1.6442002,-9.538883,-1.5737504
1409347988918,0.13946225,-10.073604,-0.5674258,-1.5248268,-9.570068,-1.5030279
1409347988935,0.3286042,-10.133459,-0.27952304,-1.3557068,-9.60569,-1.4363713
1409347988936,0.05865794,-10.43872,0.036511578,-1.1857278,-9.639389,-1.3589001
1409347988951,-0.075417355,-10.679337,0.4201824,-1.0477651,-9.668662,-1.2607734
1409347988979,-0.03172317,-10.672154,1.4885949,-0.93548286,-9.695404,-1.1377152
1409347988980,0.12749124,-10.387842,3.3291376,-0.84190357,-9.726388,-0.92679805
1409347988981,0.06584055,-10.428544,5.2923827,-0.7553493,-9.760957,-0.5688123
1409347989003,-0.46567222,-11.046846,6.3165026,-0.6840932,-9.782576,-0.0600228
1409347989004,-1.5286977,-11.660361,5.931036,-0.66128105,-9.771678,0.49739832
1409347989010,-2.879626,-11.460445,4.285621,-0.74341834,-9.733701,0.9342358
1409347989034,-4.0216603,-10.666168,2.144606,-0.9318676,-9.688858,1.1950012
1409347989035,-5.0182467,-10.766725,0.055066638,-1.2273914,-9.646075,1.2716669
1409347989037,-5.33488,-12.57734,-0.57400984,-1.5874361,-9.6061535,1.1714303
1409347989048,-5.571307,-14.374188,-0.21787235,-1.9048551,-9.564968,1.0263035
1409347989065,-6.1141925,-14.955979,-3.091513,-2.1565251,-9.521278,0.9300743
1409347989078,-5.8244944,-13.4739685,-7.069479,-2.3774107,-9.494922,0.6039701
1409347989079,-4.6022544,-12.689868,-2.8377275,-2.5577962,-9.467199,-0.013715222
1409347989095,-3.9653966,-13.5775175,4.9542017,-2.6400423,-9.440917,-0.26398703
1409347989097,-4.200627,-15.012842,9.69951,-2.6390808,-9.444052,0.124562785
1409347989111,-4.8739963,-16.944963,7.8954787,-2.6047919,-9.415359,0.8581991
1409347989128,-4.083311,-18.327015,7.1209545,-2.6031754,-9.354275,1.3752915
1409347989130,-3.1639376,-19.1183,9.366715,-2.557873,-9.301977,1.7609333
1409347989150,-4.0785227,-18.413805,4.349666,-2.4600873,-9.23336,2.2053163
1409347989152,-3.9133227,-14.785393,-2.80361,-2.4688487,-9.21444,2.2736037
1409347989158,-4.0982747,-12.660539,-0.19871874,-2.524076,-9.281686,1.9104323
1409347989202,-3.5805287,-14.018051,-2.5719712,-2.6134102,-9.283681,1.7758839
1409347989204,-2.6270378,-14.665683,-6.6804214,-2.6164901,-9.338131,1.4572786
1409347989206,-0.98461545,-13.369223,-7.852383,-2.5485733,-9.426339,0.9051462
1409347989208,-0.04129998,-12.043433,-7.2167225,-2.4336998,-9.494945,0.30584523
1409347989211,0.52492875,-11.935096,-5.8149176,-2.2855954,-9.533563,-0.2400573
1409347989249,0.8595184,-12.471396,-4.1796775,-2.0915496,-9.560767,-0.6225334
1409347989251,0.6392518,-14.799159,-2.7048495,-1.8807746,-9.589142,-0.82549804
1409347989251,1.115698,-19.203293,-1.2880806,-1.674507,-9.620545,-0.9008318
1409347989265,3.5164838,-19.608511,-0.017956512,-1.4199375,-9.667539,-0.8323738
1409347989265,5.671265,-19.608511,1.1875241,-1.0347946,-9.727884,-0.68401456
1409347989283,4.042011,-16.973694,-0.8319851,-0.551407,-9.780162,-0.4634487
1409347989284,1.9794062,-12.318767,-6.081272,-0.21352059,-9.79576,-0.4097399
1409347989288,0.019153614,-11.6825075,-9.592968,-0.018342882,-9.776822,-0.7640812
1409347989297,-0.908001,-11.89619,-6.403891,0.028973581,-9.71292,-1.3523101
1409347989313,1.2264298,-10.681132,-2.52289,-0.0016182489,-9.662672,-1.6742624
1409347989331,4.135385,-8.2833395,-1.508347,0.06527897,-9.643045,-1.7826433
1409347989332,5.345654,-6.8528037,-3.6140475,0.3095641,-9.630625,-1.82363
1409347989346,5.1822495,-5.2169657,-6.955156,0.65192676,-9.583319,-1.976196
1409347989348,4.5765166,-4.4316673,-6.320094,1.0341058,-9.461648,-2.3618245
1409347989362,3.0945058,-4.3777976,-3.8235402,1.3840789,-9.324742,-2.7025726
1409347989377,1.3856442,-3.9043443,-1.0576386,1.5705053,-9.238124,-2.891527
1409347989377,1.1390414,-3.5464113,-0.5518635,1.5754036,-9.232354,-2.9072604
1409347989394,2.4708161,-3.5571852,-1.8076223,1.6011183,-9.233993,-2.8879416
1409347989397,2.7766755,-3.4422636,-2.896984,1.7420989,-9.176632,-2.9874623
1409347989409,3.1477766,-2.996942,-2.0913353,1.9488025,-9.074364,-3.16678
1409347989426,3.2674868,-2.6431987,-2.5923219,2.2368143,-8.975639,-3.256523
1409347989430,3.654749,-2.3391352,-2.855684,2.5300195,-8.836056,-3.4195776
1409347989443,4.5525746,-2.0189106,-2.6479871,2.8598218,-8.652908,-3.6220105
1409347989449,5.4964886,-1.287482,-3.1411927,3.3130138,-8.417023,-3.7878883
1409347989461,5.928642,-0.8218097,-3.7481227,3.8765035,-8.067347,-4.0076246
1409347989481,5.9047,-0.9684546,-4.0043025,4.470349,-7.6010666,-4.2907047
1409347989481,5.4791307,-1.2497733,-4.288614,4.999923,-7.103062,-4.551667
1409347989493,5.1409497,-1.1695676,-4.565144,5.399781,-6.6269245,-4.805893
1409347989497,4.939238,-1.2545617,-3.6469676,5.699596,-6.157988,-5.0758457
1409347989510,4.4280763,-2.6443958,-1.411382,5.9756207,-5.7695975,-5.2128816
1409347989526,5.1062336,-5.070919,1.6771383,6.2119246,-5.6763535,-5.036008
1409347989529,6.7725983,-10.721834,13.8325,6.481595,-5.9475403,-4.334293
1409347989547,-7.933786,-19.422962,18.212692,6.7762933,-6.8759813,-1.7242712
1409347989570,-19.60911,-19.608511,19.306843,6.888921,-6.7158084,-1.9002888
1409347989571,-19.60911,-19.608511,15.357008,6.99323,-6.562304,-2.049708
1409347989572,-15.40609,-19.133862,5.54138,6.978413,-6.4827733,-2.3336253
1409347989577,-10.693702,-11.818378,3.3901896,6.865002,-6.49047,-2.6298072
1409347989605,-7.3729444,-6.758233,6.555324,-3.1982238,-8.642069,3.355056
1409347989605,-3.1376014,-5.3384714,6.640917,-3.6058483,-8.393961,3.5650637
1409347989611,3.7032316,-8.034941,1.2198458,-3.5705223,-8.236407,3.947576
1409347989629,8.380903,-14.430452,-1.9566613,-2.9577441,-8.495584,3.904765
1409347989630,8.611943,-19.454086,-5.285799,-1.8059263,-9.016842,3.4066942
1409347989646,5.288193,-16.317682,-6.184223,-0.71986675,-9.46429,2.4656444
1409347989664,1.1659763,-13.327922,-3.1064768,-0.13576631,-9.6717205,1.6154759
1409347989665,-4.8799815,-13.736134,5.221155,0.0028466217,-9.735888,1.1759592
1409347989701,-4.537611,-13.091495,0.6135142,-0.3811556,-9.687444,1.4759821
1409347989703,-0.5255273,-10.87626,-6.489484,-0.6997864,-9.686206,1.363125
1409347989704,0.97025025,-9.862315,-4.2880154,-0.68971187,-9.757447,0.6977853
1409347989706,1.174356,-9.809045,-1.1109096,-0.5735829,-9.785101,0.3053186
1409347989709,2.2936451,-8.157045,0.034117375,-0.43112758,-9.795257,0.19357963
1409347989743,4.0743327,-5.931635,0.3196259,-0.17715368,-9.804107,0.13601708
1409347989744,5.2702365,-5.957971,0.14903906,0.22366379,-9.803675,0.0913257
1409347989745,5.9980736,-7.241263,-0.3561375,0.6974479,-9.781488,0.08032325
1409347989773,5.7538652,-8.836999,-1.1139023,1.2285104,-9.729214,0.0597434
1409347989774,5.167286,-9.009381,-1.7004818,1.6937542,-9.659192,-0.03965806
1409347989776,4.7099934,-8.424597,-2.2948422,2.070193,-9.583969,-0.17954935
1409347989778,4.1545386,-8.389283,-2.4959552,2.377283,-9.507033,-0.36773324
1409347989799,3.7954082,-8.592192,-2.0757728,2.5945919,-9.440333,-0.5644541
1409347989799,3.364452,-8.893262,-1.5508442,2.7480705,-9.387321,-0.7047499
1409347989810,2.9903579,-9.197326,-1.270124,2.8388407,-9.353562,-0.7888339
1409347989826,2.6084828,-9.906608,-1.1336545,2.880127,-9.335999,-0.84521514
1409347989829,2.1410148,-10.891224,-1.1528081,2.8656528,-9.33711,-0.88137776
1409347989843,1.2844892,-12.030265,-1.3365631,2.7791784,-9.361879,-0.89543086
1409347989866,0.3693056,-12.545018,-1.5197195,2.6022067,-9.410086,-0.9215292
1409347989867,0.04249708,-11.534067,-1.7082629,2.3485932,-9.4734745,-0.9527859
1409347989870,0.39983168,-10.21965,-1.8189948,2.1005583,-9.527127,-0.995954
1409347989878,1.1390414,-9.297882,-2.0811598,1.9196671,-9.560515,-1.0401106
1409347989898,1.553837,-9.389461,-2.6007016,1.8353348,-9.569922,-1.1038784
1409347989899,1.3132197,-9.928755,-3.1824925,1.8022854,-9.562418,-1.2175094
1409347989911,0.36511576,-10.183737,-4.4777555,1.741089,-9.549942,-1.391977
1409347989932,-0.56982,-10.134656,-6.950966,1.6050849,-9.530635,-1.6616397
1409347989933,-3.281852,-11.592725,-6.2823853,1.3681437,-9.468627,-2.1549206
1409347989938,-4.4597993,-11.207857,-2.5360582,0.87950116,-9.431415,-2.5387533
1409347989978,-5.509058,-10.929531,-1.5460558,0.35374302,-9.443732,-2.619384
1409347989979,-5.815516,-10.808025,-0.4225766,-0.19755788,-9.461049,-2.572924
1409347989981,-5.003283,-10.222643,0.40282443,-0.7169202,-9.491097,-2.3612487
1409347989982,-3.5529952,-9.257779,0.64703304,-1.1194711,-9.513288,-2.10107
1409347990005,-2.7377696,-8.754997,0.19093758,-1.3453116,-9.532479,-1.8687896
1409347990006,-2.4253263,-8.801085,-0.2220622,-1.4893954,-9.540095,-1.7142508
1409347990009,-2.5767596,-9.0237465,-0.3274071,-1.5710616,-9.543611,-1.619156
1409347990035,-2.3080103,-9.168595,0.065242,-1.6557744,-9.542589,-1.5387621
1409347990036,-1.3102269,-9.212888,0.3609259,-1.7144113,-9.549705,-1.4263071
1409347990038,-0.770933,-9.831789,0.25438392,-1.6826018,-9.573926,-1.2958319
1409347990073,-0.97982705,-11.022306,0.207697,-1.5918478,-9.604721,-1.1771744
1409347990089,-1.2132617,-11.854291,0.65301853,-1.5073122,-9.63173,-1.0621657
1409347990090,-1.264737,-11.920731,1.8668787,-1.4425004,-9.656947,-0.9126661
1409347990092,-1.2880806,-11.855488,3.4452562,-1.3996897,-9.682834,-0.6737743
1409347990111,-1.3994108,-11.639412,4.6016555,-1.3773507,-9.70395,-0.32651335
1409347990112,-2.0177135,-12.108675,3.8857894,-1.3760341,-9.709387,0.06861001
1409347990113,-3.3883939,-13.148955,3.0711622,-1.4206533,-9.697573,0.33047348
1409347990126,-3.9097314,-13.3225355,3.2094274,-1.5565217,-9.671231,0.46360186
1409347990129,-3.6984432,-12.5186825,9.757569,-1.7127401,-9.636959,0.60490185
1409347990140,-3.1789012,-13.234549,11.362882,-1.871218,-9.538818,1.2960935
1409347990161,-4.587889,-14.052767,-1.7184383,-1.9570231,-9.381723,2.0793533
1409347990162,-5.6790466,-13.691841,-7.7452426,-2.0936017,-9.407999,1.8101915
1409347990174,-4.548983,-13.01488,-5.142745,-2.2817774,-9.466249,1.1636224
1409347990177,-3.9396589,-13.493122,-0.45489833,-2.3778453,-9.486809,0.71882284
1409347990191,-5.6910176,-14.76564,2.7790697,-2.4085293,-9.487927,0.59042615
1409347990219,-6.365584,-16.344017,7.9631147,-2.5192719,-9.449037,0.73443687
1409347990220,-5.441422,-17.31786,8.364143,-2.611808,-9.368675,1.2556947
1409347990221,-4.3819876,-16.940174,5.884948,-2.6274734,-9.296608,1.6851877
1409347990230,-4.4280763,-16.505627,2.9975405,-2.6401508,-9.2484,1.914963
1409347990247,-4.4286747,-14.269443,-2.0069396,-2.7028775,-9.218454,1.9710245
1409347990249,-4.168904,-12.810775,-3.2375593,-2.7988787,-9.240774,1.7160239
1409347990258,-3.8959646,-13.647549,-2.2104468,-2.8775754,-9.272971,1.3791137
1409347990279,-3.4901476,-15.016433,-2.5917234,-2.8966863,-9.302924,1.1114105
1409347990280,-2.3056161,-14.368801,-4.5777135,-2.8530827,-9.343998,0.8485265
1409347990301,-0.8451532,-13.125612,-5.101445,-2.7517593,-9.399711,0.49359486
1409347990302,0.095169514,-13.295002,-5.0493712,-2.6098905,-9.452486,0.0967676
1409347990310,0.94810385,-13.931261,-5.0224366,-2.4058456,-9.503159,-0.2687807
1409347990340,2.1505916,-15.925033,-4.39336,-2.1423256,-9.552412,-0.5764146
1409347990341,3.8606503,-19.447502,-2.8790276,-1.8070707,-9.607312,-0.77745736
1409347990341,7.20954,-19.608511,-0.40342298,-1.3743948,-9.674999,-0.82207626
1409347990371,9.750985,-19.608511,1.5119383,-0.76726127,-9.751934,-0.69388187
1409347990372,5.531803,-17.351976,-0.98461545,-0.073028415,-9.794402,-0.48447514
1409347990373,0.65541273,-13.091495,-5.3881507,0.32750383,-9.790494,-0.45758012
1409347990378,-3.2483332,-12.41214,-9.705495,0.42383888,-9.767709,-0.76327163
1409347990402,-3.57993,-12.441469,-5.503671,0.23020256,-9.7115965,-1.3424948
1409347990403,-0.5201403,-10.650007,-1.9405005,-0.040010232,-9.671394,-1.6226398
1409347990410,3.1962593,-8.122928,-3.25791,-0.15694968,-9.662017,-1.670688
1409347990428,4.261679,-6.4164605,-5.841852,0.004141922,-9.6419735,-1.7896109
1409347990449,3.7870286,-6.1046157,-5.4091,0.32532576,-9.580864,-2.0667882
1409347990450,2.9496565,-5.98311,-6.4697313,0.6245109,-9.506203,-2.3264797
1409347990452,2.6527755,-5.137358,-5.134964,0.85867727,-9.397071,-2.6698563
1409347990458,1.7298107,-4.533421,-3.3135753,1.0222188,-9.299355,-2.9406579
1409347990490,1.496376,-4.574721,-3.4464533,1.0770983,-9.239374,-3.105517
1409347990492,1.0546459,-4.868609,-1.7310078,1.1096575,-9.16884,-3.29719
1409347990493,1.3401544,-4.0976763,-1.2491747,1.134376,-9.160058,-3.3131392
1409347990510,1.5568297,-3.2441432,-2.72939,1.2056714,-9.157399,-3.2952673
1409347990511,2.995745,-2.2451627,-3.116652,1.2956684,-9.08864,-3.4479356
1409347990526,4.023456,-1.797447,-3.0041246,1.5829419,-8.955094,-3.6702807
1409347990547,5.088876,-1.4257472,-2.795829,2.0143974,-8.77372,-3.8903008
1409347990548,5.9783216,-0.74878657,-3.4745853,2.5869782,-8.530433,-4.087745
1409347990550,6.675633,-0.25198972,-3.6858735,3.2731001,-8.150492,-4.361958
1409347990558,7.2987237,0.06284779,-3.6673183,4.028945,-7.649172,-4.629057
1409347990584,7.3567834,-0.5009867,-3.7086184,4.813819,-7.04371,-4.835674
1409347990584,8.1642275,-0.4165911,-4.020463,5.4879956,-6.443363,-4.9533167
1409347990591,8.375516,-0.90021986,-3.9564183,6.1218433,-5.7958493,-5.010148
1409347990620,8.397662,-1.8166006,-3.5942953,6.633684,-5.2011795,-5.011224
1409347990631,8.420407,-3.685275,-2.873042,7.0312114,-4.7626834,-4.9040117
1409347990632,7.2987237,-9.050082,9.15423,7.3069406,-4.585638,-4.6637907
1409347990654,-6.612785,-19.418772,19.608511,7.6498194,-5.3504114,-3.0039628
1409347990655,-18.987217,-19.608511,19.608511,7.7816186,-5.0873427,-3.1202123
1409347990655,-19.60911,-19.608511,16.18241,7.919713,-4.8146114,-3.20438
1409347990658,-19.428349,-19.607315,5.879561,7.989703,-4.5871887,-3.360466
1409347990680,-12.206838,-11.174338,1.4203602,7.9471765,-4.4882274,-3.587283
1409347990681,-6.782175,-3.1376014,5.475539,-2.8488278,-8.85307,3.1109045
1409347990692,-3.4554317,-1.5915456,5.1601033,-3.5758662,-8.531317,3.255793
1409347990712,-0.8331822,-4.164714,3.550601,-3.8245137,-8.284642,3.5927942
1409347990713,2.8072014,-8.1343,1.4083891,-3.588741,-8.261318,3.878395
1409347990718,9.548675,-17.31726,-1.3515269,-2.9394362,-8.5307455,3.8414183
1409347990753,10.518327,-19.232023,-2.707842,-1.5007901,-9.145961,3.204596
