time,acc_x,acc_y,acc_z,gravity_x,gravity_y,gravity_z
1409346338945,-1.560421,5.400122,7.750031,-1.442647,5.4756207,8.006669
1409346338945,-1.5107412,5.6138043,8.149264,-1.460028,5.467829,8.008842
1409346338963,-1.4969746,5.601235,8.315661,-1.478125,5.463192,8.008686
1409346338964,-1.4425066,5.567716,8.4587145,-1.5006908,5.4596515,8.006905
1409346338972,-1.5269021,5.5443726,8.561067,-1.5291959,5.4569287,8.003366
1409346338996,-1.5191209,5.5497594,8.536526,-1.5574634,5.455261,7.999051
1409346338996,-1.435324,5.54138,8.310274,-1.5813658,5.4537344,7.995402
1409346339000,-1.299453,5.549161,8.177995,-1.5962127,5.4522443,7.9934673
1409346339029,-1.3479356,5.5856724,8.16363,-1.6008157,5.4502673,7.993895
1409346339030,-1.5029601,5.5886655,8.207922,-1.5982826,5.44687,7.9967175
1409346339032,-1.520318,5.5192337,8.304887,-1.591747,5.4413843,8.001754
1409346339042,-1.5442601,5.4258595,8.257602,-1.5847372,5.43426,8.007984
1409346339057,-1.5771804,5.3983264,8.133103,-1.5801349,5.4267955,8.013953
1409346339061,-1.5813702,5.471948,8.002619,-1.5802819,5.4223537,8.016932
1409346339074,-1.5622166,5.5084596,7.813477,-1.5846252,5.4227395,8.015813
1409346339089,-1.459266,5.467758,7.8332295,-1.5924535,5.4273815,8.011118
1409346339091,-1.4335283,5.3636103,7.8475947,-1.601373,5.4334474,8.005226
1409346339103,-1.6250644,5.3288946,7.8529816,-1.6090614,5.4380803,8.000538
1409346339125,-1.7842789,5.3803697,7.9595237,-1.6152086,5.4409337,7.997358
1409346339126,-1.763928,5.4521956,8.001422,-1.6210439,5.440446,7.9965086
1409346339144,-1.7166426,5.4551888,7.9912467,-1.6275145,5.437582,7.9971423
1409346339144,-1.7741034,5.4342394,7.900267,-1.6345305,5.433838,7.998256
1409346339153,-1.644218,5.4264584,7.893683,-1.6409849,5.431433,7.9985685
1409346339178,-1.4927847,5.3725886,7.8637557,-1.6434633,5.431409,7.998075
1409346339179,-1.4879963,5.341464,7.711724,-1.640786,5.4336944,7.997073
1409346339180,-1.5466543,5.3438582,7.6722193,-1.6346576,5.436858,7.9961777
1409346339194,-1.483208,5.3755813,7.776367,-1.6290396,5.4392734,7.9956813
1409346339215,-1.3198037,5.380968,7.804499,-1.6246325,5.43835,7.9972067
1409346339215,-1.2719196,5.321712,7.7368627,-1.6205152,5.4335804,8.001283
1409346339223,-1.2557588,5.2744265,7.836222,-1.616749,5.4251595,8.007756
1409346339258,-1.2066777,5.2564697,8.083424,-1.6152062,5.413864,8.015707
1409346339259,-1.2605472,5.2103815,8.090606,-1.6169208,5.401554,8.0236635
1409346339259,-1.4700398,5.204396,8.081029,-1.620156,5.3909273,8.030155
1409346339300,-1.638831,5.2247467,8.185776,-1.6255624,5.3826504,8.034615
1409346339300,-1.7052702,5.297171,8.257003,-1.6338485,5.375196,8.037922
1409346339301,-1.7567455,5.407305,8.209718,-1.6426119,5.3699236,8.0396595
1409346339301,-1.7962499,5.506664,8.160637,-1.6540579,5.36385,8.041368
1409346339301,-1.7489643,5.5778913,8.095993,-1.6540579,5.36385,8.041368
1409346339324,-1.757344,5.605425,8.059482,-1.6551031,5.360703,8.043252
1409346339324,-1.8118122,5.5737014,8.053496,-1.65271,5.356537,8.046517
1409346339340,-1.7561469,5.49589,8.086416,-1.6485047,5.3515577,8.050693
1409346339354,-1.6346412,5.422867,8.040328,-1.6447171,5.346128,8.055073
1409346339355,-1.4939818,5.3259015,7.994838,-1.6385894,5.3413167,8.059512
1409346339371,-1.292869,5.243302,7.9289975,-1.6311094,5.3372383,8.063731
1409346339374,-1.1312603,5.142745,7.8888946,-1.6218323,5.333317,8.068195
1409346339393,-1.1001357,5.070919,7.937377,-1.61133,5.3276343,8.074052
1409346339393,-1.4239515,5.007473,8.025963,-1.6023568,5.319472,8.081216
1409346339409,-1.436521,5.0745106,8.048109,-1.5997428,5.3090234,8.088602
1409346339425,-1.4748282,5.153519,8.006809,-1.6001086,5.2990785,8.095049
1409346339426,-1.5628152,5.21936,8.045714,-1.6006721,5.2905865,8.10049
1409346339442,-1.5556326,5.2917843,8.037933,-1.601252,5.2838087,8.104797
1409346339443,-1.5143325,5.3683987,7.952341,-1.5990515,5.277238,8.109512
1409346339460,-1.5508442,5.42167,7.8625584,-1.5952427,5.2698603,8.115058
1409346339463,-1.5771804,5.418677,7.777564,-1.5928444,5.2601857,8.121803
1409346339472,-1.6514006,5.3761797,7.6949644,-1.5952706,5.2477207,8.129387
1409346339493,-1.8489223,5.3474493,7.6746135,-1.6043683,5.2342305,8.1362915
1409346339494,-2.0015526,5.3624134,7.753622,-1.6190466,5.2207093,8.142067
1409346339501,-2.231396,5.3755813,7.813477,-1.6358602,5.207498,8.147165
1409346339533,-2.5007436,5.412093,7.9248075,-1.6553757,5.1941967,8.151714
1409346339534,-2.5157075,5.4581814,8.111555,-1.6753279,5.180389,8.156424
1409346339534,-2.2768857,5.4821234,8.201937,-1.6923636,5.1649876,8.162671
1409346339541,-2.0153193,5.4222684,8.26239,-1.7022061,5.1472764,8.171807
1409346339561,-1.8423382,5.2840033,8.312668,-1.7018586,5.1261377,8.185156
1409346339562,-1.8483237,5.1104236,8.340201,-1.6924516,5.1006007,8.20304
1409346339572,-1.7705121,5.0583496,8.383896,-1.6792531,5.072425,8.223199
1409346339589,-1.6897079,5.0344076,8.515577,-1.6641116,5.0411344,8.245488
1409346339592,-1.5292963,4.9625816,8.620922,-1.6470711,5.0073137,8.269484
1409346339610,-1.2336124,4.867412,8.707711,-1.6269196,4.971264,8.295182
1409346339614,-0.95349085,4.703409,8.81964,-1.601686,4.9329143,8.322941
1409346339621,-0.90141696,4.5483847,8.893262,-1.5713075,4.8919683,8.352845
1409346339647,-1.1426327,4.4238863,9.18715,-1.5406088,4.849378,8.383344
1409346339647,-1.6777369,4.3634324,9.664794,-1.5151227,4.804694,8.413662
1409346339652,-2.2002714,4.414908,10.040684,-1.4998177,4.759014,8.442318
1409346339672,-2.2577322,4.5124717,9.986814,-1.4980375,4.716468,8.4664755
1409346339674,-1.8920178,4.606444,9.68275,-1.5036154,4.683665,8.48368
1409346339689,-1.4305356,4.6441526,9.251195,-1.5075483,4.6653967,8.493042
1409346339711,-1.0821792,4.648941,8.768764,-1.5018615,4.662571,8.495602
1409346339711,-0.87328506,4.677073,8.445546,-1.4834603,4.6710567,8.494172
1409346339712,-0.8822633,4.698621,8.277952,-1.4562391,4.6837945,8.491868
1409346339721,-0.9540894,4.7626657,8.234857,-1.4261007,4.6962647,8.490095
1409346339759,-1.0839748,4.784812,8.2354555,-1.3994904,4.703711,8.490401
1409346339759,-1.1288661,4.812944,8.182783,-1.3788376,4.7027135,8.494332
1409346339760,-1.2246342,4.743512,8.284536,-1.3636926,4.6936684,8.501777
1409346339762,-1.4490906,4.6657004,8.447342,-1.3527317,4.6776824,8.512332
1409346339772,-1.6783354,4.6232033,8.619126,-1.3439384,4.6575594,8.52475
1409346339798,-1.75076,4.6381674,8.773552,-1.3360176,4.6360316,8.53772
1409346339798,-1.7322049,4.6363716,8.838196,-1.3301713,4.6146655,8.5501995
1409346339801,-1.632247,4.622605,8.732252,-1.3234029,4.5959272,8.561335
1409346339824,-1.448492,4.5657425,8.499416,-1.315799,4.5828743,8.5695
1409346339824,-1.258153,4.4879313,8.275558,-1.3064204,4.577002,8.574072
1409346339846,-1.1168951,4.4125137,8.073847,-1.2950393,4.5773883,8.575592
1409346339846,-1.1204864,4.3742065,8.00621,-1.2808297,4.581044,8.575774
1409346339855,-1.2916719,4.326921,8.189367,-1.2650689,4.5837064,8.576691
1409346339876,-1.5622166,4.262876,8.420407,-1.250236,4.5812798,8.580162
1409346339876,-1.7968484,4.2281604,8.653842,-1.2387469,4.5748324,8.585266
1409346339883,-1.7866731,4.19524,8.825027,-1.2307696,4.5620604,8.593206
1409346339911,-1.5143325,4.2036195,8.740033,-1.2241844,4.545891,8.602711
1409346339912,-1.1049241,4.222773,8.567651,-1.214389,4.531261,8.611814
1409346339914,-0.8738836,4.201824,8.461109,-1.1971433,4.5211,8.619564
1409346339921,-0.84694886,4.1659107,8.4234,-1.1738214,4.5155315,8.625689
1409346339944,-0.87448215,4.1940427,8.541913,-1.1496739,4.513526,8.62999
1409346339944,-0.8996213,4.2640734,8.734647,-1.1286274,4.5125294,8.633288
1409346339952,-0.9487024,4.300585,8.854955,-1.111635,4.51211,8.635712
1409346339971,-1.0474633,4.2622776,8.872313,-1.1033362,4.510288,8.637728
1409346339974,-1.1210849,4.2221746,8.895058,-1.1036085,4.506065,8.639896
1409346339986,-1.1109096,4.172495,8.857349,-1.1100429,4.499991,8.642238
1409346340001,-0.98222125,4.1359835,8.784326,-1.1188781,4.493527,8.644462
1409346340003,-0.8595184,4.1305966,8.600571,-1.1248823,4.4885345,8.6462755
1409346340018,-0.830788,4.156334,8.325238,-1.1258159,4.4863176,8.647305
1409346340021,-0.91099375,4.203021,8.005612,-1.1240104,4.4861474,8.647628
1409346340037,-0.97264445,4.2461166,7.663241,-1.125358,4.488591,8.646185
1409346340041,-0.89184016,4.2281604,7.410054,-1.1316538,4.492804,8.643174
1409346340055,-0.7392098,4.160524,7.1568675,-1.1409928,4.4971094,8.639708
1409346340068,-0.52253455,4.048595,6.893505,-1.1493506,4.499198,8.637511
1409346340072,-0.3764882,3.876811,6.741473,-1.1534991,4.4954443,8.638912
1409346340085,-0.3645172,3.6164417,6.661866,-1.1551353,4.4826174,8.645356
1409346340104,-0.5398925,3.3854012,6.7360864,-1.1596243,4.4634395,8.654674
1409346340104,-0.6727707,3.235165,6.8587894,-1.1708883,4.43322,8.668677
1409346340118,-0.7314286,3.1070752,6.8731546,-1.1882454,4.3937855,8.686375
1409346340122,-0.92895025,2.9574378,6.933608,-1.2152835,4.347145,8.706079
1409346340139,-1.3012487,2.7593174,7.244256,-1.2545419,4.2948847,8.726424
1409346340156,-1.5376761,2.6048915,7.721899,-1.3079209,4.2383018,8.74623
1409346340156,-1.4041992,2.4839842,8.011598,-1.3724594,4.1795044,8.764615
1409346340169,-1.003769,2.3744495,7.989451,-1.4411329,4.1219935,8.780813
1409346340173,-0.4902128,2.2319946,7.7572136,-1.5079566,4.067178,8.795142
1409346340189,-0.091578215,2.0739772,7.4310036,-1.568967,4.0200663,8.806122
1409346340202,0.2100912,1.9853917,7.031172,-1.6236844,3.9815896,8.813682
1409346340203,0.427365,2.007538,6.667253,-1.6723069,3.949567,8.818996
1409346340219,0.54647654,2.112883,6.4008985,-1.7177697,3.91859,8.824076
1409346340221,0.43155485,2.280477,6.3272767,-1.7656299,3.8818872,8.83085
1409346340236,-0.130484,2.4259248,6.535572,-1.8202211,3.8341682,8.840607
1409346340254,-0.80564886,2.5605986,7.0634937,-1.8863342,3.777689,8.851056
1409346340254,-1.4101849,2.7012582,7.5465236,-1.9634169,3.703276,8.865727
1409346340275,-1.8118122,2.80361,7.8715367,-2.0497186,3.6093953,8.8848915
1409346340276,-2.0446482,2.8383262,8.108562,-2.147837,3.500338,8.905325
1409346340281,-2.1859062,2.8245595,8.34499,-2.25799,3.3801472,8.924487
1409346340307,-2.1877017,2.801216,8.554482,-2.3805828,3.2546103,8.93928
1409346340308,-2.3840263,2.6497827,8.397064,-2.515106,3.129434,8.947138
1409346340313,-2.5779567,2.6599581,7.8942814,-2.6636055,3.0124316,8.944319
1409346340321,-2.593519,2.629432,7.45734,-2.823207,2.9040875,8.9311905
1409346340341,-2.5600002,2.6102784,6.951565,-2.982159,2.8136706,8.908444
1409346340342,-2.682703,2.5959132,6.4362125,-3.1415231,2.739427,8.876754
1409346340353,-3.1741128,2.5492263,6.4146647,-3.30531,2.6740518,8.837124
1409346340376,-4.0934863,2.484583,6.652888,-3.4863381,2.6040418,8.788333
1409346340376,-5.2558713,2.380435,7.2047515,-3.7020457,2.5155826,8.725657
1409346340381,-5.9029045,2.2182279,8.474875,-3.9623652,2.396742,8.644402
1409346340404,-5.811326,2.0979192,9.398438,-4.2628994,2.2398717,8.542895
1409346340405,-6.019622,1.8602947,9.340978,-4.5924273,2.0649946,8.415212
1409346340422,-6.397307,1.3198037,9.834184,-4.924796,1.8621782,8.273395
1409346340423,-6.3512187,0.81163436,10.5841675,-5.2659163,1.6375065,8.109198
1409346340436,-5.910087,0.7152678,10.5362835,-5.599195,1.3999156,7.928407
1409346340453,-5.695207,1.0342951,10.257359,-5.9160843,1.1632265,7.7341604
1409346340454,-6.135142,1.5059528,9.925761,-6.215666,0.93532455,7.527354
1409346340467,-6.2740054,1.3078327,8.670003,-6.5148144,0.71244,7.2952037
1409346340473,-7.9511437,0.6697779,7.9170265,-6.8189387,0.4946414,7.03049
1409346340487,-19.60911,-4.1317935,7.313089,-7.12097,0.28585917,6.736502
1409346340504,-15.795147,-0.50278234,7.5531077,-7.491223,0.02627108,6.328607
1409346340504,-7.5806413,5.4857144,8.882488,-7.7383056,-0.06108367,6.023727
1409346340521,-8.334216,2.4067712,8.160038,-7.8903704,0.10046492,5.822572
1409346340522,-8.511387,0.9636662,5.6299653,-8.091854,0.3210922,5.5307484
1409346340536,-8.938153,1.210269,3.9797618,-8.336497,0.4570514,5.1443458
1409346340550,-9.90601,-0.0035913025,4.4394484,-8.561481,0.5771221,4.7474566
1409346340553,-5.896919,-0.108337626,-10.21546,-8.741212,0.70386475,4.389326
1409346340567,-8.373122,1.958457,2.8149827,-8.932179,0.85481435,3.9567504
1409346340587,0.4794389,3.957017,8.037933,-9.006238,1.0281808,3.7417774
1409346340587,-1.0510546,5.919065,5.009867,-8.969348,1.194703,3.7807252
1409346340604,-4.208408,4.2066126,0.029927522,-8.834955,1.2626534,4.0644393
1409346340604,-7.8182654,-2.730587,0.3645172,-8.721887,1.1466575,4.33408
1409346340621,-7.9852614,-8.325238,2.232593,-8.733342,0.81090605,4.386519
1409346340623,-10.483012,-10.934917,3.345897,-8.784785,0.3312319,4.3460584
1409346340638,-10.521918,-11.625047,4.3239284,-8.820626,-0.29674146,4.275379
1409346340653,-7.8625584,-12.067974,4.135385,-8.839982,-0.9001452,4.14908
1409346340653,-4.1515455,-12.797606,1.6316484,-8.873329,-1.3762807,3.9421148
1409346340674,-1.2479776,-12.282255,-2.5049336,-8.935024,-1.7160383,3.6593628
1409346340675,1.4742297,-10.044274,-5.0427876,-9.032644,-1.9376556,3.2904708
1409346340681,3.1830912,-8.145673,-2.2505496,-9.150711,-2.072107,2.8532894
1409346340709,1.2503718,-7.3819222,1.2204443,-9.252805,-2.1594207,2.4275258
1409346340710,-4.1515455,-6.535572,3.518878,-9.319499,-2.2176754,2.0974379
1409346340713,-10.526108,-4.9961004,6.5379663,-9.358574,-2.289067,1.8296617
1409346340723,-15.362994,-2.5965118,10.069414,-9.354359,-2.3820004,1.7298659
1409346340738,-17.14368,-1.4161704,10.548254,-9.3185215,-2.4534056,1.8210737
1409346340758,-17.990032,-2.5031378,7.3537903,-9.260304,-2.5107813,2.0280874
1409346340758,-19.60911,-6.5457473,3.2668881,-9.197573,-2.623431,2.1662557
1409346340762,-19.60911,-7.1425023,-0.6123171,-9.148888,-2.8654573,2.0633457
1409346340785,-19.60911,-6.229114,-2.5929205,-9.13838,-3.1358812,1.6812606
1409346340785,-19.60911,-5.7203465,-0.16340427,-9.114015,-3.4250205,1.1723282
1409346340801,-19.60911,-6.157288,3.767875,-9.074191,-3.6785145,0.54587156
1409346340802,-18.1271,-5.2486887,6.4990606,-9.020899,-3.8452823,-0.086980954
1409346340821,-15.494077,-2.1583729,7.3286514,-8.98937,-3.8717465,-0.6092717
1409346340822,-12.905346,0.9403227,6.269217,-9.018347,-3.7271883,-0.9735867
1409346340837,-8.384495,2.915539,5.571307,-9.104414,-3.4410126,-1.1997926
1409346340853,-3.3836055,3.8552632,7.1233487,-9.213119,-3.0812774,-1.3396243
1409346340853,-1.6944963,2.2709002,10.374675,-9.316589,-2.7040012,-1.4352473
1409346340869,-3.781043,-0.3573346,11.744158,-9.410714,-2.330978,-1.4749188
1409346340887,-6.985682,-1.9871874,1.6597804,-9.477986,-2.0480053,-1.4641905
1409346340897,-8.3072815,-4.23654,-0.08200141,-9.506642,-1.8996991,-1.4782758
1409346340913,-8.7053175,-4.9895163,-0.41180268,-9.516277,-1.8778712,-1.4437597
1409346340913,-8.1642275,-3.3022027,0.50757074,-9.511841,-1.8974406,-1.4474065
1409346340914,-7.5094137,-1.3784616,-0.93972415,-9.508069,-1.8907286,-1.4805975
1409346340937,-7.651869,-1.0259154,-2.1452048,-9.512283,-1.85933,-1.4932284
1409346340938,-7.99005,-0.7278373,-2.7539306,-9.523849,-1.797324,-1.4954338
1409346340950,-8.30369,-0.48362875,-2.5683799,-9.543499,-1.7181035,-1.4629297
1409346340953,-8.279748,-0.39564183,-0.6218939,-9.567136,-1.6362866,-1.4010323
1409346340967,-8.782531,-0.52612585,-0.19812019,-9.593289,-1.559017,-1.3071675
1409346340986,-10.71525,-1.4628572,-1.5227122,-9.617409,-1.4994853,-1.1947329
1409346340986,-11.684901,-1.9285295,-1.1821371,-9.633763,-1.486729,-1.0726765
1409346341004,-10.949283,-1.0516531,0.7703344,-9.639133,-1.5272125,-0.9618162
1409346341004,-9.371504,1.4634558,2.1218612,-9.638613,-1.5785925,-0.88068104
1409346341020,-7.707534,2.9287071,3.3141737,-9.637481,-1.6234221,-0.80861706
1409346341038,-7.3968863,1.1426327,3.4213142,-9.636943,-1.6601056,-0.7374445
1409346341038,-7.6093717,0.02932897,2.1984756,-9.633146,-1.7146108,-0.6580226
1409346341053,-6.8863225,0.3369839,1.4616601,-9.624056,-1.7935169,-0.57551384
1409346341067,-7.814076,-1.1923125,0.320823,-9.607813,-1.8994901,-0.50225806
1409346341068,-8.7532015,-3.3093853,-2.4390929,-9.57809,-2.052998,-0.46451488
1409346341084,-8.553286,-3.205836,-3.9953241,-9.5290785,-2.2669468,-0.47750413
1409346341084,-9.075222,-3.7960067,-4.1335893,-9.468939,-2.4997458,-0.51072484
1409346341101,-8.33242,-4.660912,-3.927688,-9.392495,-2.7596903,-0.57926357
1409346341102,-8.511986,-5.6018333,-2.1218612,-9.297397,-3.042855,-0.68546414
1409346341116,-10.144831,-7.445369,-0.48841715,-9.1814,-3.352636,-0.7950287
1409346341137,-11.967417,-9.1590185,-0.83018947,-9.034732,-3.708238,-0.89049107
1409346341137,-11.827356,-8.089409,-0.741604,-8.859026,-4.0935183,-0.9649556
1409346341152,-10.068216,-6.669647,0.22266077,-8.683142,-4.444146,-1.0114334
1409346341154,-7.9074497,-5.507262,0.6619968,-8.516609,-4.7563357,-1.0074918
1409346341168,-7.542334,-6.39611,0.13108255,-8.376676,-5.007578,-0.9622218
1409346341187,-7.5806413,-8.6257105,0.044891283,-8.248682,-5.231858,-0.8702158
1409346341187,-8.039729,-10.812814,0.30526072,-8.101877,-5.4736943,-0.75410044
1409346341202,-7.8942814,-10.85531,0.87927055,-7.9298654,-5.736171,-0.6196411
1409346341203,-6.0716953,-8.632295,2.915539,-7.7561626,-5.982874,-0.46642917
1409346341218,-4.895544,-6.429629,-0.39264908,-7.605056,-6.184644,-0.28926176
1409346341238,-2.9604304,-4.796783,2.754529,-7.4725866,-6.349306,-0.13104104
1409346341239,-1.7645266,-3.9636009,2.6013002,-7.33885,-6.504663,0.031755906
1409346341242,-2.771887,-4.6279917,1.0827777,-7.1953907,-6.6615357,0.1438637
1409346341254,-5.0882773,-5.360019,0.5267244,-7.026746,-6.837875,0.19671558
1409346341273,-5.3624134,-5.2474914,0.35254622,-6.8144274,-7.0487056,0.2229308
1409346341274,-4.621408,-5.120599,0.60693014,-6.548748,-7.2971315,0.19017947
1409346341282,-3.9444473,-5.48751,0.5422867,-6.244422,-7.561026,0.092149295
1409346341301,-4.0396166,-8.082825,-0.57760113,-5.9293013,-7.8109236,-0.05684943
1409346341302,-5.187038,-12.481572,-1.4975731,-5.600166,-8.046739,-0.24196985
1409346341322,-5.5377884,-14.905103,-1.2419921,-5.256977,-8.267789,-0.42219782
1409346341323,-4.748899,-14.399926,-1.0073603,-4.9079633,-8.471864,-0.55659634
1409346341334,-3.7247794,-12.682685,-1.3210008,-4.6043086,-8.63712,-0.60902506
1409346341349,-3.3273418,-11.886014,-2.3588872,-4.392882,-8.749132,-0.5706763
1409346341373,-3.1842883,-11.546038,-2.8419175,-4.256219,-8.822225,-0.47259647
1409346341374,-2.8808231,-11.331757,-2.8191724,-4.139757,-8.883018,-0.35324177
1409346341374,-2.574964,-11.283873,-2.4660277,-4.00303,-8.949253,-0.23881227
1409346341383,-2.079364,-10.906187,-2.2415714,-3.8466907,-9.019844,-0.12564532
1409346341403,-0.90141696,-10.055647,-1.8315643,-3.643835,-9.104383,-0.055331428
1409346341403,-0.40940848,-9.874885,-0.9552865,-3.394653,-9.200302,-0.03440379
1409346341424,0.18076223,-9.26197,0.8170213,-3.1134932,-9.299109,-0.055634793
1409346341425,0.95827925,-7.98586,1.6077064,-2.8073058,-9.395748,-0.09671733
1409346341434,0.57161564,-8.180388,1.8028339,-2.481918,-9.486223,-0.14838497
1409346341456,-0.12030864,-8.53054,1.7160441,-2.1277633,-9.570931,-0.20076165
1409346341456,-0.27952304,-8.539519,1.5376761,-1.7548369,-9.644909,-0.25822717
1409346341462,-0.83138657,-7.97748,1.4640543,-1.3345028,-9.710007,-0.32442486
1409346341487,-2.0709844,-7.6201453,0.7667431,-0.8773131,-9.759122,-0.40030748
1409346341488,-3.2680852,-7.435792,0.091578215,-0.3967734,-9.786792,-0.481293
1409346341494,-3.1896753,-7.0587053,0.34715924,0.08053119,-9.790675,-0.5537158
1409346341503,-2.9646204,-6.505645,0.90261406,0.5281964,-9.773995,-0.6002865
1409346341521,-2.8203697,-5.8454432,0.6823475,0.91717005,-9.744038,-0.6188088
1409346341522,-2.581548,-6.247669,1.1270704,1.2442834,-9.707213,-0.6262445
1409346341536,-3.0615854,-8.284536,2.3139958,1.5402974,-9.663704,-0.640854
1409346341556,-3.0765493,-9.494206,1.7872716,1.7875293,-9.620214,-0.6531629
1409346341556,-2.1888988,-9.689334,0.9708488,2.0043929,-9.5761795,-0.6705343
1409346341567,-1.3928268,-9.616311,0.7787141,2.2140195,-9.529725,-0.67293257
1409346341584,-0.21308395,-9.322423,0.6811504,2.4289703,-9.479517,-0.63971186
1409346341585,1.460463,-9.597756,0.84096336,2.667592,-9.419564,-0.571089
1409346341600,3.4584243,-9.498397,1.2252327,2.9415107,-9.342886,-0.47786185
1409346341602,9.136273,-12.531252,0.79607207,3.2444558,-9.247015,-0.36959085
1409346341616,13.488933,-11.667543,-0.039504327,3.6374664,-9.10386,-0.2429045
1409346341638,12.117653,-9.490017,-0.30825347,4.1491446,-8.885082,-0.101463065
1409346341638,7.9086466,-8.820239,-0.99778354,4.7502756,-8.57911,0.06468319
1409346341642,5.6999955,-11.170747,-0.86849666,5.441489,-8.154751,0.24622692
1409346341665,7.813477,-16.621746,1.1623849,6.1788764,-7.60475,0.399571
1409346341666,6.019622,-19.608511,-0.480636,6.8700514,-6.9806767,0.49289808
1409346341682,5.6604915,-19.603724,-0.62249243,7.4426584,-6.3678756,0.47686407
1409346341683,11.741764,-13.013683,-2.0638018,7.915124,-5.7770677,0.38302258
1409346341700,13.795989,-6.1022215,-2.6102784,8.229926,-5.327633,0.234623
1409346341703,12.579136,-3.12982,-2.9317,8.292165,-5.235312,0.04354162
1409346341716,11.664551,-1.3611037,-2.722806,8.1494875,-5.4515657,-0.19146015
1409346341733,10.691906,-0.599149,-2.7748797,7.949733,-5.7234783,-0.46249536
1409346341734,8.55149,-1.210269,-2.0871453,7.771396,-5.9330525,-0.7580817
1409346341748,7.4974427,-3.2453403,-1.6047137,7.6239047,-6.0764003,-1.0601199
1409346341765,8.811261,-4.8309007,-1.9668367,7.4907475,-6.188306,-1.3281267
1409346341765,10.338163,-5.617396,-2.2397757,7.3959355,-6.2371583,-1.6026124
1409346341787,10.710462,-5.7921724,-2.098518,7.325159,-6.263335,-1.8119296
1409346341787,9.973047,-5.8029466,-1.6962919,7.261029,-6.2946563,-1.9558091
1409346341800,9.041104,-5.6569,-0.93852705,7.2022133,-6.325236,-2.0712101
1409346341816,8.574235,-5.370793,-0.12030864,7.151771,-6.344112,-2.1851346
1409346341816,8.525752,-5.3145294,0.5033809,7.1084294,-6.3503504,-2.3051374
1409346341834,8.368334,-5.501277,1.0995371,7.067651,-6.3498297,-2.42865
1409346341837,8.174403,-5.819107,1.5831659,7.0253115,-6.3477955,-2.5536113
1409346341851,8.087613,-6.1836243,1.8417397,6.9888287,-6.3422165,-2.6651363
1409346341867,7.768586,-6.5487404,1.614889,6.962438,-6.3316936,-2.7576246
1409346341867,7.695563,-6.736685,0.8595184,6.946423,-6.320095,-2.8238235
1409346341881,7.7847466,-6.8264675,0.022744916,6.9436064,-6.30874,-2.8559594
1409346341883,7.824251,-6.928221,-0.48482585,6.9553885,-6.300424,-2.8456373
1409346341898,7.717709,-7.032369,-0.6901286,6.97952,-6.2961082,-2.7956643
1409346341916,7.3633676,-6.968324,-0.76315176,7.0114193,-6.290461,-2.7277305
1409346341917,6.9988503,-6.7761893,-0.8050503,7.0434527,-6.287381,-2.651233
1409346341933,6.7342906,-6.6163764,-0.87927055,7.0740323,-6.2845964,-2.5753257
1409346341934,6.7163343,-6.5265937,-0.99778354,7.100488,-6.2831516,-2.5050914
1409346341950,6.8958993,-6.5427547,-1.1869255,7.1233397,-6.282688,-2.4405456
1409346341966,7.131728,-6.634333,-1.4167689,7.143812,-6.2831383,-2.3787663
1409346341966,7.294534,-6.6923923,-1.6358383,7.1642594,-6.282974,-2.3169038
1409346341981,7.365163,-6.7492547,-2.0093338,7.186104,-6.280439,-2.2553005
1409346341988,7.427412,-6.7947445,-2.397793,7.2090983,-6.2762275,-2.192769
1409346342001,7.3627687,-6.82946,-2.5647886,7.233205,-6.2691216,-2.1328964
1409346342013,7.353192,-6.8881183,-2.496554,7.2598176,-6.259255,-2.0705554
1409346342017,7.542334,-7.00723,-2.397793,7.2892814,-6.2470765,-2.002709
1409346342031,7.644686,-7.1784153,-2.1517887,7.3214846,-6.2330403,-1.9275609
1409346342034,7.3603745,-7.3388267,-1.7621324,7.356086,-6.21693,-1.8461242
1409346342046,7.117363,-7.37055,-1.5125369,7.392248,-6.19905,-1.7597857
1409346342061,7.0754647,-7.406463,-1.4766239,7.42925,-6.178503,-1.6741356
1409346342063,7.131728,-7.526173,-1.4921862,7.465169,-6.1590295,-1.583664
1409346342082,7.16824,-7.701548,-1.5352819,7.4997888,-6.1406627,-1.4885663
1409346342083,7.1227503,-7.8206596,-1.5215151,7.533662,-6.122686,-1.3881869
1409346342098,7.0485296,-7.8589673,-1.6124948,7.5672703,-6.103678,-1.2852759
1409346342113,6.899491,-7.8475947,-1.6358383,7.6004925,-6.0827527,-1.1845
1409346342115,6.554127,-7.8811135,-1.5652094,7.632416,-6.060692,-1.0884149
1409346342130,6.551733,-7.948151,-1.6394296,7.6615186,-6.0395446,-0.9977292
1409346342147,6.7630215,-8.04751,-1.797447,7.6879077,-6.0187707,-0.9169874
1409346342147,6.9796963,-8.112753,-1.887828,7.712122,-5.999274,-0.83803546
1409346342169,6.9545574,-8.030152,-1.9219455,7.73311,-5.981634,-0.7677683
1409346342170,6.724714,-7.8667483,-1.9387048,7.75065,-5.966195,-0.7087635
1409346342175,6.373365,-7.8128786,-1.8411411,7.764718,-5.9524684,-0.66907007
1409346342183,6.178836,-7.8847046,-1.632247,7.7735868,-5.9425697,-0.65391636
1409346342197,6.0878563,-7.9529395,-1.3491327,7.77593,-5.938596,-0.6621233
1409346342217,6.2458735,-8.07265,-1.1498153,7.7726555,-5.940581,-0.682458
1409346342218,6.4840965,-7.9996266,-1.0193313,7.766296,-5.944166,-0.7224562
1409346342236,6.3631897,-7.635708,-0.943914,7.7565413,-5.9498386,-0.7783967
1409346342237,6.39192,-7.427412,-0.7625532,7.742112,-5.957783,-0.857273
1409346342243,6.531382,-7.357382,-0.44951138,7.72325,-5.9683385,-0.94907504
1409346342271,6.7109475,-7.1885905,-0.40761283,7.7019715,-5.980076,-1.0434152
1409346342272,6.9826894,-7.2143283,-0.37948096,7.6796546,-5.9913273,-1.1390061
1409346342275,7.3100963,-7.313688,-0.38845924,7.6569552,-6.0023003,-1.2303853
1409346342296,7.4525514,-7.305308,-0.39743748,7.6361866,-6.012166,-1.3087709
1409346342296,7.415441,-7.1287355,-0.43394905,7.6166954,-6.019572,-1.3860373
1409346342314,7.2963295,-6.839636,-0.39145198,7.6008697,-6.0238338,-1.4527888
1409346342317,7.0766616,-6.577471,-0.3441665,7.589121,-6.0252857,-1.5071781
1409346342333,6.87914,-6.359598,-0.2717419,7.5814433,-6.0242,-1.5495541
1409346342347,6.5625067,-6.1746464,-0.25198972,7.5775213,-6.0209594,-1.5810157
1409346342348,6.679224,-6.154894,-0.27353755,7.576451,-6.016159,-1.6042554
1409346342362,6.987478,-6.359598,-0.34476504,7.57785,-6.0103307,-1.6194249
1409346342363,7.1472907,-6.509236,-0.43514615,7.5803294,-6.0047894,-1.6283412
1409346342384,7.258621,-6.5762734,-0.45908818,7.5836763,-5.9998736,-1.6308836
1409346342385,7.406463,-6.551733,-0.59256494,7.5890064,-5.994465,-1.625973
1409346342399,7.626131,-6.5619082,-0.7793127,7.5956025,-5.9885626,-1.6168826
1409346342410,7.7877398,-6.643311,-0.8762778,7.602849,-5.982428,-1.6055075
1409346342415,7.8829093,-6.567894,-1.067814,7.6107197,-5.9759917,-1.592126
1409346342429,7.9062524,-6.347627,-1.2982559,7.620245,-5.9675536,-1.5781472
1409346342450,7.796119,-6.239888,-1.5382746,7.6302676,-5.957359,-1.5682147
1409346342450,7.6309195,-6.279991,-1.7064673,7.641525,-5.9461093,-1.5560508
1409346342472,7.5225816,-6.4260373,-1.8255788,7.653174,-5.93394,-1.5452143
1409346342473,7.406463,-6.577471,-1.8249803,7.6653023,-5.9202905,-1.5374337
1409346342475,7.253833,-6.6882024,-1.6885108,7.677344,-5.905636,-1.5337174
1409346342485,7.0622964,-6.7265096,-1.5478514,7.6891856,-5.8898807,-1.5349638
1409346342499,6.9796963,-6.7588315,-1.4197617,7.7005386,-5.8728776,-1.5431899
1409346342512,6.9360023,-6.8587894,-1.3162124,7.7109222,-5.855213,-1.5583854
1409346342515,6.9198413,-6.980295,-1.2216414,7.7201357,-5.8382473,-1.57631
1409346342531,6.985682,-7.1113777,-1.186327,7.7286887,-5.821834,-1.5949966
1409346342547,7.0371575,-7.20954,-1.134253,7.7366085,-5.806186,-1.6135371
1409346342547,7.086837,-7.342418,-1.0720038,7.743871,-5.7916775,-1.6307524
1409346342563,7.0593038,-7.4687123,-1.0043676,7.7505727,-5.7783904,-1.6459754
1409346342563,7.1820064,-7.6291237,-0.83018947,7.756017,-5.7671995,-1.6595249
1409346342577,7.2963295,-8.011598,-0.8924387,7.76067,-5.757559,-1.6712016
1409346342596,7.2867527,-8.145074,-0.93014735,7.763789,-5.7498803,-1.6831083
1409346342596,7.221511,-8.212111,-0.97144735,7.766311,-5.7438216,-1.6921374
1409346342617,7.1790137,-8.321647,-1.0187328,7.7684155,-5.738664,-1.6999624
1409346342617,7.088034,-8.495825,-1.0600328,7.7693567,-5.7346387,-1.7092212
1409346342634,6.927024,-8.76996,-1.1785458,7.768497,-5.7318196,-1.7225238
1409346342635,6.806117,-9.128492,-1.2952632,7.765297,-5.7301717,-1.7423251
1409346342647,6.7851677,-9.549872,-1.4580688,7.759331,-5.729518,-1.770812
1409346342662,6.849811,-10.014347,-1.6065093,7.7490253,-5.7309165,-1.8109728
1409346342663,6.8839283,-10.573393,-1.282095,7.7335863,-5.7355475,-1.8615997
1409346342680,6.5984197,-11.0378685,-0.23283611,7.7128468,-5.744315,-1.9197023
1409346342683,6.121375,-11.225215,0.8559271,7.6849594,-5.7568107,-1.9927275
1409346342697,5.715558,-11.252748,1.2551602,7.6490035,-5.769982,-2.0905726
1409346342714,5.158906,-11.478401,1.1402385,7.603008,-5.783951,-2.2159824
1409346342715,4.778228,-11.519701,0.4177882,7.5480113,-5.8053303,-2.3443656
1409346342732,5.1984105,-10.971429,-0.008379706,7.492023,-5.8350434,-2.447902
1409346342743,6.2662244,-10.207679,1.3676877,7.446906,-5.8633323,-2.5170133
1409346342743,8.039131,-9.349358,5.533,7.403795,-5.901675,-2.5543036
1409346342764,9.539697,-8.53054,10.643424,7.364997,-5.9568233,-2.5384083
1409346342764,9.455301,-7.5800424,11.372458,7.328625,-6.0288243,-2.4728456
1409346342783,8.793304,-7.2861543,6.329072,7.281643,-6.102601,-2.430288
1409346342783,8.637681,-7.2951326,-4.1659107,7.2263546,-6.1710725,-2.422409
1409346342797,8.620922,-7.2143283,-1.4826094,7.191062,-6.2364564,-2.3591592
1409346342816,9.145252,-6.634333,0.4866215,7.1940084,-6.3185964,-2.1194265
1409346342817,9.479243,-6.637326,-0.3369839,7.201589,-6.39804,-1.8364713
1409346342834,10.313622,-6.704962,0.7074866,7.1942067,-6.4730926,-1.5852034
1409346342835,10.939706,-7.067683,-1.1145009,7.170868,-6.544498,-1.385129
1409346342844,11.164762,-7.2370734,-2.9221232,7.1390786,-6.613726,-1.2093759
1409346342864,11.544841,-7.221511,-3.1118636,7.102473,-6.680856,-1.0447167
1409346342865,11.874043,-6.6121864,-2.7802668,7.0659347,-6.743594,-0.87572485
1409346342880,11.6669445,-6.2422824,-2.7802668,7.031749,-6.797376,-0.7215274
1409346342898,11.046846,-6.099229,-3.4572272,6.995663,-6.8465567,-0.5964634
1409346342899,10.350733,-6.407482,-3.5595794,6.959802,-6.8905025,-0.5025043
1409346342911,9.513959,-6.8827314,-3.2154129,6.923042,-6.9329453,-0.41969272
1409346342928,8.471883,-7.422025,-2.9215245,6.8805327,-6.980334,-0.32185748
1409346342929,7.463325,-8.0127945,-2.819771,6.8252683,-7.038647,-0.20867519
1409346342945,6.8731546,-8.459313,-2.5372553,6.7566934,-7.1069813,-0.09115239
1409346342946,6.477513,-8.838196,-1.8088194,6.679753,-7.179873,0.02639584
1409346342963,6.2925606,-9.059061,-1.1288661,6.5974145,-7.2542872,0.14084668
1409346342964,6.26383,-9.167996,-0.1328782,6.512485,-7.327757,0.24875893
1409346342979,6.2925606,-9.102755,0.52373165,6.4311743,-7.39465,0.3599274
1409346342998,6.4206505,-8.711902,0.23403321,6.358927,-7.450328,0.47652885
1409346342999,6.645107,-7.9547353,-0.5494693,6.2982984,-7.493192,0.5948741
1409346343011,6.8103065,-7.061698,-1.0181342,6.247715,-7.5246134,0.71877956
1409346343015,7.1730285,-6.021417,-1.3120226,6.202697,-7.548749,0.8445909
1409346343030,6.5349736,-4.7417164,-1.1336545,6.159484,-7.569957,0.9627552
1409346343044,5.975329,-4.219182,-1.1360487,6.1132245,-7.59209,1.0765944
1409346343045,5.9609637,-3.639785,-1.2252327,6.0683613,-7.6132936,1.1760792
1409346343061,5.8262897,-3.7924154,-1.0833763,6.030387,-7.6282616,1.2706031
1409346343064,5.921459,-3.809175,-0.7721301,5.9983454,-7.6402297,1.3480072
1409346343078,5.795165,-3.5075054,-0.5835867,5.973294,-7.6471853,1.4180069
1409346343097,5.5964465,-3.2956185,-0.3333926,5.956814,-7.648351,1.4796909
1409346343097,5.3498435,-2.944868,-0.338181,5.946422,-7.6467223,1.5290772
1409346343110,5.237316,-2.657564,-0.83617496,5.941899,-7.6422772,1.568386
1409346343116,5.2241483,-2.3116016,-1.2659341,5.9406757,-7.6368675,1.5990698
1409346343128,5.489306,-1.6603789,-1.6627731,5.940378,-7.6323676,1.6215049
1409346343144,5.3408656,-1.2294226,-2.087744,5.9398904,-7.628779,1.6400621
1409346343145,5.0451818,-1.3054385,-2.2379801,5.9387765,-7.6267376,1.6535461
1409346343161,4.718373,-1.5795746,-2.195483,5.942424,-7.623474,1.6554893
1409346343164,3.9857473,-2.1697452,-1.6938977,5.956315,-7.6157904,1.6408743
1409346343176,3.7900212,-3.2136173,-0.55246204,5.978398,-7.6057405,1.6068119
1409346343195,3.7463272,-4.931457,0.91219085,6.0072217,-7.5937853,1.5550244
1409346343196,4.021062,-6.8013287,2.4660277,6.0351014,-7.5873666,1.4764137
1409346343215,4.2940006,-9.111135,4.6375685,6.0546074,-7.5902753,1.378352
1409346343234,4.7656584,-12.070967,6.950966,6.0547695,-7.608756,1.271616
1409346343235,4.8704047,-15.644911,7.7985134,6.0204625,-7.6508913,1.1782489
1409346343236,4.6321816,-19.011158,6.89171,5.9348226,-7.72898,1.1005203
1409346343245,4.624999,-19.608511,6.4481835,5.7919445,-7.847056,1.023473
1409346343265,5.1613,-19.570803,6.3458314,5.6216016,-7.9778376,0.96026015
1409346343265,7.3232646,-16.883911,7.1586633,5.444728,-8.104867,0.9145941
1409346343285,7.277775,-14.990695,7.7907324,5.283283,-8.214249,0.8851146
1409346343286,5.9477954,-13.367427,5.357625,5.113712,-8.319975,0.893511
1409346343296,6.861782,-10.854712,7.4429746,4.9726553,-8.402751,0.9148063
1409346343312,7.455544,-7.833828,4.9135003,4.8942204,-8.438689,1.0027483
1409346343317,8.031948,-6.5655,1.1534066,4.8543386,-8.452942,1.0740511
1409346343333,10.742783,-6.7965403,-1.7130513,4.8423414,-8.453619,1.1218045
1409346343338,14.65431,-7.9146323,-3.5350387,4.878371,-8.429828,1.1445012
1409346343344,14.425664,-8.844181,-4.1503487,4.965012,-8.377984,1.1525714
1409346343367,11.7303915,-9.924564,1.5628152,5.0441003,-8.331345,1.1472431
1409346343367,11.053431,-9.255983,3.2333694,5.0735064,-8.305314,1.2048671
1409346343376,11.087548,-7.701548,-1.4203602,5.095535,-8.286487,1.2409999
1409346343403,9.93893,-4.9559975,-5.3845596,5.124256,-8.276414,1.1888644
1409346343403,8.109161,-2.8455088,-6.999449,5.1480627,-8.267926,1.1442204
1409346343404,6.206968,-1.9416976,-5.5737014,5.1488967,-8.264428,1.1655513
1409346343434,5.531803,-0.64583594,-3.767875,5.1227045,-8.270235,1.2375381
1409346343434,5.400122,-0.26635495,-2.5659857,5.0845456,-8.285089,1.2942537
1409346343436,5.773019,-0.635062,-1.7848774,5.0457706,-8.309212,1.291357
1409346343445,6.215946,-1.6741456,-2.2391772,5.013477,-8.338346,1.2277815
1409346343466,6.570288,-2.7766755,-3.108871,4.992114,-8.365363,1.1268983
1409346343467,7.1568675,-3.7858315,-3.3291376,4.9884686,-8.381192,1.0203899
1409346343476,9.190742,-5.9160724,-2.4995465,5.0134573,-8.376437,0.93322897
1409346343496,9.403826,-6.8929067,-2.071583,5.0826354,-8.342889,0.85641813
1409346343496,9.233837,-7.86615,-1.6621746,5.1712446,-8.298268,0.753233
1409346343518,8.986037,-8.550891,-0.7410054,5.2835793,-8.236494,0.64371
1409346343518,8.227076,-9.520543,0.18614918,5.4200153,-8.1570015,0.50711775
1409346343525,7.905654,-10.243592,0.5231331,5.5665755,-8.065716,0.35755554
1409346343549,7.665635,-10.047866,0.670975,5.7146454,-7.966722,0.21103637
1409346343549,7.314286,-9.150041,0.47465047,5.8550053,-7.8664865,0.08782734
1409346343556,6.7600284,-8.456321,0.029927522,5.97383,-7.7771206,0.011617958
1409346343565,6.2225304,-7.6680293,-0.79846627,6.0788507,-7.6952567,-0.031710897
1409346343578,6.077681,-7.1544733,-1.6370354,6.168407,-7.6236835,-0.023926819
1409346343595,6.4086795,-6.725911,-1.7286136,6.255344,-7.5524817,0.033006784
1409346343596,6.7869635,-6.933608,-1.6705543,6.344915,-7.4764233,0.124645784
1409346343612,6.361394,-7.6105685,-1.3204023,6.4333515,-7.398142,0.22333238
1409346343634,5.3366756,-8.111555,-1.2443863,6.519022,-7.319727,0.30712825
1409346343635,3.9486372,-8.557475,-1.7034745,6.611256,-7.233693,0.3679121
1409346343638,2.9759927,-9.095572,-2.705448,6.7093515,-7.140389,0.4121084
1409346343644,3.489549,-9.481039,-3.233968,6.8013425,-7.050068,0.45683485
1409346343663,4.992509,-9.358934,-3.3255463,6.8797603,-6.971193,0.49170625
1409346343675,5.436035,-8.904634,-4.128801,6.930963,-6.916713,0.53964174
1409346343676,5.2361193,-8.200141,-4.789002,6.9495034,-6.891141,0.6220651
1409346343694,5.3139305,-7.483676,-5.533599,6.953374,-6.875953,0.7363836
1409346343698,5.7059813,-7.3729444,-3.2255883,6.963,-6.8570924,0.81689626
1409346343709,6.279991,-7.4735007,-1.5568297,6.9821515,-6.8363338,0.82733524
1409346343727,6.787562,-7.36636,-0.98341835,7.012852,-6.8136477,0.7513377
1409346343728,6.889914,-7.5764513,-0.545878,7.048205,-6.791826,0.60358053
1409346343746,6.8905125,-7.839215,0.007182605,7.0829163,-6.7729454,0.36042
1409346343746,6.8109055,-7.9673047,0.30047232,7.109593,-6.754315,0.0578022
1409346343759,6.667852,-8.103774,0.30466217,7.1247954,-6.732925,-0.2745599
1409346343776,6.7067575,-8.412027,0.23642741,7.127532,-6.7076206,-0.61357147
1409346343776,7.031172,-8.5886,0.022146367,7.1203156,-6.67834,-0.93340605
1409346343792,7.3442135,-8.666411,-0.36631286,7.1088357,-6.6434407,-1.2245518
1409346343796,7.586028,-8.735844,-0.7966706,7.0971165,-6.6019897,-1.4883102
1409346343809,8.261791,-8.859743,-1.1306617,7.0823927,-6.5550766,-1.7438685
1409346343826,8.805275,-9.115324,-1.0420763,7.06796,-6.5006847,-1.9888141
1409346343826,9.405622,-9.202713,3.7445314,7.0472884,-6.4407473,-2.2411773
1409346343845,9.583989,-9.862914,15.488689,7.0217056,-6.379885,-2.4825609
1409346343846,8.823232,-10.790668,18.68076,7.009461,-6.348473,-2.595138
1409346343859,8.19236,-11.349114,11.23539,6.925898,-6.2407813,-3.0421927
1409346343875,7.893683,-11.92492,3.1387985,6.1097426,-7.2562456,2.4876337
1409346343878,7.8823104,-12.372037,-3.6014779,5.98621,-7.3362722,2.5524087
1409346343899,6.853402,-13.087305,-6.3745623,5.891352,-7.4868336,2.3258793
1409346343899,5.717354,-13.0280485,-5.57849,5.8074846,-7.686477,1.8334553
1409346343905,5.7562594,-12.30081,-7.7584105,5.705254,-7.8772545,1.252712
1409346343929,5.5407815,-13.79958,2.7126305,5.6206865,-8.026301,0.39594197
1409346343929,7.890092,-14.368203,9.484032,5.4056416,-8.174259,0.3618724
1409346343948,6.587646,-12.941258,10.683527,5.2896028,-8.208029,0.9048537
1409346343948,5.5120506,-11.086351,9.049484,5.137862,-8.197046,1.6066127
1409346343956,5.4102974,-10.280104,2.3169887,4.9911203,-8.1682415,2.1304858
1409346343983,4.950012,-11.168352,-1.3365631,4.9063435,-8.201695,2.1978133
1409346343987,5.501277,-11.07019,-2.1517887,4.7976274,-8.306013,2.0404124
1409346344010,5.8693852,-11.063606,-4.289212,4.7368946,-8.383237,1.8583758
1409346344010,6.3224883,-10.076596,-4.845266,4.7245603,-8.4661045,1.4744501
1409346344011,6.537368,-9.617508,-4.505289,4.774803,-8.507495,0.9970776
1409346344038,7.9487495,-10.177752,-5.453393,4.8435917,-8.510152,0.53600687
1409346344039,10.790668,-11.053431,-6.642114,4.95904,-8.46012,0.06834961
1409346344039,14.688427,-12.073959,-6.7211227,5.171583,-8.321379,-0.42400342
1409346344045,18.49461,-12.451645,-5.884948,5.4864125,-8.088527,-0.8033853
1409346344067,19.607914,-10.98759,-3.9217024,5.3196883,-8.223849,-0.48952305
1409346344067,19.308039,-7.855376,-2.372654,5.1386704,-8.350304,-0.19196226
1409346344077,15.056536,-6.4787097,-1.0199299,6.7411637,-7.017674,-1.2162825
1409346344101,10.965444,-6.4607534,-0.8038532,7.05118,-6.697693,-1.2618062
1409346344101,9.715072,-6.075287,-1.6531962,7.2030735,-6.545237,-1.2025112
1409346344105,9.1590185,-4.8309007,-3.833117,7.319728,-6.413067,-1.2101977
1409346344128,8.022371,-4.6519337,-4.748899,7.4273314,-6.281171,-1.2458009
1409346344129,7.0515227,-5.204396,-4.2598834,7.4717937,-6.1945415,-1.403686
1409346344148,6.576872,-4.9296613,-4.1419687,7.4716334,-6.1555686,-1.566538
1409346344148,5.7640405,-4.3161473,-5.697003,7.4651694,-6.1109633,-1.7600404
1409346344157,4.437054,-3.8019924,-6.8282633,7.416072,-6.0521584,-2.1315901
1409346344177,3.8630445,-3.7379475,-7.0209966,7.314347,-5.9982944,-2.5867374
1409346344179,3.9109285,-4.187459,-5.787384,7.1885066,-5.9429464,-3.029387
1409346344192,4.3861775,-4.771644,-2.9059622,7.0656047,-5.9169593,-3.352195
1409346344197,5.032612,-4.819528,0.107140526,7.0084853,-5.9564533,-3.4017906
1409346344210,5.4144874,-4.707599,1.7890673,7.035866,-6.0454793,-3.1810699
1409346344225,5.379771,-4.292804,1.1001357,7.0966716,-6.14021,-2.847018
1409346344226,5.8065376,-3.6290112,-0.64823014,7.156325,-6.181134,-2.5982707
1409346344244,5.8825536,-3.3973722,-1.6753427,7.242345,-6.124203,-2.492585
1409346344245,5.424064,-2.9777884,-2.3756466,7.323941,-6.032384,-2.4780302
1409346344259,4.8841715,-2.48578,-2.8652608,7.3890543,-5.922184,-2.5495133
1409346344274,4.613028,-1.8579005,-3.457826,7.438622,-5.789053,-2.7063177
1409346344277,4.1264067,-1.2120646,-3.7499185,7.485162,-5.609875,-2.9448295
1409346344292,3.702633,-0.6572084,-3.7989995,7.5205345,-5.3989425,-3.2347126
1409346344308,3.527856,0.04070143,-3.4356794,7.5493646,-5.1560707,-3.5485857
1409346344309,3.9576154,0.6817489,-2.7126305,7.605528,-4.857369,-3.8382735
1409346344324,4.7004166,0.88166475,-1.9644425,7.7366347,-4.4848423,-4.025053
1409346344326,5.346851,0.27712885,-0.76315176,7.9386935,-4.0630736,-4.079097
1409346344344,5.93343,-1.027711,0.9947908,8.185812,-3.7156518,-3.9187803
1409346344345,6.525397,-2.9903579,3.0376434,8.455869,-3.5553117,-3.4682004
1409346344359,6.8869214,-6.5643024,6.5619082,8.688165,-3.666672,-2.691044
1409346344378,6.689998,-13.880384,12.836513,8.736615,-4.229018,-1.3990537
1409346344378,6.805518,-19.569607,13.88218,8.142428,-5.4319015,0.6047405
1409346344392,6.5607114,-19.608511,7.759608,8.154352,-5.432687,0.40357322
1409346344408,6.567894,-17.979856,9.407417,8.145334,-5.456611,0.22205344
1409346344408,6.861782,-11.458051,9.381081,5.560644,-7.592869,2.7564452
1409346344426,6.1405287,-9.68694,7.5680714,5.2975545,-7.612106,3.1878145
1409346344426,4.9733553,-10.101735,5.327099,5.1592474,-7.5825443,3.472402
1409346344443,6.740875,-7.563283,5.605425,5.0373244,-7.6021795,3.6059163
1409346344457,6.563704,-4.832696,1.2653356,5.1388674,-7.4303675,3.8147156
1409346344458,7.939771,-5.768829,-2.457648,5.415834,-7.294319,3.6921604
1409346344476,10.878056,-7.9541364,-3.9426517,5.81041,-7.245945,3.1473503
1409346344479,12.442068,-7.8487916,-5.9849057,6.2133036,-7.1919007,2.4169834
1409346344492,12.185888,-7.994838,-6.6109896,6.6184688,-7.0549917,1.6103905
1409346344508,13.068151,-10.772711,-2.5510218,6.8774905,-6.932187,0.90294194
1409346344508,14.426861,-10.994773,-0.12150574,6.973654,-6.8652973,0.63737434
1409346344525,13.9198885,-8.206126,-1.8136078,7.0968466,-6.7460837,0.5436369
1409346344526,11.391013,-6.3991027,-3.7098155,7.289776,-6.5549746,0.24871407
1409346344541,9.293094,-5.2026005,-3.9270895,7.433247,-6.3952518,-0.1341624
1409346344546,8.312668,-4.2173862,-3.3650506,7.5372963,-6.2601013,-0.4131424
1409346344558,7.595605,-3.82773,-2.7748797,7.6400805,-6.117798,-0.61000353
1409346344572,6.9024835,-3.6703112,-2.1817162,7.730081,-5.990137,-0.73108435
1409346344577,6.2865753,-3.5128925,-1.9692309,7.8022146,-5.881444,-0.8393039
1409346344591,5.7784057,-3.221997,-1.958457,7.857094,-5.7890096,-0.9611761
1409346344608,5.625177,-3.2531216,-1.8674773,7.902488,-5.704071,-1.0884218
1409346344609,5.8119245,-3.5703533,-1.7435774,7.9383254,-5.6316247,-1.199242
1409346344624,6.3542113,-4.0066967,-1.5286977,7.964541,-5.5733824,-1.2937766
1409346344626,6.68102,-4.7764325,-1.4413095,7.9841013,-5.52739,-1.3683804
1409346344641,6.7845693,-5.7664347,-1.7118542,7.986813,-5.5133595,-1.4085674
1409346344646,7.228095,-6.795343,-1.572392,7.944998,-5.5533247,-1.4859319
1409346344659,7.704541,-8.02297,-0.9355343,7.8785048,-5.6374464,-1.5227468
1409346344673,7.78355,-9.580399,-0.08140286,7.782156,-5.7836924,-1.4687942
1409346344677,7.4986396,-10.727221,0.86011696,7.627703,-6.018407,-1.3294144
1409346344691,7.4525514,-9.478644,0.86251116,7.4264455,-6.307808,-1.1089917
1409346344705,8.22947,-7.6680293,-0.98102415,7.297445,-6.4865704,-0.9176497
1409346344705,7.3873096,-7.52737,-1.9446903,7.2716475,-6.520254,-0.88306177
1409346344722,6.2883706,-7.016208,-2.8215668,7.2133594,-6.5786924,-0.9266256
1409346344725,6.1357403,-6.3661823,-4.084508,7.143593,-6.6340384,-1.0625556
1409346344740,4.97156,-6.5164185,-4.581305,7.0942793,-6.638918,-1.3290467
1409346344761,4.534618,-6.761824,-4.5926776,6.9772625,-6.695141,-1.6319665
1409346344762,5.2582655,-6.7965403,-4.459201,6.831623,-6.7668066,-1.926047
1409346344777,5.7107697,-7.0012445,-4.574721,6.7280717,-6.796347,-2.1709805
1409346344794,5.7095723,-7.2286935,-4.4717703,6.6457896,-6.8088584,-2.37557
1409346344794,5.533599,-7.2664022,-4.3341036,6.5512643,-6.826645,-2.5784285
1409346344807,5.9292407,-7.2209125,-4.088698,6.4522033,-6.8503966,-2.7589054
1409346344808,6.335656,-7.477092,-3.1800983,6.3774076,-6.8553977,-2.915919
1409346344827,6.05733,-8.072051,-2.0296845,6.3283386,-6.8727255,-2.9813054
1409346344827,5.99149,-8.434174,-1.2090719,6.259353,-6.9512367,-2.9446857
1409346344846,6.0878563,-8.6574335,-0.4321534,6.1887307,-7.0588713,-2.8359027
1409346344846,5.997475,-9.452907,-0.037110128,6.1366844,-7.175815,-2.6493711
1409346344857,5.9268465,-9.953894,0.12689269,6.0587177,-7.3222404,-2.41808
1409346344872,6.017826,-10.360908,0.25617957,5.9614325,-7.46871,-2.202295
1409346344890,6.0890536,-10.636241,0.39923313,5.667387,-7.844663,-1.5850487
1409346344891,6.0387754,-10.782288,0.28311434,5.667387,-7.844663,-1.5850487
1409346344906,5.922058,-10.666168,-0.9139865,5.667387,-7.844663,-1.5850487
1409346344907,6.035184,-10.313622,-2.7072437,5.5676785,-7.928227,-1.5213702
1409346344925,6.845621,-10.471041,-1.5310919,5.487088,-7.964198,-1.622886
1409346344926,7.8625584,-10.88823,3.6170402,5.4706855,-7.9798717,-1.6011347
1409346344939,8.371924,-10.92594,12.260707,5.520496,-8.018328,-1.1836113
1409346344955,8.219893,-10.784083,16.658855,5.5862155,-8.058952,-0.13366175
1409346344959,7.765593,-10.825383,13.136985,5.563565,-7.999561,1.1064152
1409346344977,7.804499,-11.203069,4.7524905,5.4754386,-7.9010305,1.9400215
1409346344979,8.224083,-11.948862,-2.8006175,5.4109054,-7.87519,2.2076855
1409346344996,6.9767036,-13.07294,-2.9442697,5.409312,-7.919001,2.049187
1409346344997,5.4982843,-13.254899,0.4441244,5.328328,-8.034636,1.7955307
1409346345006,4.459201,-12.488156,1.2485762,5.1851254,-8.130678,1.7823902
1409346345022,3.0998926,-13.446435,-5.00448,5.0650063,-8.231133,1.6626911
1409346345026,5.2289367,-14.380174,0.20649989,4.8657866,-8.456513,0.9909103
1409346345037,7.419631,-14.209587,4.455011,4.6916924,-8.573022,0.81346714
1409346345056,7.261614,-13.569139,6.4140663,4.6277585,-8.586788,1.0106001
1409346345057,7.185598,-12.203845,6.6786256,4.57316,-8.56736,1.3626962
1409346345073,8.078635,-10.592546,7.9726915,4.566519,-8.505845,1.7227702
1409346345093,7.8302364,-9.422979,4.435259,4.635091,-8.369713,2.1527286
1409346345094,7.6452847,-9.459491,0.84216046,4.732114,-8.267602,2.3290007
1409346345110,7.2628107,-9.503185,-2.2661119,4.8378916,-8.21519,2.2969184
1409346345110,7.1425023,-9.302073,-3.7840357,4.939161,-8.219927,2.0513132
1409346345123,6.5002575,-8.53892,-3.6337996,5.039749,-8.24607,1.665435
1409346345126,6.4481835,-8.831013,-3.8235402,5.1294885,-8.2614,1.2680726
1409346345140,8.182783,-10.12448,-4.5118732,5.202993,-8.267622,0.8635164
1409346345155,11.083957,-11.241376,-5.157709,5.302519,-8.238047,0.43390873
1409346345157,15.195399,-12.00333,-4.848857,5.485384,-8.128952,0.033373278
1409346345171,19.03091,-12.252327,-3.776853,5.785918,-7.912919,-0.28151745
1409346345188,19.607914,-11.049241,-2.8496985,5.6176925,-8.038143,0.0119751
1409346345189,19.445108,-8.508394,-3.264494,5.446304,-8.151131,0.2593138
1409346345210,15.602414,-6.787562,-4.064756,6.9449625,-6.8756294,-0.81462127
1409346345211,11.43351,-5.975329,-4.097078,7.2254395,-6.5495076,-1.0331243
1409346345218,8.842385,-5.120599,-3.7391446,7.383702,-6.3457503,-1.1759342
1409346345227,7.510012,-4.7614684,-4.0946836,7.4736457,-6.2304325,-1.2233968
1409346345242,6.4230447,-4.618415,-4.572925,7.5108914,-6.152796,-1.3784161
1409346345257,5.768829,-4.844667,-4.50888,7.5026903,-6.1161895,-1.5723475
1409346345260,5.478532,-5.767632,-5.240309,7.459144,-6.1105375,-1.7868648
1409346345276,4.1054573,-6.541558,-5.981314,7.365363,-6.142485,-2.047364
1409346345289,3.151368,-6.30932,-7.8787193,7.1819305,-6.2376003,-2.3838217
1409346345290,3.2722752,-5.943007,-2.7880478,6.923273,-6.3121204,-2.8975592
1409346345307,4.172495,-4.3478703,-0.3812766,6.7673197,-6.437293,-2.9891531
1409346345307,4.892551,-3.7822402,0.3453636,6.773539,-6.4759097,-2.8900125
1409346345326,5.4264584,-3.1334114,0.28072014,6.851204,-6.4681196,-2.719342
1409346345327,5.6485205,-2.5863364,-0.46866497,6.9721403,-6.4044952,-2.5577538
1409346345340,5.701193,-2.2679076,-1.3341689,7.1139526,-6.2890744,-2.4514592
1409346345356,5.620987,-2.0937295,-2.0201077,7.252285,-6.1336875,-2.4398115
1409346345358,5.486912,-1.9919758,-2.505532,7.3757854,-5.955468,-2.510095
1409346345370,5.3007627,-1.8076223,-2.8670566,7.4808784,-5.7670555,-2.635898
1409346345388,4.8464627,-1.5245079,-3.086126,7.566692,-5.5720906,-2.8048885
1409346345388,4.383185,-1.0971429,-3.0639796,7.6371784,-5.3702154,-3.0007846
1409346345411,4.4304705,-0.57879823,-3.221997,7.696896,-5.154583,-3.2184558
1409346345411,4.584896,-0.12928689,-3.6792896,7.7721305,-4.8839946,-3.4512277
1409346345418,4.176685,0.1400608,-3.7786489,7.847011,-4.5528746,-3.7237296
1409346345426,4.119224,0.22505496,-3.300407,7.892327,-4.2145553,-4.014861
1409346345442,4.470573,-0.31184477,-2.3277626,7.9492354,-3.8819678,-4.2320623
1409346345455,5.4085016,-1.8429368,-0.20111294,8.039124,-3.6335104,-4.2825794
1409346345458,6.4499793,-4.2784386,4.162918,8.20507,-3.610402,-3.9764593
1409346345475,7.1167645,-8.84478,11.13244,8.466176,-3.9357696,-3.0006642
1409346345488,7.0341644,-18.201918,19.455282,8.504697,-4.7784967,-1.0032482
1409346345488,9.8677025,-19.608511,15.887922,8.48818,-4.7625213,-1.1998305
1409346345505,10.307637,-19.608511,9.3738985,8.454405,-4.759756,-1.4276345
1409346345506,7.069479,-19.255966,9.536704,8.381586,-4.821663,-1.6343203
1409346345522,5.395334,-11.552023,9.649231,8.280695,-4.9597173,-1.7325346
1409346345537,6.59423,-7.1353197,4.617218,5.0741515,-7.5362267,3.6917007
1409346345538,6.2644286,-10.119692,7.5112095,5.1253924,-7.474646,3.7457187
1409346345552,8.690353,-8.544308,6.546346,5.0583544,-7.405496,3.9676263
1409346345569,10.6715555,-8.315661,1.1791444,5.2457232,-7.19789,4.1040416
1409346345570,13.4979105,-11.429919,-1.5628152,5.6487947,-7.0649548,3.7878656
1409346345588,13.429077,-11.971607,0.14305355,6.070571,-7.0250254,3.1571462
1409346345588,10.202292,-11.091738,1.4814123,6.318133,-6.985226,2.7309735
1409346345606,9.086594,-8.576031,-0.6428431,6.343814,-7.023197,2.5692613
1409346345607,9.60015,-5.6108117,-5.483919,6.4127192,-7.032412,2.3648663
1409346345620,9.205706,-3.2028434,-7.297527,6.664397,-6.964978,1.8014722
1409346345637,8.2115135,-2.3558946,-7.2382703,6.975182,-6.793429,1.1690011
1409346345639,6.927024,-3.204639,-6.6744356,7.248468,-6.5835633,0.5355337
1409346345654,6.597223,-2.7880478,-4.6740804,7.3952975,-6.439925,-0.08588088
1409346345658,7.259818,-2.4540567,-3.4901476,7.5196033,-6.2706966,-0.55167466
1409346345670,7.9086466,-2.8939912,-2.866458,7.6612196,-6.053421,-0.9122528
1409346345689,8.301894,-3.5631707,-2.7503393,7.790911,-5.8414054,-1.1619232
1409346345689,8.305486,-3.8600516,-3.0723593,7.893108,-5.660361,-1.352614
1409346345702,8.110358,-3.9983168,-2.961029,7.9806867,-5.4939528,-1.5150942
1409346345707,7.9954367,-4.2850223,-2.5582044,8.053849,-5.351941,-1.6317507
1409346345718,8.18398,-4.6399627,-2.2062569,8.10397,-5.247384,-1.7207693
1409346345736,8.247426,-5.0864816,-1.6250644,8.137353,-5.1686244,-1.7997832
1409346345740,7.751228,-5.599439,-1.0929531,8.155952,-5.127704,-1.8323458
1409346345756,7.0066314,-6.6708446,-0.17537527,8.148077,-5.146257,-1.8152901
1409346345758,7.131728,-7.639898,0.15143326,8.078197,-5.2948956,-1.6962446
1409346345776,7.61835,-8.963891,0.64942724,7.985127,-5.4846087,-1.5255262
1409346345778,7.8092875,-10.209475,1.055843,7.8529954,-5.7284083,-1.2985435
1409346345786,7.518392,-10.271125,0.83497787,7.678628,-6.011532,-1.0346909
1409346345806,8.048708,-8.641273,-0.5793968,7.496502,-6.270124,-0.8114298
1409346345807,7.2981253,-8.24563,-1.1552023,7.414217,-6.376764,-0.7325755
1409346345821,6.108207,-8.572439,-1.3377602,7.3233953,-6.484546,-0.6992507
1409346345843,5.318719,-8.955511,-1.364695,7.1807675,-6.640932,-0.71064186
1409346345843,4.4286747,-8.89805,-1.7136499,6.999815,-6.829837,-0.72549105
1409346345847,3.7600937,-9.137471,-2.4779987,6.7922053,-7.0287924,-0.7952467
1409346345872,3.6481647,-8.962694,-3.3147724,6.539819,-7.2471895,-0.9377701
1409346345872,4.3783965,-8.581417,-4.043208,6.2885485,-7.4362326,-1.1519542
1409346345891,5.2061915,-8.399458,-5.0517654,6.0955815,-7.549395,-1.4215924
1409346345892,5.3438582,-8.091205,-6.597821,5.9654107,-7.5839233,-1.7516713
1409346345906,5.258864,-8.0924015,-5.6569,5.8593473,-7.5531616,-2.188197
1409346345907,5.111022,-8.426393,-2.645593,5.7692976,-7.5286126,-2.4911048
1409346345920,5.3181205,-8.43178,-1.0462662,5.694904,-7.567558,-2.543724
1409346345938,6.1004257,-8.3551655,-0.2112883,5.6400833,-7.6252728,-2.4930053
1409346345938,6.6588736,-8.604761,0.054468088,5.6353545,-7.6647863,-2.3799686
1409346345952,6.8707604,-8.7849245,0.4973954,5.661805,-7.6917806,-2.2250574
1409346345959,6.71394,-8.787319,0.75477207,5.7089963,-7.7146077,-2.015587
1409346345969,6.133945,-8.819042,0.7128736,5.75093,-7.7393055,-1.7889515
1409346345987,5.90889,-8.761581,0.21667525,5.75179,-7.7841964,-1.5791134
1409346345987,6.089652,-8.823232,-0.3345897,5.733277,-7.8250194,-1.4384015
1409346345999,6.2207346,-8.945336,-0.88286185,5.718691,-7.8523703,-1.3443431
1409346346007,6.3769565,-9.095572,-2.247557,5.702503,-7.8717375,-1.2990748
1409346346018,6.8109055,-9.383475,-3.6601357,5.680812,-7.872916,-1.384166
1409346346045,8.095394,-10.1861315,-2.1523874,5.662316,-7.845281,-1.6000475
1409346346045,9.009381,-11.139622,2.0326772,5.693361,-7.806642,-1.6770045
1409346346047,8.899846,-11.3964,9.270947,5.754641,-7.811396,-1.4270889
1409346346073,8.759187,-11.021708,16.126146,5.819027,-7.8714876,-0.590736
1409346346073,8.432379,-10.615292,15.396513,5.8299375,-7.8550577,0.6930366
1409346346087,7.996035,-11.207258,7.4591355,5.753953,-7.736957,1.7893928
1409346346088,7.7637978,-12.389994,-1.2042835,5.6426764,-7.687997,2.2858875
1409346346104,6.3458314,-13.557766,-2.943671,5.562278,-7.7581425,2.245593
1409346346107,4.590882,-13.867815,-0.6536171,5.431294,-7.9037824,2.0497928
1409346346119,3.2836475,-13.402143,-4.38917,5.252385,-8.077737,1.825652
1409346346138,4.0414124,-14.089877,-0.29388827,5.0677195,-8.313541,1.1720247
1409346346139,5.8586116,-14.345458,3.1669302,4.834184,-8.477217,0.96841604
1409346346154,6.609194,-13.6493435,4.5621514,4.683467,-8.559059,0.98896796
1409346346168,6.791153,-12.689269,5.3779755,4.598747,-8.576786,1.2085853
1409346346169,7.257424,-11.616667,7.3388267,4.5597725,-8.547745,1.5214876
1409346346188,7.4908586,-10.262147,5.947197,4.5664663,-8.45871,1.9411373
1409346346188,7.235876,-10.376471,2.0189106,4.6283107,-8.347778,2.2502723
1409346346202,6.88752,-9.918579,-2.5875335,4.691803,-8.300459,2.29342
1409346346207,6.6600704,-9.461885,-3.2130187,4.781098,-8.328107,1.9884984
1409346346220,5.9705405,-8.8328085,-3.086126,4.8605022,-8.354471,1.6579286
1409346346238,6.177639,-8.956709,-3.4680011,4.9154305,-8.381812,1.3244493
1409346346238,7.7105265,-9.761759,-3.8163576,4.9780107,-8.396261,0.9447857
1409346346252,10.453085,-10.580576,-4.38498,5.088535,-8.364172,0.5637804
1409346346269,14.388554,-12.01171,-4.426879,5.2889996,-8.255732,0.19944091
1409346346269,18.549677,-13.062764,-4.147356,5.5873704,-8.058523,-0.109001935
1409346346286,19.607914,-12.410344,-3.7565024,5.421151,-8.169505,0.20172231
1409346346287,19.607914,-9.5971575,-4.1515455,5.2468023,-8.269724,0.50308424
1409346346311,17.183186,-7.4950485,-5.1020436,5.07533,-8.355617,0.7714304
1409346346311,11.461642,-6.2129536,-4.684854,7.0262237,-6.7655053,-1.0151213
1409346346319,8.549096,-5.638345,-3.930082,7.1867647,-6.551837,-1.2626293
1409346346354,7.4226236,-5.6060233,-3.8744168,7.280131,-6.4237766,-1.3802766
1409346346354,6.3685765,-5.9807158,-3.843891,7.317899,-6.3648915,-1.4515164
1409346346355,6.381745,-6.157887,-3.6577415,7.281955,-6.3760877,-1.5776672
1409346346372,6.667253,-5.593454,-4.706402,7.239295,-6.389569,-1.7136008
1409346346373,5.4737434,-5.163096,-7.436989,7.212803,-6.3624535,-1.9144378
1409346346388,4.2179847,-4.71957,-8.347384,7.120419,-6.319201,-2.3532295
1409346346388,3.4847605,-4.5202527,-7.3059063,6.976043,-6.263386,-2.8766677
1409346346406,3.7187939,-3.870227,-4.0773253,6.825204,-6.2163415,-3.308183
1409346346419,4.693234,-3.1794999,-0.0047884034,6.765222,-6.184294,-3.486641
1409346346419,5.1636944,-2.759916,1.572392,6.8447046,-6.1837654,-3.328884
1409346346441,5.3516393,-2.348712,0.62608373,6.9709334,-6.167873,-3.087689
1409346346441,5.3115363,-2.2014685,-0.62608373,7.1064725,-6.0936217,-2.9216807
1409346346447,4.7746367,-1.7723078,-1.6843209,7.246499,-5.9778085,-2.8150423
1409346346473,4.510676,-1.13964,-2.5971103,7.356041,-5.8314724,-2.8377807
1409346346474,4.471172,-0.51834464,-3.1555579,7.462591,-5.625135,-2.972876
1409346346488,4.043208,0.011372458,-3.2842462,7.574515,-5.3535833,-3.1837552
1409346346488,3.7612908,0.52852005,-3.4105403,7.673187,-5.046731,-3.4384747
1409346346502,3.8055837,0.8343793,-3.7547069,7.7629514,-4.691166,-3.7282588
1409346346519,3.7307649,0.88405895,-3.9749734,7.8317904,-4.293453,-4.049652
1409346346521,3.8857894,0.5967548,-3.4476504,7.867245,-3.8793929,-4.384876
1409346346535,4.4621935,-0.23223756,-2.4666264,7.9026017,-3.5091114,-4.6265984
1409346346539,4.6962266,-1.4981717,-0.78170687,7.980796,-3.2600977,-4.674299
1409346346552,5.2846017,-3.1112652,2.8682537,8.112112,-3.2338374,-4.4616485
1409346346568,5.7365074,-6.0998273,8.456321,8.384751,-3.4936655,-3.6960325
1409346346569,4.7788267,-13.148955,13.537415,8.630086,-4.2022414,-2.0082722
1409346346586,5.4408236,-19.59654,12.700642,8.041854,-5.5996113,0.37857905
1409346346587,10.864887,-19.608511,10.29806,8.042276,-5.6072936,0.22465983
1409346346604,9.191938,-19.608511,10.498574,8.003915,-5.6659575,0.06825755
1409346346621,6.521207,-18.98542,8.280945,7.916269,-5.7876763,-0.07679565
1409346346621,6.2207346,-13.543999,6.495469,5.0605984,-7.8457212,3.000896
1409346346642,5.819706,-10.912771,7.880515,4.8588686,-7.9197783,3.1367006
1409346346643,7.145495,-10.038888,8.965088,4.7600164,-7.8512936,3.4452627
1409346346648,7.9876556,-5.41329,1.9003977,4.8023643,-7.661788,3.7953517
1409346346671,10.1304655,-6.5619082,0.004189853,5.155311,-7.4921246,3.6689537
1409346346672,12.563574,-9.736021,-1.0109516,5.5599008,-7.3350086,3.3846037
1409346346686,12.457031,-10.748769,-1.863886,5.961057,-7.234667,2.8802428
1409346346687,10.934917,-11.532271,-0.8355764,6.240566,-7.191416,2.347182
1409346346703,10.31063,-10.726024,0.65660983,6.3244333,-7.2202535,2.0099416
1409346346717,9.68275,-7.8625584,-2.6605566,6.354049,-7.2266645,1.8899194
1409346346719,9.041104,-4.4687777,-5.5324016,6.4954615,-7.179973,1.5579938
1409346346735,9.11293,-3.4039562,-6.8569937,6.759654,-7.030354,1.0254811
1409346346739,8.771756,-4.2024226,-6.944382,7.0382085,-6.8158684,0.42185298
1409346346749,7.8422074,-3.6403837,-4.674679,7.222267,-6.632106,-0.15626784
1409346346769,7.575254,-2.9071593,-2.9628246,7.363953,-6.456088,-0.5113713
1409346346769,7.626131,-2.9167361,-2.0655975,7.51671,-6.25213,-0.76179045
1409346346785,7.6907744,-3.5739446,-1.7196354,7.6502914,-6.0566335,-0.9801059
1409346346788,7.502231,-3.98874,-1.927931,7.744132,-5.9068947,-1.1434125
1409346346803,7.0491285,-4.042011,-2.171541,7.8173957,-5.7865367,-1.2548639
1409346346828,6.937798,-4.0677485,-2.134431,7.8696804,-5.6955557,-1.341348
1409346346828,7.3178773,-4.132392,-1.9841946,7.9161077,-5.607362,-1.436355
1409346346829,7.727286,-4.4304705,-1.6723499,7.9734073,-5.509339,-1.4974515
1409346346839,7.876325,-4.8159366,-1.234211,8.027166,-5.420482,-1.5340766
1409346346868,7.5692687,-5.3558292,-0.7260417,8.069539,-5.356838,-1.535321
1409346346868,7.462128,-5.922058,-0.23942018,8.079766,-5.35363,-1.4921201
1409346346869,7.5584946,-6.517616,0.19033903,8.063402,-5.4030833,-1.3995115
1409346346889,7.5375457,-7.49445,0.29747957,8.024935,-5.494592,-1.2571032
1409346346890,7.4711065,-8.728063,0.5033809,7.940358,-5.6480985,-1.1045728
1409346346904,7.5094137,-8.72088,0.27234045,7.805041,-5.8655405,-0.92042387
1409346346918,8.221688,-8.1480665,-0.8678981,7.6796813,-6.0510354,-0.7601789
1409346346919,7.5842323,-8.354567,-1.632247,7.6087017,-6.146333,-0.70756084
1409346346937,7.341221,-7.943961,-2.4570496,7.50481,-6.270521,-0.72717625
1409346346953,6.8252707,-8.690952,-1.8471266,7.41719,-6.3599176,-0.84092474
1409346346953,4.9278655,-9.287707,-1.650802,7.289781,-6.4987073,-0.89234865
1409346346969,2.56419,-9.66659,-3.1908724,7.0628085,-6.738001,-0.941528
1409346346969,2.1625626,-10.036493,-4.8799815,6.707682,-7.06323,-1.1349772
1409346346985,3.5727475,-10.045472,-5.5162406,6.290606,-7.372832,-1.496673
1409346346988,4.396353,-9.610326,-7.630321,5.9574914,-7.566013,-1.8531373
1409346347003,4.83509,-9.0554695,-8.137293,5.707115,-7.6279736,-2.3266416
1409346347018,4.9146976,-9.369708,-3.6631286,5.5340815,-7.5958176,-2.8014088
1409346347019,5.2887917,-9.405023,-1.5209166,5.4112782,-7.644356,-2.9072816
1409346347034,5.9747305,-9.157223,-0.59136784,5.3196507,-7.7197084,-2.8771207
1409346347053,6.55293,-9.139266,-0.39803603,5.298577,-7.7802877,-2.7500143
1409346347053,6.595427,-9.145252,-0.020350715,5.3391843,-7.812026,-2.575992
1409346347070,6.3260794,-9.006987,0.3172317,5.380256,-7.842778,-2.3904018
1409346347071,6.05733,-9.072827,0.272939,5.4162254,-7.8765607,-2.1896687
1409346347085,6.0423665,-9.196129,0.031124622,5.4287324,-7.9166,-2.0066712
1409346347089,6.1848216,-9.387066,-0.34715924,5.4293923,-7.9537516,-1.8520108
1409346347101,6.751649,-9.438541,-3.2561142,5.424619,-7.984014,-1.7318846
1409346347115,7.900267,-9.7719345,-1.5975311,5.426311,-7.9544,-1.858249
1409346347121,8.604761,-10.563816,4.8584337,5.503039,-7.9056015,-1.8407634
1409346347142,8.667608,-11.092935,14.034212,5.6227074,-7.9316826,-1.2821754
1409346347142,8.227076,-11.476007,17.351976,5.6968155,-7.981958,-0.070910394
1409346347148,7.587225,-10.986393,12.117653,5.6611032,-7.9803042,-0.6610569
1409346347176,7.2580223,-10.642825,4.9464207,5.5160666,-7.871956,1.9431179
1409346347176,7.381324,-11.24377,-1.5927427,5.4156876,-7.8587217,2.2541578
1409346347182,6.642114,-12.982558,-4.2054152,5.358835,-7.910348,2.209
1409346347190,6.4128695,-14.2383175,-0.4285621,5.2790403,-8.054359,1.8518627
1409346347212,5.3648076,-13.83669,2.8580782,5.166758,-8.143007,1.7794455
1409346347212,3.4751837,-13.942634,-3.335123,5.041213,-8.211568,1.8239323
1409346347220,5.0757074,-14.586674,-0.23702596,4.8850813,-8.410647,1.2519627
1409346347244,7.1592617,-14.721947,5.6616883,4.7328568,-8.53679,0.94535255
1409346347245,8.319252,-14.236522,6.669647,4.64128,-8.558212,1.1772461
1409346347248,6.923433,-13.080122,7.1383123,4.6121383,-8.520243,1.5179065
1409346347279,6.473323,-11.96203,5.827487,4.548052,-8.479992,1.890855
1409346347280,6.724714,-11.187506,4.2066126,4.5011578,-8.438433,2.168597
1409346347280,6.8085113,-11.012131,3.7738605,4.5023537,-8.398112,2.3175185
1409346347309,7.1604586,-10.544662,1.6849195,4.5022163,-8.35709,2.4616046
1409346347310,8.175002,-10.420763,-1.3132197,4.5602207,-8.330584,2.444616
1409346347310,7.3962874,-10.097546,-3.7696705,4.7005672,-8.32478,2.1847398
1409346347320,5.768829,-9.335591,-4.4675803,4.816674,-8.359199,1.7589337
1409346347349,5.561132,-9.510367,-5.407903,4.871709,-8.408127,1.3191831
1409346347349,6.857592,-10.08737,-6.31351,4.895494,-8.458594,0.8104019
1409346347350,9.5809965,-10.590153,-6.326678,4.945905,-8.462553,0.30601797
1409346347379,13.9994955,-11.862072,-5.5922565,5.095784,-8.377194,-0.16112229
1409346347380,18.749592,-13.156138,-4.9344497,5.39012,-8.177217,-0.50011784
1409346347380,19.607914,-12.187085,-4.4999022,5.1929297,-8.317097,-0.17255905
1409346347414,19.607914,-8.9040365,-4.9625816,4.9875045,-8.443017,0.10333295
1409346347415,15.10023,-7.603985,-4.672883,4.8068256,-8.542781,0.29277328
1409346347415,10.523713,-6.18123,-3.2489316,6.892071,-6.83655,-1.3897265
1409346347457,8.851364,-5.158906,-3.3147724,7.0497866,-6.6570683,-1.4677643
1409346347458,7.241862,-5.48332,-3.0490158,7.1726003,-6.5032773,-1.5593495
1409346347458,6.3584013,-6.0064535,-3.007716,7.2110248,-6.45716,-1.5737252
1409346347459,7.020398,-5.607819,-4.1401734,7.186933,-6.4718676,-1.6227537
1409346347460,7.1263413,-4.5819035,-5.86759,7.1789765,-6.4372673,-1.7872669
1409346347469,5.2804117,-3.7948096,-7.674015,7.186024,-6.333482,-2.102009
1409346347525,3.228581,-3.7253778,-7.413047,7.1312065,-6.214786,-2.5870273
1409346347526,3.1370027,-3.769072,-2.6982653,6.995288,-6.1562815,-3.055573
1409346347527,4.179079,-3.5362358,1.9165585,6.943609,-6.165432,-3.1534295
1409346347528,5.439626,-3.0508115,2.3529017,7.01616,-6.2287946,-2.8541262
1409346347530,6.1782374,-2.4492683,0.24241292,7.1379337,-6.220862,-2.5536506
1409346347531,5.7143607,-2.055422,-1.287482,7.292805,-6.0992236,-2.4051778
1409346347576,5.205593,-1.9099745,-2.2990322,7.434024,-5.9384375,-2.3749983
1409346347576,4.7363296,-1.7669208,-4.0587707,7.534534,-5.7682443,-2.4755893
1409346347577,4.420295,-1.2384008,-4.1359835,7.565813,-5.5804577,-2.7905824
1409346347578,4.1503487,-0.64823014,-3.4757824,7.591443,-5.369278,-3.1162868
1409346347580,4.404134,0.33279404,-3.3716345,7.649379,-5.124799,-3.3754761
1409346347617,4.414908,0.8924387,-3.3476925,7.755413,-4.769175,-3.6440287
1409346347618,4.8973393,1.3150153,-3.2154129,7.871801,-4.3497925,-3.9095304
1409346347619,5.2702365,1.3557167,-2.9819782,8.02355,-3.8613026,-4.108941
1409346347622,5.4821234,1.1695676,-2.44029,8.183407,-3.3637,-4.229388
1409346347647,5.929839,0.6512229,-1.5981296,8.339893,-2.9088674,-4.260878
1409346347648,6.4667387,-1.1384429,0.17357962,8.510417,-2.5535402,-4.1500154
1409346347649,6.8869214,-4.4681787,4.259285,8.712575,-2.4707122,-3.7625837
1409346347675,7.041946,-10.623672,11.195287,8.944611,-2.8937604,-2.7911453
1409346347676,6.079477,-19.494188,19.608511,8.877281,-4.08183,-0.8384008
1409346347681,9.042301,-19.608511,13.254899,8.883869,-4.0242534,-1.0259943
1409346347718,6.613982,-19.608511,8.2995,8.868863,-3.9939919,-1.2496804
1409346347719,3.657143,-17.834408,8.847174,8.808985,-4.061828,-1.4400522
1409346347721,5.573103,-7.295731,8.634688,5.2159715,-7.642693,3.2485828
1409346347752,5.275025,-7.9786773,7.037756,5.0785613,-7.540412,3.677063
1409346347753,5.781399,-9.440936,9.138668,4.987438,-7.4952087,3.8881488
1409346347754,6.7863646,-6.420052,2.8886044,4.9192967,-7.3566346,4.2250247
1409346347754,6.8905125,-5.0002904,-0.1933318,5.175096,-7.206983,4.1770997
1409346347768,9.989208,-6.0687027,-1.3000516,5.5294924,-7.0960493,3.9039967
1409346347769,12.819155,-7.1981673,-3.58412,6.0045958,-6.966179,3.404052
1409346347784,13.054385,-7.297527,-5.90889,6.5015717,-6.8316884,2.6884904
1409346347798,11.150395,-7.8811135,-4.5238442,6.888181,-6.7070065,1.9337568
1409346347800,10.605117,-9.121908,-0.3776853,7.069929,-6.6502647,1.400176
1409346347812,11.053431,-5.8466406,-0.7433996,7.10804,-6.6341166,1.2785417
1409346347820,11.686697,-4.2676644,-3.1423898,7.3138747,-6.4523315,1.0222826
1409346347835,11.083957,-4.8578353,-4.501099,7.5892034,-6.187387,0.53910923
1409346347848,9.740809,-5.0757074,-4.293402,7.7656927,-5.988068,0.08626491
1409346347851,8.562862,-4.735132,-3.3650506,7.8669424,-5.8511915,-0.21257308
1409346347871,8.166023,-4.684854,-2.777274,7.938538,-5.740919,-0.43799162
1409346347871,7.814076,-4.808754,-2.1996727,7.986976,-5.654047,-0.64057577
1409346347880,6.4008985,-4.8680105,-1.6280571,8.018027,-5.590207,-0.7944915
1409346347905,5.953781,-4.655525,-1.8423382,8.0049095,-5.5945396,-0.89048696
1409346347905,6.528988,-4.357447,-1.7950528,7.9868326,-5.60198,-0.999353
1409346347909,6.9168487,-4.374805,-1.4047978,7.9980364,-5.567698,-1.0965964
1409346347940,7.08564,-4.7201686,-1.1917139,8.022252,-5.51976,-1.1602263
1409346347941,6.823475,-5.3642087,-0.82240826,8.039724,-5.482861,-1.2130355
1409346347942,6.2728086,-6.0321913,-0.2801216,8.014964,-5.5139956,-1.2355437
1409346347949,6.0477533,-6.6983776,-0.078410104,7.9608903,-5.6056614,-1.1709896
1409346347974,6.211158,-7.8104844,0.004189853,7.8672686,-5.750425,-1.099585
1409346347975,6.52001,-9.287707,0.2693477,7.7289667,-5.9525805,-1.0001351
1409346347981,6.6708446,-9.747394,0.9139865,7.5377502,-6.2146473,-0.8549071
1409346348006,7.8529816,-8.258201,0.25079262,7.3409905,-6.469961,-0.6479893
1409346348006,8.444349,-8.008605,-0.5506664,7.274292,-6.5562863,-0.5198054
1409346348009,7.386112,-7.902063,-2.0398598,7.2529755,-6.583773,-0.4676479
1409346348036,7.0066314,-7.140108,-2.3391352,7.195822,-6.6374254,-0.57888067
1409346348036,4.311359,-7.9667063,-2.9011738,7.1642604,-6.658861,-0.7094471
1409346348056,2.4462755,-8.475474,-4.4681787,6.9666896,-6.844425,-0.8885388
1409346348056,3.316568,-8.371326,-5.4204726,6.64646,-7.1054544,-1.2277952
1409346348060,5.0571527,-8.545505,-6.3865333,6.3633146,-7.2752156,-1.6582688
1409346348069,5.6419363,-8.41502,-9.09258,6.1512027,-7.335161,-2.1280308
1409346348083,5.605425,-8.173206,-4.619612,5.9704003,-7.2833357,-2.7345426
1409346348096,6.30513,-8.24204,-2.469619,5.906734,-7.29005,-2.8523734
1409346348102,5.9585695,-8.413823,-1.5514427,5.908538,-7.297646,-2.8291223
1409346348132,5.929839,-8.218098,-0.57281274,5.8704195,-7.3428726,-2.7911997
1409346348133,6.3913217,-8.430583,-0.019752163,5.838795,-7.403868,-2.694736
1409346348134,6.14831,-8.793902,0.25258827,5.849706,-7.458512,-2.5143425
1409346348164,5.689222,-9.005191,0.4973954,5.8422837,-7.5357604,-2.2913837
1409346348164,5.4922986,-9.276335,0.374094,5.8069396,-7.6304617,-2.0557022
1409346348164,5.559336,-9.652225,0.12629414,5.749065,-7.728151,-1.8423651
1409346348184,5.8083334,-9.921572,-0.15801731,5.678906,-7.821055,-1.658775
1409346348184,6.0345855,-10.064626,-0.6374562,5.6094513,-7.8981104,-1.5245622
1409346348200,6.096236,-10.120291,-2.380435,5.5505385,-7.956616,-1.4332342
1409346348203,6.308123,-10.156802,-5.599439,5.4852414,-7.9880714,-1.5077269
1409346348217,7.6943655,-10.866084,-4.629189,5.4112587,-7.962988,-1.865338
1409346348234,8.769362,-12.390593,0.7026982,5.4009333,-7.9100714,-2.1050172
1409346348235,9.129689,-13.852253,11.845313,5.426112,-7.9378867,-1.9281226
1409346348251,8.647857,-14.490906,19.608511,5.461396,-8.096916,-0.8851412
1409346348251,8.063671,-13.812748,18.68016,5.3988223,-8.037198,-1.5577412
1409346348264,8.198345,-13.423092,6.5523314,5.31216,-7.927541,-2.2595282
1409346348313,7.9990277,-14.119804,-3.0352492,5.1414323,-8.085212,2.0893517
1409346348314,5.7766104,-15.009251,-0.6817489,5.0445867,-8.160539,2.0317867
1409346348314,5.109226,-13.438056,2.7335799,4.8328342,-8.265423,2.1205828
1409346348314,3.7014358,-14.267048,-0.23582886,4.742509,-8.310703,2.1473715
1409346348314,6.5469446,-16.050728,8.944139,4.628897,-8.465982,1.7523853
1409346348349,7.1784153,-15.723321,11.075577,4.5238266,-8.465641,2.0095525
1409346348350,6.1369376,-14.491505,8.178593,4.3870916,-8.428373,2.4261777
1409346348350,6.1608796,-12.682086,3.5458126,4.226365,-8.419173,2.7250202
1409346348350,4.5681367,-12.65994,-0.18136078,4.143736,-8.42561,2.8300061
1409346348370,3.912724,-12.706627,-0.85054016,4.026713,-8.519644,2.7150726
1409346348370,4.732738,-11.222222,-0.5554548,3.92064,-8.627403,2.5232687
1409346348382,5.3642087,-10.837354,-2.5288756,3.916904,-8.686205,2.3190737
1409346348398,5.6227827,-10.906786,-4.6591167,3.9692729,-8.745569,1.9824973
1409346348403,5.3941364,-10.305243,-4.3646297,4.033813,-8.810358,1.5087457
1409346348422,5.5844755,-10.424355,-4.5765166,4.071141,-8.850143,1.1274407
1409346348422,7.519589,-11.201273,-4.947618,4.1016665,-8.877126,0.73711896
1409346348429,10.964247,-12.551602,-4.907515,4.2123747,-8.849352,0.33953124
1409346348456,15.283985,-14.600441,-4.547786,4.45661,-8.735471,-0.023706162
1409346348456,19.3242,-15.923836,-4.0797195,4.8222947,-8.533444,-0.31011897
1409346348461,19.607914,-9.1668,-6.75524,4.5994077,-8.661167,0.0047328738
1409346348485,16.360178,-6.661866,-7.301118,4.378387,-8.769695,0.30423343
1409346348485,10.924743,-4.793192,-5.2301335,6.229757,-7.459849,-1.3081057
1409346348502,8.799889,-4.0426097,-3.8133647,6.507235,-7.159065,-1.604391
1409346348504,8.005612,-3.7469256,-2.6072857,6.737507,-6.912552,-1.7300334
1409346348509,7.8613615,-3.916914,-2.9753942,6.907822,-6.7484612,-1.7060668
1409346348535,7.195773,-3.447052,-4.313753,7.024,-6.6123176,-1.7638276
1409346348536,5.418677,-3.2208,-6.5607114,7.1155224,-6.458865,-1.9551854
1409346348541,3.515885,-3.5823243,-6.1985884,7.1195397,-6.328329,-2.3312638
1409346348549,3.256713,-3.430891,-4.4238863,7.0251384,-6.280919,-2.714387
1409346348572,3.8139634,-3.2381577,-0.8086416,6.9518213,-6.249131,-2.9649522
1409346348572,4.234744,-3.4195185,1.6196774,6.9741044,-6.2468266,-2.917092
1409346348581,4.132392,-4.0892963,0.8050503,7.0402203,-6.2942057,-2.6436095
1409346348605,4.059369,-4.4675803,-1.1857284,7.03849,-6.3701057,-2.460045
1409346348605,4.6040497,-3.9025488,-2.9161377,6.9822955,-6.4330688,-2.45633
1409346348609,4.833295,-3.2016463,-3.6936548,6.9645143,-6.4013233,-2.5863113
1409346348641,4.8398786,-2.2882583,-3.8067808,6.9795933,-6.2926407,-2.8032787
1409346348642,4.7949877,-1.5903485,-4.0976763,7.0367956,-6.1116996,-3.0497663
1409346348642,4.9883194,-0.80086046,-4.43466,7.1073246,-5.8667097,-3.3523207
1409346348650,5.2516813,0.44651863,-4.4663835,7.201214,-5.5419374,-3.687793
1409346348674,5.271434,1.5209166,-4.36044,7.3474474,-5.0946064,-4.028697
1409346348674,5.303157,2.131438,-4.1946416,7.5210843,-4.537373,-4.360728
1409346348684,5.3923407,2.2266076,-3.6595373,7.7040563,-3.9080765,-4.641639
1409346348709,5.039196,2.0213048,-2.9616275,7.889398,-3.2848544,-4.8101487
1409346348710,4.8045645,1.2695254,-2.0799627,8.044288,-2.744984,-4.8913083
1409346348710,4.833295,-0.6063316,-0.45130703,8.186454,-2.3357139,-4.867944
1409346348735,5.122993,-3.1878796,3.353678,8.353511,-2.2395933,-4.6231422
1409346348736,6.054936,-6.455965,7.611766,8.648785,-2.586598,-3.831243
1409346348743,6.5403605,-13.458406,15.157691,8.905453,-3.3980103,-2.3058279
1409346348750,4.8261123,-19.608511,17.140089,8.497773,-4.884682,0.31322426
1409346348777,10.24419,-19.608511,10.300454,8.525352,-4.844604,0.13638708
1409346348778,6.5666966,-19.608511,9.8276,8.532648,-4.833642,-0.015601474
1409346348781,5.6179943,-16.501436,6.605004,8.472351,-4.936734,-0.13539456
1409346348805,5.4737434,-9.467272,7.2550297,5.1197877,-7.7006187,3.2647564
1409346348805,4.7058034,-10.901399,10.800244,5.0030737,-7.6685205,3.5119023
1409346348810,6.91625,-9.610326,8.916606,4.7806406,-7.582659,3.9773302
1409346348845,8.929175,-8.458116,4.3436804,4.8264375,-7.3940473,4.266611
1409346348846,12.823344,-9.3260145,0.35673606,5.108125,-7.236673,4.2080894
1409346348847,15.929222,-11.258734,0.45968673,5.601654,-7.12167,3.7514896
1409346348850,13.548189,-9.296685,1.7465701,6.067308,-6.9908214,3.238301
1409346348868,9.455899,-8.611345,3.1052797,6.354428,-6.857425,2.9609752
1409346348869,9.106346,-6.9725137,-0.34237084,6.402773,-6.8342676,2.9099329
1409346348881,8.626907,-5.4647655,-6.2003837,6.527862,-6.8060193,2.689892
1409346348896,7.406463,-3.9234982,-7.2580223,6.761207,-6.7882457,2.0919363
1409346348925,6.6175733,-3.3740287,-7.702147,6.995112,-6.7178063,1.4525446
1409346348926,6.697779,-3.9426517,-4.747103,7.184216,-6.6334133,0.7451392
1409346348926,7.854179,-2.6485856,-3.2573113,7.3033347,-6.5390406,0.26957506
1409346348930,8.763975,-3.2782607,-2.2798786,7.5090404,-6.3069024,-0.0878513
1409346348958,9.123704,-4.127005,-1.9686323,7.692307,-6.0707264,-0.3809569
1409346348958,8.463503,-4.781221,-2.3834279,7.821027,-5.884486,-0.61217856
1409346348961,7.7201033,-4.948815,-2.6767175,7.889659,-5.7690797,-0.80088735
1409346348980,7.377134,-5.21517,-2.4468741,7.9263144,-5.693556,-0.96299106
1409346348983,7.3729444,-5.510854,-1.8435353,7.937,-5.6561675,-1.0872843
1409346348996,7.5447283,-5.831078,-1.3299791,7.9345074,-5.644123,-1.1652801
1409346349015,7.541735,-6.1746464,-0.9911995,7.9174285,-5.656475,-1.2202631
1409346349015,7.483676,-6.547543,-0.7679402,7.8990793,-5.681843,-1.2213193
1409346349028,7.337031,-7.183802,-0.62488663,7.86292,-5.7309613,-1.225151
1409346349030,7.1101804,-8.458116,-0.35553896,7.7982845,-5.824219,-1.1981846
1409346349045,7.1023993,-9.959281,0.20231004,7.6754785,-6.0000076,-1.1213048
1409346349051,7.047333,-10.988189,0.6368576,7.4981637,-6.2443166,-0.97796416
1409346349072,6.92044,-10.092757,0.30825347,7.2823606,-6.519439,-0.79658645
1409346349072,6.9719152,-8.781932,-0.40940848,7.116659,-6.713419,-0.6734762
1409346349081,5.7323174,-8.1959505,-0.5243302,7.013275,-6.827252,-0.6107453
1409346349092,5.243302,-8.115746,-0.8702923,6.887291,-6.959471,-0.5489836
1409346349110,4.8225207,-8.1756,-0.8834604,6.755535,-7.0890155,-0.5282079
1409346349111,4.2778397,-8.134899,-1.1701661,6.6155043,-7.219999,-0.5264549
1409346349128,3.857059,-8.602366,-1.7914615,6.457874,-7.358752,-0.56128305
1409346349130,3.8498764,-8.8364,-2.6779146,6.25965,-7.520133,-0.659367
1409346349143,4.754286,-8.319252,-4.0336313,6.0506897,-7.6714582,-0.84157825
1409346349150,5.835268,-7.633912,-6.408081,5.927794,-7.7305994,-1.1267302
1409346349173,6.077681,-7.3244615,-9.028535,5.877822,-7.677994,-1.63401
1409346349173,5.2385135,-7.7189064,-3.6218286,5.83363,-7.535294,-2.3148394
1409346349181,5.3049526,-7.7051396,-1.6118963,5.792438,-7.5193377,-2.465286
1409346349202,5.9262476,-7.791331,-0.95229375,5.765873,-7.5338054,-2.4833279
1409346349202,6.4685345,-8.000824,-0.374094,5.751745,-7.550915,-2.464052
1409346349210,6.3272767,-8.313267,0.090979666,5.7761807,-7.567377,-2.353927
1409346349241,5.9531827,-8.6299,0.4381389,5.799811,-7.602709,-2.1751785
1409346349242,5.8041434,-9.084799,0.49200845,5.7959104,-7.6637,-1.961002
1409346349242,5.807136,-9.41041,0.33877954,5.759832,-7.7389812,-1.7614976
1409346349277,5.8508306,-9.582792,0.08080431,5.708347,-7.815966,-1.5798037
1409346349278,5.9005103,-9.697116,-0.2112883,5.6531262,-7.885783,-1.4237194
1409346349278,5.8424506,-9.903017,-1.3664906,5.5995374,-7.944751,-1.3024995
1409346349304,5.823297,-10.268132,-4.8135424,5.53176,-7.9926367,-1.2991408
1409346349306,6.979098,-10.997167,-5.0601454,5.429295,-8.004231,-1.6203116
1409346349306,8.470686,-12.2319765,-0.5590461,5.374362,-7.9761143,-1.915262
1409346349310,8.849568,-13.333309,6.8641763,5.386314,-7.9851665,-1.8425895
1409346349329,8.485649,-12.951434,17.860146,5.407321,-8.086799,-1.2389412
1409346349330,7.9062524,-12.297817,19.435532,5.3450174,-8.002883,-1.8854744
1409346349345,7.617751,-11.893796,11.366472,5.275528,-7.8789296,-2.50234
1409346349371,7.805696,-12.722788,0.8984242,5.1806164,-7.9683404,2.416019
1409346349372,7.1071877,-14.11322,-1.4030021,5.078835,-7.986544,2.5672812
1409346349372,3.7912183,-12.71381,-3.335123,4.9949465,-8.10027,2.3678002
1409346349382,4.3957543,-13.422493,-2.0883424,4.89283,-8.274936,1.9380465
1409346349401,7.041946,-14.78659,6.10282,4.7856913,-8.410993,1.5883119
1409346349403,8.104971,-14.500483,6.9467764,4.7346997,-8.41649,1.7075427
1409346349410,5.973533,-13.778631,5.5030727,4.6924634,-8.40037,1.8934062
1409346349434,5.6221843,-12.629414,4.222773,4.5495024,-8.437252,2.0700684
1409346349435,6.3566055,-11.584944,2.6402059,4.4403048,-8.453376,2.2348464
1409346349442,6.7887588,-11.066599,1.8668787,4.4069576,-8.449659,2.3135188
1409346349474,7.0132155,-10.147824,-0.0053869537,4.4357176,-8.436929,2.3050034
1409346349475,6.9222355,-9.622296,-2.4510639,4.5191364,-8.423778,2.1880996
1409346349475,5.743091,-8.895657,-3.9079356,4.628878,-8.436591,1.888862
1409346349483,5.2480903,-8.315661,-4.1575313,4.6968565,-8.479863,1.4838699
1409346349505,6.3392477,-9.419388,-4.098873,4.751327,-8.510515,1.0800091
1409346349505,8.515577,-10.469246,-4.5112743,4.817462,-8.513971,0.68901134
1409346349510,11.541848,-11.616667,-4.0839095,4.9472947,-8.461984,0.29918024
1409346349541,15.492281,-13.166912,-3.5984852,5.1681557,-8.334295,-0.008235914
1409346349541,19.147629,-13.7445135,-3.8013937,5.4978905,-8.117254,-0.23195553
1409346349542,19.607914,-12.367249,-4.18686,5.3004546,-8.250574,0.059667703
1409346349573,19.607914,-9.147646,-5.103241,5.096299,-8.372213,0.3227321
1409346349573,15.692795,-7.3178773,-6.2327056,4.9130607,-8.469957,0.540394
1409346349574,9.966463,-6.5026517,-5.187038,6.9442554,-6.813973,-1.2318629
1409346349604,8.093,-5.8238955,-4.06296,7.0699487,-6.640923,-1.4437335
1409346349605,6.655282,-5.774216,-3.900753,7.148829,-6.539061,-1.5183254
1409346349605,6.469133,-5.913678,-4.348469,7.1512823,-6.5120897,-1.6193343
1409346349611,7.0587053,-5.4563856,-5.088876,7.116177,-6.502144,-1.8034786
1409346349633,7.0730705,-4.0276456,-6.218939,7.111847,-6.4418793,-2.0234208
1409346349633,5.5288105,-3.5284548,-6.4302273,7.140608,-6.3052077,-2.3294764
1409346349644,4.4544125,-3.4039562,-5.3103395,7.116055,-6.185021,-2.6977136
1409346349676,4.7602715,-3.2668881,-1.2210429,7.0726776,-6.0890965,-3.011731
1409346349676,5.115212,-3.2812533,1.9806033,7.1298285,-6.0448327,-2.9657946
1409346349677,5.66947,-2.707842,1.5197195,7.237595,-6.0638695,-2.6489866
1409346349710,5.792771,-2.0123265,-0.58418524,7.355008,-6.010515,-2.4388404
1409346349711,5.424064,-1.6843209,-1.8267759,7.48586,-5.878526,-2.3611915
1409346349711,4.936844,-1.6160861,-2.4199393,7.5933437,-5.713467,-2.4223568
1409346349711,4.859032,-1.5179238,-3.1040826,7.68098,-5.543801,-2.537554
1409346349733,4.7147818,-1.0965444,-3.6631286,7.746006,-5.3549795,-2.7375114
1409346349734,4.519056,-0.21308395,-4.209007,7.7966504,-5.1297197,-3.011413
1409346349743,4.268263,0.5770026,-4.103063,7.852311,-4.8205104,-3.3577263
1409346349778,4.490924,1.3275849,-3.7714663,7.9184794,-4.452156,-3.694099
1409346349779,4.460996,1.7543513,-3.876811,8.023465,-3.9861524,-3.9881105
1409346349780,4.296395,1.6843209,-3.7912183,8.110362,-3.4700649,-4.28382
1409346349820,4.4286747,1.1145009,-3.0831332,8.160996,-2.9746878,-4.5519
1409346349820,4.1216183,0.011372458,-1.8070238,8.218233,-2.572759,-4.691695
1409346349821,4.336498,-1.714847,0.55844754,8.29109,-2.3744838,-4.667982
1409346349822,4.8602295,-4.395156,4.9224787,8.447827,-2.4754453,-4.321662
1409346349825,2.0745757,-19.252974,19.273323,8.731018,-3.033714,-3.2766328
1409346349833,8.525752,-19.608511,15.168465,8.688795,-2.9517868,-3.4586406
1409346349858,10.892421,-19.608511,10.834361,8.63868,-2.8715158,-3.646645
1409346349859,4.6405616,-18.81603,9.414599,8.556556,-2.8628147,-3.8418813
1409346349863,4.5016975,-8.955511,8.738237,5.3377533,-7.6728015,2.9676414
1409346349890,5.194819,-5.7855883,7.104195,4.990724,-7.6944127,3.4726207
1409346349891,5.382764,-8.243237,7.7051396,4.9877353,-7.519104,3.8413498
1409346349891,7.4256167,-7.2807674,3.3734303,4.9665456,-7.377912,4.1316137
1409346349917,10.222044,-7.9487495,0.48722005,5.193104,-7.2697515,4.043858
1409346349917,15.42225,-11.774085,-0.3429694,5.6426225,-7.112434,3.707357
1409346349922,14.946403,-11.166556,-1.021127,6.1673203,-6.972209,3.0859108
1409346349931,10.404003,-9.609129,-0.6584055,6.535378,-6.865307,2.5153143
1409346349958,9.722853,-7.187992,-1.7316064,6.630529,-6.8812504,2.2033792
1409346349959,9.355942,-5.719748,-4.1461587,6.753161,-6.8397493,1.945003
1409346349962,8.389881,-3.6014779,-4.833295,6.940897,-6.7618885,1.507047
1409346349990,8.108562,-3.0813377,-5.6497173,7.183957,-6.6000295,1.0003859
1409346349991,7.762002,-3.229778,-5.631761,7.4099407,-6.4092293,0.4300462
1409346349991,7.9475527,-2.6509798,-4.729147,7.5773606,-6.2241793,-0.11662731
1409346350019,8.379107,-2.4893713,-3.645172,7.740557,-5.9958925,-0.5508499
1409346350020,8.774749,-3.1705215,-3.0346506,7.9037814,-5.7423115,-0.85235685
1409346350022,9.087791,-4.136582,-2.9520507,8.030784,-5.5237103,-1.079595
1409346350046,8.92319,-4.7524905,-3.2585084,8.116325,-5.357999,-1.2599645
1409346350046,8.485051,-5.0014873,-3.3446999,8.164487,-5.2409506,-1.4296705
1409346350066,8.2593975,-5.0900726,-2.7635074,8.175422,-5.1769996,-1.5910844
1409346350067,8.216302,-5.204396,-1.780089,8.183056,-5.129644,-1.7013912
1409346350071,7.926005,-5.5282116,-1.2629414,8.18928,-5.108317,-1.7352772
1409346350100,7.5148005,-5.808932,-1.0600328,8.175163,-5.1244674,-1.7541245
1409346350101,7.354389,-6.0920463,-1.0845734,8.144018,-5.1714244,-1.7611674
1409346350102,7.5920134,-6.7719994,-1.1994951,8.101423,-5.2428927,-1.7462598
1409346350111,7.7548194,-8.082825,-1.1174936,8.039385,-5.347179,-1.7165
1409346350140,7.548918,-9.751583,-0.362123,7.931547,-5.5230026,-1.6605378
1409346350140,7.2604165,-10.996569,0.96187055,7.7590394,-5.7993836,-1.5280144
1409346350142,6.945579,-10.722432,1.6376339,7.544159,-6.134434,-1.2746699
1409346350170,7.1748238,-8.626308,0.12629414,7.332668,-6.4368324,-0.98465693
1409346350171,5.798158,-7.723695,-1.6364368,7.219547,-6.583174,-0.842842
1409346350171,5.728726,-7.000047,-2.5139117,7.096361,-6.7152734,-0.846853
1409346350194,5.197213,-7.53156,-2.8712463,7.0236135,-6.7794023,-0.937538
1409346350194,3.8744168,-8.454525,-3.2291796,6.911664,-6.872179,-1.0828122
1409346350208,3.5655649,-8.654441,-3.4075475,6.6944456,-7.0550985,-1.2571248
1409346350211,4.335301,-8.406042,-3.6050692,6.4471807,-7.247293,-1.4425662
1409346350230,5.1756654,-7.948151,-3.9103298,6.2513227,-7.374776,-1.644401
1409346350252,5.1798553,-7.726089,-4.184466,6.1309752,-7.4264917,-1.8516941
1409346350253,5.207389,-7.502231,-4.1419687,6.0356674,-7.446243,-2.0723429
1409346350253,5.434838,-7.2885485,-3.5152867,5.96259,-7.439838,-2.2949371
1409346350262,5.775413,-7.4884644,-2.3301568,5.9170594,-7.421288,-2.4664376
1409346350278,6.173449,-8.071452,-0.7368156,5.896597,-7.4178505,-2.525089
1409346350295,6.338649,-9.063849,-0.060453594,5.895332,-7.454662,-2.4173324
1409346350295,6.265626,-9.535507,0.23822308,5.879644,-7.526147,-2.2265048
1409346350310,6.1477113,-9.950302,0.23642741,5.833051,-7.614025,-2.0426867
1409346350311,5.9280434,-10.293272,0.22385786,5.7694187,-7.707039,-1.8670167
1409346350325,5.816713,-10.38066,0.14604631,5.685624,-7.807918,-1.6971909
1409346350343,5.8783636,-10.148422,-0.18375498,5.5974965,-7.902703,-1.5445775
1409346350343,5.8280854,-9.871294,-1.4957775,5.5256453,-7.973975,-1.4329507
1409346350358,5.8280854,-9.625289,-3.7295678,5.4568367,-8.020167,-1.4388229
1409346350377,6.6684504,-10.370484,-2.7473464,5.3945746,-8.022311,-1.6466502
1409346350377,8.391078,-11.591528,2.6360161,5.3615904,-8.021601,-1.7543162
1409346350393,8.527548,-12.645575,11.359888,5.4257507,-8.047415,-1.4038374
1409346350393,7.8583684,-12.694656,16.957533,5.4534783,-8.138464,-0.4419982
1409346350411,7.399879,-12.369044,14.201806,5.4106317,-8.1101885,-1.0584394
1409346350411,7.9511437,-12.753314,5.6245785,5.2405615,-8.104049,1.7410535
1409346350439,7.656657,-14.118009,-0.6997054,5.144818,-8.079463,2.1032124
1409346350440,5.717354,-15.669452,3.976769,5.030623,-8.169381,2.03087
1409346350442,4.938041,-15.198392,10.075399,4.7712803,-8.262029,2.2680686
1409346350459,3.25791,-13.414114,-0.0688333,4.470974,-8.266445,2.8011904
1409346350463,3.3225534,-13.8325,-0.46986207,4.385228,-8.413464,2.4806838
1409346350476,6.9318123,-14.07192,8.294113,4.2720313,-8.563231,2.1427078
1409346350493,6.4739213,-13.945027,6.892308,4.212716,-8.513686,2.4373293
1409346350493,4.6776714,-13.139379,4.490924,4.1097307,-8.508179,2.6251485
1409346350506,5.2606597,-13.161526,0.4830302,3.9776278,-8.536587,2.7341514
1409346350512,5.205593,-12.709022,-2.1015105,3.916369,-8.608014,2.5951016
1409346350526,5.623381,-10.901998,-0.7314286,3.8902283,-8.696546,2.3252072
1409346350543,6.1243677,-9.9928,-1.2300211,3.921519,-8.725622,2.1576838
1409346350544,6.377555,-10.065823,-3.1364043,4.021203,-8.735481,1.9213811
1409346350559,6.133945,-9.71986,-4.5046906,4.1425757,-8.752007,1.553018
1409346350577,6.591237,-10.318411,-4.2598834,4.239039,-8.7713585,1.1243635
1409346350577,8.004415,-11.657967,-3.7487214,4.3147182,-8.774757,0.7464596
1409346350595,11.055825,-13.145365,-3.733159,4.4275546,-8.740251,0.4185206
1409346350596,15.585056,-15.172655,-3.1974564,4.642314,-8.637228,0.13276626
1409346350612,19.350536,-15.794549,-1.8351556,4.9867873,-8.443738,-0.07513795
1409346350612,19.607914,-14.318523,-1.8914193,4.7643704,-8.568139,0.24116789
1409346350624,19.607914,-11.2210245,-3.1190462,4.5401144,-8.676284,0.52896047
1409346350641,19.466656,-7.6650367,-6.0567317,4.334072,-8.763098,0.770916
1409346350643,14.645331,-6.2650275,-7.319673,6.6601315,-7.1571736,-0.7667542
1409346350658,10.702681,-3.8863878,-6.4248405,6.9498367,-6.827194,-1.1222955
1409346350675,8.474277,-2.7419596,-6.160281,7.153304,-6.5730166,-1.3401766
1409346350675,5.8933277,-3.453636,-4.6255975,7.298975,-6.3466,-1.6174089
1409346350693,6.1740475,-3.8774097,-4.460996,7.3341007,-6.2585464,-1.7922008
1409346350694,6.157288,-3.517681,-6.2087636,7.3433003,-6.1811614,-2.0098727
1409346350708,5.3408656,-3.0484173,-6.678027,7.3247557,-6.0760503,-2.3664286
1409346350711,3.6499605,-3.7630866,-5.872977,7.2898803,-5.9564624,-2.7474651
1409346350725,2.9299042,-4.69084,1.8189948,7.1846437,-5.919913,-3.083169
1409346350748,4.063559,-4.188656,1.5472529,7.1451144,-6.0913606,-2.8307343
1409346350749,4.123414,-3.8474822,-0.60693014,7.161829,-6.1871843,-2.5685353
1409346350752,3.930082,-3.8738184,-2.1021092,7.1345644,-6.233272,-2.5327258
1409346350775,3.98874,-3.6457705,-2.9652188,7.0835443,-6.2631116,-2.6013885
1409346350775,4.561553,-2.878429,-3.6589386,7.0479717,-6.254518,-2.716157
1409346350794,4.695628,-1.8321629,-4.045004,7.0590944,-6.1457744,-2.9272974
1409346350795,4.3879733,-0.85532856,-4.0653543,7.107509,-5.944023,-3.212837
1409346350814,4.26946,0.34715924,-4.1413703,7.180306,-5.676968,-3.519327
1409346350815,4.292804,1.2964603,-4.080917,7.2846622,-5.3152914,-3.8537972
1409346350823,4.55856,1.8686744,-3.9713821,7.424466,-4.846703,-4.190127
1409346350851,4.6513352,1.875857,-3.5883098,7.576113,-4.2974496,-4.5060854
1409346350852,4.5543704,1.6639702,-2.9101522,7.729831,-3.7461762,-4.731416
1409346350852,4.410718,1.2749124,-2.4235306,7.880924,-3.241201,-4.853457
1409346350874,4.1395745,0.65301853,-1.6915035,8.0132675,-2.8087995,-4.905971
1409346350875,3.9402575,-0.7823054,0.10594343,8.135721,-2.4997067,-4.871545
1409346350891,4.301782,-3.228581,3.7912183,8.301553,-2.4693584,-4.5996614
1409346350892,5.9304376,-6.4589577,5.4761376,8.605648,-2.8645341,-3.7293012
1409346350916,6.6923923,-14.221559,13.141773,8.764563,-3.6503344,-2.4551766
1409346350917,7.131728,-19.608511,17.68477,8.310109,-5.20695,-0.012803367
1409346350923,12.537836,-19.608511,11.86327,8.35396,-5.132189,-0.2058651
1409346350945,7.865551,-19.608511,9.67856,8.354958,-5.118447,-0.40816697
1409346350946,5.645528,-16.86296,8.270171,8.274476,-5.231314,-0.5803437
1409346350951,5.395334,-10.479421,9.187749,5.2074823,-7.630105,3.2915041
1409346350978,5.1726727,-9.354745,9.473258,4.9833035,-7.617054,3.6493251
1409346350978,7.5932107,-8.19236,8.974665,4.8375907,-7.53055,4.0073586
1409346350995,8.468291,-5.419874,3.0753522,4.9348664,-7.2950244,4.3127837
1409346350996,8.594585,-4.099472,0.43514615,5.2877793,-7.0755706,4.2598224
1409346351003,9.858724,-5.990891,-1.8632874,5.728308,-6.880397,4.0021267
1409346351032,11.250354,-6.6840124,-5.381567,6.1708484,-6.793587,3.4551694
1409346351033,10.38066,-5.9980736,-6.3218894,6.6024337,-6.7486796,2.652094
1409346351034,8.995016,-6.5762734,-5.0996494,6.893192,-6.6949396,1.9575711
1409346351043,9.812635,-8.98903,-3.1064768,7.0456448,-6.6753583,1.4031752
1409346351068,11.92911,-9.309854,-3.365649,7.0880127,-6.696303,1.0440292
1409346351068,12.245743,-7.65965,-3.365649,7.204468,-6.6264853,0.5964339
1409346351072,11.098322,-6.6965823,-2.8736405,7.364244,-6.473488,0.17959903
1409346351094,10.026319,-5.2115784,-2.2667105,7.481782,-6.3386736,-0.12061025
1409346351095,9.113529,-4.382586,-1.9500773,7.6069245,-6.1808434,-0.31976503
1409346351103,8.836999,-4.224569,-1.6723499,7.729534,-6.0170054,-0.4694126
1409346351127,8.239645,-4.022857,-1.7717092,7.8395853,-5.863913,-0.5708248
1409346351128,6.9946604,-4.0360255,-1.780089,7.935323,-5.723191,-0.6679232
1409346351143,5.9729347,-4.1264067,-1.6968905,7.988033,-5.638851,-0.75171095
1409346351161,5.8885393,-4.3317094,-1.4107834,8.003036,-5.6060724,-0.8329501
1409346351162,6.3787518,-4.724957,-1.1348516,8.001596,-5.596977,-0.90484226
1409346351163,6.609194,-5.337274,-1.2665327,7.994396,-5.5976434,-0.96250415
1409346351172,6.613384,-5.7664347,-1.1785458,7.967805,-5.623966,-1.0273709
1409346351192,6.5786676,-6.8438253,-0.97982705,7.9276695,-5.672171,-1.071884
1409346351193,6.6325374,-8.1163435,-0.6943185,7.8378577,-5.795398,-1.0731857
1409346351208,6.510433,-9.35235,0.076015905,7.7071424,-5.9732037,-1.0445985
1409346351226,7.451354,-9.205706,-0.47046062,7.5294976,-6.212577,-0.93860245
1409346351226,8.215105,-8.760384,-0.8948329,7.401753,-6.3712234,-0.8899182
1409346351248,8.041525,-8.162432,-0.9684546,7.3239,-6.4628043,-0.8735043
1409346351248,7.463325,-8.259995,-0.6865373,7.2629714,-6.5346575,-0.84728146
1409346351252,6.367978,-7.848193,-1.1617863,7.1862936,-6.626513,-0.7854507
1409346351276,4.489128,-7.5052238,-3.3357215,7.094757,-6.722587,-0.80102646
1409346351276,2.932897,-8.46051,-5.601235,6.927776,-6.8671374,-1.0093355
1409346351301,3.1783028,-9.074024,-6.2763996,6.621991,-7.089476,-1.434906
1409346351301,3.8552632,-9.081207,-6.797737,6.2956343,-7.2791033,-1.8841614
1409346351303,4.362834,-8.683769,-8.588001,6.014487,-7.3916645,-2.3150885
1409346351323,4.7165775,-8.333019,-4.8500543,5.7824793,-7.392309,-2.8437862
1409346351325,5.2026005,-8.450335,-2.9311013,5.668564,-7.4134088,-3.013162
1409346351339,4.8261123,-8.696339,-2.3181858,5.601632,-7.458783,-3.0263305
1409346351343,4.3317094,-8.55987,-1.6801311,5.485196,-7.532909,-3.0558617
1409346351361,4.6459484,-8.160038,-1.0755951,5.37663,-7.6325383,-3.0010984
1409346351363,5.3085437,-8.191761,-0.7248446,5.313092,-7.714504,-2.9030795
1409346351372,5.8741736,-8.484452,-0.52253455,5.3064566,-7.7741394,-2.7522156
1409346351397,6.375759,-8.953716,-0.58657944,5.331417,-7.8156366,-2.5811288
1409346351398,6.7929487,-9.485229,-0.7086837,5.3733983,-7.838987,-2.418111
1409346351403,7.1191587,-9.8198185,-0.7769185,5.4163003,-7.854151,-2.2685697
1409346351422,7.2819643,-9.716867,-0.8583213,5.46143,-7.8635454,-2.123169
1409346351423,7.15986,-9.467871,-1.0995371,5.507852,-7.860698,-2.0108213
1409346351440,7.117363,-9.381081,-2.5157075,5.5449057,-7.8533173,-1.9364415
1409346351456,7.6051817,-9.625289,-2.819771,5.5652213,-7.8232284,-1.9989468
1409346351456,8.79929,-10.395624,3.1723173,5.6033826,-7.7741694,-2.0820215
1409346351476,9.375694,-11.840525,15.185225,5.727253,-7.7853045,-1.6607261
1409346351476,8.501212,-12.527061,19.433136,5.8281465,-7.8799934,-0.3298995
1409346351489,7.623737,-11.947066,14.159907,5.8084865,-7.8475037,-0.92116153
1409346351492,7.7626004,-11.492168,5.2840033,5.544005,-7.8160253,2.0842605
1409346351507,7.6249337,-12.221801,-2.1003134,5.461966,-7.794403,2.3631735
1409346351526,6.2584434,-14.068329,-1.3215994,5.387067,-7.8568487,2.3280535
1409346351526,5.425261,-14.7159605,1.8656816,5.23934,-7.9753213,2.261409
1409346351543,3.4153287,-14.261661,-2.19249,5.0990653,-8.087597,2.1818998
1409346351556,3.3010056,-14.587871,-5.4102974,4.9396152,-8.30833,1.655974
1409346351556,5.1636944,-15.248072,2.348712,4.694373,-8.557442,0.9504824
1409346351575,6.395511,-15.338453,5.168483,4.4988747,-8.657343,0.9904164
1409346351576,6.043564,-14.362816,9.624691,4.361348,-8.701227,1.199026
1409346351591,6.7426705,-13.162124,8.659827,4.2344785,-8.667693,1.7637123
1409346351592,7.04434,-11.71842,5.8065376,4.1849613,-8.58927,2.2092865
1409346351606,7.253833,-11.086949,3.6912606,4.1846495,-8.522634,2.4543502
1409346351624,7.6165543,-10.451887,0.83138657,4.2155104,-8.47037,2.579283
1409346351625,7.795521,-10.107122,-1.5077485,4.320272,-8.439251,2.506932
1409346351642,7.4058642,-10.05864,-3.3740287,4.468463,-8.4320135,2.2592838
1409346351653,6.70975,-9.816826,-3.38181,4.6134176,-8.452607,1.8547783
1409346351654,8.013393,-10.494385,-4.301183,4.7002373,-8.4755335,1.4978327
1409346351674,10.70687,-11.318588,-4.957195,4.836031,-8.466944,1.0459803
1409346351675,15.026608,-12.741343,-4.7123876,5.0527687,-8.3842125,0.58726007
1409346351692,19.339764,-13.919291,-3.311181,5.382024,-8.194763,0.22376959
1409346351692,19.607914,-12.820352,-3.098097,5.162237,-8.319831,0.54964083
1409346351708,19.607914,-9.440936,-4.2796354,4.9334693,-8.431859,0.8573373
1409346351725,16.494253,-7.6165543,-4.9907136,4.7134757,-8.524363,1.1352522
1409346351725,10.918159,-5.849633,-3.8983588,6.867065,-6.962592,-0.7321984
1409346351740,9.041702,-4.8823757,-3.5565867,7.054218,-6.741593,-0.9794676
1409346351757,7.8715367,-4.771644,-3.4464533,7.2045803,-6.560616,-1.1057757
1409346351758,8.208521,-4.4759603,-3.7457285,7.2857113,-6.462035,-1.1536475
1409346351772,7.6704235,-4.0880995,-7.088034,7.3636594,-6.3541307,-1.2537831
1409346351774,5.747281,-4.1395745,-9.19972,7.4045877,-6.2184296,-1.6351258
1409346351790,3.9187095,-4.582502,-8.844181,7.3390746,-6.1140246,-2.2196996
1409346351792,3.1681273,-4.706402,-5.0421886,7.180162,-6.078079,-2.7699564
1409346351806,3.2321723,-4.3167458,1.2617443,7.049492,-6.1057973,-3.0322084
1409346351820,4.080917,-3.7481227,2.6222494,7.039663,-6.2156773,-2.8246903
1409346351824,4.8895583,-3.144784,0.8331822,7.0926957,-6.298794,-2.4878192
1409346351840,4.1641154,-3.098097,-0.9600749,7.1571946,-6.2887454,-2.3230665
1409346351855,3.9953241,-2.8694508,-2.4259248,7.1740947,-6.276236,-2.304694
1409346351855,4.1419687,-2.144606,-3.1435869,7.183213,-6.2255,-2.4114351
1409346351871,4.2676644,-0.9498995,-3.6822822,7.215041,-6.1045747,-2.6168191
1409346351872,3.99293,0.060453594,-4.4897265,7.2931347,-5.8758683,-2.9077113
1409346351886,3.7163997,0.81881696,-4.4795513,7.369273,-5.5467873,-3.3312664
1409346351906,3.4278982,1.252766,-4.1802764,7.4521246,-5.1427164,-3.7667902
1409346351906,3.9444473,1.489792,-4.100669,7.5292554,-4.697767,-4.1727357
1409346351926,4.5675383,1.4383167,-4.3742065,7.622072,-4.1847587,-4.5345597
1409346351926,4.702811,1.371279,-4.7081976,7.70833,-3.6408558,-4.8472905
1409346351932,4.220379,1.2018893,-4.7309427,7.75071,-3.1063383,-5.142716
1409346351961,3.8815994,0.83856916,-3.7882257,7.724982,-2.647861,-5.429907
1409346351962,3.9630024,-0.2825158,-1.5705963,7.7166805,-2.281223,-5.6052876
1409346351964,4.4155064,-2.891597,2.4157495,7.8222656,-2.147221,-5.5110774
1409346351972,4.560954,-7.6081743,7.8386164,8.140944,-2.5022545,-4.861496
1409346352010,2.4875755,-17.368736,16.194979,8.48398,-3.6879892,-3.2544074
1409346352010,6.5487404,-19.608511,18.476055,8.433407,-3.5995064,-3.477296
1409346352011,15.4880905,-19.608511,11.891401,8.358584,-3.5571065,-3.69479
1409346352013,8.383896,-19.330187,8.968679,8.280818,-3.57677,-3.8477488
1409346352024,6.037578,-9.41879,9.537302,8.183518,-3.7264934,-3.9132679
1409346352043,4.987122,-5.1463366,9.812635,5.199422,-7.475514,3.6404836
1409346352056,5.599439,-6.6121864,8.857349,5.1789308,-7.2161627,4.1564484
1409346352057,7.2969284,-6.956353,3.0621839,5.214117,-6.9682074,4.5196733
1409346352069,11.872248,-9.379285,-1.7561469,5.478222,-6.826478,4.4225183
1409346352073,18.37849,-13.596671,-1.3491327,5.9778495,-6.8088417,3.7517185
1409346352088,15.290569,-12.645575,0.81402856,6.083882,-6.7284923,3.7261453
1409346352104,9.882068,-6.005855,-4.3879733,6.673989,-6.70951,2.5711381
1409346352106,9.172187,-4.6321816,-7.2179193,6.884876,-6.678636,2.0407617
1409346352121,7.6506715,-2.854487,-6.5128274,7.1006184,-6.618642,1.3947031
1409346352124,6.627749,-2.7575219,-6.43322,7.316235,-6.4730062,0.86214644
1409346352142,6.3087215,-1.5735891,-4.8159366,7.486872,-6.3263564,0.30715224
1409346352144,7.4375877,-0.19871874,-3.6170402,7.662917,-6.1169896,-0.18041444
1409346352152,7.9996266,-0.2112883,-2.915539,7.9154086,-5.760759,-0.5747832
1409346352174,8.7053175,-1.2677298,-2.6461914,8.153324,-5.3796425,-0.867821
1409346352174,9.691729,-2.4833858,-2.8886044,8.336518,-5.046722,-1.0970312
1409346352190,9.947908,-3.4685998,-3.4165258,8.469469,-4.776931,-1.2725463
1409346352205,9.782708,-4.2131963,-3.6900635,8.556417,-4.577788,-1.4149101
1409346352206,9.592968,-4.8979383,-3.2746694,8.598044,-4.452755,-1.5546727
1409346352221,9.31524,-5.5282116,-2.6485856,8.606055,-4.398846,-1.6602298
1409346352237,8.850166,-6.253655,-2.1667526,8.584983,-4.408299,-1.7422208
1409346352238,8.226477,-6.9371996,-1.7435774,8.528209,-4.4844637,-1.8247312
1409346352254,7.9463553,-7.5070195,-1.4879963,8.42679,-4.6466374,-1.8890082
1409346352255,8.213907,-8.525752,-1.4335283,8.322984,-4.831509,-1.8854303
1409346352273,8.545505,-10.229227,-1.0737995,8.181424,-5.064582,-1.8933237
1409346352274,8.382699,-12.203246,0.038307227,7.996628,-5.372011,-1.8346179
1409346352295,8.072051,-12.483368,1.7262194,7.755901,-5.767343,-1.6595588
1409346352295,7.6949644,-10.25676,2.4516625,7.523121,-6.14414,-1.3500346
1409346352304,7.243657,-8.184579,0.88645315,7.37291,-6.388309,-1.0000439
1409346352319,5.3504424,-8.08462,-0.7158663,7.290825,-6.5072403,-0.8186089
1409346352324,3.9336734,-7.7787614,-1.7298107,7.1524615,-6.6704545,-0.7195476
1409346352339,3.719991,-7.551911,-2.327164,6.9746356,-6.8542457,-0.7376497
1409346352353,3.6870706,-8.025364,-2.1619642,6.802081,-7.0158963,-0.8241782
1409346352353,3.8612487,-8.82802,-2.2122424,6.6096826,-7.186434,-0.9152327
1409346352370,4.233547,-9.126697,-2.6144683,6.4011784,-7.3631625,-0.9895026
1409346352373,4.679467,-8.727464,-3.433884,6.205899,-7.514092,-1.0934505
1409346352385,5.306748,-7.943961,-4.38917,6.048959,-7.6111407,-1.28492
1409346352403,5.6802435,-7.235876,-5.009867,5.9673433,-7.622042,-1.5702404
1409346352406,6.2500634,-6.997653,-5.6844335,5.926868,-7.5754128,-1.9120073
1409346352417,6.1411276,-7.7811556,-3.7954082,5.921362,-7.4663086,-2.3156204
1409346352424,5.7682304,-8.662222,-1.5957354,5.8963203,-7.421331,-2.5154748
1409346352436,6.0699,-9.185355,-0.59735334,5.837845,-7.4700475,-2.507665
1409346352455,6.184223,-9.315839,0.3226187,5.7784286,-7.5463276,-2.4151762
1409346352455,5.8400564,-9.331401,1.1216835,5.7365475,-7.6339064,-2.2329123
1409346352468,5.41329,-9.55885,1.2898762,5.7009845,-7.7332783,-1.9660996
1409346352473,5.157709,-9.785701,0.85652566,5.639695,-7.841011,-1.6978766
1409346352486,5.0679264,-9.632472,-0.10414778,5.5516734,-7.947343,-1.4795476
1409346352501,4.9763484,-9.117719,-2.3229742,5.4564195,-8.033604,-1.363488
1409346352504,5.273828,-8.796297,-3.7816415,5.3637786,-8.078213,-1.4638152
1409346352519,6.081272,-9.994595,-1.6484078,5.2985377,-8.073165,-1.7087685
1409346352534,7.457938,-11.622053,2.5701754,5.255268,-8.0866375,-1.7773107
1409346352534,8.041525,-12.398374,8.938752,5.26267,-8.136836,-1.5055296
1409346352553,7.505822,-11.6029,13.043013,5.304359,-8.22126,-0.66709584
1409346352554,7.441179,-10.770316,5.8023477,5.2959466,-8.243371,0.4125421
1409346352570,7.5375457,-11.928512,-1.2557588,5.292576,-8.209667,0.87201154
1409346352573,7.0425444,-13.490728,-0.8619126,5.2719784,-8.224033,0.86134285
1409346352587,6.727108,-14.280216,4.522647,5.1656475,-8.278593,0.9753756
1409346352600,4.1653123,-14.003686,4.288614,5.0052586,-8.318771,1.3841326
1409346352604,3.0867245,-13.797186,-4.2658687,4.7888293,-8.421363,1.5225554
1409346352619,5.8382607,-13.544598,2.6318262,4.606679,-8.606692,0.93475133
1409346352635,7.993641,-13.38658,6.0303955,4.534181,-8.64065,0.97506875
1409346352635,7.459734,-13.052589,4.848857,4.5378633,-8.595775,1.3003285
1409346352655,6.7983356,-13.07294,3.9815574,4.5109015,-8.57653,1.5050874
1409346352655,6.8905125,-12.29243,3.8935704,4.4762297,-8.566982,1.6554654
1409346352669,7.00723,-11.477803,0.9756372,4.465377,-8.537403,1.8285395
1409346352690,6.3589997,-10.740988,0.99179804,4.494219,-8.525598,1.8128914
1409346352691,6.0363812,-10.338163,0.59615624,4.5142336,-8.51514,1.8123137
1409346352708,5.9118824,-10.364499,-2.373851,4.540795,-8.515208,1.7443578
1409346352709,5.7658362,-10.001778,-3.6433764,4.5689473,-8.5525465,1.4659579
1409346352713,5.397129,-9.11712,-3.7469256,4.593807,-8.59456,1.0958514
1409346352739,5.9382186,-9.452309,-4.1772833,4.6139846,-8.6211195,0.7468644
1409346352739,8.2115135,-10.205285,-4.1982327,4.646526,-8.62732,0.38666853
1409346352757,11.657368,-11.930307,-3.7912183,4.777416,-8.5641165,0.05106734
1409346352758,16.249447,-14.025832,-2.867655,5.0141435,-8.425283,-0.2081953
1409346352767,19.536686,-14.711771,-2.184709,5.367106,-8.1999445,-0.35419863
1409346352789,19.607914,-12.989142,-2.569577,5.1465025,-8.347292,-0.08120149
1409346352790,19.607914,-9.270349,-3.1244333,4.9168024,-8.483378,0.16650778
1409346352805,17.831415,-6.835446,-5.415684,6.560363,-7.25577,-0.6970026
1409346352806,10.793061,-5.6868277,-5.8651958,6.9404225,-6.859324,-0.9750018
1409346352818,7.9661074,-4.8279076,-4.561553,7.1134853,-6.634329,-1.2467543
1409346352836,6.385336,-5.2594624,-3.38181,7.2219167,-6.4912357,-1.3704666
1409346352837,5.7065797,-6.136339,-2.690484,7.2359753,-6.461485,-1.4353596
1409346352854,7.116166,-5.5940523,-4.6806645,7.183103,-6.5002637,-1.5231541
1409346352855,6.6726403,-4.9787426,-8.383896,7.1735263,-6.45552,-1.7427533
1409346352873,3.3722332,-4.5022964,-8.480263,7.117352,-6.3592544,-2.2524557
1409346352889,1.738789,-3.9564183,-6.5601125,6.958298,-6.3249574,-2.7834067
1409346352890,1.8764555,-3.9558198,-2.1637597,6.785919,-6.3156247,-3.1991503
1409346352904,2.8383262,-4.0162735,1.9213469,6.6820188,-6.390197,-3.2690072
1409346352905,3.791817,-3.8067808,2.3223755,6.6686735,-6.536046,-2.996544
1409346352919,4.5286326,-3.0424318,0.24420857,6.695708,-6.6399097,-2.6924944
1409346352935,4.7147818,-2.44448,-1.3934253,6.77833,-6.6101384,-2.5555239
1409346352936,4.968567,-2.0111294,-2.4821887,6.887865,-6.5039268,-2.5350838
1409346352961,5.0703206,-1.6633717,-3.2261868,7.014865,-6.321384,-2.6461647
1409346352961,4.976947,-1.2162545,-3.5805287,7.139831,-6.0875616,-2.8521616
1409346352965,4.97156,-0.61890113,-4.162918,7.258089,-5.815253,-3.1102035
1409346352987,4.6722846,0.2160767,-4.0078936,7.3667073,-5.4811754,-3.4436512
1409346352987,4.6920366,0.95109665,-3.5170822,7.4866943,-5.0881953,-3.7722812
1409346353005,4.747702,1.5765818,-3.7576995,7.64484,-4.6356993,-4.0295258
1409346353018,4.462792,1.8058267,-2.7162218,7.7988315,-4.0940537,-4.3113036
1409346353018,4.89315,1.2138603,-1.977012,7.9724245,-3.5636744,-4.462183
1409346353037,5.159505,-0.073023155,-0.5494693,8.1597185,-3.1105528,-4.4624915
1409346353037,5.591658,-2.4366987,2.9107506,8.36808,-2.8699846,-4.231886
1409346353057,6.8121023,-5.9082913,7.5590935,8.6560955,-3.027169,-3.475437
1409346353057,5.551555,-15.807716,18.194138,8.892449,-3.650306,-1.9416509
1409346353067,7.3220673,-19.608511,12.870031,8.885648,-3.580685,-2.0962703
1409346353087,10.716447,-19.608511,10.526707,8.875131,-3.5041277,-2.2635155
1409346353087,6.129755,-19.608511,10.081984,8.848164,-3.4552522,-2.437545
1409346353106,3.9791632,-14.949994,8.814254,8.791428,-3.513032,-2.5573027
1409346353106,4.518457,-8.699332,8.376713,5.0096946,-7.708475,3.4136155
1409346353113,4.097078,-9.507974,9.651626,4.8229623,-7.673738,3.7447524
1409346353138,5.896919,-8.759187,6.4188547,4.630655,-7.5749493,4.1650424
1409346353141,6.129755,-6.0639143,0.25378537,4.7058296,-7.4356937,4.3285103
1409346353159,8.116942,-5.1966147,-1.7034745,4.9796457,-7.4092264,4.059171
1409346353159,12.293627,-8.173804,-0.8182184,5.41906,-7.3046846,3.6668463
1409346353165,13.213,-9.3343935,-3.3081882,5.918609,-7.165971,3.1287913
1409346353189,10.965444,-8.949526,-4.933253,6.337228,-7.0840364,2.4137814
1409346353189,9.706693,-9.274539,-3.043629,6.5603065,-7.0731716,1.7615348
1409346353210,10.813412,-9.139865,-2.0721815,6.6293316,-7.086382,1.4161726
1409346353211,11.340137,-7.5507135,-3.685275,6.7468324,-7.0259914,1.134069
1409346353214,10.860698,-6.5990186,-4.71957,6.9527254,-6.882181,0.6823504
1409346353237,9.476251,-6.302736,-4.7656584,7.1390395,-6.7199364,0.21676117
1409346353237,8.021772,-5.7005944,-3.7499185,7.249931,-6.6007867,-0.1962053
1409346353255,7.265804,-4.83509,-2.381632,7.3131323,-6.5171146,-0.46446988
1409346353256,6.8958993,-4.672883,-1.4736311,7.3772707,-6.4297924,-0.63563305
1409346353273,6.9366007,-4.5872903,-1.2575544,7.429521,-6.3572836,-0.7466841
1409346353274,6.2380924,-4.337695,-1.3227965,7.4856424,-6.281241,-0.82556707
1409346353287,5.567716,-3.957017,-1.4024036,7.524234,-6.2255273,-0.89393914
1409346353302,5.593454,-3.7924154,-1.4155718,7.554588,-6.1779957,-0.9648791
1409346353320,6.157887,-4.000711,-1.5478514,7.590648,-6.1214323,-1.0394986
1409346353320,7.001843,-4.4999022,-1.3670892,7.6396136,-6.0455985,-1.1213579
1409346353336,7.357382,-4.9775453,-1.1815386,7.697536,-5.9596386,-1.1836638
1409346353337,7.097611,-5.449203,-1.1731589,7.7471023,-5.887,-1.2231256
1409346353355,7.240066,-5.999271,-1.4820108,7.76165,-5.86068,-1.2568203
1409346353356,7.513005,-6.7013707,-1.7938557,7.750264,-5.866527,-1.2991017
1409346353367,7.7997108,-7.776367,-1.8076223,7.7107625,-5.908189,-1.3445675
1409346353381,8.125322,-8.307879,-1.4993688,7.632314,-6.0031743,-1.371168
1409346353385,8.331821,-8.100183,-1.4323312,7.5519843,-6.1040897,-1.3704157
1409346353400,8.198944,-8.046313,-0.92057055,7.492335,-6.1772647,-1.3699259
1409346353421,7.7386584,-7.08564,-1.0432734,7.4333277,-6.258152,-1.323478
1409346353421,7.0371575,-6.2769985,-2.005144,7.4048777,-6.296864,-1.2991221
1409346353436,4.697424,-7.1514807,-1.9710265,7.386912,-6.304692,-1.3619184
1409346353437,2.938284,-8.137293,-2.5743654,7.2464643,-6.4573264,-1.4007512
1409346353455,3.2752678,-8.4647,-2.847903,6.9673257,-6.7300696,-1.5273896
1409346353456,4.1946416,-8.441956,-2.759916,6.67995,-6.9815326,-1.6753608
1409346353465,5.077503,-8.477868,-3.4811692,6.451061,-7.1656833,-1.790864
1409346353483,4.5962687,-9.121908,-3.8085763,6.302885,-7.267819,-1.903385
1409346353488,4.2479124,-9.749788,-3.4051533,6.114588,-7.3892975,-2.0446248
1409346353500,4.3861775,-10.55843,-3.0885203,5.8907523,-7.5351996,-2.1656892
1409346353515,5.1146135,-11.32218,-3.2255883,5.647378,-7.6914315,-2.2626147
1409346353516,6.14831,-11.657368,-2.5169046,5.432226,-7.817304,-2.3560658
1409346353533,6.1943984,-11.666347,-1.6011224,5.3093677,-7.903092,-2.349923
1409346353534,5.7658362,-11.6585655,-0.8888474,5.2188473,-7.9848824,-2.2750201
1409346353551,5.5509567,-11.621455,-0.38965634,5.119785,-8.076696,-2.1737468
1409346353554,5.5347958,-11.168951,-0.7685388,5.026703,-8.168305,-2.0448523
1409346353567,5.609016,-10.21546,-3.4919431,4.9483366,-8.237008,-1.9585792
1409346353583,6.731298,-9.894038,-4.3718123,4.8848243,-8.237838,-2.1087704
1409346353586,8.107366,-10.503962,1.8183962,4.899266,-8.174828,-2.3107898
1409346353599,9.083601,-10.266336,15.439609,5.032926,-8.17016,-2.022004
1409346353619,8.869919,-10.318411,19.608511,5.2889457,-8.232098,-0.6557555
1409346353619,7.4405804,-10.505158,16.243462,5.235361,-8.183945,-1.3358339
1409346353633,6.5379663,-9.788693,5.9160724,5.3279405,-8.024518,1.8413386
1409346353635,6.6205664,-9.595961,-1.2246342,5.242025,-7.9816055,2.2328272
1409346353647,6.113594,-11.390414,-3.9851487,5.173954,-7.9958115,2.3382888
1409346353654,5.5862713,-13.431472,-0.6937199,5.1054316,-8.08683,2.169828
1409346353668,6.4224463,-13.539809,2.6001031,5.015985,-8.182798,2.0129802
1409346353683,3.0226796,-14.100651,1.1522095,5.0005403,-8.2273855,1.8641667
1409346353686,3.2213984,-14.22096,-4.4017396,4.7671347,-8.393928,1.7282363
1409346353700,5.976526,-13.687651,3.0268695,4.573246,-8.607836,1.0774882
1409346353715,8.506598,-13.056779,6.5720835,4.4796276,-8.6540365,1.1004411
1409346353716,9.194932,-12.987347,6.23091,4.5062995,-8.59251,1.4256275
1409346353732,7.07726,-13.615227,6.8809357,4.579074,-8.497581,1.7301987
1409346353734,6.4906807,-13.859435,5.509058,4.5114307,-8.457096,2.0724182
1409346353748,5.7400985,-13.904326,2.006341,4.4015126,-8.457429,2.2954211
1409346353772,4.4035354,-13.424888,1.3263878,4.2914577,-8.52497,2.2535903
1409346353772,4.2580876,-12.562975,0.83378077,4.133953,-8.618185,2.1926515
1409346353774,5.4114943,-12.323555,-0.7009025,4.0110455,-8.6910305,2.1325812
1409346353788,5.9837084,-11.97041,-3.1429882,3.992946,-8.743145,1.9452969
1409346353799,6.2925606,-11.150994,-3.6565444,4.0368137,-8.794892,1.5888436
1409346353816,6.4619503,-10.120889,-3.9067385,4.1134024,-8.819396,1.211839
1409346353816,7.591415,-10.429143,-4.5483847,4.206684,-8.818297,0.8437086
1409346353834,9.807249,-11.467628,-4.605247,4.345342,-8.779994,0.44729194
1409346353835,13.269264,-13.502699,-4.1024647,4.548933,-8.68713,0.106648654
1409346353850,17.312473,-15.412075,-3.6565444,4.841595,-8.526724,-0.15592822
1409346353868,19.607914,-15.717336,-3.7032316,4.6268396,-8.644959,0.16560791
1409346353869,19.607914,-12.70543,-4.7866077,4.4048724,-8.748443,0.4818933
1409346353883,19.136854,-8.5299425,-6.8767457,4.1886086,-8.834869,0.7556626
1409346353887,12.786234,-6.3697734,-6.8587894,4.011127,-8.8994875,0.9382757
1409346353899,9.037513,-5.199009,-4.9763484,6.683392,-7.0333323,-1.4265052
1409346353922,7.7159133,-5.379771,-3.0681696,6.835044,-6.865236,-1.5235078
1409346353922,7.840412,-5.4061074,-3.7128084,6.915617,-6.771038,-1.5804116
1409346353926,6.618172,-3.3051953,-7.460931,6.9727945,-6.6872177,-1.6827562
1409346353935,3.822343,-2.6928782,-6.621763,7.008834,-6.5271106,-2.107955
1409346353954,2.939481,-2.0260932,-3.004723,6.9705634,-6.4265776,-2.5061352
1409346353955,3.3680432,-1.9045875,0.97503865,6.976383,-6.3497605,-2.679737
1409346353968,4.148553,-2.259528,2.7216089,7.056586,-6.3178844,-2.5415235
1409346353987,4.2957964,-2.6497827,0.6422446,7.1622343,-6.3096647,-2.249643
1409346353987,4.212598,-2.7156234,-1.6663644,7.222702,-6.291041,-2.103755
1409346353995,3.5972881,-2.7694929,-2.9227216,7.2348127,-6.2452445,-2.1965408
1409346354025,3.4422636,-2.4229321,-3.445855,7.2099514,-6.2055316,-2.3829327
1409346354025,3.4512417,-1.5634137,-3.4105403,7.191496,-6.1286664,-2.62531
1409346354028,3.457826,-0.4973954,-3.3925838,7.210139,-5.9795666,-2.9032853
1409346354034,3.7954082,0.736217,-3.8726213,7.2743273,-5.7391686,-3.2119267
1409346354057,4.1533413,1.95307,-4.2945995,7.392985,-5.344888,-3.5981028
1409346354058,4.598663,2.754529,-4.2173862,7.55613,-4.7870035,-4.019941
1409346354066,5.369596,3.0454245,-3.9097314,7.751056,-4.083407,-4.406506
1409346354084,5.9388175,2.861071,-4.0779243,7.9662995,-3.30729,-4.665868
1409346354107,5.3384714,2.087744,-4.4580035,8.130369,-2.556965,-4.850717
1409346354107,4.5795093,0.5303157,-3.696049,8.165112,-1.9726954,-5.060615
1409346354107,4.175488,-1.7681179,-1.3910311,8.145973,-1.6822245,-5.19458
1409346354115,4.232949,-4.733337,3.192668,8.197408,-1.8066406,-5.0704017
1409346354138,5.2157683,-9.886257,8.073248,8.443724,-2.4834042,-4.325114
1409346354139,5.8292828,-18.797476,18.840572,8.589655,-3.9186687,-2.651835
1409346354148,4.644751,-19.608511,14.608222,8.549751,-3.8432431,-2.8812547
1409346354174,8.025364,-19.608511,9.379884,8.489669,-3.7992356,-3.1083274
1409346354174,4.759673,-18.335396,8.175002,8.385287,-3.8859205,-3.279788
1409346354175,5.6521115,-8.508993,8.948928,4.8697834,-7.9562993,3.0253763
1409346354199,4.953005,-6.789956,9.770139,4.705488,-7.852702,3.5162237
1409346354200,5.49589,-7.965509,10.105327,4.700775,-7.6027875,4.033699
1409346354219,6.5846534,-7.716512,4.747702,4.6886706,-7.382201,4.4373255
1409346354220,9.768942,-7.61835,-0.19692309,4.89773,-7.2210474,4.476506
1409346354226,16.68938,-9.7863,-0.59974754,5.3919497,-7.1146145,4.059497
1409346354236,17.970879,-11.083358,2.094328,6.0854,-6.8931003,3.409319
1409346354254,11.344925,-8.96449,4.0695443,6.5468335,-6.659641,2.9930835
1409346354255,9.114726,-8.272566,0.46507367,6.6493955,-6.576891,2.9496517
1409346354268,8.958505,-6.7684083,-7.5561004,6.6919804,-6.6219206,2.7455316
1409346354292,7.865551,-4.881179,-8.6712,6.883473,-6.6909566,2.0048132
1409346354293,6.3745623,-3.9839516,-7.571663,7.089305,-6.6665077,1.2123628
1409346354295,5.559336,-3.8486793,-7.129933,7.238576,-6.596746,0.5063234
1409346354318,6.0106435,-3.1387985,-5.511452,7.313067,-6.531237,-0.17993163
1409346354318,7.979874,-2.9951463,-4.131195,7.4069576,-6.386384,-0.7221435
1409346354331,9.268554,-3.3279405,-3.2914288,7.571028,-6.1332493,-1.1104858
1409346354335,9.907805,-3.867833,-2.7455509,7.739963,-5.8633847,-1.372621
1409346354350,9.942521,-4.9338512,-2.837129,7.894281,-5.618701,-1.5102854
1409346354370,9.375694,-5.6401405,-3.3123782,7.9914675,-5.459445,-1.5815462
1409346354370,8.543709,-5.7185507,-3.3674448,8.025149,-5.370634,-1.7098792
1409346354383,7.727885,-5.4791307,-1.644218,8.024699,-5.3330264,-1.825767
1409346354400,7.319673,-5.445612,-1.2138603,8.023131,-5.3376703,-1.8190777
1409346354400,7.314286,-5.5497594,-1.146224,8.010609,-5.3569136,-1.8177029
1409346354413,7.183802,-6.072294,-1.3239936,7.9929814,-5.3796816,-1.8280268
1409346354415,7.068282,-7.391499,-1.3922282,7.952687,-5.4362035,-1.8365304
1409346354430,7.219715,-9.413403,-1.039682,7.8598742,-5.574606,-1.821144
1409346354435,7.591415,-11.994352,-0.046088383,7.690876,-5.8278904,-1.7482862
1409346354448,7.6626425,-13.669096,1.3275849,7.45623,-6.176019,-1.5594273
1409346354464,6.8719573,-12.9484415,1.8375498,7.1777163,-6.560826,-1.2674094
1409346354466,5.849633,-10.366295,0.5793968,6.9104795,-6.8902903,-0.96929044
1409346354481,5.523423,-7.539341,-0.89303726,6.7092505,-7.1076694,-0.79835343
1409346354499,4.5980644,-6.9168487,-0.6985083,6.6213923,-7.195282,-0.7453005
1409346354503,4.131195,-7.204153,-0.76434886,6.5358696,-7.2799826,-0.6742688
1409346354515,4.020463,-8.206725,-0.7541735,6.4255404,-7.380165,-0.64495385
1409346354518,3.5116954,-9.292496,-0.6015432,6.2760706,-7.5090294,-0.62914723
1409346354529,3.0442274,-9.900024,-0.7009025,6.055996,-7.690262,-0.5959797
1409346354546,2.9574378,-9.841366,-1.3323733,5.787722,-7.895854,-0.57286304
1409346354547,3.6565444,-9.000402,-2.6264393,5.5191903,-8.0821,-0.6233774
1409346354560,4.19943,-7.752425,-3.8612487,5.329157,-8.192931,-0.8039625
1409346354568,4.5753193,-6.7444663,-4.406528,5.2261395,-8.223425,-1.11046
1409346354580,4.875193,-6.7761893,-4.301183,5.198492,-8.181116,-1.4884365
1409346354597,5.4126916,-7.3268557,-3.8606503,5.2027802,-8.1112,-1.8193151
1409346354597,6.3769565,-7.8876977,-2.7192147,5.2258,-8.028953,-2.096994
1409346354616,7.1227503,-8.5143795,-1.5245079,5.2979655,-7.943493,-2.236711
1409346354616,6.935404,-8.942942,-0.3238158,5.389342,-7.8768973,-2.2538517
1409346354638,6.459556,-9.376891,0.5422867,5.4513874,-7.860033,-2.1616292
1409346354638,6.1100025,-9.835979,1.0785879,5.4712267,-7.891651,-1.989439
1409346354647,6.2327056,-9.952697,1.1258733,5.4548087,-7.958173,-1.7558254
1409346354667,6.5068417,-9.591172,0.64942724,5.445061,-8.0162525,-1.5037951
1409346354667,6.6175733,-9.033323,-0.2160767,5.4516487,-8.043023,-1.3265281
1409346354681,6.757634,-8.821436,-0.50517654,5.4821987,-8.039278,-1.2189769
1409346354702,6.8504095,-9.241618,1.1845313,5.532072,-8.015983,-1.1448133
1409346354702,7.2729864,-9.7863,5.41748,5.576463,-8.011509,-0.9429858
1409346354707,7.707534,-9.990405,10.224439,5.6176844,-8.027843,-0.40708515
1409346354716,7.2951326,-10.292673,10.824784,5.6310396,-8.014406,0.4806805
1409346354734,6.3392477,-10.824186,6.344036,5.5570035,-7.966554,1.3505945
1409346354752,6.0944405,-12.000338,0.7314286,5.4136934,-7.9753203,1.8046011
1409346354752,5.4887075,-14.150929,-2.5605986,5.3092704,-8.045844,1.8017966
1409346354755,4.425682,-15.321095,-1.9548657,5.131894,-8.201246,1.6042546
1409346354767,2.695871,-15.373768,-0.81283146,4.9007964,-8.384285,1.3624706
1409346354784,3.17531,-15.243882,-3.5817258,4.595707,-8.593752,1.0942143
1409346354798,5.4282537,-15.458762,-0.9211691,4.321085,-8.783254,0.5942203
1409346354798,7.2550297,-15.2367,4.984728,4.1565866,-8.873341,0.3962411
1409346354815,8.476072,-15.2331085,8.711902,4.14135,-8.8603735,0.7165121
1409346354815,8.905831,-15.034988,10.730213,4.1813807,-8.785564,1.2248828
1409346354832,8.416816,-13.376405,9.916783,4.2240086,-8.663083,1.810838
1409346354846,7.5471225,-10.7433815,2.1775265,4.2471104,-8.535013,2.2991335
1409346354847,5.8304796,-9.994595,1.6585833,4.3129983,-8.492418,2.3339386
1409346354866,5.7496753,-10.250176,0.30107087,4.3127494,-8.477106,2.389401
1409346354882,5.9448028,-10.782288,-2.7311857,4.341785,-8.483106,2.3143477
1409346354882,5.561132,-10.168773,-4.3317094,4.396968,-8.541847,1.9682249
1409346354905,4.4645877,-9.545084,-4.6471453,4.3901615,-8.7488785,0.5949518
1409346354905,4.607641,-10.169372,-5.453393,4.3901615,-8.7488785,0.5949518
1409346354907,6.5948286,-11.010335,-5.568913,4.3901615,-8.7488785,0.5949518
1409346354915,10.26514,-12.408549,-5.6185927,4.4371166,-8.744059,0.1542188
1409346354934,15.203779,-14.423868,-4.84766,4.6286964,-8.642373,-0.2343921
1409346354935,19.293674,-15.662868,-3.989937,4.9726586,-8.437665,-0.4988748
