time,acc_x,acc_y,acc_z,gravity_x,gravity_y,gravity_z
1409346421220,-0.6901286,1.8956091,9.083601,-0.9207298,2.1559322,9.522321
1409346421221,-0.53809685,2.1212628,9.649231,-0.9280196,2.113716,9.531074
1409346421234,-0.47165772,2.3463178,9.977836,-0.9244059,2.069216,9.541184
1409346421251,-0.7134721,2.3750482,10.275315,-0.9191804,2.0265,9.550853
1409346421251,-1.0247183,2.2667105,10.696096,-0.9293038,1.9876795,9.558029
1409346421265,-1.2174516,2.087744,10.76852,-0.9665993,1.95546,9.560975
1409346421271,-1.3329718,1.9099745,10.449493,-1.0264932,1.9276094,9.560388
1409346421286,-1.3090298,1.7830818,9.996989,-1.0920124,1.9143482,9.555792
1409346421300,-1.0283096,1.8357542,9.710882,-1.1536744,1.918766,9.547657
1409346421301,-0.6943185,1.9931729,9.496601,-1.1954695,1.9383606,9.538553
1409346421318,-0.5291186,2.1200657,9.263765,-1.2069651,1.9649646,9.531659
1409346421320,-0.5374983,2.1655555,9.066842,-1.19002,1.989659,9.5286665
1409346421334,-0.63087213,2.203264,9.091382,-1.1581562,2.0050452,9.529368
1409346421354,-0.79128367,2.2158337,9.186552,-1.1262978,2.0136497,9.531372
1409346421355,-0.94930094,2.1739352,9.274539,-1.1020477,2.0097744,9.535025
1409346421366,-1.0899603,2.131438,9.311649,-1.0837678,1.9967977,9.5398445
1409346421371,-1.1719618,2.135628,9.513959,-1.0763509,1.9810842,9.54396
1409346421382,-1.158195,2.1984756,9.721656,-1.0788382,1.9676908,9.546449
1409346421400,-1.1546037,2.171541,9.789292,-1.0872369,1.9594709,9.547187
1409346421401,-1.1737574,2.0404584,9.723452,-1.0997405,1.9566022,9.546343
1409346421421,-1.1701661,1.9369092,9.633669,-1.1146511,1.9578812,9.544352
1409346421421,-1.1091139,1.9800048,9.614515,-1.1280556,1.9603724,9.542265
1409346421431,-0.9995792,2.0775685,9.636064,-1.1383733,1.9653572,9.540013
1409346421452,-1.0498575,2.0428526,9.569026,-1.1415132,1.9699497,9.5386915
1409346421453,-1.0737995,2.0219033,9.564238,-1.1386496,1.9702978,9.538962
1409346421471,-1.0235212,2.0308816,9.527127,-1.1313946,1.9665146,9.540606
1409346421490,-0.96546185,1.9877859,9.466075,-1.1216626,1.9610103,9.542887
1409346421491,-0.9223662,1.8836381,9.363124,-1.1105149,1.9556079,9.5453
1409346421491,-0.92775315,1.8004397,9.293693,-1.0989549,1.9512345,9.547532
1409346421502,-0.8655039,1.8686744,9.254189,-1.0880239,1.9474397,9.549559
1409346421519,-0.8343793,1.934515,9.270349,-1.0770222,1.9466195,9.550973
1409346421520,-0.8218097,1.9656396,9.295488,-1.0671556,1.9473345,9.551935
1409346421533,-0.8499416,1.965041,9.413403,-1.0599391,1.9474221,9.55272
1409346421551,-0.92775315,1.9698294,9.424775,-1.0572054,1.9451675,9.553483
1409346421551,-1.0354922,1.9961656,9.417592,-1.0592813,1.9407477,9.554152
1409346421565,-1.0570401,2.0488381,9.415198,-1.0651376,1.9358218,9.5545
1409346421582,-1.0163386,2.0973208,9.5385,-1.0728731,1.9315411,9.554501
1409346421582,-1.0013748,2.154183,9.6288805,-1.0805801,1.9281985,9.554307
1409346421602,-1.2000936,2.147599,9.504981,-1.0875063,1.926028,9.553959
1409346421603,-1.4915876,2.1733365,9.36492,-1.0955821,1.9244969,9.553345
1409346421623,-1.6304513,2.2625206,9.428367,-1.1090319,1.9243314,9.5518265
1409346421624,-1.520318,2.4277205,9.569624,-1.1274186,1.9269565,9.549145
1409346421631,-1.3521254,2.5234885,9.64145,-1.1430784,1.9333311,9.545994
1409346421664,-1.2360066,2.4540567,9.681553,-1.1505277,1.941719,9.543396
1409346421664,-1.2144588,2.3211784,9.613318,-1.1524612,1.9493372,9.541609
1409346421665,-1.1851299,2.2439656,9.490616,-1.1534472,1.9551005,9.540311
1409346421686,-1.0540473,2.2026656,9.524733,-1.1551725,1.9596063,9.539178
1409346421688,-0.8762778,2.2134395,9.576807,-1.1563921,1.9620223,9.538533
1409346421706,-0.7314286,2.1511903,9.632472,-1.1542431,1.9615725,9.538886
1409346421707,-0.7128736,2.0799627,9.682152,-1.1466546,1.9574344,9.54065
1409346421713,-0.7140707,2.0207062,9.7958765,-1.1374525,1.950237,9.543226
1409346421720,-0.79607207,1.9979613,9.956287,-1.1299253,1.9418406,9.545833
1409346421735,-0.91219085,2.0308816,10.053253,-1.1249584,1.9334292,9.548126
1409346421752,-0.9816227,2.0626047,10.080787,-1.1251718,1.927002,9.549399
1409346421753,-1.0217255,2.1021092,10.10413,-1.1304832,1.9241166,9.549355
1409346421773,-1.0791864,2.0991163,10.084377,-1.1395833,1.9256606,9.547962
1409346421774,-1.1791444,2.0883424,9.953894,-1.1506519,1.9314991,9.545454
1409346421780,-1.2719196,2.0272903,9.69532,-1.1618147,1.9408097,9.542213
1409346421806,-1.3664906,1.922544,9.411607,-1.1710639,1.9522437,9.538749
1409346421806,-1.3808558,1.8447324,9.216479,-1.1772242,1.9639897,9.53558
1409346421811,-1.3401544,1.8261774,9.148245,-1.1809381,1.9758251,9.532675
1409346421820,-1.2826935,1.8255788,9.0842,-1.1785169,1.9859695,9.530867
1409346421834,-1.3036429,1.8022354,9.15842,-1.1709195,1.9928005,9.530376
1409346421853,-1.4197617,1.7501614,9.404425,-1.1625934,1.9956434,9.530802
1409346421854,-1.555034,1.721431,9.626487,-1.1591889,1.9946256,9.531429
1409346421874,-1.6514006,1.7220296,9.762358,-1.1632899,1.9916425,9.531553
1409346421875,-1.6663644,1.6741456,9.901221,-1.1760173,1.9886522,9.530616
1409346421880,-1.6621746,1.614889,9.896433,-1.1916286,1.9869814,9.529025
1409346421908,-1.7471687,1.6106992,9.817424,-1.2104905,1.9877229,9.526492
1409346421909,-1.8171991,1.6340426,9.716867,-1.2284526,1.9906211,9.523588
1409346421912,-1.8543092,1.6921021,9.7402115,-1.2440586,1.9943684,9.520777
1409346421933,-1.857302,1.7208325,9.743802,-1.2577447,1.9972055,9.518384
1409346421933,-1.8986019,1.6801311,9.598953,-1.2688011,1.998705,9.516602
1409346421947,-1.9213469,1.6280571,9.311649,-1.277789,1.9992671,9.515281
1409346421966,-1.7908629,1.654992,9.108741,-1.2866694,2.0003965,9.513847
1409346421966,-1.4634558,1.6992847,8.977658,-1.2950089,2.0055008,9.511641
1409346421990,-1.1617863,1.7010803,8.886678,-1.3015784,2.0152352,9.508686
1409346421991,-0.9672575,1.7076644,8.874108,-1.3039924,2.0260284,9.506061
1409346421992,-0.9187749,1.7477672,8.986636,-1.3010435,2.0328305,9.5050125
1409346422000,-1.0121487,1.8130093,9.144054,-1.2962271,2.0307636,9.506113
1409346422022,-1.1791444,1.8950106,9.368511,-1.2943625,2.0171506,9.509265
1409346422023,-1.353921,1.9883845,9.687539,-1.2998205,1.997429,9.512682
1409346422031,-1.477821,2.0757728,9.833585,-1.3099858,1.9686874,9.517279
1409346422052,-1.5586253,2.0530279,9.877877,-1.3265265,1.9352118,9.5218525
1409346422053,-1.6358383,2.0123265,9.840768,-1.3460622,1.9026097,9.52568
1409346422081,-1.5065514,1.9925743,9.712678,-1.3668703,1.875917,9.528011
1409346422082,-1.3132197,1.9871874,9.5798,-1.3853252,1.8578681,9.528882
1409346422082,-1.1486182,1.9776106,9.539098,-1.4000214,1.8483839,9.528579
1409346422106,-1.0941502,1.963844,9.533711,-1.4102439,1.844916,9.527742
1409346422107,-1.1270704,1.970428,9.48463,-1.417949,1.842992,9.526972
1409346422112,-1.163582,1.9548657,9.464279,-1.4262506,1.8420647,9.525912
1409346422134,-1.1091139,1.8986019,9.464878,-1.4374214,1.8388785,9.524849
1409346422135,-1.0851719,1.8291701,9.435549,-1.450925,1.8308876,9.52434
1409346422151,-1.086369,1.7010803,9.296685,-1.464745,1.8184947,9.524599
1409346422152,-1.0821792,1.5903485,9.194932,-1.474872,1.8034081,9.525905
1409346422165,-1.1540052,1.5412674,9.282919,-1.4794134,1.7877377,9.528154
1409346422180,-1.2378023,1.6208745,9.264363,-1.4795898,1.7721485,9.531038
1409346422181,-1.4077905,1.70946,9.296086,-1.4784441,1.7580639,9.533824
1409346422199,-1.6406267,1.7842789,9.451111,-1.4774634,1.7452071,9.536338
1409346422200,-1.7262194,1.8525136,9.500193,-1.4826396,1.7334471,9.537679
1409346422216,-1.6585833,1.7567455,9.418191,-1.4948282,1.7247033,9.537362
1409346422228,-1.5376761,1.5921441,9.303269,-1.5113273,1.720057,9.535601
1409346422232,-1.3102269,1.4676456,9.168595,-1.528,1.7192677,9.533086
1409346422247,-1.0971429,1.340753,9.066842,-1.5390036,1.7209479,9.531013
1409346422272,-0.95109665,1.1959038,9.017162,-1.54212,1.7215545,9.530399
1409346422275,-0.8714894,1.09834,9.069835,-1.5405203,1.7161907,9.531625
1409346422275,-0.79607207,1.0720038,9.238626,-1.5328546,1.7005432,9.535665
1409346422281,-0.85054016,1.0779893,9.515156,-1.5217172,1.672783,9.542356
1409346422309,-0.9816227,1.1252748,9.680356,-1.5111644,1.63413,9.550727
1409346422309,-1.0905589,1.1791444,9.831789,-1.5044976,1.5888451,9.559416
1409346422314,-1.192911,1.234211,9.953295,-1.5043136,1.542928,9.566964
1409346422349,-1.2737153,1.3084313,9.834184,-1.5123411,1.499467,9.572607
1409346422349,-1.2413936,1.3275849,9.63726,-1.5268826,1.4668052,9.575359
1409346422350,-1.1851299,1.4024036,9.484032,-1.54339,1.4461081,9.57586
1409346422352,-1.158195,1.4748282,9.376292,-1.5616883,1.4368565,9.574286
1409346422372,-1.2126632,1.5747862,9.317635,-1.579691,1.4350483,9.571604
1409346422374,-1.3341689,1.6843209,9.285912,-1.5956913,1.4345906,9.569018
1409346422380,-1.3880384,1.7597382,9.311649,-1.6101446,1.4300188,9.567281
1409346422406,-1.335366,1.7651252,9.415796,-1.6224384,1.4187089,9.566888
1409346422406,-1.3156139,1.721431,9.419388,-1.630937,1.4040282,9.567609
1409346422412,-1.3012487,1.6178818,9.294889,-1.6373224,1.3843529,9.569386
1409346422446,-1.2186487,1.525705,9.144054,-1.6396966,1.3625691,9.572104
1409346422447,-1.1210849,1.4742297,9.117719,-1.6401625,1.3415464,9.574994
1409346422447,-1.0247183,1.4281414,9.105149,-1.6403289,1.3228941,9.57756
1409346422454,-0.94331545,1.388637,9.102755,-1.6400238,1.305996,9.579931
1409346422475,-0.88944596,1.3623008,9.291298,-1.6398026,1.289996,9.582137
1409346422476,-0.9020155,1.352724,9.499594,-1.6417919,1.2736379,9.583984
1409346422481,-0.97982705,1.3257892,9.60853,-1.6485738,1.2555393,9.585208
1409346422504,-1.0187328,1.2515689,9.687539,-1.6591982,1.234917,9.586054
1409346422505,-1.0229226,1.1294646,9.758167,-1.6772405,1.2115229,9.585899
1409346422512,-0.99898064,1.039682,9.659407,-1.7008615,1.1864923,9.5848675
1409346422531,-1.0528502,1.0187328,9.553463,-1.7257491,1.1620612,9.583412
1409346422532,-1.1671734,1.115698,9.548077,-1.7479731,1.1388668,9.58217
1409346422547,-1.3754689,1.3054385,9.631873,-1.7670983,1.1159621,9.581356
1409346422571,-1.5855601,1.4634558,9.729437,-1.7848788,1.0939572,9.580598
1409346422572,-1.7884687,1.5664065,9.804854,-1.8045807,1.0714351,9.5794525
1409346422572,-1.9339164,1.602918,9.837176,-1.8286753,1.0495476,9.577306
1409346422581,-2.0614076,1.5921441,9.738416,-1.859968,1.030949,9.573298
1409346422603,-2.12246,1.5741876,9.675568,-1.8994895,1.0183024,9.566891
1409346422603,-2.1332338,1.5472529,9.610326,-1.945098,1.01224,9.558366
1409346422614,-2.1523874,1.4921862,9.615114,-1.9922705,1.0109481,9.548782
1409346422638,-2.1266496,1.4586674,9.66659,-2.036326,1.0108465,9.5394945
1409346422638,-2.0949266,1.3664906,9.652225,-2.0728796,1.0099684,9.531712
1409346422642,-1.9919758,1.2348095,9.567828,-2.1043832,1.006003,9.525225
1409346422673,-1.863886,1.1049241,9.442732,-2.1268053,0.9983198,9.521052
1409346422673,-1.7465701,0.99419224,9.337985,-2.1425636,0.98724645,9.518674
1409346422675,-1.7076644,0.931943,9.293693,-2.1530182,0.97276706,9.517806
1409346422681,-1.7567455,0.9636662,9.305065,-2.1609333,0.9532462,9.517987
1409346422709,-1.9656396,1.0468647,9.390059,-2.1710358,0.92787564,9.518195
1409346422710,-2.1338322,1.1426327,9.405622,-2.1894078,0.90021867,9.516643
1409346422712,-2.2457612,1.1971009,9.39365,-2.2136753,0.8690117,9.513929
1409346422733,-2.3014264,1.1923125,9.3343935,-2.248349,0.8367661,9.508687
1409346422735,-2.3529017,1.1540052,9.388862,-2.2917473,0.8066056,9.50093
1409346422753,-2.355296,1.0564415,9.489418,-2.3408275,0.77975374,9.491201
1409346422753,-2.337938,0.9068039,9.631873,-2.392963,0.7556882,9.48014
1409346422761,-2.5025394,0.7098808,9.667787,-2.4462054,0.7343218,9.468223
1409346422780,-2.486977,0.61291564,9.561244,-2.4994242,0.7179923,9.455567
1409346422781,-2.4372973,0.6967127,9.3738985,-2.5485487,0.7051389,9.443415
1409346422795,-2.4313118,0.7793127,9.159617,-2.5938957,0.70253104,9.431253
1409346422820,-2.4995465,0.8283938,9.093777,-2.6337128,0.71088934,9.419585
1409346422820,-2.5570073,0.86729956,9.075222,-2.672284,0.72826254,9.407387
1409346422822,-2.6862943,0.93493575,9.088389,-2.7176135,0.75108826,9.392594
1409346422832,-2.8502972,1.0564415,9.353547,-2.777672,0.77688855,9.372906
1409346422853,-2.8395233,1.0779893,9.586982,-2.8584962,0.80478734,9.346213
1409346422855,-2.896984,0.9744401,9.77373,-2.9606986,0.8330179,9.311859
1409346422863,-2.9741971,0.8439561,9.80665,-3.0714655,0.86053365,9.273401
1409346422890,-3.163339,0.7206547,9.702502,-3.1945608,0.88774914,9.229142
1409346422890,-3.6577415,0.6536171,9.248801,-3.325519,0.91635364,9.179957
1409346422893,-4.2503066,0.7086837,8.713697,-3.466427,0.9490798,9.124336
1409346422919,-4.9907136,0.7140707,8.517372,-3.6220887,0.98828804,9.059479
1409346422919,-5.044583,1.110311,8.630499,-3.7944345,1.031414,8.983809
1409346422921,-4.665102,1.5113398,9.243414,-3.9753242,1.0780493,8.899719
1409346422932,-4.2359414,1.5945383,9.981427,-4.158979,1.1274396,8.809209
1409346422947,-4.3819876,1.2880806,10.3692875,-4.339069,1.1782039,8.715199
1409346422969,-5.117606,0.83018947,9.807847,-4.5339622,1.2288809,8.608335
1409346422970,-5.9639564,0.4758476,8.968679,-4.7520375,1.2807041,8.482236
1409346422975,-6.6947865,0.64463884,8.491036,-4.9879913,1.3383803,8.336611
1409346422981,-6.903681,1.0702082,7.671621,-5.2286053,1.4088985,8.176006
1409346423007,-6.83365,1.5035586,6.75524,-5.4536295,1.4913682,8.012749
1409346423007,-6.4481835,1.9662381,6.50744,-5.650218,1.5799378,7.858067
1409346423012,-8.979453,1.6819267,6.6840124,-5.8266716,1.6685622,7.7094874
1409346423031,-8.418014,2.2942438,7.2849574,-5.994423,1.7364935,7.5645146
1409346423046,-8.24204,2.532467,7.0341644,-6.1309304,1.7887101,7.4419494
1409346423047,-8.500613,2.1404164,6.5966244,-6.243307,1.8414193,7.334895
1409346423063,-7.848193,2.1021092,6.2303114,-6.3346133,1.9015955,7.240649
1409346423064,-6.797737,2.517503,6.7905545,-6.409371,1.976126,7.154389
1409346423081,-5.579687,2.5408466,6.854001,-6.44502,2.0655775,7.0968657
1409346423082,-5.276222,2.3265655,7.045537,-6.4292665,2.1519759,7.0854735
1409346423148,-5.8759694,2.042254,7.6404963,-6.4004936,2.206998,7.094592
1409346423149,-6.92044,1.6142905,8.594585,-6.3781486,2.2208407,7.1103783
1409346423151,-7.5171947,1.553837,9.0081835,-6.375379,2.2149618,7.1146946
1409346423151,-7.5680714,1.4993688,8.39886,-6.3755474,2.228415,7.1103406
1409346423152,-8.025963,0.49799395,7.502231,-6.3658223,2.2834063,7.101602
1409346423158,-7.7919292,0.3681085,7.480085,-6.352625,2.3713555,7.084576
1409346423317,-6.317101,1.8124107,8.177396,-6.331434,2.4802396,7.066239
1409346423317,-4.9643774,3.3806129,7.3352356,-6.2764273,2.660467,7.049735
1409346423317,-4.0743327,4.9063177,4.268263,-6.1802254,2.9026268,7.0391726
1409346423317,-4.2317514,4.820725,3.1130607,-6.068158,3.1560173,7.027617
1409346423318,-4.9338512,3.674501,3.0759506,-5.979206,3.3484354,7.014803
1409346423318,-5.3444567,2.823961,4.4262805,-5.9282527,3.4302528,7.018517
1409346423318,-5.5647235,2.3068132,8.534731,-5.890029,3.4116914,7.059625
1409346423318,-6.2129536,2.144606,9.311649,-5.8436747,3.3213136,7.1407804
1409346423319,-6.3344593,1.9381063,9.0554695,-5.7958636,3.2109728,7.2296615
1409346423319,-5.875371,1.8938135,8.676587,-5.748518,3.0992002,7.3157287
1409346423319,-5.277419,2.0231004,8.920795,-5.697942,3.0205107,7.3878517
1409346423319,-4.5992613,1.6849195,9.179968,-5.640777,2.9896462,7.4440613
1409346423320,-3.6894648,1.6095021,9.124901,-5.5766,2.9984653,7.4887333
1409346423320,-2.7263973,1.821389,8.528745,-5.5061836,3.0377977,7.5249
1409346423320,-2.2589293,2.1230583,8.15106,-5.444369,3.0990794,7.544862
1409346423320,-2.6527755,2.4289176,7.9972324,-5.406512,3.171017,7.5421925
1409346423321,-3.517681,2.8006175,7.6470804,-5.386651,3.2370925,7.5283213
1409346423321,-4.4274774,2.9412768,7.3100963,-5.4098086,3.287188,7.48991
1409346423375,-5.1547165,2.7455509,7.043741,-5.477017,3.3147378,7.4286737
1409346423376,-5.981314,2.5605986,6.903681,-5.583435,3.3180165,7.347544
1409346423376,-6.7725983,2.369661,6.5708866,-5.721428,3.299453,7.249087
1409346423376,-6.666056,1.2988545,1.9375077,-5.8842597,3.2697568,7.1312385
1409346423376,-7.216124,2.4678235,2.5079262,-6.0639315,3.2505035,6.9880867
1409346423381,-8.120534,2.119467,4.943428,-6.2348466,3.2490282,6.8367314
1409346423409,-7.6883802,2.15957,6.5846534,-6.373789,3.2905889,6.687094
1409346423410,-6.794146,2.6234465,6.7923503,-6.397373,3.4186378,6.5997667
1409346423413,-5.6245785,3.074155,7.240066,-6.2578073,3.6188066,6.6268
1409346423434,-4.1838675,3.2872388,7.9301944,-6.0316534,3.8462067,6.7079234
1409346423434,-3.3692403,3.5685577,7.7332716,-5.777637,4.0685735,6.7997065
1409346423441,-2.9400797,4.0342298,6.963536,-5.5089817,4.268854,6.8991594
1409346423461,-2.7820623,4.2874165,6.5625067,-5.2418714,4.445308,6.9951706
1409346423461,-2.1697452,4.4155064,6.915053,-4.995122,4.5821915,7.086795
1409346423476,-2.0506337,4.4286747,7.293337,-4.77263,4.6665716,7.1843925
1409346423482,-2.6886885,4.35625,6.658275,-4.595854,4.6999726,7.277278
1409346423494,-3.3728316,4.210802,6.129156,-4.464791,4.69463,7.3618255
1409346423510,-3.6254199,3.690662,5.9597664,-4.3676825,4.664991,7.4385204
1409346423514,-3.8480806,2.6204538,5.905897,-4.292191,4.62335,7.508137
1409346423530,-3.7361517,1.8788497,6.7360864,-4.221497,4.5734034,7.5784783
1409346423545,-2.9700072,1.6950948,6.7600284,-4.146715,4.512761,7.6557245
1409346423545,-1.9003977,1.1731589,7.041347,-4.0731325,4.439416,7.737672
1409346423561,-0.9115923,0.7194576,6.7648168,-4.011643,4.3493195,7.8205194
1409346423561,-0.25318682,0.5542577,6.488885,-3.9715276,4.2461944,7.89729
1409346423582,-0.4333505,0.9307459,6.7731967,-3.95857,4.128302,7.966005
1409346423583,-0.4782418,1.9297266,6.989872,-3.9792407,3.986501,8.027692
1409346423594,-0.33279404,2.586935,7.683592,-4.0326433,3.8168683,8.083297
1409346423611,-0.86251116,2.3056161,8.796297,-4.1119924,3.6124368,8.137088
1409346423613,-2.0685902,1.7926586,9.460688,-4.2051687,3.383612,8.18768
1409346423625,-4.836886,1.3162124,9.333796,-4.3242946,3.1054857,8.235703
1409346423645,-8.962694,0.38067806,9.294291,-4.498069,2.7702138,8.262183
1409346423645,-11.159374,0.14784196,8.55149,-4.7608624,2.3725662,8.238659
1409346423660,-11.991359,-0.04369418,6.211158,-5.0861974,1.9641553,8.151262
1409346423662,-11.760918,-1.9901801,4.985925,-5.426886,1.5960337,8.01074
1409346423676,-11.457452,-2.2098482,5.34326,-5.736647,1.2740891,7.8509855
1409346423681,-10.757747,-2.1039047,7.615956,-5.9757795,0.9855327,7.712922
1409346423695,-9.7719345,-1.6274586,10.390237,-6.1451764,0.75348294,7.605226
1409346423708,-7.9062524,-0.078410104,12.640188,-6.206913,0.56595427,7.5712824
1409346423713,-6.2434793,2.1392193,14.900314,-6.1710396,0.4308198,7.6094055
1409346423726,-5.493496,4.3436804,14.901511,-6.065826,0.35297757,7.6975036
1409346423743,-4.9224787,5.7263317,11.997345,-5.952701,0.33301848,7.7861958
1409346423744,-4.410718,5.9388175,9.500193,-5.884002,0.34847823,7.837568
1409346423760,-5.2181625,4.609437,8.793902,-5.8768415,0.3657938,7.84215
1409346423762,-7.0820484,2.2451627,10.138845,-5.934613,0.35715866,7.7989225
1409346423774,-9.540894,-0.43993455,11.844714,-6.01728,0.27396452,7.7387123
1409346423784,-11.44189,-2.0739772,11.529877,-6.1183977,0.088642165,7.663403
1409346423798,-11.449073,-2.1188686,9.796474,-6.234631,-0.15803455,7.5680113
1409346423811,-9.903615,-1.271321,7.9421654,-6.371424,-0.38449207,7.444966
1409346423826,-8.067862,-0.52852005,6.9407907,-6.5362067,-0.5366194,7.291119
1409346423827,-7.265205,-0.48722005,7.0964136,-6.7208166,-0.6113924,7.1152806
1409346423849,-7.3448124,-0.8607155,6.967127,-6.8973722,-0.65539896,6.9402523
1409346423849,-6.938995,-0.87687635,6.1249666,-7.0631685,-0.6759002,6.76943
1409346423853,-6.5655,-0.7320272,6.109404,-7.2075152,-0.7065505,6.6123304
1409346423861,-6.4224463,-0.48482585,6.891111,-7.3474417,-0.75910425,6.450523
1409346423875,-6.1566896,-0.03172317,7.1341224,-7.4978294,-0.8219322,6.2671657
1409346423891,-5.708974,-0.19393034,8.352173,-7.6419883,-0.87643445,6.0829487
1409346423893,-5.580884,-1.4562732,10.831368,-7.744394,-0.91206956,5.9466696
1409346423912,-6.3524156,-2.8933928,12.047623,-7.784053,-0.9333105,5.891336
1409346423913,-7.687183,-3.2148144,10.078991,-7.7671638,-0.95639473,5.909896
1409346423924,-8.380304,-2.392406,7.450157,-7.7509675,-0.95295554,5.9316754
1409346423943,-8.284536,-1.2395979,5.3181205,-7.7540746,-0.90677,5.934854
1409346423944,-7.5626845,-0.17657238,3.8863878,-7.811951,-0.8230238,5.870813
1409346423959,-6.141726,0.46627077,4.173692,-7.9173574,-0.72377974,5.741253
1409346423962,-5.28939,0.17118542,4.911705,-8.034049,-0.6366229,5.58741
1409346423975,3.1070752,2.3145945,9.035119,-8.137315,-0.5928236,5.440868
1409346423993,-6.1884127,-0.0053869537,3.8373067,-8.197077,-0.5610254,5.3538384
1409346423995,-8.285135,-1.496376,2.9891608,-8.292289,-0.6164933,5.198872
1409346424010,-8.652046,-2.7246015,2.9352913,-8.420113,-0.7627083,4.9689393
1409346424013,-8.917803,-3.4332852,2.7365725,-8.588234,-0.95181686,4.637526
1409346424026,-9.589975,-3.9025488,2.7383683,-8.768632,-1.1395925,4.240614
1409346424043,-9.832987,-3.7822402,2.7257986,-8.933451,-1.3185989,3.8242843
1409346424043,-10.056845,-3.117849,2.846706,-9.074076,-1.4852785,3.4096174
1409346424059,-10.173561,-1.9405005,2.8221653,-9.194866,-1.6310793,2.9940574
1409346424062,-10.298658,-1.0528502,2.697667,-9.2982025,-1.752643,2.5772185
1409346424075,-9.405622,-0.5494693,3.3859997,-9.386305,-1.8376982,2.165756
1409346424093,-8.456919,-0.18435353,3.3662477,-9.456088,-1.8845369,1.7892191
1409346424094,-8.611345,-0.24181437,2.1428106,-9.511699,-1.8994855,1.4456577
1409346424110,-8.944139,-1.0582372,1.6023195,-9.554138,-1.9054734,1.121611
1409346424127,-9.229648,-1.6759412,1.894412,-9.579909,-1.9296354,0.8199042
1409346424127,-9.48463,-1.8866309,1.5334862,-9.588376,-1.9792526,0.56214464
1409346424139,-9.257779,-1.4024036,0.6877344,-9.585582,-2.040101,0.3535773
1409346424144,-8.694544,-0.94570965,-0.06943185,-9.572737,-2.1234417,0.15513562
1409346424159,-8.002619,-0.94451255,-0.2753332,-9.549761,-2.229094,-0.06007482
1409346424162,-6.869563,-1.436521,-0.092176765,-9.514425,-2.3538852,-0.32454994
1409346424176,-5.927445,-2.1206641,-0.3854665,-9.463708,-2.4931457,-0.62675476
1409346424193,-6.4152637,-3.5583823,-0.4830302,-9.398345,-2.6402342,-0.93308634
1409346424193,-8.504205,-5.9687448,-0.54168814,-9.31958,-2.802382,-1.2093256
1409346424208,-10.386047,-7.589619,-1.9111716,-9.220368,-3.0075028,-1.4526159
1409346424214,-11.130644,-7.872135,-3.6349967,-9.100454,-3.2402005,-1.6891452
1409346424225,-10.593744,-7.0605006,-4.6513352,-8.957655,-3.493347,-1.9306345
1409346424245,-9.088988,-5.403115,-4.052785,-8.805398,-3.7258768,-2.1801822
1409346424245,-6.5511346,-4.0581717,-2.2679076,-8.656937,-3.915936,-2.4276042
1409346424261,-3.0753522,-2.9819782,-0.9696517,-8.520364,-4.0690546,-2.6488886
1409346424263,-0.5955577,-1.5622166,-0.97503865,-8.396282,-4.201667,-2.8317509
1409346424276,0.24181437,-1.2366052,-1.6262615,-8.279747,-4.3356123,-2.969623
1409346424292,-0.60453594,-1.8662802,-2.7617116,-8.670298,-4.473285,-0.9930054
1409346424295,-2.7850552,-2.9724014,-3.8953662,-8.506317,-4.688264,-1.3539377
1409346424312,-4.7680526,-4.2503066,-4.9045224,-8.294585,-4.901848,-1.8281478
1409346424325,-5.8119245,-5.9052987,-5.4444146,-8.050845,-5.0989184,-2.3141496
1409346424325,-6.737882,-8.198944,-4.5022964,-7.76233,-5.3477354,-2.705241
1409346424347,-7.776367,-11.406575,-2.043451,-7.472816,-5.7034287,-2.79255
1409346424347,-8.408437,-14.704588,-1.982399,-7.1829967,-6.2085896,-2.455274
1409346424355,-7.843405,-15.212758,-2.1015105,-6.802627,-6.741404,-2.1090536
1409346424362,-6.769605,-13.15973,-2.005144,-6.416608,-7.1703887,-1.8928888
1409346424387,-4.619612,-10.456078,-1.769315,-6.1731224,-7.4087553,-1.7813722
1409346424388,-3.2704794,-8.293514,-1.5454572,-5.966869,-7.5828238,-1.7514666
1409346424394,-3.1471782,-7.680599,-0.019153614,-5.784846,-7.726327,-1.7348742
1409346424410,-3.7217865,-7.5602903,1.590947,-5.62163,-7.880337,-1.5709674
1409346424426,-4.7285485,-7.536947,2.315193,-5.5012093,-8.021916,-1.247376
1409346424427,-5.8987145,-7.5327573,2.7802668,-5.453336,-8.104468,-0.86551005
1409346424448,-6.7486563,-7.442376,3.229778,-5.477056,-8.120847,-0.47336593
1409346424448,-7.2209125,-7.4591355,3.5326445,-5.5643363,-8.074377,-0.113833554
1409346424454,-6.7348895,-7.6710224,3.684078,-5.6498566,-8.012062,0.2374314
1409346424462,-5.9244523,-8.04751,3.5990837,-5.6956334,-7.965379,0.5318441
1409346424476,-6.045359,-8.622119,1.7555484,-5.6813536,-7.9558315,0.77287096
1409346424490,-6.8743515,-10.90499,-3.0579941,-5.6648464,-7.96593,0.7898481
1409346424494,-7.1861963,-12.509704,-6.7947445,-5.624752,-8.026784,0.32139
1409346424512,-6.0405707,-10.969634,-6.3482256,-5.5622945,-8.066513,-0.40325406
1409346424525,-4.0462008,-8.297106,-5.60722,-5.47519,-8.082675,-0.9289861
1409346424525,-2.4905684,-6.007052,-4.0138793,-5.4568353,-8.040518,-1.3203795
1409346424541,-1.0408791,-4.6926355,-2.0087352,-5.4224224,-8.025481,-1.5360254
1409346424542,0.010773907,-4.23235,0.56203884,-5.2997503,-8.088892,-1.6287676
1409346424558,-0.6751649,-4.3514614,1.3413515,-5.079162,-8.250889,-1.5150392
1409346424575,-1.6011224,-5.142745,1.6555905,-4.8655357,-8.410507,-1.3267812
1409346424575,-2.4546554,-5.9890957,2.1787236,-4.6728277,-8.55138,-1.0995426
1409346424590,-2.5558102,-5.6305637,2.0482395,-4.5323343,-8.660234,-0.7928914
1409346424596,-2.2655134,-5.161899,1.6280571,-4.464039,-8.715606,-0.5300429
1409346424612,-1.2976574,-4.100669,2.0524294,-4.393348,-8.762541,-0.29452726
1409346424626,-0.52253455,-2.5366566,2.4432828,-4.2895646,-8.818728,-0.009666275
1409346424626,-0.30825347,-1.7088615,2.1631613,-4.178848,-8.864907,0.34794864
1409346424643,-0.7457938,-2.2182279,1.376666,-4.0784683,-8.891376,0.6927749
1409346424643,-1.5729905,-3.6242228,-0.92296475,-3.9965165,-8.90891,0.910813
1409346424656,-2.1733365,-5.1780596,-3.6379895,-3.9565032,-8.945566,0.7023694
1409346424662,-4.7081976,-11.552622,-9.363723,-3.9102335,-8.993355,0.005906966
1409346424674,-4.8979383,-19.418772,-12.339117,-3.759304,-8.945844,-1.4177076
1409346424690,2.2014685,-19.608511,-7.8212585,-3.4793413,-9.052998,-1.4518272
1409346424694,7.465121,-19.608511,-4.9661727,-2.3176544,-9.081839,-2.8842819
1409346424708,2.0159178,-19.608511,-1.3940239,-1.1779457,-9.288624,-2.9162185
1409346424725,-0.40581718,-19.137453,-0.6183026,-0.7159639,-9.432085,-2.5871894
1409346424725,-0.075417355,-13.247717,-0.65062433,-0.42183864,-9.534992,-2.2530768
1409346424742,1.1803415,-9.238028,1.1109096,-0.26811612,-9.576726,-2.0940015
1409346424743,1.9273324,-7.2382703,1.6711528,-0.12421646,-9.624136,-1.8790836
1409346424759,2.1823149,-6.9425864,2.2798786,-0.013529636,-9.66456,-1.663274
1409346424763,2.2996306,-7.785944,5.360019,0.1283385,-9.707146,-1.3875133
1409346424776,2.2409728,-9.149442,8.110358,0.32835692,-9.768435,-0.8001661
1409346424791,2.5941176,-11.349114,8.129512,0.5411323,-9.791526,0.059703358
1409346424794,3.525462,-12.505514,4.2419267,0.7569301,-9.736583,0.89241177
1409346424807,4.307169,-12.203845,-1.3551182,0.9836679,-9.670591,1.2970986
1409346424823,4.152743,-11.110891,-4.231153,1.2139696,-9.669133,1.097513
1409346424824,3.9067385,-9.916184,-5.143344,1.3990921,-9.682518,0.6795298
1409346424840,3.7780502,-9.058462,-5.2941785,1.5707153,-9.678503,0.17265199
1409346424842,3.5739446,-8.605958,-5.007473,1.7560005,-9.641993,-0.34473786
1409346424856,3.4075475,-8.54311,-4.1156325,1.9261353,-9.58115,-0.81360215
1409346424873,3.032855,-8.9279785,-2.835932,2.0701182,-9.514059,-1.1694752
1409346424874,2.5713725,-9.444528,-1.7399861,2.1607397,-9.466559,-1.37326
1409346424891,2.0733786,-9.903615,-0.90381116,2.1915765,-9.449111,-1.4428064
1409346424911,1.6196774,-10.159795,-0.5710171,2.1629884,-9.460977,-1.4077567
1409346424911,1.3359646,-10.09994,-0.8295909,2.096172,-9.488794,-1.3188094
1409346424934,1.1845313,-9.983821,-1.30484,2.00569,-9.518301,-1.2448031
1409346424934,1.2366052,-10.120291,-1.5448587,1.9091707,-9.542708,-1.2092022
1409346424934,1.2904748,-10.266935,-1.4532804,1.8232147,-9.560653,-1.200079
1409346424946,1.2395979,-10.234015,-1.3024458,1.75034,-9.574963,-1.1944804
1409346424975,1.0384849,-10.172963,-1.122282,1.5309006,-9.619273,-1.138561
1409346424975,0.6769605,-10.119692,-0.9403227,1.5309006,-9.619273,-1.138561
1409346424975,0.24241292,-10.14124,-0.81402856,1.5309006,-9.619273,-1.138561
1409346424990,-0.12868834,-10.341754,-0.7846996,1.4171201,-9.641109,-1.1005358
1409346424994,-0.54288524,-10.575189,-0.8702923,1.2745217,-9.665386,-1.0612795
1409346425006,-0.6440403,-10.593145,-0.87927055,1.098784,-9.690099,-1.032026
1409346425023,-0.705691,-10.3692875,-0.87448215,0.9253213,-9.710796,-1.0072782
1409346425023,-0.6913257,-10.128072,-0.8798691,0.7616937,-9.72701,-0.987671
1409346425040,-0.6147113,-9.989806,-0.92416185,0.6157497,-9.738772,-0.97343445
1409346425056,-0.55605334,-9.957485,-0.98461545,0.49415043,-9.746605,-0.9643036
1409346425056,-0.5141548,-9.976639,-1.1348516,0.3878908,-9.751525,-0.9631761
1409346425071,-0.5093664,-10.09575,-1.3162124,0.29801646,-9.7533455,-0.9766414
1409346425076,-0.51235914,-10.305243,-1.5215151,0.22021395,-9.752475,-1.005548
1409346425087,-0.4758476,-10.445304,-1.6645688,0.15149258,-9.74922,-1.0488752
1409346425095,-0.37110126,-10.390237,-1.7046716,0.09319179,-9.744247,-1.1006247
1409346425109,-0.25019407,-10.264542,-1.7274165,0.048152037,-9.738644,-1.1519208
1409346425123,-0.16340427,-10.153211,-1.7058687,0.017720366,-9.732986,-1.1996123
1409346425124,-0.093373865,-10.093954,-1.6861166,-0.0020262452,-9.727571,-1.2428906
1409346425140,-0.061650693,-10.035895,-1.6723499,-0.013528467,-9.722685,-1.2804706
1409346425143,-0.018555064,-10.029311,-1.7633295,-0.019546704,-9.718325,-1.3130817
1409346425169,0.038905777,-10.06283,-1.9111716,-0.018812837,-9.713233,-1.3502485
1409346425169,0.12389994,-10.016143,-2.0602105,-0.012592356,-9.706785,-1.3959049
1409346425175,0.23044191,-9.903615,-2.172738,5.079495E-4,-9.698763,-1.4506449
1409346425195,0.3537433,-9.8198185,-2.2170308,0.021358723,-9.689127,-1.5135272
1409346425197,0.46866497,-9.768343,-2.2158337,0.051581133,-9.678927,-1.5767473
1409346425203,0.5734113,-9.766547,-2.2254105,0.09070903,-9.668524,-1.637621
1409346425231,0.6607997,-9.825205,-2.255338,0.1350532,-9.65802,-1.6955273
1409346425231,0.7320272,-9.892841,-2.2691047,0.18210867,-9.647271,-1.7514
1409346425235,0.82001406,-9.985617,-2.2577322,0.23122546,-9.636687,-1.8031083
1409346425243,0.9223662,-10.089166,-2.2457612,0.28393766,-9.62693,-1.847161
1409346425264,1.0378864,-10.110714,-2.2080526,0.34023938,-9.618044,-1.8835815
1409346425264,1.1139023,-10.059238,-2.1080947,0.40155223,-9.610558,-1.909536
1409346425275,1.1797429,-10.011953,-2.0260932,0.4654393,-9.6041355,-1.9272628
1409346425309,1.2192472,-10.126875,-2.0153193,0.52968174,-9.598932,-1.936576
1409346425310,1.210269,-10.207081,-1.934515,0.59149057,-9.594257,-1.9418361
1409346425312,1.1767502,-10.277111,-1.8495208,0.6462024,-9.591706,-1.9370027
1409346425353,1.1492168,-10.210671,-1.714847,0.6921414,-9.591293,-1.9231303
1409346425354,1.06123,-10.102334,-1.543063,0.73115623,-9.593306,-1.8984927
1409346425356,0.9295488,-9.969456,-1.3617022,0.75964785,-9.598525,-1.8605502
1409346425357,0.7751228,-9.88925,-1.1994951,0.7728183,-9.606733,-1.8121395
1409346425358,0.623091,-9.814431,-1.0702082,0.7756649,-9.617586,-1.7523692
1409346425402,0.47165772,-9.845556,-0.94451255,0.7640496,-9.630126,-1.6873964
1409346425403,0.29209262,-9.94312,-0.83258367,0.7385782,-9.644511,-1.6150165
1409346425403,0.109534726,-10.028712,-0.74399817,0.69832045,-9.660423,-1.5358924
1409346425404,-0.08798691,-10.142437,-0.6715736,0.64344054,-9.6769905,-1.4533532
1409346425406,-0.23702596,-10.301651,-0.61171854,0.5735691,-9.693437,-1.3706601
1409346425424,-0.3357868,-10.411784,-0.56203884,0.49499857,-9.70873,-1.2907199
1409346425424,-0.40162733,-10.390836,-0.45070848,0.4137249,-9.722871,-1.2103841
1409346425451,-0.41060558,-10.263344,-0.36750996,0.33355653,-9.735679,-1.1294606
1409346425452,-0.30645782,-10.037092,-0.24540567,0.25971332,-9.746636,-1.0516856
1409346425462,-0.23882163,-10.173561,-0.32321724,0.20423166,-9.756019,-0.97403914
1409346425479,-0.12928689,-10.42196,-0.51355624,0.16224019,-9.762936,-0.9105618
1409346425479,0.04369418,-10.653001,-0.7080852,0.13642362,-9.767143,-0.86872375
1409346425483,0.23343466,-10.706271,-0.9115923,0.129623,-9.769162,-0.84679484
1409346425505,0.41958386,-10.538677,-1.049259,0.14089258,-9.769097,-0.8457351
1409346425505,0.5955577,-10.259154,-1.1366472,0.16817689,-9.767634,-0.85756874
1409346425524,0.6889315,-9.997588,-1.204882,0.20903292,-9.765094,-0.877299
1409346425525,0.7314286,-9.782109,-1.2216414,0.25486907,-9.761544,-0.90426826
1409346425545,0.75237787,-9.677961,-1.2551602,0.3020742,-9.757434,-0.9336133
1409346425545,0.7350199,-9.689933,-1.2964603,0.34757134,-9.752911,-0.96453506
1409346425557,0.7206547,-9.725846,-1.3706805,0.38727587,-9.748259,-0.99591863
1409346425580,0.66618663,-9.7803135,-1.4550761,0.42205432,-9.743184,-1.0308427
1409346425581,0.54049104,-9.902418,-1.5592239,0.4476295,-9.738128,-1.06718
1409346425586,0.39624038,-10.004171,-1.6915035,0.45815176,-9.733231,-1.1066688
1409346425606,0.2813187,-10.122087,-1.8321629,0.45419368,-9.72811,-1.1523885
1409346425606,0.19752164,-10.210671,-1.9578584,0.43874565,-9.722417,-1.2052026
1409346425622,0.13587095,-10.187927,-2.0213048,0.4151184,-9.715831,-1.2651985
1409346425623,0.055066638,-10.137649,-2.079364,0.38769293,-9.7086315,-1.3276185
1409346425637,-0.03172317,-10.0987425,-2.168548,0.3560884,-9.70072,-1.3927088
1409346425652,-0.06703765,-10.100538,-2.2002714,0.3190876,-9.69211,-1.4599835
1409346425655,-0.14604631,-10.108319,-2.171541,0.28240767,-9.683142,-1.5255793
1409346425676,-0.19991584,-10.188525,-2.1272483,0.24094167,-9.675109,-1.5825921
1409346425692,-0.22026655,-10.248381,-2.0697873,0.19758476,-9.668434,-1.6287217
1409346425693,-0.2112883,-10.202292,-2.0254946,0.15568683,-9.663306,-1.6633269
1409346425706,-0.15741876,-10.134656,-1.9752164,0.11804332,-9.659059,-1.6908646
1409346425706,-0.09636662,-10.144233,-1.9620483,0.088802904,-9.655663,-1.7119243
1409346425721,-0.050278235,-10.175357,-1.9734207,0.0682064,-9.652629,-1.7298917
1409346425724,-0.037708677,-10.14543,-1.9201498,0.05509382,-9.649872,-1.74567
1409346425741,-0.0724246,-10.056845,-1.8100165,0.04393062,-9.6477995,-1.7573961
1409346425754,-0.094570965,-9.988609,-1.6813282,0.030706104,-9.647424,-1.7597426
1409346425755,-0.0712275,-9.988011,-1.5472529,0.016766427,-9.648958,-1.751488
1409346425773,-0.037110128,-10.051457,-1.4718355,0.005800211,-9.65265,-1.7311008
1409346425775,-0.0023942017,-10.144831,-1.4131776,-0.0013245266,-9.657479,-1.703972
1409346425794,0.015562311,-10.218452,-1.3359646,-0.0045925886,-9.663078,-1.6719161
1409346425797,0.060453594,-10.238205,-1.2910733,-0.00512538,-9.669538,-1.6341447
1409346425804,0.08499416,-10.267534,-1.2246342,-0.00242372,-9.675879,-1.5961739
1409346425823,0.08619126,-10.214862,-1.1013328,0.0017614567,-9.682549,-1.5551991
1409346425826,0.10115502,-10.125079,-0.9876082,0.0059936875,-9.689958,-1.508345
1409346425837,0.14065935,-10.03769,-0.87328506,0.011358137,-9.697875,-1.4565351
1409346425859,0.15322891,-10.011953,-0.7966706,0.020450376,-9.70628,-1.3993393
1409346425859,0.20350714,-9.999982,-0.7978677,0.030764265,-9.714679,-1.3395845
1409346425876,0.28311434,-9.988609,-0.83138657,0.045857206,-9.722006,-1.2848785
1409346425876,0.3513491,-9.993997,-0.91338795,0.06765841,-9.727765,-1.2395234
1409346425894,0.44113165,-9.948506,-0.9498995,0.09424364,-9.731818,-1.205501
1409346425896,0.62967503,-9.809045,-0.9588778,0.12778671,-9.734652,-1.1792551
1409346425904,0.6877344,-9.772532,-0.9271546,0.17695144,-9.736332,-1.1588567
1409346425927,0.7445967,-9.913791,-1.0007763,0.2275079,-9.737763,-1.1378043
1409346425928,0.78769237,-10.105327,-1.0690111,0.278705,-9.738028,-1.1240686
1409346425935,0.81522566,-10.125079,-1.0582372,0.32867286,-9.737412,-1.1158725
1409346425957,0.86610246,-9.958682,-0.96067345,0.37480187,-9.736724,-1.1072949
1409346425957,0.86969376,-9.7084875,-0.81642276,0.4225807,-9.736563,-1.0914
1409346425973,0.81043726,-9.508572,-0.7392098,0.46622315,-9.73732,-1.0665988
1409346425995,0.7044938,-9.461885,-0.789488,0.50043344,-9.738717,-1.0379663
1409346425995,0.6039374,-9.60853,-0.93852705,0.52224404,-9.739941,-1.0154823
1409346425996,0.480636,-9.808446,-1.09834,0.5321625,-9.740383,-1.00604
1409346426006,0.3705027,-9.949105,-1.1911154,0.52706605,-9.740256,-1.0099492
1409346426020,0.25977087,-9.903017,-1.2018893,0.5115417,-9.739842,-1.0218571
1409346426024,0.1328782,-9.789292,-1.1719618,0.48698214,-9.739609,-1.0359788
1409346426038,0.010773907,-9.730635,-1.1546037,0.45222208,-9.74016,-1.0465058
1409346426060,-0.08738836,-9.719262,-1.2006922,0.40990242,-9.741064,-1.0554706
1409346426061,-0.17417817,-9.8276,-1.2683283,0.36278352,-9.741664,-1.0671484
1409346426066,-0.26874915,-10.042479,-1.3850456,0.31201982,-9.741738,-1.0823916
1409346426093,-0.36990416,-10.349535,-1.5406688,0.2580109,-9.740798,-1.104842
1409346426094,-0.43514615,-10.527305,-1.6460136,0.19929917,-9.738525,-1.1365794
1409346426098,-0.47105917,-10.553641,-1.6328455,0.13809885,-9.735082,-1.1745257
1409346426104,-0.53570265,-10.5680065,-1.5616181,0.080063425,-9.731723,-1.207301
1409346426126,-0.5931635,-10.519524,-1.472434,0.019478608,-9.729089,-1.2307868
1409346426126,-0.63206923,-10.408792,-1.4383167,-0.040967677,-9.727261,-1.2446406
1409346426136,-0.6380547,-10.296863,-1.4371196,-0.09975246,-9.725526,-1.2548338
1409346426159,-0.61112,-10.119094,-1.4730326,-0.15447102,-9.723634,-1.2639135
1409346426160,-0.58418524,-9.846154,-1.4999673,-0.20294367,-9.721126,-1.2762997
1409346426165,-0.5374983,-9.553463,-1.423353,-0.2446493,-9.717864,-1.2937036
1409346426201,-0.4249708,-9.387665,-1.4772224,-0.27561495,-9.715263,-1.306948
1409346426202,-0.30825347,-9.31524,-1.8513165,-0.29262424,-9.715763,-1.2995126
1409346426203,-0.207697,-9.346964,-2.2254105,-0.31032357,-9.714656,-1.3036668
1409346426204,-0.11492168,-9.680356,-2.694674,-0.32743895,-9.711854,-1.3202541
1409346426238,-0.04129998,-10.141838,-2.9879637,-0.3415841,-9.706905,-1.352667
1409346426239,0.054468088,-10.2974615,-2.8634653,-0.35344577,-9.700096,-1.3977064
1409346426239,0.044891283,-10.303447,-2.4013844,-0.36513007,-9.69237,-1.4474305
1409346426264,0.15741876,-10.191518,-2.1176715,-0.3807079,-9.6852865,-1.4901874
1409346426269,0.0664391,-10.264542,-1.7980455,-0.39657998,-9.676811,-1.5402672
1409346426269,-0.05626374,-10.2896805,-1.6950948,-0.4161258,-9.667005,-1.5957036
1409346426300,0.019153614,-10.230424,-1.8154035,-0.43620825,-9.655548,-1.6584742
1409346426300,0.29628247,-10.240001,-1.7567455,-0.4531737,-9.642322,-1.7293527
1409346426301,0.6500258,-10.261548,-1.702876,-0.46479604,-9.628534,-1.801576
1409346426306,0.90620536,-10.214862,-1.6232687,-0.47126493,-9.6139,-1.876493
1409346426320,0.98102415,-10.253169,-1.5831659,-0.47261432,-9.598298,-1.9544004
1409346426324,1.0660183,-10.403405,-1.5454572,-0.46896425,-9.582167,-2.03287
1409346426339,1.1294646,-10.594941,-1.5251064,-0.4570254,-9.56528,-2.1135085
1409346426355,1.3036429,-10.506355,-1.1833342,-0.43478844,-9.548157,-2.1940944
1409346426356,1.5221137,-10.044274,-1.0241197,-0.40231678,-9.533056,-2.2648084
1409346426388,1.6376339,-9.718663,-0.95109665,-0.36282882,-9.519026,-2.3295693
1409346426389,1.6454151,-9.583989,-0.90979666,-0.3210209,-9.506223,-2.387269
1409346426390,1.7118542,-9.386468,-0.91817635,-0.2774784,-9.495187,-2.4361513
1409346426416,1.7806876,-9.247604,-0.9247604,-0.22775458,-9.4846735,-2.4818254
1409346426416,1.8776526,-9.161413,-1.0720038,-0.1745584,-9.474991,-2.5227878
1409346426417,1.821389,-9.222465,-1.1318588,-0.11421558,-9.46528,-2.5623846
1409346426436,1.5688007,-9.471462,-1.1857284,-0.04879092,-9.45625,-2.5975587
1409346426436,1.1456255,-9.846753,-1.2629414,0.021261692,-9.448642,-2.6254716
1409346426450,0.6039374,-10.198102,-1.3018472,0.09555238,-9.442472,-2.6459358
1409346426468,-0.011372458,-10.33517,-1.246182,0.17083617,-9.438208,-2.657342
1409346426468,-0.62967503,-10.489596,-1.204882,0.24356093,-9.43637,-2.6581967
1409346426486,-1.1492168,-10.729016,-1.4646529,0.30745208,-9.436063,-2.6526556
1409346426486,-1.5089456,-11.236588,-1.8261774,0.36452833,-9.437856,-2.6390152
1409346426506,-1.6280571,-12.021287,-2.3169887,0.41174832,-9.441998,-2.6171603
1409346426506,-1.5688007,-12.726379,-2.5510218,0.44701722,-9.446432,-2.5952792
1409346426524,-1.7351977,-12.844294,-2.565387,0.47284898,-9.449345,-2.5800505
1409346426525,-1.8764555,-12.397775,-2.4265234,0.48953065,-9.448786,-2.578998
1409346426536,-1.8926164,-11.850699,-2.0811598,0.50225365,-9.443874,-2.5944884
1409346426554,-2.148796,-11.498154,-1.6089035,0.51457274,-9.438136,-2.6128938
1409346426556,-2.5258827,-11.406575,-1.3628993,0.523539,-9.4318,-2.633902
1409346426573,-2.7036524,-11.314998,-1.2791022,0.52254564,-9.425718,-2.655778
1409346426594,-2.6844985,-11.238981,-1.0103531,0.5168269,-9.419546,-2.6786933
1409346426594,-2.6222494,-11.055825,-0.6135142,0.5066861,-9.413256,-2.7026434
1409346426596,-2.5073278,-11.102511,0.007182605,0.49143532,-9.404446,-2.73592
1409346426608,-2.6084828,-11.6908865,0.8643068,0.47475833,-9.390623,-2.7858968
1409346426622,-2.5659857,-12.673707,2.0991163,0.45810238,-9.372444,-2.8491805
1409346426636,-2.5863364,-13.723564,3.2495303,0.44404873,-9.358978,-2.8952982
1409346426638,-2.7940333,-14.407707,4.1695023,0.43092737,-9.352033,-2.9196265
1409346426651,-2.7563248,-14.531608,4.1641154,0.40986618,-9.358973,-2.900347
1409346426656,-2.594716,-14.116812,3.8983588,0.3771309,-9.380317,-2.8351033
1409346426668,-2.5719712,-13.343485,4.214992,0.3279986,-9.414906,-2.724401
1409346426684,-3.1507695,-12.644977,3.6834793,0.25755087,-9.460273,-2.5704656
1409346426685,-4.4304705,-11.963227,2.2762873,0.1607371,-9.50708,-2.4000022
1409346426703,-4.662708,-11.238382,2.1625626,0.03182459,-9.546248,-2.2446651
1409346426705,-4.4442368,-11.572972,0.7553706,-0.10567133,-9.585563,-2.0678945
1409346426728,-3.2704794,-12.543821,-0.8331822,-0.25879547,-9.622459,-1.8739545
1409346426728,-1.7190368,-12.880805,-1.4754268,-0.41847792,-9.657226,-1.653255
1409346426736,-0.29029694,-12.803592,-2.344522,-0.5763735,-9.687287,-1.4123149
1409346426760,0.6691794,-14.130578,-2.3397336,-0.7283808,-9.707545,-1.1846664
1409346426760,1.5113398,-15.498865,-1.3587095,-0.86837083,-9.71986,-0.96985
1409346426765,2.837129,-16.348207,0.05746084,-0.99304456,-9.72746,-0.7488566
1409346426791,3.9600096,-17.042526,0.89423436,-1.0932268,-9.73231,-0.5073433
1409346426792,4.76925,-17.696144,0.79846627,-1.1751907,-9.732678,-0.25353643
1409346426796,7.2981253,-17.174208,-5.7359085,-1.2444497,-9.727368,0.0026644883
1409346426805,6.6283474,-15.300146,-6.441001,-1.271464,-9.722728,0.14938177
1409346426831,4.698621,-13.396157,-5.693412,-1.3336442,-9.710677,0.30742273
1409346426831,2.1739352,-12.595297,-3.4410665,-1.4194635,-9.69161,0.47770026
1409346426836,-1.1552023,-12.4468565,-4.1162314,-1.4976416,-9.669635,0.65239376
1409346426858,-3.3225534,-11.930905,-5.45459,-1.5689763,-9.646877,0.80403334
1409346426859,-3.459023,-11.205462,-3.654749,-1.6515628,-9.621013,0.9374632
1409346426865,-2.3463178,-10.792462,-1.6633717,-1.7374027,-9.588534,1.1008319
1409346426894,-1.6561891,-10.257957,-2.2948422,-1.8452299,-9.546619,1.2757535
1409346426894,-0.260968,-9.593566,-2.19668,-1.9825203,-9.498488,1.4208122
1409346426896,1.9249382,-8.760384,-3.1663318,-2.1281683,-9.4479475,1.5419346
1409346426905,3.7582982,-7.583634,-4.0803185,-2.2705173,-9.401842,1.6187972
1409346426926,4.183269,-6.719327,-4.167108,-2.4032145,-9.3630295,1.6518593
1409346426927,4.011485,-6.0543375,-4.572925,-2.5334756,-9.325513,1.6693386
1409346426938,3.9989154,-5.2504845,-4.0336313,-2.651714,-9.291593,1.6748421
1409346426960,2.6473885,-4.763264,-4.338892,-2.7662585,-9.254365,1.6955678
1409346426961,1.0899603,-4.8464627,-2.7168205,-2.8844106,-9.211777,1.7302415
1409346426966,0.5255273,-4.654927,-0.7314286,-2.9946828,-9.164885,1.7908517
1409346426995,0.7009025,-4.3035774,-0.47285482,-3.0763366,-9.118955,1.884468
1409346426996,1.3754689,-3.8606503,-1.0390835,-3.1269407,-9.077905,1.9960718
1409346426998,2.6809072,-3.459023,-1.1234791,-3.1635249,-9.042698,2.0957344
1409346427005,3.5954924,-3.0759506,-2.0470424,-3.2040865,-9.011001,2.169358
1409346427024,4.1892543,-2.5198972,-3.153762,-3.242594,-8.986213,2.2144887
1409346427026,4.3819876,-2.1906946,-3.9977183,-3.280132,-8.968997,2.22895
1409346427036,4.4597993,-1.9620483,-4.2437224,-3.309129,-8.960835,2.218897
1409346427058,4.2945995,-1.5861586,-4.162918,-3.3223536,-8.963599,2.1877508
1409346427059,4.3077674,-1.7938557,-3.8468835,-3.313118,-8.978161,2.1415546
1409346427065,4.2922053,-2.5971103,-3.371036,-3.2753434,-9.005585,2.0837357
1409346427090,3.6224272,-4.0054994,-2.0901382,-3.2181957,-9.03918,2.0265298
1409346427090,1.6238673,-6.5140243,1.3910311,-3.135635,-9.084077,1.9538999
1409346427097,-2.441487,-10.891224,9.978435,-3.0241082,-9.138704,1.8733003
1409346427105,-10.05445,-17.867329,19.001581,-2.8880444,-9.183221,1.8703021
1409346427132,-16.85099,-19.608511,16.910845,-2.769302,-9.244565,1.7433769
1409346427133,-19.516933,-19.608511,8.1079645,-2.6909676,-9.288731,1.6274474
1409346427137,-17.34659,-19.608511,3.515885,-2.713369,-9.303452,1.5012686
1409346427159,-12.339117,-17.129316,2.4390929,-2.817149,-9.302246,1.3047131
1409346427159,-8.443152,-13.114839,2.7018566,-4.0478625,-8.681015,2.103609
1409346427165,-6.273407,-11.726201,4.483143,-4.179751,-8.630819,2.0515904
1409346427193,-3.7523127,-11.379641,5.4593782,-4.1660514,-8.592468,2.2324662
1409346427194,-0.74758947,-10.645219,4.361637,-4.011825,-8.592611,2.4985392
1409346427197,2.678513,-11.083957,1.4957775,-3.7066183,-8.666326,2.7066886
1409346427206,5.919065,-13.99351,-1.5664065,-3.1787333,-8.878594,2.6900914
1409346427226,5.209184,-14.252084,-2.9376855,-2.3936563,-9.21679,2.3434114
1409346427226,2.0129251,-14.872781,-2.7395654,-1.7358307,-9.469523,1.8669271
1409346427238,-0.5386954,-13.810354,2.385822,-1.3594053,-9.605252,1.4358076
1409346427253,3.0388405,-8.737639,-2.1817162,-1.2317066,-9.621102,1.4448777
1409346427278,4.477157,-8.209119,-4.160524,-0.91254944,-9.698007,1.1341563
1409346427279,4.022857,-8.802881,-4.06296,-0.49755087,-9.767727,0.7171904
1409346427280,3.394978,-9.250597,-2.1350293,-0.11291648,-9.799271,0.3632526
1409346427285,4.538808,-7.916428,-0.65660983,0.22626258,-9.802635,0.16594401
1409346427309,5.6586957,-7.00304,-0.16998832,0.64929134,-9.785052,0.039391514
1409346427310,5.394735,-7.3753386,-0.82480246,1.135701,-9.740646,-0.020227965
1409346427317,4.155137,-8.644864,-1.8267759,1.5397391,-9.683883,-0.14832945
1409346427340,3.2770636,-9.761759,-2.4378958,1.8050226,-9.633817,-0.31917292
1409346427340,2.8856115,-10.363302,-2.7886465,1.9790328,-9.591052,-0.51529753
1409346427345,2.7682958,-10.140042,-2.7419596,2.0856216,-9.554687,-0.7270026
1409346427374,2.9203274,-9.503783,-2.2637177,2.1540432,-9.522906,-0.9191081
1409346427375,2.8473043,-9.19972,-1.7441759,2.22639,-9.492259,-1.0538527
1409346427377,2.5552118,-9.281123,-1.3215994,2.2901468,-9.467831,-1.1339456
1409346427386,2.1936872,-9.733028,-1.0013748,2.3263032,-9.455464,-1.1631442
1409346427408,1.6525977,-10.370484,-0.7906851,2.323931,-9.456774,-1.1572131
1409346427408,1.0516531,-11.023503,-0.94331545,2.2645726,-9.475947,-1.1173779
1409346427419,0.4309563,-11.536461,-1.4933833,2.1425762,-9.508385,-1.0818279
1409346427442,-0.033518825,-11.406575,-1.7298107,1.9630028,-9.546612,-1.0859119
1409346427442,-0.25857377,-10.518327,-1.780089,1.7560061,-9.585284,-1.0996213
1409346427446,-0.4201824,-9.619304,-1.8435353,1.5566753,-9.617491,-1.1184958
1409346427472,-0.21547815,-9.530719,-2.1332338,1.3708637,-9.639562,-1.1704636
1409346427473,0.08678981,-9.792884,-2.2601264,1.2166905,-9.653051,-1.2282676
1409346427479,0.15023616,-9.844358,-1.6801311,1.098751,-9.656866,-1.3069372
1409346427486,0.29747957,-9.594764,-0.80684596,1.0050913,-9.662217,-1.3422891
1409346427505,-0.0011971008,-9.193136,-0.4866215,0.94967246,-9.671777,-1.3134894
1409346427525,-1.1935096,-9.074623,-1.2186487,0.8832374,-9.683919,-1.2696383
1409346427526,-3.7062242,-10.067618,-3.9641995,0.70902914,-9.694841,-1.2952555
1409346427526,-5.947197,-11.294646,-6.4368114,0.29106006,-9.679528,-1.5467428
1409346427559,-4.283227,-10.596138,-6.3404446,-0.30851126,-9.598276,-1.9870378
1409346427559,-2.955642,-9.770737,-4.063559,-0.6922341,-9.479867,-2.4131613
1409346427560,-1.7465701,-9.252393,-2.083554,-0.92953914,-9.399556,-2.6371734
1409346427566,-1.4526819,-9.389461,-1.1360487,-1.021535,-9.385298,-2.6538756
1409346427597,-1.4616601,-9.961076,-0.33279404,-1.066388,-9.409231,-2.5494275
1409346427597,-1.6944963,-10.359112,-0.03232172,-1.0897774,-9.456829,-2.35609
1409346427599,-1.6208745,-10.493188,0.25258827,-1.1253607,-9.503672,-2.1410635
1409346427623,-1.4209588,-10.50875,0.6135142,-1.1605372,-9.546473,-1.9205265
1409346427624,-1.389834,-10.596138,0.86370826,-1.1819354,-9.587717,-1.6879274
1409346427626,-1.2743138,-10.511743,1.2485762,-1.2037828,-9.62294,-1.4561301
1409346427639,-1.1899183,-10.138845,1.4987702,-1.2143338,-9.6552925,-1.2128923
1409346427660,-1.1749545,-10.152613,1.4772224,-1.2192287,-9.681542,-0.97549635
1409346427660,-1.1210849,-10.740988,1.8070238,-1.2175152,-9.700492,-0.7671638
1409346427666,-0.9648633,-11.164762,2.528277,-1.2008849,-9.716939,-0.55623436
1409346427689,-0.717662,-11.411364,2.9670146,-1.1711318,-9.731365,-0.31516334
1409346427689,-0.17118542,-12.299613,4.253299,-1.1232175,-9.741924,-0.06070923
1409346427697,-0.12449849,-12.328941,5.8909335,-1.0357937,-9.748385,0.25783542
1409346427745,-0.7350199,-11.641806,6.9569516,-0.9600686,-9.735215,0.68866104
1409346427747,-1.8309658,-11.464036,6.0369797,-0.95163333,-9.685911,1.2032925
1409346427747,-3.0172927,-12.49893,3.1214404,-1.0353239,-9.614491,1.6309651
1409346427748,-4.0384197,-14.055759,-0.53570265,-1.1856828,-9.566249,1.8031662
1409346427749,-5.185242,-14.891336,-3.5110967,-1.3636296,-9.56715,1.6674992
1409346427767,-5.229535,-13.92348,-3.50571,-1.5840757,-9.59732,1.2460048
1409346427767,-5.276222,-13.536218,-1.9195513,-1.7911258,-9.599845,0.8973445
1409346427786,-5.2642508,-14.151527,0.31902736,-1.9798743,-9.582012,0.6599442
1409346427786,-5.061941,-14.438233,3.6463692,-2.1378007,-9.553149,0.58098966
1409346427803,-4.334702,-14.375984,5.0374002,-2.2509255,-9.514531,0.75989485
1409346427830,-4.020463,-14.203602,5.023035,-2.3078682,-9.475233,1.0315514
1409346427831,-4.494515,-14.021643,4.7141833,-2.3565624,-9.431341,1.2910488
1409346427831,-4.718373,-13.304579,4.31076,-2.4459033,-9.376312,1.5075521
1409346427855,-3.9707835,-12.559383,0.078410104,-2.5562692,-9.323197,1.6473846
1409346427856,-3.6332011,-12.152967,-3.4434607,-2.6343472,-9.318889,1.5456141
1409346427857,-3.3842041,-12.505514,-5.41748,-2.7078047,-9.344416,1.2329001
1409346427866,-3.1854854,-13.004705,-5.9771247,-2.736791,-9.3823185,0.80774933
1409346427892,-2.3714569,-12.69705,-5.5288105,-2.730952,-9.412932,0.33018002
1409346427892,-1.8381484,-12.427104,-4.27365,-2.6813796,-9.432423,-0.09999464
1409346427900,-1.2773066,-13.116035,-3.490746,-2.606243,-9.445836,-0.39251867
1409346427949,-0.4794389,-14.156915,-3.6074634,-2.4782488,-9.47101,-0.5732386
1409346427949,0.78170687,-17.037737,-3.4991257,-2.2894928,-9.505384,-0.7591327
1409346427950,3.0705638,-19.58038,-1.9548657,-2.0008876,-9.559008,-0.89006376
1409346427975,5.897517,-19.608511,1.8231846,-1.303968,-9.710093,-0.42906633
1409346427975,9.154829,-19.608511,4.1264067,-1.303968,-9.710093,-0.42906633
1409346427975,11.554418,-19.562424,1.9698294,-1.303968,-9.710093,-0.42906633
1409346427976,8.313267,-15.881937,-0.6799533,-1.5556175,-9.681349,-0.14801644
1409346427986,4.634576,-12.188881,-4.7441106,0.9493489,-9.760427,-0.056216393
1409346427987,2.8963854,-10.649409,-6.941988,1.1904382,-9.729059,-0.31403643
1409346428035,2.8395233,-9.378088,-6.579266,1.3339392,-9.687988,-0.7306655
1409346428036,3.05141,-8.605958,-4.1533413,1.4317528,-9.636588,-1.1210002
1409346428038,2.8389246,-8.093,-2.9406781,1.5242393,-9.593224,-1.3480042
1409346428038,1.602918,-7.699753,-2.7605145,1.6168519,-9.557032,-1.489733
1409346428054,-1.3365631,-7.397485,-5.185242,1.6436484,-9.532231,-1.6141251
1409346428054,-2.1200657,-5.9005103,-6.5858502,1.4499139,-9.508089,-1.9142584
1409346428057,-2.171541,-4.1120415,-7.2484455,1.1904736,-9.448741,-2.3397586
1409346428066,-1.5981296,-3.8115692,-5.3965306,0.93037736,-9.335197,-2.8563733
1409346428088,-0.36511576,-4.6393642,-2.861071,0.72237056,-9.225661,-3.2458863
1409346428088,0.008978256,-5.2941785,-1.83336,0.6501918,-9.180598,-3.3858893
1409346428097,0.89603,-5.0864816,-1.9045875,0.6078648,-9.181317,-3.3918047
1409346428124,1.7681179,-5.075109,-1.2587515,0.6393968,-9.175216,-3.402496
1409346428125,2.6204538,-5.0362034,-0.60932434,0.7674498,-9.184237,-3.3512962
1409346428126,3.6403837,-4.1958385,-1.8142064,1.0080541,-9.2030525,-3.233892
1409346428174,5.531803,-2.7850552,-1.7076644,1.372646,-9.144176,-3.2665427
1409346428174,5.949591,-2.2481554,-2.4492683,1.9962431,-9.007788,-3.3234313
1409346428175,6.091448,-1.6358383,-3.5913026,2.6765594,-8.77584,-3.462813
1409346428175,5.85921,-1.1641805,-3.945046,3.3528216,-8.42265,-3.7400494
1409346428177,5.6586957,-1.1438298,-3.9121256,3.9720738,-7.998447,-4.0519
1409346428186,5.3881507,-2.2254105,-3.0789435,4.520391,-7.546963,-4.3335648
1409346428202,5.145139,-3.9839516,-0.7015011,4.948747,-7.2033563,-4.4488115
1409346428219,3.8301241,-6.736685,3.9228995,5.2807217,-7.130988,-4.175333
1409346428219,0.013766659,-10.903793,9.202713,5.4224815,-7.496041,-3.2521443
1409346428233,-6.827066,-16.569672,17.15625,4.898377,-8.348476,-1.5745693
1409346428257,-16.01721,-19.608511,19.351734,4.9833837,-8.257987,-1.7725568
1409346428257,-17.979258,-19.608511,14.829086,5.06952,-8.159509,-1.9730133
1409346428259,-14.465767,-19.608511,9.272144,5.120885,-8.079106,-2.162168
1409346428266,-9.476251,-17.672201,3.7247794,5.1200037,-8.031308,-2.3353941
1409346428283,-5.872977,-13.1794815,2.9903579,-2.7042654,-8.777537,3.436883
1409346428306,-4.9302597,-11.854291,5.597045,-2.9036415,-8.7945,3.2242854
1409346428306,-2.4540567,-10.159795,6.269217,-3.0009716,-8.740494,3.2815142
1409346428307,0.64463884,-8.924985,5.3923407,-2.925849,-8.699663,3.4533536
1409346428319,2.9538465,-11.174338,4.8398786,-2.6389203,-8.709452,3.6540296
1409346428335,4.8021703,-17.21431,1.532289,-2.1306455,-8.80028,3.7664065
1409346428351,5.2780175,-17.870321,-3.3135753,-1.4565333,-9.063976,3.4486551
1409346428351,3.0137014,-14.765042,-2.9376855,-0.8810998,-9.354597,2.8081222
1409346428363,0.23283611,-11.566388,-0.14664486,-0.58351976,-9.51243,2.3116148
1409346428366,1.4496891,-9.869498,-0.46686932,-0.51321054,-9.560743,2.121129
1409346428382,3.4278982,-8.905233,-2.7778726,-0.3477984,-9.61696,1.8877306
1409346428401,3.503914,-8.664616,-3.5990837,-0.0410311,-9.688785,1.5153114
1409346428402,2.5187001,-9.303269,-2.7395654,0.25137568,-9.736255,1.1456676
1409346428415,2.565387,-9.102157,-2.0602105,0.45857644,-9.759541,0.84350044
1409346428418,3.5643678,-8.280347,-1.5215151,0.6675357,-9.7679405,0.55867434
1409346428432,4.006098,-7.9391727,-1.7818847,0.93945235,-9.755625,0.3400006
1409346428451,3.2034419,-8.111555,-2.695871,1.2357401,-9.727413,0.1440826
1409346428451,2.5091233,-8.287529,-3.2890346,1.4426383,-9.699247,-0.11739626
1409346428478,2.5492263,-8.149862,-3.3680432,1.585008,-9.668497,-0.4222627
1409346428478,2.8173769,-8.059482,-2.956839,1.7210503,-9.627424,-0.72188866
1409346428479,2.9370868,-8.224682,-2.3175871,1.8630736,-9.579515,-0.9655197
1409346428499,2.8095956,-8.714295,-1.8549078,2.0022938,-9.533831,-1.1257471
1409346428500,2.566584,-9.554062,-1.5927427,2.1124475,-9.498513,-1.2190882
1409346428513,2.4007857,-10.582372,-1.5532384,2.1760552,-9.477536,-1.2694342
1409346428518,2.1398177,-11.914744,-1.4850036,2.1893265,-9.470972,-1.2953532
1409346428539,1.3479356,-13.488933,-1.3970166,2.1638224,-9.476517,-1.2976526
1409346428540,0.48961425,-14.552556,-1.2593501,2.042225,-9.506032,-1.2786844
1409346428547,-0.2861071,-14.337677,-1.2946646,1.8444966,-9.552122,-1.2349627
1409346428566,-0.54049104,-12.703634,-1.1797429,1.5996453,-9.602051,-1.1883494
1409346428566,-0.65301853,-11.270704,-1.5448587,1.3690531,-9.644018,-1.135335
1409346428583,0.09816227,-8.916606,-1.5693992,1.1584891,-9.672826,-1.1245985
1409346428602,0.6769605,-7.903858,-1.5095441,1.0640438,-9.679398,-1.1608126
1409346428603,0.95109665,-7.543531,-2.4181437,1.0302017,-9.677861,-1.2033739
1409346428606,-0.47105917,-8.136096,-1.6783354,1.034859,-9.6574135,-1.3541917
1409346428638,-1.9919758,-8.8777,-1.292869,0.9223589,-9.658225,-1.4277053
1409346428638,-2.2864625,-9.147048,-2.0260932,0.68178135,-9.671707,-1.4709342
1409346428640,-1.7794905,-9.291298,-2.653374,0.425579,-9.666178,-1.5982115
1409346428647,-1.0450691,-8.802282,-2.4390929,0.22653058,-9.646499,-1.7504666
1409346428672,-1.1061212,-8.711902,-2.516306,0.105467625,-9.63019,-1.8489802
1409346428672,-1.5263035,-9.147646,-2.4492683,-0.011391163,-9.612407,-1.9421482
1409346428681,-2.2062569,-9.739014,-2.0213048,-0.15773937,-9.597192,-2.0098276
1409346428708,-3.0621839,-10.393828,-1.1881226,-0.35144117,-9.591832,-2.010882
1409346428709,-4.0306387,-10.754155,-0.87687635,-0.61441845,-9.598657,-1.9127609
1409346428709,-3.7594953,-10.382456,-0.46088383,-0.9510969,-9.59418,-1.7937405
1409346428718,-2.9173348,-9.8437605,0.17776948,-1.2375985,-9.584104,-1.6684397
1409346428734,-2.4259248,-9.828796,0.44472298,-1.4249113,-9.581715,-1.5266764
1409346428759,-2.295441,-10.29387,0.40222588,-1.5258386,-9.589663,-1.371343
1409346428759,-2.3080103,-10.927136,0.5093664,-1.6002579,-9.594887,-1.2440637
1409346428760,-2.3505075,-11.463438,0.7356185,-1.6397187,-9.605171,-1.1056308
1409346428781,-2.2619221,-11.959038,1.1988965,-1.6667352,-9.617324,-0.94839704
1409346428782,-2.1272483,-12.345701,2.6443958,-1.6815516,-9.631519,-0.7593387
1409346428806,-1.7872716,-12.239758,4.551976,-1.6881247,-9.649214,-0.46182615
1409346428806,-1.5831659,-12.133814,4.59986,-1.6751927,-9.662417,-0.042779762
1409346428807,-1.4568717,-12.352883,3.8061821,-1.6558932,-9.661382,0.29336485
1409346428819,-1.8716671,-12.7497225,3.7062242,-1.6242908,-9.657623,0.5122029
1409346428832,-3.0693667,-13.502101,4.8614264,-1.6301897,-9.646557,0.67588437
1409346428853,-4.2999864,-14.161104,6.903681,-1.7237997,-9.609267,0.9278181
1409346428853,-4.64535,-14.153922,4.9583917,-1.888476,-9.525481,1.3671964
1409346428860,-4.8877625,-14.061745,-1.0953473,-2.0389476,-9.44338,1.6839355
1409346428867,-4.1174283,-14.157514,-2.184709,-2.160462,-9.440408,1.5432056
1409346428881,-3.6194344,-14.499286,-0.34596214,-2.1904585,-9.470549,1.2965329
1409346428897,-3.2962172,-14.083892,0.6572084,-2.1752944,-9.489645,1.1769042
1409346428898,-3.0597897,-14.371196,-0.034715924,-2.1456294,-9.504321,1.1111077
1409346428913,-3.6553473,-14.454992,1.3365631,-2.115617,-9.521192,1.0205159
1409346428929,-5.035605,-14.21258,5.555745,-2.1530414,-9.512579,1.0225625
1409346428929,-5.105635,-14.116213,8.501212,-2.2751853,-9.4494915,1.3042415
1409346428950,-3.9576154,-12.959215,6.0064535,-2.3936987,-9.34529,1.7624271
1409346428950,-2.8993783,-11.66874,0.36750996,-2.488092,-9.262341,2.046673
1409346428971,-2.48159,-11.168951,-3.9761705,-2.5599198,-9.26145,1.9602966
1409346428971,-2.6928782,-11.5155115,-5.490503,-2.5719569,-9.335576,1.5499806
1409346428980,-2.48159,-11.767501,-5.6299653,-2.583738,-9.399831,1.0666852
1409346428999,-2.1583729,-11.088745,-5.199009,-2.5637224,-9.448281,0.57244015
1409346429001,-1.929128,-11.344326,-4.0587707,-2.5380723,-9.471514,0.1378406
1409346429018,-1.5693992,-12.423512,-3.6296098,-2.4921606,-9.48323,-0.1669358
1409346429019,-0.7386112,-14.322115,-2.9765913,-2.4008331,-9.49945,-0.40842417
1409346429027,2.2260091,-19.51454,-0.374094,-2.2311838,-9.531887,-0.5790925
1409346429053,4.6962266,-19.608511,0.8774749,-1.8045689,-9.625458,-0.5143005
1409346429054,5.8999114,-19.608511,0.7517793,-1.2736744,-9.715913,-0.3862335
1409346429058,5.483919,-19.55524,-0.29628247,-0.74812007,-9.774366,-0.26918566
1409346429082,5.8562174,-16.924612,-2.1745336,-0.32151744,-9.7990885,-0.21189445
1409346429083,5.8921304,-13.7923975,-2.4995465,0.08204379,-9.802539,-0.2718203
1409346429100,4.0737343,-11.525088,-3.232771,0.45506257,-9.789545,-0.3579533
1409346429101,1.8860323,-10.659584,-5.1762643,0.6993092,-9.76769,-0.52307624
1409346429116,1.4263457,-10.047866,-5.0703206,0.80216277,-9.738414,-0.83076286
1409346429154,1.6466122,-9.566631,-4.7177744,0.8574907,-9.705949,-1.1089021
1409346429154,1.3126211,-9.935339,-4.859631,0.9187609,-9.666622,-1.3721248
1409346429155,0.47046062,-9.652225,-6.2746043,0.93331957,-9.62688,-1.6194129
1409346429155,0.06943185,-6.7372837,-5.915474,0.8872335,-9.568311,-1.9571973
1409346429161,1.5442601,-4.0096893,-5.005079,0.8395742,-9.492491,-2.3147593
1409346429168,2.6910827,-4.064756,-2.9921536,0.922159,-9.395986,-2.652453
1409346429184,3.1711202,-4.7884035,-1.9907787,1.1076021,-9.32923,-2.8123055
1409346429188,2.4953568,-4.5783124,-3.1908724,1.3350898,-9.286662,-2.8540947
1409346429199,1.8656816,-4.3341036,-2.5480292,1.5025527,-9.209719,-3.0155993
1409346429219,1.4496891,-4.2957964,-1.4915876,1.590658,-9.157802,-3.126476
1409346429220,1.8818425,-3.8965633,-1.3024458,1.6393194,-9.142818,-3.1451416
1409346429227,3.05141,-3.46022,-2.010531,1.7478739,-9.118365,-3.1576493
1409346429254,4.2054152,-2.7263973,-2.5629928,2.0000567,-9.034932,-3.2465627
1409346429254,4.847061,-1.8872294,-2.5761611,2.4133625,-8.875719,-3.401133
1409346429259,4.717176,-1.5047557,-2.7688942,2.9417958,-8.647952,-3.5677996
1409346429277,4.565144,-1.2072762,-3.6792896,3.4520998,-8.377746,-3.7505732
1409346429280,4.5962687,-1.062427,-4.1958385,3.9164069,-8.02142,-4.0606575
1409346429302,4.717176,-1.0893618,-3.9432502,4.3482537,-7.6032834,-4.410575
1409346429302,4.9613843,-1.536479,-3.2130187,4.759696,-7.172506,-4.697968
1409346429308,5.088876,-2.617461,-2.1212628,5.160363,-6.7914753,-4.8391094
1409346429339,4.4963107,-4.583699,-0.7422025,5.5142393,-6.557035,-4.771673
1409346429339,2.8568811,-7.6788034,2.9514523,5.7078147,-6.6056805,-4.4672384
1409346429340,-2.2002714,-13.733141,15.2013855,5.6283417,-7.1722755,-3.6125605
1409346429347,-15.081077,-19.589357,19.608511,4.7271495,-8.544476,-0.9035259
1409346429368,-19.60911,-19.608511,17.944542,4.8643584,-8.435966,-1.158831
1409346429386,-19.297266,-19.608511,10.074203,4.967982,-8.341052,-1.3843361
1409346429387,-12.497733,-19.209877,5.3199162,4.976406,-8.301358,-1.5789982
1409346429387,-7.693767,-12.975376,6.634333,4.931453,-8.303081,-1.7058711
1409346429413,-5.357026,-9.8042555,7.0102224,-3.4486413,-8.562107,3.3117318
1409346429414,-1.9578584,-8.779537,6.6445084,-3.5181408,-8.4355,3.554633
1409346429431,0.11252748,-7.7877398,4.547786,-3.337139,-8.387903,3.831053
1409346429432,2.6156654,-7.418434,3.3614593,-3.0638192,-8.416748,3.9927144
1409346429448,4.9440265,-11.931504,-1.3227965,-2.580056,-8.539434,4.073299
1409346429448,4.8374844,-14.877569,-5.5563436,-1.89819,-8.910556,3.6289463
1409346429473,3.493739,-13.445238,-5.7347116,-1.2745062,-9.314768,2.7894688
1409346429474,2.5019407,-11.707047,-2.724003,-0.8346429,-9.555721,2.0400872
1409346429479,2.6090813,-12.194268,-2.1888988,-0.5257357,-9.65867,1.6137186
1409346429495,2.634819,-12.084733,-2.4277205,-0.23011722,-9.7247,1.2440518
1409346429499,2.1936872,-12.158355,-2.098518,0.035314184,-9.764882,0.90345985
1409346429514,2.2301989,-11.68969,-1.2761095,0.24278058,-9.783447,0.62899
1409346429527,3.0723593,-10.479421,-0.724246,0.42934713,-9.787537,0.43610537
1409346429527,3.840898,-8.822035,-0.33279404,0.65794957,-9.7806,0.27818012
1409346429546,3.8660371,-8.309077,-0.41599256,0.9225468,-9.761511,0.17943536
1409346429548,3.1956608,-8.282741,-1.0067618,1.182934,-9.734373,0.114206225
1409346429565,2.7724855,-7.949947,-1.3928268,1.3948648,-9.706933,0.013812252
1409346429574,2.6755204,-7.542334,-1.4544775,1.5623469,-9.680695,-0.11670856
1409346429581,2.6767175,-7.680599,-1.2749124,1.7262653,-9.650447,-0.24347325
1409346429592,2.7048495,-8.144476,-1.0235212,1.8695489,-9.620671,-0.34331602
1409346429599,2.629432,-8.653842,-0.8403648,1.9948207,-9.5928755,-0.40969083
1409346429613,2.3391352,-9.051878,-0.81881696,2.094315,-9.569825,-0.45023853
1409346429627,2.0727801,-9.246407,-0.93613285,2.1488583,-9.556068,-0.48413172
1409346429628,1.8788497,-9.482835,-0.75956047,2.1697268,-9.54905,-0.5275664
1409346429650,1.1815386,-9.958682,-0.51834464,2.165063,-9.548673,-0.55297935
1409346429651,0.30047232,-10.51713,-0.47644615,2.0797157,-9.567932,-0.5475649
1409346429661,-0.51355624,-11.116877,-0.8643068,1.9108573,-9.603562,-0.53907764
1409346429682,-0.9463082,-11.416152,-1.5688007,1.6662545,-9.647671,-0.56252867
1409346429683,-0.5422867,-10.616488,-2.11827,1.3904239,-9.6863365,-0.6418702
1409346429695,0.24241292,-9.14226,-2.9454668,1.177785,-9.705598,-0.76459
1409346429716,0.89064306,-8.302493,-5.5982423,1.0691426,-9.700169,-0.96647394
1409346429717,-1.3826514,-9.118916,-7.004237,1.0510975,-9.646009,-1.4213021
1409346429719,-3.1800983,-10.049063,-5.021838,0.8064713,-9.573742,-1.965573
1409346429728,-2.4438813,-9.144054,-4.4765587,0.4320856,-9.528406,-2.2788599
1409346429753,-1.501763,-8.409035,-5.2917843,0.16897038,-9.459937,-2.5790434
1409346429753,-0.9720459,-8.759786,-4.76087,0.020565234,-9.363453,-2.9147406
1409346429761,-1.377863,-10.195708,-3.6218286,-0.06748305,-9.298929,-3.1137972
1409346429785,-2.4265234,-11.675923,-2.3391352,-0.19344635,-9.288624,-3.139177
1409346429786,-3.1800983,-12.163143,-1.3120226,-0.41184214,-9.326567,-3.0026517
1409346429788,-3.5924997,-12.105682,-0.93732995,-0.6770178,-9.380594,-2.777855
1409346429817,-2.8886044,-11.2449665,-0.83737206,-0.9347011,-9.422778,-2.551071
1409346429817,-2.0709844,-10.59554,-0.1604115,-1.1133718,-9.447347,-2.3829386
1409346429821,-1.7220296,-10.953473,0.19931729,-1.2057135,-9.478725,-2.2068992
1409346429828,-2.099715,-11.790845,0.3633201,-1.2436551,-9.51629,-2.0159287
1409346429846,-2.4833858,-12.211027,0.64823014,-1.2903274,-9.551192,-1.8111346
1409346429848,-2.6862943,-12.013506,1.1994951,-1.3595848,-9.579716,-1.5971763
1409346429864,-2.7263973,-11.45865,2.498948,-1.4524522,-9.602529,-1.3609641
1409346429879,-2.381632,-10.882245,5.151125,-1.5475144,-9.628077,-1.0371674
1409346429882,-1.4221559,-10.88823,7.052121,-1.6280396,-9.65639,-0.52344406
1409346429899,-1.2186487,-11.719019,7.08564,-1.6174829,-9.672005,0.08025956
1409346429899,-0.96426475,-12.517485,5.9998693,-1.5826833,-9.660585,0.58185875
1409346429908,-1.3389573,-13.261483,5.9759274,-1.5327904,-9.642297,0.9203675
1409346429932,0.26874915,-12.737752,8.329428,-1.5198941,-9.607044,1.2510041
1409346429933,-1.0079589,-10.576386,2.825158,-1.3969451,-9.534663,1.8191048
1409346429941,-3.2441432,-12.078149,-3.4919431,-1.3782086,-9.5006695,2.0020492
1409346429948,-4.6273932,-13.825916,-5.084686,-1.4717842,-9.564476,1.5890343
1409346429969,-4.732738,-14.235924,-4.4208937,-1.6231855,-9.6041565,1.138337
1409346429969,-4.7004166,-14.211383,-2.5677812,-1.744283,-9.621599,0.7434446
1409346429979,-5.1385555,-14.115615,-1.1593921,-1.8747754,-9.613062,0.49460873
1409346430004,-4.7985787,-13.255498,-3.1142578,-2.043558,-9.584145,0.37208486
1409346430005,-5.0679264,-13.445837,-0.51475334,-2.1913912,-9.558156,0.09911753
1409346430008,-5.007473,-14.192229,3.2160115,-2.3398883,-9.523337,0.036996983
1409346430034,-5.2462945,-14.859612,8.710106,-2.4425004,-9.4944725,0.2440536
1409346430035,-4.803367,-15.111603,11.605294,-2.5260572,-9.440459,0.8168083
1409346430039,-2.9981391,-14.591462,8.374319,-2.572741,-9.339458,1.5250945
1409346430048,-1.0247183,-13.482946,2.5887306,-2.5405974,-9.267202,1.9582452
1409346430068,-0.25498247,-12.811972,-1.5011644,-2.4546666,-9.28137,2.0002902
1409346430069,-0.85652566,-13.317747,-4.459201,-2.35178,-9.348303,1.8024291
1409346430080,-1.1677719,-13.649942,-6.455366,-2.2416444,-9.442785,1.4068458
1409346430102,-0.6925228,-12.625823,-6.9491706,-2.1213322,-9.536279,0.85424364
1409346430102,-0.45789108,-11.8896055,-5.4779334,-1.9868147,-9.598501,0.3028804
1409346430108,-0.39923313,-11.680712,-5.0918684,-1.871699,-9.625285,-0.14497562
1409346430138,-0.0011971008,-12.584522,-4.973954,-1.7587644,-9.634759,-0.4985274
1409346430139,0.7098808,-14.834474,-4.4442368,-1.6285352,-9.637871,-0.79353803
1409346430139,1.4526819,-17.959505,-2.3678656,-1.4492451,-9.646583,-1.0067265
1409346430171,2.3995886,-19.608511,1.0839748,-1.2150326,-9.676989,-1.0246798
1409346430172,3.7217865,-19.608511,2.2331917,-0.9339995,-9.729608,-0.79548085
1409346430173,4.2916064,-19.519926,-0.03232172,-0.6013152,-9.774032,-0.52640086
1409346430181,4.4328647,-17.332224,-2.7042508,-0.28150034,-9.793128,-0.43102777
1409346430205,4.268862,-15.143326,-3.776853,0.015340193,-9.793521,-0.5070267
1409346430205,3.1250317,-12.694057,-5.419874,0.29142916,-9.780147,-0.6589416
1409346430211,2.2200236,-10.4728365,-6.2913637,0.4920368,-9.749058,-0.94028705
1409346430238,1.7399861,-9.7324295,-5.5766945,0.6362705,-9.700623,-1.2897657
1409346430239,2.6258407,-9.354146,-3.8175547,0.7296324,-9.649388,-1.589766
1409346430241,4.1078515,-8.823831,-3.2243912,0.8607462,-9.608697,-1.761374
1409346430262,2.432509,-8.773552,-6.127361,1.0874975,-9.565827,-1.8661914
1409346430263,1.3676877,-6.5445504,-5.6000376,1.1763155,-9.489645,-2.1756163
1409346430280,2.4366987,-4.703409,-4.175488,1.2111329,-9.411803,-2.4741614
1409346430281,3.2315738,-4.4460325,-2.0452468,1.3391496,-9.326179,-2.7202017
1409346430296,3.044826,-4.510676,-1.2198458,1.5345743,-9.272764,-2.7984524
1409346430315,2.5276785,-4.4280763,-1.258153,1.7272474,-9.24221,-2.7872179
1409346430315,1.9656396,-4.462792,-1.7022774,1.8740122,-9.214342,-2.7846665
1409346430319,2.3678656,-4.132991,-0.83138657,1.9565178,-9.18389,-2.828179
1409346430329,3.0681696,-3.2980127,-0.87448215,2.1168318,-9.160917,-2.78694
1409346430344,3.7301662,-2.556409,-1.6597804,2.3687327,-9.104488,-2.7690742
1409346430359,4.661511,-1.9949685,-2.0763714,2.7093456,-8.983882,-2.8495057
1409346430364,5.015254,-1.4981717,-2.7635074,3.1781673,-8.786431,-2.977962
1409346430385,5.230732,-1.1091139,-3.0142999,3.6950564,-8.504257,-3.1928966
1409346430385,5.3899465,-0.5931635,-3.352481,4.234667,-8.149976,-3.4374282
1409346430389,5.291186,-0.6853402,-3.8175547,4.7812757,-7.7106996,-3.722225
1409346430410,5.1660886,-1.0145429,-4.0456023,5.242764,-7.2420626,-4.029443
1409346430411,4.9655743,-2.146402,-3.4781766,5.6184373,-6.7694836,-4.333318
1409346430428,4.4035354,-4.8482585,-1.9093759,5.8854527,-6.4355044,-4.4851
1409346430428,2.8455088,-9.7240505,5.245097,5.9709,-6.4597373,-4.33481
1409346430442,-5.4659624,-18.653824,19.608511,5.8206825,-7.2430634,-3.134971
1409346430470,-17.815853,-19.608511,15.233706,5.937058,-7.063346,-3.3212745
1409346430471,-19.60911,-19.608511,13.741521,6.056916,-6.8621726,-3.5206192
1409346430471,-19.198505,-19.608511,9.67018,6.119467,-6.7175674,-3.6873834
1409346430495,-10.639234,-12.947843,4.2880154,6.121273,-6.6669316,-3.7752464
1409346430495,-8.674192,-7.820061,5.067328,-3.3467429,-8.698706,3.0499573
1409346430509,-5.4420204,-8.120534,6.2608376,-3.8331192,-8.468068,3.1256073
1409346430510,-1.1198878,-8.233061,5.1624975,-3.94317,-8.342477,3.320374
1409346430527,1.5711949,-8.209718,2.6366146,-3.6961293,-8.37581,3.5149431
1409346430528,5.0810947,-9.911995,1.780089,-3.27758,-8.518707,3.5860112
1409346430545,6.4739213,-15.08347,0.6877344,-2.5027335,-8.794026,3.5456758
1409346430568,5.141548,-15.443798,-3.4650085,-1.5815295,-9.131893,3.2058825
1409346430568,3.5835214,-11.871649,-3.7852328,-0.9194392,-9.435286,2.5100598
1409346430569,1.8327614,-10.001179,-2.5007436,-0.50316435,-9.597018,1.9530612
1409346430580,1.0019734,-9.825205,-2.5893292,-0.2961793,-9.67221,1.5909169
1409346430593,0.96426475,-10.588956,-2.6330233,-0.17506285,-9.728963,1.2194438
1409346430608,1.5562311,-10.465055,-2.8736405,-0.061417762,-9.768296,0.86430407
1409346430609,1.1869255,-10.64881,-2.5875335,0.09647592,-9.790778,0.54935646
1409346430631,0.44232875,-10.869077,-1.0899603,0.20620295,-9.80047,0.28043666
1409346430631,1.3317747,-10.096349,-0.50278234,0.23697454,-9.802607,0.15206513
1409346430640,3.1717186,-8.590994,-0.1945289,0.3524737,-9.800308,0.01152005
1409346430673,3.9240966,-8.4234,-0.20171149,0.607078,-9.787443,-0.08838702
1409346430673,3.7140055,-9.271546,-0.7302315,0.91186905,-9.76339,-0.12292466
1409346430674,3.2788591,-9.776723,-1.7513585,1.1995918,-9.731352,-0.17932518
1409346430691,2.979584,-9.508572,-2.2511482,1.4324411,-9.696117,-0.32220834
1409346430691,3.0113072,-8.957307,-1.8740613,1.6110561,-9.660681,-0.4961343
1409346430711,3.0310593,-8.69155,-1.3395559,1.7672856,-9.625572,-0.6288716
1409346430711,2.718616,-8.792706,-0.96665895,1.9148946,-9.593102,-0.6899153
1409346430726,2.3451207,-9.115923,-0.81642276,2.0164678,-9.570483,-0.71423113
1409346430728,2.2002714,-9.498995,-0.748188,2.0739317,-9.557713,-0.7206398
1409346430740,2.0069396,-9.904214,-0.6338649,2.108614,-9.550038,-0.7217355
1409346430756,1.6106992,-10.501567,-0.47465047,2.1153014,-9.549279,-0.71213764
1409346430760,0.86969376,-11.359888,-0.25318682,2.0736055,-9.5604105,-0.6849305
1409346430775,-0.29388827,-11.826757,-0.36032736,1.9505937,-9.589903,-0.6319348
1409346430791,-0.86969376,-11.185112,-0.7781156,1.7212714,-9.636246,-0.59195876
1409346430791,-1.2006922,-10.496181,-1.4466964,1.4661103,-9.678234,-0.59386754
1409346430810,-1.1204864,-10.049662,-1.9812019,1.1997552,-9.710997,-0.6538643
1409346430811,-0.7978677,-9.749189,-2.0213048,0.9647861,-9.729142,-0.763798
1409346430828,-0.7380127,-9.747394,-2.955642,0.786044,-9.735492,-0.8790525
1409346430828,-3.1603463,-9.758167,-5.182848,0.63725716,-9.72632,-1.0784049
1409346430843,-3.3871968,-8.963891,-3.911527,0.2788485,-9.6912365,-1.4739591
1409346430860,-2.8215668,-8.582016,-4.582502,-0.06891513,-9.653044,-1.7275413
1409346430860,-2.3774424,-8.317456,-4.6501384,-0.33334786,-9.574305,-2.0957
1409346430878,-1.9865888,-8.114548,-3.9378633,-0.5267378,-9.482624,-2.4439342
1409346430897,-2.0979192,-9.035119,-2.902371,-0.6516317,-9.421758,-2.6412554
1409346430897,-2.356493,-9.9951935,-2.1871033,-0.78541887,-9.402377,-2.6737227
1409346430902,-2.332551,-10.241198,-1.1432313,-0.94040513,-9.406041,-2.610063
1409346430909,-2.0219033,-10.617686,-0.4249708,-1.0869515,-9.431276,-2.4576285
1409346430925,-1.8423382,-11.177331,-0.21906945,-1.1866016,-9.469034,-2.2582617
1409346430929,-1.5496471,-11.528081,0.04309563,-1.2370573,-9.509376,-2.0522776
1409346430944,-1.4987702,-11.955446,0.15263036,-1.2507895,-9.548875,-1.8506558
1409346430960,-1.5616181,-12.324153,0.2172738,-1.2471274,-9.584406,-1.6595795
1409346430962,-1.661576,-12.320562,0.39384618,-1.244331,-9.613442,-1.4845109
1409346430977,-1.6394296,-12.078149,0.9840169,-1.2521374,-9.636294,-1.3207387
1409346430994,-1.6430209,-12.005126,2.0919337,-1.2637727,-9.658803,-1.1317266
1409346430994,-1.5011644,-12.156559,4.3807907,-1.2800885,-9.683297,-0.87496245
1409346431010,-0.40701428,-12.057798,6.971317,-1.2749419,-9.713502,-0.43910515
1409346431010,0.1340753,-12.142194,7.9649105,-1.185615,-9.733373,0.1617309
1409346431031,0.2208651,-12.56058,7.15986,-1.0669304,-9.71885,0.7589449
1409346431031,-0.3561375,-12.821548,6.4697313,-0.96706754,-9.685648,1.1930488
1409346431040,-0.86011696,-11.9333,5.7239375,-0.9403271,-9.64099,1.5288776
1409346431056,-1.4137762,-11.024101,3.4464533,-0.9772391,-9.585226,1.8272531
1409346431060,-3.4278982,-11.432912,0.017956512,-1.05596,-9.541862,2.0020602
1409346431074,-5.068525,-13.063363,-4.128801,-1.2469531,-9.533538,1.9305894
1409346431093,-6.0226145,-13.837289,-5.74369,-1.4818304,-9.584385,1.4540111
1409346431093,-6.007651,-13.463195,-5.266645,-1.7521849,-9.6041155,0.9280159
1409346431109,-5.7023897,-14.054563,-2.3702598,-1.9815617,-9.593462,0.4575022
1409346431109,-5.66109,-13.976751,-0.56443304,-2.1639056,-9.562179,0.22942953
1409346431134,-5.8771667,-13.96478,0.52073884,-2.3298938,-9.524626,0.15333696
1409346431134,-5.4258595,-15.508442,1.9141643,-2.5044258,-9.480016,0.16594607
1409346431142,-4.795586,-17.142485,6.7229185,-2.6067991,-9.449511,0.28588328
1409346431159,-3.4674027,-17.036541,11.178528,-2.6032538,-9.427482,0.71836144
1409346431160,-1.4155718,-15.7508545,9.633669,-2.5110312,-9.375035,1.4049245
1409346431181,0.037110128,-13.95221,4.5364137,-2.3614028,-9.323174,1.916397
1409346431182,0.5494693,-12.269685,-0.2908955,-2.2118537,-9.318815,2.106606
1409346431189,-0.39324763,-12.086529,-2.3038206,-2.072568,-9.372798,2.0063634
1409346431215,-0.6266823,-12.64737,-3.0705638,-1.9747107,-9.445665,1.7465119
1409346431215,-0.4249708,-11.972205,-4.7500963,-1.8724034,-9.524797,1.3938142
1409346431220,0.01616086,-11.267113,-5.695806,-1.772198,-9.600689,0.92546344
1409346431250,0.08798691,-11.595717,-6.215348,-1.6442745,-9.657474,0.44715342
1409346431251,0.45250413,-12.542026,-6.429629,-1.5145282,-9.688817,-0.058574222
1409346431251,1.316811,-14.700997,-5.3235073,-1.363323,-9.697262,-0.5242238
1409346431276,2.822764,-18.022951,-2.1547816,-1.1634107,-9.700463,-0.84728706
1409346431276,4.7417164,-19.608511,2.6330233,-0.8702336,-9.728511,-0.87699836
1409346431294,5.969343,-19.608511,1.3970166,-0.4703069,-9.779259,-0.5615094
1409346431295,4.9583917,-16.394297,-2.0632033,-0.038622577,-9.799866,-0.36260706
1409346431309,3.791817,-12.987347,-4.991312,0.2831617,-9.793252,-0.4270761
1409346431309,1.6825253,-10.857106,-6.365584,0.50283086,-9.771236,-0.6636964
1409346431323,-0.15143326,-9.628283,-6.8282633,0.59859395,-9.734997,-1.0207231
1409346431343,0.28909984,-8.867524,-5.4384294,0.58700407,-9.685169,-1.4224384
1409346431344,1.5292963,-8.385692,-4.317344,0.59513855,-9.634604,-1.7293326
1409346431361,1.827973,-9.081805,-4.782418,0.655496,-9.589683,-1.9438925
1409346431362,0.7613561,-8.941146,-7.4723034,0.7137135,-9.539571,-2.158149
1409346431379,-0.036511578,-6.166865,-5.065532,0.7045067,-9.443265,-2.5492811
1409346431383,1.4065934,-4.168904,-3.1962593,0.6567711,-9.375889,-2.798526
1409346431389,2.408567,-4.4807487,-2.4271219,0.762071,-9.320651,-2.952136
1409346431419,3.6020765,-4.4903255,-0.92535895,0.9429592,-9.270601,-3.0556865
1409346431419,3.8283286,-4.0683475,-0.6290765,1.2420596,-9.248987,-3.0139568
1409346431421,3.903746,-3.6170402,-0.12330139,1.5655779,-9.224219,-2.9382238
1409346431449,3.3925838,-3.4440591,-0.48243165,1.8897458,-9.19495,-2.8376265
1409346431450,3.3704374,-3.1028855,-1.311424,2.1733694,-9.148513,-2.784166
1409346431450,3.7475243,-2.882619,-1.6490064,2.4746041,-9.061557,-2.8169057
1409346431461,4.203021,-2.574964,-2.3301568,2.817011,-8.939332,-2.8849983
1409346431477,4.819528,-2.006341,-2.3612814,3.2141097,-8.753524,-3.0357437
1409346431493,4.9135003,-1.6819267,-2.622848,3.6983664,-8.501885,-3.195375
1409346431493,4.8261123,-1.3964181,-3.7726634,4.190889,-8.194166,-3.3856368
1409346431508,4.699818,-1.401805,-4.4394484,4.6360435,-7.80191,-3.7158747
1409346431509,4.718373,-1.6053122,-4.2521024,5.0052342,-7.368139,-4.1022635
1409346431525,4.903325,-2.4893713,-3.7343562,5.324844,-6.9474764,-4.421423
1409346431539,4.292804,-4.723161,-2.8006175,5.578659,-6.633962,-4.5868864
1409346431541,2.5600002,-8.588001,0.82480246,5.652994,-6.593345,-4.554327
1409346431557,-3.6535518,-16.679207,16.320076,5.4452252,-7.122269,-3.9740639
1409346431573,-16.014814,-19.608511,19.420567,5.547381,-6.935472,-4.158866
1409346431573,-19.60911,-19.608511,15.124172,5.652382,-6.726027,-4.356782
1409346431594,-19.60911,-19.608511,10.630854,5.6931095,-6.61144,-4.4774733
1409346431594,-15.442601,-15.525201,6.582259,5.606228,-6.5994587,-4.6030164
1409346431601,-5.6365495,-6.1824274,2.106299,5.4912877,-6.6110797,-4.7233253
1409346431609,-8.444948,-9.188946,4.5675383,-3.8650389,-8.487283,3.0328038
1409346431623,-3.1364043,-8.629301,5.889736,-4.152099,-8.340053,3.0616963
1409346431645,0.55126494,-10.607511,2.5438392,-4.039298,-8.325723,3.2460468
1409346431646,4.7884035,-17.486052,-0.38307226,-3.644829,-8.509905,3.2352989
1409346431650,7.705738,-19.608511,-0.050876785,-2.7479625,-8.9513235,2.9142597
1409346431678,5.6257753,-16.579248,1.1677719,-1.6864604,-9.313759,2.5651746
1409346431679,1.3557167,-12.491149,3.7912183,-1.0061044,-9.463046,2.3683145
1409346431683,0.5823896,-10.391434,-0.76434886,-0.7869237,-9.464871,2.442821
1409346431689,2.0326772,-8.565256,-4.6591167,-0.67821026,-9.531987,2.2026455
1409346431707,2.9891608,-7.180211,-4.833295,-0.48295772,-9.650933,1.6723222
1409346431710,3.4674027,-5.873575,-3.2136173,-0.2139733,-9.73577,1.1573211
1409346431741,3.8402996,-5.382764,-1.3557167,0.110638306,-9.772227,0.813462
1409346431741,4.2940006,-5.959168,-0.5422867,0.48753014,-9.774017,0.63350457
1409346431743,4.4155064,-8.9124155,-1.8088194,0.9069234,-9.751351,0.5089771
1409346431763,4.374805,-9.98442,-2.6671407,1.2880218,-9.718142,0.26295447
1409346431763,4.3329067,-10.732009,-3.2106245,1.6080022,-9.673895,-0.022572774
1409346431770,4.0479965,-10.85531,-3.1028855,1.8871605,-9.617606,-0.33266485
1409346431811,3.5625722,-10.1304655,-2.4103625,2.0972738,-9.561622,-0.58924717
1409346431812,3.2016463,-9.32362,-1.8698715,2.2427404,-9.516007,-0.76556355
1409346431812,2.9496565,-8.879496,-1.5699978,2.347637,-9.479777,-0.8903999
1409346431813,2.6641479,-8.723274,-1.4341269,2.42584,-9.450717,-0.9847113
1409346431821,2.3427265,-9.208099,-1.3192052,2.4753637,-9.429667,-1.0603508
1409346431853,1.666963,-10.229227,-1.483208,2.4793355,-9.423058,-1.1087352
1409346431854,0.9008184,-11.504139,-1.7076644,2.4080484,-9.435462,-1.159204
1409346431854,0.16639702,-12.676101,-1.8106151,2.2471805,-9.467989,-1.215636
1409346431883,-0.47345337,-13.107058,-1.7860745,2.0141616,-9.515042,-1.2559868
1409346431884,-0.59735334,-12.247539,-1.5400703,1.7409409,-9.566569,-1.2728996
1409346431885,-0.557849,-10.5123415,-1.2641385,1.4921061,-9.61089,-1.2549136
1409346431890,-0.7469909,-9.545682,-1.4341269,1.2841756,-9.646454,-1.2112817
1409346431915,-0.87448215,-9.333197,-1.6699557,1.0863845,-9.6735115,-1.1888378
1409346431915,-1.115698,-9.347562,-1.8459295,0.902116,-9.688891,-1.2173634
1409346431923,-1.13964,-9.247005,-1.9458874,0.71765405,-9.699946,-1.251556
1409346431942,-1.0175357,-9.242816,-3.0178912,0.55,-9.702286,-1.3166385
1409346431942,-1.8297687,-9.41041,-3.6942532,0.40804276,-9.683568,-1.4941198
1409346431958,-3.3572693,-9.88506,-4.1371803,0.19301234,-9.647569,-1.74859
1409346431972,-3.7445314,-10.126875,-4.152743,-0.14077187,-9.586818,-2.059982
1409346431973,-2.8508956,-9.681553,-3.58412,-0.44594812,-9.515236,-2.3306277
1409346431991,-2.0242975,-9.287108,-2.2038627,-0.6383575,-9.467131,-2.4771662
1409346431991,-1.7866731,-9.229049,-0.94570965,-0.7893971,-9.457407,-2.4707687
1409346432007,-1.6723499,-9.3260145,-0.59855044,-0.91657066,-9.479517,-2.3386035
1409346432022,-1.5334862,-9.705495,-0.670975,-1.009194,-9.505044,-2.192279
1409346432022,-1.335366,-10.338163,-0.32321724,-1.0640969,-9.527313,-2.0660152
1409346432039,-1.2060791,-10.990582,0.11671733,-1.0830127,-9.556663,-1.9151156
1409346432056,-1.3221979,-11.470022,0.41479546,-1.0811031,-9.591632,-1.7326871
1409346432057,-1.6106992,-11.7860565,0.65301853,-1.08669,-9.624252,-1.5372853
1409346432070,-1.8549078,-11.775881,0.985214,-1.1136466,-9.651652,-1.3325837
1409346432072,-2.006341,-11.675923,1.6484078,-1.1634853,-9.672246,-1.1244354
1409346432088,-2.1308396,-11.6029,2.831742,-1.2253034,-9.689995,-0.87921447
1409346432090,-1.982399,-11.382035,5.0451818,-1.2941577,-9.704948,-0.55637085
1409346432104,-1.7579426,-11.719617,5.805939,-1.3438383,-9.713817,-0.07909237
1409346432120,-1.8632874,-12.101493,4.9027267,-1.363967,-9.703843,0.38134536
1409346432122,-2.1284454,-12.081141,4.0533834,-1.3975896,-9.683285,0.6716423
1409346432137,-2.2691047,-12.079945,3.940856,-1.4639053,-9.65859,0.8596438
1409346432142,-2.4654293,-11.3880205,5.097854,-1.5324603,-9.629781,1.0436912
1409346432160,-2.2331917,-10.553042,5.240309,-1.632013,-9.575737,1.3461697
1409346432163,-1.9776106,-10.399814,3.0867245,-1.7053751,-9.505346,1.7060034
1409346432170,-3.2393548,-12.16434,-2.3570917,-1.7286415,-9.45992,1.9214772
1409346432195,-4.595072,-13.530831,-5.055357,-1.7818698,-9.500413,1.6545407
1409346432195,-4.993108,-13.693038,-0.53689975,-1.8990241,-9.55485,1.1264719
1409346432202,-4.959589,-13.032837,1.3365631,-2.0399733,-9.541664,0.98261505
1409346432227,-4.875193,-12.778453,1.822586,-2.17373,-9.507769,1.0235295
1409346432227,-4.4161053,-13.587693,0.7188591,-2.2944741,-9.477859,1.0372893
1409346432230,-4.5154643,-14.484322,2.6527755,-2.36705,-9.467029,0.9709974
1409346432242,-4.453215,-14.870985,5.783194,-2.443821,-9.438081,1.0586708
1409346432263,-4.4208937,-14.923657,6.611588,-2.5008402,-9.384638,1.3582267
1409346432263,-4.119224,-14.3418665,5.577293,-2.5516677,-9.320367,1.6703737
1409346432270,-3.4093432,-13.057378,2.0404584,-2.606627,-9.261294,1.8984976
1409346432297,-2.883816,-11.75972,-1.5975311,-2.6380124,-9.259946,1.8613648
1409346432298,-3.1226375,-11.69388,-4.220379,-2.6737685,-9.289485,1.6513104
1409346432302,-2.6036944,-12.832921,-5.551555,-2.7194302,-9.337983,1.2558359
1409346432327,-1.3503298,-13.183672,-5.8586116,-2.68034,-9.402354,0.7628022
1409346432328,-0.7086837,-12.3355255,-5.2624555,-2.548232,-9.465835,0.2736859
1409346432330,-0.20111294,-11.585542,-5.029021,-2.4023364,-9.507101,-0.11917313
1409346432364,0.43394905,-12.261904,-4.8057613,-2.23694,-9.536968,-0.46121606
1409346432364,1.0133458,-15.015835,-4.016872,-2.0274498,-9.564463,-0.76216996
1409346432373,1.9871874,-18.726248,-2.123657,-1.7603228,-9.600023,-0.9545608
1409346432373,3.8241386,-19.608511,1.4293385,-1.4234251,-9.654552,-0.96637344
1409346432409,6.0561333,-19.608511,3.2279825,-1.011143,-9.727433,-0.7245553
1409346432409,6.476914,-19.608511,1.6071079,-0.5119652,-9.785027,-0.40187857
1409346432410,5.8705826,-17.560272,-1.1234791,-0.05141279,-9.804021,-0.22117315
1409346432410,5.5922565,-14.467563,-2.7754784,0.31994215,-9.798934,-0.22121903
1409346432422,5.159505,-12.051214,-4.1922474,0.6500202,-9.779444,-0.33218393
1409346432441,3.8546648,-10.0987425,-4.665102,0.9242498,-9.74749,-0.5501234
1409346432459,2.0811598,-9.227852,-4.84766,1.1264985,-9.707953,-0.8105723
1409346432460,2.3852234,-8.511986,-3.7481227,1.2232497,-9.669443,-1.0844003
1409346432464,2.7521348,-8.735844,-3.1370027,1.3350725,-9.630811,-1.2788471
1409346432470,2.3409307,-9.213487,-5.3354783,1.438986,-9.596972,-1.4134488
1409346432494,1.0319009,-7.7769656,-6.06152,1.4965365,-9.540631,-1.7050328
1409346432494,0.78050977,-5.28939,-6.405088,1.4757664,-9.469731,-2.0776732
1409346432502,2.0440497,-3.7098155,-5.6305637,1.46327,-9.360908,-2.530349
1409346432525,2.8419175,-4.061165,-3.4985273,1.5814669,-9.229781,-2.912132
1409346432525,2.735974,-4.605247,-1.3347675,1.7598245,-9.128726,-3.1208541
1409346432530,2.0410569,-4.336498,0.51355624,1.9267107,-9.097996,-3.1120162
1409346432560,1.34195,-4.0156746,0.24001873,2.02285,-9.131791,-2.9476871
1409346432561,1.352724,-3.7612908,-0.7954735,2.0539834,-9.165848,-2.8175914
1409346432562,2.0883424,-3.5140896,-1.9602526,2.1015728,-9.164942,-2.7852485
1409346432570,2.8724434,-3.0759506,-2.381632,2.2439003,-9.103182,-2.8753035
1409346432602,3.7457285,-2.6138697,-2.1589713,2.492954,-8.991574,-3.0178123
1409346432602,4.4879313,-2.247557,-2.3642743,2.8561249,-8.83714,-3.1492736
1409346432603,4.995502,-1.7429788,-3.0621839,3.3245583,-8.61558,-3.299926
1409346432627,5.286996,-1.4790181,-3.5637693,3.84769,-8.298592,-3.5354002
1409346432627,5.2367177,-1.5101427,-4.0479965,4.3802023,-7.902005,-3.8134654
1409346432630,5.156512,-2.0326772,-4.015076,4.8435464,-7.460641,-4.1290803
1409346432657,5.0308166,-3.217807,-2.8688521,5.209161,-7.0523458,-4.3931193
1409346432658,2.4390929,-8.828619,2.0871453,5.4861226,-6.8101892,-4.4378176
1409346432675,-3.6894648,-16.427216,15.143326,5.2771835,-7.400444,-3.6817338
1409346432675,-15.119384,-19.608511,19.549854,5.3519244,-7.255033,-3.858993
1409346432682,-19.607315,-19.608511,16.678009,5.4341335,-7.0723715,-4.0770245
1409346432691,-19.60911,-19.608511,10.383653,5.4934664,-6.900496,-4.286652
1409346432708,-13.102867,-15.421652,5.103241,5.4588943,-6.833158,-4.4360824
1409346432711,-7.6722193,-9.045893,3.0651767,-3.3238716,-8.653178,3.2007444
1409346432722,-7.460931,-8.854357,5.6766524,-3.7226655,-8.540747,3.0606878
1409346432745,-2.9418752,-8.577228,5.7640405,-4.0142484,-8.386403,3.1184044
1409346432745,0.04189853,-8.751406,3.8833952,-3.91847,-8.361768,3.301035
1409346432751,3.0867245,-10.028113,2.6647465,-3.604316,-8.45614,3.416575
1409346432782,5.1702785,-13.816938,1.6112977,-3.011473,-8.657846,3.4846964
1409346432782,6.623559,-18.35455,-1.6065093,-2.1696196,-8.963444,3.334642
1409346432783,5.85502,-15.398907,-4.6561236,-1.2804736,-9.317947,2.7760804
1409346432810,3.241749,-12.486361,-3.4063504,-0.6513091,-9.556991,2.100029
1409346432810,0.84096336,-11.439496,-0.83378077,-0.32757777,-9.662682,1.6418554
1409346432811,-0.16819267,-11.271901,0.55605334,-0.22794046,-9.699668,1.4264883
1409346432844,0.8439561,-10.3770685,-1.2186487,-0.2055971,-9.715076,1.3211414
1409346432844,1.8130093,-9.461287,-1.7010803,-0.10383038,-9.747038,1.0746462
1409346432845,1.8680758,-9.066842,-1.2144588,0.06473083,-9.770769,0.835634
1409346432851,2.1146786,-8.352771,-0.85891986,0.22214346,-9.781151,0.670911
1409346432874,3.0131028,-7.7470384,-0.516549,0.4035206,-9.784514,0.5204335
1409346432874,3.5745432,-7.780557,-0.59855044,0.6572905,-9.776226,0.40465575
1409346432897,3.2423477,-8.692149,-1.3096284,0.94604254,-9.755801,0.31584787
1409346432897,2.8766334,-9.457695,-1.9033904,1.1848589,-9.7333355,0.16928281
1409346432902,2.586935,-9.901819,-2.1511903,1.3781455,-9.709311,-0.020278526
1409346432918,2.3648727,-10.067019,-2.147599,1.5232612,-9.685102,-0.22105011
1409346432922,2.2697031,-9.960478,-1.8614918,1.6186715,-9.663559,-0.40731767
1409346432935,2.1122844,-9.831789,-1.6035166,1.6851571,-9.645353,-0.54570967
1409346432955,1.7393875,-9.589376,-1.4359225,1.727622,-9.632077,-0.6393886
1409346432955,1.3108255,-9.614515,-1.3449428,1.7402272,-9.624805,-0.7107243
1409346432967,1.06123,-10.278907,-1.2982559,1.7096903,-9.62525,-0.775828
1409346432973,0.6500258,-11.394605,-1.1887212,1.6605557,-9.629859,-0.8238863
1409346432984,-0.16340427,-12.313978,-1.1384429,1.5633286,-9.643207,-0.85731274
1409346432991,-1.1695676,-12.372636,-1.3814543,1.3907746,-9.668057,-0.8745494
1409346433071,-1.8471266,-11.646594,-1.5783775,1.1425898,-9.697671,-0.90554863
1409346433071,-2.0638018,-10.889428,-1.8477252,0.85732734,-9.7230015,-0.9479613
1409346433072,-1.5795746,-10.248381,-1.9596541,0.5693489,-9.7378645,-1.0100579
1409346433073,-0.88525605,-9.634866,-1.6837224,0.34221157,-9.74056,-1.0838673
1409346433074,-0.5231331,-9.19134,-1.4281414,0.213928,-9.738066,-1.1378437
1409346433074,-0.16699557,-8.312668,-1.2838906,0.12994419,-9.735141,-1.1749539
1409346433075,-0.3705027,-7.475296,-2.11827,0.10928251,-9.73099,-1.2108973
1409346433075,-1.1893197,-7.674015,-2.3241713,0.08287527,-9.713638,-1.3449013
1409346433109,-1.8608932,-8.62152,-2.681506,-0.0219298,-9.688314,-1.5186995
1409346433110,-1.7058687,-9.076419,-3.2465374,-0.18372516,-9.654307,-1.7120143
1409346433110,-0.26755205,-8.954314,-2.6701334,-0.32335517,-9.614288,-1.9055984
1409346433111,0.7344214,-8.5778265,-2.7503393,-0.31444064,-9.593973,-2.0067875
1409346433140,-0.10414778,-9.214684,-2.866458,-0.22284576,-9.574452,-2.1096418
1409346433140,-0.70509243,-9.4972,-2.2242134,-0.2114055,-9.552197,-2.2093456
1409346433142,-0.90261406,-9.83957,-1.7753005,-0.24709114,-9.546793,-2.2289124
1409346433153,-0.8331822,-10.217256,-0.9744401,-0.3006728,-9.553392,-2.1937802
1409346433177,-0.92655605,-10.64043,-0.56982,-0.35319766,-9.576849,-2.0807626
1409346433178,-1.1833342,-10.9660425,-0.38606504,-0.41159374,-9.604109,-1.9396117
1409346433184,-1.4706384,-11.016919,-0.19931729,-0.48568538,-9.628355,-1.797017
1409346433209,-1.7537527,-10.973225,-0.032920275,-0.57312053,-9.650308,-1.6472654
1409346433209,-2.0751743,-11.216835,0.15263036,-0.67994624,-9.666203,-1.5075175
1409346433212,-2.4133554,-11.594521,0.5566519,-0.8035607,-9.67796,-1.3644704
1409346433223,-2.6324248,-11.955446,1.0648212,-0.9414631,-9.687885,-1.1953804
1409346433244,-2.7844565,-12.321759,1.7830818,-1.0803175,-9.695983,-0.99560857
1409346433245,-2.918532,-12.736554,3.233968,-1.2143153,-9.702227,-0.75008774
1409346433251,-2.2816741,-12.843695,6.4140663,-1.3410978,-9.7060795,-0.4048338
1409346433270,-1.4389153,-12.506113,8.119935,-1.392258,-9.705803,0.17148125
1409346433272,-1.0061632,-12.488156,6.5960255,-1.3767943,-9.675527,0.8117762
1409346433289,-1.7830818,-12.809578,5.0942626,-1.3437717,-9.639629,1.2009166
1409346433292,-3.2626984,-13.072341,4.581305,-1.4002377,-9.606335,1.3885367
1409346433305,-3.726575,-12.522273,4.981735,-1.5745975,-9.556326,1.5387223
1409346433325,-4.8823757,-12.769475,1.4347254,-1.7620996,-9.478802,1.7938004
1409346433326,-5.7323174,-12.767679,-2.9646204,-1.9755301,-9.429765,1.8295408
1409346433332,-5.367202,-13.43626,-2.1206641,-2.1829681,-9.435728,1.5401566
1409346433358,-4.7177744,-14.40651,1.4107834,-2.3207288,-9.442649,1.2731704
1409346433359,-4.228759,-14.7399025,4.547786,-2.3720748,-9.435118,1.2337755
1409346433367,-4.7004166,-15.26543,6.597223,-2.3529572,-9.412857,1.4255247
1409346433372,-5.7855883,-16.612766,6.420052,-2.369771,-9.3536625,1.7503134
1409346433390,-6.2464724,-15.682021,5.0721164,-2.4628334,-9.274912,2.020112
1409346433392,-4.759673,-14.126389,2.0961237,-2.6229854,-9.195512,2.1755276
1409346433403,-3.2650926,-13.024457,-0.41479546,-2.741738,-9.173128,2.1229665
1409346433427,-2.3517046,-12.338518,-2.2409728,-2.7736912,-9.212405,1.8996388
1409346433427,-1.797447,-11.971008,-5.159505,-2.7507422,-9.268184,1.6445626
1409346433431,-1.2240356,-11.960235,-7.1742253,-2.6835613,-9.357724,1.1840138
1409346433462,-0.5650316,-11.282077,-6.59423,-2.5739555,-9.44457,0.5875944
1409346433463,-0.1604115,-11.029489,-5.327099,-2.438832,-9.498293,0.069871955
1409346433463,-0.5351041,-12.184691,-4.311359,-2.2816458,-9.532413,-0.3123501
1409346433471,-0.65242,-13.873201,-3.3560722,-2.1434355,-9.551702,-0.58402646
1409346433492,-0.076015905,-16.224907,-2.4911668,-2.0059206,-9.569396,-0.7571923
1409346433493,0.8996213,-19.201498,-0.9708488,-1.8130268,-9.602016,-0.82740355
1409346433503,2.5767596,-19.608511,1.1007342,-1.5535856,-9.652355,-0.767311
1409346433527,4.4238863,-19.608511,2.3810337,-1.2176594,-9.713844,-0.57351106
1409346433528,5.651513,-19.608511,1.6011224,-0.80205536,-9.7683935,-0.3249133
1409346433531,6.6504936,-17.229275,-1.4377182,-0.3517796,-9.799247,-0.14635178
1409346433556,5.5647235,-14.085687,-2.9245174,0.11807576,-9.804416,-0.17283334
1409346433557,3.1040826,-11.971607,-7.5447283,0.49368426,-9.7892885,-0.3106734
1409346433563,1.2084733,-8.719084,-6.275801,0.6929919,-9.752982,-0.7546442
1409346433590,0.40940848,-8.19236,-3.38181,0.74170977,-9.713803,-1.1235344
1409346433590,0.2896984,-8.080431,-2.0512323,0.72497606,-9.691544,-1.3110163
1409346433591,0.3250129,-7.94037,-4.252701,0.6873215,-9.679501,-1.4160798
1409346433607,1.5532384,-5.98311,-4.976947,0.64504915,-9.640557,-1.6774855
1409346433629,1.1976994,-5.0906715,-4.7387238,0.7127049,-9.574428,-1.9981968
1409346433630,1.1091139,-5.6826377,-2.5306711,0.7651786,-9.499212,-2.3129742
1409346433634,2.1990743,-5.839458,-2.0284874,0.8233523,-9.466475,-2.4245284
1409346433666,2.556409,-5.7335143,-1.4395138,0.9734365,-9.441073,-2.4675763
1409346433667,2.098518,-5.493496,-0.52492875,1.156442,-9.424682,-2.4512048
1409346433668,1.75076,-4.887164,-0.61530983,1.2787086,-9.431154,-2.3640246
1409346433672,1.887828,-4.2371383,-1.8004397,1.3862673,-9.428463,-2.3136032
1409346433697,2.755726,-3.8121676,-2.0087352,1.5205113,-9.386211,-2.3994799
1409346433698,3.4691982,-3.5368345,-2.3612814,1.7543496,-9.316159,-2.5103369
1409346433703,4.0378213,-3.1729157,-2.9873652,2.0710871,-9.207033,-2.6667497
1409346433719,4.3185415,-2.666542,-3.2824504,2.4541564,-9.043144,-2.8929346
1409346433734,4.7267528,-2.2918496,-2.693477,2.8766315,-8.826771,-3.1596746
1409346433734,4.9146976,-2.195483,-2.396596,3.3566086,-8.583584,-3.350476
1409346433754,5.273229,-1.9219455,-2.5647886,3.8605382,-8.317327,-3.4768853
1409346433754,5.559336,-1.7657237,-2.9885623,4.3858385,-7.9920053,-3.6142333
1409346433766,5.6999955,-2.0907366,-2.8443117,4.897833,-7.603996,-3.7895782
1409346433784,5.7239375,-3.093907,-2.1140802,5.359015,-7.2235823,-3.907841
1409346433785,4.8506527,-5.2684407,-0.93373865,5.7331586,-6.950149,-3.872563
1409346433800,2.3517046,-9.261371,2.0919337,5.8643622,-6.974672,-3.6240335
1409346433803,-4.7680526,-17.328035,17.03235,5.575691,-7.513516,-2.9375458
1409346433831,-14.432248,-19.608511,17.582418,5.692435,-7.347839,-3.126631
1409346433831,-19.529503,-19.608511,12.88679,5.81425,-7.158864,-3.3339937
1409346433832,-19.60911,-19.608511,10.922348,5.8811255,-7.039554,-3.468059
1409346433857,-14.320917,-15.960946,4.4645877,5.8515153,-6.991611,-3.6121385
1409346433858,-9.408614,-10.915166,5.873575,-3.2582362,-8.736463,3.037847
1409346433864,-5.8705826,-9.962872,6.9503675,-3.6987836,-8.544091,3.0802455
1409346433887,-1.6005238,-8.809465,5.245097,-3.8214827,-8.427263,3.2477503
1409346433888,1.3239936,-8.680777,3.4745853,-3.63299,-8.43531,3.4376333
1409346433902,4.0078936,-12.357672,3.1411927,-3.2463298,-8.537835,3.5689085
1409346433923,6.2865753,-17.878103,1.9710265,-2.5504937,-8.776117,3.5559993
1409346433924,5.4713492,-15.584457,-0.49799395,-1.6656631,-9.09695,3.2621205
1409346433924,2.9658175,-11.959038,-2.071583,-1.0348712,-9.320705,2.867734
1409346433933,0.5410896,-11.258734,-2.8682537,-0.71083885,-9.46153,2.4788218
1409346433960,0.59136784,-10.5362835,-3.5811272,-0.60933954,-9.572719,2.0401328
1409346433960,1.2389994,-9.981427,-4.372411,-0.49691054,-9.667698,1.5681396
1409346433966,1.780089,-9.203311,-3.7074213,-0.3480182,-9.7423935,1.065391
1409346433992,1.7160441,-8.773552,-2.7150247,-0.16156068,-9.781615,0.6813928
1409346433993,1.6166847,-8.568848,-1.666963,0.011200024,-9.798434,0.4012062
1409346433993,2.1110873,-8.161235,-1.0127473,0.16954409,-9.80315,0.19976358
1409346434003,2.8526914,-8.216302,-0.7350199,0.36297464,-9.799727,0.06319237
1409346434027,3.7900212,-10.29387,-1.2892777,0.6157798,-9.787273,-0.021419512
1409346434028,3.1196449,-10.59135,-1.6519991,0.9274244,-9.761702,-0.13944413
1409346434032,2.2152352,-10.262147,-1.882441,1.1545278,-9.734282,-0.2850167
1409346434053,1.9452889,-9.351153,-1.459266,1.2811185,-9.712576,-0.44160014
1409346434054,1.9961656,-8.562862,-1.0953473,1.3773218,-9.693945,-0.5484528
1409346434069,2.0895395,-8.352771,-1.021127,1.4606901,-9.677873,-0.61282945
1409346434091,1.9446903,-8.8567505,-1.0420763,1.5383596,-9.662169,-0.6680594
1409346434091,1.4401124,-10.055049,-1.0564415,1.5982407,-9.648304,-0.725439
1409346434092,0.7164649,-11.424532,-1.151611,1.5915927,-9.646161,-0.7673285
1409346434116,-0.207697,-12.336124,-1.258153,1.5079435,-9.65599,-0.81138945
1409346434116,-0.9564836,-12.39957,-1.4951789,1.3373823,-9.677338,-0.85496646
1409346434132,-1.5939398,-11.405977,-1.6448165,1.1119506,-9.701063,-0.9073756
1409346434133,-1.2808979,-9.64564,-1.9913772,0.851288,-9.722696,-0.95650023
1409346434148,-0.55964464,-8.644864,-2.0757728,0.6426424,-9.731836,-1.0240861
1409346434152,-0.18914193,-8.569447,-2.2140381,0.5124626,-9.732146,-1.0922815
1409346434165,0.04369418,-8.858546,-2.6258407,0.42778614,-9.726036,-1.1796747
1409346434182,-0.060453594,-8.846576,-3.6661212,0.38403818,-9.710094,-1.3179449
1409346434184,-0.82719666,-8.434174,-4.38498,0.34775516,-9.677151,-1.5499028
1409346434202,-1.417966,-8.74542,-4.620809,0.24228783,-9.6239,-1.8687454
1409346434222,-1.436521,-9.601347,-4.811747,0.087041155,-9.550531,-2.2248902
1409346434222,-1.3479356,-9.719262,-4.9943047,-0.031945582,-9.471305,-2.5423896
1409346434223,-0.5662287,-10.028712,-4.4316673,-0.12064882,-9.402802,-2.7826538
1409346434233,-0.065242,-10.471041,-3.2734723,-0.15753683,-9.3630495,-2.9118485
1409346434258,-0.46627077,-10.574591,-2.1021092,-0.16403234,-9.360074,-2.9210477
1409346434258,-0.74758947,-11.049241,-1.1552023,-0.19990562,-9.385323,-2.836578
1409346434265,-0.86849666,-11.426927,-0.7380127,-0.25881636,-9.430862,-2.6762424
1409346434288,-0.9295488,-11.475409,-0.63087213,-0.30891603,-9.481092,-2.486738
1409346434289,-1.0007763,-11.24377,-0.09876082,-0.3577613,-9.524711,-2.3070104
1409346434293,-1.2018893,-10.772711,0.3681085,-0.41023967,-9.567701,-2.1121526
1409346434322,-1.4024036,-10.443508,0.7086837,-0.47998336,-9.607394,-1.907354
1409346434323,-1.9153614,-10.532692,1.2324153,-0.565859,-9.642829,-1.6929313
1409346434326,-2.2732944,-10.878654,2.5127146,-0.6863094,-9.676173,-1.4391142
1409346434332,-2.2589293,-11.063007,5.1810527,-0.832657,-9.709912,-1.0930035
1409346434363,-1.8447324,-11.223419,6.191406,-0.9626297,-9.744296,-0.5407908
1409346434364,-1.3922282,-11.591528,6.0770826,-1.0417306,-9.751156,0.01176469
1409346434365,-1.2449849,-12.015302,5.3019595,-1.0763047,-9.737332,0.44306186
1409346434406,-1.697489,-12.138602,4.96318,-1.1035631,-9.715436,0.7502537
1409346434407,-2.5785553,-11.717223,5.4138885,-1.1659013,-9.680955,1.0441127
1409346434407,-3.0478187,-11.10311,6.291962,-1.303999,-9.624547,1.3557575
1409346434409,-2.831742,-10.572196,5.207389,-1.4631444,-9.528409,1.7997276
1409346434413,-3.4853592,-10.802039,1.0121487,-1.6001793,-9.431716,2.1569817
1409346434450,-4.803367,-12.523471,-3.4967315,-1.7454847,-9.407478,2.1501257
1409346434450,-6.2967505,-14.4454155,-6.6079965,-1.9209492,-9.461734,1.719287
1409346434457,-6.005256,-14.662091,-6.559514,-2.13857,-9.517139,1.0104332
1409346434502,-4.485537,-14.522629,-3.3854012,-2.3177187,-9.521068,0.38451165
1409346434503,-4.644751,-14.484322,-0.0023942017,-2.3937519,-9.509479,0.1008259
1409346434503,-6.0148335,-14.574703,2.0069396,-2.464521,-9.491016,0.13101146
1409346434504,-6.180033,-17.005417,6.938995,-2.6072729,-9.450527,0.24499469
1409346434506,-4.0414124,-18.59756,11.634025,-2.6826296,-9.407089,0.69322264
1409346434527,-1.7926586,-16.745646,9.376292,-2.6676235,-9.409525,0.71765506
1409346434528,-0.75956047,-14.459781,2.5222914,-2.4417858,-9.3186455,1.8360124
1409346434529,-0.23822308,-13.139379,0.19632454,-2.3298776,-9.335601,1.89437
1409346434533,-0.45669398,-12.545617,-2.5019407,-2.2186184,-9.372649,1.8443345
1409346434577,-0.87208796,-12.4707985,-5.365406,-2.1166625,-9.445833,1.5704579
1409346434577,-0.4333505,-12.086529,-6.929418,-2.0139265,-9.531291,1.1264923
1409346434580,-0.109534726,-11.206061,-6.742072,-1.8927693,-9.606723,0.5465168
1409346434581,0.026934769,-11.133038,-5.663484,-1.7685736,-9.645856,5.735621E-4
1409346434584,-0.12808979,-11.704055,-5.099051,-1.6428568,-9.659087,-0.41645372
1409346434655,0.2896984,-13.158532,-4.537611,-1.5366455,-9.656614,-0.747603
1409346434655,1.2114661,-16.03696,-3.4314895,-1.4018904,-9.65427,-1.0000784
1409346434656,2.654571,-19.329588,-0.93254155,-1.199335,-9.668147,-1.1220149
1409346434656,3.9217024,-19.608511,2.3427265,-0.89835566,-9.7119055,-1.0208932
1409346434656,4.7123876,-19.608511,2.4732103,-0.56201106,-9.764053,-0.7195639
1409346434657,4.4663835,-17.521366,-0.88765025,-0.21254925,-9.794228,-0.44536936
1409346434657,3.4105403,-14.621988,-3.691859,0.08810747,-9.797756,-0.40815112
1409346434664,2.094328,-12.497134,-5.673061,0.3155869,-9.786117,-0.5502048
1409346434691,1.5310919,-10.593744,-6.679823,0.46229926,-9.75961,-0.84063864
1409346434691,1.4329298,-9.222465,-6.5122285,0.56479543,-9.713835,-1.2218121
1409346434692,1.8968062,-8.70831,-4.309563,0.635131,-9.657482,-1.5811551
1409346434720,2.8963854,-8.294712,-2.2266076,0.7267732,-9.611591,-1.8054099
1409346434720,3.347094,-7.885902,-2.3068132,0.8786352,-9.584593,-1.8798856
1409346434724,2.5893292,-7.1646485,-3.0244753,1.0673937,-9.551274,-1.9504431
1409346434732,2.042254,-6.192004,-4.111443,1.2111118,-9.509967,-2.0649831
1409346434753,1.8740613,-4.915296,-5.527613,1.3241084,-9.44829,-2.268686
1409346434753,1.560421,-4.3658266,-5.257068,1.4127126,-9.345872,-2.6132915
1409346434764,1.5424645,-4.2916064,-1.9752164,1.4530338,-9.235473,-2.9605923
1409346434782,1.8148049,-4.324527,-1.3060371,1.493921,-9.206036,-3.0310879
1409346434784,2.372654,-4.3089647,-0.7577648,1.5800276,-9.18613,-3.0477784
1409346434797,2.9873652,-4.2898107,-0.76075757,1.7242081,-9.174206,-3.0052352
1409346434821,3.4093432,-3.8708255,-1.0139444,1.9666327,-9.146479,-2.9401808
1409346434822,3.7846344,-3.3512838,-1.6514006,2.2759502,-9.0868,-2.90181
1409346434824,3.9097314,-2.967613,-2.4720132,2.6271188,-8.976656,-2.9475868
1409346434833,4.435259,-2.516306,-2.4690206,2.9834905,-8.81326,-3.097686
1409346434855,4.865018,-2.0697873,-2.4959552,3.410276,-8.60326,-3.2441206
1409346434856,5.405509,-1.5705963,-2.6515784,3.8837304,-8.337342,-3.4023213
1409346434866,5.6586957,-1.6166847,-2.8407204,4.420197,-7.988628,-3.5796788
1409346434887,6.099229,-1.6478093,-2.9843724,4.946071,-7.5954447,-3.743802
1409346434888,6.4164605,-2.1589713,-3.0639796,5.4667,-7.156109,-3.8827405
1409346434893,6.506243,-3.4207156,-2.8646624,5.920584,-6.7317214,-3.9750516
1409346434921,5.711368,-5.9986725,-1.4317327,6.248262,-6.4313974,-3.970738
1409346434922,2.4420857,-11.83813,10.179547,6.355992,-6.4701896,-3.729397
1409346434926,-16.605585,-19.608511,15.972917,6.0516715,-7.476077,-1.9120553
1409346434933,-19.60911,-19.608511,17.422606,6.1861196,-7.312382,-2.105086
1409346434959,-19.041685,-19.552248,7.6530657,6.2744637,-7.1938286,-2.2472932
1409346434959,-10.639234,-12.12723,3.7163997,6.2515736,-7.160228,-2.4123306
1409346434988,-7.1724296,-7.6650367,3.5380316,-3.4949415,-8.763928,2.6738224
1409346434989,-5.497087,-8.671799,3.5661635,-3.4949415,-8.763928,2.6738224
1409346434989,-1.857302,-9.148245,2.255338,-3.4949415,-8.763928,2.6738224
1409346434993,1.8070238,-10.186729,0.037708677,-3.2958825,-8.837284,2.6851358
1409346435019,5.4899044,-16.99584,0.018555064,-2.808962,-9.05617,2.5031803
1409346435020,6.695385,-19.57619,0.5177461,-1.9117261,-9.366103,2.1890254
1409346435024,4.3676224,-15.72392,-1.0606314,-0.99995244,-9.56925,1.897352
1409346435034,0.6781576,-12.094909,3.9306808,-0.4850804,-9.667289,1.5743723
1409346435057,-0.78649527,-10.3692875,4.0318356,-0.3668664,-9.639164,1.767012
1409346435057,1.9578584,-8.693346,-3.8229415,-0.3991779,-9.603156,1.9469007
1409346435064,2.8742392,-7.565677,-5.113416,-0.20355362,-9.693767,1.4696434
1409346435087,3.181894,-6.5230026,-4.177882,0.0652873,-9.762023,0.9322325
1409346435088,2.815581,-7.0371575,-2.521693,0.37274933,-9.783755,0.5564119
1409346435093,2.5007436,-7.4441714,-1.4119805,0.63575935,-9.780441,0.33042613
1409346435127,2.8951883,-7.554305,-1.0893618,0.8539587,-9.768193,0.1534484
1409346435128,3.5422213,-8.241441,-1.7058687,1.091215,-9.74573,-0.02021452
1409346435128,3.7445314,-9.873089,-3.043629,1.359851,-9.709176,-0.23045273
1409346435134,3.821146,-10.963648,-3.7660792,1.6083243,-9.65913,-0.5337664
1409346435162,3.570952,-10.800842,-3.217807,1.8245412,-9.596892,-0.86088914
1409346435162,3.1597476,-9.703101,-2.1003134,1.9834847,-9.542477,-1.0850427
1409346435166,2.9933507,-8.567651,-1.3377602,2.1059337,-9.501906,-1.203824
1409346435185,2.918532,-7.951742,-0.842759,2.2162712,-9.4704075,-1.2529613
1409346435186,2.731784,-7.8745294,-0.3405752,2.3200324,-9.44619,-1.2479355
1409346435194,2.540248,-8.391078,-0.01436521,2.406057,-9.43281,-1.184633
1409346435242,2.496554,-9.20391,0.073621705,2.463379,-9.430842,-1.0776737
1409346435242,2.260725,-10.044274,-0.107739076,2.4964764,-9.435368,-0.95489424
1409346435243,1.8716671,-10.969035,-0.374094,2.4781916,-9.449277,-0.8603221
1409346435243,1.4562732,-11.702858,-0.7140707,2.4079354,-9.473872,-0.7861329
1409346435245,1.3156139,-11.415554,-0.9211691,2.2867868,-9.507034,-0.7465338
1409346435275,1.055843,-11.128848,-1.4317327,2.1667569,-9.53639,-0.7299691
1409346435275,0.42197806,-11.591528,-2.504335,2.0367935,-9.562491,-0.7619743
1409346435275,1.0576386,-11.212047,-4.446631,1.8543692,-9.588994,-0.8848276
1409346435298,1.1719618,-10.585963,-5.3342814,1.7461495,-9.577572,-1.1796002
1409346435299,0.29568392,-10.111312,-7.0874357,1.6625241,-9.539864,-1.5483494
1409346435315,-2.0470424,-10.416573,-5.6084175,1.5080247,-9.470448,-2.0510674
1409346435316,-3.3399115,-10.505757,-3.567959,1.174936,-9.435944,-2.3985207
1409346435334,-3.5458126,-10.023924,-3.3123782,0.7517726,-9.431347,-2.5797114
1409346435335,-3.3464954,-9.552266,-3.2812533,0.35743776,-9.416633,-2.7147167
1409346435346,-2.871845,-9.3733,-2.6013002,0.019253567,-9.4015255,-2.789505
1409346435364,-2.8880057,-9.89763,-1.2360066,-0.2581728,-9.401037,-2.7792468
1409346435364,-3.0573955,-10.163386,-0.5363012,-0.5125959,-9.432759,-2.6326258
1409346435380,-2.8089972,-10.077195,0.3705027,-0.75474024,-9.469872,-2.4335728
1409346435401,-2.4241292,-9.849147,0.36631286,-0.9397008,-9.515709,-2.1768394
1409346435402,-2.0003555,-9.746197,0.38067806,-1.07548,-9.548814,-1.9580314
1409346435409,-1.8590976,-10.017939,0.27234045,-1.1617773,-9.575655,-1.7684754
1409346435413,-1.8447324,-10.502765,0.39384618,-1.2263778,-9.596087,-1.6066961
1409346435432,-1.8118122,-11.063606,0.7068881,-1.2789047,-9.615139,-1.4435676
1409346435446,-1.8525136,-11.593323,1.3102269,-1.3166473,-9.635427,-1.263094
1409346435446,-1.6585833,-12.010512,3.0951042,-1.3501673,-9.657384,-1.0403713
1409346435462,-0.670975,-11.703457,5.553351,-1.3544337,-9.689343,-0.6727005
1409346435466,0.65660983,-11.119271,6.4900823,-1.2844292,-9.721325,-0.12841825
1409346435488,0.6991069,-11.309011,5.858013,-1.1182084,-9.733576,0.42131463
1409346435489,-0.050278235,-11.737574,5.0236335,-0.9752437,-9.723677,0.8181844
1409346435493,-1.2210429,-12.402563,4.6363716,-0.90804833,-9.704276,1.0829896
1409346435517,-2.136825,-12.245743,4.948815,-0.934549,-9.672936,1.3158021
1409346435517,-2.7569232,-11.738173,3.9995139,-1.0425291,-9.619536,1.5962576
1409346435526,-4.3939586,-11.9135475,0.86729956,-1.1981812,-9.573105,1.7579598
1409346435533,-5.430648,-13.0202675,-2.746748,-1.4542924,-9.546981,1.7060392
1409346435547,-6.021417,-13.872603,-4.3514614,-1.7263287,-9.554638,1.378062
1409346435563,-6.3141084,-14.268245,-3.4859576,-1.9790082,-9.556823,0.9597132
1409346435565,-5.9902925,-14.7411,-2.5198972,-2.2050433,-9.534218,0.6378433
1409346435585,-5.4899044,-14.711172,0.60932434,-2.3642452,-9.50881,0.40411112
1409346435586,-5.2439003,-14.367006,2.746748,-2.4682777,-9.482073,0.41021475
1409346435593,-4.947618,-14.613608,3.168726,-2.5524852,-9.452615,0.55070955
1409346435622,-5.5407815,-14.395138,8.094197,-2.612207,-9.425491,0.71195
1409346435622,-5.288193,-14.825496,12.067375,-2.706296,-9.34658,1.2197511
1409346435625,-4.034828,-15.016433,6.601413,-2.7604291,-9.21244,1.918691
1409346435653,-2.2547395,-13.622409,-0.34835634,-2.7716827,-9.151288,2.1776347
1409346435653,-2.0578163,-13.317747,-1.6651673,-2.7525194,-9.194874,2.0120456
1409346435654,-2.7257986,-13.276447,-2.5582044,-2.7279408,-9.251523,1.771448
1409346435665,-2.9269116,-13.494319,-6.1542954,-2.7054286,-9.31073,1.470159
1409346435693,-2.0165164,-13.30398,-7.015011,-2.6753902,-9.386281,0.9541484
1409346435693,-0.7038953,-12.054207,-5.3875523,-2.5869675,-9.450546,0.40639967
1409346435694,0.30765492,-10.978612,-4.6662993,-2.457462,-9.493732,-0.016805114
1409346435730,0.87089086,-11.24377,-4.871602,-2.2790112,-9.531336,-0.3607341
1409346435731,1.3563153,-13.524845,-5.071518,-2.0635211,-9.562486,-0.68638355
1409346435731,1.882441,-17.979856,-4.3047748,-1.7951653,-9.590837,-0.9816291
1409346435755,3.4344823,-19.608511,-0.44651863,-1.4791266,-9.627064,-1.1411457
1409346435755,5.9250507,-19.608511,4.355053,-1.097665,-9.694332,-0.9926748
1409346435755,8.108562,-19.608511,2.9101522,-0.5964973,-9.772673,-0.55627245
1409346435784,7.9074497,-18.714277,-0.3184288,-0.023004737,-9.803059,-0.26436764
1409346435784,5.6407394,-14.103643,-3.6733038,0.47414866,-9.79311,-0.20146585
1409346435785,3.6565444,-11.33894,-5.7867856,0.8253858,-9.764341,-0.3830964
1409346435794,1.7699136,-10.356718,-7.1604586,1.0491092,-9.724218,-0.71368986
1409346435813,1.7764976,-9.496601,-4.63278,1.1150755,-9.676929,-1.1331533
1409346435817,2.712032,-9.065046,-2.0560207,1.1489599,-9.639807,-1.3872367
1409346435832,1.2802993,-8.177396,-7.6201453,1.2375311,-9.620195,-1.4459374
1409346435850,0.46507367,-5.2798133,-8.787319,1.2260809,-9.538938,-1.9172295
1409346435850,0.8002619,-3.2962172,-6.3087215,1.1985756,-9.413477,-2.4739146
1409346435854,2.0129251,-3.6948519,-1.9099745,1.2120608,-9.2892475,-2.9002047
1409346435865,2.44448,-4.689044,-0.05207389,1.3403747,-9.243831,-2.9875388
1409346435882,2.5809495,-4.630386,-0.58657944,1.505375,-9.2508135,-2.885604
1409346435886,2.8604724,-4.0581717,-0.90620536,1.6703175,-9.242474,-2.8208325
1409346435893,2.9646204,-3.6577415,-1.210269,1.8607445,-9.215064,-2.7911732
1409346435915,3.117849,-3.4261026,-1.6555905,2.0732033,-9.166695,-2.800704
1409346435915,3.4165258,-3.0430303,-1.5610195,2.3273363,-9.089357,-2.8526235
1409346435931,3.8361096,-2.6144683,-1.7591397,2.6266105,-8.989387,-2.9089959
1409346435954,4.7746367,-2.130241,-2.1655555,2.9868877,-8.846775,-2.9972372
1409346435955,5.48332,-1.5406688,-2.4079683,3.46556,-8.622114,-3.1336002
1409346435955,5.601235,-1.1294646,-3.0855274,4.034008,-8.309017,-3.295062
1409346435965,5.5431757,-1.3437457,-3.6128504,4.5982184,-7.9084578,-3.533145
1409346435979,5.2768207,-1.5801731,-4.0934863,5.0908103,-7.4726357,-3.7965505
1409346436000,5.093664,-1.9554642,-4.0456023,5.468056,-7.0482435,-4.073455
1409346436001,4.747702,-2.866458,-3.6553473,5.755401,-6.6584053,-4.3256683
1409346436007,3.702633,-4.9799395,-2.508525,5.9331303,-6.3983,-4.4755054
1409346436013,1.7244238,-9.361329,1.1994951,5.9098945,-6.4538045,-4.426284
1409346436029,-5.4504004,-17.641077,17.512388,5.5566874,-7.124578,-3.8123465
1409346436044,-16.54932,-19.608511,18.584393,5.6652856,-6.9434505,-3.9828918
1409346436045,-19.60911,-19.608511,11.890204,5.767653,-6.7647853,-4.1403213
1409346436062,-19.60911,-19.608511,6.809708,5.8313212,-6.636142,-4.257669
1409346436077,-13.06875,-14.791977,4.980538,5.7910886,-6.6463594,-4.2964625
1409346436077,-6.5403605,-7.6428905,4.9200845,-3.5490193,-8.745704,2.6622398
1409346436095,-4.3766007,-6.9090676,5.509058,-3.8215268,-8.597066,2.76709
1409346436095,-0.24720132,-7.01142,4.455011,-3.8780234,-8.501153,2.9768636
1409346436113,1.9440918,-7.5884223,2.0368671,-3.6232734,-8.541083,3.176822
1409346436114,4.3837833,-9.501988,0.6667852,-3.1934044,-8.688844,3.2367494
1409346436128,5.533599,-12.792818,1.8195933,-2.4698687,-8.960254,3.1279392
1409346436144,5.5126495,-15.951369,1.496376,-1.6264852,-9.203242,2.970734
1409346436145,4.894945,-14.751874,-1.2856863,-0.8693197,-9.395765,2.6710067
1409346436159,4.256292,-12.582727,-2.8042088,-0.32139,-9.544354,2.229885
1409346436175,3.1334114,-11.701062,-2.8167782,0.0700494,-9.641904,1.7886293
1409346436175,1.5227122,-11.217434,-0.7673417,0.32621875,-9.702801,1.3855095
1409346436192,0.57999533,-10.531495,-0.30705637,0.42604485,-9.7287035,1.1581076
1409346436194,1.1348516,-10.261548,-1.4754268,0.4441709,-9.747135,0.98307496
1409346436215,1.4598645,-10.524312,-1.632247,0.51174194,-9.764215,0.7540724
1409346436216,1.4933833,-10.148422,-1.6927006,0.6056541,-9.772592,0.5477552
1409346436225,2.1493945,-8.899248,-1.4041992,0.6929852,-9.776012,0.3460779
1409346436251,2.7940333,-8.2516165,-1.3263878,0.8376608,-9.769176,0.17859833
1409346436252,2.8095956,-8.207922,-1.7232267,1.0344249,-9.751835,0.04567191
1409346436254,2.1021092,-8.485649,-2.0937295,1.2300038,-9.728504,-0.116972186
1409346436282,1.4670471,-8.555081,-2.343325,1.3520527,-9.707948,-0.31317806
1409346436283,1.4586674,-8.22109,-1.376666,1.4018562,-9.691823,-0.52324504
1409346436286,1.8016368,-8.6334915,-0.741604,1.4376777,-9.680841,-0.6203508
1409346436294,1.7292122,-9.273342,-0.46627077,1.4951801,-9.67089,-0.6392934
1409346436314,1.4879963,-10.081984,-0.53091425,1.5338823,-9.665759,-0.62505203
1409346436315,0.81163436,-11.489774,-0.7182605,1.5464369,-9.664564,-0.61250854
1409346436332,-0.046088383,-12.885593,-0.90859956,1.4816777,-9.674914,-0.6091709
1409346436336,-1.0618285,-13.755287,-0.9163807,1.3329034,-9.6961355,-0.61542004
1409346436345,-1.9195513,-13.749901,-0.7978677,1.1019062,-9.725176,-0.6141253
1409346436364,-2.391209,-13.04002,-0.76195467,0.8168413,-9.753983,-0.60247815
1409346436378,-2.516306,-11.920731,-0.74758947,0.52571607,-9.774897,-0.5877429
1409346436379,-2.420538,-10.517728,-0.86729956,0.24521542,-9.78665,-0.5760022
1409346436397,-2.1086931,-9.006389,-1.0540473,-0.008874211,-9.789385,-0.5816002
1409346436397,-1.8417397,-7.8888946,-1.186327,-0.21613604,-9.784797,-0.617593
1409346436408,-1.2563573,-7.36636,-1.7082629,-0.38339376,-9.775338,-0.68278176
1409346436414,-1.4616601,-7.741651,-2.1374235,-0.47650898,-9.761469,-0.810577
1409346436427,-1.757344,-8.276156,-3.2321723,-0.57096654,-9.740734,-0.9810639
1409346436443,-2.1098902,-8.562862,-4.1174283,-0.6832883,-9.704825,-1.232825
1409346436445,-1.846528,-8.425795,-3.899556,-0.8165917,-9.646002,-1.5678728
1409346436460,-1.1456255,-8.215105,-3.1190462,-0.9185978,-9.584589,-1.8606966
1409346436476,-0.9696517,-8.303091,-2.0602105,-0.95241237,-9.540684,-2.0587993
1409346436476,-0.93972415,-8.865729,-1.2737153,-0.97115654,-9.524619,-2.1234114
1409346436490,-0.8098387,-9.263765,-0.66858083,-0.98241854,-9.534288,-2.0742738
1409346436494,-0.81283146,-9.475652,-0.2124854,-0.9772297,-9.561748,-1.9463837
1409346436511,-0.8110358,-9.687539,0.049081136,-0.972453,-9.594471,-1.7806826
1409346436530,-0.7930793,-9.999982,0.06344634,-0.95710725,-9.627594,-1.6011776
1409346436531,-0.83018947,-10.316615,-0.1364695,-0.93546534,-9.6552515,-1.4392372
1409346436544,-1.0313023,-10.612898,-0.27952304,-0.9117466,-9.675025,-1.3164463
1409346436559,-1.328782,-10.935516,-0.40342298,-0.90665954,-9.687563,-1.2245442
1409346436560,-1.5580268,-11.170148,-0.3549404,-0.92896223,-9.693187,-1.1616949
1409346436578,-1.7262194,-11.389816,-0.06464344,-0.9727482,-9.69528,-1.1071281
1409346436579,-1.9063832,-11.512519,0.3764882,-1.0290333,-9.697318,-1.0361003
1409346436595,-2.059612,-11.56998,0.7625532,-1.0917352,-9.701982,-0.92199904
1409346436596,-2.2415714,-11.723807,1.1186907,-1.166726,-9.704649,-0.79305077
1409346436617,-2.5276785,-12.074557,1.697489,-1.2463566,-9.705727,-0.64489067
1409346436618,-2.7299886,-12.521675,2.545635,-1.3376663,-9.704063,-0.46065593
1409346436626,-2.0602105,-12.304401,4.7578773,-1.4343809,-9.6986685,-0.22079891
1409346436657,-1.0726024,-12.2798605,6.534375,-1.4754567,-9.693316,0.18174769
1409346436657,-1.5346833,-14.200609,5.9861026,-1.4406651,-9.676505,0.67832774
1409346436658,-3.4781766,-16.429012,4.220379,-1.4277318,-9.646842,1.0346051
1409346436700,-4.6525326,-16.673819,3.3566709,-1.5334935,-9.614704,1.173147
1409346436701,-4.671686,-14.709975,2.3349452,-1.7172852,-9.573055,1.2561474
1409346436701,-4.833295,-12.770073,-0.7086837,-1.9011719,-9.524939,1.3533188
1409346436702,-5.1481323,-12.822147,-2.1751323,-2.0761905,-9.498575,1.2794124
1409346436706,-5.0158525,-14.796765,0.7721301,-2.2213666,-9.491107,1.0746217
1409346436742,-4.5394063,-16.336836,4.8739963,-2.2955174,-9.47792,1.0344161
1409346436742,-4.9601874,-17.714699,7.157466,-2.3074079,-9.447854,1.2586977
1409346436743,-3.6583402,-15.011644,6.559514,-2.3266478,-9.389979,1.6079193
1409346436746,-2.2200236,-13.156138,5.4845176,-2.3266633,-9.3323145,1.9144087
1409346436766,-1.6597804,-13.130401,2.1757307,-2.2838595,-9.2880125,2.1649995
1409346436766,-1.567005,-12.535441,-2.814384,-2.2324946,-9.298519,2.1734576
1409346436774,-1.009156,-12.234969,-6.3859344,-2.2042058,-9.372822,1.8606658
1409346436797,0.0796072,-10.149021,-8.016386,-2.1411426,-9.481528,1.29866
1409346436797,0.47405192,-9.518747,-7.1353197,-2.0314424,-9.574591,0.60898334
1409346436806,0.12270284,-10.372879,-5.810129,-1.887492,-9.623291,0.0061856755
1409346436828,0.079008654,-12.70543,-4.461595,-1.7482684,-9.640565,-0.4165003
1409346436829,0.9792285,-16.440983,-2.6803088,-1.5893182,-9.650939,-0.7097974
1409346436844,2.621651,-19.482817,0.27712885,-1.3582169,-9.67991,-0.79054064
1409346436866,4.4436383,-19.608511,3.2704794,-1.0282735,-9.731701,-0.6379601
1409346436866,5.360019,-19.608511,2.5797524,-0.62161404,-9.781949,-0.31217447
1409346436867,4.821324,-18.369513,-1.0474633,-0.20504166,-9.804216,-0.07528098
1409346436875,3.4141316,-14.401123,-4.015076,0.12590368,-9.805479,-0.084372446
1409346436906,1.4323312,-11.742362,-6.8210807,0.32915333,-9.796523,-0.30033618
1409346436907,0.37588966,-9.869498,-6.797737,0.41673782,-9.772752,-0.7000205
1409346436908,-0.39983168,-9.070433,-5.2115784,0.44522974,-9.732839,-1.1153632
