time,acc_x,acc_y,acc_z,gravity_x,gravity_y,gravity_z
1409522693394,-2.4438813,1.894412,8.89805,-2.7995963,1.7565362,9.232943
1409522693406,-2.2080526,2.112883,9.211093,-2.7791634,1.7207685,9.245842
1409522693424,-2.3427265,2.1386206,9.299079,-2.7539313,1.691221,9.258835
1409522693424,-2.7138276,2.0506337,9.292496,-2.743316,1.6690584,9.2660055
1409522693438,-3.0220811,2.0272903,9.276335,-2.764256,1.6539868,9.262485
1409522693441,-3.0424318,2.030283,9.218275,-2.8202808,1.6423315,9.247657
1409522693465,-2.795829,1.9967642,9.170391,-2.887963,1.6380984,9.227496
1409522693465,-2.5659857,1.9434932,8.853758,-2.962941,1.6415173,9.203086
1409522693473,-2.3774424,1.9602526,8.437167,-3.0254285,1.6511213,9.181011
1409522693498,-2.2768857,2.0685902,8.187572,-3.0640066,1.6635257,9.165966
1409522693501,-2.1841104,2.204461,8.040926,-3.0776236,1.6728169,9.159711
1409522693502,-2.1320367,2.2649148,7.929596,-3.0715363,1.6722449,9.161859
1409522693524,-2.1045034,2.244564,7.9068513,-3.0543215,1.657692,9.170255
1409522693525,-1.9201498,2.19249,8.143278,-3.0344603,1.6361634,9.180709
1409522693541,-1.6759412,2.11827,8.415619,-3.014636,1.6059916,9.192559
1409522693542,-1.5759833,2.058415,8.555081,-3.0002685,1.5778826,9.202123
1409522693556,-1.8207904,2.0488381,8.611345,-3.0003147,1.5625477,9.204724
1409522693575,-2.0775685,2.119467,8.522759,-3.026711,1.567333,9.195264
1409522693575,-2.3708582,2.1667526,8.432977,-3.0835896,1.5937521,9.171795
1409522693588,-2.8233624,2.2649148,8.503007,-3.1638691,1.6370163,9.136766
1409522693593,-2.8921957,2.4361002,8.373122,-3.2505922,1.6862706,9.097281
1409522693604,-2.9281087,2.4941597,8.337209,-3.3331513,1.7435954,9.05651
1409522693620,-3.1555579,2.3852234,8.281544,-3.3983376,1.8046199,9.020257
1409522693621,-2.9287071,2.1272483,7.6644382,-3.4405968,1.8676087,8.991369
1409522693639,-2.48578,2.0470424,7.1329255,-3.4522653,1.9313884,8.973405
1409522693641,-2.0805612,2.0727801,6.8438253,-3.4306047,1.9926889,8.968307
1409522693660,-1.9692309,2.1667526,7.766192,-3.3778143,2.037939,8.978171
1409522693679,-2.2918496,2.6192567,9.025542,-3.298709,2.0509646,9.00458
1409522693679,-2.6803088,2.8233624,10.203489,-3.207796,2.046279,9.038427
1409522693681,-3.0430303,2.758719,10.931925,-3.1212723,2.0017512,9.078604
1409522693712,-3.353678,2.517503,11.063606,-3.0549066,1.9255759,9.117571
1409522693713,-3.6212301,2.3540988,11.048044,-3.0234995,1.8373433,9.146202
1409522693713,-3.6421793,2.3469162,10.908582,-3.0277565,1.7618835,9.159631
1409522693721,-3.4356794,2.2864625,10.385448,-3.0500212,1.7189289,9.160406
1409522693743,-3.3039982,1.9680338,9.956287,-3.0680575,1.7161462,9.154903
1409522693743,-3.4632127,1.8620903,9.800066,-3.0696006,1.7300247,9.1517725
1409522693763,-3.3734303,2.0207062,9.156625,-3.0612032,1.7749755,9.145976
1409522693764,-3.2237926,2.2625206,8.857947,-3.0375953,1.8424687,9.140498
1409522693773,-3.192668,2.4073699,8.89446,-3.0096061,1.9219843,9.13338
1409522693799,-3.1681273,2.3493104,8.914211,-2.9949193,2.0085645,9.119568
1409522693800,-3.3063924,2.1823149,8.566454,-3.0008895,2.0989897,9.097213
1409522693802,-3.2531216,2.0626047,7.913435,-3.024873,2.1932547,9.066982
1409522693830,-3.232771,1.8860323,7.1580644,-3.063289,2.2905984,9.02994
1409522693830,-3.4596214,1.6867151,6.8168907,-3.1145504,2.387109,8.987306
1409522693833,-3.9755719,1.614889,6.939594,-3.1704597,2.4732544,8.944361
1409522693842,-4.56694,1.364695,6.949769,-3.2313628,2.5369172,8.904647
1409522693869,-4.8877625,0.65062433,6.944382,-3.287953,2.5674405,8.875134
1409522693870,-4.4161053,0.47165772,7.321469,-3.3344646,2.56182,8.859391
1409522693875,-3.667917,0.504578,7.9631147,-3.3611517,2.5336668,8.857403
1409522693900,-2.8999767,0.6206968,9.043498,-3.3578398,2.4968753,8.869099
1409522693901,-1.8136078,1.5095441,9.458893,-3.318712,2.4620097,8.893539
1409522693902,-1.7381904,2.0416555,9.81922,-3.2567792,2.4270258,8.925991
1409522693932,-2.1655555,2.0667946,10.387244,-3.1962807,2.3930697,8.956975
1409522693933,-2.8329391,2.4911668,9.701305,-3.1782644,2.3563352,8.97311
1409522693935,-4.3568487,1.4437037,11.552023,-3.2299943,2.3297067,8.961584
1409522693942,-4.2012253,1.1755531,11.821371,-3.3353071,2.2925546,8.932542
1409522693963,-3.3225534,2.0913353,9.951499,-3.4566276,2.252199,8.896613
1409522693964,-3.091513,2.0428526,9.578603,-3.5484164,2.2443948,8.862383
1409522693973,-2.8987796,1.9177556,9.831191,-3.6140132,2.2495165,8.834533
1409522694001,-2.806603,2.5605986,9.931747,-3.6833317,2.267659,8.801203
1409522694001,-2.8119898,3.12982,10.117298,-3.7788818,2.2965121,8.753083
1409522694002,-3.1070752,2.8904,10.382456,-3.8960292,2.3237603,8.694337
1409522694031,-3.626617,2.1984756,10.356119,-4.0484295,2.323914,8.624386
1409522694031,-4.4639893,1.3904326,9.9712515,-4.23606,2.2871826,8.54371
1409522694033,-5.6341553,0.8283938,10.157999,-4.4515867,2.2253377,8.449949
1409522694042,-6.4936733,1.3305776,10.423157,-4.685105,2.1529493,8.341762
1409522694057,-7.365163,2.19249,10.408792,-4.9184933,2.086053,8.223576
1409522694073,-8.244433,3.020884,9.715072,-5.146601,2.0366652,8.095362
1409522694074,-8.291719,3.6954503,8.5886,-5.368181,2.0141385,7.955895
1409522694094,-7.2071457,4.0162735,6.754043,-5.5795016,2.0194242,7.8077826
1409522694095,-6.3230867,3.6876693,5.2887917,-5.7747097,2.0413516,7.6587205
1409522694102,-6.035184,2.2164323,4.6926355,-5.9528084,2.056689,7.5169463
1409522694123,-6.8444242,-0.006584055,3.9205053,-6.1077805,2.0388813,7.396511
1409522694123,-7.450157,-0.74519527,8.003218,-6.2370377,1.9929538,7.3005404
1409522694156,-5.945401,-1.0378864,6.5750766,-6.3347273,1.9328038,7.232281
1409522694156,-4.3077674,0.30585927,4.9943047,-6.3563814,1.9277767,7.214602
1409522694157,-3.3381157,1.3503298,5.424064,-6.3035603,1.9617938,7.2516813
1409522694194,-4.173094,1.4107834,6.3404446,-6.2518044,1.996726,7.286866
1409522694195,-5.5587378,1.3533225,6.488885,-6.208254,2.0261106,7.315931
1409522694196,-6.5188127,1.3982137,5.727529,-6.139045,2.0460505,7.368595
1409522694196,-6.465542,1.1408371,2.1206641,-6.064576,2.047285,7.429666
1409522694202,-3.8923733,-1.009156,-0.29508537,-6.014355,2.0382488,7.4728494
1409522694226,-3.4847605,-1.8842367,1.1797429,-5.970695,1.9973989,7.5187497
1409522694227,-2.0817583,-3.0502129,3.13401,-5.9491873,1.9167678,7.5566897
1409522694244,-1.4437037,-3.840898,4.7626657,-5.9449573,1.7704396,7.595618
1409522694244,-1.7232267,-3.7954082,5.8388596,-5.9438033,1.5455351,7.6454506
1409522694254,-2.7060466,-3.1064768,6.8767457,-5.927139,1.2593404,7.710608
1409522694282,-4.056975,-2.4660277,8.012196,-5.9017158,0.92463636,7.7772226
1409522694289,-6.3667808,-2.6126726,8.982447,-5.8861375,0.5705673,7.8229294
1409522694289,-8.443152,-2.9903579,9.306262,-5.8879952,0.18358065,7.840165
1409522694330,-8.847773,-3.1052797,9.834782,-5.918249,-0.22022213,7.8164077
1409522694330,-8.313267,-2.815581,10.168175,-5.9657726,-0.62601626,7.758096
1409522694331,-7.5207863,-2.2661119,9.857527,-6.038575,-1.0102644,7.660638
1409522694331,-6.87914,-1.6956934,9.169792,-6.14909,-1.3559229,7.5180154
1409522694334,-6.794146,-1.7166426,8.279149,-6.2972894,-1.6608226,7.331863
1409522694363,-7.7063365,-2.4307132,7.515998,-6.478994,-1.9412719,7.101021
1409522694364,-9.400833,-2.9652188,6.609792,-6.684335,-2.2146356,6.825352
1409522694364,-11.394006,-3.0705638,5.254674,-6.8913693,-2.4791806,6.5217395
1409522694374,-13.180679,-3.1675289,4.2395325,-7.10089,-2.7341292,6.18646
1409522694398,-14.413692,-3.3824084,4.152743,-7.3011227,-2.9787066,5.8302054
1409522694398,-15.127165,-3.7373488,4.705205,-7.4796414,-3.203266,5.4739785
1409522694402,-15.259444,-4.0821137,5.4791307,-7.6255007,-3.3996215,5.1443853
1409522694422,-14.799159,-4.0252514,6.0585275,-7.7323294,-3.5587914,4.869955
1409522694423,-13.909714,-3.4392707,6.369175,-7.8122363,-3.6616445,4.6617274
1409522694436,-12.510303,-2.5312698,6.51163,-7.8700557,-3.737688,4.5013666
1409522694455,-10.637438,-1.654992,6.6828156,-7.9389462,-3.7551043,4.3637958
1409522694455,-8.75799,-1.1593921,6.9820905,-8.007505,-3.7252119,4.2629843
1409522694472,-7.40347,-1.0989386,7.5375457,-8.072646,-3.6668835,4.190076
1409522694488,-6.8881183,-1.198298,7.702147,-8.132615,-3.597719,4.13369
1409522694488,-6.9850836,-1.1198878,7.273585,-8.188024,-3.5350773,4.077976
1409522694503,-7.3843164,-1.1486182,6.701969,-8.239423,-3.4953475,4.008098
1409522694504,-7.7919292,-1.4772224,6.331466,-8.297131,-3.4701793,3.9097135
1409522694520,-8.39048,-2.0895395,6.0627174,-8.344278,-3.478999,3.7999938
1409522694522,-8.891466,-2.5983074,5.593454,-8.3880415,-3.5172389,3.6660857
1409522694536,-9.0429,-2.8395233,5.3318872,-8.42725,-3.5788076,3.513401
1409522694552,-9.123704,-3.0466216,5.3259015,-8.461831,-3.6560216,3.3468368
1409522694554,-9.077017,-3.3411086,5.221155,-8.493263,-3.7368505,3.1734536
1409522694568,-8.739435,-3.6391866,4.996699,-8.523254,-3.8108697,3.000303
1409522694574,-8.024766,-3.7235823,4.71538,-8.554635,-3.8675408,2.8338563
1409522694586,-7.0850415,-3.6391866,4.532822,-8.585392,-3.9114742,2.6761572
1409522694611,-6.540959,-3.7217865,4.64116,-8.62357,-3.924574,2.5302446
1409522694611,-6.6229606,-3.6954503,4.5298295,-8.664846,-3.9085214,2.4112856
1409522694614,-7.1233487,-3.1950622,3.8061821,-8.7048645,-3.872385,2.323865
1409522694622,-7.5363483,-2.7371712,2.9873652,-8.741735,-3.8248942,2.263327
1409522694642,-7.997831,-2.606687,2.48578,-8.773843,-3.7746925,2.2230096
1409522694643,-8.450933,-2.6521769,2.0649989,-8.798721,-3.7289655,2.2017534
1409522694656,-8.8364,-2.9502552,1.7064673,-8.817036,-3.6883042,2.1969728
1409522694674,-9.45171,-3.4799721,1.7375919,-8.827398,-3.6646848,2.1948855
1409522694692,-10.111312,-3.9121256,1.99437,-8.829391,-3.6620162,2.1913192
1409522694692,-10.809821,-4.188656,2.3415294,-8.826151,-3.678494,2.1767292
1409522694694,-11.668142,-4.687248,2.7934349,-8.822236,-3.7049198,2.1475844
1409522694703,-12.425308,-5.4168816,2.7754784,-8.821124,-3.7327013,2.1035957
1409522694728,-12.464812,-6.001665,2.5617957,-8.825519,-3.7547808,2.0450454
1409522694728,-11.823765,-5.957372,2.1410148,-8.839665,-3.7575424,1.977774
1409522694734,-10.8595,-5.450999,1.5490485,-8.86167,-3.7440937,1.9034106
1409522694761,-9.465476,-3.9246953,0.42197806,-8.899464,-3.6922307,1.8268452
1409522694762,-9.492412,-3.3081882,0.52492875,-8.952925,-3.603808,1.7401509
1409522694763,-10.022727,-3.217807,0.6889315,-9.015121,-3.4927418,1.6427807
1409522694802,-10.599131,-3.6182373,1.0366893,-9.080961,-3.371454,1.5296544
1409522694803,-10.684724,-3.9564183,1.5263035,-9.144613,-3.250915,1.4064183
1409522694804,-10.167576,-4.0426097,2.0667946,-9.202223,-3.1359506,1.2865926
1409522694805,-9.43914,-3.7912183,2.4492683,-9.254075,-3.0218499,1.1835982
1409522694830,-9.037513,-3.4284968,2.6833014,-9.302861,-2.9043348,1.091775
1409522694830,-9.230247,-3.2124202,2.529474,-9.347725,-2.78362,1.0207267
1409522694836,-9.362526,-2.7593174,1.697489,-9.387423,-2.6674592,0.9650726
1409522694862,-9.000402,-2.5037365,0.6901286,-9.423725,-2.5575175,0.9071318
1409522694863,-8.292916,-2.2918496,-0.3561375,-9.458435,-2.4524355,0.8330396
1409522694863,-8.163031,-1.6927006,-0.7457938,-9.493499,-2.3457344,0.73580784
1409522694899,-8.016386,-1.6777369,-0.30765492,-9.52721,-2.2386951,0.62522566
1409522694899,-6.817489,-2.7730842,2.7048495,-9.556422,-2.1383398,0.5222025
1409522694899,-6.6684504,-3.5631707,5.7137623,-9.575631,-2.0685744,0.44573885
1409522694903,-8.04751,-3.008913,5.3516393,-9.586214,-2.0259163,0.41300857
1409522694928,-8.669404,-1.8776526,4.542998,-9.592157,-1.9999403,0.40146366
1409522694928,-8.20433,-1.3126211,3.6457705,-9.59412,-1.990777,0.40006432
1409522694934,-7.754221,-2.098518,2.9993362,-9.594315,-1.9945536,0.3758768
1409522694956,-9.027337,-3.6224272,2.3600843,-9.592795,-2.0117507,0.3186153
1409522694957,-10.359112,-3.807978,1.4197617,-9.586666,-2.0511422,0.24296471
1409522694971,-10.602123,-2.4229321,0.044891283,-9.578238,-2.0974414,0.16887656
1409522694985,-8.971672,-0.05925649,-1.869273,-9.570205,-2.13798,0.10298925
1409522694986,-7.9152308,0.9008184,-2.7593174,-9.567453,-2.151989,0.056556586
1409522695003,-6.871359,0.09636662,-2.7401638,-9.569577,-2.1428823,0.040331427
1409522695003,-9.061455,-2.5677812,-0.7326257,-9.570065,-2.140316,0.05727438
1409522695018,-12.36246,-4.064756,-0.30406362,-9.561673,-2.1759806,0.09955694
1409522695034,-13.540408,-4.546589,-1.982399,-9.542263,-2.258187,0.127327
1409522695034,-13.564948,-5.3642087,-3.25372,-9.519262,-2.3550737,0.08756781
1409522695053,-12.717401,-5.931036,-4.086902,-9.493319,-2.4590907,-0.014007483
1409522695054,-11.122264,-5.680842,-4.1258082,-9.468551,-2.5457876,-0.1894833
1409522695070,-8.603564,-4.819528,-3.2345665,-9.447968,-2.6007,-0.3776777
1409522695090,-4.9799395,-3.5954924,-2.297835,-9.436362,-2.6166894,-0.5276497
1409522695090,-0.7266402,-1.8854338,-0.7236475,-9.434538,-2.599015,-0.6363912
1409522695095,0.79487497,-0.42676646,0.26874915,-9.437981,-2.5668273,-0.7115397
1409522695103,-0.37708676,0.4201824,1.1605892,-9.435943,-2.560628,-0.7593138
1409522695119,0.43394905,1.377863,2.5354595,-9.427223,-2.583602,-0.78921914
1409522695135,1.9829975,1.6807296,3.810372,-9.154074,-3.461553,-0.62527245
1409522695137,0.39683893,0.56203884,4.945224,-9.197254,-3.4030735,-3.144728E-4
1409522695151,-5.018845,-2.0123265,5.1170077,-9.148979,-3.4027545,0.9422464
1409522695155,-9.309255,-4.4155064,4.3927617,-8.983468,-3.5031335,1.7876697
1409522695168,-16.46732,-8.03554,3.5763388,-8.8104725,-3.7135737,2.1806705
1409522695185,-17.673399,-9.19553,-0.623091,-8.723612,-3.9667032,2.0818856
1409522695185,-14.888942,-7.98167,-4.8147397,-8.726649,-4.2169194,1.4945205
1409522695206,-11.532271,-6.8264675,-6.992266,-8.759299,-4.348847,0.72979313
1409522695207,-8.220491,-6.4631476,-9.390059,-8.744703,-4.438053,-0.06509649
1409522695215,-7.0742674,-6.1207767,-8.6095495,-8.610582,-4.590567,-0.97722185
1409522695241,-7.140108,-5.775413,-5.0182467,-8.423278,-4.7229433,-1.70663
1409522695242,-6.733692,-5.46297,-2.779668,-8.294098,-4.819308,-2.037794
1409522695243,-5.7179523,-5.171476,-1.3994108,-8.213253,-4.918179,-2.1270628
1409522695280,-5.16549,-5.645528,0.60214174,-8.153824,-5.0468426,-2.0530221
1409522695280,-5.644929,-7.693767,2.3642743,-8.083115,-5.261346,-1.7753583
1409522695281,-6.3153057,-9.172785,2.992752,-7.9391174,-5.5979953,-1.3428566
1409522695283,-7.001843,-10.224439,1.8303672,-7.7425866,-5.9555254,-0.86862564
1409522695311,-7.445967,-9.351752,0.1376666,-7.517723,-6.269403,-0.59062845
1409522695312,-7.837419,-9.711481,0.19153613,-7.3619328,-6.4570694,-0.5278235
1409522695316,-7.311892,-9.021352,0.23762453,-7.2162495,-6.625105,-0.45180002
1409522695341,-6.6750345,-7.383718,0.32441434,-7.1075916,-6.748143,-0.3392579
1409522695341,-6.3404446,-6.481104,0.7751228,-7.0637794,-6.799644,-0.19556972
1409522695343,-6.4302273,-6.4260373,1.2395979,-7.050481,-6.8161626,-0.03255051
1409522695355,-6.8132997,-6.8767457,1.9123687,-7.0188737,-6.847089,0.15232605
1409522695377,-7.135918,-7.5848308,2.0847511,-6.967343,-6.892466,0.3469982
1409522695378,-7.345411,-8.265383,2.0979192,-6.9036083,-6.946248,0.51016015
1409522695383,-7.4208283,-8.488642,1.970428,-6.831908,-7.006376,0.6372679
1409522695409,-7.2789717,-8.142081,1.7274165,-6.7740254,-7.0538864,0.7250257
1409522695410,-7.0569096,-7.980473,1.863886,-6.743789,-7.076473,0.7843809
1409522695419,-6.9252286,-8.094796,1.9620483,-6.7104435,-7.098558,0.86651033
1409522695449,-6.8025255,-8.319252,1.9327193,-6.6837444,-7.1121807,0.9564676
1409522695449,-6.239888,-7.968502,1.7633295,-6.6536155,-7.1299167,1.0315406
1409522695450,-5.5587378,-7.363966,1.7956513,-6.6166797,-7.1559796,1.0871574
1409522695455,-4.4478283,-5.9956794,1.4580688,-6.565799,-7.193828,1.1443447
1409522695478,-3.4620156,-4.7560816,0.91578215,-6.507646,-7.2388973,1.1913469
1409522695479,-2.7252002,-4.0174704,1.0779893,-6.4407067,-7.2950172,1.2126019
1409522695483,-1.7908629,-3.1872811,1.429937,-6.348781,-7.366104,1.2664381
1409522695507,-0.98461545,-2.7269957,2.3624785,-6.2514844,-7.4293323,1.3763609
1409522695508,-0.44352585,-2.4971523,2.895787,-6.0833783,-7.519684,1.6177948
1409522695515,-0.15203181,-2.3229742,2.7563248,-5.867857,-7.6137304,1.9415863
1409522695535,0.092775315,-1.970428,2.5773582,-5.628961,-7.710146,2.2447362
1409522695535,0.32321724,-1.5107412,2.9484594,-5.3943696,-7.7935586,2.516272
1409522695556,0.27952304,-1.3132197,2.706645,-5.1604223,-7.8345785,2.8565366
1409522695557,0.13347675,-1.2551602,1.9357121,-4.947029,-7.8424816,3.1926112
1409522695563,0.10055647,-1.2060791,1.6879122,-4.77671,-7.8498397,3.4254138
1409522695591,0.11552023,-1.18094,1.471237,-4.6049776,-7.8494687,3.6538222
1409522695591,0.036511578,-1.3054385,1.3335704,-4.390832,-8.0613165,3.4505334
1409522695595,-0.9223662,-4.3598413,0.84694886,-4.188429,-8.253249,3.2421205
1409522695603,-2.8281507,-18.05228,-4.542998,-4.063936,-8.087225,3.7751305
1409522695625,1.1192893,-19.608511,-9.647436,-3.3011572,-9.056878,1.8015858
1409522695626,-5.9681463,-19.608511,-12.447454,-2.127563,-9.571898,-0.1504533
1409522695636,-8.80767,-19.608511,-6.9826894,-1.6848732,-9.65559,-0.3180945
1409522695659,-4.281431,-13.4739685,-2.0566192,-1.10704,-9.729308,-0.5342498
1409522695665,-1.4227544,-4.7123876,-0.11671733,-2.1072392,-9.357626,-2.0407734
1409522695666,-0.14903906,-2.3558946,0.62488663,-2.1826801,-9.369894,-1.9003567
1409522695695,0.09636662,-2.1057005,0.7344214,-2.2650998,-9.384705,-1.7225015
1409522695696,-0.54887074,-2.815581,1.1067197,-2.259222,-9.414332,-1.5609865
1409522695696,-2.0404584,-5.390545,1.3802572,-2.2634678,-9.445748,-1.3508999
1409522695709,-2.8898015,-9.017162,0.9816227,-2.3516169,-9.461701,-1.0566386
1409522695727,-2.231396,-12.522872,0.47884035,-2.3977203,-9.475778,-0.79434246
1409522695727,-1.192911,-15.473127,0.49559975,-2.2916415,-9.51679,-0.59112394
1409522695738,0.4297592,-16.141708,0.8475474,-2.0686734,-9.578144,-0.38744584
1409522695754,3.1280246,-14.214974,3.1549592,-1.7685843,-9.6445,-0.16156295
1409522695775,5.092467,-11.886613,2.4929626,-1.3259739,-9.713544,0.24342974
1409522695776,5.8280854,-10.580576,0.5781997,-0.7773612,-9.764878,0.4618198
1409522695776,5.5898623,-9.784504,-0.415394,-0.19235009,-9.79677,0.39585987
1409522695783,5.0882773,-9.246407,-1.0779893,0.35245356,-9.797093,0.251314
1409522695817,4.705205,-8.962095,-1.5897499,0.8135627,-9.772131,0.11807591
1409522695817,4.1539397,-8.878897,-1.8291701,1.2235125,-9.729896,-0.050330695
1409522695818,3.8827965,-8.982447,-2.1865046,1.5480975,-9.681451,-0.20803252
1409522695842,3.650559,-9.196728,-2.2529438,1.8119372,-9.630188,-0.38306847
1409522695843,2.758719,-8.884284,-2.0123265,2.0163536,-9.581471,-0.54784083
1409522695844,2.36188,-8.834005,-1.8082209,2.115125,-9.551439,-0.6831208
1409522695869,2.054225,-9.103952,-1.6753427,2.1627185,-9.5321865,-0.79400724
1409522695870,1.8531121,-9.651626,-1.6130934,2.1610663,-9.5241785,-0.88894415
1409522695883,1.7405846,-10.802638,-1.501763,2.132289,-9.524624,-0.95144147
1409522695884,1.7196354,-10.616488,-0.91338795,2.0656598,-9.535543,-0.9883532
1409522695902,1.6370354,-10.305841,-0.6853402,2.0058835,-9.550867,-0.9631898
1409522695903,1.3575124,-10.656591,-1.0097545,1.9475498,-9.567203,-0.91982263
1409522695917,1.0247183,-10.935516,-1.1935096,1.862354,-9.5853615,-0.9071388
1409522695929,0.688333,-10.688315,-1.0851719,1.7550533,-9.605275,-0.91044486
1409522695935,0.3226187,-10.651205,-0.9475053,1.6345205,-9.626267,-0.91308284
1409522695951,-0.026934769,-10.882844,-0.8924387,1.4942621,-9.649865,-0.9042665
1409522695968,-0.11971009,-11.792641,-0.92895025,1.32308,-9.674159,-0.91130733
1409522695969,0.1448492,-10.869676,-0.60094464,1.1472999,-9.696133,-0.9160566
1409522695989,0.4333505,-9.874287,-0.36750996,1.0201094,-9.712372,-0.8942174
1409522695989,0.60573304,-8.938752,-0.29927522,0.9353554,-9.724783,-0.850928
1409522695995,0.676362,-8.215703,-0.36870706,0.88527447,-9.733599,-0.80234635
1409522696004,0.635062,-8.406042,-0.57161564,0.86247724,-9.738731,-0.76394993
1409522696016,0.6314707,-9.516354,-0.88046765,0.84322864,-9.741526,-0.749687
1409522696030,0.5746084,-10.572196,-1.1953052,0.8194661,-9.743086,-0.755731
1409522696038,0.5758055,-10.865486,-1.240795,0.78766316,-9.74337,-0.78530544
1409522696049,0.5446809,-10.572196,-1.2162545,0.75860304,-9.743158,-0.8159324
1409522696068,0.55006784,-10.457274,-1.3090298,0.73487324,-9.7423725,-0.84647626
1409522696069,0.35793316,-10.679337,-1.5179238,0.7186764,-9.740147,-0.8851287
1409522696086,0.027533319,-11.052234,-1.7555484,0.6910399,-9.737164,-0.93834674
1409522696089,-0.25677812,-11.183915,-1.7591397,0.6382114,-9.734003,-1.0061284
1409522696106,-0.19273324,-10.828975,-1.4508862,0.5537246,-9.732869,-1.065385
1409522696106,0.16400282,-10.38485,-1.0749966,0.49328622,-9.732564,-1.0973858
1409522696115,0.54288524,-10.199299,-0.76434886,0.46202978,-9.733892,-1.0992031
1409522696138,0.6811504,-10.233417,-0.5422867,0.4605837,-9.736779,-1.0739638
1409522696139,0.7248446,-10.398018,-0.36511576,0.47166824,-9.741237,-1.0277432
1409522696144,0.7763199,-9.874287,-0.08140286,0.49064535,-9.74674,-0.96473294
1409522696174,0.7140707,-8.798093,0.2908955,0.5183865,-9.753136,-0.88205993
1409522696176,0.5805939,-8.145673,0.45669398,0.5423907,-9.760634,-0.7785829
1409522696176,0.42197806,-8.628104,0.23044191,0.5556322,-9.768232,-0.6658168
1409522696184,0.15263036,-9.940127,-0.25079262,0.549348,-9.774236,-0.57698816
1409522696203,0.010773907,-10.357317,-0.53809685,0.5090981,-9.778817,-0.5347243
1409522696216,0.18614918,-10.117896,-0.5434838,0.4564891,-9.781927,-0.5253205
1409522696218,0.50397944,-9.782708,-0.4794389,0.42377135,-9.783509,-0.523237
1409522696233,0.7062895,-9.650429,-0.5009867,0.42336658,-9.783729,-0.5194458
1409522696236,0.7691373,-9.491214,-0.57760113,0.4464131,-9.782693,-0.5196274
1409522696254,0.7302315,-9.029133,-0.6314707,0.47803313,-9.780798,-0.52715415
1409522696255,0.61650693,-9.048885,-0.76075757,0.50775725,-9.77846,-0.54251903
1409522696264,0.54408234,-9.385271,-0.9684546,0.52463967,-9.776137,-0.5676913
1409522696279,0.7218518,-9.709086,-1.2150574,0.53244656,-9.773342,-0.6071993
1409522696284,0.8535329,-10.055049,-1.4640543,0.5565642,-9.768233,-0.66502637
1409522696301,0.8391677,-10.384252,-1.6244658,0.5904057,-9.760786,-0.740866
1409522696318,0.80445176,-10.755951,-1.7848774,0.61969054,-9.752246,-0.82468355
1409522696318,0.6751649,-11.14441,-1.8950106,0.63940793,-9.742833,-0.91584
1409522696335,0.5883751,-11.092337,-1.8207904,0.6372955,-9.734492,-1.0019664
1409522696354,0.65660983,-10.804434,-1.5634137,0.62725455,-9.727148,-1.0768089
1409522696354,0.6440403,-10.437522,-1.2401965,0.6238497,-9.722113,-1.1232538
1409522696355,0.61650693,-10.147225,-0.9672575,0.6210335,-9.720696,-1.1370088
1409522696364,0.6931214,-10.404003,-0.8559271,0.6195178,-9.722302,-1.1240231
1409522696380,0.53689975,-10.332776,-0.670975,0.624462,-9.725186,-1.0959835
1409522696384,0.374094,-10.098145,-0.53689975,0.61572427,-9.730596,-1.0520295
1409522696399,0.09756372,-10.19451,-0.4866215,0.59404695,-9.737222,-1.0020181
1409522696415,-0.31364042,-10.684125,-0.52612585,0.5470114,-9.745156,-0.9503236
1409522696416,-0.42078096,-11.683704,-0.65900403,0.4632985,-9.7540455,-0.90240276
1409522696430,-0.025737667,-11.993155,-0.56922144,0.3756772,-9.761288,-0.864004
1409522696437,0.5530606,-11.496957,-0.20231004,0.3292308,-9.766797,-0.81954646
1409522696450,0.62249243,-10.849923,0.23463176,0.33615562,-9.772074,-0.7509778
1409522696481,0.55485624,-10.250774,0.50996494,0.3519447,-9.778378,-0.65562946
1409522696481,0.5009867,-9.725846,0.44592008,0.37137687,-9.784223,-0.5490322
1409522696482,0.4770447,-9.2787285,0.13227965,0.38737845,-9.788262,-0.45853215
1409522696484,0.27234045,-9.048286,-0.23702596,0.40188715,-9.790222,-0.40054202
1409522696508,0.077213004,-9.019556,-0.5710171,0.3936118,-9.791573,-0.3749499
1409522696509,-0.1340753,-9.051279,-0.79008657,0.36777854,-9.792234,-0.38380992
1409522696521,-0.3752911,-9.018359,-0.90141696,0.32368454,-9.792394,-0.41790846
1409522696557,-0.58298814,-9.474455,-1.067814,0.25726154,-9.792299,-0.46376887
1409522696557,-0.66618663,-10.237008,-1.1827357,0.17225538,-9.791236,-0.52190864
1409522696558,-0.53091425,-9.308656,-0.87208796,0.08613895,-9.788981,-0.5820812
1409522696559,0.3250129,-8.899846,-0.46507367,0.018882688,-9.787656,-0.6097727
1409522696565,1.1174936,-10.000581,-0.29508537,0.040429335,-9.788326,-0.5978484
1409522696599,1.5664065,-11.695077,-0.52971715,0.13681377,-9.789383,-0.56535774
1409522696600,1.6717514,-11.504738,-0.91458505,0.2660507,-9.787459,-0.5525138
1409522696600,1.4000094,-10.526108,-1.271321,0.3956465,-9.78156,-0.57875353
1409522696620,1.1707647,-10.429741,-1.6460136,0.49330288,-9.773448,-0.63777566
1409522696621,1.1953052,-10.685921,-1.9249382,0.5636907,-9.763411,-0.726962
1409522696624,0.98820674,-10.557831,-1.9405005,0.6251438,-9.751372,-0.8308739
1409522696652,0.7290344,-10.144233,-1.8872294,0.66424716,-9.73978,-0.9305185
1409522696652,0.66379243,-9.69532,-1.697489,0.6758675,-9.729812,-1.0219355
1409522696669,0.7691373,-9.545682,-1.3377602,0.67808074,-9.721994,-1.0924504
1409522696669,0.908001,-9.745,-0.8631097,0.6873884,-9.717873,-1.122861
1409522696687,1.0468647,-10.259753,-0.4890157,0.70835227,-9.718666,-1.1028061
1409522696687,1.1372458,-10.721834,-0.24540567,0.7408537,-9.722818,-1.0432276
1409522696698,1.1480197,-10.961852,-0.19512744,0.7783564,-9.728378,-0.96086603
1409522696712,0.99658644,-10.803835,-0.24181437,0.80992407,-9.733727,-0.87690854
1409522696716,0.6919243,-10.485406,-0.32800564,0.8288567,-9.738289,-0.80566144
1409522696728,0.350152,-10.526108,-0.3393781,0.820195,-9.743256,-0.75276864
1409522696746,0.11791443,-10.456078,-0.27952304,0.7794526,-9.749965,-0.707856
1409522696746,0.032920275,-10.316615,-0.18854338,0.71809536,-9.757732,-0.66436714
1409522696776,0.03232172,-10.447099,-0.076614454,0.65163,-9.765437,-0.6180875
1409522696777,0.089782566,-10.375273,-0.007182605,0.5899451,-9.772614,-0.5642751
1409522696778,0.17298107,-10.503962,-0.14544775,0.5419664,-9.778437,-0.50878835
1409522696785,0.08738836,-10.199299,-0.29927522,0.50430185,-9.782438,-0.46899495
1409522696806,-0.039504327,-9.563639,-0.338181,0.46463206,-9.7854595,-0.44641924
1409522696806,-0.08738836,-9.072827,-0.30166942,0.42053077,-9.788085,-0.43236706
1409522696818,-0.0688333,-9.168595,-0.35673606,0.37561554,-9.790484,-0.41920945
1409522696832,0.031124622,-9.333197,-0.47764325,0.33357933,-9.7923355,-0.41142815
1409522696849,0.13826515,-9.3499565,-0.5835867,0.30259237,-9.793181,-0.41528046
1409522696849,0.14903906,-9.405023,-0.7116765,0.28369975,-9.793085,-0.43059623
1409522696865,0.08080431,-9.4972,-0.86490536,0.27027008,-9.792212,-0.458213
1409522696865,0.12449849,-9.620501,-1.0564415,0.24874154,-9.790775,-0.49921355
1409522696881,0.21906945,-9.527127,-1.0755951,0.23176673,-9.788115,-0.55631185
1409522696884,0.260968,-9.398438,-0.94690675,0.22418782,-9.785024,-0.6111004
1409522696897,0.23463176,-9.366715,-0.8631097,0.22315118,-9.782526,-0.650207
1409522696912,0.24181437,-9.415198,-0.90859956,0.22213878,-9.780685,-0.67768985
1409522696916,0.25019407,-9.415796,-1.18094,0.22275896,-9.778822,-0.70383555
1409522696933,0.3561375,-9.59177,-1.2695254,0.22453883,-9.775075,-0.75357705
1409522696953,0.46387658,-9.894038,-1.3599066,0.234502,-9.770735,-0.8050652
1409522696953,0.55844754,-10.26514,-1.4221559,0.25343642,-9.765695,-0.8587164
1409522696956,0.6338649,-10.429741,-1.3587095,0.2785475,-9.760177,-0.91202366
1409522696965,0.688333,-10.577583,-1.2485762,0.30713353,-9.755283,-0.95421416
1409522696991,0.7368156,-10.845135,-1.1719618,0.33794075,-9.751564,-0.98142105
1409522696992,0.78769237,-11.034277,-1.0606314,0.36966306,-9.748961,-0.99574316
1409522696998,0.8242039,-11.162367,-0.99060094,0.40234688,-9.747804,-0.9943888
1409522697019,0.85413146,-11.204864,-0.9451111,0.43406537,-9.747568,-0.98330015
1409522697020,0.94211835,-11.039065,-0.85772276,0.46712127,-9.747573,-0.96800655
1409522697025,1.0223241,-10.881647,-0.7541735,0.5062486,-9.747739,-0.94641006
1409522697056,1.1007342,-10.76493,-0.670975,0.54791707,-9.748185,-0.91819096
1409522697056,1.1127052,-10.6637745,-0.587178,0.59289956,-9.748491,-0.88643914
1409522697058,1.1013328,-10.554239,-0.61052144,0.636037,-9.748861,-0.8517881
1409522697065,1.0199299,-10.341754,-0.6913257,0.674341,-9.7487,-0.82370096
1409522697097,0.8074445,-9.983223,-0.6691794,0.70226943,-9.748131,-0.8069613
1409522697097,0.4429273,-9.464878,-0.4973954,0.71021867,-9.748714,-0.7928224
1409522697098,0.15981296,-9.115324,-0.40761283,0.6891376,-9.752222,-0.76789916
1409522697114,0.10414778,-9.099762,-0.40521863,0.64610595,-9.757348,-0.73964584
1409522697133,0.25617957,-9.515156,-0.45609543,0.59931177,-9.762407,-0.71178097
1409522697133,0.29747957,-10.049662,-0.49919105,0.5660443,-9.766206,-0.6864448
1409522697149,0.36511576,-10.2406,-0.49679685,0.53674924,-9.769356,-0.66484237
1409522697149,0.47285482,-10.204686,-0.41838676,0.5253122,-9.77004,-0.66391957
1409522697164,0.6075287,-10.299856,-0.374094,0.5185218,-9.77045,-0.66318554
1409522697165,0.6380547,-10.376471,-0.3226187,0.51663613,-9.770384,-0.66563994
1409522697188,0.6619968,-10.344149,-0.30645782,0.5154919,-9.770136,-0.6701507
1409522697188,0.7302315,-10.40939,-0.36032736,0.51628363,-9.769693,-0.67597383
1409522697196,0.89543146,-10.436325,-0.42437226,0.51970863,-9.76911,-0.68175656
1409522697220,0.9935937,-10.262147,-0.46028528,0.5265262,-9.768531,-0.6848226
1409522697221,1.0857705,-9.985018,-0.48722005,0.5345906,-9.768183,-0.6835247
1409522697225,1.1552023,-9.909601,-0.52073884,0.54441726,-9.767811,-0.68108124
1409522697252,1.2366052,-9.969456,-0.6368576,0.5557298,-9.76757,-0.675381
1409522697252,1.2964603,-10.033501,-0.76434886,0.56893474,-9.767278,-0.66856927
1409522697257,1.3628993,-10.056246,-0.8912416,0.58298403,-9.766942,-0.661364
1409522697265,1.4143747,-10.180744,-1.0145429,0.59801674,-9.766508,-0.65429103
1409522697287,1.4676456,-10.313622,-1.1121067,0.612683,-9.766006,-0.64816934
1409522697288,1.460463,-10.313024,-1.1558008,0.6258479,-9.76539,-0.64484954
1409522697299,1.4957775,-10.209475,-1.1264719,0.6364505,-9.76471,-0.6447683
1409522697332,1.5334862,-10.158598,-1.0869676,0.64653647,-9.764009,-0.64536434
1409522697336,1.602918,-10.304046,-1.0366893,0.65474665,-9.763246,-0.6486419
1409522697338,1.6543933,-9.891046,-0.8936358,0.662,-9.762418,-0.6537385
1409522697364,1.7675194,-9.863512,-0.8487445,0.6686495,-9.761647,-0.6584623
1409522697364,1.8590976,-9.991004,-0.89184016,0.67683864,-9.760761,-0.66320467
1409522697364,1.834557,-9.8677025,-0.93493575,0.68749946,-9.759659,-0.66844153
1409522697365,1.7872716,-9.888652,-1.0929531,0.69921005,-9.75847,-0.6736403
1409522697382,1.7220296,-9.915586,-1.2024878,0.71180385,-9.757144,-0.6795995
1409522697402,1.602918,-9.898827,-1.2659341,0.72404814,-9.755812,-0.6857589
1409522697403,1.4305356,-9.916184,-1.2138603,0.7351713,-9.754583,-0.6913915
1409522697405,1.2449849,-10.009559,-1.1468226,0.7443693,-9.753604,-0.6953306
1409522697437,1.1091139,-10.206482,-1.0869676,0.75113666,-9.752863,-0.6984493
1409522697438,0.8912416,-10.33936,-1.0408791,0.75643796,-9.752282,-0.7008567
1409522697438,0.5021838,-10.207679,-0.9900024,0.75974166,-9.751888,-0.70274466
1409522697445,0.16759412,-9.995792,-0.92416185,0.7583853,-9.751935,-0.7035551
1409522697470,0.02813187,-10.027515,-0.86011696,0.75251466,-9.752424,-0.70307785
1409522697471,-0.1933318,-10.12448,-0.5758055,0.7464432,-9.753189,-0.6989334
1409522697479,-0.39743748,-10.239402,-0.51595044,0.73708326,-9.7546625,-0.6882352
1409522697514,-0.6183026,-10.01734,-0.42437226,0.72649556,-9.756277,-0.6764957
1409522697515,-0.7110779,-10.239402,-0.45310268,0.7167513,-9.757838,-0.6642818
1409522697516,-0.7332243,-10.494983,-0.5626374,0.7060417,-9.759397,-0.65275824
1409522697542,-0.705691,-10.4249525,-0.57400984,0.69279027,-9.761017,-0.6426573
1409522697543,-0.8038532,-10.317812,-0.62728083,0.678274,-9.762696,-0.63253117
1409522697544,-0.92655605,-10.21127,-0.54527944,0.66224754,-9.764352,-0.6238918
1409522697545,-0.90859956,-10.115502,-0.415394,0.6441855,-9.765979,-0.617334
1409522697585,-0.7589619,-10.144831,-0.38606504,0.62782735,-9.767289,-0.61340094
1409522697586,-0.5710171,-10.161591,-0.46028528,0.61341596,-9.768192,-0.61362946
1409522697588,-0.33399114,-10.138845,-0.57999533,0.5991949,-9.768863,-0.6170051
1409522697589,-0.04129998,-10.240001,-0.712275,0.5855144,-9.769378,-0.6219712
1409522697601,0.31184477,-10.53748,-0.7870938,0.5737468,-9.769675,-0.6282367
1409522697628,0.66738373,-10.71106,-0.9127894,0.5663579,-9.769665,-0.63503087
1409522697629,0.91937345,-10.786477,-0.98102415,0.56207246,-9.769292,-0.6445279
1409522697629,1.1240777,-10.867282,-0.99778354,0.56012774,-9.768531,-0.6576048
1409522697650,1.2378023,-10.500969,-0.9576807,0.56141514,-9.767269,-0.6750205
1409522697651,1.340753,-10.350134,-0.8996213,0.56516254,-9.765568,-0.69618475
1409522697659,1.4155718,-10.115502,-0.8475474,0.5701576,-9.763569,-0.71975297
1409522697667,1.4161704,-9.610924,-0.789488,0.5748118,-9.761491,-0.7438212
1409522697692,1.2934675,-9.355343,-0.7679402,0.5781149,-9.759587,-0.76590884
1409522697692,1.0702082,-9.390059,-0.83378077,0.57950234,-9.757895,-0.7861602
1409522697697,0.82779527,-9.416994,-0.8996213,0.580147,-9.756599,-0.80161935
1409522697723,0.7074866,-9.518747,-0.96905315,0.5830565,-9.7557125,-0.8102789
1409522697723,0.7038953,-9.821614,-0.98461545,0.5900895,-9.755258,-0.81066394
1409522697726,0.65421563,-9.876082,-0.8774749,0.60159606,-9.755201,-0.80282503
1409522697752,0.7015011,-9.786898,-0.7068881,0.6147303,-9.755442,-0.789838
1409522697753,0.6847417,-10.014347,-0.59974754,0.6287021,-9.755661,-0.7760389
1409522697757,0.57281274,-10.048465,-0.6003461,0.6418246,-9.755861,-0.76266915
1409522697766,0.43035775,-9.987412,-0.705691,0.65356886,-9.755908,-0.75199705
1409522697792,0.26755205,-10.364499,-0.8798691,0.66432375,-9.755817,-0.74370545
1409522697793,0.12808979,-10.548254,-1.0324994,0.6732044,-9.755814,-0.73571724
1409522697797,0.049679685,-10.387244,-1.0941502,0.6812477,-9.755939,-0.72662485
1409522697818,0.008978256,-10.26095,-1.1258733,0.68945086,-9.756199,-0.71528864
1409522697819,-0.05925649,-10.163984,-1.079785,0.698428,-9.756527,-0.7019757
1409522697826,-0.21667525,-10.29387,-0.9540894,0.71021956,-9.756738,-0.687063
1409522697850,-0.3657143,-10.399814,-0.79726917,0.7216034,-9.756988,-0.67148197
1409522697850,-0.45010993,-10.369886,-0.6871359,0.7364125,-9.7570095,-0.6548877
1409522697857,-0.52492875,-10.342952,-0.62847793,0.7525322,-9.756877,-0.6383086
1409522697866,-0.56682724,-10.576984,-0.55964464,0.76593965,-9.756953,-0.6209736
1409522697888,-0.48123455,-10.8152075,-0.44891283,0.7737538,-9.757519,-0.602105
1409522697888,-0.30466217,-10.720636,-0.31423897,0.77716833,-9.758496,-0.5815179
1409522697900,-0.15622166,-10.524911,-0.25258827,0.7777093,-9.759632,-0.56135976
1409522697925,-0.090979666,-10.404602,-0.3274071,0.77500063,-9.76078,-0.54493046
1409522697926,-0.061650693,-10.014946,-0.46686932,0.7715248,-9.76183,-0.530861
1409522697927,0.02633622,-9.709086,-0.63087213,0.76467884,-9.762851,-0.52192897
1409522697954,0.17238252,-9.266758,-0.641646,0.75572926,-9.763874,-0.51581454
1409522697954,0.39205053,-9.297284,-0.6691794,0.74587506,-9.764937,-0.5099521
1409522697959,0.7009025,-9.911995,-0.80684596,0.7356477,-9.765959,-0.50524527
1409522697986,0.9498995,-10.280702,-0.9235633,0.7259417,-9.766747,-0.5040644
1409522697987,1.0594343,-10.296265,-0.9768343,0.71848935,-9.767152,-0.50689256
1409522697987,1.1941081,-10.453683,-1.0223241,0.713195,-9.76727,-0.5120685
1409522697997,1.2749124,-10.661979,-1.0636241,0.71226066,-9.766786,-0.5224919
1409522698020,1.2611457,-10.526108,-1.0253168,0.71442515,-9.765779,-0.5380743
1409522698020,1.1935096,-10.009559,-0.9379285,0.7176956,-9.764537,-0.55599153
1409522698026,1.1803415,-9.831191,-0.85532856,0.72224927,-9.763219,-0.5729592
1409522698055,1.1821371,-9.770139,-0.748188,0.7295263,-9.761852,-0.5868977
1409522698055,1.1701661,-9.687539,-0.6733692,0.7399404,-9.760531,-0.5957491
1409522698057,1.1252748,-9.703101,-0.6159084,0.7533739,-9.759316,-0.59879285
1409522698084,1.0103531,-9.639654,-0.59376204,0.76701254,-9.758211,-0.5994832
1409522698084,0.878672,-9.651027,-0.5153519,0.78212714,-9.757244,-0.5956969
1409522698086,0.85173726,-9.701904,-0.47884035,0.7980641,-9.756371,-0.5888139
1409522698097,0.7320272,-9.646837,-0.45609543,0.81351185,-9.755541,-0.5813998
1409522698123,0.6278794,-9.869498,-0.46208093,0.8248659,-9.754915,-0.5758716
1409522698123,0.59615624,-10.248381,-0.5069722,0.8318179,-9.754478,-0.57324153
1409522698126,0.54288524,-10.345944,-0.5351041,0.83573097,-9.754133,-0.5734335
1409522698153,0.5303157,-10.264542,-0.57640404,0.8381477,-9.753884,-0.57413787
1409522698153,0.6123171,-10.521319,-0.7386112,0.8375565,-9.7538,-0.5764477
1409522698158,0.6943185,-10.570999,-0.8643068,0.8349226,-9.753847,-0.5794738
1409522698186,0.7134721,-10.326192,-0.91817635,0.8316417,-9.753952,-0.58239454
1409522698187,0.6853402,-10.043077,-0.9127894,0.8274416,-9.754114,-0.5856621
1409522698187,0.66738373,-9.931149,-0.87807345,0.8228268,-9.754212,-0.59048855
1409522698218,0.6015432,-9.88506,-0.79846627,0.8183839,-9.754156,-0.59756786
1409522698218,0.50397944,-9.901221,-0.6697779,0.8131518,-9.754043,-0.60648704
1409522698219,0.45669398,-9.832388,-0.51475334,0.806718,-9.754034,-0.6151719
1409522698226,0.39145198,-9.655217,-0.41299978,0.79893416,-9.754114,-0.62398386
1409522698252,0.2621651,-9.536105,-0.3609259,0.78893036,-9.75434,-0.6331132
1409522698252,0.130484,-9.44333,-0.33638534,0.77562255,-9.7548485,-0.6416478
1409522698259,0.061650693,-9.372701,-0.33159694,0.7594167,-9.755665,-0.6486136
1409522698279,0.06584055,-9.402629,-0.35793316,0.7405939,-9.756766,-0.6537787
1409522698280,0.11252748,-9.522937,-0.45789108,0.71919864,-9.758169,-0.6567057
1409522698295,0.12270284,-9.636662,-0.5602432,0.6962141,-9.759681,-0.6590391
1409522698298,0.20111294,-9.799467,-0.6548142,0.67301035,-9.761317,-0.6588754
1409522698316,0.33399114,-9.944916,-0.7697359,0.6504098,-9.762898,-0.658137
1409522698319,0.44831428,-10.121488,-0.84216046,0.62855333,-9.7643,-0.6586065
1409522698326,0.53450555,-10.329783,-0.9032126,0.60709614,-9.765503,-0.66090155
1409522698345,0.6003461,-10.645219,-0.97264445,0.58634853,-9.766374,-0.6667526
1409522698346,0.664391,-11.030087,-1.0618285,0.56713265,-9.766822,-0.67673844
1409522698367,0.75477207,-10.98759,-1.0672154,0.54978025,-9.766842,-0.6905942
1409522698367,0.8415619,-10.928932,-1.0259154,0.53445786,-9.766587,-0.70604885
1409522698379,0.9379285,-10.821792,-0.9247604,0.52204555,-9.765906,-0.7245488
1409522698402,1.0402806,-10.721834,-0.8475474,0.5117954,-9.764892,-0.7452347
1409522698403,1.0749966,-10.5045595,-0.7793127,0.50512105,-9.763603,-0.76636213
1409522698406,1.0354922,-10.348937,-0.7278373,0.5021531,-9.762104,-0.787123
1409522698436,0.84455466,-9.610326,-0.5847838,0.5019252,-9.760454,-0.80744684
1409522698436,0.74878657,-9.713276,-0.60094464,0.5022826,-9.758862,-0.8262632
1409522698440,0.8678981,-10.4171715,-0.7338228,0.5030799,-9.757293,-0.84412324
1409522698456,0.9379285,-10.610503,-0.7368156,0.50532854,-9.755877,-0.8590207
1409522698480,0.9816227,-10.307038,-0.7386112,0.51131874,-9.754619,-0.86969525
1409522698493,0.9923966,-10.211869,-0.80086046,0.52161187,-9.75326,-0.878765
1409522698494,0.9516952,-10.177752,-0.7918822,0.5342109,-9.751793,-0.8874515
1409522698518,0.91099375,-10.03769,-0.7074866,0.54808867,-9.750238,-0.89600605
1409522698518,0.90381116,-9.988609,-0.6500258,0.5628525,-9.748544,-0.90524787
1409522698519,0.87448215,-9.946113,-0.62129533,0.57767975,-9.746735,-0.9153534
1409522698519,0.8631097,-9.913192,-0.6404489,0.59198886,-9.744949,-0.9251687
1409522698526,0.8607155,-9.91439,-0.7015011,0.6060002,-9.74326,-0.9338392
1409522698555,0.85054016,-9.88925,-0.7128736,0.61948216,-9.7417,-0.9412217
1409522698556,0.8218097,-9.871294,-0.6955156,0.6321584,-9.740186,-0.94845986
1409522698560,0.6961141,-9.907805,-0.46208093,0.6437378,-9.7386,-0.9569059
1409522698597,0.557849,-9.993997,-0.27473465,0.65197015,-9.73713,-0.9662296
1409522698598,0.40940848,-10.069414,-0.022744916,0.6551488,-9.735694,-0.9784759
1409522698601,0.24899697,-10.127473,0.22565351,0.65337247,-9.734313,-0.9933213
1409522698613,0.08439561,-10.135254,0.3489549,0.65101886,-9.733017,-1.0074416
1409522698613,-0.08080431,-10.086772,0.5410896,0.64001524,-9.731966,-1.0245006
1409522698629,-0.21667525,-10.059238,0.7032967,0.6226973,-9.73125,-1.04183
1409522698629,-0.26515785,-10.085575,0.65541273,0.59985715,-9.73098,-1.0576435
1409522698643,-0.22984336,-10.127473,0.45370123,0.5725363,-9.731052,-1.072024
1409522698646,-0.12629414,-10.100538,0.20949265,0.5423939,-9.731399,-1.084484
1409522698658,0.038307227,-10.007165,-0.022146367,0.5115525,-9.7321205,-1.0929531
1409522698678,0.11432313,-9.968259,-0.28909984,0.48302463,-9.732783,-1.1000062
1409522698693,0.1933318,-10.075399,-0.56922144,0.45442662,-9.733798,-1.1032172
1409522698693,0.30047232,-10.107122,-0.7721301,0.4284335,-9.734882,-1.1040285
1409522698706,0.3238158,-10.147225,-0.89423436,0.40692544,-9.735848,-1.1036544
1409522698706,0.3250129,-10.253169,-0.9995792,0.3876941,-9.736823,-1.101976
1409522698723,0.32142156,-10.261548,-1.0899603,0.37039137,-9.737897,-1.0984356
1409522698726,0.21068975,-10.278907,-1.168969,0.3560805,-9.73911,-1.0923871
1409522698740,0.05626374,-10.278308,-1.2126632,0.34442046,-9.740521,-1.0835137
1409522698746,0.01436521,-10.191518,-1.2449849,0.33198828,-9.74199,-1.0741581
1409522698758,0.046686932,-10.157401,-1.2258313,0.3251339,-9.74342,-1.0632206
1409522698777,0.12090719,-10.187927,-1.2300211,0.32260728,-9.744801,-1.0512929
1409522698778,0.25139117,-10.113707,-1.2886791,0.3227394,-9.746103,-1.039078
1409522698791,0.2801216,-10.010158,-1.3449428,0.32619333,-9.74712,-1.0284111
1409522698816,0.24839842,-10.02153,-1.4281414,0.33270139,-9.747745,-1.0203905
1409522698816,0.25079262,-10.04607,-1.453879,0.34101358,-9.747861,-1.0165209
1409522698818,0.30286652,-10.005967,-1.4203602,0.35094315,-9.747632,-1.0153276
1409522698826,0.3298013,-9.880272,-1.3371617,0.36194327,-9.746782,-1.019632
1409522698851,0.37349546,-9.827001,-1.3138182,0.37357438,-9.745375,-1.0288262
1409522698851,0.36750996,-9.911396,-1.2755109,0.38431263,-9.743616,-1.0414617
1409522698860,0.3788824,-10.005369,-1.1917139,0.39344227,-9.741739,-1.055513
1409522698875,0.42556936,-10.046669,-1.1049241,0.40129444,-9.739918,-1.0692706
1409522698878,0.41240123,-10.111911,-1.0648212,0.40822366,-9.738261,-1.0816588
1409522698892,0.33159694,-10.1699705,-1.0618285,0.41383508,-9.736836,-1.0923169
1409522698913,0.17537527,-10.0987425,-1.1168951,0.4189295,-9.735599,-1.1013606
1409522698914,-0.022146367,-9.977836,-1.2192472,0.42246965,-9.734763,-1.1073953
1409522698920,-0.25139117,-9.81503,-1.2862848,0.42467913,-9.73443,-1.1094567
1409522698927,-0.47764325,-9.648633,-1.2743138,0.4261343,-9.734652,-1.106958
1409522698945,-0.66498953,-9.581595,-1.2419921,0.42678136,-9.735437,-1.0997711
1409522698962,-0.8343793,-9.569624,-1.2108675,0.42524788,-9.736834,-1.0879307
1409522698963,-0.97264445,-9.628283,-1.1893197,0.4199103,-9.738815,-1.0721577
1409522698982,-1.0965444,-9.77792,-1.1402385,0.41034284,-9.741112,-1.0548601
1409522698983,-1.2449849,-10.004171,-1.1174936,0.39766428,-9.743839,-1.034333
1409522698987,-1.3838485,-10.190321,-1.0785879,0.38086367,-9.74699,-1.0107187
1409522699010,-1.4814123,-10.233417,-1.0013748,0.35961628,-9.750396,-0.98533237
1409522699010,-1.4772224,-10.200497,-0.98940384,0.33353317,-9.753927,-0.9592099
1409522699023,-1.3934253,-10.149021,-1.0690111,0.30285278,-9.757266,-0.93511564
1409522699027,-1.2617443,-10.201694,-1.1935096,0.26918665,-9.760001,-0.91669005
1409522699041,-1.0887632,-10.310031,-1.4879963,0.23514001,-9.761892,-0.9058409
1409522699056,-0.9379285,-10.415975,-1.7250223,0.20361412,-9.7630205,-0.90130585
1409522699058,-0.7954735,-10.544662,-1.6849195,0.17572978,-9.7629385,-0.90805537
1409522699077,-0.700304,-10.497377,-1.4909891,0.15283173,-9.761746,-0.9248336
1409522699078,-0.4794389,-10.209475,-1.1534066,0.13261925,-9.759426,-0.95206666
1409522699093,-0.23822308,-9.959879,-0.88405895,0.11399609,-9.756001,-0.9888623
1409522699109,-0.24660277,-9.8677025,-0.8451532,0.09660657,-9.751584,-1.0332854
1409522699110,-0.3250129,-9.834184,-1.0582372,0.08132073,-9.746344,-1.0828416
1409522699123,-0.18076223,-9.714474,-1.0636241,0.071310505,-9.740618,-1.1338638
1409522699127,-0.16519992,-9.825804,-0.9528923,0.065571375,-9.734798,-1.1831464
1409522699141,-0.1448492,-9.910199,-0.96426475,0.061688103,-9.729533,-1.2258716
1409522699158,-0.12749124,-10.000581,-1.1641805,0.05943331,-9.7248535,-1.2625695
1409522699173,-0.0676362,-10.11251,-1.4101849,0.059686407,-9.720517,-1.2955143
1409522699174,0.077811554,-10.207081,-1.6172832,0.07032061,-9.712002,-1.357384
1409522699188,0.17776948,-10.179547,-1.8010383,0.07032061,-9.712002,-1.357384
1409522699188,0.10414778,-10.14124,-1.9135658,0.08041882,-9.706593,-1.3950013
1409522699212,-0.12689269,-10.102334,-2.0572178,0.09174743,-9.700223,-1.4379296
1409522699213,0.11432313,-10.055647,-2.0374656,0.10242665,-9.691409,-1.4954985
1409522699220,0.5518635,-10.088568,-1.7669208,0.1167524,-9.679658,-1.5687562
1409522699227,0.90381116,-10.142437,-1.4730326,0.13363253,-9.664738,-1.6569194
1409522699249,1.0995371,-10.052056,-1.3090298,0.15248568,-9.646968,-1.7558936
1409522699249,1.2593501,-10.306439,-1.371279,0.17530309,-9.627099,-1.8597368
1409522699258,1.3856442,-10.287885,-1.6729485,0.20190877,-9.606164,-1.9624572
1409522699282,1.4335283,-10.105327,-1.6418238,0.2314739,-9.584334,-2.063329
1409522699282,1.3485341,-9.956886,-1.4437037,0.26100656,-9.561983,-2.1611922
1409522699287,1.1965023,-9.841366,-1.1252748,0.29176673,-9.53963,-2.2540472
1409522699316,0.8463503,-9.688736,-0.6392518,0.3217343,-9.518134,-2.3392348
1409522699317,0.3369839,-9.470863,0.26755205,0.34821138,-9.499054,-2.4118767
1409522699319,-0.41359833,-9.449316,1.560421,0.36834845,-9.484369,-2.4660625
1409522699327,-1.347337,-9.582193,2.1218612,0.37942368,-9.475575,-2.4979718
1409522699359,-2.0009542,-9.605537,1.5047557,0.381262,-9.469617,-2.5201983
1409522699359,-2.1481974,-9.711481,0.44651863,0.3807903,-9.461979,-2.5487926
1409522699360,-1.6980876,-9.9473095,-0.47285482,0.38317135,-9.45276,-2.5824227
1409522699386,-1.0929531,-10.180145,-1.2216414,0.39897242,-9.448964,-2.5939002
1409522699388,-0.7326257,-10.412982,-1.7004818,0.42185938,-9.455412,-2.5666344
1409522699388,-0.64583594,-10.498574,-2.0937295,0.44284344,-9.470188,-2.5079527
1409522699415,-0.6015432,-10.526108,-2.5450363,0.4623419,-9.48673,-2.44103
1409522699415,-0.5291186,-10.644022,-2.7874494,0.48523822,-9.499712,-2.3854587
1409522699419,-0.44651863,-10.74398,-2.938284,0.5124138,-9.507552,-2.3482535
1409522699427,-0.39504328,-10.863091,-3.1759086,0.54267454,-9.512502,-2.321251
1409522699449,-0.54527944,-11.142614,-3.2752678,0.5743518,-9.512749,-2.3126004
1409522699451,-0.7613561,-11.16955,-3.1896753,0.60627836,-9.510407,-2.3140745
1409522699460,-0.80564886,-11.015123,-3.0065188,0.6357775,-9.506711,-2.3213427
1409522699473,-0.7870938,-10.942101,-2.7144263,0.66097736,-9.501618,-2.3351068
1409522699490,-0.694917,-10.973824,-2.4821887,0.6820006,-9.495114,-2.3554437
1409522699490,-0.825401,-11.180324,-2.4558525,0.7032658,-9.487036,-2.3815892
1409522699511,-1.033098,-11.443087,-2.4277205,0.7259414,-9.478263,-2.409551
1409522699512,-1.2533646,-11.917139,-2.255338,0.74745214,-9.468497,-2.4411566
1409522699521,-1.4083891,-12.492945,-2.0231004,0.76726156,-9.457668,-2.4767408
1409522699527,-1.6370354,-13.008296,-1.4646529,0.78000796,-9.445194,-2.5199797
1409522699546,-1.9806033,-13.031041,0.07182605,0.78262806,-9.431075,-2.5715184
1409522699548,-2.5659857,-12.859258,2.4013844,0.775164,-9.416013,-2.6283555
1409522699559,-3.2028434,-12.576143,4.841076,0.7566428,-9.39998,-2.6904113
1409522699586,-3.9258924,-12.357672,7.4028716,0.73276454,-9.381027,-2.762208
1409522699586,-5.035006,-12.641984,14.692617,0.717415,-9.367628,-2.811268
1409522699587,-5.589264,-13.401544,15.54615,0.68454176,-9.395402,-2.725471
1409522699616,-3.3901896,-12.999318,6.1399302,0.6667846,-9.440872,-2.5682185
1409522699617,-2.9418752,-13.769054,4.359243,0.70825946,-9.465392,-2.464774
1409522699619,-3.9995139,-13.828909,3.1004913,0.7374445,-9.525304,-2.2125044
1409522699627,-5.229535,-13.813347,0.51595044,0.71306014,-9.590123,-1.9213214
1409522699648,-5.5641246,-12.995727,-2.6557682,0.622187,-9.643477,-1.6693097
1409522699648,-4.9961004,-12.258911,-5.064934,0.48895666,-9.686879,-1.4476488
1409522699659,-4.6058455,-12.054806,-4.271256,0.34548882,-9.720253,-1.2520847
1409522699682,-2.2499511,-14.136564,-2.4720132,0.17973903,-9.748878,-1.0475855
1409522699682,-0.480636,-15.292963,-1.6466122,0.017671851,-9.7708435,-0.8370587
1409522699687,1.3239936,-16.224308,-2.244564,-0.14868382,-9.784392,-0.6433949
1409522699717,2.8149827,-17.98704,-3.341707,-0.3177916,-9.789861,-0.47751355
1409522699718,5.1505265,-19.141644,-3.5332432,-0.4800346,-9.789374,-0.3288197
1409522699719,5.635352,-18.894442,-2.3959973,-0.6061452,-9.786276,-0.17826737
1409522699750,3.4278982,-17.064672,-1.4999673,-0.7231649,-9.779947,-0.008014514
1409522699751,0.5255273,-15.699978,-2.9879637,-0.8612626,-9.767132,0.17823978
1409522699751,-1.6334441,-14.818912,-3.7846344,-0.9938079,-9.749789,0.35264307
1409522699776,-3.208829,-13.751098,-3.8857894,-1.1076633,-9.730172,0.5169033
1409522699776,-3.09271,-12.419921,-2.802413,-1.2283821,-9.7074,0.6540934
1409522699793,-1.3030443,-11.358093,-2.3648727,-1.3696737,-9.680867,0.75842214
1409522699793,1.0139444,-10.699089,-2.3959973,-1.5306277,-9.6502,0.8373912
1409522699809,1.4742297,-10.253767,-2.4809916,-1.6949466,-9.616081,0.9102312
1409522699809,2.0805612,-9.247005,-2.2098482,-1.8554614,-9.5784645,0.9902983
1409522699824,3.3848026,-8.264784,-2.0242975,-1.9932247,-9.538994,1.0977566
1409522699866,4.3197384,-7.1353197,-2.746748,-2.0913906,-9.50148,1.2322133
1409522699867,5.191228,-5.7323174,-4.5418005,-2.1706703,-9.464521,1.3716506
1409522699867,4.999093,-4.526837,-6.2991447,-2.254752,-9.426077,1.4951841
1409522699867,4.286818,-3.5206735,-5.073912,-2.360472,-9.383954,1.5937294
1409522699868,2.7341783,-2.8622682,-2.9634233,-2.4846897,-9.332921,1.7009645
1409522699890,1.2018893,-2.4438813,-2.5300727,-2.6049862,-9.273896,1.8382849
1409522699890,0.36272156,-2.4145525,-2.3050177,-2.7051804,-9.217238,1.9735525
1409522699915,-0.11731588,-2.6485856,-2.6473885,-2.763014,-9.167927,2.117843
1409522699915,0.17657238,-3.0358477,-1.9351135,-2.7971244,-9.125922,2.2503355
1409522699919,1.5765818,-3.684078,-1.3030443,-2.8244777,-9.090667,2.3563762
1409522699949,3.4769795,-4.028843,-1.0582372,-2.8536093,-9.062799,2.4275444
1409522699949,4.8620253,-4.1252093,-1.614889,-2.884162,-9.042665,2.4662154
1409522699949,5.5946507,-4.0222588,-2.542642,-2.9097812,-9.031293,2.4777658
1409522699959,5.875371,-3.6032736,-3.064578,-2.9331093,-9.026271,2.468541
1409522699982,5.469554,-3.2052376,-3.2136173,-2.9422605,-9.028967,2.4477065
1409522699982,4.836886,-3.027468,-3.3782187,-2.9405613,-9.0386915,2.4136145
1409522699988,4.5807066,-2.8245595,-3.031658,-2.9203882,-9.057285,2.3679793
1409522700036,3.9055414,-3.3877954,-2.018312,-2.8762174,-9.085419,2.3136373
1409522700037,2.8030117,-4.9176903,-0.27473465,-2.7182097,-9.169218,2.1696064
1409522700038,1.4993688,-7.227496,2.5767596,-2.7182097,-9.169218,2.1696064
1409522700039,-0.12808979,-10.817003,11.621455,-2.6026497,-9.219723,2.0960295
1409522700040,-8.546103,-18.406025,19.608511,-2.4546432,-9.257114,2.109735
1409522700070,-18.935143,-19.608511,16.041151,-2.3430274,-9.310182,2.000284
1409522700070,-19.60911,-19.608511,4.5884876,-2.2425535,-9.351261,1.9223067
1409522700071,-17.496826,-19.527708,3.41473,-2.2160707,-9.369028,1.8656697
1409522700105,-10.928333,-16.168043,5.653309,-2.3094559,-9.376394,1.7088025
1409522700105,-7.495647,-12.5504055,5.7119665,-3.7931168,-8.704531,2.4523044
1409522700105,-3.70383,-9.9233675,4.8362875,-3.8910308,-8.608944,2.6299002
1409522700107,-0.49799395,-7.435792,3.3033998,-3.7984264,-8.587728,2.8272388
1409522700125,1.9566613,-5.2037973,1.62686,-3.5967126,-8.616932,2.997089
1409522700140,4.594473,-5.084686,-0.61411273,-3.255329,-8.715301,3.1010952
1409522700140,7.117962,-8.388085,-3.7361517,-2.6786397,-8.946521,2.992498
1409522700160,6.988076,-9.069835,-4.620809,-1.8081967,-9.319515,2.4591572
1409522700160,6.2303114,-10.650606,-4.307169,-0.9538547,-9.593941,1.7935599
1409522700168,5.8215013,-12.802994,-4.935048,-0.1864467,-9.732914,1.1857631
1409522700190,4.796783,-16.774376,-2.7365725,0.47631168,-9.778346,0.572237
1409522700190,-0.19273324,-19.608511,8.224682,0.888347,-9.763457,0.2369076
1409522700204,0.4866215,-18.298285,6.7229185,0.7547329,-9.741873,0.8346631
1409522700208,3.5889084,-13.245322,2.3888147,0.6811834,-9.718489,1.1213176
1409522700221,3.845088,-7.4776907,-1.146224,0.8519433,-9.701541,1.1509546
1409522700237,3.5990837,-6.6666546,-2.006341,1.0635368,-9.689645,1.07242
1409522700241,3.639785,-6.6923923,-2.5360582,1.2933733,-9.67664,0.92748255
1409522700254,3.429694,-6.917447,-2.545635,1.5470307,-9.659207,0.6905188
1409522700271,2.7443538,-7.234679,-2.4013844,1.7688767,-9.636124,0.43193597
1409522700271,1.9111716,-7.615357,-2.15957,1.9234353,-9.614567,0.17573738
1409522700290,1.4149733,-7.97748,-2.0817583,1.9873424,-9.603016,-0.05405688
1409522700290,1.6274586,-8.658031,-2.1230583,1.9894735,-9.599005,-0.2674138
1409522700302,1.6537948,-10.107721,-2.3654714,1.9860946,-9.592217,-0.46387717
1409522700308,1.0696096,-11.927315,-2.6539726,1.9486976,-9.589006,-0.6511182
1409522700320,0.28550854,-13.241133,-2.926313,1.8300294,-9.598846,-0.8267536
1409522700336,-0.4441244,-13.6649065,-3.032855,1.6396222,-9.618021,-0.98778534
1409522700339,-0.92895025,-13.318944,-2.9562407,1.3968402,-9.640067,-1.1350492
1409522700353,-1.1258733,-12.598887,-3.1130607,1.1509941,-9.660015,-1.2368203
1409522700369,-0.95349085,-11.337742,-3.2225955,0.90738314,-9.671606,-1.34428
1409522700369,-0.6967127,-9.797073,-3.445855,0.7048925,-9.671223,-1.4632126
1409522700389,-0.53570265,-8.673594,-3.4919431,0.54944855,-9.655999,-1.6217777
1409522700393,-0.75836337,-8.292916,-3.0759506,0.43106765,-9.6289835,-1.8075463
1409522700413,-2.167351,-9.164406,-3.0202854,0.31443772,-9.597527,-1.9897271
1409522700414,-4.2880154,-10.113108,-2.7084408,0.09193097,-9.574112,-2.120926
1409522700421,-4.1012673,-9.555858,-2.307412,-0.2972256,-9.54185,-2.2439177
1409522700448,-3.2028434,-8.543709,-1.198298,-0.6139426,-9.50913,-2.3173068
1409522700450,-1.8070238,-7.65127,-0.4830302,-0.8534254,-9.502883,-2.2665632
1409522700451,-0.48362875,-7.2687964,-0.30645782,-0.9800311,-9.519218,-2.1434634
1409522700475,-0.010773907,-7.911041,-0.6380547,-0.9763342,-9.547548,-2.0153162
1409522700475,0.36631286,-9.032125,-1.0869676,-0.9040137,-9.572584,-1.9284085
1409522700493,1.1300632,-9.754577,-1.3611037,-0.77097356,-9.592969,-1.8844016
1409522700494,1.4293385,-10.064626,-1.3359646,-0.5643258,-9.612637,-1.8571775
1409522700501,1.1563994,-10.034698,-1.0845734,-0.346701,-9.6284075,-1.8286604
1409522700510,0.741604,-10.008362,-0.8230068,-0.17391367,-9.641749,-1.782361
1409522700533,0.30226797,-10.078392,-0.40342298,-0.059836045,-9.654655,-1.7188345
1409522700534,0.26396075,-9.931747,-0.089782566,-0.008226561,-9.671821,-1.6205653
1409522700542,0.34955344,-9.719262,0.046088383,0.022364685,-9.691389,-1.4989629
1409522700557,0.34835634,-9.689933,-0.0796072,0.048605625,-9.709657,-1.3750024
1409522700575,0.01616086,-9.7719345,-0.20350714,0.071994685,-9.723653,-1.2711223
1409522700576,-0.3184288,-10.076596,-0.3369839,0.06864187,-9.73386,-1.1906588
1409522700580,-0.6817489,-10.492589,-0.19812019,0.037215047,-9.741405,-1.1287276
1409522700588,-1.2683283,-11.3880205,0.29149407,-0.025215691,-9.74956,-1.0563365
1409522700611,-2.0961237,-12.3516865,0.748188,-0.14053251,-9.760745,-0.93728125
1409522700611,-2.9694088,-13.076531,1.6639702,-0.32154799,-9.769835,-0.7857071
1409522700620,-3.4638114,-13.028647,8.0445175,-0.56232524,-9.774277,-0.5636457
1409522700644,-3.9989154,-13.623607,17.31307,-0.82824683,-9.769426,0.20668119
1409522700644,-5.2103815,-14.589666,17.880497,-0.82080555,-9.7720995,-0.052327193
1409522700648,-5.795764,-14.368801,2.8975825,-0.8124948,-9.766577,-0.35243997
1409522700680,-5.2301335,-13.578116,-6.301539,-1.6932799,-9.297126,2.6204321
1409522700680,-4.8937483,-13.623607,-7.269395,-1.9869245,-9.39256,2.000586
1409522700681,-4.414908,-14.3574295,-7.0545154,-2.1554036,-9.463071,1.4053073
1409522700688,-5.5862713,-14.474745,-5.2498856,-2.1989033,-9.52267,0.8086824
1409522700712,-5.905897,-13.986328,-0.31663316,-2.3160973,-9.524523,0.29928333
1409522700712,-6.499659,-14.792575,4.289212,-2.467613,-9.490037,0.14314784
1409522700722,-6.4805055,-15.525201,12.263102,-2.6393614,-9.437102,0.38110286
1409522700750,-5.997475,-15.30673,14.617799,-2.769026,-9.333992,1.174507
1409522700750,-6.0369797,-14.396934,10.196905,-2.8628836,-9.152474,2.0509775
1409522700751,-4.939238,-13.827712,3.3632548,-2.995948,-8.974197,2.580399
1409522700780,-4.9775453,-13.391967,-1.0187328,-3.1013796,-8.9219475,2.6364224
1409522700780,-5.171476,-12.3989725,-3.2513258,-3.1933293,-8.962937,2.3746095
1409522700782,-4.449624,-13.618219,-6.384139,-3.2674026,-9.030395,1.986562
1409522700788,-3.6349967,-11.94168,-10.160394,-3.2720287,-9.132513,1.43576
1409522700816,-2.5246856,-10.183737,-10.219051,-3.2777803,-9.220162,0.64431936
1409522700816,-1.869273,-10.243592,-8.743625,-3.2649517,-9.246578,-0.10624036
1409522700820,-1.2563573,-11.601105,-7.189788,-3.1832638,-9.247085,-0.72708213
1409522700848,-0.18555063,-14.872781,-5.7041855,-3.0166998,-9.258029,-1.1656822
1409522700850,2.2990322,-19.261951,-2.9789855,-2.7393215,-9.3103075,-1.4087863
1409522700850,8.372523,-19.608511,-0.21787235,-2.2723522,-9.43764,-1.3920345
1409522700889,12.597093,-19.608511,4.4196963,-1.4564314,-9.621342,-1.2161151
1409522700890,8.063073,-19.488802,5.8484364,-1.7351362,-9.609756,-0.9012426
1409522700890,3.7822402,-16.516401,1.2312182,0.17888445,-9.80076,-0.28893006
1409522700891,2.5809495,-13.808558,-6.6510925,0.5026272,-9.791926,-0.18951662
1409522700915,3.0107086,-11.768699,-9.083003,0.6826643,-9.765202,-0.5875521
1409522700915,3.4985273,-10.735002,-5.1122193,0.80561787,-9.712986,-1.0859572
1409522700920,3.3871968,-9.712678,-3.1932666,0.92887133,-9.671514,-1.3301909
1409522700943,2.6677392,-8.153454,-4.88896,1.0576979,-9.6357355,-1.4846804
1409522700943,2.396596,-4.6166196,-6.6026096,1.1528982,-9.579484,-1.7534833
1409522700948,0.044891283,-3.4141316,-8.163031,1.27839,-9.4794655,-2.1623774
1409522700973,-1.7052702,-3.8792052,-7.086837,1.2319474,-9.346687,-2.7004006
1409522700973,-1.4760253,-4.635773,-3.743933,1.0641142,-9.231327,-3.1337938
1409522700988,0.08798691,-4.8883615,-0.50757074,0.8906974,-9.191658,-3.3000674
1409522700988,0.9403227,-4.609437,-1.4287399,0.81425273,-9.223446,-3.2303913
1409522701002,1.8363527,-3.8492777,-2.0087352,0.8271201,-9.2146,-3.2522905
1409522701020,2.2397757,-2.8149827,-2.3181858,0.96891254,-9.173734,-3.3277988
1409522701022,1.9853917,-2.3211784,-3.1693244,1.1830469,-9.102686,-3.4513633
1409522701039,2.1613655,-1.7328035,-3.5009215,1.3680416,-8.983744,-3.6866276
1409522701040,2.4672248,-1.1761516,-3.357868,1.5779525,-8.821535,-3.9825804
1409522701053,3.6092591,-0.6087258,-2.2349873,1.8382057,-8.6226635,-4.294303
1409522701077,4.766257,-0.54049104,-2.054225,2.2930098,-8.405637,-4.500868
1409522701078,5.3821654,-0.9876082,-2.6473885,2.9310887,-8.116808,-4.6579566
1409522701082,5.819107,-1.0348936,-3.1316159,3.6198142,-7.7425556,-4.808342
1409522701089,5.774216,-0.99060094,-4.10845,4.3165655,-7.2882237,-4.9416065
1409522701110,5.616797,-1.429937,-4.979341,4.881847,-6.7525043,-5.171236
1409522701110,5.5988407,-1.9285295,-5.5659204,5.296621,-6.2179546,-5.4270873
1409522701120,5.379173,-3.0496144,-4.8159366,5.576679,-5.7322974,-5.675544
1409522701141,4.6800656,-5.631761,-1.246182,5.759538,-5.4596825,-5.7610745
1409522701142,3.626617,-11.448474,11.131242,5.890347,-5.700644,-5.383014
1409522701149,-4.7884035,-19.482218,19.608511,6.0081906,-7.0303416,-3.2628703
1409522701188,-18.115726,-19.608511,19.608511,6.0857964,-6.853447,-3.487658
1409522701189,-19.60911,-19.608511,11.880029,6.138525,-6.6847825,-3.715178
1409522701197,-15.595231,-19.339165,5.613206,6.142004,-6.590605,-3.8742824
1409522701198,-8.620922,-13.545197,5.0421886,6.066256,-6.5463157,-4.0640755
1409522701229,-6.588843,-7.901464,6.465542,-2.8867211,-8.862549,3.0483556
1409522701230,-0.84335756,-5.3845596,6.022016,-3.262447,-8.663184,3.2366757
1409522701230,1.9590555,-5.2959743,2.2242134,-3.1671991,-8.562905,3.5799289
1409522701230,3.6122518,-5.4324436,-0.034117375,-2.8136067,-8.63282,3.7051923
1409522701263,5.348048,-6.7522473,0.4381389,-2.248133,-8.837269,3.6081803
1409522701264,7.45734,-11.113286,1.9716251,-1.5004152,-9.056865,3.4485273
1409522701264,6.4631476,-16.350004,-0.5847838,-0.5107026,-9.246387,3.227059
1409522701269,3.6990416,-16.333244,-3.1118636,0.24082361,-9.444392,2.629802
1409522701297,1.8339585,-13.443442,-1.6065093,0.5729583,-9.590985,1.9634511
1409522701298,0.33518824,-12.51569,1.2479776,0.67144793,-9.649499,1.6145313
1409522701300,1.3192052,-12.719196,-1.785476,0.6160495,-9.664488,1.5455048
1409522701319,2.5276785,-12.194268,-4.6405616,0.66665363,-9.708351,1.2140318
1409522701322,2.337938,-11.675324,-3.2668881,0.824042,-9.747631,0.6892209
1409522701340,2.665345,-8.996213,-2.3427265,0.9542685,-9.753941,0.34698972
1409522701341,3.435081,-7.855974,-2.2439656,1.1261004,-9.741378,0.08853929
1409522701350,3.602675,-7.771579,-2.4995465,1.3586525,-9.7106905,-0.16410744
1409522701381,3.2034419,-8.127118,-2.6677392,1.5878856,-9.668571,-0.4095815
1409522701382,2.7329812,-8.316858,-2.3983915,1.7714086,-9.624221,-0.63788056
1409522701382,2.3145945,-7.9445596,-1.7016789,1.9075515,-9.584537,-0.81748897
1409522701389,1.9931729,-7.69257,-1.1935096,2.0013902,-9.556148,-0.91916305
1409522701415,1.9243397,-8.087613,-1.1522095,2.0485864,-9.541014,-0.97095984
1409522701415,2.0332758,-8.839393,-1.3748703,2.0826519,-9.530626,-1.0000585
1409522701420,1.91596,-9.791088,-1.6124948,2.102671,-9.521533,-1.0438298
1409522701440,1.3718776,-11.261726,-1.6112977,2.0890503,-9.51866,-1.0960797
1409522701442,0.30765492,-12.999917,-1.447295,2.001965,-9.533558,-1.1286387
1409522701449,-0.8343793,-14.214974,-1.2318168,1.8045114,-9.573075,-1.1271207
1409522701471,-1.6490064,-14.16709,-1.0785879,1.5139979,-9.626911,-1.0958248
1409522701471,-1.9949685,-12.970588,-0.9756372,1.189023,-9.677184,-1.0529624
1409522701486,-1.7896658,-11.377845,-0.6781576,0.8735355,-9.714723,-1.0156273
1409522701501,-1.4568717,-10.076596,-0.51355624,0.6050293,-9.74016,-0.9662404
1409522701502,-1.6891093,-9.417592,-0.41958386,0.3906433,-9.755949,-0.9161019
1409522701520,-2.1517887,-9.033921,-0.31304187,0.18311463,-9.7661085,-0.87177235
1409522701520,-2.5354595,-8.701127,-1.1971009,-0.03413491,-9.771049,-0.8341952
1409522701535,-3.0160956,-8.820239,-2.7868507,-0.26087007,-9.762493,-0.89221424
1409522701554,-2.717419,-8.497621,-2.498948,-0.515923,-9.73161,-1.0954314
1409522701555,-1.7657237,-7.8027034,-1.8297687,-0.7255948,-9.698959,-1.2546377
1409522701567,-1.0941502,-8.018182,-1.5993267,-0.84473383,-9.675349,-1.3581103
1409522701569,-0.9804256,-8.598776,-1.0827777,-0.8856451,-9.660614,-1.4347675
1409522701585,-0.9487024,-8.816648,0.09995792,-0.89917123,-9.658678,-1.4393822
1409522701601,-0.6943185,-8.779537,0.7020996,-0.9052558,-9.675113,-1.3202637
1409522701601,-0.75477207,-8.9758625,0.6290765,-0.8927108,-9.698049,-1.1494837
1409522701616,-1.0672154,-9.096769,0.47644615,-0.88796765,-9.715531,-0.9951599
1409522701633,-1.3221979,-8.919599,0.51714754,-0.91170484,-9.725663,-0.8664111
1409522701634,-1.3838485,-8.267777,0.7882909,-0.9608163,-9.730681,-0.749061
1409522701650,-1.3012487,-7.530363,0.9343372,-1.0237156,-9.733417,-0.61886156
1409522701651,-1.4407109,-7.21373,0.7978677,-1.0862392,-9.7342205,-0.48520476
1409522701665,-1.6424223,-7.3968863,0.5177461,-1.1629741,-9.730268,-0.37383932
1409522701669,-1.7202339,-7.863157,0.31423897,-1.2500416,-9.721952,-0.30242178
1409522701683,-1.6645688,-8.584411,0.0011971008,-1.3300776,-9.712349,-0.26751396
1409522701703,-1.7046716,-9.820416,-0.37110126,-1.3831185,-9.704602,-0.27940816
1409522701704,-1.7735049,-11.47062,-0.581791,-1.4131842,-9.698866,-0.3244822
1409522701735,-1.8860323,-13.18008,-0.66738373,-1.417875,-9.696239,-0.37809232
1409522701735,-2.1033063,-14.387955,-0.7332243,-1.4066904,-9.695918,-0.42520753
1409522701736,-2.1374235,-14.806342,-0.7691373,-1.4047418,-9.694326,-0.465962
1409522701756,-1.8531121,-14.152725,-0.58538234,-1.4052653,-9.692462,-0.501808
1409522701757,-1.7435774,-13.213,-0.29149407,-1.3928751,-9.693301,-0.51977366
1409522701761,-2.3056161,-13.04002,0.20111294,-1.3865774,-9.694457,-0.5150906
1409522701769,-3.0352492,-13.530232,3.1789012,-1.4307581,-9.6904335,-0.4677314
1409522701786,-4.2185836,-14.638149,6.2674217,-1.526502,-9.685439,-0.18013012
1409522701804,-5.4312468,-15.379753,11.017518,-1.6834656,-9.656415,0.29997408
1409522701804,-6.233304,-14.9386215,14.543578,-1.8816289,-9.567734,1.0432295
1409522701825,-5.3324857,-13.877392,5.583278,-2.1039884,-9.380291,1.9374646
1409522701825,-4.819528,-14.541184,0.9379285,-2.2761264,-9.278071,2.2151856
1409522701829,-4.706402,-15.9735155,3.354875,-2.37868,-9.250928,2.2209494
1409522701855,-5.9448028,-16.433203,10.028113,-2.390942,-9.229433,2.2959428
1409522701856,-6.4817023,-14.848839,10.557233,-2.4393878,-9.103808,2.7093298
1409522701863,-6.582259,-13.902531,4.594473,-2.568205,-8.95409,3.0657742
1409522701869,-6.017826,-13.06456,-1.8567034,-2.7932556,-8.880557,3.082826
1409522701885,-4.9063177,-12.791621,-5.5725045,-3.028208,-8.912791,2.7499962
1409522701909,-4.4436383,-13.021464,-7.8266454,-3.1558597,-9.020449,2.2005537
1409522701909,-3.594894,-11.771691,-8.130111,-3.2063653,-9.143722,1.5106164
1409522701910,-2.60549,-10.216059,-6.654085,-3.2163725,-9.225476,0.8461008
1409522701988,-1.5801731,-10.263344,-5.0116625,-3.1940358,-9.266264,0.32381344
1409522701989,-0.5201403,-12.025476,-4.187459,-3.0898526,-9.307109,-0.030782385
1409522701989,0.24839842,-15.616779,-3.7343562,-2.884091,-9.367308,-0.3254737
1409522701990,1.6932992,-19.500174,-1.5520413,-2.5786707,-9.446886,-0.526454
1409522701990,5.3713913,-19.608511,2.2960393,-2.1532595,-9.552562,-0.5314254
1409522701991,12.248137,-19.608511,3.2040405,-1.5396446,-9.681064,-0.2773176
1409522701991,9.922171,-19.582176,1.9632454,-1.7746003,-9.644686,0.03489454
1409522701992,4.2754455,-16.279375,-1.7543513,-1.9681119,-9.599554,0.38141856
1409522702001,0.83617496,-13.931261,-6.985682,0.42651162,-9.797326,0.02950842
1409522702046,0.059855044,-11.820772,-6.259042,0.51545477,-9.784518,-0.40980887
1409522702047,0.5662287,-10.508151,-2.815581,0.5231506,-9.761657,-0.7789523
1409522702047,1.9003977,-9.610326,-3.7600937,0.49448243,-9.750386,-0.9251278
1409522702048,3.4853592,-6.894104,-6.353613,0.53638095,-9.725085,-1.1425451
1409522702050,2.416348,-5.0661306,-7.869741,0.7257868,-9.659263,-1.5304466
1409522702077,1.3162124,-5.0781016,-7.8667483,0.88178575,-9.554596,-2.025466
1409522702077,0.3172317,-5.474941,-5.310938,0.9768635,-9.429337,-2.5107243
1409522702081,-0.9911995,-4.7884035,-3.6553473,0.95117843,-9.34938,-2.8026328
1409522702113,-0.049679685,-4.453215,-1.4083891,0.80936205,-9.302776,-2.9956121
1409522702113,1.3275849,-4.634576,-1.174356,0.7155399,-9.300673,-3.0258718
1409522702114,1.5699978,-4.531027,-3.316568,0.7682348,-9.300413,-3.0137236
1409522702144,2.030283,-3.8025908,-3.5769374,0.86981475,-9.232087,-3.1909873
1409522702144,2.4833858,-3.052607,-3.3877954,1.0427815,-9.137043,-3.4055028
1409522702145,3.0454245,-2.4265234,-2.8700492,1.2706118,-9.019952,-3.632691
1409522702150,3.8594532,-1.775899,-2.5145104,1.5604265,-8.892643,-3.8283653
1409522702177,4.3544545,-1.271321,-3.3452983,1.9861475,-8.726232,-4.0098014
1409522702177,4.449025,-1.1683705,-3.0214825,2.4767756,-8.463211,-4.290689
1409522702181,5.0906715,-0.8283938,-2.1691468,2.9908,-8.173421,-4.5189304
1409522702209,5.1666875,-0.3693056,-2.9029696,3.6216884,-7.849241,-4.6306825
1409522702209,4.7441106,-0.74399817,-3.4572272,4.2366686,-7.4104075,-4.8277225
1409522702210,4.4861355,-0.7529764,-4.1742907,4.717446,-6.95856,-5.0492125
1409522702242,4.8069587,-0.91817635,-4.1533413,5.0972695,-6.465612,-5.327671
1409522702242,5.230732,-1.3389573,-3.5452142,5.448793,-5.9948397,-5.5265718
1409522702243,5.4593782,-2.7970262,-2.8407204,5.8067074,-5.5822945,-5.593796
1409522702250,6.2327056,-5.8478374,0.3369839,6.105347,-5.382882,-5.4698915
1409522702273,3.0765493,-15.350424,16.998234,6.4274063,-5.6404834,-4.800399
1409522702274,-15.648502,-19.608511,19.608511,6.5285683,-5.3884606,-4.951025
1409522702284,-19.60911,-19.608511,16.891092,6.6193643,-5.1206455,-5.11208
1409522702314,-19.132664,-19.608511,6.467337,6.602739,-4.93866,-5.308847
1409522702315,-12.737752,-17.53274,6.2434793,6.4550443,-4.8278494,-5.5852213
1409522702315,-7.5004354,-8.832211,6.8749504,6.450686,-4.707806,-5.6917176
1409522702343,-3.181894,-5.1409497,4.6830587,-3.334743,-8.657462,3.1777723
1409522702343,0.44951138,-5.507262,1.9746178,-3.489906,-8.517794,3.3820329
1409522702344,2.0416555,-6.843227,0.4782418,-3.2432568,-8.570026,3.4937546
1409522702350,3.7630866,-9.59177,2.8419175,-2.7897053,-8.758981,3.415875
1409522702369,5.713164,-16.550518,4.6285906,-2.0825937,-8.956043,3.4091802
1409522702389,4.809353,-19.478626,0.50397944,-1.147102,-9.163078,3.3003855
1409522702389,2.0536265,-15.7586355,-3.376423,-0.5116025,-9.3898115,2.7821035
1409522702390,-1.1300632,-11.771691,-1.1234791,-0.26380906,-9.563352,2.154786
1409522702431,-0.20470424,-11.200674,-1.3868413,-0.35848173,-9.619576,1.8723347
1409522702432,2.7868507,-10.9899845,-5.2002063,-0.35373628,-9.672782,1.575607
1409522702432,3.8959646,-9.598354,-5.073912,-0.08033552,-9.755406,0.99799603
1409522702432,3.762488,-8.4664955,-2.7419596,0.27321342,-9.789827,0.50498396
1409522702461,3.4554317,-7.2221093,-2.3277626,0.6082894,-9.784935,0.23544425
1409522702461,4.332308,-7.4208283,-2.610877,0.90871674,-9.764426,-0.024735505
1409522702464,4.799177,-8.681973,-3.1202433,1.2666947,-9.720159,-0.29047173
1409522702492,4.1695023,-9.824607,-3.1358056,1.6273037,-9.651906,-0.60249245
1409522702492,2.980781,-9.83957,-2.6060886,1.8866719,-9.584546,-0.8645079
1409522702492,2.3798366,-9.130887,-2.0536265,2.0225005,-9.538142,-1.05057
1409522702502,2.5791538,-8.378509,-1.508347,2.0980952,-9.507131,-1.1759523
1409522702537,3.0113072,-8.119935,-1.2036849,2.1786425,-9.480826,-1.2401083
1409522702538,3.1675289,-8.323442,-1.1540052,2.2835772,-9.45291,-1.2641853
1409522702538,2.8461072,-8.957906,-1.2737153,2.3951094,-9.423078,-1.2804134
1409522702542,2.1428106,-10.087969,-1.5011644,2.4627144,-9.404567,-1.2882453
1409522702550,0.9816227,-12.175713,-1.6891093,2.4438627,-9.406352,-1.3109038
1409522702596,-0.26156655,-14.340071,-1.7860745,2.281785,-9.444902,-1.3257699
1409522702597,-1.110311,-14.7877865,-1.8243817,1.9878125,-9.511659,-1.321881
1409522702597,-1.3958195,-13.354857,-1.6657659,1.6431509,-9.579034,-1.3086568
1409522702598,-1.1480197,-11.031284,-1.3024458,1.3187202,-9.632429,-1.2836294
1409522702619,-1.2264298,-9.467871,-1.4850036,1.0605034,-9.669956,-1.2400392
1409522702619,-1.5699978,-8.809465,-1.644218,0.84214586,-9.690355,-1.2482746
1409522702635,-1.543063,-8.685565,-1.2018893,0.6041361,-9.70638,-1.261587
1409522702636,-1.3245921,-8.218696,-0.3465607,0.3940002,-9.718459,-1.25168
1409522702653,-2.6132712,-8.573038,-2.694674,0.22948505,-9.732367,-1.1827059
1409522702653,-5.6802435,-10.120889,-3.515885,-0.053733636,-9.714399,-1.3408786
1409522702662,-4.6764746,-9.912594,-2.2152352,-0.5971961,-9.662211,-1.5669734
1409522702686,-3.4213142,-8.563461,-2.3774424,-0.9701041,-9.602249,-1.7395763
1409522702687,-3.074155,-7.557896,-2.6252422,-1.1746806,-9.546373,-1.9123961
1409522702690,-2.8742392,-7.7811556,-1.9973627,-1.384163,-9.476216,-2.1108844
1409522702721,-2.8395233,-8.270171,-1.0103531,-1.530107,-9.438276,-2.1790187
1409522702721,-2.9538465,-8.742428,-0.75596917,-1.6648853,-9.434824,-2.0934768
1409522702722,-2.7682958,-9.356541,-0.9792285,-1.8039018,-9.437987,-1.9597797
1409522702730,-2.1853075,-9.80665,-0.74998367,-1.9046441,-9.439694,-1.8533541
1409522702760,-1.6813282,-9.9550905,-0.581791,-1.9363264,-9.45437,-1.742404
1409522702761,-1.3078327,-9.998186,-0.32022446,-1.9162966,-9.477118,-1.6378082
1409522702764,-1.1725603,-10.435128,5.985504E-4,-1.8568606,-9.508706,-1.518873
1409522702792,-1.2910733,-11.319187,0.32142156,-1.7788069,-9.543952,-1.385363
1409522702792,-1.5089456,-12.118851,0.8002619,-1.7011229,-9.579868,-1.2258464
1409522702793,-1.6023195,-12.523471,2.0679917,-1.6405908,-9.612795,-1.0358838
1409522702817,-1.4568717,-12.692262,4.755483,-1.5963126,-9.646511,-0.7529809
1409522702818,-1.2354081,-12.743138,5.4300494,-1.5501673,-9.679535,-0.27202103
1409522702835,-1.1587936,-12.879608,5.373187,-1.4962769,-9.690421,0.1652267
1409522702836,-0.1388637,-12.831724,12.387001,-1.4529952,-9.684156,0.5256276
1409522702852,-0.6338649,-13.09329,17.49922,-1.3562059,-9.612661,1.3884536
1409522702853,-3.7152026,-12.187085,0.7757214,-1.3173755,-9.373095,2.5651536
1409522702862,-5.0397944,-11.462839,-7.8170686,-1.499854,-9.374349,2.4581316
1409522702885,-6.2123547,-13.081918,-8.7538,-1.7353436,-9.47438,1.8425856
1409522702885,-7.8027034,-14.837466,-5.7418942,-1.9918877,-9.540429,1.0876453
1409522702908,-8.039131,-14.905103,-4.4699745,-2.303942,-9.517523,0.5282016
1409522702908,-7.465121,-13.779229,-0.025139118,-2.6051092,-9.453792,0.09815551
1409522702911,-6.3589997,-13.354259,6.491279,-2.8549242,-9.381521,0.082912825
1409522702942,-4.1198225,-14.119804,11.730989,-2.9944806,-9.325907,0.48057798
1409522702943,-2.385822,-15.966931,13.433866,-2.9469013,-9.2712345,1.2370794
1409522702944,-1.6142905,-17.059286,13.142372,-2.7714708,-9.177857,2.0630767
1409522702952,-1.9632454,-16.76899,6.187814,-2.5787013,-9.046636,2.7711132
1409522702967,-3.0466216,-15.2253275,-2.4714148,-2.4813807,-9.0175085,2.9491827
1409522702985,-4.745308,-14.426262,-6.0148335,-2.4953763,-9.130475,2.5647507
1409522702986,-5.866991,-12.28405,-6.7546415,-2.5937355,-9.254628,1.9480089
1409522702991,-4.4143095,-9.745,-7.6171527,-2.760897,-9.311572,1.3573682
1409522703017,-2.955642,-9.743204,-7.5525093,-2.8926497,-9.342178,0.7257145
1409522703017,-1.6376339,-8.688558,-6.989872,-2.9314046,-9.356961,0.15654431
1409522703035,-0.95229375,-8.336611,-6.3542113,-2.8952656,-9.362851,-0.35333166
1409522703035,-0.64823014,-9.946113,-5.470751,-2.810012,-9.3615885,-0.7968252
1409522703042,-0.3585317,-14.407108,-3.8947675,-2.672021,-9.366147,-1.1428058
1409522703051,0.31364042,-19.475035,1.0426749,-2.4400394,-9.409822,-1.2929977
1409522703076,2.4277205,-19.608511,4.5124717,-2.1110528,-9.524195,-1.0017686
1409522703077,8.194156,-19.608511,1.0570401,-1.6757867,-9.647913,-0.5290788
1409522703082,9.900024,-19.608511,-0.47105917,-0.9218847,-9.755652,-0.3844201
1409522703115,6.651691,-15.95496,-3.7361517,-0.1730138,-9.79858,-0.3581804
1409522703116,3.4530375,-12.178107,-6.091448,0.29465514,-9.7874975,-0.5370349
1409522703116,2.682703,-10.140042,-4.8027687,0.56309277,-9.752612,-0.86014384
1409522703135,2.27928,-9.801862,-2.56419,0.74776953,-9.714573,-1.1127932
1409522703135,2.385822,-9.588778,-1.5514427,0.8458768,-9.69216,-1.2316396
1409522703142,2.4756045,-9.518747,-3.4398694,0.94592476,-9.679931,-1.2548048
1409522703151,2.9508536,-7.235876,-3.7325604,1.0292586,-9.648803,-1.4183272
1409522703166,1.8854338,-5.1397524,-5.8125234,1.1825982,-9.6031065,-1.5975591
1409522703182,0.97623575,-4.697424,-7.217321,1.2842942,-9.521125,-1.9670225
1409522703184,1.8710686,-4.968567,-5.33907,1.3290769,-9.401852,-2.451344
1409522703200,2.610877,-5.047576,-3.2208,1.4288557,-9.299335,-2.7660704
1409522703216,2.1769278,-4.5244427,-1.4628572,1.5589819,-9.227332,-2.931946
1409522703217,2.0207062,-3.7361517,-0.7733272,1.6491241,-9.202576,-2.9603043
1409522703232,2.429516,-3.0262709,-1.8686744,1.7794744,-9.183675,-2.9434636
1409522703232,2.666542,-2.540248,-3.41892,1.9515007,-9.114395,-3.0479217
1409522703249,2.8078,-2.0620062,-3.8959646,2.159087,-8.972188,-3.3179147
1409522703263,3.515885,-1.2683283,-3.1519666,2.4044013,-8.779712,-3.6477287
1409522703263,4.6501384,-0.6769605,-2.5863364,2.7682645,-8.550594,-3.9235716
1409522703281,6.067506,-0.38367084,-2.271499,3.2930002,-8.253934,-4.1471825
1409522703282,6.8210807,-0.23044191,-2.6605566,4.0081363,-7.850181,-4.2988253
1409522703296,6.6415157,-0.7290344,-2.7970262,4.7795234,-7.3335004,-4.4211226
1409522703313,6.0716953,-1.2425907,-2.6970682,5.431584,-6.8084655,-4.5070057
1409522703313,5.279215,-1.7190368,-2.5594015,5.936364,-6.3601913,-4.5252557
1409522703326,4.43885,-2.544438,-1.827973,6.2761226,-6.0242605,-4.526477
1409522703331,3.506907,-4.346673,0.09876082,6.473682,-5.875206,-4.4433975
1409522703346,1.4077905,-8.118738,6.6804214,6.533005,-6.068291,-4.0824127
1409522703351,-3.6733038,-16.97429,19.248783,6.3255897,-6.9909577,-2.6988556
1409522703373,-16.746841,-19.608511,17.91222,6.428516,-6.8303556,-2.8619642
1409522703374,-19.60911,-19.608511,18.93694,6.521369,-6.6716657,-3.0217626
1409522703382,-18.386272,-19.608511,10.06283,6.577327,-6.5718727,-3.1176353
1409522703408,-7.89907,-14.833876,4.1742907,6.5093865,-6.525144,-3.3497431
1409522703408,-6.508039,-7.1448965,5.3007627,-2.750407,-8.550316,3.936717
1409522703411,-3.6780925,-3.7403417,6.4739213,-3.2079756,-8.377924,3.9610188
1409522703435,1.0761937,-2.7144263,4.1479545,-3.4147348,-8.165842,4.2224393
1409522703435,4.3089647,-3.6864722,1.4024036,-3.1972213,-8.100865,4.5082307
1409522703442,8.360553,-9.3583355,-0.09696517,-2.6035306,-8.259371,4.601611
1409522703473,10.879851,-18.085201,0.20470424,-1.4712241,-8.687872,4.3042765
1409522703474,8.991425,-19.544468,0.21547815,-0.08021335,-9.118533,3.6078138
1409522703474,5.708974,-15.947179,2.8221653,0.80062664,-9.316357,2.95548
1409522703505,1.1976994,-13.466786,9.351752,1.1865807,-9.332055,2.7704072
1409522703505,0.18794483,-12.11466,-3.5332432,1.1118097,-9.203408,3.1986794
1409522703505,0.16160862,-11.103709,-12.784438,1.0334221,-9.388554,2.637707
1409522703511,0.88944596,-9.77792,-6.927024,0.9798332,-9.661302,1.3673267
1409522703529,2.0350714,-7.523779,-2.707842,0.97990626,-9.735812,0.65127754
1409522703531,2.1697452,-6.2339025,-1.4030021,1.0929666,-9.739495,0.34358665
1409522703550,2.9694088,-7.0102224,-1.839944,1.2294348,-9.7276125,0.18010347
1409522703568,3.2489316,-8.157045,-1.9853917,1.4420927,-9.700034,-0.01182254
1409522703568,3.316568,-9.062054,-1.9620483,1.653565,-9.664193,-0.198769
1409522703571,3.1789012,-9.794081,-1.9213469,1.845302,-9.624355,-0.37023032
1409522703583,2.8963854,-10.155605,-1.7106571,1.9977283,-9.586521,-0.5273253
1409522703603,2.5791538,-10.199299,-1.489792,2.0917754,-9.559334,-0.64342064
1409522703604,2.3959973,-10.251373,-1.5292963,2.1539712,-9.538878,-0.7352701
1409522703611,2.2301989,-10.367492,-1.8752584,2.1879067,-9.52393,-0.823523
1409522703643,1.7986441,-11.225813,-2.1380222,2.1947129,-9.512099,-0.9346622
1409522703643,0.94331545,-12.687473,-1.9985598,2.1414225,-9.511909,-1.0527754
1409522703644,-0.06703765,-13.663111,-1.7591397,1.9943054,-9.534944,-1.1304847
1409522703675,-0.83617496,-13.28782,-1.4323312,1.7662854,-9.575795,-1.1639578
1409522703675,-1.043872,-11.696274,-1.0019734,1.4981636,-9.621983,-1.1590275
1409522703676,-0.99179804,-9.883265,-0.9983821,1.2565213,-9.660099,-1.1287451
1409522703683,-1.4227544,-9.126697,-1.411382,1.0481138,-9.689758,-1.0864596
1409522703707,-1.6106992,-8.8328085,-1.5544355,0.81542236,-9.712766,-1.0805887
1409522703707,-1.5867572,-8.623915,-1.6681601,0.5871736,-9.727859,-1.0928748
1409522703711,-1.5592239,-8.702325,-2.3451207,0.38078445,-9.73367,-1.1318449
1409522703727,-2.641403,-8.871715,-4.2119994,0.18872342,-9.725222,-1.2469401
1409522703731,-5.253477,-9.254189,-5.089474,-0.097921155,-9.683882,-1.5437603
1409522703746,-5.1780596,-8.949526,-4.8105497,-0.60140204,-9.604621,-1.8867975
1409522703772,-4.220379,-8.01459,-4.0797195,-1.0432491,-9.486738,-2.2547295
1409522703773,-2.5181017,-7.2286935,-2.8203697,-1.3364649,-9.369979,-2.5666637
1409522703773,-1.5855601,-7.8452005,-0.8948329,-1.4725583,-9.309535,-2.7082355
1409522703804,-1.6927006,-8.967483,-0.17178397,-1.5286057,-9.333501,-2.5922103
1409522703804,-1.6771383,-9.560047,-0.24600422,-1.568241,-9.384555,-2.375111
1409522703805,-1.3676877,-10.179547,-0.6925228,-1.577753,-9.431448,-2.174604
1409522703811,-1.1216835,-10.8864355,-0.4297592,-1.5404818,-9.468863,-2.0341976
1409522703832,-1.3108255,-11.422138,0.08259996,-1.4733859,-9.511733,-1.877888
1409522703833,-1.5382746,-11.54903,0.26276365,-1.4305598,-9.554718,-1.6826335
1409522703848,-1.6956934,-11.544841,0.20231004,-1.409695,-9.588905,-1.4953399
1409522703862,-1.8046296,-11.320384,0.3196259,-1.4082778,-9.613049,-1.3328445
1409522703863,-1.7836803,-11.203069,0.5315128,-1.425328,-9.630845,-1.1771518
1409522703877,-1.6657659,-11.291056,0.9403227,-1.4442192,-9.645508,-1.0241206
1409522703894,-1.602918,-11.901577,3.5673606,-1.4522239,-9.660875,-0.85375476
1409522703894,-1.1246762,-12.37922,6.397307,-1.4472809,-9.688409,-0.45881364
1409522703911,-0.91937345,-12.690466,5.9926867,-1.3905754,-9.70669,0.12988043
1409522703919,-0.84934306,-12.743737,7.117962,-1.3295256,-9.700658,0.54770756
1409522703952,0.88166475,-12.03625,17.38789,-1.291737,-9.676224,0.93408227
1409522703952,0.074220255,-12.760496,16.535555,-1.1588774,-9.499227,2.1429121
1409522703953,-2.9370868,-11.545439,-1.2509704,-1.1088634,-9.213265,3.1712048
1409522703953,-4.0743327,-10.676943,-8.7370405,-1.2429972,-9.251654,3.005367
1409522703965,-3.8163576,-11.971607,-9.024943,-1.4224544,-9.420609,2.3236012
1409522703989,-4.5202527,-14.38616,-8.56825,-1.5186572,-9.57886,1.4524051
1409522703990,-4.8877625,-15.392921,-6.105214,-1.658964,-9.647701,0.5831844
1409522703992,-6.145916,-14.990695,-2.0745757,-1.7986225,-9.640298,0.002027743
1409522704019,-7.177817,-14.618996,-0.010175358,-2.0387518,-9.590139,-0.2076535
1409522704020,-6.136339,-14.031817,4.821324,-2.327419,-9.52319,-0.24969812
1409522704025,-5.1613,-14.275428,13.924677,-2.5057354,-9.480826,0.07489063
1409522704032,-4.687847,-14.669273,13.998299,-2.5859804,-9.400512,1.0552242
1409522704054,-4.3622355,-13.851654,7.1101804,-2.6352425,-9.239671,1.9632565
1409522704055,-4.1174283,-13.406931,1.049259,-2.7068183,-9.149224,2.26611
1409522704063,-4.5280337,-13.102269,-1.4688427,-2.7958913,-9.127749,2.244462
1409522704080,-4.482544,-13.113043,-0.48602295,-2.901692,-9.153341,1.991711
1409522704104,-4.735132,-12.458228,-5.767632,-2.950633,-9.17934,1.789928
1409522704105,-3.1118636,-11.347918,-6.839636,-3.0228438,-9.244634,1.2528067
1409522704105,-1.8920178,-10.5704,-6.7534447,-3.014369,-9.305947,0.6951865
1409522704112,-0.90261406,-9.309854,-6.132149,-2.9489074,-9.351448,0.15734205
1409522704131,-0.3489549,-9.224859,-5.580884,-2.831629,-9.38436,-0.2933613
1409522704132,0.035314474,-10.872668,-4.3622355,-2.6875026,-9.405831,-0.6914092
1409522704146,0.7661445,-15.411476,-2.498948,-2.4953594,-9.437339,-0.93819076
1409522704169,2.3415294,-19.603724,2.529474,-2.1852095,-9.508779,-0.9891357
1409522704169,6.941389,-19.608511,4.0054994,-1.7360935,-9.6306505,-0.63792485
1409522704172,11.765107,-19.608511,3.0184898,-1.0326514,-9.748952,-0.24893859
1409522704205,9.5732155,-19.0357,0.27114335,-1.2737894,-9.723543,0.02295237
1409522704206,5.8125234,-14.3897505,-3.4063504,0.5422586,-9.791563,0.040434085
1409522704206,3.0789435,-11.807604,-8.135497,0.8858546,-9.765204,-0.16257015
1409522704212,0.5602432,-10.848726,-7.2179193,1.0827262,-9.723963,-0.6653049
1409522704230,0.39683893,-10.033501,-2.9981391,1.0770097,-9.686323,-1.0888486
1409522704247,2.5941176,-8.228871,-2.6090813,1.0222119,-9.673921,-1.2412595
1409522704247,3.54282,-6.3260794,-3.1543608,1.1080521,-9.645081,-1.3838485
1409522704260,2.5169046,-4.821324,-5.6359506,1.2751453,-9.598824,-1.5514556
1409522704277,0.5967548,-4.0695443,-8.668806,1.4141855,-9.514069,-1.9112726
1409522704277,-0.54767364,-4.7022123,-6.9707184,1.4185779,-9.367177,-2.532593
1409522704296,-1.4742297,-5.121796,-3.881001,1.326595,-9.246878,-2.9842584
1409522704297,-1.2731167,-5.3324857,-1.460463,1.1275,-9.208228,-3.1792579
1409522704312,-0.02633622,-5.1301756,-2.0757728,0.89650196,-9.230086,-3.1893883
1409522704313,1.4826094,-4.947019,-2.943671,0.77609926,-9.218799,-3.252965
1409522704327,1.7986441,-4.8147397,-3.5697548,0.84743285,-9.167135,-3.3787389
1409522704342,2.3888147,-4.0785227,-2.8377275,0.98725516,-9.087725,-3.5509133
1409522704343,3.309984,-3.157952,-1.821389,1.2078762,-9.013026,-3.6710687
1409522704360,4.4208937,-2.3678656,-1.6478093,1.5321012,-8.94341,-3.720012
1409522704363,5.2121773,-1.3862427,-2.6132712,2.026461,-8.820904,-3.7756414
1409522704377,5.758055,-1.2605472,-3.0400376,2.6287146,-8.572147,-3.9722285
1409522704393,6.1261635,-0.9528923,-3.3632548,3.3008146,-8.232653,-4.183117
1409522704393,5.835268,-0.9816227,-4.0665517,3.9989364,-7.7956953,-4.4052277
1409522704409,5.1642933,-1.0007763,-4.4382515,4.5798326,-7.297729,-4.683875
1409522704412,4.409521,-1.6663644,-4.1760864,5.005867,-6.799293,-4.988115
1409522704425,3.8618474,-2.670732,-3.2112231,5.2731123,-6.425776,-5.2032795
1409522704443,3.0556,-4.31495,-1.2252327,5.422487,-6.2377195,-5.2780585
1409522704445,1.5125369,-8.000225,3.5727475,5.474901,-6.3635225,-5.069658
1409522704460,-3.9719806,-16.633717,16.144102,5.306774,-7.133144,-4.1384535
1409522704463,-16.85159,-19.608511,19.608511,5.3610277,-6.95615,-4.363684
1409522704475,-19.60911,-19.608511,19.52711,5.4016757,-6.769307,-4.600959
1409522704494,-18.047493,-19.608511,12.249334,5.3542304,-6.639901,-4.8388357
1409522704494,-9.173384,-15.183429,5.183447,5.1934385,-6.5650196,-5.1087275
1409522704508,-5.079299,-8.352771,5.7149596,-3.1238177,-8.584417,3.5665026
1409522704512,-2.5629928,-7.2622123,6.699575,-3.3603528,-8.462719,3.641539
1409522704526,0.88046765,-7.197569,4.9242744,-3.4149828,-8.354059,3.8364034
1409522704544,2.5007436,-7.380127,3.1585505,-3.0856245,-8.37912,4.0545855
1409522704545,3.5847185,-10.254965,1.6166847,-2.580467,-8.498266,4.1582494
1409522704558,5.2959743,-16.323069,0.62847793,-1.9476354,-8.744819,3.98814
1409522704577,4.5645456,-16.944963,-1.0875661,-1.1665984,-9.078687,3.5194983
1409522704577,3.0137014,-12.952033,-2.1775265,-0.60123426,-9.328938,2.9630797
1409522704596,2.5737667,-11.495759,-2.4378958,-0.29280367,-9.483185,2.4806955
1409522704596,3.6469676,-11.589732,-2.2337902,-0.040812194,-9.586074,2.0678315
1409522704610,4.741118,-11.007941,-3.5877113,0.27412558,-9.657072,1.6841058
1409522704612,4.891354,-10.809222,-4.1138372,0.672102,-9.706976,1.2219936
1409522704626,3.9923313,-10.560823,-3.1310172,1.053696,-9.720253,0.7594789
1409522704642,3.5649664,-9.124901,-0.97982705,1.3197908,-9.70857,0.41498134
1409522704644,3.8630445,-8.136695,-0.66139823,1.5315924,-9.682438,0.27392596
1409522704659,3.8564603,-9.090784,-1.1174936,1.7653213,-9.644661,0.18589374
1409522704664,3.7822402,-9.527127,-2.1051018,1.9702375,-9.606543,0.053745326
1409522704678,3.4374752,-8.963891,-2.4019828,2.1540096,-9.565912,-0.15488808
1409522704690,3.0352492,-8.082825,-2.178125,2.3024232,-9.525265,-0.37221098
1409522704692,2.8496985,-7.727286,-1.8537107,2.4182408,-9.48788,-0.5501497
1409522704708,2.819771,-8.097789,-1.4544775,2.5124412,-9.454507,-0.68581134
1409522704712,2.8042088,-8.535928,-1.3335704,2.5882688,-9.427235,-0.7736358
1409522704724,2.5264814,-9.21229,-1.4508862,2.6508007,-9.403866,-0.8431752
1409522704739,1.7597382,-10.462662,-1.6921021,2.6592968,-9.3943,-0.91961956
1409522704746,0.65182143,-12.191874,-1.7250223,2.5813525,-9.408672,-0.99191844
1409522704758,-0.2753332,-13.528437,-1.4263457,2.373859,-9.456929,-1.0496073
1409522704774,-1.1797429,-13.523648,-1.46585,2.0810926,-9.525145,-1.0540756
1409522704775,-1.4790181,-12.298415,-1.311424,1.7348671,-9.594647,-1.0504192
1409522704794,-1.3533225,-11.207857,-1.5646108,1.4042332,-9.651498,-1.023281
1409522704794,-1.8728642,-10.606912,-2.2026656,1.1215184,-9.689778,-1.0103359
1409522704810,-2.0081367,-10.065823,-2.556409,0.83168787,-9.7116785,-1.077959
1409522704812,-1.3060371,-9.030331,-4.2556934,0.5537664,-9.722738,-1.1541753
1409522704842,-3.822343,-9.548675,-5.7347116,0.3617945,-9.697098,-1.4162652
1409522704844,-6.26383,-10.282497,-6.881534,-0.05230068,-9.637144,-1.814692
1409522704844,-5.7359085,-9.233239,-6.9144545,-0.6281848,-9.5045,-2.3324358
1409522704873,-4.8015714,-7.9206176,-4.8267107,-1.0421193,-9.323475,-2.8560846
1409522704873,-4.338892,-7.340024,-3.8833952,-1.3463708,-9.194316,-3.1340404
1409522704874,-3.426701,-7.569867,-1.2659341,-1.652453,-9.098791,-3.2637084
1409522704905,-2.9011738,-8.579023,0.66738373,-1.8808405,-9.102461,-3.1269898
1409522704906,-2.6461914,-9.612122,1.2976574,-2.0221918,-9.17535,-2.8096483
1409522704906,-2.2948422,-10.129868,1.1677719,-2.1096492,-9.263788,-2.429404
1409522704912,-1.7531542,-10.539874,0.79966336,-2.1321273,-9.341679,-2.0874546
1409522704933,-1.3814543,-11.116279,0.36391866,-2.0829365,-9.409188,-1.8162974
1409522704934,-1.4748282,-11.644798,0.40761283,-1.985641,-9.466204,-1.6182089
1409522704944,-1.5352819,-11.76391,0.6584055,-1.894135,-9.514182,-1.4363152
1409522704971,-1.5119383,-11.532869,1.1133038,-1.8168073,-9.555727,-1.2480657
1409522704971,-1.5496471,-11.273697,1.4131776,-1.7567823,-9.591417,-1.0434799
1409522704972,-1.6077064,-11.254543,2.0644004,-1.7098863,-9.620303,-0.83454376
1409522705004,-1.1593921,-11.565191,4.8542438,-1.6749982,-9.64484,-0.58465827
1409522705004,0.06703765,-11.61547,6.4481835,-1.6063396,-9.673571,-0.10992649
1409522705005,0.5033809,-11.7303915,5.741296,-1.4495292,-9.689385,0.4301996
1409522705013,1.1318588,-11.344925,7.2843585,-1.2957119,-9.689559,0.77715045
1409522705032,3.7846344,-10.195708,18.224663,-1.1226856,-9.66744,1.2043866
1409522705033,1.8483237,-10.81461,11.681909,-0.79765916,-9.428641,2.5758202
1409522705046,-2.2547395,-10.978612,-2.949058,-0.61068624,-9.219912,3.2849157
1409522705065,-3.615843,-11.696274,-7.255628,-0.7026467,-9.324642,2.9542737
1409522705066,-4.204817,-13.813945,-7.1604586,-0.854608,-9.490855,2.3159642
1409522705072,-4.9745526,-15.203779,-7.6961613,-1.0264728,-9.628779,1.5502717
1409522705101,-5.1864395,-14.908095,-5.617396,-1.2576345,-9.699189,0.7172702
1409522705101,-6.897695,-14.53879,-4.2461166,-1.5148356,-9.687889,0.14315067
1409522705106,-7.7847466,-14.466365,-0.42317516,-1.879241,-9.622838,-0.19960897
1409522705113,-6.611588,-13.740922,0.8678981,-2.2413645,-9.543463,-0.2626376
1409522705133,-5.1439424,-13.90672,4.0785227,-2.4842608,-9.4836645,-0.2427811
1409522705134,-4.045004,-15.823877,13.64695,-2.5980537,-9.456204,0.026931189
1409522705144,-3.2800562,-16.756418,13.874399,-2.57652,-9.409495,0.99666476
1409522705168,-3.413533,-14.794371,7.050924,-2.6076903,-9.404822,0.95898306
1409522705169,-3.8432922,-12.84549,0.7110779,-2.5325484,-9.210818,2.217527
1409522705173,-4.4047327,-12.002133,-0.64583594,-2.648756,-9.192875,2.1553478
1409522705199,-4.7219644,-11.7860565,-1.8561049,-2.7485406,-9.205201,1.9698178
1409522705200,-3.2303767,-12.240356,-3.6236243,-2.8635716,-9.222128,1.7095929
1409522705204,-2.5785553,-10.9187565,-5.4551888,-2.8506715,-9.288201,1.3316905
1409522705213,-1.2174516,-9.889849,-6.151303,-2.8386195,-9.348352,0.8490684
1409522705229,-0.18974048,-10.167576,-5.74369,-2.7543032,-9.405815,0.33885065
1409522705244,0.7200562,-11.861474,-5.056554,-2.5852945,-9.45894,-0.122842245
1409522705245,1.6310499,-16.437391,-3.477578,-2.3250692,-9.514211,-0.4941616
1409522705263,3.0268695,-19.608511,0.74639237,-1.9588788,-9.585933,-0.6656413
1409522705271,6.2482677,-19.608511,4.276643,-1.506139,-9.678225,-0.48361468
1409522705273,9.379884,-19.608511,2.6970682,-0.8859089,-9.766071,-0.09682085
1409522705304,7.2807674,-18.310854,-1.8507179,-0.14715186,-9.804806,0.12041861
1409522705304,3.2860417,-13.788208,-5.5030727,0.34071928,-9.800721,0.01265563
1409522705305,1.5933412,-11.51611,-6.1477113,0.5505375,-9.785758,-0.3258556
1409522705325,0.95947635,-10.125079,-5.2444987,0.65530986,-9.759656,-0.7000408
1409522705325,1.3760674,-9.244013,-3.6236243,0.6806889,-9.729911,-1.0177748
1409522705345,2.3529017,-8.978256,-3.6170402,0.72239894,-9.7058735,-1.2018913
1409522705348,2.224812,-8.900445,-4.5160627,0.81045187,-9.673189,-1.3939047
1409522705353,1.7567455,-7.8290396,-3.8839936,0.89665896,-9.629021,-1.6273786
1409522705380,1.7675194,-5.073912,-4.1820717,0.97180563,-9.589088,-1.8097997
1409522705381,2.0254946,-3.6236243,-5.503671,1.0815692,-9.527428,-2.0563908
1409522705384,1.2737153,-3.8163576,-8.79929,1.2271304,-9.424186,-2.418526
1409522705393,1.9129672,-4.1545386,-5.3145294,1.296955,-9.231474,-3.044369
1409522705419,1.9740193,-3.8097734,-1.4466964,1.4224025,-9.097285,-3.3743987
1409522705420,1.6801311,-3.3022027,-0.16699557,1.5375994,-9.073242,-3.3885746
1409522705425,1.7160441,-2.5659857,-1.1456255,1.6399904,-9.07621,-3.33215
1409522705459,1.6382325,-2.0213048,-2.9119477,1.7329534,-9.034039,-3.3990328
1409522705460,2.03567,-1.8064252,-3.259107,1.8477678,-8.916651,-3.6399868
1409522705461,2.8257565,-1.6927006,-2.9903579,2.0362272,-8.760594,-3.9084723
1409522705497,4.2437224,-1.5735891,-2.7856536,2.3333743,-8.5736885,-4.149412
1409522705499,4.9679685,-1.7579426,-3.5823243,2.8200715,-8.322458,-4.353651
1409522705500,5.524022,-1.3874398,-4.0946836,3.3682673,-7.981962,-4.5949373
1409522705501,5.8783636,-0.9648633,-4.4801497,3.948207,-7.5384917,-4.8737254
1409522705505,6.072294,-0.9935937,-4.7363296,4.5373006,-7.0018735,-5.153353
1409522705527,6.1261635,-1.0426749,-5.065532,5.0627837,-6.434912,-5.3972692
1409522705527,6.1758432,-2.0380642,-4.1132383,5.493049,-5.8652916,-5.6209598
1409522705540,5.369596,-4.168904,-2.385822,5.851563,-5.4761806,-5.651645
1409522705545,4.0581717,-9.752182,6.1620765,6.0602574,-5.4602585,-5.4432797
1409522705556,-8.796896,-19.369091,19.608511,6.17913,-6.4282374,-4.082463
1409522705573,-19.55105,-19.608511,18.728643,6.2616816,-6.205784,-4.2953467
1409522705573,-19.60911,-19.608511,7.8595657,6.3395824,-5.980739,-4.495647
1409522705592,-17.251421,-19.582176,5.475539,6.31826,-5.8683195,-4.67042
1409522705593,-8.661025,-12.975975,4.7668557,6.202291,-5.8139176,-4.888801
1409522705605,-6.4002995,-6.6983776,5.205593,-3.3025627,-8.922198,2.3786263
1409522705622,-2.8072014,-5.807136,7.169437,-3.6641397,-8.728837,2.5596673
1409522705625,-0.12150574,-6.269217,4.060566,-3.6634612,-8.574957,3.0363712
1409522705640,2.56419,-6.700772,2.4091654,-3.409921,-8.588226,3.2840848
1409522705666,5.707178,-9.626487,0.96665895,-2.886064,-8.717863,3.4409173
1409522705666,7.9272017,-14.495095,-3.0059202,-2.037191,-9.007831,3.2983725
1409522705667,7.703344,-15.555128,-4.9218802,-0.97470665,-9.400889,2.6160324
1409522705673,6.4445925,-12.786833,-3.928885,-0.09112813,-9.636522,1.8164629
1409522705698,5.595249,-12.197859,-1.441908,0.53520757,-9.711873,1.2503825
1409522705700,3.1615434,-14.492702,3.2315738,0.9901751,-9.71134,0.93798435
1409522705706,1.7669208,-14.194623,1.2635399,1.1387322,-9.686127,1.0259879
1409522705723,2.3900118,-12.628217,-0.44592008,1.1642528,-9.688694,0.97165805
1409522705725,2.7820623,-10.933721,-1.4688427,1.2676947,-9.688108,0.8389815
1409522705739,2.0697873,-9.560047,-2.6916811,1.3942534,-9.681034,0.70997024
1409522705764,1.8417397,-7.091027,-2.6503813,1.4680372,-9.684943,0.46595252
1409522705765,2.034473,-7.029376,-1.9315223,1.5547675,-9.680411,0.2067524
1409522705766,2.1625626,-7.381324,-1.9812019,1.6447499,-9.667737,0.0062660747
1409522705773,2.416348,-7.162853,-1.6531962,1.7323291,-9.650302,-0.2027233
1409522705795,2.5049336,-6.6056023,-0.7799112,1.8428981,-9.62473,-0.3723957
1409522705796,2.360683,-6.3607955,-0.3417723,1.9686084,-9.597225,-0.43388417
1409522705805,2.0811598,-6.9838862,-0.557849,2.0820785,-9.572673,-0.44639236
1409522705823,1.7591397,-8.118738,-1.2886791,2.152338,-9.555755,-0.47474694
1409522705826,1.3640964,-9.335591,-2.088941,2.1595674,-9.5488405,-0.57120883
1409522705841,1.0444705,-10.397419,-1.9716251,2.100267,-9.550964,-0.7337176
1409522705854,0.6943185,-11.593922,-1.5233108,1.9965544,-9.56225,-0.86460143
1409522705855,-0.52612585,-13.959991,-1.3054385,1.8538302,-9.584545,-0.93284434
1409522705870,-1.827973,-15.358206,-1.3808558,1.5729628,-9.634014,-0.93913966
1409522705873,-2.4241292,-14.335881,-1.7262194,1.2096745,-9.686151,-0.941018
1409522705890,-2.1092918,-12.140997,-2.2990322,0.85485685,-9.721704,-0.9633763
1409522705893,-1.9267339,-10.431537,-2.8101943,0.5668667,-9.735716,-1.0319488
1409522705906,-2.0470424,-8.8088665,-3.654749,0.31144613,-9.734521,-1.1456442
1409522705921,-1.5005659,-7.788338,-5.623381,0.070236735,-9.711555,-1.3605834
1409522705925,-1.1210849,-8.351574,-6.0740895,-0.091120824,-9.641992,-1.787205
1409522705939,-2.1631613,-9.139266,-4.2161894,-0.1873381,-9.546962,-2.2340124
1409522705960,-2.8742392,-9.276335,-1.934515,-0.36504796,-9.490812,-2.4416416
1409522705961,-2.665345,-9.121908,-0.8487445,-0.5871452,-9.476448,-2.454101
1409522705978,-2.0123265,-9.056666,-0.10414778,-0.78741556,-9.486124,-2.358775
1409522705978,-1.6543933,-9.149442,-0.05805939,-0.92693305,-9.516716,-2.1779134
1409522705985,-1.6705543,-9.49301,-0.87567925,-1.023373,-9.546759,-1.9956262
1409522705994,-1.5562311,-9.576208,-0.908001,-1.1006781,-9.55608,-1.9079437
1409522706010,-1.3449428,-9.622296,-0.7344214,-1.1456486,-9.564231,-1.8394022
1409522706030,-1.3664906,-9.725846,-0.38845924,-1.1592153,-9.577708,-1.7590079
1409522706031,-1.3467385,-9.76535,0.34715924,-1.181113,-9.593859,-1.6532568
1409522706034,-1.3868413,-9.806051,0.81402856,-1.1972934,-9.619376,-1.4847475
1409522706058,-1.5053543,-10.095152,0.8002619,-1.2146578,-9.645922,-1.2849932
1409522706058,-1.7082629,-10.472239,0.8984242,-1.238108,-9.665534,-1.102245
1409522706072,-1.8028339,-10.621277,1.1073183,-1.2742748,-9.679418,-0.9249378
1409522706073,-1.6687586,-10.740389,1.3186066,-1.3155065,-9.689051,-0.74976754
1409522706091,-1.4167689,-10.676943,1.6310499,-1.3421791,-9.697422,-0.57355654
1409522706103,-1.1725603,-10.493188,3.0065188,-1.340538,-9.706868,-0.38733903
1409522706105,-0.8738836,-10.399814,4.8787847,-1.3225293,-9.71663,-0.09163873
1409522706119,-0.87567925,-11.013328,5.554548,-1.2741143,-9.717572,0.34034163
1409522706127,-1.1360487,-11.870452,5.167286,-1.2252463,-9.700334,0.7567501
1409522706139,-1.0809821,-12.071565,4.4603977,-1.2111223,-9.6754,1.0441242
1409522706161,-0.34596214,-11.373056,6.609194,-1.2060614,-9.652567,1.2424834
1409522706162,0.43993455,-10.821193,11.398794,-1.1532649,-9.595093,1.6657039
1409522706165,-2.2882583,-11.716624,3.1250317,-1.0447427,-9.434286,2.4643779
1409522706174,-5.382764,-13.992912,-3.7912183,-1.1249247,-9.400952,2.5548096
1409522706207,-6.983288,-15.867572,-6.7534447,-1.388522,-9.477524,2.102128
1409522706208,-7.1383123,-16.069283,-4.768651,-1.7009422,-9.554542,1.4099303
1409522706208,-7.005434,-15.636531,1.9249382,-2.0011673,-9.561552,0.8616502
1409522706235,-6.615778,-16.01302,6.497265,-2.2609184,-9.504551,0.84978336
1409522706236,-5.6485205,-16.548721,13.311762,-2.422053,-9.428378,1.1873254
1409522706236,-4.035427,-17.16463,13.295002,-2.4591672,-9.28898,1.9590186
1409522706264,-4.5136685,-15.929821,5.659294,-2.4151003,-9.303161,1.9465046
1409522706264,-4.6591167,-13.778032,-1.8417397,-2.5020416,-9.0814085,2.7273052
1409522706265,-5.9878983,-13.460202,-5.8029466,-2.6823113,-9.108627,2.4512248
1409522706274,-6.616975,-12.4289,-6.1967926,-2.902662,-9.172884,1.8981979
1409522706298,-6.43322,-11.479,-6.3111157,-3.1212702,-9.201374,1.3276932
1409522706298,-3.0364463,-10.802638,-6.266823,-3.3141105,-9.195509,0.7935222
1409522706307,-2.132635,-9.882068,-5.829881,-3.2995188,-9.22981,0.3068705
1409522706326,-1.2952632,-9.957485,-5.567716,-3.2497518,-9.251792,-0.117641605
1409522706327,-0.5374983,-11.6112795,-4.551976,-3.1303945,-9.281027,-0.483263
1409522706345,0.47405192,-16.21114,-2.0530279,-2.9336739,-9.3263855,-0.7632095
1409522706346,1.7860745,-19.608511,1.4628572,-2.5993648,-9.422826,-0.7899588
1409522706354,5.415684,-19.608511,1.553837,-2.1605847,-9.5500555,-0.5465183
1409522706374,9.620501,-19.608511,-0.6003461,-1.5350865,-9.679816,-0.3392511
1409522706374,8.7292595,-19.282303,-1.821389,-0.71909636,-9.775257,-0.31245407
1409522706388,4.5902834,-15.188815,-4.334702,-0.057768006,-9.799363,-0.37353617
1409522706412,2.2601264,-12.786833,-5.777807,0.25522244,-9.785013,-0.5989609
1409522706413,0.9367314,-11.261726,-5.495291,0.44946024,-9.754451,-0.90503776
1409522706414,0.95109665,-10.35193,-2.4995465,0.5219199,-9.720318,-1.1888641
1409522706454,2.695871,-9.351153,-1.0636241,0.5383751,-9.706462,-1.2904019
1409522706455,4.4286747,-7.8787193,-2.2918496,0.6499325,-9.697863,-1.3036294
1409522706455,4.956596,-6.161478,-3.21661,0.895157,-9.665283,-1.3969258
1409522706455,3.928885,-5.1301756,-5.3594203,1.2149796,-9.607369,-1.5468267
1409522706474,3.0268695,-4.809353,-6.254852,1.4873277,-9.510354,-1.8738749
1409522706475,2.3876176,-4.459201,-5.0302176,1.6870544,-9.387839,-2.2787585
1409522706489,1.9668367,-4.4777555,-4.07134,1.8233441,-9.27903,-2.5971909
1409522706504,2.271499,-4.530428,-2.2816741,1.9006647,-9.192997,-2.8366637
1409522706506,2.2457612,-4.474763,-1.6729485,1.9845623,-9.14414,-2.9354053
1409522706520,2.581548,-4.096479,-2.2122424,2.0723794,-9.106876,-2.9900563
1409522706535,2.9083564,-3.716998,-2.9741971,2.2167754,-9.039235,-3.0900674
1409522706535,3.122039,-3.2555158,-3.3117795,2.4071138,-8.930108,-3.2602656
1409522706558,3.9971197,-2.4091654,-2.2583308,2.6294372,-8.788494,-3.466821
1409522706559,4.8135424,-1.3880384,-1.7256209,2.995022,-8.624327,-3.5806794
1409522706577,5.509058,-0.9451111,-1.8076223,3.495463,-8.397536,-3.665179
1409522706578,5.952584,-0.85173726,-2.3223755,4.0873203,-8.083481,-3.7578702
1409522706586,6.452972,-0.6380547,-2.3062148,4.710865,-7.6807895,-3.8708653
1409522706614,6.126762,-1.0450691,-2.8640637,5.364653,-7.203246,-3.937526
1409522706614,5.9873,-1.340753,-3.5482068,5.8768497,-6.729501,-4.043128
1409522706615,5.6880245,-1.5939398,-3.3464954,6.2672753,-6.2614937,-4.2053976
1409522706641,4.6142254,-2.641403,-1.8818425,6.5577154,-5.880168,-4.311656
1409522706642,2.6850972,-5.583278,1.8309658,6.728794,-5.736492,-4.241035
1409522706676,0.040102877,-12.32954,14.162302,6.6878777,-6.168888,-3.658899
1409522706677,-12.918514,-19.608511,19.315222,6.1130815,-7.589141,-1.0979694
1409522706677,-19.60911,-19.608511,19.024326,6.2494993,-7.4509306,-1.2640345
1409522706678,-19.60911,-19.608511,14.4454155,6.3543854,-7.337532,-1.3974094
1409522706686,-11.877635,-18.124706,6.420052,6.349144,-7.292642,-1.635888
1409522706730,-6.88752,-9.120112,4.7758336,6.2426076,-7.3210607,-1.8979713
1409522706730,-5.0421886,-4.0946836,6.697779,-3.0904617,-8.470336,3.8565314
1409522706731,-1.0630256,-3.2848446,5.8723783,-3.3774436,-8.216645,4.1533113
1409522706731,1.7292122,-3.913921,2.3253684,-3.312556,-8.062193,4.4942636
1409522706734,4.0922894,-5.257667,0.013766659,-2.9627898,-8.120122,4.6320505
1409522706765,7.327454,-10.720636,-0.5554548,-2.3429325,-8.384789,4.51402
1409522706765,7.925406,-17.299904,-4.1222167,-1.2808219,-8.837666,4.0528426
1409522706766,6.156091,-16.95813,-5.5347958,-0.23977089,-9.327728,3.017682
1409522706774,4.553173,-14.674062,-4.4699745,0.39681613,-9.584505,2.0372045
1409522706798,2.280477,-14.930242,0.7116765,0.7947835,-9.675796,1.3848075
1409522706800,0.75836337,-13.51886,3.2184057,0.88619894,-9.685338,1.2566879
1409522706806,2.297835,-11.113286,-0.6667852,0.8437679,-9.681722,1.3125126
1409522706819,2.8323407,-10.068815,-3.015497,0.9677973,-9.697769,1.0895015
1409522706836,2.5019407,-9.348161,-3.5751417,1.1274781,-9.709385,0.79185355
1409522706836,2.7335799,-8.796297,-2.4839842,1.2640748,-9.713871,0.46178165
1409522706858,3.1376014,-9.943718,-1.7794905,1.4261557,-9.70044,0.19476855
1409522706858,2.8299465,-10.5841675,-1.8884265,1.5892134,-9.677023,0.006668226
1409522706870,2.4594438,-10.08318,-1.8273745,1.7046205,-9.655553,-0.18699206
1409522706890,2.2212207,-8.98903,-1.4251486,1.7850939,-9.636392,-0.35182315
1409522706891,2.0811598,-8.243237,-0.9211691,1.8486899,-9.619705,-0.46260816
1409522706910,2.0159178,-8.173206,-0.7505822,1.9026453,-9.606438,-0.51642334
1409522706910,1.9698294,-8.525752,-0.98461545,1.9507387,-9.594992,-0.548817
1409522706914,2.006341,-9.168595,-1.1803415,1.9918823,-9.583516,-0.5992098
1409522706935,1.7926586,-10.434529,-1.1091139,2.0170548,-9.57413,-0.6617548
1409522706936,0.55964464,-12.565369,-0.99538934,2.0090096,-9.573359,-0.6964789
1409522706954,-0.6703765,-13.578116,-0.9379285,1.8544588,-9.603895,-0.7046897
1409522706955,-1.4251486,-12.710218,-0.9744401,1.5989953,-9.650005,-0.70072716
1409522706974,-1.7190368,-11.340137,-1.2018893,1.310271,-9.693689,-0.69711137
1409522706997,-1.4736311,-9.964667,-1.590947,1.0167948,-9.7286215,-0.7003297
1409522706998,-1.4838065,-8.913014,-2.5791538,0.764011,-9.7493925,-0.7321324
1409522706998,-1.0540473,-8.071452,-4.6016555,0.530586,-9.753882,-0.8664117
1409522707006,-0.29747957,-7.5070195,-5.2385135,0.36837387,-9.724517,-1.2118009
1409522707024,-1.2797008,-8.024167,-4.872799,0.28782734,-9.667807,-1.6189754
1409522707040,-4.022857,-8.756194,-6.9886746,0.12869594,-9.596351,-2.0159085
1409522707040,-4.2425256,-8.120534,-7.994838,-0.2540379,-9.451351,-2.6034307
1409522707053,-2.8616695,-6.9767036,-4.2281604,-0.58888304,-9.246391,-3.2136955
1409522707055,-2.2601264,-7.1849995,-2.4498668,-0.7993968,-9.1563835,-3.4193573
1409522707071,-1.5478514,-8.045714,-1.4407109,-0.98742056,-9.141225,-3.4107764
1409522707090,-0.8122329,-8.842984,-1.1994951,-1.0971804,-9.180805,-3.2679398
1409522707091,-0.60932434,-9.435549,-0.830788,-1.0921526,-9.242272,-3.0916018
1409522707105,-0.7068881,-10.357915,-0.7835025,-1.0620108,-9.311191,-2.8886447
1409522707106,-0.7212533,-11.322779,-0.919972,-1.0157837,-9.376521,-2.6868975
1409522707121,-0.6206968,-12.01171,-0.78888947,-0.9536893,-9.435704,-2.4956677
1409522707133,-0.82480246,-12.154763,-0.49320555,-0.8843878,-9.492995,-2.2959278
1409522707135,-1.1288661,-11.972205,-0.09995792,-0.8461773,-9.542031,-2.0985777
1409522707153,-1.270124,-11.769297,0.24540567,-0.8447537,-9.583282,-1.9019662
1409522707155,-1.4993688,-11.804611,0.35553896,-0.86191815,-9.620114,-1.6973071
1409522707170,-1.7298107,-12.0170965,0.35553896,-0.8995608,-9.647696,-1.5110165
1409522707189,-1.8626889,-12.388797,0.43754035,-0.9547242,-9.666982,-1.3447632
1409522707189,-2.0440497,-12.719196,0.90021986,-1.0151904,-9.681118,-1.1898372
1409522707205,-1.946486,-12.620436,4.2179847,-1.0841835,-9.693408,-1.0162416
1409522707219,-1.3772645,-12.07336,9.602545,-1.1413667,-9.7228565,-0.5777066
1409522707220,-1.2689269,-12.594698,10.924144,-1.1523911,-9.735323,0.25663975
1409522707238,-0.3716998,-12.872425,17.686567,-1.1526914,-9.678939,1.0769559
1409522707238,-1.062427,-14.080898,18.383877,-1.1134026,-9.489868,2.2075138
1409522707254,-3.8073792,-13.378201,-0.45489833,-1.2422411,-9.580712,1.6843917
1409522707255,-4.856638,-12.115259,-11.548432,-1.4136491,-9.249951,2.9343448
1409522707270,-4.895544,-12.943653,-11.877635,-1.6604846,-9.43505,2.0959492
1409522707284,-5.5407815,-14.587871,-8.465898,-1.8056548,-9.571433,1.1391596
1409522707286,-5.348048,-15.190013,-3.1860838,-1.9461607,-9.604126,0.37896553
1409522707304,-6.535572,-14.694413,-1.6035166,-2.0736866,-9.584657,0.067772426
1409522707318,-7.5842323,-14.180857,1.9357121,-2.3015425,-9.532654,-0.042423066
1409522707318,-7.6243353,-15.369577,11.1970825,-2.563602,-9.465577,0.034853287
1409522707336,-6.3727665,-15.847819,17.001226,-2.7529404,-9.381841,0.7568226
1409522707337,-5.412093,-15.541362,10.164583,-2.7253458,-9.39335,0.71264756
1409522707352,-4.396353,-14.696209,3.015497,-2.9179776,-9.065289,2.3401637
1409522707355,-3.3213563,-13.251906,-2.1242554,-3.0082433,-9.017402,2.4098408
1409522707369,-3.079542,-12.643779,-3.4650085,-3.055649,-9.073624,2.1219776
1409522707385,-3.1705215,-12.066776,-3.425504,-3.0418332,-9.160836,1.7310998
1409522707388,-2.902371,-11.662755,-6.642114,-3.0037706,-9.230864,1.3924531
1409522707402,-0.75836337,-11.027693,-6.895301,-2.9816957,-9.306611,0.8166078
1409522707419,0.16519992,-9.656414,-5.544971,-2.831107,-9.384629,0.28976956
1409522707420,0.3585317,-10.284892,-5.1984105,-2.6504445,-9.440733,-0.13443097
1409522707435,1.2348095,-12.624027,-5.0122614,-2.4469457,-9.482697,-0.5112119
1409522707435,2.6874914,-18.252197,-2.4211364,-2.1577358,-9.53096,-0.8218128
1409522707452,5.722142,-19.608511,3.3770216,-1.7224667,-9.615679,-0.86150455
1409522707455,10.627263,-19.608511,4.184466,-1.1164774,-9.730654,-0.48806715
1409522707473,9.526528,-19.582775,1.3790601,-1.3762362,-9.706705,-0.23715511
1409522707486,5.539584,-15.594034,-3.1040826,0.41367376,-9.797908,-0.016113224
1409522707486,2.160767,-12.406754,-7.337031,0.7704469,-9.774392,-0.1950155
1409522707503,1.0708067,-10.293272,-7.9313917,0.9064415,-9.744431,-0.6283578
1409522707521,0.6548142,-8.850166,-4.3568487,0.93978816,-9.6995735,-1.0979294
1409522707521,1.110311,-9.097966,-1.8381484,0.9051237,-9.671965,-1.3432287
1409522707537,2.4223335,-8.942942,-2.9400797,0.88289666,-9.664733,-1.4084809
1409522707538,2.1152773,-8.292317,-4.0563765,0.9792475,-9.637379,-1.5272201
1409522707549,0.9379285,-6.3913217,-5.1702785,1.0555803,-9.596153,-1.723367
1409522707555,0.25079262,-5.189432,-5.8945246,1.0714295,-9.535721,-2.0229783
1409522707569,0.84216046,-5.122993,-5.434838,1.0595155,-9.447298,-2.4075732
1409522707584,1.3365631,-5.2522798,-4.64116,1.1003733,-9.353215,-2.734401
1409522707586,1.9255368,-5.01286,-2.8778305,1.1539876,-9.269527,-2.9857302
1409522707607,2.629432,-4.663905,-1.2940661,1.2390786,-9.218039,-3.1085155
1409522707607,2.4121583,-4.2778397,-2.496554,1.401376,-9.199845,-3.0934453
1409522707615,2.6210523,-3.7565024,-2.2918496,1.5639114,-9.133937,-3.2087066
1409522707647,3.0783448,-2.8814218,-2.136825,1.7551565,-9.061432,-3.3136575
1409522707648,3.481768,-1.9698294,-2.1547816,2.0327394,-8.963105,-3.4206889
1409522707648,4.5741224,-1.1761516,-1.5400703,2.3823607,-8.819595,-3.565037
1409522707655,5.501277,-0.80086046,-2.1164744,2.9062312,-8.624554,-3.6525733
1409522707678,6.0860605,-0.53211135,-3.0986955,3.5585716,-8.314594,-3.7913785
1409522707678,6.3182983,-0.47405192,-3.9785647,4.2536426,-7.8640175,-4.029161
1409522707689,6.277597,-0.58538234,-4.1557355,4.8997355,-7.3160176,-4.317277
1409522707710,5.5006785,-1.5292963,-3.727772,5.4534917,-6.7339826,-4.5916524
1409522707711,3.934272,-3.1651347,-1.6765398,5.821423,-6.300613,-4.752234
1409522707715,2.2164323,-5.5264163,3.5338416,5.9784594,-6.229408,-4.65004
1409522707745,-0.9056068,-9.907805,11.173141,6.0075765,-6.7357316,-3.835272
1409522707745,-8.078635,-17.741035,19.586964,5.465232,-7.957586,-1.7258248
1409522707749,-19.079992,-19.608511,17.345991,5.555447,-7.8499293,-1.9198984
1409522707756,-19.60911,-19.608511,18.665197,5.623371,-7.750524,-2.1160073
1409522707777,-15.611392,-19.524117,11.15279,5.6454406,-7.6819177,-2.299466
1409522707778,-2.5929205,-10.764331,3.7630866,5.597896,-7.648185,-2.5177865
1409522707787,-5.459977,-8.005612,5.129577,-2.7529707,-8.423524,4.199499
1409522707821,-3.0352492,-5.952584,7.1502833,-3.1210213,-8.304289,4.179522
1409522707821,1.2036849,-5.499481,5.4474072,-3.1922283,-8.158179,4.407286
1409522707824,4.19524,-7.2843585,3.7187939,-2.878087,-8.135699,4.658046
1409522707854,7.3448124,-13.961787,1.697489,-2.2262466,-8.277581,4.7640195
1409522707854,7.189189,-19.568409,-1.5047557,-1.2351758,-8.672787,4.4076657
1409522707856,3.7565024,-18.796877,-2.6318262,-0.38443887,-9.113748,3.6003034
1409522707857,-0.17118542,-14.484322,1.4191631,0.0071817283,-9.376249,2.8733735
1409522707883,0.7356185,-11.95784,-1.3263878,6.7599956E-4,-9.433458,2.6795955
1409522707884,3.4165258,-10.031705,-5.9148755,0.060544778,-9.52577,2.3294706
1409522707888,4.0617633,-8.281544,-5.040992,0.3368477,-9.657991,1.6673808
1409522707926,3.913921,-7.0928226,-3.3967736,0.66037416,-9.718608,1.1326845
1409522707927,3.53863,-6.4661403,-2.9532478,0.9736247,-9.728873,0.7559435
1409522707928,3.2519245,-6.3907228,-2.6318262,1.2514956,-9.717106,0.4265981
1409522707929,3.1381998,-7.055712,-2.1392193,1.4932091,-9.691549,0.12070611
1409522707936,3.4434607,-8.180388,-2.247557,1.7072388,-9.656239,-0.113088034
1409522707967,3.6792896,-9.460688,-2.505532,1.9192595,-9.611091,-0.3373118
1409522707968,3.7822402,-10.672154,-2.3397336,2.108953,-9.560088,-0.57219726
1409522707968,3.4931402,-10.648212,-2.0566192,2.264285,-9.5112095,-0.761777
1409522707997,3.3291376,-10.672752,-1.7082629,2.3787963,-9.471059,-0.9004256
1409522707998,2.843713,-10.894217,-1.3940239,2.455724,-9.44321,-0.9826684
1409522708005,2.010531,-11.7268,-1.1025299,2.4921281,-9.429527,-1.0216192
1409522708042,1.0791864,-12.828133,-0.9056068,2.4345305,-9.444153,-1.0253748
1409522708043,0.26396075,-13.435062,-0.9648633,2.2829883,-9.484642,-0.9999644
1409522708044,-0.3824737,-12.894572,-1.2491747,2.0621421,-9.537958,-0.972268
1409522708044,-1.0139444,-11.952454,-1.441908,1.8085625,-9.589969,-0.9653905
1409522708049,-1.4317327,-10.609905,-1.4287399,1.5280373,-9.638442,-0.96742964
1409522708070,-1.1031284,-9.077017,-1.4999673,1.2513915,-9.678763,-0.962273
1409522708070,-1.3790601,-8.680179,-1.7597382,1.0469042,-9.699886,-0.993276
1409522708090,-1.8034325,-9.001001,-2.03567,0.82839435,-9.7181835,-1.0203142
1409522708090,-2.124854,-9.076419,-2.3624785,0.58116996,-9.729688,-1.0797216
1409522708095,-2.143409,-8.8645315,-3.8145618,0.3244675,-9.7299595,-1.1802483
1409522708127,-3.1160536,-8.0606785,-4.2718544,0.0781158,-9.701752,-1.4283967
1409522708127,-4.3861775,-8.121132,-5.7879825,-0.25245267,-9.645377,-1.7530969
1409522708128,-4.172495,-8.118738,-5.9717374,-0.66777503,-9.515067,-2.277707
1409522708135,-3.0298622,-7.0491285,-4.402937,-0.9483748,-9.368171,-2.7401376
1409522708163,-2.3624785,-6.551733,-4.035427,-1.139353,-9.247999,-3.057246
1409522708164,-1.4802152,-7.45315,-3.091513,-1.2561814,-9.158981,-3.2719173
1409522708169,-0.83737206,-8.428787,-2.3732524,-1.3142095,-9.137758,-3.3082654
1409522708196,-0.641646,-9.419987,-1.5215151,-1.2981675,-9.166177,-3.2351744
1409522708196,-0.78050977,-10.47164,-0.6835446,-1.2537719,-9.22952,-3.068288
1409522708197,-0.90021986,-11.022306,-0.08678981,-1.2069839,-9.312377,-2.827232
1409522708219,-0.87687635,-11.291654,-0.24899697,-1.1572622,-9.397343,-2.5536475
1409522708220,-1.2575544,-11.687296,-0.2681506,-1.1013503,-9.464398,-2.3200428
1409522708233,-1.6142905,-12.013506,-0.0035913025,-1.0845693,-9.515242,-2.1105144
1409522708235,-1.9237411,-11.960834,0.18854338,-1.097916,-9.557443,-1.902688
1409522708251,-2.1200657,-11.525088,0.34117374,-1.1466206,-9.588965,-1.7051132
1409522708267,-2.3415294,-11.475409,0.63087213,-1.222944,-9.610898,-1.5183645
1409522708268,-2.5791538,-11.979987,0.9487024,-1.316832,-9.62768,-1.3206518
1409522708284,-2.5486276,-12.594698,1.8668787,-1.4154692,-9.640012,-1.1121974
1409522708308,-2.1625626,-13.232753,8.057686,-1.4928206,-9.6553955,-0.8457272
1409522708309,-1.9416976,-13.40753,11.196485,-1.5177152,-9.688249,-0.06913052
1409522708309,-1.2802993,-13.38658,13.348273,-1.5198556,-9.650967,0.8480818
1409522708316,-0.5650316,-13.34947,18.361134,-1.4687145,-9.538169,1.7425892
1409522708336,-2.4468741,-13.143569,4.490924,-1.5735111,-9.588456,1.3251294
1409522708336,-4.1940427,-11.702259,-7.904457,-1.5536844,-9.243545,2.883283
1409522708357,-4.268862,-12.173917,-9.7240505,-1.7503245,-9.387626,2.2314239
1409522708357,-4.6495395,-13.611635,-6.8988924,-1.8536576,-9.522193,1.4360377
1409522708367,-4.619014,-13.966576,-2.758719,-1.9509282,-9.575628,0.81951696
1409522708387,-5.9873,-13.652337,-0.8295909,-2.055235,-9.576825,0.48044643
1409522708401,-6.535572,-13.377004,0.80205756,-2.2512417,-9.538482,0.34594086
1409522708402,-5.7664347,-14.149732,4.235343,-2.4730186,-9.483752,0.33618405
1409522708413,-4.514866,-14.322713,10.559028,-2.6071267,-9.437043,0.56168085
1409522708416,-4.1317935,-14.88176,11.079767,-2.644386,-9.360415,1.2490994
1409522708432,-4.0880995,-15.336658,5.7029886,-2.6578095,-9.239546,1.9331878
1409522708436,-3.221997,-13.963583,1.4544775,-2.7012427,-9.168558,2.1934474
1409522708451,-2.3062148,-12.615647,-0.57520694,-2.7095191,-9.185658,2.11011
1409522708465,-2.5863364,-12.890382,0.031124622,-2.6948915,-9.223731,1.9572239
1409522708469,-3.4207156,-12.814964,-3.071761,-2.6614785,-9.261967,1.8173847
1409522708484,-2.8712463,-11.752538,-7.638102,-2.6665492,-9.321861,1.4706496
1409522708502,-1.7286136,-10.206482,-8.387487,-2.666245,-9.401181,0.8242014
1409522708502,-0.61411273,-8.943541,-7.478289,-2.617637,-9.449868,0.13541912
1409522708517,-0.30765492,-9.642648,-6.545149,-2.5004714,-9.47158,-0.45517087
1409522708517,1.0989386,-17.23526,-2.202067,-2.3577816,-9.475808,-0.90573066
1409522708535,2.7431567,-19.608511,3.364452,-2.008615,-9.552452,-0.94156396
1409522708536,6.5152216,-19.608511,4.6830587,-1.5739442,-9.664362,-0.54142225
1409522708549,8.543709,-19.608511,1.6645688,-0.9358559,-9.761078,-0.1262303
1409522708566,5.8029466,-18.072632,-1.6765398,-0.25173065,-9.803395,0.021433687
1409522708568,2.3720553,-14.013861,-5.93762,0.1729422,-9.80501,-0.047264732
1409522708583,1.1438298,-11.963227,-6.9491706,0.36385962,-9.792355,-0.38442925
1409522708598,0.3776853,-10.828376,-5.877765,0.45622724,-9.763825,-0.79370534
1409522708599,0.33159694,-10.357915,-3.7834373,0.4582868,-9.73108,-1.1253537
1409522708613,1.79206,-9.636662,-2.4540567,0.42664018,-9.704852,-1.3432068
1409522708616,3.2944214,-8.4826565,-2.1547816,0.4957748,-9.685555,-1.4541724
1409522708632,2.9161377,-6.8887167,-3.769072,0.6791718,-9.663278,-1.5264988
1409522708636,1.2366052,-4.4663835,-7.1580644,0.85488844,-9.617253,-1.7169828
1409522708651,1.2491747,-3.0496144,-4.8069587,0.9337334,-9.512929,-2.191518
1409522708669,1.5161282,-3.5422213,-5.7137623,1.0339117,-9.427616,-2.4942834
1409522708670,1.7166426,-4.031237,-4.510676,1.1359102,-9.302632,-2.8881035
1409522708686,2.2463598,-3.9109285,-1.4311341,1.2343048,-9.196624,-3.1731653
1409522708708,2.8892028,-3.645172,-0.97623575,1.3801155,-9.16644,-3.2003276
1409522708708,2.9071593,-3.2680852,-1.8273745,1.6021572,-9.130301,-3.200171
1409522708709,2.8335378,-2.9682117,-2.6090813,1.8331534,-9.053474,-3.2931027
1409522708716,2.5390508,-2.4319103,-3.684078,2.0797074,-8.937998,-3.4579544
1409522708730,2.510919,-1.9991584,-3.366846,2.3036003,-8.76441,-3.7481923
1409522708749,3.264494,-1.7884687,-2.3481133,2.5247836,-8.580481,-4.0213437
1409522708750,4.301782,-1.395221,-2.4504654,2.8542414,-8.404068,-4.170773
1409522708777,5.2127757,-1.1575965,-3.5314474,3.3371785,-8.140647,-4.3316894
1409522708777,5.6628857,-1.0043676,-4.3460746,3.9053912,-7.734861,-4.592411
1409522708778,5.5521536,-1.0462662,-4.6040497,4.4767385,-7.2201414,-4.898853
1409522708808,4.8500543,-1.9315223,-4.1862617,4.9648695,-6.683338,-5.1820335
1409522708808,3.5595794,-3.4554317,-2.5737667,5.273118,-6.294316,-5.3615475
1409522708808,2.321777,-5.3354783,0.6171055,5.3849945,-6.233089,-5.3217306
1409522708816,0.79726917,-9.408015,6.537368,5.3780503,-6.6129427,-4.8493247
1409522708835,-3.8133647,-17.808073,18.715475,5.0983677,-7.6507134,-3.4122763
1409522708851,-17.630302,-19.608511,19.608511,5.1579814,-7.512789,-3.6226563
1409522708851,-19.60911,-19.608511,18.004995,5.2063484,-7.3805547,-3.819916
1409522708868,-17.153856,-19.552847,8.49343,5.1764517,-7.31548,-3.982274
1409522708869,-6.3302693,-11.832145,3.731962,5.0187535,-7.310254,-4.188399
1409522708886,-6.9892735,-7.627328,5.044583,-3.1215389,-8.602356,3.5250335
1409522708890,-3.7786489,-5.8771667,5.954978,-3.5330763,-8.443753,3.5200558
1409522708896,0.9463082,-4.84347,3.791817,-3.6163428,-8.309874,3.746795
1409522708917,2.9011738,-5.348048,1.7381904,-3.3375657,-8.330958,3.9529963
1409522708917,5.2139726,-8.68796,0.99658644,-2.848562,-8.469233,4.040813
1409522708930,7.567473,-16.366165,-0.5674258,-2.0046618,-8.763846,3.9174888
1409522708951,6.985682,-18.57661,-3.5942953,-0.9070608,-9.180104,3.3276565
1409522708952,3.957017,-16.395493,-4.4568067,-0.08511457,-9.4879675,2.4782302
1409522708968,1.8776526,-14.279019,-1.5197195,0.29477116,-9.641687,1.7667478
1409522708968,1.4185646,-13.862428,0.31423897,0.42105538,-9.691992,1.4347202
1409522708980,2.3971944,-12.084733,-2.7820623,0.49212885,-9.709874,1.2831738
1409522709000,3.0597897,-9.646837,-4.859631,0.63483375,-9.745493,0.89036244
1409522709000,3.3812113,-7.7637978,-3.7152026,0.83716744,-9.762658,0.40004095
1409522709017,3.3512838,-6.5924344,-1.8650831,1.0628633,-9.748637,0.069034666
