time,acc_x,acc_y,acc_z,gravity_x,gravity_y,gravity_z
1409522509229,-1.6932992,-0.061650693,10.0664215,-1.4451928,-0.20277905,9.697458
1409522509247,-1.738789,-0.02873042,10.266935,-1.4198602,-0.22474337,9.700715
1409522509250,-1.7824832,-0.11552023,10.436325,-1.4021289,-0.24484314,9.702807
1409522509256,-1.8273745,-0.26874915,10.556035,-1.4042765,-0.2622273,9.702043
1409522509278,-1.822586,-0.33638534,10.55005,-1.4187105,-0.27296728,9.699646
1409522509278,-1.7848774,-0.31483752,10.415376,-1.452735,-0.27332923,9.694598
1409522509291,-1.7202339,-0.3172317,10.094553,-1.4952705,-0.26249167,9.688429
1409522509308,-1.6352397,-0.2657564,9.793482,-1.5366533,-0.24317329,9.682456
1409522509310,-1.608305,-0.20709845,9.627684,-1.5693742,-0.21959017,9.67777
1409522509326,-1.6118963,-0.16699557,9.532514,-1.5896146,-0.19700007,9.6749525
1409522509328,-1.5334862,-0.11192893,9.504382,-1.5942281,-0.17651166,9.674589
1409522509344,-1.5382746,-0.088585466,9.47206,-1.5903102,-0.16167758,9.675493
1409522509359,-1.5143325,-0.06703765,9.46847,-1.5752956,-0.15378073,9.678078
1409522509360,-1.4520833,-0.0676362,9.43495,-1.5553663,-0.15153663,9.681335
1409522509376,-1.42455,-0.020949265,9.399636,-1.5346403,-0.15237042,9.684629
1409522509377,-1.407192,-0.0023942017,9.357738,-1.5169467,-0.15373363,9.687395
1409522509398,-1.3706805,-0.004189853,9.405023,-1.5054039,-0.15550114,9.689168
1409522509399,-1.4012065,-0.025139118,9.566033,-1.5017672,-0.1580292,9.689691
1409522509408,-1.4532804,-0.10175357,9.680955,-1.5064802,-0.16147563,9.688903
1409522509422,-1.4891934,-0.2148796,9.755175,-1.5148386,-0.16760547,9.687495
1409522509441,-1.4520833,-0.24480712,9.759963,-1.5273566,-0.17572518,9.685386
1409522509441,-1.3970166,-0.2160767,9.785102,-1.5386204,-0.18305479,9.683466
1409522509462,-1.3024458,-0.13587095,9.758167,-1.5450538,-0.18654487,9.682376
1409522509463,-1.2282255,-0.089184016,9.704298,-1.5459349,-0.1867525,9.682231
1409522509469,-1.1821371,-0.109534726,9.7084875,-1.5432407,-0.18553144,9.682684
1409522509477,-1.2024878,-0.09935937,9.633071,-1.539346,-0.18363649,9.683341
1409522509501,-1.271321,-0.031124622,9.496002,-1.5358295,-0.17854276,9.683993
1409522509501,-1.347337,0.034715924,9.440337,-1.5354865,-0.16778573,9.68424
1409522509508,-1.3970166,0.10594343,9.425972,-1.5419149,-0.15126991,9.683491
1409522509527,-1.4736311,0.11611878,9.489418,-1.5559117,-0.13079964,9.68155
1409522509543,-1.6089035,0.090381116,9.547478,-1.5776986,-0.10880618,9.678296
1409522509544,-1.6843209,0.09756372,9.609727,-1.6064829,-0.08646374,9.673785
1409522509569,-1.6190789,0.08798691,9.607931,-1.6380213,-0.06367536,9.668672
1409522509569,-1.5089456,0.047285482,9.566631,-1.667763,-0.040486608,9.663712
1409522509570,-1.4736311,0.034715924,9.555259,-1.6949235,-0.016874338,9.659055
1409522509577,-1.38325,0.0724246,9.558251,-1.7173371,0.006328847,9.6551075
1409522509600,-1.2940661,0.13467385,9.617508,-1.7332853,0.026867704,9.652223
1409522509600,-1.2982559,0.142455,9.747394,-1.7443415,0.043815807,9.650167
1409522509611,-1.3084313,0.13946225,9.874287,-1.7526591,0.057341665,9.648589
1409522509626,-1.30484,0.16579847,9.932345,-1.7594488,0.06852479,9.647282
1409522509647,-1.2623428,0.18555063,10.172364,-1.7782023,0.10149503,9.643552
1409522509648,-1.2372037,0.26036942,10.2178545,-1.7782023,0.10149503,9.643552
1409522509649,-1.3413515,0.25617957,10.17835,-1.7782023,0.10149503,9.643552
1409522509657,-1.5173253,0.23223756,10.019734,-1.784232,0.11564281,9.642278
1409522509680,-1.6813282,0.22984336,9.872491,-1.7922717,0.13164479,9.640582
1409522509681,-1.7549498,0.30825347,9.743204,-1.8018626,0.14938435,9.6385355
1409522509689,-1.8195933,0.31543607,9.74859,-1.8124294,0.16709766,9.636263
1409522509717,-1.8842367,0.3321955,9.84795,-1.8201892,0.1809242,9.63455
1409522509718,-1.8375498,0.39803603,9.952697,-1.8196,0.19165227,9.634455
1409522509719,-1.7962499,0.4261679,10.14543,-1.8129597,0.19628058,9.6356125
1409522509756,-1.7579426,0.41000703,10.318411,-1.7942312,0.19568913,9.63913
1409522509757,-1.7244238,0.3812766,10.398018,-1.7671987,0.19152701,9.644206
1409522509758,-1.7034745,0.30526072,10.346542,-1.7386931,0.1868294,9.649478
1409522509758,-1.7088615,0.24839842,10.144233,-1.7149177,0.18462713,9.653774
1409522509784,-1.6705543,0.18076223,9.935339,-1.6996207,0.1877755,9.656419
1409522509785,-1.6986861,0.14844051,9.853935,-1.6915159,0.19342518,9.65773
1409522509792,-1.7585411,0.12808979,9.849746,-1.6863949,0.20301291,9.658429
1409522509816,-1.8890251,0.1412579,9.892242,-1.6811059,0.21313469,9.659133
1409522509817,-1.9818004,0.19752164,9.986814,-1.6736945,0.22040267,9.660256
1409522509817,-2.0189106,0.30107087,10.01734,-1.6643037,0.22424436,9.661791
1409522509842,-2.0679917,0.29807812,10.008362,-1.6537045,0.22672644,9.663552
1409522509842,-2.156577,0.2825158,9.923966,-1.6432163,0.2292424,9.665282
1409522509860,-2.1769278,0.27952304,9.763555,-1.6352484,0.2337983,9.666525
1409522509861,-2.1152773,0.28670564,9.595961,-1.6288226,0.23994091,9.667459
1409522509869,-2.0578163,0.30705637,9.51336,-1.6221247,0.24985069,9.668334
1409522509893,-1.9925743,0.34835634,9.396643,-1.6143706,0.26326007,9.669275
1409522509894,-1.9548657,0.43275195,9.282919,-1.6047863,0.27934644,9.67042
1409522509912,-1.9422961,0.52073884,9.285912,-1.5935407,0.29682684,9.671759
1409522509912,-1.9267339,0.59615624,9.279925,-1.5826087,0.31403908,9.67301
1409522509917,-1.8710686,0.59735334,9.327211,-1.5730344,0.32928073,9.674065
1409522509945,-1.8561049,0.5482722,9.388264,-1.5651511,0.3397577,9.674981
1409522509946,-1.8956091,0.53091425,9.432556,-1.5598627,0.34694287,9.67558
1409522509949,-1.9434932,0.51595044,9.3738985,-1.5561931,0.34903213,9.676095
1409522509957,-1.905186,0.55365914,9.365519,-1.5547879,0.34860188,9.676337
1409522509976,-1.9273324,0.57760113,9.386468,-1.5548155,0.34789634,9.676358
1409522509977,-1.9877859,0.5590461,9.409811,-1.5571566,0.34676945,9.676023
1409522509989,-1.9656396,0.52732295,9.499594,-1.5618503,0.3441755,9.675358
1409522510012,-1.881244,0.50158525,9.636064,-1.5680319,0.33904457,9.67454
1409522510012,-1.7908629,0.45489833,9.785701,-1.5745728,0.33234453,9.67371
1409522510018,-1.6783354,0.39923313,9.90601,-1.5799023,0.3221042,9.673187
1409522510046,-1.5837644,0.3405752,9.98442,-1.5829848,0.30880758,9.673116
1409522510047,-1.5161282,0.350152,10.094553,-1.5842342,0.29532465,9.673333
1409522510049,-1.4921862,0.38726214,10.18254,-1.5832195,0.28491598,9.673812
1409522510057,-1.4676456,0.46327803,10.251971,-1.5794498,0.27873597,9.674608
1409522510086,-1.4975731,0.5231331,10.333375,-1.5738472,0.2771132,9.675567
1409522510086,-1.6071079,0.5279215,10.352529,-1.5702417,0.27975473,9.676077
1409522510091,-1.7465701,0.54288524,10.439318,-1.5726379,0.28482452,9.67554
1409522510109,-1.7375919,0.56802434,10.547057,-1.579053,0.29586998,9.674164
1409522510128,-1.6681601,0.55126494,10.405201,-1.5889676,0.31279373,9.672008
1409522510129,-1.6226702,0.46866497,10.086173,-1.5993103,0.3351807,9.669553
1409522510129,-1.5688007,0.4201824,9.770737,-1.6089462,0.36220706,9.666979
1409522510137,-1.4688427,0.45908818,9.585785,-1.6148719,0.39324307,9.664778
1409522510162,-1.4969746,0.5105635,9.506178,-1.6119899,0.4253443,9.6639
1409522510162,-1.5370775,0.52373165,9.555259,-1.6004469,0.45637828,9.664403
1409522510169,-1.5682021,0.48841715,9.669582,-1.5863768,0.48186755,9.665485
1409522510187,-1.3922282,0.45250413,9.640253,-1.5715897,0.5007313,9.666942
1409522510189,-1.2677298,0.40581718,9.534908,-1.5590506,0.51644814,9.668145
1409522510212,-1.210269,0.38606504,9.41879,-1.5497047,0.53275037,9.668763
1409522510213,-1.2593501,0.39983168,9.393052,-1.54284,0.5503512,9.668876
1409522510218,-1.3174095,0.37110126,9.49301,-1.5373178,0.5672407,9.668778
1409522510246,-1.3281834,0.33638534,9.5732155,-1.5318981,0.58054495,9.668849
1409522510247,-1.2856863,0.32202014,9.610924,-1.5263478,0.5908106,9.669106
1409522510249,-1.2413936,0.3250129,9.679159,-1.5201287,0.5949007,9.669834
1409522510258,-1.1420342,0.36631286,9.734824,-1.5113391,0.5949826,9.671206
1409522510282,-1.033098,0.41599256,9.791686,-1.4987506,0.59394425,9.673229
1409522510283,-0.9672575,0.46327803,9.720459,-1.4820263,0.5929483,9.675866
1409522510289,-0.94211835,0.5129577,9.68694,-1.4621687,0.59297395,9.678886
1409522510312,-0.96067345,0.58418524,9.66659,-1.4402841,0.59501433,9.682041
1409522510313,-1.0474633,0.62847793,9.677363,-1.4188172,0.59827256,9.68501
1409522510318,-1.2084733,0.6721721,9.67856,-1.3997767,0.6038634,9.687433
1409522510343,-1.3437457,0.6751649,9.649231,-1.3837281,0.6105751,9.689318
1409522510344,-1.4095862,0.6979098,9.655815,-1.3733636,0.6175599,9.690351
1409522510350,-1.4000094,0.7182605,9.642648,-1.3688997,0.6257708,9.6904545
1409522510358,-1.401805,0.7062895,9.665991,-1.3682008,0.6347917,9.689967
1409522510383,-1.4389153,0.6548142,9.713875,-1.3692999,0.6422177,9.689322
1409522510384,-1.5047557,0.6434417,9.763555,-1.3716391,0.64625525,9.688723
1409522510391,-1.5622166,0.6697779,9.895834,-1.3745084,0.64861715,9.688158
1409522510411,-1.614889,0.7009025,10.108319,-1.3773892,0.6482279,9.687775
1409522510412,-1.6352397,0.7080852,10.295067,-1.3790948,0.6450568,9.687744
1409522510418,-1.6041151,0.6697779,10.378864,-1.3796662,0.6393833,9.688039
1409522510447,-1.5957354,0.62608373,10.375872,-1.3809447,0.6327561,9.688292
1409522510447,-1.5304934,0.62847793,10.240001,-1.3843613,0.62811476,9.688107
1409522510452,-1.4550761,0.670975,10.02572,-1.387843,0.628029,9.6876135
1409522510458,-1.4879963,0.7015011,9.763555,-1.3887829,0.633404,9.687129
1409522510480,-1.5454572,0.682946,9.676167,-1.3880814,0.6411305,9.686721
1409522510481,-1.5825673,0.712275,9.625888,-1.387213,0.65087926,9.686195
1409522510490,-1.5263035,0.7469909,9.48463,-1.3846474,0.660768,9.685893
1409522510507,-1.3820529,0.78888947,9.284714,-1.3795416,0.67041135,9.685959
1409522510534,-1.1839328,0.85293436,9.039309,-1.3727012,0.6813831,9.686165
1409522510535,-1.0007763,0.919972,8.7849245,-1.3630209,0.69451994,9.6866
1409522510535,-0.82121116,0.98820674,8.592192,-1.3472382,0.7084725,9.687797
1409522510538,-0.78649527,1.0576386,8.632893,-1.3235453,0.7222341,9.690046
1409522510563,-0.76554596,1.091756,8.761581,-1.2967724,0.7326972,9.69288
1409522510563,-0.7577648,1.0977415,8.920197,-1.2665038,0.7371906,9.696541
1409522510571,-0.81043726,1.079785,9.15842,-1.2360592,0.7352215,9.700619
1409522510586,-0.7152678,1.0630256,9.415198,-1.2100939,0.7285306,9.704396
1409522510590,-0.5674258,1.0067618,9.583391,-1.190309,0.7198975,9.707486
1409522510610,-0.4794389,0.8996213,9.680955,-1.1748698,0.71041375,9.710066
1409522510610,-0.4177882,0.81163436,9.737817,-1.1624889,0.7009008,9.712247
1409522510618,-0.37948096,0.7284359,9.755774,-1.1504467,0.69123316,9.714374
1409522510646,-0.39025488,0.688333,9.714474,-1.1372546,0.68122053,9.716635
1409522510647,-0.41599256,0.65182143,9.703699,-1.1210275,0.66996217,9.719302
1409522510650,-0.54647654,0.60932434,9.773131,-1.1036303,0.6562829,9.722226
1409522510681,-0.7254431,0.52732295,9.972448,-1.0879316,0.6392624,9.725129
1409522510681,-0.9271546,0.4950012,10.268132,-1.0749137,0.61839724,9.727925
1409522510682,-1.0845734,0.47405192,10.593145,-1.067077,0.59450024,9.730278
1409522510711,-1.1881226,0.4333505,10.940904,-1.0678214,0.5697356,9.731678
1409522510712,-1.282095,0.37708676,11.290457,-1.0737196,0.5446901,9.732463
1409522510712,-1.3245921,0.31244332,11.358093,-1.0882105,0.5222261,9.732084
1409522510718,-1.3192052,0.260968,11.215638,-1.108725,0.50527203,9.730663
1409522510753,-1.4413095,0.2813187,10.555437,-1.1326905,0.4969424,9.7283325
1409522510754,-1.560421,0.51355624,10.219051,-1.1576504,0.49909392,9.725284
1409522510754,-1.7064673,0.6805518,9.93474,-1.1766037,0.5108311,9.722399
1409522510786,-1.79206,0.80086046,9.654019,-1.1872817,0.5267646,9.72025
1409522510787,-1.7908629,0.87567925,9.368511,-1.1924422,0.54348165,9.7186985
1409522510788,-1.7381904,0.943914,9.173384,-1.1962652,0.5588658,9.717356
1409522510790,-1.6651673,1.0097545,9.058462,-1.1999345,0.5723056,9.716121
1409522510812,-1.6160861,1.033098,8.939949,-1.2065896,0.584128,9.714593
1409522510813,-1.5777789,1.0085574,8.743625,-1.2172738,0.5940665,9.712658
1409522510818,-1.5562311,0.9780314,8.499416,-1.2319349,0.60263383,9.710281
1409522510843,-1.513734,1.0067618,8.334815,-1.2499155,0.6108921,9.707467
1409522510843,-1.3599066,1.074398,8.291121,-1.2684127,0.6202099,9.704475
1409522510850,-1.1270704,1.134253,8.345589,-1.2829821,0.63118035,9.701853
1409522510881,-0.9247604,1.1150994,8.484452,-1.2929833,0.64195806,9.699819
1409522510882,-0.80924016,1.0510546,8.690952,-1.295356,0.6481785,9.699088
1409522510882,-0.7080852,0.9540894,8.9040365,-1.2937614,0.64724404,9.699363
1409522510890,-0.6572084,0.8367735,9.167398,-1.2941273,0.63874143,9.699878
1409522510917,-0.55246204,0.81402856,9.462483,-1.3002472,0.623936,9.700024
1409522510918,-0.5021838,0.6895301,9.60853,-1.3118304,0.606671,9.699559
1409522510919,-0.60812724,0.5177461,9.685743,-1.3266798,0.58853966,9.698656
1409522510948,-0.6087258,0.5129577,9.755774,-1.3432977,0.57090586,9.697423
1409522510949,-0.5410896,0.5303157,9.807249,-1.3616916,0.5561265,9.695716
1409522510950,-0.581791,0.492607,9.838373,-1.3794264,0.5446499,9.69386
1409522510973,-0.57999533,0.4794389,9.834782,-1.3947582,0.5361363,9.692142
1409522510973,-0.54647654,0.46806642,9.689933,-1.4047958,0.5307809,9.690986
1409522510986,-0.57879823,0.45549688,9.566631,-1.4112487,0.5274468,9.69023
1409522511002,-0.75237787,0.47345337,9.388862,-1.4184366,0.5266996,9.689221
1409522511002,-1.0205284,0.54647654,9.174581,-1.4301903,0.5277702,9.687435
1409522511016,-1.489792,0.6476316,9.096769,-1.4466739,0.532316,9.684738
1409522511018,-1.9015948,0.7080852,9.085397,-1.4732832,0.5388941,9.680363
1409522511039,-1.9482816,0.79248077,9.074024,-1.5111111,0.54478925,9.674199
1409522511040,-2.0081367,0.80086046,8.878299,-1.5552722,0.5482811,9.667
1409522511058,-2.1164744,0.83497787,8.696339,-1.5987753,0.5481315,9.659909
1409522511059,-2.0811598,0.88765025,8.476072,-1.6376786,0.54540074,9.653545
1409522511070,-1.934515,0.9127894,8.432379,-1.6756153,0.5426174,9.64719
1409522511096,-1.8992004,0.90740246,8.426991,-1.7143723,0.5406654,9.640488
1409522511097,-1.9554642,0.90979666,8.583812,-1.7603194,0.54031956,9.632223
1409522511099,-1.7932571,0.8403648,9.287108,-1.8158547,0.5411247,9.621863
1409522511132,-1.5831659,0.8331822,10.028712,-1.8797268,0.54132026,9.609578
1409522511133,-1.3820529,0.7392098,10.517728,-1.9509076,0.5421169,9.595336
1409522511133,-1.5921441,0.4141969,10.98759,-2.02927,0.54632264,9.57883
1409522511138,-1.9608512,0.011971008,10.850522,-2.1291664,0.5577761,9.556459
1409522511161,-2.3906105,-0.7517793,10.075998,-2.2644198,0.5746024,9.524318
1409522511161,-2.3642743,-0.6440403,9.69113,-2.4199166,0.6095087,9.483823
1409522511172,-1.951873,0.39504328,9.259575,-2.5974362,0.672144,9.432493
1409522511200,-2.0009542,1.1827357,8.856153,-2.774741,0.7595998,9.375191
1409522511200,-2.5504234,1.2419921,8.793902,-2.9421468,0.85191673,9.31603
1409522511201,-3.544017,0.97743285,8.998607,-3.1107972,0.93122697,9.253439
1409522511223,-4.431069,0.90859956,8.782531,-3.2874877,0.991652,9.185828
1409522511224,-5.083489,0.94570965,9.431359,-3.4684527,1.0467714,9.112875
1409522511232,-5.109226,1.067814,9.521142,-3.6503608,1.1038215,9.034757
1409522511238,-5.2301335,1.0893618,9.233837,-3.8340142,1.1764787,8.949113
1409522511263,-5.422867,1.3215994,9.061455,-4.022224,1.2677671,8.853523
1409522511264,-5.8520274,1.7250223,8.823232,-4.217196,1.374687,8.746192
1409522511270,-6.3129115,2.0691888,8.281544,-4.4163437,1.4921817,8.627844
1409522511294,-10.81461,2.4091654,9.561843,-4.6145554,1.6192741,8.500248
1409522511294,-6.4577603,3.4967315,9.733627,-4.845902,1.7511297,8.34393
1409522511299,-8.505402,4.012682,7.5405383,-5.0162735,1.901868,8.209159
1409522511325,-5.799355,4.0282445,7.20116,-5.1808367,2.0805688,8.062292
1409522511325,-3.1681273,4.653131,6.7749925,-5.2335987,2.274053,7.9754944
1409522511330,-2.4744074,4.10845,6.9767036,-5.2297397,2.4714813,7.919091
1409522511338,-3.4201171,2.8245595,6.8306575,-5.2241187,2.647787,7.8656335
1409522511362,-4.6058455,2.111686,5.616797,-5.193211,2.750116,7.850975
1409522511363,-5.717354,2.2529438,3.1878796,-5.148857,2.7702894,7.873065
1409522511370,-6.491279,2.6018987,-0.15801731,-5.1253037,2.7636383,7.890751
1409522511397,-6.870162,1.8339585,3.472191,-5.1799946,2.73494,7.8649945
1409522511398,-6.1261635,1.3138182,7.144298,-5.271334,2.6703098,7.8264213
1409522511399,-5.12838,0.58538234,8.409634,-5.4154463,2.5258813,7.7758117
1409522511427,-4.947618,-0.5919664,9.855731,-5.530631,2.2689245,7.7739625
1409522511428,-5.9747305,-1.6106992,8.820838,-5.5895834,1.9128095,7.827394
1409522511430,-7.1131735,-2.9149406,9.15423,-5.669356,1.5132635,7.8574057
1409522511439,-6.889914,-3.4733882,11.720815,-5.7805066,1.1073948,7.844094
1409522511462,-5.8562174,-2.7551277,12.882601,-5.8675976,0.7095449,7.8254857
1409522511462,-4.5447936,-1.5161282,12.768876,-5.9127746,0.38090155,7.8143716
1409522511472,-3.627814,-0.78410107,11.837532,-5.8734746,0.14263085,7.8519
1409522511500,-3.942053,-0.7954735,10.4488945,-5.7937536,-0.016097976,7.912177
1409522511500,-5.392939,-0.9283517,8.121132,-5.7492986,-0.11229175,7.943762
1409522511501,-6.891111,-0.338181,4.9320555,-5.7750807,-0.1546787,7.924324
1409522511524,-7.043143,0.2705448,7.0593038,-5.856834,-0.14622162,7.8642554
1409522511525,-5.2020016,1.1821371,10.176555,-5.939155,-0.10943878,7.8028746
1409522511532,-4.0707417,1.8728642,9.136273,-5.946749,-0.067131355,7.7975674
1409522511562,-4.993706,1.2162545,8.424597,-5.9056106,-0.049182806,7.828904
1409522511563,-6.1955953,0.15203181,8.971672,-5.7928433,-0.06259491,7.912613
1409522511563,-6.645107,-0.58418524,8.941146,-5.705074,-0.07800902,7.9759912
1409522511571,-6.355408,-1.0253168,9.531916,-5.663012,-0.053292833,8.006113
1409522511597,-5.6521115,-0.9056068,10.453683,-5.609848,0.020735696,8.043604
1409522511598,-5.1840453,-0.7188591,11.172543,-5.5292506,0.14767441,8.097899
1409522511600,-4.899135,-0.4261679,11.218631,-5.4068894,0.30184555,8.175869
1409522511631,-4.4280763,0.2801216,9.874885,-5.257016,0.49979153,8.263436
1409522511632,-3.46022,0.997185,8.234857,-5.0738125,0.71791446,8.361304
1409522511632,-2.7281928,1.7663223,7.1766195,-4.88922,0.9307779,8.449826
1409522511663,-2.4702177,2.086547,5.9902925,-4.741105,1.1260086,8.510254
1409522511664,-2.2511482,1.5903485,4.4544125,-4.6451554,1.2866707,8.540339
1409522511665,-1.6561891,0.80924016,3.342904,-4.588318,1.3960202,8.55388
1409522511671,-0.91817635,-0.018555064,2.7898436,-4.565385,1.4433371,8.558295
1409522511695,-0.62009823,-0.55246204,2.3786395,-4.5737066,1.4562759,8.551658
1409522511695,-0.9780314,-0.842759,2.8161798,-4.598321,1.3997775,8.547892
1409522511699,-1.5646108,-1.1833342,3.5984852,-4.636976,1.272324,8.546932
1409522511725,-2.7132292,-2.271499,4.8668137,-4.6756506,1.078265,8.552545
1409522511726,-4.0396166,-4.2916064,5.7909756,-4.6985292,0.8242932,8.568241
1409522511730,-4.691438,-5.657499,6.724714,-4.6950297,0.5182396,8.594097
1409522511758,-4.742315,-6.271611,7.285556,-4.661782,0.17830321,8.625914
1409522511759,-4.3658266,-6.3949127,8.085817,-4.606796,-0.1704943,8.655562
1409522511760,-4.4143095,-5.5461683,9.146449,-4.5398445,-0.5055205,8.677826
1409522511793,-4.914099,-4.1180267,8.9040365,-4.456943,-0.7903417,8.699506
1409522511793,-4.7279496,-2.9059622,8.037335,-4.3591137,-1.0075707,8.726587
1409522511794,-3.709217,-1.8249803,7.8062944,-4.2541075,-1.1753173,8.757374
1409522511801,-2.7724855,-1.2802993,8.640674,-4.1729217,-1.3338201,8.773713
1409522511829,-2.4600422,-1.5047557,9.566631,-4.134611,-1.5180833,8.761895
1409522511830,-2.4187422,-2.0979192,9.767146,-4.127557,-1.7407027,8.72374
1409522511833,-2.6755204,-2.813187,11.168951,-4.137493,-1.9804823,8.667712
1409522511866,-4.6603136,-4.6680946,11.924321,-4.1409917,-2.2405624,8.6024685
1409522511867,-6.015432,-4.731541,12.145785,-4.1498194,-2.5135684,8.522403
1409522511867,-7.0221934,-4.343082,11.680712,-4.1396832,-2.767084,8.448471
1409522511872,-7.387908,-4.027047,11.036073,-4.1050153,-2.9846864,8.391119
1409522511891,-7.306505,-3.891775,10.143036,-4.0623026,-3.1616921,8.346963
1409522511893,-6.045359,-4.2491093,9.111135,-4.023858,-3.3010921,8.311543
1409522511901,-4.1491513,-4.8279076,8.144476,-3.981614,-3.4304469,8.279443
1409522511926,-2.6426,-4.6686935,6.6947865,-3.9327686,-3.5560467,8.2497425
1409522511927,-2.0087352,-3.9606082,5.29358,-3.9036863,-3.691198,8.204065
1409522511931,-2.4642322,-3.7900212,4.473566,-3.9134212,-3.8478148,8.127106
1409522511964,-3.8618474,-4.3358994,4.381389,-3.966468,-4.0444164,8.005012
1409522511964,-5.5790887,-5.6670756,4.80636,-4.056253,-4.297087,7.8263807
1409522511964,-7.4896617,-7.361572,5.16968,-4.1661124,-4.6172705,7.582526
1409522511971,-9.408015,-8.506598,5.3223104,-4.2822256,-4.9992266,7.269159
1409522511987,-10.749966,-9.01417,5.4126916,-4.410488,-5.398884,6.8971043
1409522512002,-11.1899,-9.051878,5.8023477,-4.528258,-5.8152447,6.469018
1409522512003,-10.952874,-9.123106,6.770204,-4.644998,-6.2202406,5.9919105
1409522512020,-10.16578,-9.117719,7.965509,-4.7615814,-6.587245,5.486887
1409522512020,-9.393052,-9.484032,8.900445,-4.875694,-6.898322,4.9810796
1409522512036,-8.646061,-9.653421,8.815451,-4.985201,-7.143183,4.5047874
1409522512051,-7.9224133,-8.470686,7.641693,-5.0960975,-7.3267927,4.0642686
1409522512051,-7.626131,-7.0952168,6.616975,-5.223295,-7.456168,3.6459746
1409522512067,-7.60578,-6.3338604,5.9621606,-5.3650055,-7.5537624,3.2136855
1409522512085,-7.6201453,-6.375759,5.662287,-5.5100713,-7.617571,2.789644
1409522512085,-7.627927,-7.0485296,5.434838,-5.643753,-7.6648192,2.3598723
1409522512100,-7.8876977,-7.8954787,5.3594203,-5.7515883,-7.7024574,1.9395233
1409522512101,-8.418014,-8.579621,5.369596,-5.834444,-7.7292056,1.5456451
1409522512117,-8.749012,-8.813655,5.4258595,-5.9010034,-7.740276,1.1986228
1409522512119,-8.823232,-8.429385,4.9464207,-5.963895,-7.730891,0.91414267
1409522512134,-8.622718,-7.949947,4.238934,-6.0260315,-7.7070546,0.6772338
1409522512150,-8.574235,-7.7506294,3.4314895,-6.1032643,-7.661021,0.47889104
1409522512151,-8.385692,-7.9750857,2.5821466,-6.1950507,-7.5952287,0.32286212
1409522512164,-8.294113,-8.021174,1.6226702,-6.296272,-7.515879,0.19728155
1409522512180,-8.383896,-7.744644,0.79367787,-6.4056473,-7.424859,0.09760653
1409522512181,-8.599374,-7.1664443,0.338181,-6.5225835,-7.3229733,0.01934826
1409522512198,-8.6334915,-6.7109475,0.093373865,-6.6446633,-7.2123,-0.04011106
1409522512201,-8.544308,-6.7510505,0.010773907,-6.771329,-7.0931253,-0.084090486
1409522512225,-8.321048,-6.870162,0.007182605,-6.898463,-6.969086,-0.11592969
1409522512225,-8.456919,-7.176021,0.26515785,-7.033438,-6.832102,-0.15343904
1409522512231,-8.51857,-7.8487916,0.75477207,-7.1774006,-6.679692,-0.19252515
1409522512256,-8.038532,-8.219295,1.1563994,-7.3251576,-6.516395,-0.22152095
1409522512257,-6.8851256,-7.9972324,1.400608,-7.473493,-6.345541,-0.22672436
1409522512260,-5.2720323,-7.1448965,1.8058267,-7.6244044,-6.1641264,-0.205892
1409522512304,-4.0815153,-6.083068,1.7585411,-7.776119,-5.9729247,-0.16292378
1409522512305,-3.6176388,-5.17387,1.18094,-7.9244943,-5.775768,-0.11519875
1409522512306,-3.5458126,-4.631583,0.62249243,-8.061204,-5.584272,-0.05731471
1409522512306,-3.5847185,-5.0014873,0.23104046,-8.175466,-5.4159145,0.0012602293
1409522512313,-4.1677065,-6.0082493,-0.40761283,-8.260115,-5.2856703,0.05086802
1409522512320,-5.4737434,-6.521207,-1.2144588,-8.313027,-5.20171,0.07880349
1409522512344,-6.5349736,-6.743868,-2.0691888,-8.33818,-5.1614194,0.06988778
1409522512344,-6.657676,-6.9527617,-2.7856536,-8.343474,-5.1533027,0.017108371
1409522512352,-6.389526,-7.067683,-2.7934349,-8.336493,-5.164077,-0.07474749
1409522512378,-6.2345014,-7.0365586,-2.4115596,-8.32466,-5.1804214,-0.18352
1409522512379,-6.3105173,-6.9599442,-1.6418238,-8.307091,-5.202866,-0.30464345
1409522512380,-6.571485,-7.076063,-0.97862995,-8.286225,-5.2276416,-0.42500177
1409522512406,-6.5349736,-6.76362,-0.8984242,-8.264756,-5.25181,-0.53168285
1409522512407,-6.3584013,-6.646304,-0.7062895,-8.247943,-5.2683315,-0.6216823
1409522512411,-6.481104,-6.6283474,-0.32142156,-8.237202,-5.2761683,-0.69350076
1409522512419,-6.927623,-6.506243,0.12689269,-8.232034,-5.277353,-0.7440122
1409522512434,-7.319673,-6.187216,0.6374562,-8.231467,-5.2743535,-0.77106386
1409522512453,-7.6081743,-5.7646394,1.1001357,-8.233614,-5.2699823,-0.77797645
1409522512453,-7.563283,-5.357026,1.1312603,-8.23761,-5.2669716,-0.7557775
1409522512477,-7.3388267,-5.257667,0.58657944,-8.241709,-5.2661567,-0.71570325
1409522512477,-7.2807674,-5.5030727,-0.22685061,-8.243446,-5.269084,-0.6728455
1409522512480,-7.137714,-5.9106855,-0.7248446,-8.239732,-5.2792897,-0.6374375
1409522512505,-6.503849,-6.1650696,-1.5310919,-8.225181,-5.3044314,-0.6162731
1409522512506,-6.0884547,-7.077859,-0.5710171,-8.1972885,-5.346878,-0.6210902
1409522512511,-7.631518,-7.439383,-0.44771573,-8.160035,-5.401156,-0.6416788
1409522512533,-8.443152,-7.491457,-1.021127,-8.115494,-5.463483,-0.677887
1409522512534,-8.492233,-7.3148847,-2.5342624,-8.062882,-5.533248,-0.7372171
1409522512549,-7.669825,-6.555923,-1.7483658,-8.010379,-5.598733,-0.8114333
1409522512574,-7.69257,-6.585252,-0.54168814,-7.973032,-5.643909,-0.86453944
1409522512575,-7.9750857,-6.935404,0.47046062,-7.9537425,-5.668213,-0.8830232
1409522512575,-8.470087,-7.195773,0.8499416,-7.946681,-5.681458,-0.86120653
1409522512580,-8.581417,-7.1466923,0.8391677,-7.945984,-5.6895933,-0.81256145
1409522512605,-8.6496525,-6.928221,0.13227965,-7.9472675,-5.6950684,-0.7599597
1409522512606,-8.651448,-6.704962,-0.7170634,-7.950944,-5.696138,-0.7119638
1409522512613,-8.376115,-6.5469446,-1.2324153,-7.9540777,-5.6960053,-0.67716247
1409522512634,-7.140108,-6.075287,-1.4263457,-7.9547963,-5.6969037,-0.6609978
1409522512635,-6.0184245,-5.651513,-1.5400703,-7.9539766,-5.697704,-0.6639336
1409522512654,-6.619369,-5.599439,-1.5065514,-7.9531665,-5.696922,-0.68017656
1409522512655,-7.550115,-5.9280434,-0.97862995,-7.9492626,-5.699568,-0.70322484
1409522512660,-7.671621,-5.927445,-0.9876082,-7.942066,-5.706942,-0.7244091
1409522512682,-7.5950065,-6.007052,-0.44113165,-7.9287157,-5.7222357,-0.7495827
1409522512683,-7.8128786,-5.811326,-0.12928689,-7.917054,-5.7356052,-0.77039224
1409522512702,-7.7147164,-5.2319293,-0.66498953,-7.912512,-5.7401567,-0.7830308
1409522512703,-7.8290396,-5.142745,-1.1300632,-7.914321,-5.736813,-0.78923315
1409522512720,-7.827244,-5.4300494,-1.8381484,-7.919785,-5.7290597,-0.7907588
1409522512721,-7.797915,-5.6215854,-1.5286977,-7.924598,-5.7215796,-0.79664606
1409522512733,-8.031349,-5.9011087,-0.10654198,-7.929085,-5.714411,-0.80345047
1409522512759,-8.176199,-5.893926,0.3274071,-7.9342036,-5.707967,-0.7987153
1409522512760,-8.118139,-5.303157,0.9091981,-7.940169,-5.7001996,-0.79488605
1409522512761,-8.388085,-5.213374,-0.13826515,-7.9502974,-5.6877604,-0.78265905
1409522512786,-8.661623,-5.131373,-1.3467385,-7.9618106,-5.6729417,-0.77311903
1409522512786,-8.558074,-4.9296613,-1.5711949,-7.965745,-5.6683755,-0.7660481
1409522512793,-8.37372,-4.732738,-1.0313023,-7.9596906,-5.675952,-0.772849
1409522512800,-8.381501,-4.3861775,-0.2645593,-7.953787,-5.6816173,-0.7917706
1409522512815,-8.582016,-4.171298,0.51834464,-7.953423,-5.6818767,-0.79357326
1409522512833,-8.913613,-4.673482,1.0169371,-7.9601326,-5.674465,-0.77918696
1409522512834,-9.249998,-5.4713492,0.8331822,-7.967123,-5.671149,-0.730335
1409522512848,-9.449316,-5.8508306,0.36750996,-7.9675817,-5.6793065,-0.6584335
1409522512865,-9.484032,-5.7562594,-0.130484,-7.9639964,-5.6921024,-0.58750176
1409522512865,-9.188946,-5.6880245,-0.760159,-7.9625077,-5.699244,-0.5361761
1409522512882,-8.45213,-5.6389437,-1.436521,-7.963661,-5.7004094,-0.50580144
1409522512882,-7.513005,-5.535394,-1.8836381,-7.9655094,-5.699505,-0.48651102
1409522512896,-6.8863225,-5.475539,-1.9548657,-7.9658914,-5.700282,-0.47093233
1409522512903,-6.619369,-5.446809,-2.0231004,-7.9637647,-5.7048073,-0.45167878
1409522512920,-6.251859,-5.4725466,-1.7465701,-7.9554315,-5.7182107,-0.42845398
1409522512920,-5.781399,-5.7879825,-1.0546459,-7.937168,-5.745317,-0.4038877
1409522512931,-5.5617304,-6.4619503,-0.093972415,-7.905379,-5.7905345,-0.38096187
1409522512948,-5.436035,-5.9729347,0.6925228,-7.8594236,-5.854429,-0.35429803
1409522512974,-5.0763063,-6.1207767,0.908001,-7.8099604,-5.9220614,-0.32266602
1409522512975,-4.4155064,-6.3566055,0.7469909,-7.757083,-5.992524,-0.2961419
1409522512976,-4.365228,-6.6175733,0.076614454,-7.7000866,-6.0668416,-0.26928398
1409522512981,-4.696825,-6.5828576,0.061650693,-7.634631,-6.1501055,-0.24287966
1409522513007,-5.269638,-5.7586536,0.142455,-7.554672,-6.2493386,-0.20754561
1409522513007,-5.551555,-5.2822075,0.7015011,-7.4581676,-6.365136,-0.1765883
1409522513012,-5.342661,-5.577293,0.25498247,-7.3467493,-6.4937577,-0.1636052
1409522513036,-4.821324,-6.661866,0.039504327,-7.2208014,-6.633475,-0.16559856
1409522513037,-5.199009,-7.8745294,0.01436521,-7.080401,-6.783198,-0.16293044
1409522513040,-5.8029466,-8.303091,-0.025139118,-6.929733,-6.9373055,-0.15173882
1409522513052,-5.807735,-8.016386,0.08738836,-6.769655,-7.0937777,-0.14312157
1409522513072,-5.3845596,-7.301118,-0.5638345,-6.6035256,-7.248848,-0.13436884
1409522513072,-4.748899,-6.8773446,-1.2437878,-6.442868,-7.392225,-0.1219263
1409522513080,-4.84766,-7.4627266,-1.5304934,-6.2911763,-7.5218,-0.11827863
1409522513106,-5.8119245,-9.7240505,0.28550854,-6.144085,-7.642523,-0.111627206
1409522513106,-6.6415157,-12.049418,2.4522612,-5.9835186,-7.768869,-0.112193644
1409522513112,-6.9240313,-13.119028,1.6873137,-5.8040113,-7.904117,-0.09385913
1409522513134,-6.463746,-12.991537,0.56922144,-5.6230564,-8.034146,-0.06435812
1409522513135,-5.3157263,-12.115858,0.41838676,-5.4685903,-8.140251,-0.035043474
1409522513154,-4.51726,-10.812814,-0.109534726,-5.347326,-8.220469,0.019129813
1409522513154,-4.272453,-9.147646,-0.415394,-5.251945,-8.28124,0.0923791
1409522513160,-4.529231,-7.8116817,-0.31783026,-5.1721196,-8.329625,0.19212683
1409522513186,-3.5302503,-6.959346,-0.480636,-5.106431,-8.366392,0.31340823
1409522513187,-1.5819688,-6.5906386,-0.3866636,-5.0508995,-8.393776,0.45089683
1409522513192,-0.90859956,-6.3685765,-0.374094,-4.991661,-8.419674,0.60231155
1409522513235,-1.287482,-6.3248825,1.508347,-4.929223,-8.445353,0.7410643
1409522513236,-2.678513,-7.9691005,3.1842883,-4.842746,-8.483289,0.86719346
1409522513237,-4.7279496,-10.144233,4.606444,-4.710622,-8.5450325,0.9812509
1409522513238,-6.5337763,-11.389816,4.8285065,-4.5334435,-8.627694,1.0868243
1409522513241,-7.0850415,-11.378444,4.741118,-4.3441253,-8.7142935,1.1662109
1409522513288,-6.9012866,-11.248558,3.7936125,-4.1759696,-8.789316,1.2163908
1409522513289,-5.8723783,-10.919355,3.004723,-4.046856,-8.844985,1.2488364
1409522513289,-4.1018662,-9.777321,1.6394296,-3.9374967,-8.891276,1.2695286
1409522513290,-2.5366566,-8.459911,0.22984336,-3.8643184,-8.916331,1.3177528
1409522513292,-1.8722657,-7.536947,-0.83138657,-3.8375626,-8.918441,1.3801814
1409522513301,-1.8986019,-7.5944076,-0.5243302,-3.8475668,-8.905616,1.434096
1409522513322,-2.2816741,-7.821857,0.018555064,-3.8684204,-8.891306,1.4664237
1409522513323,-2.9388826,-8.639477,0.2112883,-3.8774703,-8.88436,1.4845146
1409522513334,-3.6876693,-9.744401,0.46447513,-3.8571706,-8.890111,1.5028502
1409522513356,-4.369418,-11.11149,0.9947908,-3.817775,-8.90273,1.5285271
1409522513357,-4.705205,-12.031462,1.1815386,-3.7452188,-8.928787,1.5557932
1409522513360,-4.5005007,-12.552201,1.2916719,-3.6517234,-8.961131,1.5916841
1409522513389,-3.5003228,-11.892598,0.39504328,-3.559062,-8.991012,1.6325313
1409522513390,-2.5683799,-10.67814,0.051475335,-3.486616,-9.014908,1.6569071
1409522513394,-2.203264,-9.710882,0.12150574,-3.4438348,-9.030889,1.6593485
1409522513402,-2.0386627,-8.775348,0.16998832,-3.4198601,-9.04291,1.6433959
1409522513433,-1.929128,-8.049306,0.37588966,-3.403976,-9.052303,1.6245399
1409522513433,-2.043451,-7.8505874,0.8230068,-3.38855,-9.059601,1.6160905
1409522513434,-2.6473885,-8.173804,1.1252748,-3.3799307,-9.065172,1.6028546
1409522513461,-3.518878,-8.385093,1.4263457,-3.3665013,-9.072582,1.5891216
1409522513461,-4.3161473,-8.265383,1.894412,-3.347303,-9.082549,1.5726599
1409522513461,-4.730344,-7.8326306,2.0099323,-3.3332589,-9.091853,1.5485473
1409522513480,-4.734534,-7.361572,1.7525556,-3.3361437,-9.096935,1.5120493
1409522513481,-4.655525,-7.6285253,1.6490064,-3.3677218,-9.093871,1.4595807
1409522513494,-5.1439424,-9.313444,1.6992847,-3.4350555,-9.079173,1.3926291
1409522513511,-5.0523643,-9.952697,1.2270284,-3.520144,-9.057366,1.3202592
1409522513514,-4.8069587,-10.300454,-0.8218097,-3.634123,-9.023601,1.2402304
1409522513531,-4.1383777,-10.318411,-2.782661,-3.7844388,-8.974211,1.1454129
1409522513532,-3.2112231,-10.047267,-3.5727475,-3.9773023,-8.903427,1.0394375
1409522513549,-1.8872294,-9.449914,-3.2483332,-4.205009,-8.811675,0.9179782
1409522513562,-1.6771383,-8.759187,-1.5298948,-4.4325404,-8.712708,0.78209233
1409522513562,-1.5131354,-7.2221093,0.14724341,-4.6155252,-8.627776,0.65483344
1409522513584,-0.81761986,-4.9398365,0.17896658,-4.753865,-8.558336,0.5710174
1409522513584,-0.2717419,-3.1789012,-0.4985925,-4.800171,-8.536928,0.49962988
1409522513592,-0.694917,-2.984971,-0.5895722,-4.784221,-8.54671,0.48514923
1409522513615,-2.5001452,-4.823718,-2.0201077,-4.735566,-8.572044,0.51464975
1409522513616,-3.9995139,-7.9367785,-2.2134395,-4.661958,-8.610418,0.54521793
1409522513630,-5.2780175,-11.71842,-2.344522,-4.566492,-8.66113,0.54989237
1409522513646,-5.9603653,-16.908451,-0.12210429,-4.465877,-8.716602,0.49717417
1409522513647,-6.7546415,-19.608511,0.3477578,-4.353999,-8.776532,0.43079206
1409522513665,-7.383718,-19.608511,-0.021547815,-4.2428913,-8.835737,0.31306556
1409522513665,-6.242881,-19.040487,1.3575124,-4.155444,-8.881374,0.15445948
1409522513680,-4.5423994,-12.215217,2.1643584,-4.0390854,-8.9361925,0.02499664
1409522513681,-3.2878375,-7.6488757,0.545878,-3.9219656,-8.987833,-0.08626575
1409522513697,-2.6964695,-7.3100963,-0.6003461,-3.8149834,-9.031967,-0.19969065
1409522513712,-1.9165585,-9.073426,0.41000703,-3.739215,-9.059903,-0.32682595
1409522513713,-1.3856442,-10.598533,1.7417817,-3.6937947,-9.070964,-0.49386334
1409522513730,-1.4454993,-10.778696,3.204639,-3.6544666,-9.074853,-0.6799148
1409522513732,-1.9794062,-10.172963,3.6164417,-3.6345775,-9.065998,-0.8762938
1409522513747,-2.3756466,-9.715072,3.6990416,-3.6160164,-9.054768,-1.0516682
1409522513763,-2.790442,-9.677363,3.74513,-3.582271,-9.052013,-1.1826968
1409522513764,-3.233968,-9.9473095,3.4991257,-3.5366533,-9.058797,-1.2651799
1409522513778,-3.2908301,-10.15381,3.0998926,-3.489798,-9.0716,-1.3029755
1409522513781,-2.906561,-10.093356,2.3983915,-3.4496486,-9.087756,-1.2972945
1409522513793,-2.5474305,-9.897031,1.6998832,-3.421329,-9.104696,-1.25277
1409522513812,-2.3834279,-9.65821,1.049259,-3.3981326,-9.121117,-1.1951102
1409522513814,-2.379238,-9.560047,0.5446809,-3.3838007,-9.137131,-1.1104791
1409522513833,-2.5192988,-9.698313,0.11851298,-3.3692863,-9.154259,-1.0088867
1409522513834,-2.7952304,-9.91798,-0.29987377,-3.3495393,-9.173066,-0.89768124
1409522513841,-3.117849,-9.96347,-0.688333,-3.3251321,-9.192579,-0.7812575
1409522513876,-3.3848026,-10.016143,-0.9367314,-3.2990575,-9.211141,-0.66445744
1409522513877,-3.3997664,-9.978435,-1.0588357,-3.2745051,-9.227453,-0.54966205
1409522513877,-3.3051953,-9.750985,-1.0546459,-3.2521482,-9.241409,-0.43622598
1409522513881,-3.37762,-9.634268,-0.95827925,-3.236383,-9.251351,-0.32966864
1409522513905,-3.551798,-9.681553,-0.97623575,-3.2271872,-9.257513,-0.2325729
1409522513905,-3.7732618,-9.720459,-0.8343793,-3.2196226,-9.261849,-0.15023582
1409522513912,-3.8911762,-9.680356,-0.74639237,-3.212115,-9.265295,-0.08380778
1409522513929,-3.8959646,-9.631873,-0.7062895,-3.2052436,-9.267996,-0.032742325
1409522513945,-3.7846344,-9.807249,-0.6679823,-3.2019083,-9.269204,0.0051488536
1409522513946,-3.651756,-9.770737,-0.7320272,-3.2029264,-9.268793,0.03382287
1409522513966,-3.5757403,-9.31524,-0.6847417,-3.206112,-9.267594,0.054347675
1409522513967,-3.508104,-9.012374,-1.0606314,-3.2142625,-9.264642,0.072927944
1409522513973,-3.5212722,-9.400234,-1.2497733,-3.2219265,-9.261869,0.08578485
1409522513981,-3.4781766,-9.619903,-1.3449428,-3.2265801,-9.260141,0.09664046
1409522514002,-3.2662897,-9.331401,-1.3425486,-3.2296474,-9.258986,0.10467276
1409522514002,-3.2172086,-9.218275,-1.3682863,-3.232418,-9.257959,0.109825104
1409522514013,-3.3315318,-9.528324,-1.3796587,-3.235404,-9.256938,0.107854575
1409522514038,-3.2854433,-9.59177,-1.3838485,-3.2379167,-9.25615,0.0999322
1409522514038,-3.221997,-9.540894,-1.3718776,-3.23888,-9.256026,0.07779603
1409522514042,-3.240552,-9.486425,-1.2336124,-3.2399776,-9.255879,0.040279083
1409522514068,-3.2615013,-9.529521,-1.1587936,-3.2409189,-9.255633,-0.0102503635
1409522514069,-3.2722752,-9.543288,-1.0013748,-3.2397687,-9.255765,-0.071531184
1409522514073,-3.2746694,-9.561843,-0.7757214,-3.236484,-9.256161,-0.13789783
1409522514083,-3.2489316,-9.566033,-0.51116204,-3.2314456,-9.256677,-0.20518583
1409522514100,-3.2638955,-9.563639,-0.35194764,-3.2249582,-9.257258,-0.27060091
1409522514101,-3.3063924,-9.545682,-0.12090719,-3.2188401,-9.25744,-0.3306023
1409522514117,-3.3123782,-9.572019,0.093972415,-3.2132251,-9.257104,-0.38938397
1409522514136,-3.3680432,-9.657013,0.29927522,-3.2082624,-9.256353,-0.44426972
1409522514137,-3.3740287,-9.737218,0.40043023,-3.2045462,-9.25506,-0.49514174
1409522514142,-3.347094,-9.785701,0.46267948,-3.2017424,-9.25334,-0.5431023
1409522514175,-3.301604,-9.80665,0.48243165,-3.200347,-9.251127,-0.5872311
1409522514176,-3.217807,-9.824607,0.54767364,-3.2004755,-9.248449,-0.627338
1409522514176,-3.0969,-9.807847,0.56802434,-3.2014077,-9.245366,-0.6667974
1409522514182,-2.9538465,-9.759365,0.44592008,-3.2017958,-9.242635,-0.7018462
1409522514211,-2.7964275,-9.706693,0.27353755,-3.2029839,-9.239989,-0.73066723
1409522514211,-2.6366146,-9.644443,0.11731588,-3.203844,-9.237679,-0.7557106
1409522514213,-2.508525,-9.648633,-0.04249708,-3.2038531,-9.235941,-0.77661294
1409522514237,-2.4115596,-9.654618,-0.16220717,-3.2025292,-9.234993,-0.79316163
1409522514237,-2.3529017,-9.660604,-0.272939,-3.1991763,-9.23517,-0.8045458
1409522514242,-2.3391352,-9.688137,-0.3645172,-3.1927443,-9.236953,-0.80962694
1409522514280,-2.3415294,-9.73662,-0.43634325,-3.1851332,-9.239534,-0.8101393
1409522514281,-2.3708582,-9.763555,-0.5117606,-3.174652,-9.243592,-0.80497074
1409522514281,-2.4013844,-9.824008,-0.6015432,-3.1620972,-9.2489,-0.79336023
1409522514282,-2.4319103,-9.830592,-0.65421563,-3.1465662,-9.255623,-0.77651054
1409522514309,-2.4390929,-9.813833,-0.64703304,-3.128812,-9.263408,-0.7551014
1409522514309,-2.4480712,-9.8515415,-0.60573304,-3.1100972,-9.271668,-0.73064125
1409522514313,-2.4875755,-9.86471,-0.6332663,-3.0910044,-9.280048,-0.7048518
1409522514326,-2.5779567,-9.913192,-0.6721721,-3.0717592,-9.288331,-0.6794011
1409522514343,-2.64679,-9.92636,-0.6901286,-3.0530005,-9.296241,-0.6553396
1409522514344,-2.618658,-9.725846,-0.6973112,-3.0351253,-9.303685,-0.6323629
1409522514363,-2.6521769,-9.53012,-0.7763199,-3.0190527,-9.310332,-0.6110819
1409522514363,-2.8078,-9.5253315,-0.9307459,-3.0058932,-9.315838,-0.59173906
1409522514377,-2.9753942,-9.593566,-1.0019734,-2.9945905,-9.320574,-0.57420576
1409522514393,-3.1322143,-9.610326,-1.0456676,-2.9836664,-9.325038,-0.5584174
1409522514393,-3.2531216,-9.582193,-1.0965444,-2.9734137,-9.32909,-0.5452484
1409522514410,-3.3566709,-9.586384,-1.0779893,-2.9638422,-9.332835,-0.53315866
1409522514427,-3.4183214,-9.546281,-1.0283096,-2.9541326,-9.33649,-0.52293986
1409522514427,-3.4404678,-9.519944,-0.9528923,-2.9451556,-9.339748,-0.5153371
1409522514443,-3.4757824,-9.512163,-0.90740246,-2.9370384,-9.342548,-0.5108679
1409522514443,-3.4674027,-9.507974,-0.8523358,-2.9301467,-9.3447485,-0.51022464
1409522514464,-3.4985273,-9.572019,-0.82599956,-2.9243138,-9.346424,-0.51296526
1409522514465,-3.5152867,-9.631275,-0.81881696,-2.9194338,-9.347633,-0.5187196
1409522514475,-3.4853592,-9.621099,-0.7667431,-2.9152646,-9.348415,-0.5279522
1409522514491,-3.3883939,-9.523536,-0.7410054,-2.9113,-9.349033,-0.53879887
1409522514493,-3.3022027,-9.471462,-0.694917,-2.9081893,-9.349227,-0.5520737
1409522514509,-3.2543187,-9.485827,-0.6398504,-2.905653,-9.349079,-0.56770444
1409522514513,-3.2154129,-9.552865,-0.55964464,-2.9034722,-9.348674,-0.58526367
1409522514526,-3.193865,-9.667787,-0.47465047,-2.9010384,-9.348248,-0.603864
1409522514543,-3.1585505,-9.740809,-0.3788824,-2.8991523,-9.347575,-0.6230192
1409522514544,-3.1184478,-9.745598,-0.24420857,-2.8982952,-9.346545,-0.6421649
1409522514559,-3.1292217,-9.75697,-0.17357962,-2.8981793,-9.345312,-0.6603965
1409522514562,-3.1280246,-9.6923275,-0.10414778,-2.8986838,-9.343874,-0.67828053
1409522514577,-3.0903158,-9.528324,-0.053869538,-2.900715,-9.341936,-0.696036
1409522514593,-3.0627825,-9.486425,-0.044891283,-2.9041488,-9.339471,-0.71455836
1409522514595,-3.0119057,-9.540894,-0.12330139,-2.9076536,-9.336871,-0.7340277
1409522514608,-2.9173348,-9.4295635,-0.219668,-2.9109302,-9.334244,-0.75419617
1409522514613,-2.831742,-9.422979,-0.3357868,-2.9150438,-9.331398,-0.77325165
1409522514631,-2.7168205,-9.474455,-0.45429978,-2.9194841,-9.32872,-0.78865623
1409522514633,-2.60549,-9.512762,-0.59495914,-2.9228387,-9.326585,-0.8013778
1409522514642,-2.5360582,-9.59177,-0.7098808,-2.9249294,-9.325283,-0.8088798
1409522514669,-2.4785974,-9.633071,-0.8242039,-2.9261727,-9.324721,-0.8108701
1409522514670,-2.4396915,-9.634866,-0.88765025,-2.9256294,-9.324987,-0.80974287
1409522514673,-2.3852234,-9.5971575,-0.9283517,-2.9225597,-9.326176,-0.80713034
1409522514696,-2.3409307,-9.551667,-0.91219085,-2.9169664,-9.328153,-0.8045279
1409522514697,-2.336741,-9.5798,-0.89543146,-2.9094706,-9.33062,-0.80306834
1409522514721,-2.3385365,-9.709685,-0.8110358,-2.9000266,-9.333719,-0.8012127
1409522514722,-2.373851,-9.856929,-0.7254431,-2.8894992,-9.3370495,-0.8004317
1409522514723,-2.3798366,-9.925163,-0.670975,-2.8767385,-9.340921,-0.80122465
1409522514755,-2.4067712,-9.87668,-0.59376204,-2.863442,-9.344955,-0.8018071
1409522514755,-2.505532,-9.857527,-0.56443304,-2.8509529,-9.348807,-0.8014079
1409522514756,-2.6354175,-9.8683,-0.5793968,-2.8395777,-9.352383,-0.8000916
1409522514762,-2.7670987,-9.871892,-0.5805939,-2.829026,-9.35572,-0.7984382
1409522514779,-2.825158,-9.804854,-0.57999533,-2.8193936,-9.358655,-0.7981244
1409522514791,-2.822764,-9.730036,-0.5446809,-2.810089,-9.36122,-0.80083835
1409522514793,-2.858677,-9.691729,-0.50517654,-2.8017423,-9.363297,-0.80581504
1409522514815,-2.902371,-9.633071,-0.4950012,-2.7946544,-9.364711,-0.81395805
1409522514816,-2.9340942,-9.570223,-0.48003745,-2.7892199,-9.365389,-0.8247046
1409522514822,-2.9622262,-9.455301,-0.45489833,-2.7844577,-9.365717,-0.8369832
1409522514848,-3.0083144,-9.34038,-0.4261679,-2.780524,-9.365852,-0.8484663
1409522514849,-3.0663738,-9.315839,-0.42796355,-2.7780368,-9.365741,-0.857795
1409522514854,-3.1196449,-9.324219,-0.46746787,-2.7775013,-9.365312,-0.8641952
1409522514862,-3.1717186,-9.317036,-0.47644615,-2.7781916,-9.364665,-0.8689719
1409522514881,-3.1854854,-9.28232,-0.53570265,-2.780407,-9.363799,-0.87121135
1409522514882,-3.169923,-9.23264,-0.54767364,-2.784467,-9.362557,-0.8715754
1409522514895,-3.1112652,-9.167996,-0.5883751,-2.7897358,-9.361087,-0.8705222
1409522514917,-3.0711622,-9.199121,-0.6536171,-2.7954767,-9.359534,-0.86880887
1409522514918,-3.0226796,-9.304466,-0.6973112,-2.801887,-9.357867,-0.8660988
1409522514922,-3.0059202,-9.346365,-0.7649474,-2.8090672,-9.356151,-0.86141133
1409522514949,-2.9987376,-9.384073,-0.86849666,-2.8167357,-9.354401,-0.85531944
1409522514950,-3.0065188,-9.387066,-0.9187749,-2.8248816,-9.35256,-0.8485859
1409522514956,-2.995745,-9.3738985,-0.95229375,-2.834105,-9.35044,-0.841153
1409522514962,-3.0023289,-9.366715,-0.9600749,-2.843412,-9.348308,-0.8333953
1409522514978,-3.0059202,-9.379285,-0.96067345,-2.8516064,-9.346435,-0.82637924
1409522514990,-2.9771898,-9.437943,-0.95588505,-2.8579087,-9.34505,-0.82025117
1409522514994,-2.9622262,-9.506178,-0.92895025,-2.8624315,-9.344239,-0.81367916
1409522515018,-2.9131448,-9.5013895,-0.8912416,-2.8657444,-9.343841,-0.8065543
1409522515018,-2.818574,-9.461885,-0.8774749,-2.8680928,-9.343775,-0.79894346
1409522515022,-2.7659016,-9.461885,-0.8810662,-2.8687756,-9.344228,-0.79115885
1409522515049,-2.6779146,-9.476849,-0.85652566,-2.868915,-9.344854,-0.78319997
1409522515050,-2.6449943,-9.549872,-0.76195467,-2.8683693,-9.345689,-0.77521676
1409522515054,-2.6569653,-9.597756,-0.7236475,-2.8669348,-9.346808,-0.7669609
1409522515063,-2.6013002,-9.528324,-0.931943,-2.8652256,-9.348016,-0.7585992
1409522515078,-2.5797524,-9.376292,-1.1007342,-2.8635638,-9.349157,-0.75078374
1409522515093,-2.6162639,-9.308656,-1.1761516,-2.8615954,-9.350215,-0.7450785
1409522515094,-2.7114334,-9.3499565,-1.2671312,-2.8584025,-9.3518305,-0.7370316
1409522515116,-2.8562827,-9.452907,-1.4173675,-2.8530219,-9.354218,-0.7274996
1409522515116,-3.0280666,-9.537302,-1.4850036,-2.846563,-9.357018,-0.7167098
1409522515122,-3.1866825,-9.611523,-1.4478935,-2.839629,-9.359938,-0.70602435
1409522515147,-3.2842462,-9.60015,-1.4718355,-2.832412,-9.36278,-0.69726545
1409522515148,-3.1836896,-9.470863,-1.2521675,-2.8261993,-9.365017,-0.69242865
1409522515154,-3.0777464,-9.523536,-1.1019313,-2.820544,-9.366823,-0.6910432
1409522515162,-2.9053638,-9.539098,-1.0989386,-2.814429,-9.368597,-0.69189936
1409522515180,-2.7575219,-9.582792,-1.2557588,-2.8081203,-9.369829,-0.7008321
1409522515182,-2.6839,-9.540296,-1.3856442,-2.801683,-9.37027,-0.7204388
1409522515228,-2.6449943,-9.444528,-1.4526819,-2.794197,-9.369979,-0.7525735
1409522515230,-2.7503393,-9.427768,-1.4969746,-2.78511,-9.368927,-0.7979774
1409522515230,-2.8682537,-9.420585,-1.484405,-2.775168,-9.366892,-0.8545065
1409522515231,-2.9789855,-9.279925,-1.4389153,-2.7636824,-9.364259,-0.9182135
1409522515252,-3.2375593,-9.208099,-1.4347254,-2.7504132,-9.36155,-0.9833476
1409522515252,-3.6050692,-9.263166,-1.3263878,-2.7378795,-9.357831,-1.0513877
1409522515257,-3.90614,-9.276933,-0.99060094,-2.7243772,-9.353555,-1.1221316
1409522515286,-4.162918,-9.231443,-0.6464345,-2.710432,-9.348786,-1.1933788
1409522515287,-4.3520603,-9.020754,-0.53330845,-2.6983342,-9.342921,-1.2645988
1409522515288,-4.50888,-8.890269,-0.6314707,-2.6892796,-9.335415,-1.3372365
1409522515294,-4.6040497,-8.884284,-0.6973112,-2.682975,-9.326268,-1.411658
1409522515314,-4.6321816,-9.000402,-0.7565677,-2.677948,-9.315876,-1.4877794
1409522515316,-4.420295,-9.0315275,-0.6607997,-2.671999,-9.304824,-1.5655997
1409522515322,-4.000711,-9.061455,-0.45489833,-2.6639755,-9.294134,-1.640952
1409522515344,-3.570952,-9.166202,-0.37469256,-2.653644,-9.284418,-1.711194
1409522515345,-3.29502,-9.376292,-0.5267244,-2.6433115,-9.275207,-1.7758982
1409522515360,-2.939481,-9.427169,-0.6619968,-2.6327386,-9.265868,-1.8392307
1409522515374,-2.718616,-9.467272,-0.8122329,-2.6179218,-9.256154,-1.9080175
1409522515376,-2.6204538,-9.599552,-0.93732995,-2.5964386,-9.245658,-1.9866341
1409522515393,-2.4732103,-9.635465,-0.92296475,-2.5665112,-9.235271,-2.072004
1409522515394,-2.208651,-9.56304,-0.85532856,-2.5309567,-9.22557,-2.1572006
1409522515407,-1.83336,-9.582792,-0.7541735,-2.4884946,-9.2180395,-2.2373073
1409522515423,-1.4041992,-9.677961,-0.6392518,-2.4415314,-9.213804,-2.3054578
1409522515423,-1.09834,-9.761759,-0.66858083,-2.3910842,-9.214018,-2.3569088
1409522515441,-1.0726024,-9.8916445,-0.93613285,-2.3363843,-9.2191725,-2.391346
1409522515443,-1.2862848,-10.031705,-1.5927427,-2.276394,-9.22899,-2.411259
1409522515459,-1.3245921,-9.993398,-2.3139958,-2.212606,-9.242084,-2.4204602
1409522515473,-1.5945383,-10.020332,-2.891597,-2.1484993,-9.255429,-2.4272234
1409522515474,-2.2014685,-10.084377,-3.417723,-2.083444,-9.270374,-2.4268856
1409522515489,-2.8407204,-10.170568,-3.7966053,-2.0221698,-9.285643,-2.4203384
1409522515507,-3.4715924,-10.460267,-3.9671922,-1.966409,-9.300584,-2.4088922
1409522515508,-4.271256,-10.747571,-3.7672763,-1.9194827,-9.313812,-2.3955941
1409522515522,-5.118803,-10.736199,-3.1489737,-1.8865403,-9.323223,-2.3851361
1409522515523,-5.345654,-10.368689,-1.6184803,-1.8701036,-9.327616,-2.3809035
1409522515540,-5.383961,-10.661979,-0.57999533,-1.8644212,-9.329089,-2.3795886
1409522515543,-5.659893,-11.25215,-0.54168814,-1.8634139,-9.330544,-2.3746698
1409522515559,-6.011242,-11.51611,-0.97623575,-1.8702643,-9.329254,-2.3743482
1409522515575,-6.045359,-11.326369,-1.5209166,-1.8783747,-9.325243,-2.3836737
1409522515575,-6.2345014,-11.071387,-1.6484078,-1.8814749,-9.317414,-2.4116797
1409522515588,-6.9288197,-11.116877,-1.4586674,-1.8829331,-9.304408,-2.4602804
1409522515594,-7.639898,-11.201273,-1.3742718,-1.8888657,-9.285158,-2.527535
1409522515606,-8.145074,-11.301829,-1.1803415,-1.9016638,-9.25982,-2.6095595
1409522515623,-8.604761,-11.528081,-0.320823,-1.9194745,-9.231944,-2.6939206
1409522515624,-9.016563,-11.80521,0.997185,-1.9515289,-9.203551,-2.7670524
1409522515641,-8.772954,-11.71842,1.9285295,-1.998948,-9.178506,-2.8159587
1409522515643,-7.890092,-11.484387,4.1706996,-2.055952,-9.157253,-2.8439684
1409522515658,-7.305308,-11.774085,7.4872675,-2.119112,-9.144378,-2.8390439
1409522515676,-6.740875,-11.51192,4.6662993,-2.193922,-9.14753,-2.771248
1409522515676,-5.993884,-11.054627,3.4141316,-2.2610402,-9.154245,-2.6940465
1409522515691,-5.480926,-10.933721,0.54767364,-2.3361185,-9.175898,-2.5526142
1409522515715,-5.145139,-10.794857,-0.6374562,-2.432339,-9.1937,-2.393751
1409522515716,-4.633379,-11.68131,0.18495208,-2.5470042,-9.208456,-2.210764
1409522515717,-3.3925838,-12.304401,-0.4961983,-2.6746504,-9.219105,-2.0061824
1409522515723,-2.179322,-12.715605,-3.0226796,-2.7899528,-9.224197,-1.8167839
1409522515743,-1.46585,-13.819332,-4.5920787,-2.8997986,-9.222567,-1.6449438
1409522515743,-0.31244332,-14.276625,-4.88058,-3.0074208,-9.215884,-1.4809675
1409522515757,0.6745663,-14.403518,-3.4105403,-3.0971088,-9.208198,-1.3369458
1409522515775,1.5239093,-14.865599,-1.9470845,-3.1683853,-9.204954,-1.183455
1409522515775,2.2744915,-14.967352,-1.4095862,-3.223451,-9.206901,-1.0063645
1409522515788,2.1799207,-15.383345,0.7350199,-3.2459888,-9.218557,-0.80754995
1409522515809,0.23822308,-16.019005,2.166154,-3.2399023,-9.2388935,-0.5623763
1409522515810,-1.3718776,-15.470733,-0.24181437,-3.2214284,-9.257264,-0.3095882
1409522515823,-1.0552444,-12.828732,-3.627814,-3.2102008,-9.265559,-0.120057784
1409522515823,-1.074398,-10.967838,-6.5631056,-3.2438724,-9.254602,0.0070282184
1409522515838,-1.299453,-9.527725,-6.0124393,-3.3509977,-9.216113,0.06694274
1409522515843,-1.6160861,-9.020754,-3.8792052,-3.4921951,-9.163156,0.10731968
1409522515857,-2.0027497,-9.003994,-2.4624364,-3.6556346,-9.098863,0.13188054
1409522515875,-1.3162124,-8.576629,-0.94451255,-3.811548,-9.034077,0.16720805
1409522515875,-0.7697359,-8.157045,-1.0468647,-3.9452896,-8.97456,0.24977295
1409522515889,-0.3477578,-7.326257,-2.011728,-4.059049,-8.919825,0.3622966
1409522515906,0.37828386,-6.6445084,-2.3259668,-4.1584997,-8.868422,0.47786754
1409522515906,0.89423436,-6.083068,-2.5731683,-4.246218,-8.820107,0.58797914
1409522515924,1.1845313,-5.505467,-3.204639,-4.32447,-8.774921,0.6856266
1409522515924,1.0217255,-4.914099,-4.2922053,-4.399454,-8.730492,0.77051955
1409522515940,1.1013328,-4.2658687,-3.9606082,-4.466775,-8.6901,0.83694243
1409522515943,0.8690952,-3.8385038,-3.0843303,-4.526931,-8.651998,0.9056602
1409522515955,-0.12569559,-3.8744168,-3.2549171,-4.5777392,-8.61514,0.99701756
1409522515970,-0.74878657,-4.4843397,-2.9406781,-4.615906,-8.580122,1.1159269
1409522515976,-1.2054806,-5.141548,-2.7377696,-4.64079,-8.548023,1.2509079
1409522515988,-0.62967503,-5.3683987,-1.8351556,-4.660132,-8.519133,1.3703818
1409522516012,0.33279404,-5.421071,-1.5448587,-4.6777153,-8.492526,1.471872
1409522516013,1.1749545,-5.269638,-1.7830818,-4.69729,-8.4699335,1.538203
1409522516019,2.3989902,-5.2887917,-1.4586674,-4.726617,-8.450202,1.5567861
1409522516023,3.2620997,-5.7724204,-1.0791864,-4.762639,-8.435272,1.5276991
1409522516049,3.6056678,-6.27221,-0.8726865,-4.798053,-8.428487,1.4524767
1409522516050,2.3235726,-6.6852098,0.23702596,-4.823766,-8.432094,1.3421798
1409522516064,-0.96067345,-7.2568254,2.9406781,-4.8389945,-8.441779,1.2210197
1409522516081,-5.7520695,-8.409634,6.716933,-4.8359513,-8.456278,1.1292971
1409522516082,-10.806828,-9.408015,9.3260145,-4.829106,-8.460958,1.1235313
1409522516083,-14.6172,-9.562442,7.2783732,-4.839591,-8.44472,1.1981066
1409522516114,-16.203957,-9.92636,4.2060137,-4.883099,-8.405865,1.2911932
1409522516115,-14.7159605,-10.375273,2.3349452,-4.9541655,-8.356871,1.3376623
1409522516116,-9.919776,-10.9103775,0.61291564,-5.0235906,-8.322756,1.2906102
1409522516123,-9.475652,-13.542802,1.6873137,-5.060578,-8.323191,1.1337718
1409522516158,-11.273697,-15.032594,4.3305125,-5.07733,-8.338213,0.93022233
1409522516159,-10.389638,-12.965799,5.0613422,-5.088053,-8.349047,0.75863016
1409522516160,-8.829217,-10.9426985,4.4538136,-5.0931087,-8.357413,0.6199099
1409522516182,-6.042965,-10.462662,2.984971,-5.112804,-8.34981,0.55705136
1409522516183,-2.3008277,-11.936293,-0.0676362,-5.129375,-8.338791,0.56962717
1409522516184,1.4945804,-13.033436,-2.734777,-5.1223764,-8.340794,0.6023421
1409522516214,2.6868927,-14.528016,-3.9797618,-5.0839458,-8.363465,0.6134738
1409522516215,2.7617116,-16.745646,-2.6898856,-5.019662,-8.403942,0.5892071
1409522516217,0.59855044,-19.355923,3.9097314,-4.913549,-8.469305,0.5461849
1409522516223,-3.0801406,-17.681778,9.321226,-4.779171,-8.5441065,0.57285196
1409522516248,-1.0881647,-12.50731,-1.8195933,-4.6558924,-8.605644,0.6602522
1409522516249,2.166154,-8.024766,-3.376423,-4.5686126,-8.651412,0.6717267
1409522516256,3.1747115,-6.5445504,-0.736217,-4.522667,-8.669543,0.74492186
1409522516298,3.4757824,-5.494693,1.484405,-4.510477,-8.672026,0.7886584
1409522516300,2.843713,-5.6886234,1.6956934,-4.513135,-8.674075,0.74995136
1409522516300,1.5711949,-6.7426705,0.15562311,-4.5075555,-8.683596,0.66896194
1409522516301,0.60214174,-7.840412,-1.0283096,-4.4749703,-8.706881,0.5790142
1409522516303,0.08080431,-8.804677,-2.100912,-4.424483,-8.739112,0.4714389
1409522516331,-0.28550854,-9.610924,-3.2872388,-4.3422766,-8.785398,0.36309773
1409522516332,-0.5410896,-10.111911,-3.5242648,-4.2416353,-8.838501,0.2446248
1409522516338,-0.6362591,-10.151415,-3.293823,-4.1303487,-8.893271,0.14264667
1409522516360,-0.7026982,-10.042479,-2.9873652,-4.0130754,-8.947556,0.083080016
1409522516361,-0.8206126,-10.1143055,-2.9412768,-3.8926716,-9.000554,0.08664337
1409522516363,-1.3718776,-10.313024,-3.2082303,-3.765189,-9.0536585,0.15810715
1409522516375,-2.3223755,-10.714651,-3.4231098,-3.6326838,-9.104801,0.27675387
1409522516387,-3.3010056,-11.010335,-3.5673606,-3.487097,-9.156343,0.4146198
1409522516408,-3.7373488,-10.722432,-3.0735564,-3.327667,-9.207136,0.5706748
1409522516409,-3.5715504,-10.134656,-2.3331497,-3.159532,-9.254174,0.7402798
1409522516426,-3.4877534,-9.698313,-2.3157916,-2.991542,-9.2943125,0.91478044
1409522516426,-3.755904,-9.387066,-2.2894554,-2.834684,-9.326897,1.0695591
1409522516435,-3.4464533,-8.676587,-1.7286136,-2.6987324,-9.3524685,1.191045
1409522516464,-3.1860838,-8.021772,-1.7357962,-2.5822067,-9.373161,1.2831488
1409522516465,-2.5079262,-7.6027875,-1.8543092,-2.476607,-9.391708,1.3537346
1409522516465,-1.3096284,-7.264008,-2.2008698,-2.384473,-9.408989,1.3984315
1409522516475,-0.6877344,-7.253833,-2.2613235,-2.2986825,-9.427792,1.415338
1409522516496,-1.7423803,-7.921815,-2.705448,-2.212986,-9.450238,1.4021627
1409522516497,-2.7341783,-8.977658,-2.9622262,-2.1257174,-9.4795475,1.3378595
1409522516504,-2.2349873,-9.675568,-2.2559366,-2.036141,-9.516476,1.2088053
1409522516522,-2.2810757,-10.383054,-2.030283,-1.9488518,-9.555789,1.0292184
1409522516524,-2.6671407,-10.765528,-1.7351977,-1.8707787,-9.591154,0.82481587
1409522516538,-2.5384524,-10.561422,-0.75956047,-1.8070906,-9.620378,0.5942595
1409522516558,-1.9883845,-10.11251,0.3226187,-1.7471719,-9.643135,0.35741314
1409522516558,-1.4131776,-9.674969,0.7009025,-1.6903169,-9.659083,0.12380707
1409522516570,-1.3790601,-9.519944,0.61171854,-1.636538,-9.668557,-0.105480194
1409522516588,-1.8710686,-9.7641535,0.427365,-1.581938,-9.672575,-0.3303798
1409522516589,-2.504335,-10.230424,0.32920274,-1.5194112,-9.672293,-0.5554371
1409522516601,-2.9017725,-10.68652,0.46567222,-1.4485285,-9.667978,-0.77610594
1409522516604,-3.064578,-11.0695915,0.80205756,-1.3762469,-9.659019,-0.9897761
1409522516620,-3.0119057,-11.374253,0.90381116,-1.307866,-9.647489,-1.1772085
1409522516624,-2.9562407,-11.530476,0.7146692,-1.2481153,-9.634635,-1.3365605
1409522516638,-2.9873652,-11.474811,0.3866636,-1.197901,-9.621126,-1.4728713
1409522516660,-3.153762,-11.280281,0.044891283,-1.1523337,-9.606634,-1.5984654
1409522516661,-3.3806129,-11.386225,-0.15622166,-1.1063544,-9.590216,-1.7245762
1409522516664,-3.4392707,-11.63582,0.078410104,-1.0564988,-9.570918,-1.8578892
1409522516676,-3.196858,-11.870452,2.284667,-0.9988559,-9.54991,-1.9929577
1409522516693,-2.5767596,-11.664551,6.6642604,-0.9373893,-9.528945,-2.1191766
1409522516698,-2.858677,-11.851897,11.673529,-0.8714634,-9.510156,-2.2288694
1409522516704,-4.646547,-12.258312,11.906365,-0.8094117,-9.494169,-2.318618
1409522516729,-5.3767786,-12.085332,2.168548,-0.74560416,-9.472607,-2.4257364
1409522516730,-5.348048,-12.433089,-2.0871453,-0.64356184,-9.448322,-2.546646
1409522516736,-4.9338512,-13.511079,-3.5757403,-0.5681376,-9.464036,-2.5059185
1409522516766,-7.177218,-13.837887,-2.5019407,-0.560867,-9.497487,-2.3777118
1409522516767,-7.9505453,-13.813945,-1.4850036,-0.6302023,-9.527062,-2.23792
1409522516767,-8.949526,-14.195821,0.25917232,-0.70862395,-9.53691,-2.1715407
1409522516798,-9.264962,-13.14297,7.510012,-0.7881687,-9.536383,-2.1462936
1409522516799,-8.752603,-12.341511,4.8985367,-0.86523885,-9.552091,-2.0443358
1409522516799,-6.3787518,-10.325593,-3.3500867,-0.9377931,-9.565202,-1.9488119
1409522516805,-5.792771,-11.124659,-5.791574,-0.99957776,-9.581619,-1.8340633
1409522516823,-5.571307,-12.553398,-5.8963203,-1.099811,-9.609704,-1.616902
1409522516824,-4.1922474,-11.692682,-5.7736173,-1.2497143,-9.630416,-1.3651738
1409522516838,-2.984971,-10.21127,-6.331466,-1.408297,-9.641375,-1.1094918
1409522516856,-2.5629928,-11.3167925,-6.5230026,-1.5974746,-9.634283,-0.89390516
1409522516856,-1.9524715,-13.761272,-5.177461,-1.8039287,-9.611989,-0.72516286
1409522516871,-0.9307459,-17.157448,-2.7850552,-2.0007856,-9.583204,-0.57397527
1409522516888,0.6428431,-19.581577,0.4902128,-2.178034,-9.552853,-0.411768
1409522516888,2.8078,-19.608511,3.321955,-2.332022,-9.52315,-0.20403974
1409522516905,6.83784,-19.608511,3.1387985,-2.4491613,-9.495702,0.060615044
1409522516906,6.752846,-19.49778,2.2080526,-2.491724,-9.47865,0.34186453
1409522516919,3.852869,-16.30212,-0.7882909,-2.4918945,-9.462085,0.6555929
1409522516925,1.5041572,-13.889961,-4.192846,-2.4741938,-9.439574,0.97117853
1409522516942,0.7116765,-12.464812,-5.0960584,-2.4058318,-9.425343,1.2430855
1409522516944,0.82719666,-11.578958,-4.5418005,-2.336796,-9.4126,1.4535283
1409522516956,1.0971429,-9.949704,-5.981314,-2.335627,-9.389721,1.5963585
1409522516974,0.85772276,-8.5622635,-4.818331,-2.4168355,-9.3533945,1.6862081
1409522516993,0.59855044,-7.8188643,-3.441665,-2.554283,-9.301062,1.7709566
1409522516993,0.55844754,-6.715736,-3.9378633,-2.7051697,-9.241105,1.8586084
1409522516999,1.3323733,-5.1780596,-2.1529858,-2.8619215,-9.180099,1.9249921
1409522517004,1.7794905,-4.1240125,-3.3010056,-3.0080192,-9.115087,2.0093298
1409522517021,0.88166475,-3.9258924,-5.949591,-3.150682,-9.049682,2.0849147
1409522517024,-0.15442601,-4.695628,-7.6345105,-3.304291,-8.984794,2.1273303
1409522517038,0.020350715,-5.0403934,-5.3713913,-3.4589772,-8.923567,2.139116
1409522517052,0.2088941,-4.8165355,-2.2942438,-3.5857244,-8.864948,2.1738582
1409522517057,0.090979666,-4.745308,-0.7625532,-3.6768663,-8.804882,2.2638705
1409522517069,0.7721301,-4.622605,0.17597382,-3.7455912,-8.751684,2.3556201
1409522517088,1.620276,-4.270657,-0.32022446,-3.7773986,-8.707351,2.4665182
1409522517089,2.0332758,-4.0946836,-1.9602526,-3.79077,-8.669745,2.5760353
1409522517104,2.3110032,-3.5571852,-3.7217865,-3.7995055,-8.637649,2.669303
1409522517105,2.5073278,-3.2279825,-4.7363296,-3.809817,-8.612309,2.7356582
1409522517118,2.8963854,-2.731784,-5.089474,-3.8229785,-8.596469,2.766944
1409522517137,3.6361938,-2.8311436,-4.5795093,-3.8335242,-8.592224,2.765532
1409522517138,4.5058875,-3.1280246,-4.2437224,-3.8370063,-8.594893,2.7523754
1409522517154,5.0679264,-3.4566288,-3.957017,-3.827814,-8.61178,2.712096
1409522517156,5.00448,-4.0898952,-2.4049757,-3.8008952,-8.642668,2.6510172
1409522517169,3.9151182,-5.716755,0.53809685,-3.7567158,-8.686593,2.5691612
1409522517186,1.5825673,-8.117541,4.1880574,-3.6935542,-8.7449255,2.4605584
1409522517186,-2.9484594,-11.922526,14.246697,-3.6020443,-8.8156595,2.3409004
1409522517203,-14.845247,-18.63527,19.608511,-3.4707162,-8.86687,2.3458784
1409522517204,-19.60911,-19.608511,18.338987,-3.3626125,-8.941505,2.2164624
1409522517222,-17.921198,-19.608511,11.145607,-3.2481725,-9.005512,2.126144
1409522517234,-11.245565,-16.719309,3.181894,-3.1647675,-9.042802,2.0934088
1409522517237,-10.654796,-13.612832,3.3614593,-3.440171,-8.638791,3.1155918
1409522517255,-8.381501,-10.390237,5.3199162,-3.9115975,-8.535405,2.8313658
1409522517256,-4.4478283,-9.126697,5.351041,-4.1780477,-8.40045,2.85425
1409522517276,-2.1092918,-8.717288,4.1491513,-4.1641593,-8.339345,3.0472102
1409522517277,-0.29388827,-6.825869,2.369661,-3.9716399,-8.362574,3.2347863
1409522517284,1.5101427,-8.45213,-0.8475474,-3.7041976,-8.448334,3.3279042
1409522517310,4.2634745,-12.80479,-4.8638206,-3.3207543,-8.691516,3.0984693
1409522517311,5.2810106,-14.437634,-5.644929,-2.6443589,-9.121585,2.4442687
1409522517316,4.4795513,-14.944607,-5.466561,-1.8983468,-9.470199,1.6976489
1409522517336,1.8303672,-14.894329,-3.7163997,-1.2546704,-9.6718445,1.0254943
1409522517337,-1.0324994,-15.689203,1.8315643,-0.8857272,-9.749755,0.57286125
1409522517361,1.6873137,-12.68867,2.0308816,-0.8057032,-9.7551155,0.59911335
1409522517362,2.6204538,-10.825383,1.946486,-0.57930416,-9.7678995,0.65033495
1409522517364,2.8353333,-9.113529,1.050456,-0.32083967,-9.773327,0.7412918
1409522517395,3.3081882,-7.4507556,-0.038905777,-0.09874796,-9.775206,0.7784823
1409522517396,3.6619315,-6.7360864,-0.717662,0.17442104,-9.778096,0.7271847
1409522517397,3.3123782,-6.8144965,-1.1258733,0.489514,-9.774121,0.6303338
1409522517405,2.349909,-7.3633676,-1.7184383,0.7802575,-9.762186,0.51119685
1409522517436,1.5119383,-7.934983,-2.1823149,0.99067575,-9.750984,0.32754648
1409522517436,1.0875661,-8.365341,-2.2948422,1.1144398,-9.742674,0.09353899
1409522517437,1.0378864,-8.7292595,-2.1703439,1.1599693,-9.736764,-0.14245705
1409522517460,1.1510124,-9.032724,-2.0153193,1.1986054,-9.727035,-0.34431174
1409522517460,1.0660183,-9.758766,-2.166154,1.226602,-9.716198,-0.5111983
1409522517464,0.6171055,-11.154586,-2.5713725,1.2284169,-9.706091,-0.6731968
1409522517489,-0.5315128,-13.174693,-3.1148565,1.1696379,-9.699646,-0.8480533
1409522517490,-1.8130093,-14.487913,-3.276465,0.9923832,-9.701283,-1.0347136
1409522517501,-2.5390508,-13.855246,-2.9771898,0.7128739,-9.707475,-1.1946295
1409522517504,-1.7968484,-11.287464,-2.3181858,0.40033144,-9.711031,-1.3061563
1409522517520,-1.0085574,-9.500193,-1.9829975,0.18953502,-9.70867,-1.3697408
1409522517541,-0.8619126,-8.939949,-1.6490064,0.04543752,-9.704488,-1.411108
1409522517541,-0.6745663,-8.623915,-1.0785879,-0.08213906,-9.702708,-1.4216546
1409522517545,-0.65780693,-8.644265,-0.46746787,-0.16162089,-9.705927,-1.3925761
1409522517571,-0.8415619,-8.216302,-1.1599907,-0.21294513,-9.714849,-1.321642
1409522517572,-2.8909986,-8.258201,-3.5823243,-0.27152503,-9.711851,-1.332887
1409522517587,-4.1677065,-8.494029,-4.9745526,-0.53102005,-9.664234,-1.5782909
1409522517588,-3.342904,-8.018182,-3.1800983,-0.885285,-9.573022,-1.9349324
1409522517606,-2.6342204,-7.702147,-2.1499932,-1.1401205,-9.497239,-2.1617012
1409522517607,-1.8166006,-8.240244,-1.7423803,-1.2895193,-9.44743,-2.2920775
1409522517616,-1.0067618,-8.963891,-1.4251486,-1.3487326,-9.435296,-2.307924
1409522517643,-0.035314474,-9.321226,-1.1354501,-1.3233936,-9.453473,-2.2474136
1409522517644,0.7086837,-9.400833,-0.866701,-1.1999028,-9.489356,-2.1639574
1409522517645,0.17178397,-9.551069,-0.7368156,-1.0054022,-9.532,-2.0737796
1409522517687,-0.55485624,-9.880272,-0.55246204,-0.8682482,-9.5650425,-1.9815391
1409522517688,-0.8319851,-10.21127,-0.3465607,-0.81831956,-9.592556,-1.8664483
1409522517689,-0.8415619,-10.31063,-0.12509704,-0.79605365,-9.618232,-1.7396202
1409522517691,-0.79846627,-10.087969,0.1933318,-0.79228175,-9.643555,-1.5951585
1409522517712,-0.97623575,-9.8276,0.29807812,-0.7991946,-9.669316,-1.4268779
1409522517712,-1.2126632,-10.012551,0.23283611,-0.8267241,-9.689692,-1.2636486
1409522517719,-1.5562311,-10.351331,0.2160767,-0.86769557,-9.703577,-1.1216466
1409522517759,-2.070386,-11.279683,0.15322891,-0.9289719,-9.711306,-0.99897593
1409522517760,-2.60968,-12.622829,0.045489833,-1.0228575,-9.712121,-0.8937994
1409522517760,-2.7964275,-13.727156,0.16938977,-1.1440574,-9.70622,-0.8067345
1409522517761,-2.837129,-14.273632,0.6392518,-1.2564913,-9.699089,-0.7206212
1409522517765,-2.7042508,-14.082096,2.9622262,-1.3550875,-9.693396,-0.6101026
1409522517789,-2.2110453,-13.214796,9.0429,-1.4342407,-9.696004,-0.31757364
1409522517790,-1.9512744,-12.791022,12.093113,-1.4709172,-9.68572,0.43999714
1409522517805,-3.6529531,-13.879188,12.4468565,-1.469347,-9.60679,1.3118719
1409522517805,-6.022016,-14.374787,3.2196028,-1.5875059,-9.454993,2.0623574
1409522517819,-5.947197,-13.323732,-2.3403323,-1.8878499,-9.406441,2.0310824
1409522517833,-4.449624,-13.157934,-3.4278982,-2.1375265,-9.403559,1.7816947
1409522517839,-3.8235402,-14.217368,-3.496133,-2.2442896,-9.425298,1.5156826
1409522517853,-4.59986,-14.654908,0.83856916,-2.251719,-9.47348,1.1633265
1409522517867,-5.2720323,-15.701175,7.3112936,-2.2968209,-9.476756,1.042159
1409522517867,-5.4222684,-15.880141,12.7730665,-2.374793,-9.416438,1.3643382
1409522517885,-4.903325,-14.137761,8.871116,-2.4661524,-9.262565,2.0720494
1409522517886,-5.024831,-12.935273,1.1815386,-2.571914,-9.139643,2.4540932
1409522517900,-5.2540755,-11.322779,-4.4406457,-2.7026114,-9.113822,2.4092627
1409522517917,-5.2522798,-11.077971,-4.409521,-2.9027836,-9.152169,1.9955055
1409522517917,-4.720767,-11.034277,-7.2113357,-3.0705905,-9.180825,1.5666189
1409522517933,-3.7187939,-10.250176,-7.97748,-3.1831975,-9.227919,0.9397526
1409522517937,-2.8101943,-9.577405,-7.8086886,-3.2297912,-9.254832,0.29482496
1409522517959,-1.977012,-10.787674,-7.192182,-3.215977,-9.25916,-0.30958077
1409522517960,-0.86490536,-13.864822,-6.581062,-3.1107519,-9.263968,-0.8200724
1409522517965,0.70509243,-18.338987,-4.0402155,-2.8761265,-9.299579,-1.1900107
1409522517989,2.552219,-19.608511,3.4644098,-2.4859178,-9.396355,-1.303513
1409522517990,6.3566055,-19.608511,8.16722,-2.0165424,-9.558142,-0.8636325
1409522517997,11.2605295,-19.608511,4.7321396,-2.249802,-9.525509,-0.6111268
1409522518029,8.496424,-18.253393,0.60214174,-2.4641469,-9.486789,-0.3149916
1409522518030,4.4777555,-13.9994955,-4.7381253,0.2003066,-9.801785,0.23507498
1409522518030,1.9494787,-11.738173,-5.823297,0.531435,-9.79213,-0.046556145
1409522518037,1.8686744,-10.126875,-5.6664767,0.6799378,-9.774605,-0.40640682
1409522518064,2.5001452,-8.947132,-5.53719,0.7739801,-9.747051,-0.75254536
1409522518064,2.4384944,-8.422203,-4.274847,0.8666268,-9.703899,-1.1196795
1409522518065,1.79206,-8.042124,-3.0418332,0.9396111,-9.66534,-1.3669994
1409522518108,1.2306197,-6.4631476,-2.983774,0.9868565,-9.638627,-1.5143927
1409522518109,1.2826935,-4.0533834,-2.6162639,1.0249752,-9.607999,-1.6751623
1409522518110,0.49919105,-3.537433,-3.537433,1.090764,-9.571325,-1.8358546
1409522518111,1.0115502,-2.6515784,-6.0848637,1.0937703,-9.522328,-2.0734792
1409522518117,0.32441434,-3.2734723,-7.3549876,1.1597084,-9.395515,-2.559252
1409522518151,0.06943185,-4.1575313,-4.9901147,1.1371105,-9.219964,-3.1415913
1409522518152,0.35913026,-4.395156,-1.9692309,1.0825442,-9.106321,-3.4746764
1409522518154,0.49320555,-4.2898107,-0.92895025,1.0433508,-9.087207,-3.5361733
1409522518188,1.0175357,-4.24492,-1.0749966,0.9973522,-9.100698,-3.5146775
1409522518189,1.5400703,-4.326921,-2.4001873,1.0349025,-9.108446,-3.483616
1409522518190,2.3349452,-4.2155905,-2.6300306,1.1576564,-9.061179,-3.5672495
1409522518191,3.0621839,-3.8456864,-2.2056582,1.3890669,-8.9893265,-3.6650972
1409522518199,3.7954082,-3.6768951,-2.1583729,1.7133,-8.90925,-3.7229404
1409522518229,4.362834,-3.70383,-2.8856115,2.1285477,-8.795103,-3.779666
1409522518230,4.8961425,-3.357868,-3.8055837,2.5893865,-8.613043,-3.9090896
1409522518230,4.853047,-3.072958,-4.687248,3.08519,-8.339573,-4.135637
1409522518238,4.799776,-2.6803088,-4.953005,3.5207834,-7.998268,-4.449967
1409522518273,5.097255,-2.565387,-4.547188,3.9096775,-7.616461,-4.7827168
1409522518274,5.319318,-3.093907,-3.5464113,4.304383,-7.2346044,-5.030229
1409522518275,4.5118732,-5.249287,-0.64703304,4.6770883,-6.959983,-5.0846696
1409522518277,2.190096,-9.260772,5.006874,4.915288,-7.040371,-4.73746
1409522518286,-5.003283,-17.337612,18.406025,4.804742,-7.7510595,-3.606375
1409522518312,-18.07742,-19.608511,19.608511,4.8352375,-7.614049,-3.8493035
1409522518313,-19.60911,-19.608511,16.538548,4.8424253,-7.4718785,-4.1100297
1409522518320,-16.432604,-18.921974,6.9545574,4.7699823,-7.3954473,-4.32724
1409522518348,-11.377247,-12.586318,4.3305125,4.665679,-7.379884,-4.465329
1409522518348,-10.605117,-9.55885,5.711368,-3.5160909,-8.668487,2.9436126
1409522518349,-5.5659204,-7.855974,6.51582,-4.019307,-8.434022,2.9804091
1409522518379,-2.556409,-8.602965,4.0581717,-4.104324,-8.295525,3.2417853
1409522518379,1.0875661,-11.329363,0.81881696,-3.980825,-8.297379,3.3877628
1409522518380,6.455366,-16.984467,-4.5483847,-3.495959,-8.550942,3.2909052
1409522518385,6.4445925,-17.54052,-5.470751,-2.5155797,-9.105214,2.6338809
1409522518402,4.2796354,-16.05432,-3.151368,-1.6529061,-9.479502,1.8913937
1409522518415,2.9981391,-13.178884,-1.2443863,-1.077783,-9.640154,1.4409078
1409522518417,3.4811692,-12.159552,-0.22864626,-0.69347125,-9.70717,1.2084486
1409522518434,4.7500963,-10.821792,-1.4742297,-0.3270514,-9.742314,1.0727345
1409522518452,4.622605,-10.121488,-2.3666685,0.109974,-9.76957,0.84485394
1409522518452,4.0396166,-6.8198833,-1.8076223,0.4906512,-9.776907,0.5845991
1409522518471,4.684854,-6.0411696,-1.4197617,0.8013971,-9.766178,0.38720572
1409522518472,5.0266266,-6.609194,-1.8818425,1.1607316,-9.735575,0.20419425
1409522518477,4.634576,-7.946954,-2.2529438,1.546531,-9.683936,-0.00310235
1409522518485,3.839701,-8.969278,-2.7401638,1.8834257,-9.621598,-0.21900341
1409522518501,3.1794999,-9.018359,-2.9340942,2.1001673,-9.568113,-0.45922437
1409522518515,3.1591492,-8.555081,-2.5683799,2.2551835,-9.517715,-0.7054396
1409522518517,3.3399115,-8.480263,-2.292448,2.3916185,-9.46826,-0.8958856
1409522518533,3.4997244,-8.940548,-2.111686,2.5134873,-9.421133,-1.0464303
1409522518549,3.441665,-9.5570545,-2.071583,2.6193683,-9.377991,-1.1673031
1409522518550,2.5133133,-10.763134,-2.3768437,2.702632,-9.3409605,-1.2699049
1409522518565,0.4405331,-12.952631,-2.947861,2.6750376,-9.332988,-1.3819991
1409522518566,-1.6011224,-14.324509,-3.0280666,2.4251108,-9.381523,-1.5087388
1409522518582,-2.1811178,-13.593678,-2.5845408,1.9927553,-9.465527,-1.6134225
1409522518585,-1.5927427,-11.243171,-1.8567034,1.5818762,-9.534111,-1.6639702
1409522518601,-0.6266823,-8.887876,-1.2162545,1.2580974,-9.583262,-1.6579075
1409522518614,0.024540568,-8.144476,-1.073201,1.0441557,-9.61794,-1.6047827
1409522518621,0.3716998,-8.04392,-0.7978677,0.91209644,-9.640876,-1.5466093
1409522518633,0.036511578,-8.161834,-0.15023616,0.84704995,-9.657306,-1.4796412
1409522518653,-1.2024878,-8.045116,-1.7310078,0.7880261,-9.678804,-1.3675474
1409522518654,-2.6318262,-8.142081,-3.5978866,0.61191934,-9.684422,-1.4169974
1409522518667,-3.1106665,-9.077017,-4.3317094,0.30673984,-9.66083,-1.6567075
1409522518668,-2.879626,-8.9279785,-3.7499185,-0.026255555,-9.603145,-1.9872961
1409522518681,-2.7856536,-8.562862,-4.2036195,-0.2804007,-9.533166,-2.2826538
1409522518687,-2.8550856,-8.909423,-4.821324,-0.48080784,-9.453472,-2.5634143
1409522518699,-3.0963013,-9.528923,-4.0043025,-0.6899445,-9.372255,-2.8027036
1409522518718,-2.6396074,-9.85633,-3.1573534,-0.9271356,-9.321102,-2.9030828
1409522518718,-1.4281414,-10.09994,-2.144606,-1.1085607,-9.296576,-2.9180748
1409522518749,-0.80205756,-10.4967785,-1.2066777,-1.1528286,-9.3144865,-2.8428311
1409522518750,-0.8295909,-11.449671,-0.777517,-1.1257378,-9.358534,-2.705721
1409522518750,-1.2838906,-12.162544,-0.31603462,-1.0828242,-9.413127,-2.5280304
1409522518770,-1.7226281,-12.207436,0.089782566,-1.066116,-9.471065,-2.3092713
1409522518775,-1.905186,-12.012308,0.32800564,-1.0944109,-9.521765,-2.0757287
1409522518777,-1.8561049,-11.829152,0.52732295,-1.1494948,-9.562652,-1.8451922
1409522518786,-1.8836381,-11.92492,1.0348936,-1.2050036,-9.596384,-1.621049
1409522518810,-2.0925324,-12.658743,2.1883004,-1.2501143,-9.628769,-1.3763711
1409522518811,-1.8938135,-13.712192,8.69155,-1.3065624,-9.661998,-1.0531261
1409522518817,-0.41060558,-13.29141,12.787432,-1.3262916,-9.714461,-0.20144822
1409522518835,0.6302736,-13.379996,15.184626,-1.223348,-9.693529,0.8422048
1409522518851,-0.16998832,-14.797363,19.608511,-1.0673394,-9.575617,1.8272198
1409522518852,-3.466804,-13.357251,7.1460934,-1.1965239,-9.64383,1.3173016
1409522518868,-4.386776,-10.592546,-7.9750857,-1.3037454,-9.190586,3.1628735
1409522518868,-2.2972364,-10.263943,-11.487978,-1.5361977,-9.328929,2.604145
1409522518882,-3.5051112,-12.823943,-8.418014,-1.4985397,-9.54795,1.661751
1409522518899,-5.966949,-14.416087,-3.0921116,-1.5656987,-9.639037,0.89885557
1409522518899,-7.1849995,-15.631145,-2.2391772,-1.7670869,-9.632319,0.51596284
1409522518914,-7.328053,-15.342045,-0.26874915,-2.039976,-9.58979,0.21165828
1409522518931,-6.4487824,-13.57692,6.5367694,-2.3280168,-9.525663,0.11159195
1409522518931,-5.8867435,-13.059174,8.400655,-2.5571609,-9.45244,0.5316806
1409522518948,-5.7215433,-12.840702,6.549339,-2.7310407,-9.355399,1.0901002
1409522518948,-5.8663926,-12.914324,4.8422728,-2.8695776,-9.262202,1.4654415
1409522518962,-4.471172,-12.508507,3.17531,-3.0175638,-9.16409,1.7561727
1409522518966,-3.3794158,-13.139977,0.59615624,-3.082168,-9.116144,1.8885332
1409522518980,-3.2249897,-14.362218,0.16280572,-3.060145,-9.139041,1.8121321
1409522518995,-3.3782187,-14.436438,-3.0885203,-2.99222,-9.1826515,1.7017341
1409522518998,-1.9357121,-11.560403,-7.0156097,-2.941206,-9.254176,1.3711004
1409522519015,-1.8016368,-10.181941,-7.599196,-2.8767028,-9.3424635,0.78315794
1409522519018,-1.620276,-10.755951,-7.785944,-2.8311355,-9.387844,0.15299766
1409522519031,-0.8062474,-13.186665,-7.630321,-2.742294,-9.405579,-0.43047905
1409522519046,1.079785,-18.030134,-6.5607114,-2.5575793,-9.41937,-0.9511284
1409522519047,4.51307,-19.608511,-1.5089456,-2.20299,-9.471387,-1.2688789
1409522519066,7.89907,-19.608511,4.514866,-1.6618195,-9.591572,-1.187655
1409522519066,11.611878,-19.608511,5.33907,-0.9610135,-9.732304,-0.7273925
1409522519081,9.115923,-17.985243,2.6671407,-1.2349378,-9.71631,-0.48852646
1409522519098,4.721366,-14.150929,-2.8646624,0.5382795,-9.791788,-0.039436523
1409522519100,2.3038206,-12.390593,-6.517616,0.8556366,-9.767459,-0.18711233
1409522519114,2.067393,-11.0378685,-6.156091,0.96826637,-9.743799,-0.5396677
1409522519118,1.5406688,-10.010756,-4.943428,1.0729805,-9.706961,-0.89107704
1409522519129,2.4624364,-9.4972,-2.2421699,1.0924828,-9.674767,-1.1729361
1409522519147,3.66672,-8.336012,-2.144606,1.1506995,-9.656573,-1.2636752
1409522519148,3.0963013,-7.1484876,-3.7612908,1.3105384,-9.625987,-1.3391274
1409522519161,2.1170728,-5.1876364,-6.6893997,1.4536577,-9.575684,-1.5373925
1409522519166,1.264737,-3.17531,-8.539519,1.5541514,-9.479908,-1.9713861
1409522519179,-0.16220717,-2.6659436,-8.602366,1.6137995,-9.3206,-2.5869777
1409522519196,-1.4012065,-3.7433343,-5.1756654,1.541028,-9.131325,-3.2271519
1409522519198,-0.83497787,-4.618415,-2.707842,1.3411285,-9.038464,-3.5606105
1409522519218,0.26635495,-4.404134,-1.5592239,1.1475819,-9.019572,-3.6743386
1409522519220,1.2623428,-3.8911762,-1.0702082,1.0494684,-9.018659,-3.7057812
1409522519226,2.268506,-3.1477766,-2.3259668,1.0996978,-9.02032,-3.6871254
1409522519254,2.654571,-2.4881742,-3.2974143,1.3086262,-8.947912,-3.7937775
1409522519254,2.7234044,-1.8746599,-3.168726,1.5783982,-8.806336,-4.015906
1409522519258,3.1501708,-1.2976574,-2.5240872,1.8618025,-8.639737,-4.249592
1409522519266,3.8744168,-0.9768343,-2.367267,2.229948,-8.453659,-4.442226
1409522519289,4.3777976,-1.1109096,-2.8802247,2.704003,-8.213373,-4.6259327
1409522519290,4.617218,-1.3401544,-3.7966053,3.2267845,-7.8965063,-4.837716
1409522519298,4.606444,-1.6232687,-4.5100775,3.7328374,-7.49436,-5.1059685
1409522519321,4.383185,-2.030283,-4.3179426,4.160743,-7.052958,-5.3957767
1409522519322,4.325125,-2.8574798,-3.5649664,4.4956965,-6.6739693,-5.605107
1409522519327,4.331111,-4.301183,-2.0141222,4.7602434,-6.451148,-5.6474032
1409522519360,3.7846344,-7.247847,1.6304513,4.994444,-6.452686,-5.439559
1409522519361,2.3762453,-13.384785,13.08491,5.124583,-6.936139,-4.668945
1409522519361,-10.985794,-19.608511,19.608511,4.919059,-8.21711,-2.1100678
1409522519366,-19.60911,-19.608511,19.1596,4.9855556,-8.102217,-2.3808992
1409522519414,-17.225683,-19.608511,11.580753,5.0173035,-8.011004,-2.61168
1409522519415,-10.85531,-17.98704,6.5110316,4.959765,-7.9873104,-2.788191
1409522519415,-7.60997,-10.879252,5.8723783,-2.648718,-8.824463,3.3590965
1409522519417,-4.022857,-7.3340383,5.4408236,-3.0565007,-8.688358,3.367584
1409522519431,-0.38845924,-6.0321913,4.1054573,-3.1830325,-8.576009,3.5342305
1409522519432,1.0869676,-4.935647,3.726575,-3.0405116,-8.542281,3.735656
1409522519451,1.7363948,-4.3622355,3.25372,-2.723824,-8.542576,3.9718468
1409522519451,4.868609,-7.4244194,1.666963,-2.3338344,-8.578678,4.1388273
1409522519468,6.985682,-13.803171,-3.989937,-1.6239157,-8.792563,4.027917
1409522519468,6.2123547,-15.886725,-5.9759274,-0.72218937,-9.252751,3.167872
1409522519478,4.3981485,-15.976508,-5.7736173,-1.4496144E-4,-9.568449,2.1482983
1409522519496,2.5929205,-16.121956,-4.285621,0.43311378,-9.706186,1.3314424
1409522519498,1.7375919,-16.461933,-2.2870612,0.63682085,-9.754009,0.7900173
1409522519511,1.5275006,-14.264055,-1.8644845,0.7134645,-9.768743,0.4827397
1409522519530,2.0207062,-11.044453,-2.0644004,0.7572619,-9.774274,0.24600306
1409522519531,2.2559366,-9.012972,-1.8650831,0.8468024,-9.769976,0.029786652
1409522519547,2.682703,-7.9792757,-0.85772276,0.9601836,-9.758491,-0.1424965
1409522519548,3.6098576,-7.5830355,-0.7691373,1.1232526,-9.739686,-0.2172925
1409522519566,3.5242648,-7.7201033,-0.78290397,1.3720553,-9.706504,-0.26767537
1409522519566,2.942474,-7.726089,-0.8846575,1.6020956,-9.669874,-0.31179917
1409522519581,2.058415,-7.7159133,-1.3275849,1.7750132,-9.637681,-0.36718965
1409522519601,1.5765818,-7.700351,-1.4909891,1.8651483,-9.616088,-0.4716776
1409522519601,1.8100165,-7.743447,-1.471237,1.89909,-9.603161,-0.58580554
1409522519607,2.3080103,-8.191761,-1.4185646,1.9363068,-9.589021,-0.6868693
1409522519630,2.1170728,-9.387066,-1.5263035,1.9988647,-9.569727,-0.77153736
1409522519631,0.98940384,-11.432313,-1.6687586,2.0195544,-9.558105,-0.8569623
1409522519655,-0.58538234,-13.793594,-1.7687165,1.3158798,-9.664667,-1.0164
1409522519656,-1.3359646,-13.962984,-1.5999253,1.3158798,-9.664667,-1.0164
1409522519658,-1.471237,-12.536638,-1.5819688,1.3158798,-9.664667,-1.0164
1409522519667,-1.1097125,-11.038467,-1.6711528,1.0368948,-9.69671,-1.0339631
1409522519688,-1.3072342,-10.203489,-1.8483237,0.81283206,-9.7165165,-1.0483347
1409522519688,-1.9009962,-9.677961,-1.6047137,0.59185237,-9.729502,-1.0755895
1409522519719,-2.2750902,-9.194932,-1.5191209,0.34468818,-9.739444,-1.093086
1409522519720,-2.0745757,-8.740632,-2.067393,0.093877725,-9.741895,-1.1211691
1409522519720,-1.697489,-8.037933,-3.028665,-0.12130086,-9.730849,-1.2108991
1409522519729,-2.956839,-7.845799,-3.383007,-0.29468846,-9.701256,-1.4032828
1409522519761,-3.9396589,-8.352771,-2.7994204,-0.5783444,-9.652465,-1.6327368
1409522519762,-3.027468,-8.166023,-2.1260512,-0.9211706,-9.5914955,-1.8234705
1409522519762,-2.4744074,-7.9966335,-2.348712,-1.1343977,-9.537837,-1.9781799
1409522519783,-2.1697452,-8.1558485,-2.4678235,-1.274187,-9.488024,-2.1270273
1409522519784,-2.4953568,-9.146449,-1.673547,-1.3654093,-9.450851,-2.2332623
1409522519797,-2.0171149,-9.672575,-0.8870517,-1.46937,-9.440982,-2.2088983
1409522519798,-1.3802572,-10.043676,-0.8265981,-1.5017464,-9.463595,-2.0869794
1409522519815,-0.61770403,-10.257957,-0.74998367,-1.4754356,-9.494349,-1.9623499
1409522519829,-0.24959552,-10.412982,-0.55605334,-1.3838872,-9.531331,-1.8463434
1409522519830,-0.30645782,-10.435727,-0.41599256,-1.2576822,-9.57077,-1.72886
1409522519852,-0.5979519,-10.423756,-0.43514615,-1.1442417,-9.605517,-1.6109432
1409522519852,-0.8182184,-10.4249525,-0.48243165,-1.071175,-9.630554,-1.508433
1409522519858,-0.825401,-10.403405,-0.43155485,-1.033412,-9.648295,-1.4187467
1409522519888,-0.87567925,-10.497377,-0.39384618,-1.0028335,-9.662991,-1.3384134
1409522519889,-1.0402806,-10.934917,-0.3309984,-0.9873405,-9.674668,-1.2634578
1409522519889,-1.3443443,-11.766903,-0.207697,-0.9869908,-9.683613,-1.1932585
1409522519898,-1.6053122,-12.659342,-0.019153614,-1.0072899,-9.690609,-1.1170876
1409522519919,-1.7142484,-13.310564,0.31483752,-1.0403622,-9.696534,-1.0321202
1409522519919,-1.6681601,-13.620613,1.2162545,-1.0745025,-9.703505,-0.926202
1409522519927,-1.2186487,-12.365453,7.663241,-1.0991216,-9.715747,-0.7527039
1409522519954,-0.86370826,-11.774085,14.931438,-1.0998518,-9.744709,-0.03707587
1409522519954,-2.995745,-13.824719,17.35916,-1.0723087,-9.674058,1.1971365
1409522519958,-6.214749,-15.349227,5.3139305,-1.0903336,-9.710288,0.83180296
1409522519993,-5.8065376,-14.466365,-4.238934,-1.5175992,-9.383033,2.4137042
1409522519993,-4.602853,-14.33648,-5.599439,-1.8212724,-9.435526,1.955554
1409522519994,-4.6782703,-15.221137,-3.6248214,-1.9644167,-9.487191,1.51811
1409522520045,-4.8362875,-14.644733,-0.74758947,-2.0330005,-9.522498,1.1659049
1409522520046,-6.4864907,-14.774619,2.484583,-2.120554,-9.521874,1.0037739
1409522520047,-7.398083,-14.568717,8.738836,-2.3234274,-9.475915,0.9894987
1409522520048,-6.8210807,-14.2042,10.2657385,-2.5759382,-9.350508,1.4501541
1409522520048,-5.1487308,-12.855666,4.7321396,-2.785252,-9.188289,1.9970249
1409522520051,-3.520075,-12.607866,1.4514848,-2.9300795,-9.099094,2.1889575
1409522520075,-3.176507,-13.639169,1.6645688,-2.972812,-9.086339,2.1843114
1409522520076,-3.2483332,-13.624205,-0.65242,-2.9297948,-9.102108,2.176768
1409522520079,-3.086126,-12.467207,-5.497087,-2.874938,-9.161383,1.9935371
1409522520100,-2.8089972,-11.430517,-8.384495,-2.8539977,-9.264455,1.4815408
1409522520101,-1.1067197,-11.428123,-7.934983,-2.85704,-9.35052,0.75859237
1409522520107,0.40880993,-14.140155,-6.527791,-2.7317843,-9.417923,0.10219452
1409522520132,2.144606,-18.401236,-4.9015293,-2.4614127,-9.485012,-0.38258734
1409522520133,4.8021703,-19.608511,-0.7763199,-2.046542,-9.567952,-0.66055876
1409522520139,8.903438,-19.608511,5.294777,-1.491612,-9.673299,-0.61054224
1409522520147,10.368689,-19.608511,6.510433,-1.725667,-9.646685,-0.36594677
1409522520168,5.8322754,-16.882713,2.9586349,-1.9222887,-9.61594,-0.09441116
1409522520168,2.2373815,-14.520235,-4.518457,0.44103813,-9.785939,0.45961285
1409522520180,1.30484,-12.759299,-7.2406645,0.59756756,-9.786893,0.17326735
1409522520193,1.2455834,-10.514735,-5.2439003,0.67685735,-9.779658,-0.26558718
1409522520199,1.8082209,-8.987235,-2.630629,0.7050386,-9.763579,-0.58809566
1409522520212,3.084929,-8.49343,-1.9141643,0.7438664,-9.748399,-0.76534694
1409522520227,3.5673606,-8.243237,-3.2106245,0.8767814,-9.728413,-0.87155545
1409522520228,2.753332,-7.3699512,-5.7784057,1.0631661,-9.694284,-1.0300109
1409522520251,1.982399,-5.6269727,-7.9912467,1.2087492,-9.633103,-1.382987
1409522520252,-0.39564183,-4.0761285,-10.912173,1.3195555,-9.528613,-1.906483
1409522520259,-2.1188686,-4.1802764,-6.9689226,1.2383368,-9.34254,-2.7118082
1409522520290,-1.9668367,-4.9278655,-1.2467805,1.0023583,-9.217684,-3.1937377
1409522520291,-0.90381116,-5.4049106,-1.6172832,0.7555036,-9.248895,-3.171365
1409522520291,-0.023942016,-5.3438582,-1.7345991,0.557491,-9.255361,-3.193421
1409522520325,1.4460979,-4.923676,-1.6184803,0.46536946,-9.251187,-3.2201464
1409522520326,2.207454,-4.019266,-2.544438,0.5880086,-9.244163,-3.2202609
1409522520326,2.5222914,-3.196858,-3.1250317,0.801808,-9.187874,-3.3332384
1409522520327,2.7994204,-2.6282349,-3.333926,1.0576696,-9.084865,-3.537937
1409522520354,3.5212722,-2.0745757,-2.6007016,1.3552502,-8.944408,-3.785662
1409522520355,4.2479124,-1.8968062,-2.4301147,1.7560827,-8.790707,-3.9761891
1409522520362,4.8201265,-2.0021513,-2.7401638,2.2592278,-8.595888,-4.1445165
1409522520391,5.3779755,-2.1350293,-3.3686419,2.8303795,-8.339663,-4.3138595
1409522520392,5.4779334,-2.1410148,-3.9905357,3.4366772,-8.002297,-4.5080924
1409522520393,5.2379146,-1.7992426,-4.7884035,3.980262,-7.6146555,-4.727041
1409522520429,4.8895583,-1.5496471,-4.4340615,4.4235406,-7.153356,-5.0430317
1409522520430,4.7536874,-1.9865888,-2.77069,4.801532,-6.7125344,-5.2969375
1409522520430,4.212598,-3.9995139,0.20410569,5.1667356,-6.4208474,-5.3148804
1409522520431,2.598906,-8.6712,7.12694,5.4531636,-6.515869,-4.8966146
1409522520460,-6.0465565,-17.671003,19.525314,5.4672027,-7.4012527,-3.3913956
1409522520461,-19.298462,-19.608511,19.608511,5.53406,-7.237287,-3.6285267
1409522520462,-19.482817,-19.608511,15.752051,5.5784793,-7.0899105,-3.8450177
1409522520495,-11.717223,-19.343952,7.740454,5.5565844,-6.981988,-4.0677495
1409522520496,-8.735245,-12.856863,6.498462,5.464106,-6.9607806,-4.22628
1409522520496,-7.517793,-7.0132155,6.595427,-2.953834,-8.629242,3.6029758
1409522520529,-2.4450784,-5.599439,5.035006,-3.4070911,-8.40142,3.738753
1409522520530,1.6621746,-7.0970125,2.9340942,-3.4296896,-8.301156,3.9368024
1409522520530,6.029797,-15.015835,-1.8567034,-3.0359106,-8.405563,4.0373435
1409522520531,7.8595657,-19.608511,-4.5262384,-2.0862005,-8.922993,3.4926171
1409522520565,5.0667295,-19.608511,-3.1908724,-1.0706682,-9.395835,2.596604
1409522520565,0.30166942,-16.451159,4.5543704,-0.45601097,-9.604178,1.9293005
1409522520566,0.9504981,-10.757148,-0.75836337,-0.34428895,-9.584903,2.0448701
1409522520568,3.2375593,-8.417415,-6.3033347,-0.22573593,-9.631365,1.8320056
1409522520579,4.12102,-5.9801173,-4.8506527,0.056572076,-9.729458,1.2267177
1409522520599,3.828927,-4.2401314,-2.8736405,0.40903205,-9.767373,0.77556294
1409522520602,3.1334114,-4.050989,-1.9716251,0.7561156,-9.765834,0.47661594
1409522520608,3.608062,-4.5280337,-2.0655975,1.052477,-9.747012,0.2417267
1409522520635,4.678869,-5.8226986,-2.6288335,1.3888433,-9.707799,0.011465982
1409522520636,5.037999,-7.968502,-3.5859156,1.8118597,-9.633729,-0.28078678
1409522520639,4.5232453,-9.81922,-4.3520603,2.208715,-9.533082,-0.6420862
1409522520673,3.669114,-10.773309,-4.039018,2.4740498,-9.43219,-1.0407956
1409522520674,3.8139634,-10.299856,-3.2626984,2.5884118,-9.361329,-1.3549954
1409522520674,3.8738184,-9.811439,-2.6204538,2.6922562,-9.299817,-1.5606226
1409522520680,3.618836,-9.568427,-2.0153193,2.785267,-9.249302,-1.6920629
1409522520700,2.92751,-9.7719345,-1.9835961,2.8574462,-9.216206,-1.7512732
1409522520701,2.0254946,-10.332776,-2.2499511,2.8549137,-9.206484,-1.8056846
1409522520709,0.8858546,-11.580753,-2.147599,2.7787912,-9.218897,-1.8602842
1409522520728,0.14963761,-12.568362,-1.553837,2.5760958,-9.272046,-1.8876661
1409522520728,0.34715924,-12.078149,-0.8391677,2.3110788,-9.352271,-1.8342146
1409522520750,0.516549,-10.590752,-0.11851298,2.0917094,-9.426697,-1.712454
1409522520750,5.985504E-4,-9.389461,-0.18136078,1.9202255,-9.4939375,-1.5323955
1409522520759,-0.88286185,-9.482835,-1.5107412,1.7342691,-9.555469,-1.3622552
1409522520778,-2.0428526,-9.365519,-2.071583,1.4855075,-9.598579,-1.3531162
1409522520791,-2.5246856,-8.965687,-3.1890767,1.1499004,-9.642734,-1.3659335
1409522520791,-1.9572599,-8.875306,-3.4811692,0.7803648,-9.657087,-1.5172592
1409522520812,-3.354875,-10.138845,-3.603872,0.48055854,-9.639908,-1.7354034
1409522520812,-4.0982747,-10.58297,-3.0418332,0.07473288,-9.601509,-1.9939427
1409522520827,-3.903746,-9.749189,-3.095703,-0.29954264,-9.552904,-2.1960588
1409522520828,-3.29502,-8.807071,-3.4009635,-0.5932199,-9.498371,-2.366319
1409522520842,-2.2230163,-8.382699,-2.4624364,-0.8323101,-9.442797,-2.5122213
1409522520875,-2.0817583,-9.061455,-1.8974048,-0.9709523,-9.420657,-2.5453649
1409522520876,-2.1631613,-9.959281,-1.4502877,-1.0889962,-9.424888,-2.4811218
1409522520877,-1.7998412,-10.433931,-0.60932434,-1.1989766,-9.443632,-2.355979
1409522520879,-1.4281414,-10.62427,0.110133275,-1.2552307,-9.482001,-2.1648164
1409522520893,-1.3503298,-10.660782,0.2172738,-1.2670646,-9.528666,-1.9415164
1409522520916,-1.5185224,-10.538677,0.17417817,-1.2658894,-9.567813,-1.7392178
1409522520917,-1.7429788,-10.675147,0.33877954,-1.2786667,-9.595772,-1.5673383
1409522520919,-1.9458874,-11.11568,0.95349085,-1.308977,-9.618408,-1.393998
1409522520928,-2.1452048,-11.864467,1.6412252,-1.351886,-9.639993,-1.1888392
1409522520950,-2.1799207,-12.600085,3.767875,-1.4035254,-9.659877,-0.9419438
1409522520951,-1.400608,-12.0170965,6.0770826,-1.4500283,-9.6846075,-0.5254998
1409522520962,-0.623091,-11.678317,6.555324,-1.439067,-9.700409,0.039230082
1409522520983,-0.6266823,-12.266094,6.7318964,-1.3793467,-9.694846,0.5270343
1409522520984,-0.80924016,-12.834717,7.1544733,-1.3264924,-9.673558,0.9127099
1409522520988,-1.2958617,-13.130401,9.9550905,-1.2862347,-9.634452,1.3012838
1409522521026,-3.1830912,-13.276447,11.518504,-1.3066908,-9.531733,1.8997437
1409522521027,-4.7123876,-12.097901,0.6775591,-1.4438026,-9.34693,2.5924346
1409522521029,-4.8757915,-11.922526,-6.072294,-1.674021,-9.330065,2.5135534
1409522521030,-5.6910176,-13.467384,-9.251794,-1.8721313,-9.413983,2.0105724
1409522521062,-5.2355204,-14.750677,-6.8947024,-2.064366,-9.513126,1.1870989
1409522521066,-6.1369376,-15.101427,-3.0921116,-2.177957,-9.548164,0.5093568
1409522521067,-7.0634937,-15.12118,-0.010773907,-2.3547847,-9.518352,0.16233952
1409522521105,-7.109582,-14.622587,2.2840683,-2.5792568,-9.460425,0.13479923
1409522521106,-6.218939,-14.292187,6.225523,-2.7830646,-9.400415,0.23904556
1409522521106,-5.7478795,-15.054142,9.624092,-2.919191,-9.339879,0.6444921
1409522521107,-4.458602,-15.150508,8.134899,-2.9995234,-9.250622,1.2646108
1409522521108,-3.0202854,-14.432248,3.8959646,-2.9993665,-9.173458,1.7383454
1409522521137,-2.8095956,-13.995306,1.0857705,-2.9497688,-9.155654,1.9087367
1409522521139,-2.871845,-13.095685,0.3561375,-2.8947313,-9.180192,1.8748347
1409522521142,-3.1346085,-12.638392,-2.7126305,-2.842062,-9.214049,1.7872843
1409522521170,-3.0065188,-13.122021,-5.7179523,-2.8130453,-9.274699,1.4956969
1409522521170,-2.3427265,-11.672332,-7.5866265,-2.7986393,-9.347332,0.98253894
1409522521171,-1.7537527,-10.144831,-7.543531,-2.7696266,-9.400216,0.36811456
1409522521200,-1.4167689,-10.211869,-7.430405,-2.720929,-9.419129,-0.21668942
1409522521201,-0.25917232,-10.994773,-6.389526,-2.6414242,-9.41488,-0.74384516
1409522521203,2.7168205,-19.149424,-1.1228806,-2.4766493,-9.420038,-1.1399602
1409522521208,5.6443305,-19.608511,3.4715924,-2.00207,-9.543857,-1.0377345
1409522521228,10.594342,-19.608511,3.9695864,-1.3769021,-9.688352,-0.6406043
1409522521229,9.965266,-19.469648,2.3876176,-1.6453049,-9.659937,-0.3859772
1409522521243,5.4114943,-15.721525,-2.2852654,-1.8851235,-9.623344,-0.08910847
1409522521266,2.0446482,-12.806585,-6.6870055,0.5654615,-9.788758,-0.17559513
1409522521267,0.6907272,-10.883442,-7.606379,0.71917003,-9.764759,-0.5501273
1409522521268,0.4429273,-9.939528,-5.81791,0.76211077,-9.726116,-0.9961241
1409522521302,1.6436194,-9.659407,-2.368464,0.7357886,-9.686427,-1.3424302
1409522521302,2.3349452,-9.491813,-3.0831332,0.76166654,-9.6707325,-1.4377742
1409522521303,2.0763714,-7.9307933,-2.8353333,0.8474857,-9.644629,-1.5598984
1409522521308,1.3102269,-5.667674,-4.569334,0.9294462,-9.619264,-1.6662209
1409522521332,0.30765492,-4.079121,-9.2069025,0.9833035,-9.565516,-1.9246751
1409522521333,-0.31783026,-3.726575,-10.452486,0.97369045,-9.410198,-2.5827281
1409522521340,0.39863458,-4.1174283,-5.1241903,0.9190727,-9.179379,-3.3263574
1409522521371,1.0175357,-4.6166196,-2.349909,0.9294261,-9.071483,-3.607599
1409522521372,1.9195513,-3.8295257,-1.4047978,0.94469374,-9.04188,-3.677282
1409522521373,2.6719291,-3.1292217,-0.9636662,1.0228522,-9.017863,-3.715143
1409522521410,2.8431146,-2.5893292,-1.9752164,1.2332073,-8.997689,-3.7001593
1409522521410,3.433884,-1.7405846,-2.336741,1.5086513,-8.916901,-3.792524
1409522521411,3.9671922,-1.0079589,-2.0620062,1.8873417,-8.780061,-3.9393976
1409522521412,3.965995,-0.931943,-2.9783869,2.3572052,-8.597602,-4.085979
1409522521433,4.622605,-0.8924387,-2.967613,2.814905,-8.330243,-4.342091
1409522521434,5.032612,-0.92535895,-2.8353333,3.3583968,-8.000226,-4.5703344
1409522521443,5.0427876,-1.0181342,-3.1741128,3.9402437,-7.6245446,-4.7446003
1409522521466,4.7985787,-1.4371196,-3.4518404,4.4603395,-7.2170677,-4.9183016
1409522521466,4.720767,-1.8549078,-3.2974143,4.875037,-6.8168325,-5.092662
1409522521469,4.4639893,-2.5516205,-2.795829,5.2297993,-6.4703584,-5.1917295
1409522521498,3.3770216,-4.216788,-1.2312182,5.4982743,-6.246066,-5.189033
1409522521498,1.0899603,-7.945757,3.2070332,5.587254,-6.3493714,-4.9637156
1409522521502,-2.6557682,-15.625757,15.751453,5.337489,-7.153277,-4.0635266
1409522521518,-14.033014,-19.608511,19.608511,5.3862348,-6.984211,-4.2871513
1409522521550,-19.60911,-19.608511,18.138472,5.4196568,-6.808202,-4.5217347
1409522521551,-17.76737,-19.608511,10.142437,5.4129176,-6.654417,-4.7528334
1409522521553,-8.244433,-14.452599,5.5060654,5.327522,-6.6022425,-4.919178
1409522521553,-7.8170686,-9.627085,4.847061,-3.0632396,-8.632348,3.5027862
1409522521563,-4.955399,-7.9086466,5.4737434,-3.463822,-8.500099,3.452629
1409522521580,-2.2182279,-8.294113,6.4242415,-3.575514,-8.403474,3.5731957
1409522521580,-1.1923125,-8.082825,6.3230867,-3.4531846,-8.336064,3.8413455
1409522521588,-0.6901286,-7.6051817,3.7283707,-3.2084916,-8.295402,4.1306534
1409522521614,1.5221137,-9.937134,0.025737667,-2.9412947,-8.352806,4.213054
1409522521614,4.3167458,-15.576676,-6.8623805,-2.517257,-8.636308,3.9048717
1409522521622,4.5100775,-17.277756,-8.515577,-1.838043,-9.192358,2.8796759
1409522521649,2.7090392,-14.502877,-5.8424506,-1.1982936,-9.571034,1.7691154
1409522521650,1.9488802,-13.1315975,-1.252766,-0.7976646,-9.716346,1.0614879
1409522521651,1.9782091,-14.204799,2.1320367,-0.525026,-9.757479,0.82847345
1409522521660,3.329736,-13.701418,-0.39205053,-0.28015637,-9.761765,0.8943409
1409522521679,3.393781,-12.485762,-0.30346507,0.04679887,-9.777201,0.75799793
1409522521696,3.8959646,-10.3932295,0.40402153,0.3287351,-9.779163,0.6559794
1409522521696,5.0092683,-7.6201453,0.15203181,0.6171537,-9.768771,0.6005106
1409522521700,5.035605,-7.2568254,0.010773907,0.97544837,-9.743772,0.5270897
1409522521708,4.483143,-7.715315,-1.062427,1.3336577,-9.702765,0.49810386
1409522521730,3.4374752,-8.632295,-2.059612,1.6600025,-9.656876,0.3994006
1409522521730,2.4037786,-8.70831,-2.5617957,1.8712641,-9.624507,0.19394115
1409522521742,2.059612,-7.881712,-2.6060886,1.9603599,-9.608532,-0.059086103
1409522521760,2.517503,-7.657854,-2.0081367,2.008828,-9.59388,-0.30411944
1409522521760,2.8215668,-8.305486,-1.9740193,2.098582,-9.567624,-0.47635874
1409522521774,2.6779146,-8.966884,-1.9494787,2.199488,-9.535777,-0.63370764
1409522521793,1.8154035,-10.22384,-1.9812019,2.2781632,-9.506937,-0.77365154
1409522521796,0.16759412,-12.813767,-2.03567,2.2561967,-9.501459,-0.8956746
1409522521809,-1.3443443,-14.495095,-2.2200236,2.0424218,-9.540135,-0.99233407
1409522521809,-2.1045034,-13.829508,-2.2230163,1.6931434,-9.598949,-1.0788082
1409522521822,-1.7106571,-11.447277,-1.8249803,1.3123254,-9.650507,-1.1471435
1409522521837,-1.0833763,-9.445126,-1.6328455,1.023143,-9.680712,-1.1863381
1409522521840,-0.6584055,-8.802881,-1.5981296,0.80135703,-9.700218,-1.197501
1409522521855,-0.3788824,-8.3150625,-1.9147629,0.62978786,-9.71193,-1.2050664
1409522521871,0.29209262,-7.680599,-2.3798366,0.510565,-9.712009,-1.2596073
1409522521871,0.42437226,-7.0066314,-2.9299042,0.48252195,-9.69609,-1.3868717
1409522521891,-2.0757728,-7.6387005,-5.029619,0.4858932,-9.663849,-1.5950902
1409522521892,-3.930082,-9.232041,-5.2319293,0.24172552,-9.594107,-2.0162
1409522521909,-3.4021606,-9.34397,-3.803788,-0.14439766,-9.50399,-2.4132366
1409522521910,-2.5007436,-8.444349,-3.353678,-0.41458443,-9.448116,-2.5945332
1409522521929,-2.4366987,-8.82802,-2.8167782,-0.61902475,-9.396152,-2.7385314
1409522521946,-2.4941597,-9.63726,-1.448492,-0.8081211,-9.372995,-2.7684348
1409522521947,-2.6821043,-10.212467,-1.1372458,-0.9857789,-9.396845,-2.626396
1409522521949,-2.2529438,-10.068216,-1.3036429,-1.1562276,-9.420534,-2.467208
1409522521961,-1.7052702,-9.870695,-1.0588357,-1.2739812,-9.431938,-2.363444
1409522521974,-1.3994108,-9.721058,-0.3788824,-1.3269871,-9.448185,-2.267454
1409522521990,-1.079785,-9.889849,0.18315643,-1.3361673,-9.482267,-2.1146307
1409522521991,-0.98341835,-10.601525,0.6242881,-1.3188088,-9.523816,-1.9308112
1409522522012,-1.4041992,-11.608886,0.7649474,-1.2768928,-9.572244,-1.7064725
1409522522013,-1.9333179,-12.361263,0.8583213,-1.2610219,-9.61289,-1.4739574
1409522522020,-2.2882583,-12.762292,1.1097125,-1.2842721,-9.64175,-1.2480738
1409522522045,-2.2936451,-12.56058,1.5640123,-1.339381,-9.660541,-1.0248835
1409522522046,-1.9488802,-12.123639,4.0438066,-1.4027661,-9.673491,-0.79133505
1409522522049,-1.4215573,-11.6585655,7.389105,-1.4403278,-9.693318,-0.36798987
1409522522082,-1.2108675,-12.049418,7.245453,-1.4232203,-9.69818,0.3002113
1409522522084,-1.745373,-12.951434,6.1447186,-1.3870488,-9.672245,0.8331534
1409522522084,-2.3780408,-13.075334,4.830302,-1.4011507,-9.6408825,1.1227483
1409522522090,-2.6150668,-12.178705,5.7227407,-1.4837387,-9.611472,1.260372
1409522522114,-2.5157075,-11.432912,11.247959,-1.5889614,-9.553892,1.5390668
1409522522115,-3.333926,-11.730989,4.35625,-1.6887913,-9.381223,2.304571
1409522522121,-5.381567,-13.409326,-3.292626,-1.7857194,-9.299712,2.5489092
1409522522145,-6.1824274,-13.867216,-7.035362,-1.9654,-9.370786,2.1203642
1409522522146,-4.7620673,-13.170504,-6.9904704,-2.1865265,-9.440677,1.5043609
1409522522150,-3.6822822,-12.758102,-3.168726,-2.291035,-9.495192,0.8734388
1409522522177,-5.602432,-12.295423,0.7673417,-2.3344054,-9.51105,0.5107617
1409522522178,-5.9944825,-12.832322,2.4929626,-2.4975662,-9.472221,0.45775944
1409522522181,-4.380192,-13.043611,5.7095723,-2.64714,-9.426697,0.548081
1409522522189,-3.245939,-13.4500265,7.6135616,-2.6887424,-9.388185,0.89612234
1409522522212,-3.5523968,-13.602657,7.5590935,-2.666996,-9.33593,1.3776629
1409522522213,-4.4316673,-13.399749,4.299388,-2.6586895,-9.268495,1.7879511
1409522522223,-4.8380833,-12.838906,0.7158663,-2.7298484,-9.207067,1.9870242
1409522522245,-4.8757915,-12.889185,-0.6655881,-2.8474774,-9.187966,1.9088066
1409522522245,-5.1780596,-12.934076,-1.401805,-2.9506133,-9.192931,1.7188123
1409522522250,-5.270835,-12.956223,-3.86903,-3.0512326,-9.199443,1.4935161
1409522522280,-4.549582,-13.226169,-5.405509,-3.149432,-9.218723,1.1254265
1409522522281,-3.0819361,-11.960834,-5.60722,-3.2014968,-9.245883,0.659146
1409522522283,-2.0039468,-9.862315,-6.1117983,-3.1845548,-9.272746,0.21259142
1409522522289,-1.3431472,-9.56723,-6.241684,-3.1199026,-9.293272,-0.26772887
1409522522314,0.20231004,-15.304336,-4.899135,-3.0206976,-9.302369,-0.7153382
1409522522314,1.3036429,-19.393034,-2.2661119,-2.7048218,-9.37532,-0.9786276
1409522522321,3.9001546,-19.608511,2.9526494,-2.2915976,-9.485157,-0.9750636
1409522522351,8.382699,-19.608511,3.9199066,-1.7566891,-9.628941,-0.6065923
1409522522351,10.885238,-19.608511,2.6156654,-0.9895806,-9.75364,-0.2400178
1409522522352,8.133701,-16.473305,-2.1003134,-1.240665,-9.727741,0.046545863
1409522522383,4.362834,-12.609662,-6.6564794,0.36576107,-9.798983,-0.12855463
1409522522383,1.8662802,-10.770915,-6.2746043,0.65999943,-9.771052,-0.511186
1409522522384,0.664391,-10.474034,-4.675876,0.8170807,-9.734919,-0.85679716
1409522522390,1.1563994,-10.59554,-3.957017,0.8472107,-9.70538,-1.1217142
1409522522414,2.5725696,-9.668385,-4.1120415,0.8553651,-9.675947,-1.3471514
1409522522415,2.9251158,-7.277176,-2.1398177,0.94219816,-9.636606,-1.5551456
1409522522421,1.3994108,-5.3965306,-4.8416743,1.0719624,-9.611515,-1.6248405
1409522522451,0.9600749,-3.8241386,-7.7560163,1.1204098,-9.549942,-1.9270921
1409522522453,1.2605472,-3.804985,-6.809708,1.1597686,-9.417734,-2.4762077
1409522522453,1.0690111,-4.917092,-5.003283,1.2183503,-9.279494,-2.9286518
1409522522490,1.2515689,-5.522825,-2.8377275,1.2464871,-9.183407,-3.2065094
1409522522491,1.6699557,-4.9853263,-1.1767502,1.2697088,-9.146285,-3.3020763
1409522522491,2.0626047,-4.3329067,-1.0911574,1.3258576,-9.143094,-3.2888224
1409522522491,2.5791538,-3.8163576,-1.7304093,1.4430338,-9.129792,-3.2764242
1409522522518,3.0986955,-2.8909986,-2.1374235,1.644476,-9.080794,-3.3174255
1409522522519,3.2052376,-2.1948843,-2.071583,1.9321436,-8.987553,-3.4148412
1409522522523,3.1334114,-2.043451,-2.5157075,2.2582984,-8.865963,-3.5306058
1409522522554,3.714604,-1.8644845,-2.5312698,2.5742424,-8.705634,-3.7088547
1409522522555,4.137779,-1.8567034,-2.4642322,2.968212,-8.499004,-3.8893554
1409522522556,4.4274774,-1.678934,-2.7114334,3.4088724,-8.257226,-4.0457683
1409522522578,4.658518,-1.1133038,-3.5733461,3.873376,-7.9585433,-4.2224364
1409522522579,5.0493712,-0.8283938,-3.9187095,4.346644,-7.547936,-4.506188
1409522522583,5.3037553,-1.0941502,-3.5296519,4.833621,-7.0579944,-4.794917
1409522522590,5.6407394,-1.9740193,-2.4067712,5.2907567,-6.6010375,-4.960301
1409522522611,5.3779755,-3.7217865,0.23163901,5.7330294,-6.261359,-4.908989
1409522522612,3.3913867,-8.210316,8.825027,6.1100135,-6.252811,-4.4430265
1409522522621,-7.487866,-18.154633,19.608511,6.2186074,-7.107728,-2.6418781
1409522522646,-19.564817,-19.608511,19.490597,6.3080773,-6.945793,-2.8521073
1409522522647,-19.60911,-19.608511,11.849503,6.386179,-6.7885275,-3.0500827
1409522522650,-14.348451,-19.604921,7.117962,6.3765826,-6.703012,-3.2525663
1409522522680,-9.548077,-14.247295,6.232107,6.332157,-6.654127,-3.4346385
1409522522680,-7.3926964,-8.68796,6.7863646,-3.1564527,-8.635799,3.410303
1409522522681,-3.5583823,-7.113772,5.886145,-3.5454857,-8.429348,3.5420372
1409522522690,-0.7906851,-6.479907,4.1677065,-3.580863,-8.304147,3.7932754
1409522522714,1.4425066,-5.872977,3.2974143,-3.3949301,-8.285978,3.9984248
1409522522714,4.957793,-10.21127,-0.16460137,-3.0167916,-8.359709,4.145435
1409522522722,6.787562,-17.958906,-4.6782703,-2.263986,-8.735769,3.8381116
1409522522746,5.1170077,-19.446903,-5.7269306,-1.3165663,-9.2740965,2.9031289
1409522522747,1.6166847,-16.22371,-0.36152446,-0.6789675,-9.583538,1.9660097
1409522522750,1.0528502,-13.51886,2.5252843,-0.41868484,-9.649692,1.6966305
1409522522776,4.0958805,-11.474811,-2.722806,-0.27146745,-9.654016,1.70197
1409522522776,4.000711,-9.88925,-5.397728,0.099159464,-9.713411,1.3454455
1409522522782,2.5803509,-9.476251,-3.606865,0.42645344,-9.760302,0.85149646
1409522522790,3.0017304,-8.181585,-2.5145104,0.63163406,-9.7750845,0.46810734
1409522522810,4.465186,-6.1100025,-3.469797,0.86210227,-9.767845,0.12809534
1409522522810,4.88058,-6.306926,-4.830302,1.2070675,-9.729328,-0.23149961
1409522522824,4.099472,-8.376115,-6.415862,1.5939658,-9.651658,-0.689329
1409522522848,3.5087025,-9.976639,-6.149507,1.8686078,-9.546953,-1.2387193
1409522522849,3.448249,-9.888053,-3.8744168,2.0327885,-9.44013,-1.7094203
1409522522850,3.4290953,-9.006389,-1.0013748,2.1572392,-9.368645,-1.9352491
1409522522881,3.120842,-9.277532,-0.82599956,2.2784393,-9.3490095,-1.8908132
1409522522882,2.932897,-9.795278,-0.9463082,2.3628612,-9.342619,-1.8173499
1409522522884,2.5617957,-10.332776,-1.1306617,2.4289665,-9.340789,-1.7378683
1409522522890,2.1296425,-10.925341,-1.1976994,2.4448993,-9.34917,-1.6691023
1409522522911,1.6250644,-11.675324,-1.3030443,2.4210026,-9.3660345,-1.6082746
1409522522911,0.6183026,-12.90774,-1.359308,2.3445623,-9.394674,-1.5535481
1409522522922,-0.5979519,-13.902531,-1.2575544,2.159075,-9.44781,-1.4992244
1409522522944,-0.8146271,-12.712014,-0.82599956,1.8672677,-9.5199995,-1.4329426
1409522522945,-0.4758476,-10.641628,-0.29927522,1.5964173,-9.58205,-1.3439269
1409522522951,-0.65780693,-9.539098,-0.17298107,1.3903368,-9.629334,-1.2301568
1409522522976,-1.0342951,-8.958505,-0.40880993,1.1894925,-9.668073,-1.1330799
1409522522977,-1.0833763,-8.446744,-0.4818331,0.991851,-9.699021,-1.0562124
1409522522981,-0.9564836,-8.127118,-0.82779527,0.805382,-9.722287,-0.99942726
1409522522990,-0.5770026,-7.988254,-1.899799,0.64653647,-9.734857,-0.9924486
1409522523012,-1.4107834,-8.459911,-3.032855,0.5347738,-9.730243,-1.0985476
1409522523013,-3.1573534,-9.631873,-3.9653966,0.35045683,-9.712142,-1.3122096
1409522523021,-2.741361,-9.630676,-3.0262709,0.016457506,-9.673844,-1.6083757
1409522523042,-2.2571337,-9.272144,-2.0039468,-0.23414749,-9.63481,-1.8127387
1409522523043,-2.255338,-9.257779,-1.1737574,-0.41829264,-9.615734,-1.8796482
1409522523050,-2.5995045,-9.275137,-0.30945057,-0.60481447,-9.606351,-1.8768648
1409522523079,-3.6595373,-9.415796,0.091578215,-0.8056866,-9.612316,-1.7676649
1409522523079,-4.611831,-9.870096,0.7086837,-1.0898288,-9.612406,-1.6075842
1409522523082,-4.817134,-10.311827,0.87807345,-1.4357626,-9.602441,-1.3791779
1409522523090,-3.9971197,-10.242993,0.7505822,-1.7635978,-9.578233,-1.1478502
1409522523114,-3.0520086,-9.719262,0.7649474,-1.9864994,-9.555124,-0.9611575
1409522523114,-2.7365725,-9.254189,0.9223662,-2.108728,-9.542664,-0.81316936
1409522523124,-2.7976246,-9.181165,0.89782566,-2.1826527,-9.536764,-0.6756773
1409522523149,-2.8054059,-9.521142,0.7667431,-2.2545385,-9.52808,-0.5505681
1409522523150,-2.9352913,-10.034698,0.6374562,-2.2999513,-9.522541,-0.44924924
1409522523152,-3.095703,-10.472239,0.54408234,-2.3394551,-9.516435,-0.36715826
1409522523174,-3.151368,-10.881048,0.51954174,-2.379673,-9.508825,-0.2996144
1409522523174,-3.3333273,-11.225215,0.5943606,-2.4131598,-9.502076,-0.23998015
1409522523192,-3.6014779,-11.906963,0.5141548,-2.4536948,-9.493016,-0.17998457
1409522523193,-3.9665937,-12.585121,1.3515269,-2.4977965,-9.482183,-0.14001915
1409522523201,-4.006098,-12.700642,2.8766334,-2.5548017,-9.467974,-0.02937398
1409522523220,-4.1317935,-12.641984,3.264494,-2.613128,-9.450215,0.18801647
1409522523222,-4.2820296,-13.859435,3.9552212,-2.6826346,-9.425223,0.37284255
1409522523236,-3.8684313,-15.6790285,12.669517,-2.7330608,-9.403082,0.53180474
1409522523258,-5.2289367,-16.745047,13.32074,-2.7096152,-9.32749,1.3514053
1409522523259,-6.330868,-15.63713,1.1318588,-2.7949295,-9.351291,0.9550396
1409522523262,-5.4725466,-15.128362,-1.2126632,-2.8467474,-9.144163,2.1096642
1409522523270,-3.9743748,-15.321095,2.2882583,-2.8774078,-9.176338,1.9198269
1409522523298,-5.963358,-16.502634,9.825804,-2.8071504,-9.18558,1.9787421
1409522523299,-7.5016327,-16.673222,10.742783,-2.7877405,-9.088136,2.4092884
1409522523304,-6.8462195,-15.342045,3.1082723,-2.8853927,-8.947985,2.7889905
1409522523320,-6.443994,-14.021643,-1.5370775,-3.074442,-8.901982,2.7336621
1409522523321,-6.0250087,-12.920309,-1.0336965,-3.2882683,-8.908024,2.4504716
1409522523336,-4.7860093,-11.051037,-3.1477766,-3.4445627,-8.911587,2.211105
1409522523353,-3.389591,-11.301829,-6.2345014,-3.5159354,-8.961508,1.8708211
1409522523353,-2.3301568,-11.754931,-7.521983,-3.5220432,-9.057425,1.314798
1409522523374,-2.066196,-9.782109,-7.9595237,-3.4371068,-9.158852,0.6871126
1409522523374,-1.8297687,-9.003994,-7.167641,-3.3632627,-9.211609,0.07158318
1409522523382,-1.5735891,-10.810419,-5.7065797,-3.2826192,-9.230858,-0.43136838
1409522523409,-1.110311,-14.648923,-5.149928,-3.156565,-9.25197,-0.7794225
1409522523410,0.4261679,-19.169775,-3.70802,-2.9366148,-9.299415,-1.0332325
1409522523411,8.119935,-19.608511,3.8241386,-2.5581985,-9.400179,-1.1236751
1409522523448,9.31105,-19.608511,3.690662,-1.6960386,-9.63194,-0.72082627
1409522523448,5.5671177,-16.379332,-0.8822633,-1.9333748,-9.603583,-0.45123217
1409522523449,3.7229836,-12.822745,-5.8292828,-0.330535,-9.792501,-0.40993562
1409522523450,3.4560301,-11.250953,-7.1023993,0.029357612,-9.778182,-0.7461286
1409522523475,2.5492263,-9.690532,-5.466561,0.33194208,-9.736949,-1.1189357
1409522523475,2.4570496,-8.232463,-3.3482912,0.49809712,-9.693092,-1.4022254
1409522523484,4.0599675,-7.36636,-1.5436616,0.62379503,-9.658465,-1.5796608
1409522523490,5.1487308,-6.754043,-1.6101006,0.8510931,-9.6371765,-1.603393
1409522523512,3.7714663,-6.244078,-3.9223008,1.1767881,-9.596825,-1.639052
1409522523513,1.822586,-4.9027267,-6.5361705,1.3835902,-9.531131,-1.8475919
1409522523522,0.98820674,-4.012682,-7.6883802,1.4665824,-9.420454,-2.2966497
1409522523546,0.2136825,-3.9055414,-4.2598834,1.5022713,-9.257771,-2.8648376
1409522523547,0.62967503,-4.4220905,-1.763928,1.4666879,-9.173753,-3.1403
1409522523550,1.2826935,-4.747702,-1.2952632,1.4301933,-9.161739,-3.1917865
1409522523579,1.4407109,-4.385579,-2.3750482,1.442387,-9.15965,-3.192294
1409522523580,1.5711949,-3.7217865,-2.4510639,1.4871342,-9.118615,-3.287809
1409522523582,1.7316064,-2.955642,-2.731784,1.5885701,-9.059341,-3.4022295
1409522523617,2.473809,-2.1589713,-2.1338322,1.7235047,-8.967488,-3.5754855
1409522523618,3.4739866,-1.6364368,-1.3024458,1.9716468,-8.858647,-3.7158308
1409522523618,4.7680526,-1.5957354,-1.6579847,2.3756452,-8.732656,-3.7772284
1409522523622,5.61141,-1.6208745,-2.4648306,2.9616911,-8.515362,-3.8584185
1409522523646,5.6778493,-1.5358804,-3.5655649,3.635937,-8.183956,-3.9966486
1409522523647,5.2121773,-1.4975731,-4.3502645,4.2585626,-7.751856,-4.2360125
1409522523651,4.7058034,-1.2922704,-4.8985367,4.7332325,-7.2907777,-4.5399876
1409522523694,4.681263,-1.2054806,-4.5896845,5.0753546,-6.7960443,-4.9218836
1409522523695,4.506486,-2.0763714,-3.193865,5.38551,-6.3168936,-5.221447
1409522523696,3.9193082,-4.110844,-0.107140526,5.6432233,-6.0303955,-5.2876005
1409522523697,1.7884687,-9.611523,8.404246,5.8392286,-6.1674423,-4.902697
1409522523703,-8.801684,-19.177555,19.608511,5.718359,-7.311365,-3.164604
1409522523752,-19.515139,-19.608511,19.608511,5.815204,-7.1377606,-3.3773067
1409522523753,-19.60911,-19.608511,15.931617,5.896755,-6.9617796,-3.5961475
1409522523754,-14.727333,-18.76755,7.4968443,5.9180584,-6.86232,-3.7490745
1409522523754,-8.337209,-11.236588,4.3179426,5.8047886,-6.845444,-3.9515457
1409522523758,-6.597223,-7.447763,5.9358244,-3.3059902,-8.518839,3.559524
1409522523815,-1.3808558,-6.015432,5.3713913,-3.6379712,-8.345518,3.645255
1409522523816,2.1392193,-6.066907,3.007716,-3.5680299,-8.281219,3.8549933
1409522523816,5.1607018,-9.93474,1.9764135,-3.164446,-8.370251,4.0119295
1409522523816,8.400057,-18.637064,0.24600422,-2.3349926,-8.662138,3.9604995
1409522523817,6.746262,-19.608511,0.6745663,-1.1724511,-9.117433,3.415871
1409522523817,1.1073183,-18.43236,9.296086,-0.37402388,-9.360633,2.899838
1409522523823,-0.84934306,-12.109274,7.03596,-0.20516895,-9.289349,3.1362855
1409522523860,1.4131776,-9.296685,-7.9278,-0.26784283,-9.216588,3.3396332
1409522523861,3.447052,-8.34918,-10.879851,-0.14920536,-9.46862,2.5482066
1409522523861,3.6750996,-6.728904,-6.3524156,0.14939182,-9.681752,1.5529778
1409522523862,3.1112652,-5.321113,-3.1549592,0.46781215,-9.751813,0.9239599
1409522523871,2.802413,-5.1200004,-2.4241292,0.746841,-9.761441,0.5717378
1409522523893,3.5727475,-5.5683146,-3.127426,0.9957576,-9.752752,0.25038698
1409522523894,4.0282445,-7.0108213,-3.7134068,1.3124357,-9.717404,-0.14134733
1409522523904,3.9240966,-8.994417,-4.88896,1.6460274,-9.652598,-0.53699267
1409522523923,3.578733,-10.694301,-5.4725466,1.9194319,-9.564605,-1.002251
1409522523924,3.341707,-10.969634,-4.646547,2.0860405,-9.468945,-1.4689825
1409522523931,3.1483753,-10.302849,-3.2052376,2.185205,-9.390393,-1.7932688
1409522523960,2.9167361,-9.767744,-1.9548657,2.2569983,-9.3413925,-1.9531308
1409522523960,2.6318262,-9.654019,-0.99658644,2.308244,-9.323202,-1.9799802
1409522523964,1.9644425,-9.778519,-0.23163901,2.356419,-9.325895,-1.9092829
1409522523971,1.6274586,-11.20247,-0.4902128,2.3443623,-9.357078,-1.7661932
1409522523995,0.7793127,-12.838906,-0.8194155,2.2759473,-9.3992815,-1.6260359
1409522523996,-0.25498247,-14.129381,-0.9876082,2.1084976,-9.458704,-1.5025159
1409522524002,-0.96426475,-13.583504,-0.95349085,1.8502892,-9.529713,-1.3897487
1409522524029,-1.210269,-11.835137,-0.74399817,1.5681261,-9.594236,-1.2891876
1409522524030,-1.5711949,-10.685921,-0.84455466,1.3040222,-9.644196,-1.2080688
1409522524031,-1.9303252,-10.072407,-0.9660604,1.043627,-9.684726,-1.1345985
1409522524061,-1.8776526,-9.081207,-1.1498153,0.7633558,-9.716913,-1.0813328
1409522524062,-1.0606314,-8.153454,-2.3020248,0.5110197,-9.734681,-1.0701436
1409522524062,-0.017956512,-7.7997108,-3.4853592,0.35054597,-9.727746,-1.191001
1409522524071,-1.3928268,-8.785523,-2.735974,0.29971623,-9.696775,-1.4328625
1409522524085,-3.1848867,-10.157401,-2.4540567,0.12982553,-9.674487,-1.5993162
1409522524100,-3.2315738,-10.181343,-2.2463598,-0.17605244,-9.647202,-1.7523978
1409522524102,-2.0979192,-8.932168,-1.745373,-0.44084203,-9.621662,-1.8438311
1409522524118,-1.3569138,-8.26239,-1.2743138,-0.5977084,-9.596051,-1.9310505
1409522524151,-1.5292963,-8.664616,-0.6793547,-0.6832628,-9.586925,-1.9479301
1409522524152,-1.7878702,-8.890868,-0.25917232,-0.7767975,-9.594509,-1.8741295
1409522524153,-1.8303672,-8.968081,-0.044891283,-0.87534755,-9.611427,-1.7391537
1409522524154,-1.9698294,-9.100959,0.15322891,-0.97087157,-9.630191,-1.5771024
1409522524185,-2.066196,-9.097966,0.3657143,-1.081001,-9.645752,-1.4004576
1409522524186,-2.0829554,-8.833407,0.63206923,-1.1935457,-9.656503,-1.2238513
1409522524187,-1.9883845,-8.665215,0.91099375,-1.2972704,-9.66356,-1.0502862
1409522524215,-1.8429368,-8.882488,1.0007763,-1.387987,-9.668752,-0.8712625
1409522524215,-1.9369092,-9.270349,0.85652566,-1.4521738,-9.672502,-0.71014017
1409522524215,-2.0320787,-9.545084,0.6961141,-1.5112618,-9.671972,-0.5826017
1409522524235,-2.1703439,-9.953894,0.64583594,-1.5675021,-9.668671,-0.4797324
1409522524235,-2.5007436,-10.7990465,0.61530983,-1.6239117,-9.6633625,-0.39075467
1409522524250,-2.9131448,-12.234969,0.5931635,-1.6921475,-9.654447,-0.31415358
1409522524251,-3.210026,-13.661315,0.6925228,-1.7659291,-9.643101,-0.24999027
1409522524267,-3.3500867,-14.1425495,1.2000936,-1.8349134,-9.631654,-0.1863886
1409522524285,-3.2345665,-13.27106,1.751957,-1.9035602,-9.619665,-0.09415872
1409522524286,-3.6463692,-12.764088,1.9267339,-1.9709247,-9.606522,0.023606429
1409522524329,-4.398747,-13.467384,3.1621418,-2.0649407,-9.586212,0.10457838
1409522524330,-3.9043443,-14.580688,8.115147,-2.1848228,-9.556896,0.25031176
1409522524330,-3.4506433,-15.148713,9.464279,-2.235428,-9.5146055,0.8034588
1409522524331,-4.71119,-15.008054,1.8106151,-2.2287977,-9.437516,1.4615529
1409522524331,-5.470751,-14.6602955,-3.0819361,-2.3014417,-9.417991,1.4748554
1409522524357,-4.518457,-14.146141,-3.0561984,-2.4255788,-9.419844,1.2463902
1409522524357,-4.8584337,-14.2700405,-0.10235212,-2.4740474,-9.4351845,1.0132977
1409522524363,-5.6485205,-15.421652,4.380192,-2.543865,-9.4276085,0.90517753
1409522524383,-5.3564277,-14.979921,9.267955,-2.6315162,-9.385317,1.0776472
1409522524385,-5.474941,-14.677653,8.727464,-2.700949,-9.291977,1.5919948
1409522524401,-5.1846437,-14.0072775,4.3861775,-2.7950501,-9.173323,2.0513968
1409522524404,-4.734534,-13.361441,1.009156,-2.8869522,-9.119568,2.1608775
1409522524424,-4.1180267,-13.0519905,-0.92775315,-2.9768386,-9.0997,2.1223266
1409522524425,-3.4171243,-12.4785795,-2.5318682,-3.0329864,-9.123871,1.9303749
1409522524431,-1.8650831,-11.500547,-3.3273418,-3.0370977,-9.181071,1.6292241
1409522524459,-1.0366893,-11.269507,-3.9396589,-2.9563365,-9.261876,1.283777
1409522524460,-0.6332663,-10.433931,-5.7616463,-2.8294575,-9.345911,0.90471286
1409522524463,-0.3657143,-10.6158905,-6.9126587,-2.6866384,-9.422448,0.41208443
1409522524493,-0.12270284,-12.815563,-7.711125,-2.5252562,-9.474961,-0.13628098
1409522524493,0.82001406,-17.456125,-7.1287355,-2.3215039,-9.503561,-0.68071944
1409522524494,3.269881,-19.608511,-2.6354175,-2.0118084,-9.535712,-1.0923302
1409522524532,8.337209,-19.608511,4.1695023,-1.5630429,-9.618082,-1.1044357
1409522524532,11.664551,-19.608511,3.6326025,-0.81674725,-9.749486,-0.67144704
1409522524533,2.4247277,-14.936227,-2.8353333,-1.0357556,-9.742742,-0.42017496
1409522524534,0.5931635,-12.991537,-8.221688,0.3104203,-9.791718,-0.44299152
1409522524560,0.415394,-10.702082,-8.159439,0.38821635,-9.758169,-0.89319664
1409522524560,0.587178,-10.049662,-5.647922,0.39708707,-9.706496,-1.3403999
1409522524565,1.0953473,-9.709086,-3.9085343,0.40931496,-9.660591,-1.6357921
1409522524586,1.3551182,-8.935161,-3.9492357,0.41506812,-9.626104,-1.8265327
1409522524586,0.99419224,-7.800309,-3.0083144,0.45661244,-9.588025,-2.007903
1409522524603,0.41000703,-5.97892,-5.255273,0.48252723,-9.565596,-2.1064012
1409522524604,-0.08259996,-5.42167,-8.863335,0.48479778,-9.496579,-2.397983
1409522524618,0.98222125,-5.5222263,-8.093599,0.46300653,-9.337914,-2.959622
1409522524647,1.7681179,-5.8867435,-3.663727,0.5449217,-9.1752405,-3.418833
1409522524647,2.2188265,-5.751471,-0.35434186,0.6681237,-9.130159,-3.5162816
1409522524648,2.381632,-4.988918,-0.50278234,0.8098533,-9.172217,-3.3741643
1409522524656,2.0907366,-4.32333,-1.9357121,0.94054013,-9.189144,-3.2932425
1409522524693,1.9327193,-3.578733,-2.6372132,1.0668457,-9.1554365,-3.3481624
1409522524694,2.52289,-2.5737667,-1.697489,1.2169851,-9.089083,-3.4753287
1409522524695,3.0561984,-1.5041572,-1.7357962,1.4709094,-9.025521,-3.5421455
1409522524696,4.19524,-1.1408371,-1.6358383,1.8051919,-8.914815,-3.6657588
1409522524703,5.081693,-1.1366472,-2.3535004,2.3093145,-8.7474985,-3.7840135
1409522524731,5.251083,-1.0426749,-3.7696705,2.9287472,-8.48468,-3.9500704
1409522524732,5.239112,-0.9415198,-4.6220064,3.5296998,-8.087088,-4.279094
1409522524732,4.7614684,-1.0528502,-4.593276,4.0804343,-7.5982165,-4.667716
1409522524761,4.4621935,-1.3198037,-3.7924154,4.5148406,-7.1172714,-5.013086
1409522524762,4.5513773,-1.9273324,-2.782661,4.874668,-6.7111597,-5.2314773
1409522524763,4.152743,-3.3375173,-0.95947635,5.210889,-6.4183054,-5.274697
1409522524784,2.4600422,-6.217143,3.3117795,5.4753766,-6.3953547,-5.0289235
1409522524785,-2.6940753,-14.235924,15.157691,5.5171075,-6.976509,-4.1304026
1409522524800,-16.110582,-19.608511,19.608511,4.5100455,-8.622804,-1.2153789
1409522524816,-19.60911,-19.608511,18.714277,4.6119027,-8.5306635,-1.4589398
1409522524816,-17.00362,-19.608511,9.433753,4.692584,-8.4466505,-1.6745617
1409522524833,-10.34774,-16.133327,4.4220905,4.684247,-8.413255,-1.8561662
1409522524834,-8.794501,-9.305065,4.643554,-3.156063,-8.658834,3.351753
1409522524849,-5.8221,-6.6852098,5.6580973,-3.6487393,-8.490034,3.2827437
1409522524851,-1.429937,-5.893926,4.4723687,-3.8713284,-8.322692,3.4519603
1409522524873,1.0115502,-5.4019175,2.8275523,-3.7397425,-8.294587,3.658492
1409522524873,2.2780828,-5.379173,2.8700492,-3.4434116,-8.358359,3.8014638
1409522524883,5.175067,-9.264363,1.4586674,-2.9669042,-8.468864,3.9555268
1409522524902,7.1885905,-15.057733,-3.769072,-2.137982,-8.781019,3.806983
