time,acc_x,acc_y,acc_z,gravity_x,gravity_y,gravity_z
1409346732965,-1.0193313,2.1906946,9.48882,-1.0392041,2.051108,9.533278
1409346732966,-1.520318,2.0458453,9.504981,-1.0177152,2.0489395,9.536062
1409346732966,-1.6699557,1.9871874,9.476251,-1.0103319,2.0481317,9.537022
1409346732973,-1.7112557,1.9662381,9.399037,-1.0292217,2.0501592,9.534565
1409346732987,-1.6801311,1.9333179,9.221268,-1.0729909,2.0543976,9.528827
1409346733012,-1.532289,1.9626468,9.049484,-1.1214609,2.0643685,9.521087
1409346733014,-1.376666,2.0021513,8.986037,-1.1666662,2.0785553,9.512565
1409346733016,-1.2737153,1.9937714,9.012972,-1.1960055,2.0916476,9.506048
1409346733026,-1.1246762,1.9764135,9.083003,-1.205712,2.0981817,9.503383
1409346733045,-0.9475053,1.9548657,9.258378,-1.1977224,2.0947962,9.505139
1409346733046,-0.8331822,1.9069817,9.370906,-1.1775889,2.081941,9.510478
1409346733053,-0.7733272,1.8896236,9.412804,-1.1521375,2.0652983,9.517221
1409346733078,-0.7182605,1.8668787,9.380483,-1.1276104,2.045416,9.52445
1409346733079,-0.6811504,1.869273,9.322423,-1.1054945,2.0262449,9.531138
1409346733086,-0.7212533,1.8644845,9.26556,-1.0909806,2.0109434,9.53605
1409346733117,-0.8194155,1.8980033,9.27394,-1.0850873,1.999799,9.539066
1409346733118,-0.8391677,1.965041,9.357738,-1.0868258,1.9915833,9.540586
1409346733119,-0.86969376,1.9740193,9.446322,-1.0939976,1.9843805,9.541267
1409346733148,-0.93014735,1.977012,9.537302,-1.1041323,1.9755281,9.541937
1409346733149,-1.0720038,1.9632454,9.689933,-1.1145784,1.9654796,9.542797
1409346733150,-1.1049241,1.9907787,9.757569,-1.12523,1.9532695,9.544055
1409346733154,-1.0522517,2.0326772,9.824008,-1.1336147,1.9392291,9.545926
1409346733188,-1.009156,2.0805612,9.835979,-1.1381397,1.9243277,9.548403
1409346733189,-1.0271125,2.1098902,9.789292,-1.1381112,1.9106469,9.551153
1409346733190,-1.0660183,2.1589713,9.76116,-1.1335781,1.8992239,9.553969
1409346733210,-1.0235212,2.203264,9.85214,-1.1278218,1.890349,9.556411
1409346733211,-0.961272,2.1859062,9.920973,-1.1247393,1.8848898,9.557853
1409346733214,-0.9552865,2.1290438,9.826403,-1.1262599,1.8807408,9.558491
1409346733226,-0.93972415,2.034473,9.670779,-1.1293949,1.8794365,9.558377
1409346733242,-0.91458505,2.0033484,9.573814,-1.1354947,1.8807796,9.557391
1409346733262,-0.8870517,2.0165164,9.546879,-1.1425124,1.8831205,9.556093
1409346733264,-0.8367735,2.0219033,9.504382,-1.1463779,1.8839499,9.555467
1409346733266,-0.82779527,1.946486,9.467272,-1.1450276,1.8802407,9.556359
1409346733274,-0.92775315,1.869273,9.478644,-1.1398844,1.8711034,9.558766
1409346733296,-1.0893618,1.8788497,9.582792,-1.1325717,1.8599204,9.561818
1409346733299,-1.1372458,1.9692309,9.649231,-1.1260325,1.8483373,9.564836
1409346733307,-1.1450269,2.022502,9.624092,-1.119123,1.8393766,9.567374
1409346733326,-1.1540052,2.043451,9.52593,-1.114139,1.834922,9.56881
1409346733327,-1.151611,2.0649989,9.498995,-1.11319,1.8364898,9.568621
1409346733333,-1.0690111,2.1170728,9.523536,-1.1149935,1.8437927,9.567006
1409346733364,-0.9660604,2.1470003,9.552865,-1.1160736,1.8542016,9.564869
1409346733365,-0.94690675,2.1703439,9.539697,-1.1134437,1.8642817,9.563215
1409346733367,-0.9744401,2.1559787,9.526528,-1.1084448,1.8736227,9.56197
1409346733374,-0.9684546,2.2014685,9.6288805,-1.102885,1.8803742,9.561288
1409346733401,-0.943914,2.2655134,9.745,-1.0947702,1.8845968,9.56139
1409346733402,-0.96306765,2.3343468,10.088568,-1.0825694,1.8868098,9.562343
1409346733406,-0.9995792,2.2613235,10.370484,-1.0677172,1.8861938,9.564134
1409346733433,-1.0582372,2.1739352,10.532692,-1.0546247,1.8821634,9.56638
1409346733434,-1.1282675,2.1170728,10.542868,-1.0468783,1.8769422,9.568255
1409346733436,-1.1474211,2.0883424,10.5207205,-1.0453444,1.8721693,9.569359
1409346733462,-1.086369,2.142212,10.469844,-1.0457691,1.8713597,9.56947
1409346733463,-1.0594343,2.2146366,10.38904,-1.0470684,1.8769058,9.568242
1409346733466,-1.1288661,2.2296004,10.253169,-1.0461447,1.888431,9.566075
1409346733475,-1.2587515,2.2266076,10.140042,-1.0412531,1.903359,9.56365
1409346733505,-1.459266,2.2200236,10.096349,-1.03279,1.9188331,9.561476
1409346733507,-1.6118963,2.2278047,10.19451,-1.0237533,1.932928,9.559608
1409346733510,-1.7220296,2.232593,10.308235,-1.0154191,1.9448688,9.558075
1409346733537,-1.8387469,2.2080526,10.351331,-1.007713,1.955779,9.556664
1409346733538,-1.8956091,2.1218612,10.332776,-1.0012163,1.9652092,9.555412
1409346733539,-1.9195513,1.9877859,10.220248,-0.99791896,1.9743611,9.553871
1409346733563,-1.9057846,1.8668787,9.9473095,-1.0017399,1.986711,9.55091
1409346733564,-1.8555063,1.8010383,9.656414,-1.0124942,2.0065448,9.545629
1409346733566,-1.7717092,1.7501614,9.356541,-1.0260028,2.0358331,9.537981
1409346733575,-1.6358383,1.673547,9.048286,-1.0386347,2.07285,9.528637
1409346733592,-1.525705,1.5957354,8.804677,-1.0477324,2.111533,9.519142
1409346733604,-1.4544775,1.5586253,8.680179,-1.0526406,2.1499524,9.509996
1409346733608,-1.4311341,1.5753847,8.731055,-1.0498655,2.1835537,9.502645
1409346733620,-1.4784195,1.632247,9.011177,-1.0381004,2.2090755,9.498037
1409346733639,-1.578976,1.7423803,9.402629,-1.0188073,2.2242422,9.496587
1409346733639,-1.6448165,1.804031,9.863512,-0.99608237,2.229499,9.497765
1409346733654,-1.6298528,1.780089,10.166379,-0.9759665,2.2271268,9.50041
1409346733655,-1.4808137,1.6986861,10.1939125,-0.9635386,2.2218459,9.502914
1409346733673,-1.2491747,1.5771804,10.001778,-0.96095765,2.2171862,9.504264
1409346733675,-0.9935937,1.5089456,9.722255,-0.96045035,2.2194693,9.503782
1409346733688,-0.8535329,1.5269021,9.479841,-0.96336776,2.2331622,9.500278
1409346733702,-0.75357497,1.6226702,9.291897,-0.9639397,2.25699,9.494588
1409346733705,-0.6805518,1.7531542,9.121908,-0.95685726,2.2844195,9.488743
1409346733721,-0.62728083,1.8171991,9.035717,-0.94067883,2.3090694,9.484393
1409346733740,-0.6218939,1.8375498,9.030331,-0.9163161,2.326317,9.482563
1409346733741,-0.6973112,1.8914193,9.119514,-0.886079,2.3388546,9.482353
1409346733756,-0.724246,2.0278888,9.176975,-0.85452336,2.3446248,9.483824
1409346733756,-0.75477207,2.1757307,9.194932,-0.82174236,2.3472812,9.486064
1409346733768,-0.7882909,2.2331917,9.098565,-0.79370636,2.3519487,9.487294
1409346733783,-0.866701,2.267309,8.97646,-0.775907,2.3630965,9.485996
1409346733787,-0.878672,2.4193408,8.890269,-0.77027446,2.3827567,9.481537
1409346733800,-0.86251116,2.5875335,8.916606,-0.7735097,2.410736,9.474198
1409346733806,-0.84934306,2.6719291,8.957307,-0.78311235,2.441494,9.4655285
1409346733819,-0.87567925,2.678513,9.005191,-0.79728246,2.4710991,9.456659
1409346733836,-0.8463503,2.6132712,9.144653,-0.81231755,2.4935353,9.449488
1409346733836,-0.7020996,2.5498247,9.484032,-0.82781893,2.5058887,9.444873
1409346733855,-0.664391,2.4343045,9.532514,-0.8382702,2.507637,9.443487
1409346733855,-0.75596917,2.3373394,9.509171,-0.8418521,2.5017514,9.44473
1409346733868,-0.9020155,2.2816741,9.449914,-0.84247696,2.492757,9.447051
1409346733884,-1.06123,2.2750902,9.356541,-0.845974,2.4861023,9.448493
1409346733886,-1.1432313,2.2984335,9.169194,-0.85641265,2.4828336,9.448411
1409346733900,-1.1725603,2.2936451,8.929175,-0.8706559,2.4882362,9.445688
1409346733917,-1.0953473,2.2852654,8.714894,-0.8901861,2.5007975,9.44055
1409346733918,-0.91099375,2.309806,8.735245,-0.91115695,2.5169406,9.434257
1409346733937,-0.6871359,2.349909,8.8364,-0.9277391,2.531731,9.42868
1409346733937,-0.49081135,2.3511062,8.968679,-0.9345523,2.539871,9.425818
1409346733951,-0.37588966,2.3301568,9.226655,-0.9296839,2.5360432,9.427331
1409346733954,-0.38367084,2.2266076,9.609727,-0.9176515,2.517081,9.43359
1409346733970,-0.4770447,2.1392193,9.962872,-0.9043738,2.489596,9.442161
1409346733985,-0.62368953,2.1086931,10.248979,-0.89193887,2.4495263,9.453817
1409346733986,-0.7314286,2.0578163,10.426748,-0.8818958,2.4023788,9.466849
1409346734002,-0.7978677,1.9859903,10.586561,-0.8765248,2.353012,9.479738
1409346734006,-0.86370826,1.9033904,10.662578,-0.8764117,2.3069277,9.491068
1409346734018,-0.8265981,1.8866309,10.559627,-0.8799579,2.2686415,9.499965
1409346734037,-0.6793547,1.9363106,10.356718,-0.88495445,2.2410207,9.506055
1409346734038,-0.46028528,1.9949685,10.162787,-0.8907033,2.21988,9.510476
1409346734050,-0.27353755,2.0566192,10.113707,-0.8962319,2.2093415,9.51241
1409346734054,-0.14604631,2.1296425,10.2735195,-0.89983827,2.2057052,9.512915
1409346734069,-0.019752163,2.2152352,10.45069,-0.899274,2.2039847,9.513367
1409346734085,-0.03232172,2.2176294,10.506355,-0.8937183,2.1998477,9.514848
1409346734088,-0.18674773,2.167351,10.409989,-0.88712126,2.1923819,9.517188
1409346734102,-0.31184477,2.160767,10.165182,-0.88407856,2.1861436,9.518906
1409346734117,-0.3728969,2.248754,9.750386,-0.8856132,2.1877127,9.518403
1409346734117,-0.40761283,2.3654714,9.258977,-0.88833344,2.1961217,9.516212
1409346734136,-0.45250413,2.4612393,8.743625,-0.8913161,2.2181048,9.510834
1409346734139,-0.5303157,2.509722,8.337209,-0.8920587,2.2514224,9.502932
1409346734155,-0.59615624,2.5330653,8.116942,-0.89212143,2.2905443,9.493572
1409346734156,-0.7038953,2.542642,8.034941,-0.8935185,2.3298504,9.483871
1409346734172,-0.7302315,2.5677812,7.941567,-0.89685965,2.3642623,9.475035
1409346734190,-0.6362591,2.541445,7.888296,-0.9023667,2.3917706,9.467606
1409346734191,-0.50876784,2.4426842,7.9301944,-0.90930957,2.4156485,9.460876
1409346734194,-0.3728969,2.3463178,7.951742,-0.91682905,2.431983,9.455964
1409346734222,-0.24839842,2.2092497,7.892486,-0.9216233,2.4424944,9.452788
1409346734223,-0.090979666,2.1146786,7.7997108,-0.92041,2.449167,9.45118
1409346734236,0.109534726,2.087744,7.709928,-0.90960896,2.4542897,9.450897
1409346734237,0.30346507,2.1517887,7.7009497,-0.88782,2.4579983,9.452005
1409346734255,0.50158525,2.195483,7.635708,-0.8569567,2.4591956,9.454542
1409346734256,0.623091,2.19249,7.6746135,-0.8209214,2.4564388,9.458456
1409346734272,0.5907693,2.1691468,7.7769656,-0.784741,2.4510655,9.46292
1409346734293,0.5542577,2.180519,8.223484,-0.7512405,2.4405346,9.468359
1409346734294,0.55246204,2.1643584,8.245032,-0.723212,2.4252331,9.47447
1409346734296,0.62249243,2.160767,8.19236,-0.7006157,2.405919,9.481091
1409346734317,0.8367735,2.203264,8.157045,-0.6818662,2.3847585,9.487801
1409346734318,1.0241197,2.2990322,8.09719,-0.66264313,2.3640032,9.494355
1409346734337,1.0672154,2.3702598,8.27077,-0.6389926,2.3435931,9.501034
1409346734337,0.8870517,2.3900118,8.785523,-0.6079002,2.3198059,9.508908
1409346734356,0.57041854,2.4121583,9.091382,-0.5720165,2.2925007,9.517754
1409346734357,0.23822308,2.3642743,9.48463,-0.5387235,2.2577367,9.528001
1409346734366,0.1412579,2.3636756,9.93893,-0.51035744,2.2164347,9.539252
1409346734386,0.24001873,2.4432828,10.053253,-0.48869568,2.1751177,9.549891
1409346734388,0.39085343,2.4672248,9.886856,-0.47096258,2.1419704,9.558271
1409346734402,0.5758055,2.3768437,9.613917,-0.45454746,2.119634,9.564043
1409346734418,0.7691373,2.1631613,9.406818,-0.44631982,2.1074586,9.5671215
1409346734418,0.98820674,1.9865888,9.2069025,-0.44872776,2.0985067,9.568976
1409346734437,1.4251486,1.8848352,8.919599,-0.45526585,2.095335,9.569363
1409346734438,1.8740613,1.8261774,8.694544,-0.4622942,2.0928562,9.569568
1409346734455,1.9847932,1.7561469,8.835203,-0.4582561,2.0818272,9.572166
1409346734456,1.8890251,1.7908629,9.208099,-0.42776576,2.0499814,9.580448
1409346734469,1.5454572,1.8680758,9.968858,-0.35560998,1.9851947,9.597027
1409346734483,0.88944596,2.0632033,10.197504,-0.23488562,1.879158,9.622057
1409346734486,0.5189432,1.9500773,10.59973,-0.07719181,1.7378603,9.651128
1409346734499,0.6362591,1.4670471,11.026496,0.10245443,1.5832237,9.677464
1409346734519,1.0666169,1.1797429,11.257536,0.28876528,1.4087029,9.700647
1409346734520,1.6250644,1.0103531,11.855488,0.48554796,1.2307136,9.716994
1409346734534,1.8483237,0.6410475,12.153566,0.6873278,1.0620531,9.724711
1409346734535,1.9093759,0.049081136,11.988366,0.8705436,0.9119166,9.725273
1409346734551,1.30484,-0.109534726,11.789648,1.0088562,0.793197,9.722316
1409346734555,0.24001873,0.20530279,12.861651,1.0779022,0.7200452,9.720599
1409346734581,-0.36990416,0.8331822,13.278841,1.0778003,0.673619,9.723939
1409346734582,-0.8355764,1.2641385,13.252505,1.051652,0.67775804,9.726513
1409346734587,-1.1683705,1.496376,12.893973,0.9989504,0.7210744,9.728953
1409346734611,-1.5939398,1.8255788,11.94168,0.9169359,0.7981806,9.731009
1409346734612,-1.9303252,2.3822308,10.549451,0.7998567,0.91248584,9.731289
1409346734615,-2.3361423,2.825158,9.559449,0.6530862,1.06536,9.726709
1409346734645,-2.6198552,3.1759086,9.038112,0.48026782,1.2429489,9.715699
1409346734646,-2.5743654,3.3093853,8.618527,0.29238495,1.4281442,9.697696
1409346734647,-2.0231004,2.9562407,7.926005,0.10682976,1.6073791,9.673433
1409346734668,-1.1192893,2.2786815,7.7649946,-0.06341173,1.7658833,9.64614
1409346734668,0.260968,1.7663223,8.549694,-0.21457691,1.8909622,9.620218
1409346734683,1.1755531,1.5586253,9.562442,-0.33758926,1.9730537,9.600182
1409346734689,1.6106992,1.5275006,10.010158,-0.41167712,2.0044367,9.590784
1409346734701,1.899799,1.1767502,10.406398,-0.43571776,1.9924983,9.59221
1409346734719,2.070386,0.7152678,11.007342,-0.42627823,1.954816,9.600384
1409346734720,2.0721815,0.7703344,11.481993,-0.38506517,1.9090099,9.611337
1409346734736,1.5089456,2.0153193,10.573992,-0.32795203,1.8703947,9.621043
1409346734737,0.6135142,2.172738,9.85214,-0.23267287,1.8637621,9.625105
1409346734752,-0.54647654,1.9285295,9.175778,-0.110099085,1.8801398,9.624102
1409346734755,-1.2150574,1.851915,8.866327,0.012231668,1.9134281,9.618162
1409346734768,-1.8596961,1.757344,9.036914,0.11632527,1.9579104,9.608509
1409346734783,-1.8387469,1.6370354,9.26197,0.19526538,2.004508,9.597614
1409346734787,-1.0839748,1.5035586,9.107543,0.25942463,2.0462809,9.587274
1409346734800,-0.037708677,1.3928268,8.82802,0.32203758,2.0853417,9.576953
1409346734819,-0.82779527,-0.05566519,8.321647,0.3933391,2.1222885,9.566168
1409346734819,-1.4263457,-0.11552023,6.431424,0.45310676,2.1532233,9.556605
1409346734834,1.2060791,4.097078,7.9954367,0.5047883,2.1907077,9.54549
1409346734835,1.459266,3.9234982,9.193136,0.5666226,2.2480693,9.528667
1409346734852,0.3441665,1.7244238,9.486425,0.62448466,2.2824059,9.516881
1409346734870,0.023343466,1.1707647,9.2069025,0.6627417,2.280714,9.5147
1409346734871,0.22625206,1.6962919,8.951322,0.6728196,2.2763329,9.515041
1409346734885,-0.06464344,0.712275,9.440936,0.66088396,2.2900896,9.512577
1409346734887,-0.931943,-0.17178397,9.354146,0.5996793,2.3053901,9.512936
1409346734900,-0.65062433,1.3982137,9.028535,0.48989907,2.315694,9.51672
1409346734921,-0.3609259,2.6372132,10.597934,0.28151986,2.3660483,9.512778
1409346734922,-0.10414778,2.8377275,10.647015,0.28151986,2.3660483,9.512778
1409346734928,0.05626374,2.9334955,10.799645,0.28151986,2.3660483,9.512778
1409346734935,0.08379706,3.352481,10.733206,0.33221367,2.3594398,9.512784
1409346734949,0.007182605,3.651756,10.755951,0.41520396,2.3564043,9.510277
1409346734971,-0.12210429,3.466804,11.368268,0.5062232,2.3555474,9.506078
1409346734971,0.023942016,3.2249897,11.808203,0.59088594,2.3501673,9.502523
1409346734976,-0.2681506,2.8999767,11.51192,0.6559266,2.3419206,9.500292
1409346735000,-0.41000703,2.837129,10.59554,0.6947684,2.3393495,9.498164
1409346735001,-0.46507367,2.6246436,9.622296,0.7026993,2.3549976,9.493713
1409346735017,-0.31364042,2.295441,9.109938,0.6747911,2.3858547,9.488031
1409346735017,0.20470424,2.3983915,9.237429,0.61663705,2.422582,9.482681
1409346735037,0.6560113,2.484583,9.28232,0.545684,2.460735,9.477204
1409346735038,0.9504981,2.2212207,8.982447,0.47960183,2.4995556,9.470617
1409346735048,1.1629834,1.9632454,8.8777,0.4272864,2.5330467,9.464221
1409346735070,1.0600328,1.7124528,8.524555,0.38952664,2.552854,9.460528
1409346735071,0.23463176,1.7525556,8.941146,0.36323375,2.5502858,9.462267
1409346735088,-0.5093664,2.0608091,11.33056,0.3515796,2.5187426,9.471152
1409346735089,-0.4297592,2.4247277,13.160927,0.36617184,2.4560366,9.487054
1409346735095,-0.14963761,2.6168625,12.625224,0.42532182,2.3821447,9.503414
1409346735118,-0.18674773,2.3774424,10.557831,0.5059011,2.312512,9.516656
1409346735121,0.061650693,2.7090392,9.592968,0.5908642,2.276026,9.5205555
1409346735142,0.30346507,2.9346926,9.639654,0.6530237,2.290713,9.512969
1409346735142,0.034715924,2.5785553,9.632472,0.7049492,2.3376567,9.497831
1409346735147,0.110731825,2.7365725,9.449316,0.7485578,2.3892946,9.481631
1409346735172,0.85772276,3.1908724,8.713099,0.7696397,2.4495575,9.464551
1409346735173,1.2294226,3.0358477,9.0476885,0.76598644,2.5186994,9.446682
1409346735176,1.2521675,2.332551,9.718663,0.7323076,2.5915267,9.42964
1409346735204,1.3012487,2.5959132,10.102933,0.6791147,2.653682,9.416325
1409346735205,0.7727286,2.8215668,10.353127,0.59650576,2.7095714,9.405998
1409346735207,0.15263036,3.1376014,10.014347,0.4943583,2.764378,9.395968
1409346735215,-0.0077811554,3.6936548,8.598177,0.3838803,2.829729,9.381666
1409346735237,-0.41299978,4.1018662,7.677606,0.2828649,2.915232,9.359049
1409346735238,-0.41120413,4.1282024,7.9906483,0.19515666,3.015877,9.32935
1409346735249,-0.10295067,3.8594532,9.045294,0.117712334,3.1158743,9.297734
1409346735271,0.07062895,3.9372647,9.4217825,0.047895286,3.2004695,9.269579
1409346735273,0.107140526,4.9278655,8.924387,-0.0058458033,3.2643285,9.247406
1409346735276,0.30885202,6.002862,10.01734,-0.02575082,3.3248932,9.225769
1409346735308,0.6242881,7.331644,9.569624,8.789748E-4,3.3954873,9.200057
1409346735309,-0.35553896,5.489306,10.081385,0.06779738,3.4886377,9.164889
1409346735310,-1.0301052,3.3423057,10.245388,0.14630598,3.573458,9.131231
1409346735316,-1.1701661,3.4117374,9.742006,0.20713322,3.6599662,9.09572
1409346735340,-1.5388732,4.1653123,8.813655,0.235044,3.7628727,9.052951
1409346735341,-1.5209166,4.5561657,8.048109,0.24826735,3.9110758,8.989562
1409346735349,-0.8343793,4.5418005,7.9822683,0.23055428,4.0985236,8.90614
1409346735378,0.16639702,4.542998,7.6345105,0.18308088,4.2993674,8.812056
1409346735379,0.30765492,4.614824,5.8574142,0.11023352,4.4862046,8.7196455
1409346735380,0.048482586,4.7925935,4.4077253,-9.548165E-4,4.653727,8.632104
1409346735423,0.57999533,4.953005,4.7141833,-0.14708105,4.8003106,8.550191
1409346735425,0.87807345,4.540005,5.883152,-0.2885944,4.931714,8.471439
1409346735430,0.41000703,4.0462008,6.6804214,-0.41790086,5.0236645,8.41181
1409346735431,-0.12629414,3.9516299,7.0712748,-0.49421868,5.0771813,8.375463
1409346735432,0.014963761,3.9013517,7.0012445,-0.5102613,5.1047277,8.357737
1409346735436,0.16639702,3.911527,6.880337,-0.48923796,5.121027,8.349019
1409346735486,-0.0035913025,4.313753,6.285378,-0.4624116,5.1414137,8.338012
1409346735488,-0.8086416,4.939238,5.477335,-0.4479361,5.18593,8.31119
1409346735490,-1.8429368,4.353257,8.286931,-0.45589346,5.2712607,8.256898
1409346735492,-1.6813282,4.935048,6.215946,-0.47711805,5.365468,8.194785
1409346735515,0.52612585,7.1083846,2.2667105,-0.4974572,5.5105066,8.096743
1409346735516,0.53450555,5.9226565,5.366603,-0.47821227,5.6935077,7.9702997
1409346735517,-1.115698,4.7758336,9.263765,-0.48190135,5.8502364,7.855756
1409346735518,-1.1845313,3.555988,12.486361,-0.52512306,5.9821286,7.7529845
1409346735534,3.25791,4.386776,9.282919,-0.51295185,6.0818,7.675869
1409346735549,7.6105685,4.349666,8.613739,-0.43226302,6.130597,7.641944
1409346735550,4.7949877,3.3632548,7.6165543,-0.4203297,6.114016,7.655882
1409346735564,0.87927055,3.5733461,8.114548,-0.50559974,5.996988,7.7427955
1409346735567,0.23283611,5.28939,9.24521,-0.6531004,5.850241,7.8433747
1409346735584,-0.23882163,5.7059813,11.046248,-0.69434655,5.698346,7.950919
1409346735600,-0.9163807,5.8813562,11.34253,-0.61041665,5.5364194,8.071299
1409346735600,-0.9498995,6.235698,10.059238,-0.46116206,5.392628,8.177853
1409346735616,-0.931943,6.2195373,9.081805,-0.29957098,5.305621,8.242028
1409346735617,0.28431144,5.915474,8.255806,-0.16691285,5.275426,8.265132
1409346735634,0.66020113,4.9338512,7.780557,-0.06683204,5.2694473,8.270359
1409346735648,0.7811083,4.6902413,7.36636,0.016431933,5.293322,8.255354
1409346735650,0.5770026,4.5663414,7.065289,0.069671065,5.3385606,8.225893
1409346735664,0.27114335,5.0002904,7.5046253,0.09962679,5.395,8.188677
1409346735680,0.13706805,5.8280854,7.7745714,0.11662205,5.45288,8.150023
1409346735681,0.12509704,6.1405287,8.306085,0.13817601,5.507143,8.113117
1409346735698,0.5470751,6.2345014,8.750807,0.18129064,5.5506015,8.082596
1409346735698,1.1258733,6.238691,8.766968,0.25345775,5.588802,8.05428
1409346735716,1.1414356,5.4647655,9.363723,0.34492052,5.6234617,8.026711
1409346735716,0.51595044,5.4192758,9.093178,0.457263,5.651806,8.001149
1409346735733,-0.10055647,5.9106855,5.144541,0.57198215,5.6870437,7.968736
1409346735747,0.1316811,6.3129115,5.0002904,0.68173784,5.75312,7.912473
1409346735748,-0.32561144,6.117784,6.543952,0.7631664,5.840757,7.8405056
1409346735763,-0.6572084,5.566519,7.5321584,0.78329736,5.9156876,7.7821255
1409346735781,-0.08798691,5.381567,7.3807254,0.7832111,5.953091,7.7535586
1409346735781,1.1653777,5.7383027,6.6349316,0.8072563,5.977819,7.732038
1409346735800,1.6693572,6.4511766,5.677251,0.8421029,5.9960127,7.7142134
1409346735800,2.0135236,7.1622543,3.5476084,0.8719661,6.015116,7.696001
1409346735814,2.6168625,7.315483,1.2892777,0.8939763,6.0336885,7.6789193
1409346735816,1.9692309,5.3354783,3.6194344,0.9316148,6.044066,7.666273
1409346735832,1.1402385,4.5394063,4.3119574,0.9995225,6.0074778,7.6864524
1409346735848,1.0205284,4.670489,5.6066217,1.1167668,5.917703,7.739768
1409346735849,1.6298528,4.5896845,8.2169,1.280167,5.8016486,7.802079
1409346735864,1.83336,3.2632968,16.160862,1.4587412,5.636248,7.8914614
1409346735882,2.3900118,4.50888,10.571598,1.6250298,5.373794,8.040647
1409346735882,4.0707417,6.9126587,6.8958993,1.7836859,5.170491,8.139709
1409346735899,2.6024973,6.4739213,7.0784574,1.9051363,5.0451207,8.190702
1409346735900,-0.2220622,5.301361,6.3907228,1.9340477,4.9503345,8.241604
1409346735916,-1.8776526,4.0683475,7.3352356,1.9213283,4.8475733,8.305415
1409346735916,-1.7992426,2.971803,8.889072,1.9171852,4.718537,8.380345
1409346735933,-0.6338649,2.586935,8.185177,1.9315482,4.5645685,8.461928
1409346735947,0.34955344,3.3674448,7.409456,1.9921685,4.3851786,8.5423565
1409346735950,1.2940661,4.061165,7.4806833,2.1141229,4.196927,8.607362
1409346735962,3.9384618,4.597466,6.9306154,2.2664528,3.99671,8.663712
1409346735990,5.551555,3.7732618,6.980295,2.4326446,3.7857695,8.713242
1409346735991,3.1615434,2.224812,11.324574,2.5872185,3.56197,8.762937
1409346735991,2.9783869,1.9045875,11.98657,2.682316,3.320915,8.828766
1409346735996,3.5703533,2.4827871,11.643601,2.7656736,3.0907567,8.886431
1409346736014,4.0797195,3.0190883,10.71525,2.8566427,2.9163198,8.916561
1409346736016,4.860828,3.554791,10.2417965,2.9562526,2.826233,8.913101
1409346736034,4.781221,4.2317514,9.217676,3.0848424,2.8209324,8.871103
1409346736048,4.024653,5.9400144,6.3703723,3.2464404,2.8923626,8.790066
1409346736049,3.3638535,6.4146647,3.6655228,3.420405,3.0358157,8.674967
1409346736063,3.2836475,6.096236,1.9818004,3.59432,3.2391331,8.529904
1409346736081,3.6236243,5.7502737,1.9249382,3.8039384,3.4972758,8.334836
1409346736089,3.5703533,4.667496,1.0929531,4.098173,3.7687578,8.0729065
1409346736113,4.0916905,4.9625816,0.82360536,4.41433,4.0298553,7.7745967
1409346736114,5.8005524,6.1088057,0.80804306,4.755906,4.2655215,7.440233
1409346736115,7.9427643,6.6492968,1.1869255,5.062226,4.4685774,7.1116858
1409346736116,8.771158,5.897517,1.7884687,5.3380175,4.6343637,6.796957
1409346736131,8.577228,4.8123455,2.5959132,5.595684,4.769799,6.4890466
1409346736145,8.011598,4.219182,3.74513,5.836059,4.8988037,6.173535
1409346736149,7.2262993,4.0216603,4.71957,6.0619674,5.0382047,5.834331
1409346736162,6.7809777,4.24073,4.673482,6.2826853,5.1799355,5.465029
1409346736180,7.2628107,5.081693,4.6058455,6.4867806,5.327306,5.0706882
1409346736180,8.260594,5.855619,4.7734394,6.6866236,5.477537,4.6320653
1409346736200,8.983045,5.9041014,4.2143936,6.8660846,5.629121,4.1641655
1409346736201,9.809045,5.286996,3.288436,7.0046806,5.78952,3.6859584
1409346736215,10.96305,5.170877,2.6964695,7.08667,5.962713,3.2242112
1409346736217,12.19307,5.619191,2.2780828,7.117326,6.139766,2.7959516
1409346736231,13.029245,5.8747725,2.5378537,7.113808,6.3061566,2.4075973
1409346736246,13.613431,6.1369376,3.2483332,7.0961285,6.4489007,2.0559726
1409346736250,13.599066,6.245275,4.2066126,7.0704503,6.562974,1.7625223
1409346736264,13.1794815,5.875371,4.646547,7.0453973,6.651819,1.5119723
1409346736290,12.929886,5.9322333,4.028843,7.027982,6.716951,1.2885771
1409346736291,12.156559,6.201581,3.2118216,7.017785,6.7638526,1.0823051
1409346736293,12.02428,7.0132155,1.9512744,7.0069156,6.801883,0.89884675
1409346736297,12.540829,7.349601,1.1007342,6.9924216,6.8369703,0.7295744
1409346736323,12.49055,7.185598,0.85652566,6.9782047,6.866882,0.566538
1409346736324,12.1523695,7.1006036,1.2264298,6.9688687,6.887938,0.40193567
1409346736329,12.042236,7.053917,1.7435774,6.9678354,6.896238,0.24813257
1409346736353,11.779472,6.956353,2.3409307,6.9862566,6.881033,0.11834945
1409346736354,11.21444,6.743868,2.5659857,7.030423,6.836904,0.01737769
1409346736356,10.437522,6.576872,2.5073278,7.094348,6.770177,-0.07302585
1409346736379,9.43495,6.4583592,2.4289176,7.16717,6.691143,-0.17507353
1409346736379,8.4826565,6.6271505,2.3523033,7.2373586,6.6108913,-0.2952698
1409346736393,7.5004354,7.1329255,2.4408886,7.308039,6.5244684,-0.44077072
1409346736397,6.6026096,7.81228,2.3535004,7.377583,6.4315457,-0.61389863
1409346736413,5.6245785,8.343793,2.3828292,7.4437776,6.3338566,-0.80176985
1409346736430,5.257667,8.747814,2.4468741,7.50525,6.2353683,-0.9807069
1409346736431,5.5802855,8.9279785,2.2774844,7.5625696,6.140605,-1.1273512
1409346736448,5.8388596,8.55987,2.0626047,7.61702,6.052437,-1.23266
1409346736461,5.9741316,7.772177,2.007538,7.665847,5.977226,-1.2953649
1409346736461,6.215348,7.07726,2.0548236,7.71665,5.907272,-1.3144913
1409346736485,6.4002995,6.695385,1.8752584,7.75671,5.8541217,-1.3164752
1409346736486,6.521207,6.8198833,1.8154035,7.7924156,5.8124156,-1.2901436
1409346736490,6.6762314,6.7630215,1.8195933,7.8240685,5.7778196,-1.2534481
1409346736498,6.647501,6.505046,1.4251486,7.8522406,5.74689,-1.2189995
1409346736517,7.007828,6.2464724,-0.092176765,7.874527,5.721746,-1.1932391
1409346736518,7.1221514,6.1249666,-0.30406362,7.892419,5.7003527,-1.1773378
1409346736529,7.4256167,6.582259,-0.5722142,7.909361,5.680238,-1.1607486
1409346736555,7.769783,7.117363,-0.65182143,7.9244843,5.665004,-1.1316819
1409346736557,8.052299,7.4202294,-0.45729253,7.934865,5.65868,-1.0897846
1409346736558,8.175002,7.317279,-0.08559271,7.9383755,5.6631727,-1.0397404
1409346736591,8.1402855,6.9318123,0.2765303,7.9357305,5.676276,-0.98716336
1409346736593,8.13849,6.5625067,0.35913026,7.929462,5.693608,-0.93641555
1409346736594,8.319252,6.546346,-0.1328782,7.9223123,5.7107863,-0.8912235
1409346736597,8.238448,6.8324533,-0.7062895,7.916105,5.724782,-0.85588926
1409346736616,8.091205,6.9982514,-1.5502456,7.9098783,5.7377696,-0.82597
1409346736638,8.136096,6.75943,-2.083554,7.906248,5.745425,-0.80730623
1409346736640,7.925406,6.4751186,-1.9734207,7.907834,5.745151,-0.7935916
1409346736641,7.3938932,6.066907,-1.7118542,7.9121485,5.739998,-0.7878562
1409346736649,7.0102224,5.6179943,-1.4634558,7.914726,5.734813,-0.7996484
1409346736671,6.857592,5.431845,-1.4850036,7.9139185,5.731198,-0.8328628
1409346736672,6.8049197,5.2678423,-1.6358383,7.910322,5.728008,-0.88721144
1409346736677,6.959346,4.8285065,-1.8417397,7.9057155,5.7238393,-0.9527371
1409346736700,7.019201,4.3981485,-1.6424223,7.901578,5.7174106,-1.0230725
1409346736701,7.2490444,4.3981485,-1.1563994,7.900047,5.70764,-1.0874207
1409346736709,7.6722193,4.5483847,-0.7080852,7.9032564,5.6936946,-1.1361328
1409346736732,8.000824,4.7884035,-0.6171055,7.9107184,5.677354,-1.1655809
1409346736734,8.250419,5.5060654,-1.1049241,7.9188075,5.6632166,-1.1793625
1409346736737,8.659229,5.969343,-1.6448165,7.9211345,5.6582665,-1.1874521
1409346736769,8.692748,6.3338604,-1.673547,7.9163074,5.6636753,-1.1938466
1409346736770,8.525752,7.018004,-1.4742297,7.9061575,5.6760974,-1.2020742
1409346736771,8.513183,7.195773,-1.4814123,7.8857026,5.7044125,-1.2024069
1409346736778,8.382699,6.975507,-1.2072762,7.857291,5.742391,-1.2076094
1409346736803,8.224682,6.397307,-0.6841431,7.828134,5.779239,-1.2211149
1409346736804,8.31207,5.6778493,-0.46327803,7.8017235,5.8114066,-1.2373712
1409346736811,8.274361,5.3378725,-0.48243165,7.7763267,5.8406596,-1.2592967
1409346736830,8.095993,5.3420625,-0.54767364,7.7468967,5.871591,-1.2963138
1409346736831,8.04392,5.2361193,-0.6099229,7.7118797,5.9064126,-1.3459624
1409346736850,8.130709,5.192425,-0.60333884,7.6644874,5.9527307,-1.411045
1409346736851,7.9463553,4.3526587,-0.60453594,7.603424,6.0099926,-1.4961113
1409346736857,7.093421,3.4249055,-0.59017074,7.530988,6.0733953,-1.6026497
1409346736878,6.355408,1.8309658,-0.7200562,7.439478,6.1504107,-1.7311869
1409346736878,4.981137,2.7443538,-1.1905168,7.32079,6.2461987,-1.8871737
1409346736899,4.056975,4.6321816,-1.4449008,7.165813,6.366103,-2.072255
1409346736900,4.100669,6.217143,-1.7729063,6.9806814,6.5029936,-2.2696946
1409346736910,4.5124717,7.0688806,-2.134431,6.7817883,6.6396565,-2.4683387
1409346736971,4.9583917,7.161656,-2.272696,6.5960197,6.756119,-2.6491146
1409346736971,5.467758,7.447763,-2.2373815,6.4487267,6.8386836,-2.7958417
1409346736972,6.2105594,8.677784,-2.7635074,6.349826,6.8988137,-2.8734057
1409346736973,7.00304,9.790489,-3.5087025,6.2977757,6.951279,-2.8614912
1409346736981,4.326921,7.691373,-4.4699745,6.274595,7.0045023,-2.7815077
1409346736981,2.309806,7.8972745,-4.847061,6.2426405,7.063078,-2.7042065
1409346736982,6.22672,8.6496525,-2.7216089,6.1676493,7.1478553,-2.6530437
1409346737149,5.8454432,7.435792,-2.814384,6.096098,7.220269,-2.6221547
1409346737149,6.5864487,7.204153,-2.594716,6.0515428,7.2742376,-2.5757859
1409346737150,7.307702,7.4788876,-2.552219,6.0645847,7.3039484,-2.4583583
1409346737151,7.7649946,7.827244,-2.789245,6.102224,7.327132,-2.2904963
1409346737151,6.9605427,7.7703815,-3.168726,6.121325,7.353575,-2.150514
1409346737152,6.344036,7.65965,-3.4739866,6.103298,7.3945713,-2.0592318
1409346737152,5.9681463,7.711724,-3.5422213,6.052223,7.451906,-2.0025136
1409346737153,5.3642087,8.067263,-3.697246,5.979598,7.5168347,-1.9778695
1409346737153,4.461595,8.406042,-3.828927,5.8900905,7.5937777,-1.9523804
1409346737154,4.602853,8.854357,-6.4739213,5.786539,7.6813564,-1.9191426
1409346737154,5.8226986,9.631275,-4.9021277,5.6751957,7.770891,-1.8909731
1409346737155,5.7808,9.567828,-1.7310078,5.573321,7.8576794,-1.8344951
1409346737156,5.121796,8.692748,0.50278234,5.477672,7.9475093,-1.7327939
1409346737156,3.9857473,7.1742253,1.3347675,5.3662043,8.050845,-1.5994173
1409346737157,3.7882257,6.5128274,1.6502035,5.2236214,8.167424,-1.4755752
1409346737157,4.0743327,6.8366427,2.195483,5.067831,8.287503,-1.3434144
1409346737158,4.1880574,8.017583,2.3780408,4.8953614,8.411133,-1.2077438
1409346737158,4.775235,9.535507,1.5334862,4.7087717,8.535297,-1.0707777
1409346737206,5.077503,10.366894,1.1300632,4.5127044,8.656812,-0.93031913
1409346737207,4.282628,10.441113,1.3329718,4.3096743,8.774029,-0.7832868
1409346737207,3.341707,10.06283,1.4808137,4.095592,8.887822,-0.63493204
1409346737208,2.4809916,9.4457245,1.7160441,3.8736625,8.995376,-0.49835482
1409346737210,2.1350293,9.155427,1.6579847,3.6538234,9.093067,-0.36891165
1409346737246,2.1721394,8.919599,1.7244238,3.4575477,9.173035,-0.26678252
1409346737247,2.428319,8.710106,1.4736311,3.3016958,9.232173,-0.19030611
1409346737247,2.834735,8.724471,0.7793127,3.1836145,9.274456,-0.13940373
1409346737259,3.2788591,8.839992,0.85473,3.0916042,9.305833,-0.117854446
1409346737260,3.435081,8.957307,0.8984242,3.0136695,9.331349,-0.11859677
1409346737274,2.9352913,9.161413,0.8439561,2.9408743,9.354321,-0.13531493
1409346737277,2.843713,9.903017,0.44532153,2.8682034,9.376391,-0.16462566
1409346737299,3.0705638,10.749966,-0.30645782,2.7993932,9.396451,-0.2012109
1409346737299,3.2303767,11.555614,-0.86251116,2.7520804,9.409198,-0.25190026
1409346737309,2.903568,11.581951,-0.5722142,2.7334716,9.412941,-0.3083592
1409346737325,2.1577742,10.553641,0.33997664,2.7342637,9.411167,-0.35233694
1409346737331,1.5951369,9.452309,0.45609543,2.739689,9.408793,-0.37300432
1409346737345,-0.1376666,8.034343,-0.5542577,2.742602,9.407613,-0.38127524
1409346737359,1.0175357,9.563639,0.3441665,2.736295,9.409099,-0.38981804
1409346737360,2.1649568,10.534488,0.52492875,2.7327533,9.410374,-0.38384655
1409346737375,3.3303347,10.951677,-0.29747957,2.7355258,9.410511,-0.3599222
1409346737377,3.8205473,10.59135,0.17417817,2.737749,9.410694,-0.33756357
1409346737392,3.626617,9.768343,0.5554548,2.7216344,9.4157715,-0.32611194
1409346737407,3.5362358,9.149442,-0.24361002,2.6827447,9.426871,-0.32768375
1409346737411,3.5643678,8.715493,-1.3605051,2.6392813,9.4381695,-0.3542797
1409346737423,3.7708676,9.033921,-2.819771,2.6123815,9.443429,-0.4092892
1409346737429,3.6966474,9.695918,-0.7697359,2.6118705,9.439893,-0.4867854
1409346737439,3.039439,10.09156,0.53091425,2.6201243,9.433981,-0.5525779
1409346737458,2.327164,8.367136,0.31603462,2.6349082,9.426569,-0.6061842
1409346737458,2.088941,7.2604165,-0.065242,2.6482449,9.418298,-0.67296255
1409346737474,2.0560207,7.1341224,-0.10175357,2.660894,9.407797,-0.7638283
1409346737477,2.5803509,7.419631,0.42078096,2.6819255,9.392901,-0.8666412
1409346737491,2.9137435,8.025963,-0.012569559,2.7225337,9.371612,-0.9649268
1409346737506,4.441244,8.895657,-0.5081693,2.7829642,9.343781,-1.0579383
1409346737511,6.417059,8.87351,-1.1947067,2.8596709,9.309986,-1.1475337
1409346737525,5.7125654,7.5243773,-2.2493525,2.9585526,9.268676,-1.228412
1409346737542,5.271434,6.6882024,-2.5079262,3.036932,9.234038,-1.2961303
1409346737543,4.5687356,6.14412,-1.8297687,3.0621884,9.219568,-1.3390181
1409346737558,3.2303767,5.54557,-0.47465047,3.011122,9.233658,-1.3576095
1409346737559,1.9572599,4.924873,0.8535329,2.885816,9.272336,-1.3661155
1409346737575,1.1258733,4.359243,1.0450691,2.7071557,9.324617,-1.3759397
1409346737577,0.86251116,3.879804,0.11611878,2.5096242,9.378563,-1.3837408
1409346737592,1.027711,3.9671922,-0.5638345,2.3197277,9.427582,-1.3820094
1409346737608,1.417966,4.1838675,-0.9768343,2.1600616,9.46803,-1.364152
1409346737609,1.6807296,4.3676224,-0.47165772,2.048457,9.49879,-1.3218265
1409346737626,2.0201077,5.3049526,0.81522566,1.9847757,9.521391,-1.254675
1409346737641,3.4913447,9.054871,1.2749124,1.963751,9.537275,-1.1638145
1409346737642,6.555324,16.218323,1.0576386,1.9873089,9.545304,-1.0527089
1409346737720,9.959281,19.608511,3.0998926,2.0788188,9.53872,-0.928301
1409346737721,13.980941,19.608511,4.4125137,2.1396282,9.533134,-0.84363973
1409346737722,14.297574,19.608511,1.9644425,2.2069306,9.523592,-0.77526814
1409346737724,8.793902,17.099388,-0.16579847,2.2185931,9.525794,-0.7123911
1409346737724,3.793014,6.889914,-0.89902276,4.4311867,8.721766,0.68246645
1409346737725,2.0320787,2.7210102,-0.5943606,4.268423,8.807784,0.6114612
1409346737732,0.6206968,3.3051953,-0.05207389,4.2012215,8.842733,0.5711418
1409346737732,-2.5833437,6.203377,-0.39504328,4.089324,8.896577,0.54656297
1409346737733,-5.5886655,8.334815,-1.6334441,3.6440337,9.093961,0.43734828
1409346737861,-6.4661403,9.788693,-2.8048072,2.847519,9.382311,0.18505189
1409346737861,-4.0120835,9.721058,-4.2317514,1.989958,9.600878,-0.18328445
1409346737862,-0.40821138,10.09994,-6.8079123,1.5026228,9.671441,-0.61296314
1409346737862,1.4269443,10.986393,-11.332953,1.4733596,9.621439,-1.1947875
1409346737863,0.61411273,9.852738,-14.343662,1.6120267,9.441578,-2.1043642
1409346737864,-1.7711107,7.741651,-12.957419,1.5888164,9.1373625,-3.186636
1409346737864,-3.843891,6.9647326,-9.12131,1.2452099,8.831104,-4.078164
1409346737865,-5.0637364,7.3298483,-5.638345,0.6589686,8.638288,-4.5952353
1409346737868,-5.3085437,7.8972745,-2.9873652,0.027452655,8.589946,-4.731013
1409346737869,-4.744709,8.224682,-1.0827777,-0.61064976,8.641859,-4.5951896
1409346737870,-3.3411086,8.786121,-0.0688333,-1.0662926,8.752238,-4.29322
1409346737870,-1.9446903,9.284714,0.25198972,-1.290171,8.892999,-3.9268847
1409346737871,-1.5885528,9.374496,-0.18555063,-1.3365948,9.036598,-3.5670455
1409346737918,-1.1773487,9.617508,-0.97623575,-1.3471131,9.142641,-3.2814312
1409346737918,-0.56802434,9.888053,-1.8980033,-1.3131901,9.215038,-3.0869138
1409346737919,-0.047884032,10.1161,-2.566584,-1.214607,9.26403,-2.9787347
1409346737920,0.3669114,10.396821,-2.944868,-1.0731796,9.2941265,-2.9390335
1409346737920,0.41240123,10.478823,-2.6844985,-0.8995383,9.318354,-2.9205298
1409346737921,0.1328782,10.266336,-1.9033904,-0.75293463,9.348371,-2.865562
1409346737963,-0.10654198,10.0748005,-1.1067197,-0.66738695,9.391563,-2.7429082
1409346737964,-0.11611878,10.04607,-0.7338228,-0.62537646,9.445228,-2.5626147
1409346737964,0.017357962,10.12448,-0.5907693,-0.5861322,9.497587,-2.371227
1409346737965,0.26156655,10.227431,-0.62728083,-0.52846944,9.544504,-2.1894202
1409346737969,0.49440265,10.15381,-0.7320272,-0.44423693,9.583761,-2.0308964
1409346737978,0.52612585,9.993398,-0.6919243,-0.34546238,9.613805,-1.904164
1409346737992,0.4297592,9.958682,-0.6937199,-0.25576633,9.638142,-1.7919807
1409346738006,0.27473465,10.046669,-0.7368156,-0.18879619,9.657784,-1.6917282
1409346738011,0.17717093,10.113108,-0.7697359,-0.14664018,9.673628,-1.6030648
1409346738023,0.14903906,10.132261,-0.7146692,-0.11602,9.686803,-1.524057
1409346738040,0.046088383,10.119094,-0.5907693,-0.08781126,9.699284,-1.4444937
1409346738041,-0.13946225,10.039486,-0.48003745,-0.07242402,9.711597,-1.3601453
1409346738054,-0.3298013,9.997588,-0.4165911,-0.073679276,9.723375,-1.2731588
1409346738058,-0.4357447,9.948506,-0.45010993,-0.09487375,9.733953,-1.1880761
1409346738072,-0.5279215,9.916184,-0.4961983,-0.12492519,9.742332,-1.1143376
1409346738078,-0.6254852,9.936536,-0.6003461,-0.15998101,9.7486,-1.0533864
1409346738090,-0.7272388,9.919178,-0.7517793,-0.20161913,9.75252,-1.0090134
1409346738104,-0.7236475,9.931149,-0.8714894,-0.25084054,9.753921,-0.9841338
1409346738111,-0.6781576,9.949704,-0.9720459,-0.29578882,9.753775,-0.97303635
1409346738119,-0.65301853,9.869498,-1.0265139,-0.33150312,9.752941,-0.96986914
1409346738140,-0.60573304,9.822212,-1.0049661,-0.3637427,9.751641,-0.9713772
1409346738140,-0.5554548,9.898229,-0.94690675,-0.38931876,9.75076,-0.9703081
1409346738154,-0.49559975,9.952697,-0.88166475,-0.40832448,9.750868,-0.9613848
1409346738158,-0.39384618,9.924564,-0.8726865,-0.4203022,9.751955,-0.945067
1409346738172,-0.2861071,9.938332,-0.93014735,-0.42122227,9.753387,-0.92974347
1409346738193,-0.20410569,9.988609,-1.0283096,-0.4107713,9.754506,-0.9226345
1409346738193,-0.14425065,9.897031,-1.0803835,-0.39031157,9.754834,-0.9280369
1409346738204,-0.12569559,9.922769,-1.1528081,-0.36904842,9.754872,-0.93629915
1409346738210,-0.14604631,9.956287,-1.2276269,-0.3475874,9.754201,-0.9513924
1409346738222,-0.15263036,9.91439,-1.2707225,-0.33028498,9.752798,-0.97171474
1409346738242,-0.17417817,9.85214,-1.3275849,-0.31566724,9.750949,-0.9948735
1409346738243,-0.2220622,9.81084,-1.3958195,-0.30374563,9.748475,-1.0224326
1409346738255,-0.29448682,9.829395,-1.435324,-0.29672113,9.745193,-1.0552537
1409346738258,-0.37948096,9.888053,-1.5035586,-0.2976409,9.741486,-1.0887121
1409346738270,-0.44831428,9.911396,-1.5771804,-0.30641428,9.737007,-1.1256901
1409346738287,-0.4890157,9.891046,-1.6358383,-0.32068917,9.731769,-1.1662942
1409346738291,-0.6147113,9.8276,-1.7016789,-0.33749154,9.725959,-1.20922
1409346738304,-0.6368576,9.563639,-1.7112557,-0.36527124,9.719074,-1.2556293
1409346738323,-0.6781576,9.561843,-1.7363948,-0.39463732,9.711856,-1.3017367
1409346738323,-0.688333,9.633669,-1.7322049,-0.4251213,9.704612,-1.3454236
1409346738338,-0.7278373,9.8042555,-1.785476,-0.45292556,9.697963,-1.3837451
1409346738339,-0.7080852,9.91439,-1.780089,-0.48113897,9.691327,-1.420231
1409346738355,-0.65182143,9.901819,-1.7669208,-0.50313103,9.685563,-1.451595
1409346738358,-0.59256494,9.840169,-1.7040731,-0.5172928,9.680769,-1.4783479
1409346738372,-0.5542577,9.806051,-1.6938977,-0.52420974,9.677529,-1.4969965
1409346738387,-0.48482585,9.831789,-1.6903064,-0.52736676,9.674726,-1.51392
1409346738390,-0.41599256,9.778519,-1.6891093,-0.5235285,9.6725025,-1.5293852
1409346738403,-0.3597288,9.762358,-1.6843209,-0.5129434,9.67078,-1.5437943
1409346738421,-0.29568392,9.7958765,-1.6478093,-0.49739656,9.669615,-1.5561273
1409346738421,-0.26276365,9.882666,-1.6011224,-0.47749215,9.669556,-1.562719
1409346738439,-0.22565351,9.895236,-1.5646108,-0.45576283,9.670566,-1.562956
1409346738440,-0.17717093,9.863512,-1.5233108,-0.43262863,9.672207,-1.559377
1409346738454,-0.18614918,9.8437605,-1.4999673,-0.40703475,9.67435,-1.5529642
1409346738458,-0.17597382,9.811439,-1.484405,-0.3845102,9.67641,-1.54584
1409346738472,-0.18255788,9.743204,-1.4981717,-0.36250266,9.678325,-1.5391531
1409346738485,-0.19093758,9.697714,-1.5658079,-0.34319416,9.679503,-1.5361639
1409346738492,-0.19752164,9.741408,-1.632247,-0.327581,9.679454,-1.5398964
1409346738503,-0.23163901,9.78989,-1.6478093,-0.31312868,9.6782255,-1.5505817
1409346738510,-0.25677812,9.818023,-1.6160861,-0.30319503,9.676889,-1.5608529
1409346738520,-0.3369839,9.841366,-1.584363,-0.29653263,9.676356,-1.5654373
1409346738537,-0.40462008,9.825804,-1.5598224,-0.2990268,9.676261,-1.5655615
1409346738539,-0.4830302,9.812037,-1.5478514,-0.30780602,9.676185,-1.5643247
1409346738553,-0.5590461,9.797073,-1.5682021,-0.32313833,9.675907,-1.5629513
1409346738558,-0.6147113,9.767146,-1.5981296,-0.34423575,9.674858,-1.5649338
1409346738570,-0.6596026,9.723452,-1.6352397,-0.36981794,9.673231,-1.5691464
1409346738585,-0.712275,9.734225,-1.6867151,-0.39698943,9.670646,-1.5784254
1409346738592,-0.7739257,9.774927,-1.6932992,-0.4272285,9.6673565,-1.59062
1409346738601,-0.8050503,9.811439,-1.702876,-0.46131608,9.664071,-1.6010344
1409346738619,-0.83737206,9.877877,-1.6400281,-0.49388418,9.660991,-1.609884
1409346738619,-0.81283146,9.91439,-1.5693992,-0.52723235,9.659139,-1.610431
1409346738636,-0.7649474,9.917382,-1.5221137,-0.5547773,9.658796,-1.6032141
1409346738638,-0.6841431,9.871892,-1.5035586,-0.5744594,9.659378,-1.5927336
1409346738653,-0.63206923,9.810242,-1.4951789,-0.58513653,9.660425,-1.5824615
1409346738658,-0.58777654,9.785701,-1.5005659,-0.589367,9.661688,-1.5731568
1409346738672,-0.55365914,9.826403,-1.4969746,-0.58836365,9.663067,-1.5650381
1409346738685,-0.5279215,9.847352,-1.4933833,-0.58367026,9.664782,-1.5561811
1409346738690,-0.4830302,9.786898,-1.4748282,-0.5763877,9.666683,-1.547062
1409346738702,-0.3657143,9.659407,-1.4556746,-0.5651298,9.668671,-1.5387802
1409346738721,-0.30645782,9.664794,-1.4329298,-0.5436942,9.671085,-1.5313106
1409346738721,-0.28550854,9.627684,-1.3371617,-0.51945496,9.67378,-1.5226711
1409346738740,-0.25378537,9.643845,-1.2569559,-0.49526423,9.677604,-1.5063396
1409346738740,-0.27353755,9.764751,-1.1587936,-0.46905398,9.682362,-1.4839962
1409346738754,-0.2621651,9.76535,-1.1731589,-0.4456252,9.688226,-1.4526302
1409346738759,-0.23463176,9.667188,-1.2132617,-0.42294574,9.69321,-1.4258988
1409346738772,-0.17836803,9.554661,-1.2617443,-0.3993509,9.696959,-1.4070915
1409346738787,-0.090979666,9.5253315,-1.2761095,-0.372806,9.69957,-1.3963339
1409346738792,-0.05207389,9.585785,-1.323395,-0.34226885,9.7019,-1.3879391
1409346738804,0.015562311,9.68694,-1.323395,-0.3096464,9.703726,-1.382837
1409346738819,0.130484,9.749788,-1.3467385,-0.273954,9.7059765,-1.3745456
1409346738819,0.19931729,9.77373,-1.3485341,-0.23117052,9.708294,-1.3660203
1409346738836,0.22984336,9.790489,-1.3503298,-0.18658173,9.710552,-1.3567463
1409346738839,0.25498247,9.999383,-1.3389573,-0.14412673,9.712571,-1.3474405
1409346738856,0.21188685,10.266336,-1.3413515,-0.10365561,9.71489,-1.3343936
1409346738859,0.14544775,10.271724,-1.3221979,-0.07229279,9.717216,-1.3194089
1409346738871,0.11492168,10.09156,-1.2952632,-0.049476855,9.719008,-1.3072268
1409346738885,-0.010175358,9.919776,-1.3784616,-0.03436229,9.720832,-1.2940927
1409346738892,-0.19153613,9.857527,-1.5598224,-0.03182488,9.720807,-1.2943337
1409346738901,-0.3226187,9.836577,-1.7776948,-0.046878073,9.717932,-1.3153046
1409346738919,-0.44771573,9.912594,-1.9734207,-0.072459675,9.711987,-1.3573668
1409346738920,-0.5482722,10.028113,-2.1332338,-0.106632575,9.703733,-1.4130037
1409346738936,-0.63206923,10.031705,-2.1733365,-0.14722295,9.693843,-1.4758552
1409346738939,-0.7026982,9.956287,-2.2062569,-0.1920017,9.683862,-1.5350357
1409346738953,-0.76554596,9.879075,-2.2469583,-0.2385279,9.673544,-1.5925027
1409346738959,-0.8086416,9.797672,-2.2637177,-0.28719372,9.662703,-1.6492695
1409346738973,-0.7787141,9.704897,-2.2200236,-0.33669484,9.651521,-1.7044536
1409346738984,-0.70509243,9.544485,-2.1230583,-0.37862727,9.6414,-1.7522666
1409346738990,-0.6051345,9.443929,-1.9440918,-0.40930474,9.633208,-1.790029
1409346739000,-0.54887074,9.345766,-1.7914615,-0.42777914,9.628792,-1.8093528
1409346739020,-0.46986207,9.297284,-1.7675194,-0.44040978,9.627196,-1.8148113
1409346739021,-0.30526072,9.335591,-1.8142064,-0.4450585,9.626559,-1.8170562
1409346739036,-0.109534726,9.434352,-1.8393455,-0.42921618,9.625351,-1.8272446
1409346739039,0.034117375,9.411607,-1.8130093,-0.39550388,9.624759,-1.8379269
1409346739052,0.17537527,9.51336,-1.7633295,-0.35150224,9.625139,-1.8448683
1409346739059,0.21428105,9.60015,-1.6166847,-0.29942396,9.627237,-1.8431121
1409346739073,0.23403321,9.585187,-1.460463,-0.24923109,9.632139,-1.8248829
1409346739087,0.2789245,9.561843,-1.2904748,-0.20181057,9.638989,-1.7943054
1409346739093,0.41479546,9.661801,-1.1450269,-0.15519758,9.647946,-1.7502722
1409346739103,0.48722005,9.593566,-1.0833763,-0.09818916,9.658038,-1.6979507
1409346739118,0.49440265,9.648633,-1.0516531,-0.04102964,9.667351,-1.6465286
1409346739119,0.46627077,9.958083,-0.9528923,0.010307167,9.675882,-1.5961157
1409346739139,0.39324763,10.1621895,-0.83976626,0.052993048,9.685747,-1.5342388
1409346739139,0.1412579,10.111911,-0.80086046,0.08320552,9.696572,-1.4628546
1409346739153,-0.25558102,9.986216,-0.9780314,0.085192025,9.706426,-1.3958687
1409346739171,-0.47644615,10.061034,-1.2012907,0.048515026,9.712297,-1.3562098
1409346739171,-0.59615624,10.036493,-1.4083891,-0.0029056584,9.714516,-1.3411121
1409346739186,-0.5967548,9.868899,-1.7022774,-0.0261594,9.708581,-1.3831694
1409346739193,-0.6051345,9.993398,-1.6867151,-0.047359135,9.7009945,-1.4348855
1409346739206,-0.57760113,9.986814,-1.5382746,-0.06884148,9.6929035,-1.4877135
1409346739221,-0.521936,9.946113,-1.3533225,-0.09084377,9.685161,-1.536165
1409346739221,-0.43754035,9.872491,-1.1641805,-0.11403438,9.678224,-1.5777669
1409346739235,-0.43514615,9.753379,-1.0181342,-0.13813479,9.672294,-1.6118524
1409346739239,-0.32142156,9.671976,-1.009156,-0.16420476,9.666844,-1.6418223
1409346739253,-0.12389994,9.69113,-1.1659763,-0.18774639,9.661634,-1.6697248
1409346739269,0.0700304,9.807847,-1.2868834,-0.20607144,9.6561,-1.6993083
1409346739273,0.27593175,9.85214,-1.3443443,-0.2176175,9.65056,-1.7290889
1409346739285,0.427365,9.81084,-1.2982559,-0.22316198,9.645456,-1.7566394
1409346739291,0.5722142,9.746795,-1.2491747,-0.22479455,9.641448,-1.7782906
1409346739300,0.6991069,9.589975,-1.2378023,-0.22441638,9.638787,-1.7927073
1409346739317,0.7284359,9.524135,-1.2000936,-0.2231126,9.637358,-1.8005458
1409346739319,0.7410054,9.649231,-1.1575965,-0.22217824,9.636599,-1.8047256
1409346739337,0.78529817,9.782109,-1.1552023,-0.22103228,9.637167,-1.8018224
1409346739339,0.91578215,9.838972,-1.0977415,-0.21828444,9.638685,-1.7940111
1409346739353,0.98820674,9.751583,-1.1258733,-0.21157968,9.640965,-1.782539
1409346739369,1.0456676,9.624691,-1.1785458,-0.20283261,9.64314,-1.7717464
1409346739372,1.151611,9.506178,-1.2737153,-0.19371143,9.644744,-1.7640228
1409346739383,1.2491747,9.40203,-1.3317747,-0.18404783,9.6454935,-1.7609528
1409346739401,1.328782,9.3499565,-1.4371196,-0.17351182,9.645431,-1.7623689
1409346739401,1.3036429,9.337387,-1.5286977,-0.16246873,9.644726,-1.7672763
1409346739419,1.2952632,9.454104,-1.5867572,-0.15188773,9.643143,-1.7768326
1409346739419,1.364695,9.665991,-1.4796166,-0.1419903,9.641036,-1.7890371
1409346739436,1.3347675,9.871892,-1.2802993,-0.13001229,9.639514,-1.7981226
1409346739439,1.3060371,10.131064,-1.1348516,-0.11668255,9.639139,-1.8010464
1409346739453,1.1426327,10.282497,-0.99538934,-0.10160101,9.639646,-1.7992543
1409346739468,0.6853402,10.327988,-1.1384429,-0.08799042,9.640294,-1.7964929
1409346739471,0.31244332,10.432136,-1.4688427,-0.081839204,9.639987,-1.7984283
1409346739485,0.06703765,10.575189,-1.702876,-0.08186375,9.637472,-1.8118563
1409346739502,-0.16340427,10.532093,-1.7381904,-0.081703596,9.632845,-1.8363098
1409346739503,-0.4141969,10.329185,-1.6867151,-0.08148089,9.626562,-1.8689673
1409346739517,-0.58538234,10.228029,-1.7160441,-0.086990304,9.618913,-1.907705
1409346739519,-0.55605334,10.142437,-1.7609353,-0.10007892,9.609799,-1.9524653
1409346739534,-0.3489549,10.103531,-1.7782934,-0.117609315,9.599414,-2.0019574
1409346739539,-0.016759412,10.016143,-1.7310078,-0.13608634,9.588301,-2.0533757
1409346739553,0.3597288,9.943718,-1.5586253,-0.1517153,9.57726,-2.103201
1409346739567,0.6075287,9.829395,-1.4161704,-0.16576603,9.567091,-2.1479535
1409346739573,0.91817635,9.925163,-1.3108255,-0.18050562,9.558041,-2.1866994
1409346739584,1.2533646,10.402806,-1.216853,-0.19268647,9.550145,-2.219906
1409346739591,1.5119383,11.002554,-1.1534066,-0.1987921,9.543512,-2.247715
1409346739603,1.7609353,11.583746,-0.9684546,-0.19901831,9.53783,-2.2716906
1409346739621,2.059612,12.031462,-0.61650693,-0.19491147,9.534121,-2.2875612
1409346739622,2.7329812,12.62702,-0.19153613,-0.18526334,9.533086,-2.292678
1409346739637,3.2980127,13.363835,-0.6356605,-0.16028526,9.536052,-2.28219
1409346739639,3.2794578,13.03583,-0.86729956,-0.121657126,9.537141,-2.2800333
1409346739652,3.3387144,12.667123,-0.5758055,-0.0941957,9.532941,-2.2988248
1409346739668,3.3865983,12.613852,0.04129998,-0.08026538,9.527801,-2.3205488
1409346739673,3.2148144,12.834118,0.8319851,-0.07044745,9.528376,-2.318515
1409346739691,2.8814218,13.03583,1.7836803,-0.05527327,9.538891,-2.2752786
1409346739692,2.4600422,12.955026,2.5019407,-0.027811844,9.559341,-2.1882963
1409346739700,1.7010803,12.895769,1.4209588,0.005365911,9.583091,-2.0820112
1409346739722,0.7870938,12.73835,-1.0235212,0.043730423,9.6039915,-1.9828795
1409346739723,0.6194997,11.250354,1.6986861,0.084612176,9.616381,-1.9205364
1409346739740,0.13467385,10.696694,2.2164323,0.1356085,9.636776,-1.8123312
1409346739740,-0.31423897,11.383232,1.846528,0.19115503,9.671233,-1.6127903
1409346739755,-0.093972415,11.906365,0.7846996,0.24970074,9.714473,-1.317973
1409346739769,-0.05327099,12.197261,-0.7990648,0.3258236,9.748692,-1.0135387
1409346739771,-0.75836337,13.0998745,-2.0386627,0.41464844,9.769831,-0.74085313
1409346739788,-1.2312182,13.536817,-2.3421278,0.50986177,9.779622,-0.51907355
1409346739804,-2.2385786,14.103643,-2.4211364,0.61499417,9.781412,-0.34082654
1409346739805,-2.9735985,14.636952,-2.8933928,0.7151295,9.778824,-0.18329497
1409346739827,-3.153762,14.908095,-3.9228995,0.80180913,9.773738,-0.03905951
1409346739828,-3.4524388,14.64593,-6.2967505,0.8749153,9.767146,0.088170744
1409346739832,-4.120421,13.189058,-7.1006036,0.9215543,9.761688,0.1748758
1409346739840,-3.9606082,10.948086,-6.381146,0.9320161,9.758817,0.25929743
1409346739859,-2.3050177,9.404425,-4.259285,0.94121647,9.75424,0.37321958
1409346739860,-0.23163901,9.004593,-1.283292,0.95718,9.74541,0.5302695
1409346739872,1.5855601,8.839992,0.82599956,1.0045502,9.729615,0.70417994
1409346739904,3.6343982,9.3499565,0.3429694,1.1061715,9.705536,0.86566025
1409346739906,5.205593,9.993398,-2.0392613,1.2722894,9.675185,0.9707877
1409346739909,5.401319,9.570822,-4.177882,1.4894586,9.641938,0.99244744
1409346739933,2.6886885,8.372523,-4.832696,1.7177409,9.606708,0.9648608
1409346739934,-0.3812766,7.9864583,-2.6120741,1.9042467,9.573061,0.949067
1409346739935,-1.3694834,7.897873,-0.9463082,2.0350616,9.542498,0.98470694
1409346739942,-2.2296004,7.380127,-0.27952304,2.1271336,9.51426,1.060457
1409346739971,-2.5971103,6.5445504,1.4790181,2.2025595,9.487263,1.1449765
1409346739972,-2.8000188,5.5042696,1.8166006,2.2676935,9.45919,1.24566
1409346739973,-2.2894554,4.924873,-0.013766659,2.318234,9.430906,1.3616874
1409346739993,-1.0181342,4.8602295,-0.8798691,2.3583372,9.403894,1.4749291
1409346739994,-0.7727286,4.6040497,-2.297835,2.3887434,9.378941,1.5810754
1409346740000,-1.1552023,4.525041,-3.0376434,2.4095702,9.3562,1.6810312
1409346740018,-1.5340848,4.5741224,-2.8167782,2.4232752,9.338682,1.7570273
1409346740020,-1.8722657,4.68246,-1.8980033,2.4337387,9.324382,1.8174747
1409346740037,-2.6473885,4.5842977,-1.0139444,2.4517121,9.311039,1.861196
1409346740056,-3.1471782,4.3544545,-0.54647654,2.480229,9.299337,1.8818063
1409346740058,-3.3063924,4.2263646,-0.49320555,2.5130315,9.290335,1.8827436
1409346740077,-3.3961751,4.122815,-0.61052144,2.5407062,9.285192,1.8709418
1409346740078,-3.3039982,4.267066,0.3417723,2.5614252,9.282974,1.8536114
1409346740080,-2.870648,5.1146135,0.99060094,2.566082,9.28741,1.8247225
1409346740105,-2.11827,6.161478,1.6555905,2.5494077,9.301018,1.7781984
1409346740106,-0.86729956,7.4387846,2.4426842,2.5104678,9.323743,1.7134032
1409346740123,0.8331822,9.003395,3.4853592,2.4511466,9.353634,1.6345671
1409346740123,3.276465,12.154763,4.6896424,2.3789454,9.386737,1.549248
1409346740137,6.6241574,17.298706,6.1650696,2.3114874,9.416337,1.4696932
1409346740151,11.106702,19.608511,7.9475527,2.2840786,9.431919,1.4114735
1409346740155,15.5042515,19.608511,7.543531,2.2213678,9.465022,1.2842461
1409346740169,16.195578,18.497004,5.2995653,2.1829643,9.488984,1.1680088
1409346740172,11.268311,15.584457,3.702633,2.19414,9.501368,1.0393238
1409346740185,7.0425444,13.603854,5.8226986,3.530806,8.940694,1.9410832
1409346740202,5.3079453,12.957419,5.799355,3.6420596,8.856604,2.1133802
1409346740203,3.8726213,11.243171,2.8742392,3.6142805,8.807614,2.3522942
1409346740221,2.0386627,9.052477,-0.6733692,3.5562675,8.809162,2.4335258
1409346740221,0.1364695,7.3849154,-3.4081461,3.4474914,8.891942,2.284415
1409346740235,-1.0432734,7.805696,-3.9797618,3.2640274,9.037415,1.9600189
1409346740250,-3.2208,10.43034,-4.5322237,2.9936063,9.211366,1.5360537
1409346740252,-4.908712,12.129025,-3.5314474,2.4848151,9.431562,1.020652
1409346740268,-4.7297454,13.306375,1.5711949,1.812295,9.619697,0.5894212
1409346740286,-5.197213,13.98513,6.0836663,1.1830256,9.713558,0.6462327
1409346740287,-4.072537,15.881937,7.8224554,0.5848872,9.729277,1.0814216
1409346740303,-1.365892,15.67005,3.152565,0.15690088,9.683908,1.5387346
1409346740304,-2.15957,12.108076,-6.2500634,0.011338848,9.682489,1.5555233
1409346740317,-2.2499511,10.839149,-6.9078703,-0.18336481,9.769851,0.82871264
1409346740320,-2.2451627,10.135853,-4.049194,-0.35447264,9.798799,0.16827428
1409346740335,-3.2345665,8.304887,-2.665345,-0.48704687,9.793864,-0.11586346
1409346740350,-2.8760347,7.1808095,-2.0069396,-0.7154523,9.777026,-0.2612958
1409346740352,-2.2571337,6.8468184,-1.2922704,-0.930464,9.754635,-0.38952485
1409346740370,-2.2505496,6.554127,-0.6362591,-1.0803632,9.735529,-0.4718651
1409346740372,-2.4361002,6.441001,-0.2753332,-1.2287048,9.716911,-0.4922305
1409346740391,-2.1254525,6.649895,-0.11192893,-1.3929443,9.695069,-0.48549893
1409346740394,-1.6316484,7.1251445,-0.10414778,-1.5177845,9.677241,-0.46659994
1409346740400,-1.234211,7.803302,-0.1364695,-1.572622,9.669491,-0.44521293
1409346740419,-1.0552444,8.644864,-0.25617957,-1.5727485,9.6703615,-0.42538545
1409346740420,-1.0522517,9.551667,-0.4177882,-1.5497385,9.67464,-0.41236553
1409346740435,-1.1300632,10.472239,-0.5931635,-1.5219808,9.679227,-0.40812802
1409346740458,-1.122282,11.336545,-0.8631097,-1.4959031,9.683064,-0.41341868
1409346740459,-0.9451111,11.98657,-1.2551602,-1.4507598,9.6884165,-0.44755453
1409346740461,-0.49320555,12.278664,-1.4616601,-1.3926029,9.694444,-0.4988167
1409346740491,-0.013766659,11.938686,-1.2946646,-1.2859823,9.705874,-0.5591626
1409346740493,0.4321534,11.055825,-1.0360907,-1.1461631,9.721547,-0.5901092
1409346740494,0.7092823,10.077793,-0.61530983,-0.9876348,9.738426,-0.59835094
1409346740501,0.89902276,9.390657,-0.038307227,-0.82747144,9.754376,-0.5812418
1409346740521,1.2042835,8.815451,-0.9552865,-0.6670726,9.769633,-0.5288259
1409346740522,1.4449008,8.46051,-2.0841527,-0.48591876,9.776969,-0.5874789
1409346740537,1.4449008,8.289924,-2.8042088,-0.2936179,9.773549,-0.7496005
1409346740552,1.8680758,8.169615,-3.4763808,-0.10971856,9.754281,-1.0061696
1409346740553,2.961029,8.907627,-3.2279825,0.09775018,9.71636,-1.324089
1409346740568,3.5631707,9.370906,-2.6318262,0.38909432,9.671139,-1.5773563
1409346740587,2.6563668,9.305065,-2.0087352,0.7219722,9.627379,-1.7212578
1409346740588,1.6573862,9.38168,-1.8866309,0.93863344,9.599652,-1.7708815
1409346740601,1.2473791,9.5798,-1.441908,1.0202727,9.587374,-1.7921205
1409346740602,0.943914,9.970055,-0.5614403,1.0439076,9.589374,-1.7676383
1409346740619,0.91458505,10.5285015,0.3226187,1.0384394,9.609955,-1.6555431
1409346740621,0.88166475,10.809821,0.6871359,1.0236498,9.640901,-1.4749773
1409346740643,0.700304,10.638037,0.70509243,0.996931,9.670308,-1.2890536
1409346740644,0.45908818,10.362105,0.5518635,0.9520824,9.6939745,-1.1361328
1409346740656,0.25737667,9.941922,0.2801216,0.88778937,9.713055,-1.019213
1409346740679,0.18315643,9.638457,-0.2208651,0.8132792,9.7275915,-0.9396425
1409346740681,0.2885013,9.745598,-0.7685388,0.7451701,9.73594,-0.90915966
1409346740682,0.31423897,10.111312,-1.3545196,0.6963395,9.737906,-0.92663616
1409346740719,0.34117374,10.409989,-1.733402,0.65509737,9.7343445,-0.9918542
1409346740721,0.38187516,10.473435,-1.3575124,0.61729515,9.727885,-1.0759214
1409346740722,0.33758244,10.456676,0.023343466,0.5865844,9.726718,-1.1032861
1409346740723,-0.04249708,10.378864,1.553837,0.558079,9.740495,-0.99080175
1409346740759,-0.362123,10.253767,2.6803088,0.49709818,9.765529,-0.7468112
1409346740760,-0.022744916,10.454881,2.9370868,0.41081253,9.788293,-0.43699616
1409346740762,0.8050503,11.162966,2.3391352,0.37004212,9.798686,-0.13860476
1409346740766,1.7112557,12.134413,1.863886,0.41176498,9.797876,0.04970365
1409346740793,2.6659436,12.785636,1.1498153,0.5290142,9.790796,0.1757029
1409346740794,3.642778,13.105262,1.2605472,0.70523006,9.777908,0.25601065
1409346740795,4.143166,13.56016,2.6886885,0.9386256,9.753384,0.40109366
1409346740801,4.4699745,13.765463,4.1276035,1.1808883,9.709481,0.70842946
1409346740818,4.988918,13.736134,2.6473885,1.400771,9.643802,1.0978754
1409346740821,3.9725792,13.043013,-1.5586253,1.6154443,9.590747,1.2563092
1409346740834,4.223372,12.835914,-3.6774938,1.7428479,9.596418,1.0206035
1409346740852,4.4119153,12.167932,-6.341642,1.8953187,9.603287,0.5958578
1409346740852,5.307347,12.405556,-5.6497173,2.0668397,9.586372,0.00527531
1409346740869,5.322909,13.117831,-4.4538136,2.2724693,9.527566,-0.48142743
1409346740888,3.550601,12.889784,-2.742558,2.4306867,9.465416,-0.81734544
1409346740889,2.1410148,11.032481,0.8283938,2.4466412,9.448304,-0.9559768
1409346740893,1.1300632,9.500791,5.4420204,2.4204137,9.470648,-0.7866405
1409346740901,-0.03232172,9.1512375,7.277176,2.3633356,9.513429,-0.2823355
1409346740920,-0.5506664,9.838972,3.750517,2.2733903,9.529083,0.445681
1409346740921,0.06943185,9.900622,0.56084174,2.0985692,9.544852,0.8137664
1409346740936,0.4297592,9.713875,-1.3102269,1.9450588,9.575539,0.83438075
1409346740953,0.2100912,10.447698,-2.995745,1.825214,9.611844,0.6718974
1409346740954,-0.1921347,12.091916,-3.9031472,1.6880729,9.653343,0.36573768
1409346740971,-0.97144735,18.517954,-4.973954,1.5235006,9.687587,0.003151742
1409346740973,-0.9307459,19.608511,-8.399458,1.2658672,9.716936,-0.38617316
1409346740981,-0.9283517,19.608511,-9.155427,1.0650123,9.702428,-0.94816333
1409346741002,-1.9853917,19.09316,-7.071873,0.9082395,9.657199,-1.443602
1409346741002,-4.396353,13.405135,-6.2045736,0.6896908,9.634711,-1.6932389
1409346741018,-5.2444987,9.9928,-4.6501384,0.30022126,9.611839,-1.9216564
1409346741035,-4.2940006,8.92738,-2.8514943,-0.1804951,9.580017,-2.0883152
1409346741036,-2.7449522,8.404845,-1.2312182,-0.5610367,9.554819,-2.1356587
1409346741053,-2.019509,8.3312235,-0.75237787,-0.75053066,9.555109,-2.07533
1409346741069,-1.0791864,8.7538,0.5614403,-0.85815924,9.566239,-1.9801565
1409346741069,-0.7188591,9.216479,0.15682021,-0.8600211,9.603555,-1.7895377
1409346741083,-1.2126632,8.613141,-1.5197195,-0.834227,9.632686,-1.6388392
1409346741084,-1.8183962,7.161656,-2.4654293,-0.8651253,9.627066,-1.6557605
1409346741099,-1.893215,5.5443726,-2.083554,-0.97200996,9.594792,-1.7791965
1409346741101,-1.5011644,4.559757,-1.2360066,-1.0960163,9.562404,-1.8787124
1409346741118,-1.0959458,4.4280763,-1.9692309,-1.1804978,9.547167,-1.9048427
1409346741133,-0.45789108,4.345476,-0.51475334,-1.2157665,9.521822,-2.0067906
1409346741133,-0.10175357,4.8039656,0.20111294,-1.192538,9.532936,-1.967586
1409346741153,-0.362123,4.9135003,-0.79008657,-1.1246846,9.563453,-1.8562983
1409346741153,-1.3748703,4.5322237,-1.9644425,-1.0945803,9.566477,-1.8587085
1409346741164,-1.6256629,4.019266,-2.0129251,-1.199475,9.526813,-1.9928545
1409346741182,-2.1164744,3.630807,-1.702876,-1.3301905,9.476107,-2.1457825
1409346741182,-2.6599581,3.4811692,-1.5999253,-1.5254272,9.417446,-2.2705061
1409346741199,-2.861071,3.3842041,-1.22224,-1.8124007,9.343118,-2.3646915
1409346741201,-2.9753942,3.376423,-1.1282675,-2.1335225,9.267601,-2.3937485
1409346741214,-2.8006175,3.369839,-0.94570965,-2.4529421,9.182757,-2.4146302
1409346741231,-2.4905684,3.4889505,-0.6679823,-2.7405722,9.100435,-2.4169743
1409346741235,-2.0961237,3.904943,-0.14604631,-2.9708073,9.036085,-2.386182
1409346741250,-1.5442601,4.671686,0.90620536,-3.1200204,9.015782,-2.2697027
1409346741254,-0.75716627,6.0477533,2.7473464,-3.1489437,9.075297,-1.9732047
1409346741277,0.28491,8.239645,5.3648076,-2.9936407,9.238775,-1.3614523
1409346741277,2.5312698,12.378023,7.602189,-2.5873055,9.452819,-0.34703514
1409346741281,7.845799,19.034502,10.995371,-1.7511684,9.613778,0.82406336
1409346741312,15.115792,19.608511,11.320384,-1.8062314,9.620678,0.5920133
1409346741313,15.407885,19.472042,8.617331,-1.834467,9.624937,0.4070649
1409346741314,11.359888,15.222335,5.3701944,-1.8049563,9.634292,0.3048513
1409346741342,8.197148,12.165538,5.885546,3.113771,8.836165,2.8977559
1409346741343,5.8382607,11.22282,8.570643,3.43561,8.6998005,2.9462614
1409346741343,4.197036,10.9582615,8.2115135,3.5287874,8.557437,3.23857
1409346741373,2.4073699,9.7803135,5.036802,3.4848983,8.4617,3.5249822
1409346741374,0.85652566,7.240066,-0.91937345,3.3206475,8.459247,3.6857607
1409346741375,0.035314474,6.96593,-7.517793,3.171558,8.604586,3.474582
1409346741382,-0.79487497,11.423933,-9.961675,3.004788,8.923631,2.7405217
1409346741413,-3.6164417,16.48408,-2.428319,2.6931143,9.285313,1.643319
1409346741414,-2.1643584,13.388376,2.5875335,1.9964006,9.523158,1.2223886
1409346741416,-2.0159178,12.529456,3.1376014,1.549621,9.594862,1.3067892
1409346741458,-2.408567,13.384785,2.0494366,1.1892107,9.630188,1.419735
1409346741460,-3.283049,12.543222,-0.75237787,0.83334965,9.667797,1.4176097
1409346741462,-2.3942018,11.936293,-0.16280572,0.45077804,9.729181,1.1446522
1409346741464,-3.654749,9.320028,-2.6683378,0.21173956,9.757785,0.95457673
1409346741465,-4.341286,7.8942814,-4.64535,-0.08319412,9.786396,0.624467
1409346741505,-2.7269957,8.353969,-4.007295,-0.44129956,9.79519,0.17298959
1409346741506,-2.0512323,8.333617,-2.4199393,-0.65706605,9.782963,-0.17964977
1409346741507,-3.028665,7.6973586,-1.0690111,-0.80492365,9.767337,-0.3487706
1409346741508,-3.913921,7.5255747,-0.23403321,-1.0643677,9.740393,-0.40280107
1409346741513,-3.052607,8.143877,0.29269117,-1.3886042,9.700615,-0.37446702
1409346741549,-1.6370354,8.893861,0.37828386,-1.6059254,9.669181,-0.31359833
1409346741550,-0.5955577,9.261371,0.25797522,-1.6255023,9.66778,-0.24932382
1409346741550,-0.33039984,9.46847,0.15442601,-1.5232493,9.685449,-0.20538448
1409346741589,-0.6183026,9.485827,0.038905777,-1.4165834,9.702141,-0.17932704
1409346741591,-1.0181342,9.764751,-0.109534726,-1.3674794,9.709375,-0.16858982
1409346741592,-1.0959458,10.389638,-0.41180268,-1.3649731,9.709713,-0.1693989
1409346741594,-0.93493575,10.837953,-0.8283938,-1.3498496,9.711282,-0.19830285
1409346741598,-0.55006784,10.597335,-1.1115081,-1.3145341,9.714741,-0.2573002
1409346741602,0.12808979,9.904813,-1.3934253,-1.2365532,9.722617,-0.33470985
1409346741627,0.6931214,9.267356,-1.5436616,-1.0983143,9.735688,-0.42481035
1409346741628,0.9564836,9.336189,-1.3180081,-0.917956,9.74996,-0.5157855
1409346741633,1.3180081,9.72824,-1.2324153,-0.7273995,9.762995,-0.5702861
1409346741658,1.2922704,9.6923275,-1.7543513,-0.52102834,9.773831,-0.60921586
1409346741659,1.3874398,9.57142,-2.9574378,-0.33912164,9.775149,-0.70839
1409346741662,0.54168814,9.115324,-2.8473043,-0.16337329,9.761674,-0.9238045
1409346741687,0.18914193,7.9972324,-3.5847185,-0.09943594,9.740999,-1.1284504
1409346741687,0.22445641,6.329671,-4.373608,-0.078946404,9.70535,-1.4036785
1409346741693,2.3403323,7.74225,-3.4889505,-0.041493163,9.644236,-1.7768968
1409346741702,3.8732197,9.72824,-3.8630445,0.24589638,9.587763,-2.0456517
1409346741731,3.6152446,10.365696,-3.651756,0.6669097,9.506275,-2.3143787
1409346741732,1.9351135,9.88925,-2.1164744,0.951585,9.437377,-2.4901404
1409346741762,0.60693014,9.5809965,-0.5009867,1.0174495,9.435226,-2.47218
1409346741763,0.25917232,9.771336,0.20231004,0.94198626,9.488036,-2.293519
1409346741763,0.24361002,9.783307,0.5530606,0.852123,9.549837,-2.0603049
1409346741764,-0.036511578,9.4535055,0.7637503,0.7952865,9.602348,-1.825607
1409346741783,-0.3453636,9.325416,0.7870938,0.7215119,9.647745,-1.6033845
1409346741784,-0.34715924,9.294291,0.6691794,0.6167878,9.686241,-1.4023868
1409346741798,0.049081136,9.362526,0.47884035,0.5226605,9.715088,-1.230558
1409346741802,0.7158663,9.620501,0.25438392,0.48521894,9.733339,-1.0941064
1409346741814,1.4867992,9.940725,-0.14305355,0.51637894,9.743307,-0.98575425
1409346741831,1.91596,10.295666,-0.6811504,0.62568045,9.74218,-0.93210477
1409346741850,2.0919337,10.843938,-1.210269,0.75337213,9.732812,-0.93550146
1409346741851,1.0594343,11.087548,-0.7350199,0.8644568,9.718307,-0.98875415
1409346741863,1.1121067,11.269507,-0.5231331,0.8499854,9.719842,-0.9861969
1409346741864,1.5849615,11.750742,-0.25677812,0.8414561,9.722343,-0.96870565
1409346741880,1.9219455,12.090718,0.47285482,0.8847686,9.722034,-0.93252754
1409346741882,2.0147207,12.066776,1.377863,0.9554899,9.724576,-0.8306737
1409346741903,2.303222,11.823765,2.5330653,1.0416163,9.730307,-0.6376158
1409346741904,2.7994204,12.376227,3.8283286,1.1526564,9.732929,-0.33441755
1409346741918,3.1112652,13.615825,3.5913026,1.296993,9.720022,0.09693623
1409346741937,3.2237926,14.100053,2.497751,1.4220228,9.690632,0.4897788
1409346741937,3.5781345,13.61762,1.9925743,1.5026494,9.662342,0.74267805
1409346741942,3.6529531,12.601282,0.6183026,1.582918,9.636239,0.89869976
1409346741974,3.1172507,12.159552,-2.552219,1.6775293,9.620086,0.90014064
1409346741975,3.7493198,13.308768,-4.2969937,1.7495617,9.628782,0.62927204
1409346741976,4.023456,14.621988,-5.227141,1.8677539,9.624858,0.20972061
1409346741982,2.8868086,14.952987,-5.710171,1.984911,9.600879,-0.23159927
1409346742003,1.5041572,14.890139,-5.3115363,1.9952536,9.57926,-0.65357643
1409346742004,0.8924387,14.246697,-5.559336,1.8891166,9.569824,-1.0099872
1409346742017,1.4796166,11.827356,-4.086902,1.7583903,9.552158,-1.3545167
1409346742039,1.1761516,8.507795,0.37229836,1.7202392,9.530233,-1.544622
1409346742040,-0.88286185,6.2500634,9.370307,1.6918671,9.555235,-1.416146
1409346742043,-1.0989386,7.2233067,11.823167,1.5946453,9.664182,-0.4806848
1409346742069,1.0977415,10.1460285,7.578247,1.4855971,9.667356,0.71106476
1409346742070,1.951873,10.943896,3.083732,1.5379186,9.586291,1.3813766
1409346742076,0.90979666,9.910798,0.6410475,1.609979,9.558947,1.4848838
1409346742082,0.19752164,10.478823,-1.0205284,1.5558448,9.5840845,1.3766158
1409346742104,-0.05626374,12.494142,-1.9381063,1.4202716,9.633292,1.163143
1409346742105,-0.12569559,15.279197,-1.7405846,1.2749784,9.683171,0.8837509
1409346742114,-0.5793968,18.569427,-1.9375077,1.1306273,9.719893,0.64479953
1409346742142,-1.347337,19.608511,-3.8905778,0.9627236,9.750332,0.41784886
1409346742143,-1.3383588,19.606716,-3.8851907,0.7604916,9.776658,0.09474442
1409346742144,-0.3453636,17.763182,-4.124611,0.5875564,9.787847,-0.15238428
1409346742177,0.32202014,14.504672,-4.200627,0.50857234,9.786556,-0.36750805
1409346742178,0.6278794,11.756129,-3.5715504,0.4829472,9.777214,-0.5858663
1409346742179,0.24301147,9.800665,-3.9959226,0.47175038,9.764026,-0.78208476
1409346742183,0.06823475,8.787319,-3.9211037,0.43655223,9.744553,-1.0116812
1409346742204,0.6344634,8.999206,-4.437054,0.41021982,9.717849,-1.2512037
1409346742204,0.5662287,9.473856,-6.697779,0.43342006,9.680132,-1.5091779
1409346742214,-0.55365914,8.878299,-7.838018,0.4640619,9.607879,-1.9088477
1409346742231,-2.0745757,6.7971387,-4.5795093,0.39942646,9.506153,-2.3756888
1409346742235,-2.4468741,5.5701103,2.3948002,0.19800738,9.451584,-2.6074429
1409346742253,-2.4546554,5.981913,5.073912,-0.040262893,9.534492,-2.2939575
1409346742256,-1.9973627,6.238691,3.2824504,-0.26347026,9.650329,-1.7239836
1409346742262,-1.3533225,5.6419363,0.2172738,-0.42150122,9.709864,-1.3081511
1409346742286,-0.8499416,4.505289,-1.1917139,-0.5266319,9.716011,-1.2215555
1409346742287,-1.0097545,3.7660792,-1.5753847,-0.58453786,9.702233,-1.3020532
1409346742294,-1.6466122,3.1196449,-1.899799,-0.67121387,9.679253,-1.4254564
1409346742319,-2.12246,3.0831332,-2.0368671,-0.83995277,9.639244,-1.5968273
1409346742321,-3.2788591,2.8042088,-1.9165585,-1.0703309,9.58059,-1.7991819
1409346742322,-3.958214,2.4744074,-1.0947487,-1.4735599,9.48768,-1.995734
1409346742355,-4.14975,2.397793,-0.42796355,-1.9925045,9.377117,-2.066393
1409346742356,-4.1706996,2.4797945,-0.6051345,-2.5309622,9.251446,-2.0433776
1409346742357,-3.8498764,2.5528176,-0.415394,-3.0621197,9.090688,-2.0379438
1409346742363,-3.667917,2.7850552,-0.17238252,-3.5303974,8.929167,-1.9941554
1409346742389,-3.4207156,3.7295678,0.7918822,-3.9404726,8.774256,-1.9119338
1409346742390,-2.4791958,5.601235,3.0813377,-4.242579,8.685435,-1.653522
1409346742395,-0.8559271,8.616732,7.269395,-4.280919,8.766688,-0.99464023
1409346742419,1.1139023,15.246277,10.690709,-3.8809793,9.001192,0.2948904
1409346742420,10.749966,19.608511,19.597738,-2.9023588,9.211716,1.7002898
1409346742423,19.588161,19.608511,10.120291,-3.0675893,9.197334,1.4728717
1409346742459,19.607914,19.608511,3.2213984,-3.198212,9.171823,1.3488879
1409346742460,14.211981,15.704167,4.073136,-3.2212431,9.170543,1.3019651
1409346742461,7.5243773,6.9545574,5.2744265,3.540449,8.622894,3.0465267
1409346742463,5.5671177,6.079477,6.8647747,3.8750134,8.425509,3.1883335
1409346742489,3.3842041,8.034941,4.06715,4.03108,8.232446,3.4853451
1409346742490,0.09995792,11.140819,-1.4688427,3.9806058,8.226154,3.5574644
1409346742499,-4.6896424,18.409018,-6.715137,3.6451252,8.516668,3.2171133
1409346742517,-7.1425023,19.608511,-7.712322,2.8154645,9.103699,2.3165169
1409346742517,-5.547365,16.759413,-3.6703112,2.8151915,9.078687,2.4129949
1409346742523,-3.0142999,11.3323555,-3.3674448,1.1634026,9.689035,0.96927106
1409346742563,-1.8537107,9.467272,-2.8365304,0.8104148,9.751797,0.6450347
1409346742564,-2.6264393,6.955156,-3.4823663,0.59124506,9.782321,0.3563827
1409346742565,-3.555988,5.4144874,-2.0967221,0.32206807,9.801359,0.005950214
1409346742566,-3.472191,5.4085016,-2.2493525,-0.028725598,9.804668,-0.19506161
1409346742590,-2.914342,5.5982423,-3.1651347,-0.37317705,9.791145,-0.40574795
1409346742591,-2.5713725,6.1979895,-3.0053217,-0.64594156,9.760213,-0.70099604
1409346742595,-2.4157495,8.082825,-1.7914615,-0.87537885,9.718785,-0.974314
1409346742612,-2.8538885,10.075399,-0.45549688,-1.0711871,9.688443,-1.0756505
1409346742616,-3.763685,11.0139265,0.3321955,-1.2801899,9.671222,-0.99949825
1409346742631,-4.124611,11.502343,0.52852005,-1.545676,9.646628,-0.85079473
1409346742648,-3.8654387,11.571177,0.4189853,-1.794499,9.614769,-0.7116079
1409346742648,-3.0986955,11.410766,0.21308395,-1.969579,9.588104,-0.5994915
1409346742664,-2.1308396,11.1653595,0.10115502,-2.0545511,9.574051,-0.53552645
1409346742665,-1.7262194,10.62846,0.0077811554,-2.0458775,9.578085,-0.4950334
1409346742684,-1.8650831,10.502765,-0.43394905,-2.018706,9.585172,-0.46874174
1409346742685,-2.1458032,10.906786,-1.0971429,-2.0183043,9.5842085,-0.4896971
1409346742695,-2.3169887,11.304822,-1.9698294,-2.033298,9.576763,-0.5671747
1409346742712,-2.054225,11.624448,-3.181894,-2.0450048,9.564903,-0.7078015
1409346742714,-0.6386533,11.447875,-3.8959646,-2.015946,9.551707,-0.9334017
1409346742727,0.6242881,10.426748,-3.6792896,-1.858088,9.556336,-1.1808227
1409346742746,1.2952632,8.759187,-1.4149733,-1.6127169,9.575819,-1.3686545
1409346742746,1.276708,7.8865004,-0.6302736,-1.3594482,9.619805,-1.334782
1409346742762,1.4622587,8.554482,-0.21068975,-1.1385926,9.660729,-1.2426921
1409346742763,1.3030443,8.809465,-1.9883845,-0.9103724,9.698958,-1.127738
1409346742777,1.0085574,8.373122,-6.905476,-0.70405823,9.705555,-1.2152706
1409346742783,1.2641385,7.077859,-5.85502,-0.5229022,9.626734,-1.7952559
1409346742798,2.047641,7.0886326,-2.2750902,-0.33728346,9.541784,-2.2385297
1409346742813,3.7696705,8.231864,-1.6035166,-0.09260347,9.526815,-2.324129
1409346742815,4.7776294,9.278131,-2.0338743,0.3068094,9.51379,-2.3588243
1409346742828,4.4993033,9.384073,-1.8327614,0.7617516,9.469645,-2.4322705
1409346742846,3.0334535,9.504981,-0.9187749,1.1470366,9.431134,-2.4307282
1409346742846,1.75076,9.957485,-1.0163386,1.3447216,9.438925,-2.2953973
1409346742861,1.1300632,10.377667,-0.1592144,1.3734453,9.464251,-2.1707265
1409346742863,1.0247183,10.668563,0.5674258,1.3358049,9.511834,-1.9776341
1409346742878,1.0289081,10.588357,0.8146271,1.2871076,9.56474,-1.740537
1409346742901,1.0061632,10.286089,0.7733272,1.2534763,9.607193,-1.5169147
1409346742902,0.8523358,10.152613,0.56982,1.225553,9.637911,-1.3338215
1409346742903,0.47105917,10.243592,0.50757074,1.1824653,9.661568,-1.1942688
1409346742956,0.28790274,10.471041,0.7164649,1.1031965,9.685517,-1.069633
1409346742957,0.08020575,10.69011,1.1324574,1.016528,9.70916,-0.9323564
1409346742960,0.23882163,11.552023,-0.61650693,0.9248963,9.732691,-0.7679022
1409346742961,1.0103531,13.007698,-3.4614172,0.8445582,9.738129,-0.79117787
1409346742962,1.34195,13.472772,-3.4925418,0.8323811,9.708754,-1.1034663
1409346742963,1.8441339,12.0332575,1.5334862,0.8260987,9.674207,-1.3775623
1409346742983,3.933075,10.702082,11.511322,0.8767963,9.704759,-1.1042124
1409346742983,5.7161565,10.863091,14.949395,1.2147979,9.730087,0.14167467
1409346742995,5.98311,12.061988,9.207501,1.7120521,9.521846,1.6042858
1409346743016,5.8304796,13.35366,4.8662148,2.0252652,9.3101425,2.321621
1409346743017,6.475717,14.440627,-0.41599256,2.1664577,9.2253685,2.523768
1409346743030,7.2101383,14.994885,-5.153519,2.3393104,9.2625885,2.2141523
1409346743049,6.498462,14.120403,-8.595184,2.546284,9.334346,1.5990003
1409346743050,4.915296,13.224373,-7.4561424,2.760314,9.378555,0.7705577
1409346743055,3.2052376,12.555194,-5.494693,2.8663628,9.378231,0.055965632
1409346743063,2.018312,12.649765,-4.039018,2.8447974,9.37284,-0.476817
1409346743077,1.6172832,13.079524,-2.3223755,2.7354727,9.383537,-0.7980124
1409346743097,2.4558525,12.133216,-0.35913026,2.6037245,9.413362,-0.88298607
1409346743099,3.6948519,9.970055,2.879626,2.5506482,9.433624,-0.8193533
1409346743123,3.989937,8.7125,7.2065473,2.6662865,9.426222,-0.4556826
1409346743124,3.6140475,8.942344,7.675811,2.8383124,9.384358,0.21952158
1409346743126,2.4558525,10.68652,4.6375685,2.960694,9.306738,0.88842344
1409346743155,1.7274165,12.887389,2.7006595,2.9145904,9.282053,1.2324891
1409346743156,1.3634979,14.582484,0.010175358,2.7594585,9.311298,1.362176
1409346743156,0.5153519,12.824541,-3.554791,2.5756118,9.379607,1.2488277
1409346743163,1.0079589,10.602123,-4.617218,2.3879523,9.469447,0.89309275
1409346743184,0.9864111,10.094553,-3.7475243,2.2911894,9.523783,0.46736982
1409346743184,-0.55006784,15.689802,-3.7834373,2.2100348,9.55308,0.15742534
1409346743195,-2.070386,19.474436,-4.6405616,1.9283191,9.614184,-0.13945656
1409346743234,-3.2004492,19.608511,-6.7839704,1.5338732,9.675338,-0.45330155
1409346743236,-2.743755,19.608511,-6.9252286,0.6521207,9.669593,-1.4980332
1409346743237,-2.0231004,19.309237,-7.8757267,0.6521207,9.669593,-1.4980332
1409346743238,-2.3762453,14.934432,-6.159084,0.6521207,9.669593,-1.4980332
1409346743244,-2.5821466,10.850522,-3.2740707,0.43382543,9.6455555,-1.7162311
1409346743272,-2.143409,9.552266,-2.3774424,0.19070378,9.644467,-1.7658626
1409346743273,-1.8255788,9.11712,-3.6834793,-0.035670742,9.644016,-1.7782301
1409346743277,-1.654992,8.8364,-5.651513,-0.20648967,9.6150675,-1.9178774
1409346743299,-2.2026656,8.374319,-5.8334723,-0.3383239,9.545146,-2.223991
1409346743300,-2.932897,6.51163,-3.594894,-0.500259,9.464392,-2.519013
1409346743304,-3.277662,3.8307228,0.7398083,-0.7199352,9.417727,-2.6378958
1409346743337,-3.0520086,3.1172507,4.0037036,-0.9706338,9.439985,-2.4728441
1409346743338,-1.8207904,4.0958805,4.7004166,-1.2076323,9.510075,-2.0665257
1409346743340,-0.82719666,4.9984946,2.023699,-1.3004763,9.588115,-1.5959918
1409346743344,-0.08200141,5.5683146,-0.4405331,-1.2891927,9.624285,-1.3716823
1409346743378,0.43155485,5.7418942,-1.0295067,-1.1929022,9.635319,-1.3813002
1409346743379,0.15861586,5.5168395,-0.89902276,-1.0383757,9.646332,-1.4284374
1409346743380,-0.1604115,5.1277814,-1.1671734,-0.94001263,9.655452,-1.4349257
1409346743410,-0.6422446,4.7177744,-1.6220716,-0.9018042,9.654362,-1.4664376
1409346743411,-1.2162545,4.372411,-1.9075803,-0.9194152,9.635716,-1.5741804
1409346743412,-2.1308396,3.8426938,-2.0135236,-1.0195538,9.599269,-1.727702
1409346743433,-3.0083144,3.3614593,-1.785476,-1.2513502,9.53619,-1.9145825
1409346743434,-3.8271315,3.0214825,-1.3575124,-1.6195426,9.4460535,-2.0783513
1409346743436,-4.250905,3.019687,-0.90740246,-2.1145077,9.324509,-2.180084
1409346743444,-4.072537,3.330933,-0.59495914,-2.6631134,9.178841,-2.1970692
1409346743467,-3.7912183,3.4021606,-0.6266823,-3.1506567,9.035589,-2.1452096
1409346743468,-3.2668881,3.685275,-0.4237737,-3.5617366,8.892084,-2.1012547
1409346743476,-2.6922798,4.5136685,0.58538234,-3.8429482,8.793693,-2.0181906
1409346743502,-2.2337902,6.047155,2.6090813,-3.994821,8.7789345,-1.772605
1409346743503,-1.8830396,8.69993,6.646304,-3.9934385,8.878264,-1.1829176
1409346743504,-0.6799533,14.347853,12.340314,-3.787993,9.045521,0.0081117395
1409346743537,7.318476,19.608511,19.218855,-3.1298947,9.142949,1.6675264
1409346743538,18.41979,19.608511,12.11107,-3.299345,9.125296,1.4190487
1409346743539,18.309658,19.608511,2.1829133,-3.4221601,9.103387,1.2599891
1409346743544,13.476363,18.030733,2.8742392,-3.5164752,9.085655,1.1205682
1409346743569,6.4631476,10.300454,5.474941,-3.5447478,9.09178,0.9719546
1409346743570,3.7630866,7.921815,7.8452005,3.2001455,8.732972,3.1088035
1409346743577,2.1841104,8.678383,7.923012,3.3000026,8.574685,3.4285762
1409346743603,-0.25318682,8.968679,4.469376,3.2118535,8.468393,3.7604117
1409346743603,-2.6396074,11.439496,-2.2523453,2.920007,8.522981,3.8733354
1409346743604,-4.301183,17.714699,-6.6175733,2.4345899,8.863333,3.4182618
1409346743629,-4.3760023,16.391901,-5.7945666,1.7663196,9.322019,2.4800162
1409346743630,-0.41240123,12.065579,-4.2263646,1.1971476,9.579688,1.7224393
1409346743656,-0.53809685,10.316615,-5.5096564,1.0222657,9.671675,1.2585993
1409346743656,-1.6627731,9.385869,-4.7734394,0.87004155,9.742095,0.71064645
1409346743657,-1.2934675,9.11293,-1.1953052,0.64095837,9.782925,0.232286
1409346743664,-1.1186907,9.169792,1.8537107,0.46016312,9.795158,0.11612956
1409346743679,-2.100912,8.5143795,1.4239515,0.31370896,9.797027,0.30042723
1409346743695,-2.7329812,8.224083,0.007182605,0.08425182,9.797705,0.41023183
1409346743697,-1.7633295,8.857947,-0.48243165,-0.19116905,9.797953,0.36602044
1409346743708,-1.4742297,9.43495,-0.31184477,-0.35387862,9.797499,0.23278719
1409346743724,-1.7052702,9.698313,-0.14724341,-0.45402944,9.795214,0.13434662
1409346743724,-1.7310078,9.380483,-0.21787235,-0.5712316,9.789673,0.08002876
1409346743744,-1.6591818,8.701127,-0.60932434,-0.70373034,9.781324,0.02930979
1409346743745,-1.4305356,8.3408,-1.1258733,-0.829857,9.771327,-0.054032438
1409346743759,-1.1426327,8.556877,-1.4574703,-0.92306596,9.76148,-0.17842454
1409346743764,-0.9504981,8.896255,-1.5652094,-0.97476524,9.752861,-0.31923997
1409346743781,-0.85772276,9.229049,-1.4891934,-0.9928206,9.745632,-0.4553719
1409346743784,-0.8367735,9.782708,-1.448492,-1.0022451,9.739381,-0.55709535
1409346743796,-0.80445176,10.532692,-1.6543933,-1.0039626,9.734287,-0.637249
1409346743812,-0.6206968,11.083358,-1.8788497,-0.9943303,9.729357,-0.72201824
1409346743830,-0.15861586,11.221623,-1.9686323,-0.95793897,9.725864,-0.81258804
1409346743830,0.30645782,10.757747,-1.7669208,-0.87445426,9.726444,-0.89555025
1409346743837,0.2621651,9.921572,-1.2563573,-0.75363797,9.7315,-0.9488565
1409346743844,0.28072014,9.5798,-0.9235633,-0.6579805,9.736886,-0.9646244
1409346743859,0.7020996,9.750386,-0.4854244,-0.5718858,9.744623,-0.9410899
1409346743875,0.8463503,9.841965,-1.8315643,-0.44804144,9.756412,-0.88434494
1409346743877,0.12150574,9.446921,-3.6242228,-0.31233227,9.753027,-0.97534144
1409346743890,0.26276365,8.562862,-4.0138793,-0.26460955,9.722756,-1.2523557
1409346743908,1.5167267,8.502409,-3.4302924,-0.21851854,9.677852,-1.569029
1409346743909,2.207454,8.707711,-1.9021933,-0.054847736,9.6346245,-1.8279464
1409346743923,2.8072014,8.56825,-0.9504981,0.16099136,9.618279,-1.9060947
1409346743924,2.9418752,8.7125,-0.24899697,0.41512454,9.621023,-1.8531002
1409346743941,2.8107927,9.175778,0.3645172,0.6915625,9.6295,-1.7218741
1409346743944,2.296638,9.269751,0.6715736,0.920202,9.642815,-1.52962
1409346743958,1.7292122,9.133281,0.7954735,1.0667486,9.658411,-1.3219496
1409346743983,1.5705963,9.057265,0.9247604,1.138684,9.674685,-1.1288322
1409346743983,1.8363527,9.3822775,0.92775315,1.1907653,9.688281,-0.9432452
1409346743984,1.9979613,9.351153,0.6254852,1.2661644,9.693703,-0.77416843
1409346744014,1.7525556,8.637681,0.14425065,1.3476123,9.691847,-0.6499667
1409346744014,1.4915876,8.248624,-0.50876784,1.4065876,9.686421,-0.60424995
1409346744016,1.3664906,8.496424,-1.3838485,1.4351553,9.680337,-0.6338569
1409346744029,1.4742297,9.218874,-2.2200236,1.4473493,9.670125,-0.75117755
1409346744047,1.4981717,9.911396,-2.72939,1.4618832,9.651971,-0.93422234
1409346744047,1.2150574,10.210671,-2.6318262,1.4642841,9.6297865,-1.1373208
1409346744057,0.8331822,10.483611,-1.8088194,1.4277222,9.615048,-1.2972534
1409346744077,-0.06344634,10.75655,0.33638534,1.3519951,9.61856,-1.3512212
1409346744078,-0.022146367,10.9834,1.572392,1.1953382,9.660545,-1.1897146
1409346744090,0.97144735,11.705252,1.448492,1.0710943,9.70424,-0.9224247
1409346744096,1.9327193,12.320562,0.80924016,1.0475334,9.723861,-0.72082335
1409346744110,2.1679497,12.546215,0.80086046,1.1103181,9.722845,-0.6355194
1409346744128,2.4115596,12.850878,1.9422961,1.1784148,9.719175,-0.56512046
1409346744129,3.3836055,13.4739685,3.4757824,1.2507576,9.719821,-0.36202976
1409346744144,4.7524905,14.22934,4.759074,1.39659,9.70669,0.007983984
1409346744145,6.18123,14.271836,4.0402155,1.6351922,9.659786,0.43020344
1409346744157,6.675633,13.913304,3.1830912,1.9450034,9.579819,0.78384185
1409346744176,4.915296,13.465589,0.908001,2.2348406,9.493304,1.0261708
1409346744177,4.699219,13.804967,-1.0067618,2.3546944,9.462961,1.0383534
1409346744233,4.9703627,14.05995,-1.9393034,2.438541,9.457732,0.88045686
1409346744234,4.231153,14.150929,-2.5845408,2.5343263,9.450417,0.6611928
1409346744234,3.520075,13.761272,-2.7072437,2.574583,9.453546,0.41521046
1409346744235,3.0891187,11.377247,-1.9099745,2.574619,9.460802,0.18698242
1409346744236,2.7204118,9.808446,0.38486794,2.5882843,9.458879,0.028019642
1409346744238,1.2389994,9.495404,2.2331917,2.626537,9.447988,0.0849021
1409346744244,-0.11552023,10.031107,3.5637693,2.5657032,9.460272,0.3013117
1409346744279,-0.7517793,10.708666,2.1493945,2.387788,9.490033,0.6388447
1409346744280,0.0077811554,10.131663,-0.044891283,2.1522167,9.532893,0.81381595
1409346744281,1.1719618,9.442133,-1.6490064,2.0111916,9.5682,0.75830257
1409346744307,1.2671312,10.28549,-2.4510639,1.988345,9.585818,0.5735285
1409346744309,1.0378864,11.960235,-2.492364,1.954999,9.603416,0.35036504
1409346744310,0.45429978,15.213955,-2.938284,1.8742332,9.625094,0.123328425
1409346744342,-0.52373165,19.351734,-5.093664,1.715245,9.654855,-0.10998218
1409346744344,-1.8489223,19.608511,-8.743026,1.4688854,9.6846485,-0.4693902
1409346744347,-1.5957354,19.608511,-8.950723,1.1807547,9.681028,-1.0266116
1409346744349,-1.4873978,19.370289,-9.385869,0.96429455,9.647828,-1.4696738
1409346744379,-2.3265655,13.917495,-5.6940103,0.76436615,9.600761,-1.8470365
1409346744381,-2.6300306,9.557653,-1.8740613,0.4823577,9.584004,-2.0210369
1409346744382,-1.666963,8.734647,0.35434186,0.20279403,9.59727,-2.0054028
1409346744385,-0.7236475,8.669404,0.14604631,0.02772095,9.628593,-1.8600539
1409346744414,-0.90859956,8.8645315,-1.4694413,-0.043680005,9.647256,-1.7603804
1409346744415,-2.3092074,8.4587145,-3.1028855,-0.097401075,9.6437845,-1.7771736
1409346744419,-3.4781766,6.8348475,-3.702633,-0.2591174,9.61816,-1.8958464
1409346744426,-2.4378958,4.3664255,-0.8714894,-0.5257656,9.573687,-2.0587537
1409346744450,-0.80445176,3.8085763,2.5222914,-0.7088644,9.564721,-2.0454898
1409346744451,-0.320823,4.83509,1.8938135,-0.7362369,9.619742,-1.7575308
1409346744456,-0.12868834,5.0374002,0.08559271,-0.71955705,9.658923,-1.5355184
1409346744474,-0.17657238,4.7758336,-2.087744,-0.6965237,9.670592,-1.4713515
1409346744492,0.23283611,4.561553,-2.4390929,-0.67866135,9.64754,-1.623202
1409346744492,-0.07182605,4.006098,-1.9662381,-0.6001596,9.620692,-1.8034693
1409346744505,-1.2773066,3.4278982,-1.6370354,-0.565122,9.598116,-1.9305992
1409346744505,-3.3381157,2.9406781,-1.614889,-0.6996475,9.5674715,-2.035772
1409346744522,-5.73531,2.4372973,-0.35913026,-1.1236401,9.498081,-2.1666346
1409346744525,-6.0148335,2.381632,-0.55485624,-1.9026065,9.3816395,-2.1296322
1409346744542,-5.5401826,2.44029,-0.39025488,-2.7096968,9.183399,-2.1196954
1409346744556,-4.6297874,2.7431567,0.16280572,-3.418439,8.956735,-2.0643587
1409346744557,-3.6774938,3.4320881,0.7835025,-3.9488873,8.769097,-1.9182372
1409346744571,-2.5905263,4.522647,1.7555484,-4.282651,8.662305,-1.6714596
1409346744582,-0.84216046,6.2339025,2.4774003,-4.3843994,8.679291,-1.2717524
1409346744617,1.513734,8.308478,3.5673606,-4.1204267,8.865445,-0.77222824
1409346744619,3.9366663,11.162966,6.755839,-3.4067175,9.194877,-0.13743663
1409346744620,6.7522473,16.263214,8.809465,-2.2821436,9.495671,0.89130265
1409346744622,11.856686,19.608511,9.501988,-0.8966696,9.592934,1.8281239
1409346744625,17.692553,19.608511,9.1512375,-0.9852346,9.619457,1.6327076
1409346744661,18.404827,19.544468,6.1285577,-1.0572739,9.63969,1.4590865
1409346744662,13.776835,15.023017,5.8532248,-1.067904,9.657024,1.3311075
1409346744663,9.622895,11.834539,7.0886326,3.9396114,8.591497,2.6145759
1409346744665,7.9301944,11.324574,6.043564,4.211525,8.40045,2.804622
1409346744679,5.473145,10.081984,1.4628572,4.3219438,8.292107,2.9550276
1409346744693,2.5959132,8.675988,-3.9773676,4.348532,8.312708,2.856495
1409346744709,-1.0223241,11.911154,-6.7588315,4.2606435,8.483735,2.4583647
1409346744710,-4.220978,17.314268,-6.1626754,3.8377633,8.844462,1.7937219
1409346744725,-4.1066546,18.541296,0.40402153,3.0505946,9.253449,1.1126226
1409346744726,-2.8951883,15.84363,4.19105,2.3088956,9.478977,0.99416393
1409346744741,-1.8956091,12.626421,-1.8836381,1.8002427,9.565227,1.198317
1409346744758,-2.9311013,9.94312,-6.306926,1.4705563,9.651539,0.9250135
1409346744759,-3.2752678,9.01417,-1.6843209,1.1209656,9.736182,0.34721988
1409346744769,-3.1268275,7.9385743,4.244321,0.7800857,9.773812,0.1856595
1409346744789,-3.9959226,7.6889787,2.9885623,0.49003658,9.7768135,0.58669084
1409346744790,-3.7858315,7.671621,-0.9828198,0.12060966,9.771082,0.82571316
1409346744803,-2.7665,7.732673,-2.8245595,-0.23729733,9.78341,0.6316433
1409346744805,-2.1871033,8.48984,-2.734777,-0.4779507,9.791094,0.27646568
1409346744819,-2.5647886,9.1512375,-1.9626468,-0.64766693,9.78523,-0.014454021
1409346744825,-2.6922798,9.476849,-1.0307038,-0.8432875,9.768336,-0.19716187
1409346744839,-2.4229321,9.531916,-0.46148238,-1.0495193,9.746629,-0.2685777
1409346744853,-1.6430209,9.346964,-0.65062433,-1.2089055,9.727839,-0.27938622
1409346744857,-1.3371617,9.076419,-1.2282255,-1.2707806,9.718854,-0.31525183
1409346744870,-1.435324,8.744224,-1.6370354,-1.3010544,9.711351,-0.40906304
1409346744877,-1.2503718,8.613739,-1.6496049,-1.3495667,9.698876,-0.5299438
1409346744887,-1.3024458,8.910022,-1.9309237,-1.3810817,9.6879835,-0.63715315
1409346744907,-1.4676456,9.740809,-2.1559787,-1.4088953,9.674946,-0.76211476
1409346744909,-1.8076223,10.475829,-2.1098902,-1.4320117,9.659993,-0.89679044
1409346744936,-2.224812,10.884041,-2.1493945,-1.6068308,9.607916,-1.1297946
1409346744937,-2.0326772,11.234193,-1.7555484,-1.6068308,9.607916,-1.1297946
1409346744938,-1.3946224,11.116279,-1.2138603,-1.6068308,9.607916,-1.1297946
1409346744999,-0.4902128,10.3214035,-0.94211835,-1.5637982,9.617975,-1.1043049
1409346745000,0.56323594,9.417592,-0.36272156,-1.4332976,9.642977,-1.0625663
1409346745001,2.4678235,9.257779,-0.57879823,-1.2214475,9.6805935,-0.9821258
1409346745002,3.6367924,10.068216,-0.83018947,-0.86044735,9.723791,-0.936974
1409346745003,4.2796354,10.023924,-0.7691373,-0.40421882,9.75582,-0.91158515
1409346745006,4.220379,9.150041,-0.6344634,0.06398147,9.76352,-0.91650355
1409346745007,3.891775,8.31207,-1.7046716,0.46182987,9.749133,-0.95472044
1409346745026,3.3441012,8.236652,-1.8471266,0.7755106,9.712162,-1.1148452
1409346745027,2.6898856,8.36175,-2.5366566,1.0142931,9.671923,-1.2631443
1409346745039,2.5833437,8.448539,-1.9393034,1.1965859,9.627614,-1.430957
1409346745053,2.3971944,8.426991,-0.7835025,1.3704981,9.593883,-1.4998475
1409346745056,2.284667,8.974067,-0.088585466,1.5022262,9.581948,-1.4491307
1409346745069,2.1164744,9.512762,0.45310268,1.6027205,9.581349,-1.341435
1409346745086,1.9841946,9.983821,0.6548142,1.6600446,9.591544,-1.1903449
1409346745087,1.8393455,10.356718,0.6697779,1.6891125,9.604957,-1.0305783
1409346745103,1.5382746,10.247183,0.65301853,1.6944703,9.618802,-0.8819328
1409346745105,1.1192893,9.8042555,0.4177882,1.6679286,9.6342,-0.75540423
1409346745119,0.7727286,9.671378,0.026934769,1.6058792,9.65104,-0.67004883
1409346745125,0.7266402,9.806051,-0.50517654,1.5188646,9.667707,-0.63155764
1409346745139,0.6955156,9.962872,-1.0336965,1.4366779,9.678642,-0.65593135
1409346745159,0.52133745,10.160394,-1.364695,1.3644475,9.68358,-0.7327691
1409346745160,-0.25677812,10.189124,-1.1719618,1.282835,9.686765,-0.8314403
1409346745175,-0.7918822,10.34355,-1.0301052,1.130897,9.699299,-0.90280783
1409346745191,-0.05327099,11.22282,-1.2192472,0.9374942,9.715128,-0.95277375
1409346745192,1.1378443,12.254722,-1.8052281,0.82769763,9.717399,-1.0283263
1409346745210,1.4143747,12.227188,-1.8351556,0.8228227,9.702578,-1.163317
1409346745211,1.4628572,10.936713,-0.10115502,0.8266767,9.688682,-1.2713951
1409346745217,2.4558525,10.801441,2.7682958,0.8494652,9.698349,-1.1793439
1409346745225,3.98874,12.354679,6.615179,0.9849568,9.72648,-0.77192605
1409346745244,5.597045,14.528016,9.661801,1.2820263,9.722472,0.018273909
1409346745247,6.0902505,14.817116,9.376292,1.648099,9.616045,0.9929016
1409346745260,5.9023056,13.535021,6.704962,1.9259787,9.455457,1.747959
1409346745288,3.9480386,12.592902,0.10235212,2.1134973,9.34021,2.112817
1409346745289,3.603872,13.300987,-4.8225207,2.1582124,9.370116,1.9270244
1409346745290,5.037999,14.246697,-6.435614,2.2017858,9.464239,1.3231428
1409346745313,5.749077,14.350845,-7.1646485,2.371473,9.492948,0.65609515
1409346745314,4.593276,13.880983,-6.159084,2.5642805,9.465303,0.05346651
1409346745319,3.0585926,11.741764,-4.597466,2.6296337,9.438014,-0.42343146
1409346745326,2.552219,9.82341,-2.3415294,2.6090217,9.422924,-0.7562483
1409346745345,2.918532,8.446744,1.4682442,2.6107957,9.412416,-0.87208736
1409346745347,2.8508956,7.6949644,5.2624555,2.704587,9.403957,-0.6489666
1409346745357,1.8656816,7.9188223,7.1987658,2.8056862,9.39553,-0.15010288
1409346745383,1.9548657,10.654796,6.166865,2.8463943,9.36812,0.5538509
1409346745385,1.9800048,12.057798,3.7140055,2.7941842,9.3385105,1.0747681
1409346745386,1.4335283,12.097901,-0.18016368,2.6943445,9.339771,1.2959863
1409346745414,0.83138657,11.972804,-2.4271219,2.5551338,9.396525,1.1605947
1409346745415,0.01436521,14.673464,-3.5021186,2.392659,9.470735,0.8664706
1409346745417,-0.5093664,18.93215,-5.1624975,2.1493757,9.554555,0.51091015
1409346745427,-2.1003134,19.608511,-9.356541,1.856913,9.629033,0.06350012
1409346745452,-2.2559366,19.608511,-8.863934,1.5024112,9.671521,-0.61220473
1409346745452,-1.3892355,19.608511,-7.608773,1.2004083,9.669715,-1.1072376
1409346745458,-2.0727801,15.586253,-4.064756,0.9953259,9.654889,-1.400999
1409346745471,-3.244742,10.199299,-2.1817162,0.7446108,9.66673,-1.4731828
1409346745508,-3.140594,8.383896,-0.9780314,0.38410628,9.680225,-1.5218744
1409346745510,-1.4335283,8.797494,-1.5526398,0.051274553,9.686504,-1.5295117
1409346745512,-0.8631097,8.986037,-2.6354175,-0.080611125,9.677448,-1.5845823
1409346745513,-0.84934306,8.739435,-2.7246015,-0.12873949,9.659757,-1.6860926
1409346745528,-1.6765398,7.275979,-3.3722332,-0.1557203,9.638673,-1.8005913
1409346745535,-2.4289176,4.8416743,-4.4382515,-0.26573008,9.606796,-1.9517262
1409346745537,0.008978256,4.742315,-2.1625626,-0.46857336,9.539768,-2.223432
1409346745561,1.4969746,5.471948,2.2307975,-0.44921333,9.518544,-2.316443
1409346745562,0.22864626,5.631162,3.098097,-0.2666568,9.597149,-1.9985087
1409346745565,-0.32561144,5.609016,1.3605051,-0.22046302,9.673164,-1.5973992
1409346745587,-0.3537433,5.3498435,-0.45669398,-0.24960151,9.707021,-1.3718039
1409346745588,0.02813187,5.4312468,-1.1695676,-0.26119223,9.707397,-1.3669738
1409346745610,-0.5201403,5.1900306,-1.7830818,-0.23652335,9.700843,-1.4170654
1409346745611,-1.5053543,4.3939586,-2.4229321,-0.27127895,9.683508,-1.52527
1409346745619,-2.6916811,3.4129345,-2.5300727,-0.4397248,9.643545,-1.7260005
1409346745642,-3.551798,2.7898436,-2.5570073,-0.77129346,9.57597,-1.9688363
1409346745643,-4.1683054,2.4037786,-2.296638,-1.2265666,9.470052,-2.232499
1409346745646,-4.5238442,2.0284874,-2.0859482,-1.7771015,9.324821,-2.4617095
1409346745657,-4.19105,2.0177135,-1.3892355,-2.384744,9.134549,-2.6539474
1409346745676,-4.0785227,2.087744,-1.1749545,-2.9367447,8.94503,-2.7445128
1409346745679,-3.657143,2.5845408,-1.2108675,-3.4645991,8.74108,-2.7857714
1409346745686,-3.2160115,3.2585084,-0.94810385,-3.880257,8.555062,-2.8151164
1409346745710,-3.1441853,3.9546227,-0.10534488,-4.16841,8.427972,-2.7864008
1409346745711,-3.405752,5.353435,2.4785974,-4.3975606,8.370519,-2.6012115
1409346745718,-2.9191303,8.892065,7.6410947,-4.594403,8.442578,-1.945438
1409346745748,-0.8619126,17.202938,17.246033,-4.4725657,8.715967,-0.44547763
1409346745749,10.58716,19.608511,17.684172,-4.614828,8.624699,-0.6987901
1409346745750,19.433136,19.608511,4.92607,-4.7629995,8.516619,-0.9754224
1409346745779,19.607914,19.608511,2.540248,-4.8311143,8.455747,-1.153713
1409346745780,18.485632,15.877748,3.0855274,-4.7755938,8.458538,-1.3480486
1409346745781,8.625112,7.5590935,4.8338933,-4.6564217,8.498827,-1.502685
1409346745786,4.2036195,5.995081,7.280169,4.17096,8.470728,2.6495795
1409346745809,2.231396,7.1383123,6.9605427,4.191599,8.324433,3.050365
1409346745811,-0.076614454,6.839636,4.1491513,4.024305,8.252764,3.4448886
1409346745818,-1.6460136,7.40766,-2.0398598,3.7433984,8.2935505,3.6571016
1409346745844,-2.9322984,14.119206,-6.929418,3.3495185,8.58242,3.3605316
1409346745846,-4.841076,19.488802,-6.1530986,2.712924,9.111244,2.4074228
1409346745848,-2.7766755,19.486408,-1.3820529,1.8632313,9.509574,1.5055774
1409346745871,-0.22744916,11.3880205,-6.7785835,1.3226509,9.644348,1.1863923
1409346745872,-0.95109665,9.215282,-6.139332,1.1668624,9.723451,0.5131441
1409346745884,-0.40402153,8.827422,-0.08379706,0.9732154,9.757812,-0.09139913
1409346745886,-0.14604631,8.734048,3.6768951,0.8543983,9.768912,-0.093459606
1409346745907,-3.0621839,7.3777328,1.9566613,0.78584427,9.770384,0.3040913
1409346745908,-3.5446155,6.125565,-0.89543146,0.449202,9.783469,0.5023574
1409346745926,-2.15538,6.6546836,-2.331354,0.056188483,9.801143,0.3237544
1409346745927,-1.0720038,8.594585,-2.071583,-0.16375995,9.805234,-0.031302206
1409346745938,-1.1815386,10.396821,-1.7166426,-0.23176615,9.799767,-0.2850535
1409346745960,-2.1045034,10.657789,-1.4191631,-0.3229558,9.79175,-0.4332893
1409346745961,-2.5881321,9.856929,-0.8972271,-0.51315695,9.778856,-0.5300951
1409346745969,-2.882619,9.1668,-0.8062474,-0.76426214,9.760372,-0.56696844
1409346745987,-2.8604724,9.153631,-1.1336545,-1.0270517,9.73481,-0.59079045
1409346745988,-2.1709423,9.38168,-1.376666,-1.2480611,9.705578,-0.6438399
1409346745999,-1.4957775,9.5809965,-1.4443022,-1.3590556,9.685563,-0.7164016
1409346746006,-1.0648212,10.019135,-1.5568297,-1.3812443,9.676982,-0.7865033
1409346746019,-0.92655605,10.69011,-1.6747441,-1.3550805,9.674887,-0.85481095
1409346746033,-1.0815806,11.343728,-1.9674352,-1.3172693,9.674244,-0.9188166
1409346746039,-1.2719196,11.4915695,-2.2679076,-1.288183,9.669913,-1.001882
1409346746060,-0.78410107,11.07438,-2.5288756,-1.2841675,9.660834,-1.0906756
1409346746061,-0.6039374,10.313622,-1.9393034,-1.2309186,9.6553135,-1.1958846
1409346746066,-0.6218939,9.886257,-0.8206126,-1.167806,9.658086,-1.23613
1409346746096,-0.2160767,10.13286,0.22385786,-1.1184254,9.672883,-1.1639751
1409346746099,0.3549404,10.383054,0.45848963,-1.0385448,9.700117,-0.9997765
1409346746100,-0.025139118,9.564836,-2.0452468,-0.91009605,9.727406,-0.84833664
1409346746106,0.31483752,8.7771435,-4.348469,-0.83107615,9.72331,-0.9679267
1409346746120,1.3467385,9.097368,-4.1132383,-0.72770375,9.687472,-1.3393044
1409346746135,2.4157495,9.110536,-3.8839936,-0.51898444,9.645123,-1.6948792
1409346746138,3.2872388,8.656237,-2.0135236,-0.21881285,9.5976925,-2.0017056
1409346746162,3.9641995,8.600571,-1.1210849,0.12418898,9.58702,-2.0601096
1409346746163,4.0013094,8.66701,-0.46088383,0.50710285,9.587923,-1.996243
1409346746166,3.4183214,8.937555,-0.17298107,0.8616548,9.588136,-1.8696508
1409346746193,2.5103204,9.119514,-0.08738836,1.1176605,9.590079,-1.7180257
1409346746194,1.8716671,9.179968,0.15083471,1.2589895,9.598005,-1.5695913
1409346746199,1.5574282,9.499594,0.4950012,1.3106741,9.615518,-1.412207
1409346746206,1.4766239,9.909002,0.8535329,1.3297224,9.637177,-1.235734
1409346746220,1.4796166,9.895834,0.7032967,1.3385621,9.658485,-1.0451287
1409346746234,1.4263457,9.530719,0.3345897,1.3494521,9.671622,-0.8995149
1409346746240,1.4077905,9.144054,-0.16579847,1.3610896,9.677545,-0.81422675
1409346746258,1.5107412,8.948928,-0.712275,1.3753648,9.677243,-0.7935313
1409346746259,1.5119383,8.94773,-1.1055226,1.3971193,9.671756,-0.82192504
1409346746266,1.4676456,9.102755,-1.3126211,1.4199215,9.662097,-0.8933768
1409346746282,1.3545196,9.461885,-1.1402385,1.4299434,9.652662,-0.975578
1409346746286,1.2294226,10.172963,-0.770933,1.420257,9.648608,-1.0284164
1409346746300,1.0336965,10.852318,0.42676646,1.389891,9.652771,-1.0308194
1409346746306,2.5773582,12.287044,0.3298013,1.3399805,9.671792,-0.91173476
1409346746323,3.4213142,12.182896,0.019153614,1.429941,9.667191,-0.81920743
1409346746340,3.7499185,12.069171,0.48003745,1.5833296,9.645871,-0.7877993
1409346746341,3.767875,12.238561,3.6296098,1.7402298,9.624501,-0.71480834
1409346746361,4.712986,13.195642,8.944737,1.8857396,9.618015,-0.3288342
1409346746362,4.9027267,14.0952635,9.445126,2.098093,9.564535,0.5366902
1409346746366,3.927688,14.116812,5.5725045,2.271621,9.441973,1.3635526
1409346746387,3.1573534,13.428479,0.717662,2.3055973,9.368869,1.7546836
1409346746388,3.2489316,12.659342,-2.3953989,2.255362,9.395335,1.6767262
1409346746400,5.020641,13.660716,-5.667674,2.2399526,9.453372,1.3366976
1409346746416,5.8747725,14.171879,-7.77517,2.381866,9.48179,0.76991236
1409346746419,3.8552632,13.34109,-6.731298,2.5775933,9.461467,0.08386019
1409346746436,2.190096,12.951434,-4.4879313,2.6188974,9.440079,-0.44347295
1409346746438,1.6639702,12.011111,-1.4514848,2.5281894,9.446041,-0.74225044
1409346746462,0.6476316,10.833164,1.6873137,2.4335642,9.469652,-0.75751555
1409346746463,-0.7332243,10.278308,3.5434184,2.316221,9.516025,-0.50081456
1409346746467,-1.2617443,10.5285015,4.7985787,2.1195557,9.574426,-0.09074615
1409346746500,0.53211135,11.944074,4.6980224,1.8865854,9.61581,0.38384837
1409346746501,1.7004818,11.617265,1.7938557,1.7781998,9.613051,0.7730412
1409346746509,0.20649989,9.710283,-1.1121067,1.7951194,9.603845,0.8450573
1409346746527,-0.7410054,9.110536,-1.7226281,1.7042817,9.634431,0.6659873
1409346746528,-1.0199299,10.156802,-1.5029601,1.520812,9.676827,0.46531174
1409346746529,-1.115698,13.726557,-1.5316905,1.318267,9.712574,0.31376258
1409346746562,-1.7393875,19.037495,-3.0879216,1.1119021,9.741996,0.1660979
1409346746563,-2.493561,19.608511,-6.7025676,0.86302,9.768182,-0.090466015
1409346746564,-1.513734,19.608511,-7.36636,0.61189884,9.77129,-0.5637743
1409346746567,-1.0181342,18.800468,-8.174403,0.47854662,9.746269,-0.97552377
1409346746589,-2.4893713,12.31278,-6.3260794,0.38514936,9.705553,-1.350658
1409346746590,-3.2704794,8.487445,-3.0005333,0.13693069,9.668518,-1.6344346
1409346746599,-2.9227216,6.7330937,-1.4568717,-0.20472588,9.651094,-1.7276667
1409346746624,-0.34955344,7.290344,-1.4443022,-0.46736735,9.640772,-1.7342194
1409346746626,0.5710171,7.8104844,-2.9724014,-0.45619932,9.635708,-1.7650527
1409346746627,0.026934769,7.873931,-5.199009,-0.33950552,9.611042,-1.9191105
1409346746656,-0.88046765,7.6189485,-6.2488666,-0.28801557,9.548056,-2.2185724
1409346746657,-1.5616181,6.1620765,-4.8428717,-0.33642143,9.454411,-2.5828981
1409346746659,0.0023942017,4.8267107,0.45429978,-0.45992026,9.379246,-2.8264112
1409346746667,-0.1352724,4.923676,4.336498,-0.45109856,9.426435,-2.6663089
1409346746691,-0.38845924,5.871181,3.7834373,-0.44972777,9.553595,-2.1672475
1409346746692,-0.7284359,5.6880245,0.60333884,-0.4535475,9.650868,-1.680893
1409346746700,-0.635062,4.9853263,-1.073201,-0.48476374,9.674467,-1.5297387
1409346746721,-0.34596214,4.5046906,-1.5442601,-0.508905,9.667191,-1.5674348
1409346746723,-0.7350199,3.9312792,-1.8231846,-0.49934253,9.651719,-1.6629341
1409346746741,-1.3838485,3.3195608,-1.6226702,-0.56225383,9.625232,-1.7914263
1409346746742,-2.4474726,3.043629,-2.517503,-0.71794033,9.590258,-1.9188294
1409346746747,-4.1120415,2.336741,-1.846528,-1.0252981,9.505805,-2.1814768
1409346746770,-4.1946416,2.5821466,-1.2060791,-1.5914594,9.382403,-2.368153
1409346746771,-4.406528,2.654571,-1.1474211,-2.1631036,9.249668,-2.4361868
1409346746787,-4.150947,2.8921957,-0.9008184,-2.7567124,9.0798,-2.4755075
1409346746788,-3.6032736,3.5595794,0.10235212,-3.2724452,8.913594,-2.4513943
1409346746811,-2.7736826,4.5459905,1.4562732,-3.65678,8.811564,-2.270394
1409346746812,-1.6711528,6.206968,3.4943373,-3.853826,8.824116,-1.8583301
1409346746820,-0.36990416,9.919776,7.6614456,-3.7813041,8.979212,-1.1162101
1409346746847,1.4496891,15.680225,14.133572,-3.3058162,9.229818,0.22896846
1409346746849,9.693524,19.608511,15.362395,-2.3872108,9.285891,2.0600624
1409346746850,18.937536,19.608511,4.8297033,-2.519287,9.290304,1.8745309
1409346746882,19.607914,19.608511,4.5244427,-2.6169066,9.281581,1.7816993
1409346746883,13.894151,15.036185,5.727529,-2.6774762,9.280792,1.693636
1409346746884,8.010401,8.310873,6.0064535,3.5418556,8.6822405,2.8712962
1409346746887,5.357625,7.699154,7.1820064,3.9235797,8.47256,2.9986084
1409346746909,3.1543608,8.26658,7.3819222,4.021009,8.323625,3.2740133
1409346746910,-0.079008654,8.06008,6.0764837,3.9039412,8.230773,3.6309817
1409346746918,-2.5115175,7.9068513,2.8574798,3.5583172,8.242165,3.946581
1409346746943,-3.6595373,10.833763,-2.9287071,3.0537338,8.417947,3.9979093
1409346746945,-4.0138793,15.47612,-6.542156,2.473696,8.833524,3.4669993
1409346746949,-2.759916,17.73804,-6.1219735,1.8373044,9.310287,2.472504
1409346746977,-1.941099,15.787366,-1.4030021,1.3491657,9.584062,1.5798355
1409346746977,-1.0767922,11.785458,-1.3078327,1.0080265,9.671331,1.2726505
1409346746978,-0.4213795,9.930551,-2.8407204,0.80028737,9.714842,1.0732226
1409346746987,-0.53809685,9.60015,-2.9574378,0.67567885,9.754461,0.75123453
1409346747009,-1.0929531,9.605537,-0.97862995,0.5678579,9.780836,0.42802197
1409346747009,-2.0027497,9.455301,-0.46806642,0.42622066,9.792311,0.3152549
1409346747019,-2.7216089,8.318654,-1.7226281,0.20702772,9.801139,0.25530666
1409346747033,-2.7210102,7.760206,-2.722806,-0.06511194,9.8061695,0.07215346
1409346747054,-2.0362685,8.513782,-2.3403323,-0.3140357,9.799212,-0.21731205
1409346747056,-1.5125369,9.737218,-1.6813282,-0.4703055,9.785513,-0.43925476
1409346747069,-1.6346412,10.354323,-1.1192893,-0.5691499,9.774626,-0.5505975
1409346747069,-2.0614076,9.985617,-0.5494693,-0.68810004,9.764847,-0.58708286
1409346747085,-2.0805612,8.866327,-0.10055647,-0.8521796,9.752867,-0.57075226
1409346747087,-1.8189948,8.25401,0.13587095,-0.9991016,9.741671,-0.52159417
1409346747103,-1.3383588,8.646061,0.21068975,-1.1196543,9.731812,-0.45675972
1409346747122,-1.0510546,9.365519,0.18375498,-1.1694345,9.7287655,-0.3923747
1409346747123,-1.0019734,10.14543,0.1400608,-1.1754214,9.7300415,-0.33917087
1409346747127,-0.8230068,11.082161,-0.14963761,-1.1721822,9.73178,-0.2980667
1409346747161,-0.5919664,12.047025,-0.9008184,-1.1424305,9.735511,-0.29163355
1409346747162,-0.32920274,12.523471,-1.6962919,-1.0805506,9.740469,-0.35502866
1409346747163,0.17537527,12.176909,-2.100912,-0.99081224,9.745049,-0.4719211
1409346747167,0.789488,11.020511,-3.0256724,-0.8684336,9.749259,-0.6067664
1409346747187,1.2180501,9.48044,-3.2483332,-0.7028762,9.749317,-0.79194045
1409346747188,1.5041572,8.273763,-2.6485856,-0.5163722,9.74227,-0.99594784
1409346747206,1.186327,8.319252,-1.2018893,-0.32344842,9.731124,-1.1709105
1409346747207,0.6063316,8.336611,-0.88166475,-0.18570334,9.730237,-1.2076402
1409346747219,0.45549688,8.000824,-1.0151415,-0.12267259,9.731777,-1.2032694
1409346747233,1.027711,7.216124,-0.3537433,-0.08369959,9.729826,-1.2222569
1409346747267,1.9261353,7.0754647,0.035913024,0.017972441,9.735311,-1.1805758
1409346747269,2.3451207,7.6351094,0.1400608,0.20677784,9.739771,-1.1245025
1409346747271,2.247557,8.485051,0.11851298,0.44272098,9.740101,-1.0511177
1409346747273,1.8525136,8.717288,-0.077811554,0.6547379,9.73659,-0.9697982
1409346747294,1.79206,8.746617,-0.6512229,0.79675156,9.7315035,-0.91292983
1409346747295,1.6819267,9.138069,-0.7404069,0.91288674,9.720297,-0.92350936
1409346747301,1.5634137,9.72824,-0.17597382,1.0018594,9.710086,-0.9385444
1409346747324,1.4281414,9.85214,0.43514615,1.0606349,9.70913,-0.8821717
1409346747325,1.2126632,9.52174,0.9636662,1.0937957,9.715786,-0.75991684
1409346747327,1.0905589,9.005191,1.4317327,1.1061238,9.72516,-0.60676366
1409346747372,1.3856442,9.208698,1.3204023,1.1094927,9.734085,-0.43240577
1409346747373,1.6968905,9.727641,0.33997664,1.1432208,9.735325,-0.29474488
1409346747376,1.5867572,10.151415,-0.9552865,1.2066549,9.728107,-0.2798061
1409346747377,1.0510546,10.529699,-1.9871874,1.2484195,9.7184725,-0.40388402
1409346747381,-0.6476316,10.702082,-1.9255368,1.2260066,9.710475,-0.6115159
1409346747409,-1.1031284,11.468824,-3.590704,1.0362483,9.720234,-0.7833558
1409346747410,1.5442601,13.356652,-6.361394,0.8171292,9.710908,-1.0958775
1409346747411,2.742558,13.557167,-6.818088,0.8805068,9.62975,-1.6318727
1409346747446,2.4133554,11.85489,-3.5984852,1.005333,9.518379,-2.1354492
1409346747448,2.9293058,10.33517,1.9153614,1.0262527,9.487044,-2.261239
1409346747449,4.6591167,10.790069,8.800487,1.1388868,9.569745,-1.8147514
1409346747450,6.945579,13.260286,13.912107,1.5260484,9.660633,-0.7167688
1409346747471,7.1143703,14.133572,13.23395,2.063453,9.559899,0.7217206
1409346747472,6.139332,13.67568,7.9750857,2.4108367,9.335178,1.792394
1409346747481,4.1156325,12.931084,-2.083554,2.5629213,9.200731,2.224494
1409346747506,3.7594953,12.555194,-5.9837084,2.5203578,9.30013,1.8236686
1409346747507,3.78643,12.878411,-5.9873,2.5131156,9.407971,1.1596324
1409346747508,3.822343,13.178884,-6.3218894,2.548029,9.45122,0.59360915
1409346747519,3.7367504,13.110648,-5.1038394,2.5920374,9.457754,0.051066462
1409346747534,4.155137,11.68969,-3.6876693,2.6113832,9.44568,-0.36087504
1409346747551,4.723161,10.621876,-2.0147207,2.683249,9.411579,-0.6266934
1409346747552,5.2498856,9.807249,0.8924387,2.8092263,9.369684,-0.6983222
1409346747578,5.149329,8.92738,3.7750576,3.021077,9.31561,-0.5127165
1409346747579,3.767875,8.798691,5.1846437,3.242841,9.254193,-0.11958032
1409346747580,2.1458032,9.336189,4.231153,3.3457115,9.210838,0.3702331
1409346747609,2.1218612,10.581175,2.2164323,3.2854939,9.210043,0.7423202
1409346747610,2.475006,10.672752,0.0011971008,3.1917863,9.230193,0.8868109
1409346747610,2.0512323,10.446501,-1.6585833,3.1394532,9.253855,0.82486373
1409346747638,1.2743138,11.16117,-2.268506,3.05091,9.297414,0.64842474
1409346747639,0.31184477,12.801797,-2.8580782,2.8987565,9.359476,0.40969256
1409346747640,-1.8166006,16.342222,-6.9850836,2.6433487,9.442489,0.14996435
1409346747649,-2.8491,19.608511,-10.212467,2.2009494,9.546958,-0.42634267
1409346747681,-2.3110032,19.608511,-8.834005,2.454344,9.493192,-0.16085035
1409346747682,-2.1787236,19.42775,-9.072228,1.378943,9.586508,-1.5387549
1409346747683,-3.3716345,14.001291,-4.4119153,1.0915996,9.564916,-1.8684621
1409346747708,-4.0779243,10.000581,0.82240826,0.7100816,9.584501,-1.9502624
1409346747709,-3.9480386,8.513782,2.7395654,0.29126874,9.64395,-1.754921
1409346747710,-2.088941,8.995016,0.9720459,-0.09588117,9.697572,-1.4554328
1409346747733,-1.2898762,9.597756,-3.1172507,-0.28534284,9.71202,-1.3287815
1409346747734,-1.38325,9.200917,-4.4125137,-0.3567102,9.679966,-1.5301601
1409346747750,-2.328361,7.2484455,-4.359243,-0.41627413,9.633642,-1.7860745
1409346747750,-1.6023195,5.1158104,-4.1371803,-0.56878424,9.583002,-2.0032384
1409346747767,-0.009576807,4.408324,0.7667431,-0.685809,9.527404,-2.220056
1409346747768,-0.090979666,4.9302597,3.50152,-0.6579371,9.567638,-2.048856
1409346747783,-1.0809821,5.365406,2.0452468,-0.6147423,9.651195,-1.6269311
1409346747800,-0.98581254,5.6006365,-0.5231331,-0.68037254,9.689533,-1.3492486
1409346747801,-0.7104794,5.695806,-2.2643163,-0.74634355,9.6860075,-1.3396473
1409346747817,-0.635062,5.312135,-2.2505496,-0.7599254,9.657651,-1.524039
1409346747819,-0.5758055,4.7219644,-1.6424223,-0.7561586,9.628331,-1.7011317
1409346747833,-1.1414356,3.8804023,-2.046444,-0.7648194,9.610072,-1.7977676
1409346747846,-2.1906946,2.7503393,-2.5300727,-0.8676256,9.570781,-1.9539102
1409346747847,-2.8700492,2.3529017,-2.6461914,-1.1186461,9.489384,-2.2069533
1409346747864,-3.5978866,2.1499932,-2.6330233,-1.4740984,9.367824,-2.4982615
1409346747868,-3.764882,1.9925743,-1.560421,-1.9351368,9.198137,-2.7964048
1409346747880,-3.7391446,1.9656396,-1.2485762,-2.445766,9.035656,-2.9232786
1409346747896,-3.6230257,1.9919758,-1.033098,-2.961413,8.8611,-2.9801562
1409346747902,-3.3039982,2.2373815,-0.3172317,-3.4530222,8.677534,-2.991231
1409346747922,-2.7922378,2.6755204,0.6919243,-3.8724272,8.5351925,-2.885341
1409346747923,-1.8118122,3.7612908,2.2397757,-4.170466,8.490335,-2.5868473
1409346747928,-0.5590461,5.81372,5.6880245,-4.257793,8.604128,-2.0026474
1409346747973,1.3335704,9.3661175,11.625047,-3.9957812,8.92481,-0.74289155
1409346747975,8.549096,16.27279,16.022596,-3.1398187,9.1805315,1.4246984
1409346747977,19.31582,19.608511,12.467805,-3.2935457,9.16038,1.1875896
1409346747979,19.49359,19.608511,7.6171527,-3.4522612,9.125881,0.985179
1409346747980,13.709199,19.608511,4.2784386,-3.5685177,9.096069,0.8352184
1409346748012,7.6249337,13.239337,6.029797,-3.6143575,9.08878,0.70771885
1409346748012,4.8733974,7.3633676,7.216124,3.7869897,8.425246,3.2930741
1409346748013,2.754529,7.4046674,6.250662,3.9155786,8.244462,3.5871272
1409346748033,0.21068975,7.7590094,3.9552212,3.8471973,8.160539,3.8438358
1409346748034,-1.3634979,8.027759,-0.5506664,3.5704226,8.227688,3.9658089
1409346748054,-1.7884687,14.4609785,-5.7389016,3.2017922,8.489076,3.7221658
1409346748054,-3.3117795,18.793285,-7.964312,2.7124724,8.989415,2.8290148
1409346748059,-3.5021186,17.198748,-5.7682304,2.0458977,9.432382,1.736336
1409346748068,-2.0009542,14.0473795,-1.6184803,1.4696277,9.642473,1.01651
1409346748082,-0.3645172,11.862072,-3.5853171,1.0934619,9.712284,0.8039015
1409346748100,-1.4041992,9.955689,-3.9444473,0.930819,9.752476,0.43954885
1409346748103,-1.7645266,8.942942,0.53809685,0.7249964,9.779699,0.047546912
1409346748126,-2.2852654,8.127716,2.018312,0.5237812,9.792147,0.09959793
1409346748128,-2.3145945,7.6811976,1.021127,0.2940959,9.7973585,0.30930218
1409346748129,-2.107496,7.631518,0.16759412,0.066183515,9.799199,0.37644857
1409346748160,-1.8764555,8.180388,-0.29508537,-0.13567689,9.800709,0.31320074
1409346748161,-1.3090298,9.3421755,-0.94930094,-0.30492783,9.79904,0.23714963
1409346748162,-1.555034,9.762956,-1.7040731,-0.4020039,9.797893,0.10039405
1409346748168,-2.1033063,9.411008,-1.821389,-0.52647024,9.792121,-0.08709409
1409346748181,-2.2756886,9.124303,-1.644218,-0.71265185,9.776924,-0.27256534
1409346748197,-2.3540988,9.053075,-1.7417817,-0.91440934,9.755109,-0.41484845
1409346748203,-1.8926164,9.218275,-1.7040731,-1.101233,9.729606,-0.5407665
1409346748219,-1.2072762,9.56723,-1.3024458,-1.2120583,9.710019,-0.64563894
1409346748221,-0.97743285,9.884461,-0.919972,-1.232475,9.703207,-0.706528
1409346748228,-1.0929531,10.242993,-0.50517654,-1.2215323,9.704573,-0.7067844
1409346748253,-1.4024036,10.416573,-0.30825347,-1.2240716,9.707165,-0.66560256
1409346748255,-1.654992,10.407595,-0.5081693,-1.259652,9.705776,-0.617693
1409346748262,-1.2204443,10.155006,-0.7026982,-1.3126432,9.699304,-0.60897374
1409346748294,-0.7104794,9.778519,-0.9816227,-1.3102251,9.698149,-0.6321485
1409346748295,0.026934769,9.751583,-1.5562311,-1.2474177,9.702776,-0.6859165
1409346748296,0.8487445,9.863512,-2.3535004,-1.1128224,9.711518,-0.78641486
1409346748300,1.2150574,9.688137,-3.6481647,-0.9160917,9.718061,-0.94363105
1409346748322,1.4030021,9.378088,-4.0276456,-0.694622,9.70739,-1.2060089
1409346748323,1.3724761,8.578424,-4.3658266,-0.48273414,9.682214,-1.4805653
1409346748328,1.0791864,8.2833395,-3.7032316,-0.30698535,9.636056,-1.795158
1409346748353,2.0284874,8.593987,-2.6192567,-0.19737756,9.589262,-2.0438814
1409346748354,3.2429461,8.548497,-2.1918917,-0.0019318449,9.567668,-2.151771
1409346748360,3.1908724,8.954913,-1.1552023,0.332142,9.551779,-2.1962721
1409346748388,2.883816,9.4696665,-0.7637503,0.6344035,9.554444,-2.1167202
1409346748389,2.7072437,9.436746,-0.374094,0.8603055,9.565648,-1.9820722
1409346748390,2.8856115,9.655217,-0.05327099,1.0472002,9.579485,-1.8185786
1409346748401,3.17531,9.838972,0.39205053,1.2422903,9.587244,-1.6467723
1409346748423,3.481768,9.590573,0.54767364,1.4479048,9.588594,-1.4604214
1409346748424,3.5655649,9.016563,0.11851298,1.6650711,9.576764,-1.2975042
1409346748431,2.7659016,8.407838,-0.8026561,1.8746496,9.54869,-1.215981
1409346748460,1.9405005,8.48984,-1.2491747,1.9856647,9.52262,-1.243879
1409346748461,1.1899183,9.009979,-1.2641385,1.99395,9.5135355,-1.2989278
1409346748462,0.6290765,9.832987,-0.93972415,1.9126399,9.524302,-1.3416
1409346748481,0.4818331,10.606314,-0.63087213,1.7692689,9.552702,-1.3364079
1409346748482,0.7086837,10.997766,-0.11252748,1.6264997,9.584391,-1.2900937
1409346748507,0.43514615,10.907384,0.8607155,1.5303783,9.61208,-1.1984353
1409346748508,1.2425907,11.659163,0.2873042,1.4262781,9.647167,-1.0335828
1409346748509,2.3133974,13.041217,-1.4694413,1.3929878,9.658583,-0.97043526
1409346748539,2.3517046,13.424289,-1.5209166,1.4186387,9.643674,-1.0758276
1409346748540,2.9227216,12.377424,9.058462,1.4204803,9.630163,-1.1885148
1409346748541,5.0403934,10.66557,12.629414,1.5525883,9.679972,-0.24083617
1409346748549,5.0278234,12.720992,9.982025,1.9125195,9.565979,1.0023507
1409346748572,5.623381,14.818313,4.6621094,2.143602,9.379758,1.8961853
1409346748572,6.4751186,16.059109,-1.0444705,2.2730598,9.290338,2.1663828
1409346748580,6.043564,15.326482,-6.3781533,2.3958805,9.320825,1.8847698
1409346748602,5.1439424,12.964602,-8.040328,2.529677,9.39731,1.209004
1409346748602,4.255095,11.183915,-6.919243,2.668436,9.423871,0.49038085
1409346748608,3.5990837,11.41735,-5.109825,2.7669282,9.40703,-0.14933278
1409346748630,2.40318,12.236166,-3.7193923,2.7957165,9.381103,-0.5909778
1409346748631,2.0165164,12.250531,-0.61890113,2.7240238,9.383669,-0.83476347
1409346748656,1.9812019,11.930905,4.520851,2.6477962,9.410531,-0.7755444
1409346748658,1.3964181,11.399991,7.394492,2.6110883,9.447952,-0.298016
1409346748660,-0.0676362,11.405977,5.0942626,2.559872,9.458933,0.3821334
1409346748693,-0.16938977,11.964424,2.1589713,2.3765173,9.478144,0.82907695
1409346748694,1.0552444,11.900379,0.86131406,2.1490924,9.516898,0.99016345
1409346748695,1.134253,10.774507,-2.3959973,2.0350947,9.541423,0.99499655
1409346748710,0.3764882,9.174581,-3.8025908,1.9621059,9.579855,0.73953986
1409346748710,-0.3477578,8.713099,-2.9418752,1.8701787,9.619376,0.37471068
1409346748729,-0.5907693,10.301651,-1.8902222,1.7266493,9.652955,0.09761399
1409346748730,-0.27473465,13.643957,-1.0043676,1.5559856,9.682174,-0.06932605
1409346748746,-0.10055647,17.755999,-0.29628247,1.3949425,9.70587,-0.1435387
1409346748748,-0.3716998,19.608511,-0.6314707,1.2277622,9.728623,-0.1299835
1409346748761,-0.8050503,19.608511,-3.0226796,1.0616294,9.747918,-0.1463599
1409346748780,-1.5388732,19.608511,-5.366603,0.9015724,9.759564,-0.3293027
1409346748780,-1.6867151,18.30068,-6.9012866,0.7210864,9.759156,-0.63977677
1409346748796,-1.7585411,14.812926,-6.0884547,0.54905283,9.740995,-0.9909089
1409346748813,-1.7968484,11.768699,-2.9909565,0.3693559,9.71949,-1.2511884
1409346748814,-1.6112977,9.9712515,-3.6409822,0.17779344,9.717145,-1.3099159
1409346748831,-1.6430209,8.8567505,-6.2183404,0.0062613986,9.697168,-1.4612637
1409346748832,-2.2942438,8.696339,-7.9385743,-0.13210677,9.637075,-1.8109964
1409346748847,-3.7367504,8.019379,-7.5770497,-0.3108147,9.5298605,-2.2924926
1409346748849,-3.9977183,5.4402246,-0.61052144,-0.58363503,9.410926,-2.6952307
1409346748862,-3.0424318,4.268263,7.2005615,-0.8779937,9.410153,-2.6169705
1409346748880,-1.2725182,5.391742,5.0984526,-1.0977498,9.548898,-1.9452262
1409346748881,-0.86849666,5.5503583,0.6811504,-1.1299406,9.636689,-1.4240162
1409346748897,-0.5351041,5.024831,-0.94331545,-1.1198568,9.65477,-1.3045049
1409346748912,-0.5279215,4.394557,-1.0785879,-1.0831778,9.652538,-1.3511466
1409346748912,-0.4249708,3.9833531,-2.0177135,-1.0896429,9.645946,-1.3924125
1409346748927,-0.25857377,3.6367924,-2.6330233,-1.0835707,9.621863,-1.554369
1409346748929,-0.9463082,2.9311013,-2.6551697,-1.0582699,9.582273,-1.7973654
1409346748954,-2.2307975,2.1888988,-2.4660277,-1.1291201,9.521442,-2.0585523
1409346748955,-3.0478187,1.9117701,-1.9871874,-1.3887305,9.427399,-2.3164575
1409346748960,-3.3518825,1.87047,-1.7166426,-1.7765418,9.306805,-2.5293558
1409346748985,-3.3123782,1.8112136,-1.1270704,-2.222273,9.160505,-2.7050035
1409346748985,-2.9741971,2.4995465,-0.6536171,-2.6748114,9.0198345,-2.7673686
1409346748989,-2.4827871,3.091513,-0.6398504,-3.0504937,8.907683,-2.7419014
1409346749023,-1.8477252,3.6463692,-0.045489833,-3.3121014,8.829824,-2.6897178
