time,acc_x,acc_y,acc_z,gravity_x,gravity_y,gravity_z
1409522942903,-2.2655134,1.4257472,9.643246,-2.6603894,1.2712754,9.352891
1409522942918,-2.2415714,1.4161704,10.049063,-2.6481285,1.2365831,9.361018
1409522942919,-2.271499,1.3024458,10.337564,-2.6375716,1.2053758,9.368067
1409522942936,-2.4600422,1.1492168,10.375273,-2.6438165,1.1786028,9.369713
1409522942951,-2.7341783,1.1192893,9.939528,-2.677648,1.1596311,9.362471
1409522942952,-2.8754363,1.2503718,9.387066,-2.7331963,1.1537492,9.347133
1409522942967,-2.846706,1.4281414,9.150639,-2.793036,1.1636679,9.328195
1409522942968,-2.742558,1.6118963,9.044097,-2.8392951,1.181097,9.312024
1409522942985,-2.6737247,1.7310078,8.890868,-2.8731024,1.2056527,9.298498
1409522942988,-2.689287,1.745373,8.822035,-2.8797812,1.2273686,9.29359
1409522943002,-2.6210523,1.7304093,8.915408,-2.8673615,1.2394506,9.295826
1409522943018,-2.420538,1.6490064,9.147048,-2.8519266,1.2418822,9.300249
1409522943019,-2.3307555,1.5280992,9.2547865,-2.8422506,1.237788,9.303756
1409522943035,-2.3630772,1.477821,9.296086,-2.8388405,1.2313651,9.30565
1409522943055,-2.4049757,1.5089456,9.224859,-2.8411107,1.2273353,9.305489
1409522943056,-2.355296,1.5149311,9.312846,-2.8494177,1.2256072,9.303176
1409522943076,-2.3654714,1.4921862,9.407417,-2.8599412,1.2277052,9.29967
1409522943077,-2.4361002,1.5023615,9.344569,-2.872864,1.2333676,9.294936
1409522943080,-2.417545,1.4862007,9.064447,-2.8819842,1.2423209,9.29092
1409522943088,-2.3247697,1.4544775,8.775348,-2.8838267,1.2541577,9.288758
1409522943109,-2.2744915,1.4939818,8.508394,-2.878352,1.2691201,9.288424
1409522943110,-2.204461,1.5616181,8.167819,-2.866391,1.2861873,9.289775
1409522943122,-2.2008698,1.5514427,7.823054,-2.847046,1.3037381,9.293276
1409522943142,-2.2840683,1.5688007,7.6255326,-2.825276,1.319499,9.297694
1409522943143,-2.2284033,1.6011224,7.48607,-2.8007479,1.3317271,9.30337
1409522943148,-2.1272483,1.5580268,7.824251,-2.774626,1.3383901,9.310239
1409522943173,-2.166154,1.496376,8.661025,-2.74669,1.3356183,9.318916
1409522943173,-2.2098482,1.5837644,9.430161,-2.7172446,1.3197702,9.329801
1409522943182,-2.143409,1.6472107,9.887454,-2.6863863,1.2920699,9.342606
1409522943188,-2.123657,1.6172832,10.0508585,-2.6589618,1.2583888,9.35504
1409522943210,-2.1338322,1.5394717,9.648034,-2.6400046,1.2262055,9.364677
1409522943211,-2.2092497,1.4137762,8.996213,-2.6255546,1.2093619,9.370928
1409522943220,-2.219425,1.5568297,8.544308,-2.612469,1.22116,9.373055
1409522943235,-1.9590555,1.8620903,8.057686,-2.594031,1.2656634,9.3722725
1409522943259,-1.7555484,2.1027076,7.7985134,-2.5679517,1.3341333,9.369957
1409522943260,-1.8800468,2.2230163,7.77517,-2.536648,1.4091076,9.367509
1409522943260,-2.2349873,2.3241713,7.819463,-2.5083985,1.4711611,9.365576
1409522943268,-2.5384524,2.5683799,8.311471,-2.489066,1.5223691,9.36255
1409522943291,-2.7659016,2.60549,9.01417,-2.4765296,1.5500245,9.361337
1409522943292,-3.1268275,2.343325,9.336189,-2.479954,1.5588907,9.358956
1409522943302,-3.3740287,2.1122844,9.768343,-2.5077617,1.5624801,9.350945
1409522943323,-3.4398694,2.135628,9.896433,-2.5595071,1.5798172,9.333997
1409522943324,-3.3854012,2.2278047,9.810242,-2.6223514,1.6267724,9.308453
1409522943329,-3.25372,2.019509,9.956287,-2.6802285,1.7088717,9.2772045
1409522943357,-2.1200657,1.9231426,9.970055,-2.7254865,1.817656,9.243281
1409522943357,-0.08678981,0.54408234,8.331821,-2.757923,1.9371852,9.20932
1409522943362,1.423353,-0.19812019,7.9541364,-2.7817278,2.0682423,9.17359
1409522943369,-0.5482722,-0.4405331,10.258555,-2.828126,2.208586,9.126568
1409522943395,-3.6523547,0.0676362,11.332953,-2.9236157,2.338265,9.06396
1409522943396,-4.5555673,1.1683705,10.494385,-3.055323,2.4650946,8.986584
1409522943400,-3.6966474,1.9027919,9.272144,-3.1856852,2.622468,8.896317
1409522943425,-3.7720647,1.4586674,8.020576,-3.3272226,2.8141637,8.785241
1409522943426,-3.9749734,1.316811,6.691794,-3.504374,3.0117037,8.64982
1409522943429,-4.2796354,2.3948002,5.1020436,-3.6955876,3.1861687,8.506547
1409522943456,-2.7341783,5.8107276,7.07726,-3.913518,3.3311465,8.3521385
1409522943457,-2.581548,5.457583,8.558673,-4.1148286,3.4699452,8.197442
1409522943460,-4.6657004,5.7257333,10.383054,-4.25034,3.5540848,8.091569
1409522943469,-7.1490865,2.6994624,12.126033,-4.2952704,3.5634453,8.063678
1409522943491,-7.6009917,2.292448,10.45907,-4.28598,3.4656951,8.111087
1409522943492,-7.2490444,3.8666358,8.34918,-4.254965,3.32118,8.187517
1409522943500,-5.7538652,4.2299557,7.7787614,-4.226648,3.1946468,8.252276
1409522943521,-4.0252514,3.9025488,7.2227077,-4.2002974,3.1073623,8.298927
1409522943522,-3.425504,3.0226796,7.374141,-4.204853,3.0581198,8.314896
1409522943529,-3.3518825,2.2385786,8.544308,-4.255451,3.0052612,8.308425
1409522943559,-4.1838675,2.2200236,10.208278,-4.357435,2.9227726,8.284959
1409522943560,-5.144541,2.2583308,10.320805,-4.5043707,2.8039756,8.247348
1409522943561,-5.6323595,2.1775265,7.73806,-4.669492,2.668865,8.200207
1409522943569,-7.355586,2.1679497,6.8839283,-4.8350096,2.5510542,8.141572
1409522943590,-8.422802,2.295441,5.556942,-4.9916563,2.4463649,8.078927
1409522943591,-8.800487,3.1501708,4.03004,-5.14803,2.3728726,8.002353
1409522943602,-8.827422,4.4101195,6.06571,-5.260871,2.3385658,7.9388123
1409522943624,-7.161656,3.964798,9.204509,-5.2943754,2.3372912,7.916884
1409522943625,-4.7255554,2.2026656,8.915408,-5.2400284,2.32199,7.95744
1409522943629,-3.1441853,0.7835025,8.977059,-5.1102657,2.2510247,8.061542
1409522943658,-2.3122003,0.7386112,10.057443,-4.9390407,2.12925,8.200156
1409522943659,-1.9674352,0.2693477,11.331158,-4.7885675,1.9918622,8.3230095
1409522943662,-2.1027076,-0.5566519,11.367071,-4.6580935,1.8352512,8.432343
1409522943669,-2.5899277,-1.4293385,11.057022,-4.5810575,1.670282,8.508493
1409522943691,-3.5853171,-1.9021933,11.4377,-4.546086,1.509894,8.557086
1409522943692,-4.8380833,-2.3822308,10.979809,-4.5397763,1.3644586,8.584816
1409522943701,-6.6103907,-1.9027919,10.868479,-4.5626683,1.2451931,8.590806
1409522943715,-8.173206,-0.878672,11.378444,-4.598235,1.1735886,8.581918
1409522943733,-7.472902,-0.12030864,10.311228,-4.619903,1.1991068,8.566739
1409522943733,-4.308366,1.3012487,8.804078,-4.5834804,1.3004417,8.57152
1409522943753,-1.110311,2.7012582,7.57286,-4.4767528,1.530437,8.589927
1409522943754,-1.7717092,1.5801731,7.8027034,-4.2948318,1.8146881,8.627382
1409522943770,-2.4313118,1.2132617,7.0545154,-4.1100264,2.0786128,8.657797
1409522943770,-2.4917655,2.4905684,6.981492,-3.938482,2.2943697,8.683007
1409522943785,-2.633622,3.7541082,7.265205,-3.7809021,2.4492078,8.710715
1409522943804,-3.3740287,4.0025067,7.2861543,-3.672811,2.5355978,8.732216
1409522943805,-4.1742907,3.2070332,7.079056,-3.6383207,2.586485,8.7317295
1409522943828,-4.5232453,2.1039047,6.941988,-3.6548448,2.5710502,8.729387
1409522943829,-4.6004586,1.2892777,6.4164605,-3.746397,2.505212,8.709696
1409522943829,-4.382586,0.7673417,5.707777,-3.8838925,2.4089115,8.676573
1409522943857,-4.2359414,-0.14065935,5.353435,-4.0327225,2.2909067,8.64056
1409522943857,-4.3760023,-1.1145009,4.8584337,-4.186984,2.1417208,8.605382
1409522943860,-3.989937,-1.9333179,3.5990837,-4.352847,1.9545016,8.567556
1409522943869,-2.617461,-3.5835214,2.942474,-4.533117,1.7241026,8.523421
1409522943883,-1.4000094,-5.791574,3.526659,-4.7339826,1.4662206,8.462269
1409522943904,-1.7495629,-7.045537,4.0677485,-4.942056,1.1459321,8.392455
1409522943905,-2.5761611,-6.9000893,4.396951,-5.151074,0.7750997,8.308793
1409522943909,-3.2974143,-5.728726,4.2461166,-5.336462,0.3787664,8.218825
1409522943938,-4.073136,-4.2179847,3.6774938,-5.504332,-0.018555794,8.1161785
1409522943939,-5.067328,-3.316568,3.9390604,-5.680184,-0.41590136,7.98329
1409522943941,-6.576872,-3.6535518,4.9877205,-5.880394,-0.83294106,7.803689
1409522943950,-8.002021,-5.361216,5.946,-6.1007156,-1.2792981,7.57067
1409522943982,-9.049484,-7.4974427,6.6427126,-6.3164344,-1.7695783,7.2898316
1409522943983,-9.551667,-7.960122,6.087258,-6.5299263,-2.3136399,6.941003
1409522943984,-10.168175,-6.857592,4.681263,-6.755773,-2.8614602,6.50707
1409522944011,-10.856507,-5.2528787,3.8145618,-7.0114803,-3.3667824,5.972797
1409522944011,-11.719617,-3.9426517,3.3303347,-7.2795157,-3.8007076,5.3603797
1409522944012,-14.463971,-1.8710686,3.4913447,-7.5241795,-4.1575933,4.7192726
1409522944034,-15.786767,-0.9032126,3.4153287,-7.738181,-4.4155164,4.0980678
1409522944035,-16.417042,-0.59495914,3.8337154,-7.908946,-4.608315,3.5188656
1409522944062,-15.485098,-2.1362264,5.0679264,-8.056873,-4.7319098,2.977615
1409522944063,-13.141174,-4.4597993,7.015011,-8.1653805,-4.813877,2.5146646
1409522944064,-10.612898,-5.366603,9.120711,-8.241678,-4.8613615,2.1476216
1409522944069,-8.582016,-4.1425676,9.889849,-8.307517,-4.854223,1.8952765
1409522944085,-7.53575,-2.1230583,8.785523,-8.38398,-4.7806277,1.7392262
1409522944105,-8.034343,-0.7302315,6.4511766,-8.480146,-4.6530523,1.614495
1409522944106,-9.24521,-0.01436521,4.119224,-8.58716,-4.5070434,1.4552187
1409522944109,-10.922348,0.008978256,2.248754,-8.699947,-4.359373,1.2153964
1409522944137,-13.1717005,-0.9223662,1.5897499,-8.790846,-4.241497,0.94927585
1409522944138,-14.959571,-2.3708582,1.8315643,-8.858786,-4.155,0.65441495
1409522944143,-15.572487,-3.578733,2.7269957,-8.903672,-4.0918565,0.3894909
1409522944149,-14.514848,-4.0737343,4.083311,-8.937374,-4.031578,0.20031331
1409522944171,-12.58572,-4.0797195,4.8267107,-8.975904,-3.9486983,0.10630349
1409522944172,-11.444284,-4.083311,5.1517234,-9.027433,-3.8299627,0.08510756
1409522944181,-9.882666,-4.743512,5.953781,-9.082374,-3.697042,0.11288287
1409522944205,-8.147469,-4.5166616,4.8979383,-9.139807,-3.550588,0.16616905
1409522944205,-6.9581485,-4.044405,1.785476,-9.194506,-3.4041336,0.2081202
1409522944209,-5.5988407,-4.3209357,-0.9816227,-9.242224,-3.2730896,0.19636194
1409522944238,-5.4521956,-4.7788267,-2.6372132,-9.276286,-3.1791077,0.11917993
1409522944238,-7.4788876,-5.647323,-2.5971103,-9.294765,-3.1268075,-0.028605333
1409522944241,-9.207501,-6.0465565,-2.2499511,-9.294189,-3.119988,-0.23267537
1409522944249,-9.516354,-5.429451,-1.6609775,-9.277321,-3.1443515,-0.46344402
1409522944273,-9.223063,-4.6830587,0.16280572,-9.257182,-3.1650455,-0.6763544
1409522944273,-8.549694,-4.392163,1.6400281,-9.242263,-3.1638432,-0.86086106
1409522944281,-8.713697,-5.0798974,2.2188265,-9.240925,-3.1339478,-0.9767729
1409522944305,-9.723452,-5.8119245,1.2557588,-9.253921,-3.08725,-1.0021201
1409522944306,-10.831967,-6.1381345,-0.54887074,-9.27531,-3.035931,-0.9602853
1409522944310,-10.379463,-5.397728,-1.46585,-9.296504,-2.9882975,-0.90306586
1409522944340,-10.397419,-4.4460325,-0.9600749,-9.314748,-2.942467,-0.8647323
1409522944341,-10.720038,-3.7738605,-0.42916065,-9.331816,-2.893824,-0.84461075
1409522944342,-10.563816,-3.3967736,-0.22685061,-9.3457,-2.8543532,-0.8251906
1409522944350,-11.188704,-3.5093012,-0.19273324,-9.354093,-2.8311183,-0.8100059
1409522944381,-12.559383,-4.2664676,-0.90381116,-9.357408,-2.821457,-0.80541974
1409522944383,-13.592482,-5.125387,-2.6491842,-9.355859,-2.8219483,-0.82154554
1409522944384,-13.905523,-5.8825536,-4.8482585,-9.3507805,-2.8233032,-0.8730764
1409522944421,-12.410344,-6.2991447,-6.697779,-9.343549,-2.8130891,-0.97723997
1409522944423,-9.88925,-6.0160303,-7.795521,-9.335638,-2.783632,-1.125895
1409522944424,-8.018182,-5.4779334,-6.4469867,-9.327241,-2.742722,-1.2847025
1409522944425,-7.8188643,-4.4358573,-2.3385365,-9.323674,-2.686566,-1.4219238
1409522944430,5.5018754,0.88645315,8.368932,-9.323517,-2.636468,-1.5137469
1409522944495,-4.2461166,-0.2172738,3.0472202,-9.329387,-2.6097572,-1.5238404
1409522944498,-7.7811556,-2.146402,-2.1505916,-9.32041,-2.6410303,-1.5249025
1409522944500,-8.718486,-2.9981391,-3.5182793,-9.266181,-2.791593,-1.5859739
1409522944508,-7.7703815,-1.8770541,-3.3273418,-9.173993,-2.997952,-1.7379601
1409522944512,-7.2604165,-1.2210429,-3.0244753,-9.096554,-3.1839418,-1.8126281
1409522944512,-8.592192,-2.0027497,-3.0125043,-9.031882,-3.3464465,-1.843042
1409522944527,-10.589554,-2.9245174,-2.5246856,-8.986333,-3.4743128,-1.8290344
1409522944527,-11.079168,-3.2944214,-1.234211,-8.955442,-3.5701635,-1.7956489
1409522944528,-10.023924,-3.0119057,1.2156559,-8.945375,-3.6201031,-1.7451316
1409522944529,-8.771158,-2.3546975,1.9985598,-8.956505,-3.619987,-1.6873294
1409522944549,-7.8912888,-1.2000936,0.86251116,-8.973647,-3.5927022,-1.6542501
1409522944550,-7.32925,0.25378537,-0.1436521,-8.978966,-3.5683882,-1.6778526
1409522944565,-6.8438253,1.2575544,-2.8880057,-8.967193,-3.5493984,-1.7780981
1409522944582,-7.4028716,1.6597804,-3.3345244,-8.936947,-3.5530672,-1.9175714
1409522944582,-7.788338,0.8391677,-3.265691,-8.883193,-3.5819032,-2.1045775
1409522944606,-7.0227923,-0.02633622,-2.882619,-8.808378,-3.6395814,-2.310055
1409522944606,-5.7041855,-1.0127473,-2.0931308,-8.727991,-3.7162101,-2.486438
1409522944611,-5.9268465,-3.728969,-2.8401217,-8.661178,-3.7940145,-2.599972
1409522944631,-6.1369376,-4.8961425,-4.3221326,-8.609777,-3.8721294,-2.654944
1409522944631,-5.835268,-4.481347,-3.6212301,-8.564849,-3.9616094,-2.668228
1409522944646,-5.997475,-4.1162314,-1.0223241,-8.529976,-4.055887,-2.638125
1409522944649,-6.2003837,-3.8720226,-0.6823475,-8.496559,-4.1646795,-2.5757208
1409522944663,-7.327454,-4.4562078,-0.82480246,-8.462479,-4.2923584,-2.476389
1409522944679,-8.223484,-4.6501384,-0.8936358,-8.417814,-4.452516,-2.3421922
1409522944683,-8.583213,-5.047576,0.21667525,-8.350997,-4.6473055,-2.1985927
1409522944699,-8.78672,-5.8424506,1.1133038,-8.252909,-4.876882,-2.0678258
1409522944713,-8.306683,-6.9503675,1.2802993,-8.123018,-5.1331463,-1.9590328
1409522944713,-7.700351,-8.459911,1.1348516,-7.9684234,-5.400306,-1.8738556
1409522944728,-7.0886326,-9.302073,-0.005985504,-7.7907686,-5.677252,-1.8008664
1409522944730,-6.4302273,-9.780912,-2.0458453,-7.5929837,-5.9481053,-1.771175
1409522944754,-5.3779755,-9.701305,-3.105878,-7.377451,-6.205142,-1.799944
1409522944755,-4.3209357,-9.0016,-3.0573955,-7.1429358,-6.452716,-1.8738445
1409522944761,-3.6828809,-9.232041,-3.8762126,-6.8930445,-6.6906915,-1.9725568
1409522944778,-3.4596214,-9.172785,-4.8159366,-6.6186466,-6.927886,-2.0900574
1409522944781,-2.606687,-6.59423,-4.6273932,-6.329644,-7.156743,-2.2106588
1409522944797,-1.9207484,-4.1264067,-3.3159695,-6.0482025,-7.363033,-2.3184986
1409522944814,-1.1001357,-2.4875755,-1.6645688,-5.806346,-7.5351505,-2.3829157
1409522944814,-0.53091425,-1.7501614,-1.0414777,-5.6191225,-7.6794734,-2.370985
1409522944831,-0.20051439,-1.5023615,-1.520318,-5.4796977,-7.811165,-2.2647283
1409522944831,0.20709845,-1.6280571,-1.6741456,-5.356935,-7.9469805,-2.0782495
1409522944847,0.43275195,-1.9901801,-1.0378864,-5.2200646,-8.094665,-1.8432997
1409522944850,0.52612585,-2.107496,0.03232172,-5.0495744,-8.2562475,-1.583219
1409522944866,0.4854244,-2.2290018,0.8810662,-4.857326,-8.419455,-1.2998346
1409522944879,0.43754035,-2.1811178,0.9600749,-4.601098,-8.597174,-1.0435177
1409522944881,0.24001873,-2.0853498,0.5650316,-4.283136,-8.783479,-0.82195354
1409522944895,-3.1878796,-3.8588545,0.3298013,-3.9112604,-8.968939,-0.65618193
1409522944912,-8.626308,-8.544906,-0.93972415,-3.5059524,-9.141577,-0.5570014
1409522944913,-9.124901,-14.123995,-3.1866825,-3.1235573,-9.281123,-0.5239479
1409522944931,-9.56304,-19.608511,-6.951565,-2.7898195,-9.3844385,-0.56535894
1409522944931,-3.642778,-19.608511,-8.607155,-2.4893508,-9.465262,-0.61834526
1409522944948,-0.7320272,-19.608511,-7.2544312,-4.05325,-8.538666,-2.6139574
1409522944951,-1.09834,-18.686146,-3.364452,-3.3140233,-8.772036,-2.8703697
1409522944962,-0.7954735,-10.118495,-0.5327099,-2.7025123,-9.036714,-2.6841462
1409522944979,0.2896984,-5.829881,0.6967127,-2.3793943,-9.201092,-2.4184191
1409522944985,0.1316811,-5.9052987,1.7561469,-2.2222087,-9.295894,-2.195119
1409522944998,-0.7020996,-8.660426,3.0693667,-2.1210186,-9.379311,-1.9235861
1409522945038,-0.4249708,-11.607688,4.6806645,-2.0150857,-9.481546,-1.4866321
1409522945039,0.7942764,-12.769475,5.407305,-1.820964,-9.595699,-0.88148886
1409522945039,2.9293058,-12.677298,4.124611,-1.4785025,-9.691171,-0.25613633
1409522945039,4.9703627,-11.540052,1.8950106,-1.0584198,-9.747394,0.19609249
1409522945044,6.362591,-10.0825815,-0.65900403,-0.52074444,-9.784168,0.41137365
1409522945051,6.8162923,-9.372103,-2.441487,0.10335545,-9.7995205,0.3593401
1409522945064,5.787384,-9.759963,-2.5396495,0.74655515,-9.777513,0.1152496
1409522945078,4.7243586,-9.709086,-2.4145525,1.2527333,-9.725373,-0.1348755
1409522945081,4.623802,-9.28232,-2.698864,1.5900121,-9.670361,-0.35543373
1409522945096,5.261258,-8.47308,-3.1352072,1.8804625,-9.60828,-0.56144613
1409522945116,5.949591,-7.86196,-3.34051,2.1693518,-9.5294,-0.8092437
1409522945117,6.293159,-7.764396,-3.6062663,2.505598,-9.423485,-1.0441759
1409522945131,5.7724204,-8.141483,-2.843713,2.8627784,-9.290204,-1.2911218
1409522945131,3.5619736,-8.969876,-2.022502,3.1496594,-9.172471,-1.4545909
1409522945145,2.8814218,-9.391854,-1.316811,3.1999493,-9.140565,-1.5429841
1409522945162,2.3983915,-9.81503,-0.88405895,3.1696475,-9.148669,-1.5574375
1409522945164,1.9512744,-9.996989,-0.5093664,3.076292,-9.187017,-1.5183961
1409522945180,1.70946,-10.04607,-0.25558102,2.942658,-9.243149,-1.4406044
1409522945181,1.6460136,-9.916184,-0.1340753,2.7998328,-9.305815,-1.3164895
1409522945197,1.6777369,-9.805453,-0.13706805,2.6592474,-9.363854,-1.1904029
1409522945214,1.7830818,-9.927557,-0.27473465,2.535142,-9.412964,-1.0675082
1409522945214,1.8926164,-10.382456,-0.42676646,2.4301405,-9.451624,-0.9651976
1409522945230,1.8806454,-10.912771,-0.55006784,2.3385403,-9.482303,-0.88744164
1409522945231,1.6849195,-11.2605295,-0.60812724,2.2481017,-9.509096,-0.83278704
1409522945243,1.2533646,-11.159374,-0.60333884,2.1492088,-9.535474,-0.7912135
1409522945263,0.8900445,-10.828376,-0.492607,2.025801,-9.564499,-0.7660978
1409522945263,0.7009025,-10.729615,-0.39145198,1.8940804,-9.593545,-0.7394132
1409522945279,0.65780693,-10.801441,-0.34835634,1.7607168,-9.621228,-0.70868605
1409522945296,0.6751649,-10.611102,-0.32621,1.6347786,-9.645879,-0.6744816
1409522945296,0.40462008,-9.585187,-0.25917232,1.5277863,-9.665892,-0.6378133
1409522945313,-0.0796072,-8.6095495,-0.2136825,1.4273145,-9.683716,-0.59901863
1409522945313,-0.3657143,-8.699332,-0.3776853,1.309745,-9.702616,-0.5605349
1409522945328,-0.47285482,-9.281123,-0.6757634,1.1663845,-9.721904,-0.5427432
1409522945330,-0.48123455,-9.861118,-1.0007763,1.0255185,-9.737554,-0.54658
1409522945345,-0.5374983,-10.5440645,-1.2797008,0.8888988,-9.749175,-0.57777184
1409522945363,-0.60214174,-10.818799,-1.3180081,0.7539444,-9.757176,-0.63204646
1409522945364,-0.23822308,-10.45907,-1.2042835,0.6251038,-9.762489,-0.6880811
1409522945377,0.3196259,-10.081385,-1.0726024,0.54155284,-9.764098,-0.73451024
1409522945382,0.7218518,-9.941922,-0.95947635,0.51217824,-9.762885,-0.77082425
1409522945407,0.86729956,-9.721058,-0.8888474,0.5270979,-9.760487,-0.7908634
1409522945433,0.91697925,-9.595362,-0.9283517,0.5571683,-9.757065,-0.8121727
1409522945434,0.9427169,-9.516952,-1.0384849,0.5954066,-9.752634,-0.8378642
1409522945434,1.021127,-9.504382,-1.270124,0.6346268,-9.747306,-0.87043554
1409522945434,1.1492168,-9.561244,-1.5275006,0.67652565,-9.740017,-0.91911453
1409522945447,1.2354081,-9.53012,-1.7705121,0.7240344,-9.730227,-0.9842858
1409522945461,1.2976574,-9.540894,-1.9734207,0.77516985,-9.717662,-1.0661083
1409522945464,1.3012487,-9.809045,-2.1146786,0.82753015,-9.702559,-1.1601416
1409522945478,1.2940661,-9.945514,-2.1338322,0.8731983,-9.686763,-1.2548078
1409522945483,1.4173675,-10.084377,-2.083554,0.9127716,-9.671701,-1.3399382
1409522945494,1.508347,-10.228029,-1.9937714,0.9567741,-9.657627,-1.4089667
1409522945511,1.5310919,-10.385448,-1.8507179,1.0016873,-9.645618,-1.4591309
1409522945511,1.5233108,-10.445902,-1.7118542,1.0441171,-9.636734,-1.4878011
1409522945529,1.6340426,-10.375872,-1.620276,1.0825243,-9.630691,-1.4994366
1409522945530,1.6543933,-10.298658,-1.54845,1.1278753,-9.624943,-1.5029116
1409522945544,1.6639702,-10.258555,-1.4401124,1.1711612,-9.620006,-1.501434
1409522945566,1.3581109,-10.228628,-1.2743138,1.2118788,-9.616542,-1.4912615
1409522945567,0.97144735,-10.184336,-1.0594343,1.2228087,-9.618365,-1.4704385
1409522945570,0.6434417,-10.228029,-0.878672,1.1980683,-9.627022,-1.4336972
1409522945600,0.3345897,-10.2735195,-0.6919243,1.1427634,-9.6414795,-1.3807203
1409522945600,0.17657238,-10.332177,-0.44651863,1.0604337,-9.66066,-1.3105437
1409522945602,0.14544775,-10.277709,-0.19931729,0.97027624,-9.681992,-1.2198452
1409522945610,0.10055647,-10.228029,-0.0724246,0.88624424,-9.702811,-1.1137614
1409522945628,0.29269117,-10.42196,-0.0700304,0.80796564,-9.721071,-1.0091479
1409522945630,0.14784196,-10.448297,-0.0712275,0.7530065,-9.735269,-0.90991
1409522945646,0.29927522,-10.408194,-0.1388637,0.69029933,-9.747646,-0.8229665
1409522945660,0.45130703,-10.250774,-0.2681506,0.64786303,-9.755961,-0.756217
1409522945662,0.3429694,-10.205883,-0.4225766,0.6221064,-9.760913,-0.7127052
1409522945677,0.25677812,-10.131663,-0.5470751,0.59019583,-9.76454,-0.68981767
1409522945696,0.4297592,-10.016742,-0.6374562,0.5558467,-9.767268,-0.6796388
1409522945697,0.5009867,-9.809045,-0.6895301,0.5402385,-9.768443,-0.67532504
1409522945721,0.6727707,-9.846753,-0.81163436,0.5347297,-9.7686,-0.67743284
1409522945723,0.85413146,-9.919178,-0.89064306,0.5483628,-9.767102,-0.6880641
1409522945724,1.198298,-10.046669,-0.9163807,0.5797078,-9.764188,-0.70354694
1409522945731,1.1055226,-9.8754835,-0.8972271,0.63854253,-9.759443,-0.71828157
1409522945757,1.1905168,-9.719262,-0.96546185,0.6836539,-9.755382,-0.73179865
1409522945758,1.2850877,-9.591172,-1.0749966,0.7346131,-9.750078,-0.75280166
1409522945764,1.1210849,-9.520543,-1.1258733,0.78993577,-9.743447,-0.78206694
1409522945782,0.94092125,-9.336189,-1.2455834,0.8236492,-9.737988,-0.81459963
1409522945783,1.1216835,-9.503783,-1.4748282,0.83886784,-9.733408,-0.8529069
1409522945791,1.2000936,-10.088568,-1.5771804,0.86897653,-9.725844,-0.9073165
1409522945820,1.2545617,-10.523115,-1.543063,0.8947508,-9.71848,-0.9596774
1409522945820,1.2114661,-10.392033,-1.5143325,0.91796595,-9.712293,-0.9995658
1409522945824,1.3072342,-10.1621895,-1.6376339,0.93636113,-9.706725,-1.0359218
1409522945831,1.5239093,-10.389638,-1.8387469,0.9632363,-9.699041,-1.0822148
1409522945855,1.6490064,-10.407595,-1.7788919,1.0066464,-9.687918,-1.1407406
1409522945856,1.6711528,-10.451887,-1.8423382,1.0594474,-9.676507,-1.1887796
1409522945863,1.3341689,-10.368091,-1.9273324,1.1097604,-9.664033,-1.2431091
1409522945890,1.1785458,-10.317214,-1.977012,1.1240628,-9.654192,-1.3051509
1409522945891,1.163582,-10.286089,-1.91596,1.1229388,-9.645907,-1.3659838
1409522945892,1.1935096,-10.21965,-1.6753427,1.1199734,-9.63955,-1.4124879
1409522945923,1.4802152,-10.268731,-1.3892355,1.1197721,-9.636899,-1.4306214
1409522945924,1.8525136,-10.17835,-1.1288661,1.1465935,-9.635447,-1.4191269
1409522945924,2.0500352,-10.176555,-0.9403227,1.2050074,-9.633087,-1.3863597
1409522945934,1.8285716,-10.220248,-0.86849666,1.2813419,-9.63015,-1.3374475
1409522945966,1.2904748,-10.227431,-0.9283517,1.331227,-9.629981,-1.2890701
1409522945967,0.9876082,-10.241198,-1.0295067,1.3313044,-9.635034,-1.2506595
1409522945968,0.973243,-10.302849,-1.0977415,1.3022946,-9.642713,-1.2216865
1409522945971,1.0139444,-10.414778,-1.1091139,1.2684251,-9.65029,-1.1972499
1409522945999,1.2384008,-10.451887,-1.0726024,1.2365528,-9.657168,-1.1749218
1409522946000,1.3736732,-10.456078,-1.0690111,1.2278619,-9.660625,-1.1554455
1409522946005,1.2569559,-10.461464,-1.0600328,1.2331679,-9.66186,-1.1393653
1409522946011,1.2898762,-10.289082,-1.0205284,1.2256767,-9.6642475,-1.127133
1409522946043,1.2892777,-9.563639,-0.9139865,1.224493,-9.66582,-1.1148715
1409522946044,1.0929531,-8.908825,-0.842759,1.2308117,-9.666763,-1.0996324
1409522946044,0.7846996,-8.765172,-0.9175778,1.2260131,-9.66916,-1.0838188
1409522946092,0.6841431,-8.925584,-1.01574,1.1958386,-9.673839,-1.0757301
1409522946093,0.51116204,-9.160215,-1.1414356,1.155271,-9.6790285,-1.0733908
1409522946094,0.5189432,-9.507974,-1.2641385,1.0954332,-9.684945,-1.0827087
1409522946096,0.55246204,-9.5732155,-1.2605472,1.0388682,-9.689576,-1.09694
1409522946097,0.51355624,-9.490616,-1.1881226,0.9880966,-9.693537,-1.1087918
1409522946145,0.49799395,-9.702502,-1.1121067,0.9399933,-9.697603,-1.1150316
1409522946147,0.45310268,-10.028712,-1.1049241,0.8940268,-9.702206,-1.1128099
1409522946151,0.33758244,-10.1939125,-1.0779893,0.8449422,-9.707216,-1.1074562
1409522946153,0.2681506,-10.160394,-1.0408791,0.78557026,-9.713219,-1.0984826
1409522946155,0.32142156,-10.310031,-1.0265139,0.72288615,-9.719356,-1.0871862
1409522946195,0.4770447,-10.6158905,-1.0977415,0.67363256,-9.724472,-1.0729724
1409522946196,0.7553706,-10.833763,-1.1061212,0.6390578,-9.727935,-1.0626719
1409522946199,0.9516952,-10.96664,-1.1216835,0.63605773,-9.729334,-1.0516169
1409522946201,1.1043255,-10.962451,-1.0684125,0.6558409,-9.728657,-1.0457067
1409522946202,1.2108675,-10.74398,-0.9816227,0.6911551,-9.726845,-1.0398113
1409522946236,1.1713632,-10.281899,-0.8391677,0.734654,-9.724475,-1.032126
1409522946237,1.0654198,-9.087193,-0.6171055,0.7720874,-9.723111,-1.0175457
1409522946238,1.1791444,-7.414244,-0.4357447,0.80237293,-9.723279,-0.99220955
1409522946239,1.2862848,-7.5429325,-0.5650316,0.8550138,-9.721779,-0.962479
1409522946246,1.2886791,-9.472659,-1.0432734,0.9123662,-9.718213,-0.94569504
1409522946268,1.2497733,-10.360908,-0.8146271,0.950219,-9.713223,-0.95956284
1409522946269,1.3084313,-10.227431,-0.6512229,0.9705691,-9.712856,-0.9427485
1409522946271,1.18094,-10.168773,-0.6440403,0.99048465,-9.713747,-0.91239953
1409522946297,1.0372878,-10.228029,-0.7517793,0.9973291,-9.715873,-0.88179743
1409522946298,0.9475053,-10.758944,-0.8774749,0.9952792,-9.717831,-0.8623054
1409522946305,1.0929531,-11.1073,-0.84335756,0.97969407,-9.720113,-0.8544062
1409522946311,1.2629414,-10.724228,-0.6063316,0.9814909,-9.721355,-0.8380407
1409522946341,1.2348095,-10.346542,-0.44771573,1.0032375,-9.721904,-0.8052964
1409522946342,1.1127052,-10.107122,-0.45010993,1.0214427,-9.723146,-0.7664958
1409522946343,1.0911574,-10.016143,-0.5482722,1.0283114,-9.724857,-0.7349305
1409522946368,1.0648212,-10.010756,-0.7200562,1.0348233,-9.72564,-0.7151316
1409522946369,1.0127473,-10.1621895,-0.92655605,1.0367686,-9.725751,-0.7108102
1409522946372,0.93972415,-10.353725,-1.0690111,1.0316601,-9.725375,-0.72329617
1409522946405,0.8762778,-10.299856,-1.043872,1.0180641,-9.724879,-0.7487895
1409522946405,0.7846996,-10.196306,-0.9720459,1.0011817,-9.725052,-0.7690268
1409522946406,0.6051345,-9.972448,-0.9020155,0.97782683,-9.726339,-0.7826608
1409522946412,0.46028528,-9.681553,-0.8870517,0.9430668,-9.729073,-0.7913
1409522946442,0.35254622,-9.518148,-0.90979666,0.9001509,-9.732465,-0.79954237
1409522946443,0.23463176,-9.800665,-0.97743285,0.8984771,-9.733446,-0.7893927
1409522946445,0.17238252,-10.262746,-1.0726024,0.8931205,-9.73473,-0.77961016
1409522946471,0.2789245,-10.710462,-1.0887632,0.88448715,-9.736127,-0.7719342
1409522946472,0.45549688,-10.933122,-0.9816227,0.8755019,-9.737357,-0.76665837
1409522946473,0.61530983,-10.742783,-0.79726917,0.8656278,-9.738392,-0.7647154
1409522946515,0.7224504,-10.432734,-0.5650316,0.8536945,-9.739293,-0.76668173
1409522946516,0.7589619,-10.223241,-0.41180268,0.8405115,-9.740063,-0.7714204
1409522946518,0.7823054,-10.161591,-0.40940848,0.8267919,-9.740734,-0.77776307
1409522946519,0.8295909,-10.121488,-0.4973954,0.8128812,-9.741389,-0.7841788
1409522946553,0.9959879,-9.992201,-0.59855044,0.799381,-9.742146,-0.78866035
1409522946554,1.2270284,-9.96347,-0.59615624,0.78930825,-9.742662,-0.7924089
1409522946554,1.4161704,-10.144233,-0.62488663,0.7813129,-9.74336,-0.7917571
1409522946555,1.4586674,-10.3932295,-0.6739678,0.7748051,-9.744025,-0.78998893
1409522946577,1.4413095,-10.220248,-0.6584055,0.76857615,-9.744467,-0.79061204
1409522946578,1.5765818,-9.931747,-0.6075287,0.76166856,-9.744805,-0.7931214
1409522946594,1.733402,-10.049662,-0.56982,0.7563614,-9.745055,-0.79513973
1409522946594,1.8507179,-10.214263,-0.5626374,0.75345635,-9.745384,-0.7938427
1409522946614,1.8626889,-10.305243,-0.6380547,0.7550369,-9.7455435,-0.79038703
1409522946615,1.7711107,-10.271125,-0.75477207,0.75894964,-9.745728,-0.78432846
1409522946623,1.6813282,-9.970653,-0.931943,0.765705,-9.745824,-0.7765157
1409522946646,1.6849195,-9.81503,-1.0654198,0.7722694,-9.746036,-0.7673463
1409522946646,1.7423803,-9.749189,-1.0390835,0.7768921,-9.74655,-0.7560487
1409522946651,1.762731,-9.510367,-0.9163807,0.7814535,-9.747275,-0.74186236
1409522946682,1.6424223,-9.383475,-0.9343372,0.78824854,-9.747965,-0.72541857
1409522946683,1.6274586,-9.313444,-1.062427,0.79539955,-9.748541,-0.70969725
1409522946684,1.7034745,-9.5732155,-1.1839328,0.8032617,-9.748889,-0.6959423
1409522946692,1.5747862,-10.331579,-1.4269443,0.8136714,-9.748975,-0.6825281
1409522946713,1.3036429,-10.606912,-1.5628152,0.8241861,-9.748848,-0.6716355
1409522946714,1.3563153,-10.533889,-1.5173253,0.8337892,-9.7485285,-0.66435647
1409522946725,1.3700819,-10.156203,-1.3066356,0.84405136,-9.748062,-0.6582424
1409522946754,1.4598645,-9.840169,-1.1192893,0.8512451,-9.747986,-0.65006435
1409522946755,1.5556326,-9.994595,-1.0929531,0.8586554,-9.747925,-0.641158
1409522946756,1.5346833,-10.383054,-1.1701661,0.8687901,-9.747512,-0.63374627
1409522946788,1.3814543,-10.563816,-1.3760674,0.87983847,-9.746901,-0.62787354
1409522946789,1.1677719,-10.250774,-1.4562732,0.89145815,-9.745969,-0.6259271
1409522946799,0.8762778,-9.904813,-1.435324,0.9021637,-9.745027,-0.62524027
1409522946800,0.46447513,-9.72824,-1.3329718,0.91134536,-9.7442255,-0.62441903
1409522946841,0.30406362,-9.90601,-1.3210008,0.91725254,-9.74376,-0.62305534
1409522946843,0.45070848,-10.772711,-1.1731589,0.91868985,-9.7437315,-0.6213819
1409522946844,0.19273324,-9.794081,-0.9247604,0.9160309,-9.744355,-0.6154665
1409522946846,-0.08559271,-9.583989,-0.86490536,0.91005737,-9.745468,-0.6066776
1409522946848,-0.42916065,-9.872491,-0.84455466,0.90268564,-9.746763,-0.5967969
1409522946871,-0.6560113,-9.951499,-0.7751228,0.89218265,-9.748266,-0.587984
1409522946872,-0.825401,-9.880272,-0.6697779,0.8792016,-9.749971,-0.5791624
1409522946872,-0.92655605,-10.177752,-0.6278794,0.8623846,-9.752003,-0.5702052
1409522946900,-0.9947908,-10.521319,-0.54887074,0.8395295,-9.754455,-0.5623393
1409522946901,-1.0295067,-10.530297,-0.41718966,0.81005293,-9.757321,-0.55580086
1409522946906,-1.0378864,-10.243592,-0.25258827,0.77573687,-9.760382,-0.5509838
1409522946932,-1.0169371,-9.943718,-0.021547815,0.7406582,-9.763371,-0.54626024
1409522946933,-0.6123171,-9.924564,0.12629414,0.70406246,-9.766278,-0.54270226
1409522946933,-0.10594343,-9.821614,0.107140526,0.67094696,-9.7687,-0.54105103
1409522946943,0.42916065,-10.566211,-0.13347675,0.64130676,-9.770571,-0.5432003
1409522946972,0.80086046,-11.279084,-0.41240123,0.61259675,-9.771987,-0.55082947
1409522946973,1.2042835,-11.162367,-0.5386954,0.58560795,-9.772753,-0.5663573
1409522946974,1.4742297,-10.8595,-0.56443304,0.5650518,-9.772527,-0.5906155
1409522947007,1.5765818,-10.386645,-0.5231331,0.55063134,-9.771688,-0.61749655
1409522947007,1.5795746,-9.729437,-0.56682724,0.53945553,-9.770202,-0.6500316
1409522947008,1.3838485,-9.138668,-0.6697779,0.5331284,-9.768148,-0.6851842
1409522947031,1.276708,-8.822633,-0.8026561,0.53033876,-9.76586,-0.7191034
1409522947032,1.186327,-8.940548,-0.9355343,0.5321768,-9.763608,-0.74774206
1409522947033,0.99658644,-8.900445,-1.0307038,0.5373285,-9.761697,-0.76872635
1409522947043,0.87089086,-8.642469,-1.0271125,0.5435624,-9.760377,-0.78102005
1409522947066,0.79726917,-8.772355,-1.0761937,0.550764,-9.759754,-0.78374857
1409522947066,0.76554596,-9.431957,-1.0929531,0.5566712,-9.7594595,-0.78323364
1409522947072,0.7428011,-9.791088,-0.9983821,0.5662401,-9.759651,-0.7739409
1409522947102,0.6787562,-10.181941,-0.8900445,0.57892215,-9.759919,-0.7610528
1409522947103,0.48722005,-10.253169,-0.7080852,0.5921926,-9.760008,-0.74963295
1409522947103,0.25558102,-10.37228,-0.60812724,0.60176295,-9.760031,-0.7416601
1409522947128,0.090979666,-10.377667,-0.5327099,0.60569155,-9.760106,-0.7375001
1409522947129,0.019752163,-10.519524,-0.50876784,0.60417527,-9.76036,-0.73535603
1409522947132,-0.04249708,-10.609306,-0.4830302,0.5982541,-9.760937,-0.7325345
1409522947181,0.0047884034,-10.409989,-0.47225627,0.58995354,-9.761832,-0.72732645
1409522947183,0.046686932,-10.754754,-0.5554548,0.57936907,-9.763043,-0.7195412
1409522947184,0.15502456,-11.1096945,-0.66139823,0.56425446,-9.764575,-0.71069854
1409522947185,0.45010993,-11.0378685,-0.6757634,0.54416883,-9.766287,-0.70279056
1409522947186,0.8762778,-11.3167925,-0.717662,0.5217846,-9.767855,-0.69795364
1409522947192,1.3880384,-11.243171,-0.75118077,0.49877167,-9.769068,-0.6978087
1409522947205,1.8980033,-10.848128,-0.7392098,0.47811377,-9.769706,-0.70333827
1409522947237,1.9656396,-10.642825,-0.8230068,0.463781,-9.769807,-0.71146196
1409522947238,1.8255788,-10.0508585,-0.84455466,0.4518936,-9.769195,-0.7273598
1409522947239,1.6950948,-9.537302,-0.83497787,0.44505438,-9.767824,-0.7496271
1409522947244,1.6645688,-9.387066,-0.9163807,0.44263124,-9.765997,-0.77446055
1409522947268,1.5460558,-9.275736,-0.9768343,0.44225773,-9.764083,-0.7984201
1409522947268,1.4975731,-9.545084,-1.0534488,0.44064623,-9.762551,-0.81782156
1409522947272,1.4269443,-10.1065235,-1.1498153,0.44026774,-9.761517,-0.83027655
1409522947301,1.395221,-10.354323,-1.1097125,0.4426447,-9.761055,-0.8344167
1409522947302,1.477821,-10.477027,-1.0085574,0.4451447,-9.760941,-0.8344331
1409522947304,1.412579,-10.4883995,-0.9044097,0.45209348,-9.761283,-0.82665193
1409522947333,1.2294226,-10.028712,-0.7380127,0.4594687,-9.761853,-0.8157909
1409522947333,1.0414777,-9.824607,-0.60932434,0.46549103,-9.762502,-0.8045301
1409522947334,0.6931214,-9.991602,-0.59376204,0.47041622,-9.763273,-0.79223174
1409522947344,0.30825347,-9.436746,-0.5374983,0.47366557,-9.764258,-0.7779963
1409522947368,-0.05267244,-8.5299425,-0.43993455,0.47514266,-9.7656,-0.7600544
1409522947368,-0.24779987,-8.230667,-0.45848963,0.4741776,-9.767228,-0.73948044
1409522947372,-0.46208093,-10.1621895,-0.86490536,0.47191375,-9.769341,-0.71250415
1409522947402,-0.54049104,-10.630256,-0.92057055,0.46482527,-9.771865,-0.6818828
1409522947403,-0.492607,-10.999561,-0.8726865,0.45863956,-9.774473,-0.64785546
1409522947404,-0.43993455,-11.028292,-0.7302315,0.4539707,-9.776871,-0.6140987
1409522947431,-0.3573346,-10.3226,-0.51595044,0.45011315,-9.778928,-0.58344114
1409522947432,-0.26755205,-10.425551,-0.4985925,0.44813308,-9.780466,-0.55861706
1409522947433,-0.26994625,-10.592546,-0.55964464,0.44544223,-9.781508,-0.5422878
1409522947461,-0.23343466,-10.434529,-0.6338649,0.4416849,-9.782327,-0.53048813
1409522947462,-0.23822308,-10.166379,-0.7553706,0.4353753,-9.782826,-0.5264707
1409522947464,-0.18734628,-10.266935,-0.86610246,0.42461863,-9.783249,-0.5273872
1409522947472,0.010773907,-10.412982,-0.8690952,0.40835577,-9.783811,-0.5297662
1409522947502,0.35553896,-9.621698,-0.6889315,0.38814476,-9.784571,-0.5309639
1409522947502,0.7505822,-10.178948,-0.7026982,0.36717182,-9.785478,-0.5291349
1409522947506,0.80445176,-11.2844715,-0.83018947,0.34825522,-9.786253,-0.52759767
1409522947533,0.82121116,-11.050438,-0.81642276,0.33022946,-9.786818,-0.528724
1409522947533,0.8319851,-10.202292,-0.6410475,0.3158616,-9.786926,-0.5354349
1409522947534,0.93134445,-9.5732155,-0.4381389,0.3039248,-9.786623,-0.54776776
1409522947568,1.0013748,-9.557653,-0.32920274,0.290662,-9.786117,-0.563793
1409522947568,1.0151415,-9.664195,-0.34117374,0.27403176,-9.785597,-0.58086514
1409522947569,1.0636241,-9.77792,-0.39624038,0.2566694,-9.785137,-0.5963199
1409522947573,1.0630256,-10.064027,-0.51355624,0.24096769,-9.784914,-0.6064666
1409522947598,1.0073603,-10.143036,-0.5919664,0.22594811,-9.785052,-0.60999304
1409522947600,1.009156,-10.039486,-0.6548142,0.21068507,-9.785329,-0.6110054
1409522947604,0.96426475,-10.096947,-0.65660983,0.19667934,-9.785842,-0.6074843
1409522947627,0.9175778,-10.033501,-0.61890113,0.18301469,-9.786555,-0.600221
1409522947627,0.9792285,-9.964667,-0.6003461,0.16892216,-9.787346,-0.5913906
1409522947632,0.9020155,-9.730036,-0.54767364,0.15425621,-9.78806,-0.5835376
1409522947662,0.9343372,-9.837775,-0.52612585,0.1374626,-9.788682,-0.5772341
1409522947662,1.0121487,-10.2178545,-0.5847838,0.12257833,-9.78916,-0.5724439
1409522947664,0.9792285,-10.1939125,-0.5386954,0.11208003,-9.789498,-0.56884384
1409522947673,0.82899237,-10.1143055,-0.5554548,0.10323855,-9.789755,-0.56605273
1409522947696,0.587178,-10.011953,-0.5943606,0.097428985,-9.789904,-0.56453127
1409522947697,0.40701428,-9.585785,-0.5781997,0.09297493,-9.789956,-0.56436056
1409522947704,0.21308395,-9.583391,-0.5542577,0.08961568,-9.789996,-0.5642314
1409522947727,0.039504327,-9.9790325,-0.5793968,0.08607757,-9.790079,-0.5633254
1409522947728,-0.05746084,-9.985018,-0.5267244,0.0814467,-9.79021,-0.5617419
1409522947733,-0.05267244,-10.072407,-0.4189853,0.07673837,-9.790422,-0.55869424
1409522947776,-0.0724246,-10.038289,-0.31423897,0.071892396,-9.790718,-0.55415016
1409522947777,-0.032920275,-9.725846,-0.27712885,0.06708821,-9.791142,-0.547185
1409522947778,0.054468088,-10.333375,-0.3597288,0.06424217,-9.791639,-0.5385721
1409522947778,0.17238252,-11.130045,-0.521936,0.0649322,-9.792097,-0.53011346
1409522947785,0.3549404,-11.022306,-0.6679823,0.0687576,-9.792333,-0.52523094
1409522947793,0.5177461,-10.515334,-0.76554596,0.07511837,-9.792222,-0.52642745
1409522947821,0.60214174,-10.248979,-0.8882488,0.08289748,-9.791744,-0.5340847
1409522947821,0.76554596,-10.34355,-1.055843,0.09253362,-9.790862,-0.5485136
1409522947825,0.9068039,-10.2735195,-1.0779893,0.105482526,-9.789678,-0.5669915
1409522947861,1.0708067,-9.921572,-1.0181342,0.12144436,-9.78808,-0.5908961
1409522947862,1.2120646,-9.844957,-0.98940384,0.13954145,-9.78607,-0.6194728
1409522947863,1.3617022,-10.222044,-0.98341835,0.15999153,-9.783634,-0.6521727
1409522947867,1.2850877,-10.485406,-0.94092125,0.18510348,-9.780809,-0.68695176
1409522947873,1.1617863,-9.570822,-0.7858967,0.2131009,-9.777727,-0.7217992
1409522947912,1.1767502,-8.60117,-0.7146692,0.24073564,-9.774561,-0.7552543
1409522947913,0.8511387,-9.103952,-0.9187749,0.2674819,-9.771295,-0.78782564
1409522947914,0.4878186,-10.283695,-1.240795,0.29091364,-9.768059,-0.8190052
1409522947914,0.2100912,-11.426927,-1.4089876,0.31294572,-9.764894,-0.848129
1409522947946,0.024540568,-11.361684,-1.2078748,0.33033174,-9.762071,-0.87363404
1409522947948,0.020949265,-10.308834,-0.2825158,0.33965486,-9.760025,-0.89271516
1409522947948,0.05746084,-10.209475,-0.017357962,0.34301293,-9.759422,-0.8979998
1409522947953,-0.12629414,-10.224439,0.107739076,0.34323505,-9.759686,-0.89505035
1409522947995,-0.25258827,-10.011354,0.090381116,0.34332418,-9.760471,-0.8863959
1409522947996,-0.40222588,-9.73662,-0.035913024,0.34335372,-9.761359,-0.8765701
1409522947997,-0.44711718,-9.583391,-0.130484,0.3433207,-9.76247,-0.86412036
1409522947998,-0.48123455,-9.945514,-0.3250129,0.34176937,-9.763883,-0.8486206
1409522948004,-0.46686932,-10.683527,-0.58418524,0.33784196,-9.765548,-0.83086747
1409522948036,-0.30585927,-11.058219,-0.7793127,0.33167174,-9.767335,-0.8121236
1409522948036,-0.047884032,-11.040262,-0.842759,0.32544953,-9.769076,-0.7934996
1409522948037,0.32621,-10.736199,-0.75357497,0.31818274,-9.770708,-0.776158
1409522948069,0.6631939,-10.506355,-0.700304,0.31293812,-9.772186,-0.75949675
1409522948070,0.89303726,-9.836577,-0.62967503,0.30663463,-9.773336,-0.74715286
1409522948070,0.97743285,-9.5809965,-0.641646,0.2992004,-9.77399,-0.741625
1409522948073,1.0324994,-10.1861315,-0.7721301,0.29032823,-9.7741995,-0.74236447
1409522948104,1.0929531,-9.726444,-0.7882909,0.2827154,-9.774064,-0.7470827
1409522948105,0.9498995,-10.325593,-0.89902276,0.2763646,-9.773757,-0.75345343
1409522948107,0.8870517,-10.051457,-0.84694886,0.26958412,-9.773469,-0.75962245
1409522948142,0.7368156,-10.065224,-0.7846996,0.26424745,-9.773302,-0.7636568
1409522948143,0.61411273,-10.034698,-0.7170634,0.2581424,-9.773311,-0.76560915
1409522948143,0.58298814,-10.020931,-0.65660983,0.25378245,-9.773727,-0.7617466
1409522948145,0.32202014,-10.070012,-0.635062,0.25403643,-9.774503,-0.7516548
1409522948157,0.025139118,-9.890448,-0.7146692,0.25641018,-9.775539,-0.7371873
1409522948183,-0.17118542,-9.72824,-0.6536171,0.2596943,-9.776573,-0.7222078
1409522948185,-0.45010993,-9.482835,-0.4973954,0.2634601,-9.777537,-0.70765376
1409522948186,-0.6584055,-9.663596,-0.29807812,0.2656316,-9.778557,-0.69258595
1409522948215,-0.7170634,-9.973047,-0.3321955,0.26688248,-9.779702,-0.675719
1409522948216,-0.6793547,-9.87668,-0.46866497,0.26794454,-9.780874,-0.65809566
1409522948216,-0.6356605,-9.82341,-0.5446809,0.26970017,-9.782043,-0.6397534
1409522948241,-0.54647654,-9.959879,-0.53211135,0.2708993,-9.783308,-0.61960024
1409522948242,-0.35314476,-10.506954,-0.65541273,0.2724746,-9.784452,-0.60053605
1409522948257,-0.2112883,-10.919954,-0.8888474,0.27409577,-9.78514,-0.58847034
1409522948257,-0.019752163,-10.754155,-1.1055226,0.27395108,-9.785338,-0.58521104
1409522948269,0.31064767,-10.255563,-1.1641805,0.2729986,-9.785065,-0.59024787
1409522948273,0.7517793,-10.171167,-1.0737995,0.27471536,-9.784485,-0.5989847
1409522948292,1.079785,-10.187328,-0.9983821,0.2768623,-9.783444,-0.6147908
1409522948293,1.3215994,-10.133459,-0.9911995,0.27980596,-9.781884,-0.63784605
1409522948305,1.1994951,-10.672154,-1.1282675,0.285401,-9.779744,-0.66749597
1409522948328,1.0354922,-10.220248,-1.1701661,0.2921689,-9.777074,-0.7027385
1409522948329,0.9487024,-9.287108,-1.0498575,0.29794922,-9.774174,-0.7397107
1409522948333,0.90979666,-9.576807,-0.9427169,0.2994003,-9.771624,-0.77207625
1409522948364,1.2695254,-10.287885,-0.7422025,0.29831016,-9.769734,-0.7960598
1409522948365,1.5388732,-10.4728365,-0.427365,0.29986703,-9.768165,-0.81450903
1409522948366,1.6711528,-10.463859,-0.1592144,0.30692223,-9.767152,-0.8239818
1409522948373,1.5933412,-10.452486,-0.10055647,0.31713617,-9.766351,-0.8295827
1409522948401,1.5717934,-10.38904,-0.29388827,0.32718292,-9.765535,-0.835273
1409522948402,1.4341269,-10.301053,-0.6135142,0.3364584,-9.764647,-0.8419524
1409522948407,1.3503298,-10.287885,-0.8702923,0.34496027,-9.763817,-0.84809566
1409522948427,1.2264298,-10.178948,-1.0055647,0.35508302,-9.763111,-0.8520564
1409522948428,1.1198878,-10.049063,-1.079785,0.36641952,-9.762432,-0.8550158
1409522948433,0.9828198,-9.923966,-1.0827777,0.37923226,-9.76183,-0.8563018
1409522948468,0.8643068,-9.896433,-0.9540894,0.39282122,-9.761319,-0.85600483
1409522948468,0.7589619,-10.1161,-0.78529817,0.40620735,-9.760958,-0.8538614
1409522948469,0.57640404,-10.097546,-0.57281274,0.41928166,-9.760776,-0.84961075
1409522948474,0.42916065,-10.07121,-0.47285482,0.43276218,-9.760899,-0.84141403
1409522948498,0.3800795,-10.180145,-0.4321534,0.4466063,-9.761395,-0.8283102
1409522948498,0.3238158,-10.38066,-0.38606504,0.4609075,-9.76229,-0.80973643
1409522948505,0.24779987,-10.205883,-0.3561375,0.47480306,-9.76336,-0.7885317
1409522948525,0.33039984,-9.989208,-0.5638345,0.48926938,-9.764578,-0.76422614
1409522948527,0.6865373,-10.1621895,-0.7032967,0.50329554,-9.765666,-0.74085635
1409522948533,0.8439561,-10.228029,-0.8146271,0.5177336,-9.766542,-0.71901745
1409522948555,0.78170687,-9.969456,-0.95708215,0.53060913,-9.767181,-0.7007073
1409522948556,0.7218518,-9.566033,-1.074398,0.541834,-9.767456,-0.68821377
1409522948584,0.8487445,-9.640852,-1.1857284,0.5530454,-9.76723,-0.68244743
1409522948585,0.90141696,-9.682152,-1.1474211,0.56540865,-9.766743,-0.6792992
1409522948587,0.79008657,-9.498995,-1.0630256,0.5744792,-9.7663,-0.67805827
1409522948618,0.801459,-9.23683,-0.9923966,0.5799337,-9.766051,-0.6770003
1409522948619,0.80205756,-9.636064,-1.1168951,0.58462214,-9.765757,-0.6772189
1409522948620,0.7206547,-9.798869,-1.1665748,0.5875871,-9.765383,-0.68005264
1409522948642,0.6027403,-9.6845455,-1.0702082,0.58666766,-9.765083,-0.68511283
1409522948643,0.46208093,-9.795278,-0.96546185,0.581326,-9.764795,-0.69369245
1409522948648,0.4225766,-10.189124,-0.8738836,0.5708669,-9.7644615,-0.70697516
1409522948653,0.4782418,-10.494385,-0.6919243,0.5580372,-9.764138,-0.7215467
1409522948671,0.6398504,-10.701483,-0.5081693,0.5423738,-9.763869,-0.7369272
1409522948673,0.94211835,-10.982801,-0.40821138,0.5249959,-9.763748,-0.7509885
1409522948685,1.2354081,-11.1893015,-0.39085343,0.50860363,-9.763606,-0.7640204
1409522948711,1.3688848,-11.053431,-0.3705027,0.49557403,-9.763196,-0.77768594
1409522948712,1.3611037,-10.693702,-0.41180268,0.4864321,-9.762427,-0.79296124
1409522948714,1.2599486,-10.414778,-0.52073884,0.48083094,-9.761217,-0.8110504
1409522948742,1.1994951,-10.201095,-0.6015432,0.4789739,-9.759728,-0.8298732
1409522948743,1.2198458,-10.057443,-0.6159084,0.47988254,-9.7582035,-0.8471055
1409522948745,1.0726024,-10.015544,-0.55006784,0.48581633,-9.756822,-0.8595517
1409522948754,1.210269,-10.305243,-0.59256494,0.49483988,-9.755768,-0.86631346
1409522948774,1.2575544,-10.50037,-0.6087258,0.5085378,-9.754753,-0.8698072
1409522948775,1.062427,-10.180744,-0.54408234,0.5239251,-9.753894,-0.8703157
1409522948785,0.9247604,-10.027515,-0.5686229,0.53942925,-9.7532835,-0.8676748
1409522948817,0.6985083,-9.76116,-0.60812724,0.55750704,-9.75271,-0.8626807
1409522948817,0.47105917,-9.624691,-0.6171055,0.5747899,-9.752229,-0.8567706
1409522948818,0.2184709,-9.464279,-0.60333884,0.5921958,-9.752022,-0.8472288
1409522948846,-0.01616086,-9.331401,-0.5883751,0.6095479,-9.75208,-0.83412504
1409522948848,-0.23642741,-9.246407,-0.6452374,0.62685853,-9.752323,-0.81831604
1409522948848,-0.46806642,-9.28232,-0.7332243,0.642491,-9.752735,-0.8011241
1409522948853,-0.79008657,-9.409213,-0.80804306,0.65441024,-9.753504,-0.78186995
1409522948869,-0.8379706,-9.368511,-0.86849666,0.65948856,-9.754831,-0.7607517
1409522948887,-0.7978677,-9.515156,-0.8571242,0.6575711,-9.756608,-0.73931265
1409522948887,-0.74998367,-9.8042555,-0.83617496,0.6513386,-9.758622,-0.71794665
1409522948903,-0.54408234,-9.759963,-0.7966706,0.63796973,-9.761055,-0.6965654
1409522948905,-0.45669398,-10.234015,-0.82240826,0.62010115,-9.76351,-0.67804426
1409522948915,-0.39624038,-10.91337,-0.87687635,0.5969795,-9.76601,-0.6626023
1409522948935,-0.019752163,-10.696694,-0.88286185,0.570323,-9.768354,-0.6514368
1409522948935,0.10055647,-10.802039,-0.8643068,0.5439175,-9.770257,-0.645463
1409522948957,0.17357962,-10.973225,-0.81283146,0.5153116,-9.771867,-0.6445517
1409522948958,0.35913026,-10.985794,-0.7428011,0.48737347,-9.773221,-0.64575934
1409522948965,0.60693014,-10.81461,-0.62847793,0.46174455,-9.774043,-0.65211487
1409522948994,0.8194155,-10.657789,-0.5021838,0.4366922,-9.77456,-0.6615742
1409522948995,1.0498575,-10.517728,-0.4321534,0.4120111,-9.774882,-0.6725509
1409522948996,1.1827357,-10.393828,-0.40821138,0.38925943,-9.774962,-0.6848323
1409522949030,1.2838906,-10.10413,-0.41240123,0.36756226,-9.774933,-0.6971084
1409522949031,1.2964603,-10.005369,-0.4770447,0.3484896,-9.774816,-0.7084674
1409522949031,1.3096284,-9.897031,-0.52612585,0.33267364,-9.774716,-0.7173884
1409522949034,1.3479356,-9.802461,-0.5506664,0.31891632,-9.774629,-0.72479606
1409522949059,1.400608,-9.862914,-0.55844754,0.30949822,-9.774616,-0.7290496
1409522949059,1.401805,-9.832388,-0.56443304,0.3044833,-9.774691,-0.7301333
1409522949068,1.3078327,-9.90601,-0.557849,0.30269846,-9.774823,-0.7291057
1409522949091,1.1270704,-9.880272,-0.58418524,0.3041051,-9.77493,-0.727092
1409522949091,0.76075757,-9.556456,-0.58538234,0.30832362,-9.775002,-0.7243559
1409522949094,0.7505822,-9.831789,-0.60932434,0.31286272,-9.775222,-0.7194068
1409522949106,0.7505822,-10.044873,-0.6476316,0.31900516,-9.775491,-0.71302205
1409522949122,0.7565677,-10.236409,-0.6817489,0.32814503,-9.775816,-0.7043711
1409522949141,0.7433996,-10.453085,-0.7182605,0.3379802,-9.776104,-0.69568396
1409522949142,0.7194576,-10.41777,-0.75477207,0.3475947,-9.776249,-0.68886083
1409522949146,0.7110779,-10.316615,-0.7685388,0.35579264,-9.776221,-0.68507135
1409522949154,0.63087213,-10.17416,-0.7410054,0.36263886,-9.7760105,-0.6844728
1409522949172,0.5351041,-10.167576,-0.7368156,0.36804363,-9.775699,-0.68606794
1409522949191,0.46686932,-10.216059,-0.7703344,0.37263593,-9.775331,-0.6888363
1409522949192,0.40162733,-10.120889,-0.7906851,0.37709963,-9.774934,-0.6919962
1409522949194,0.415394,-9.981427,-0.7685388,0.38118222,-9.774546,-0.69525546
1409522949206,0.5069722,-10.129269,-0.736217,0.38398063,-9.774235,-0.6980676
1409522949222,0.62728083,-10.281899,-0.6901286,0.38613284,-9.774003,-0.7001041
1409522949226,0.78290397,-10.134057,-0.6183026,0.38789195,-9.773835,-0.7014918
1409522949234,0.7787141,-10.213664,-0.6434417,0.38974282,-9.773615,-0.7035376
1409522949255,0.7302315,-10.1460285,-0.6967127,0.3902999,-9.773267,-0.708008
1409522949257,0.6380547,-10.083779,-0.7332243,0.38932258,-9.772866,-0.714059
1409522949273,0.6194997,-10.14124,-0.7266402,0.38750353,-9.772378,-0.7217133
1409522949274,0.6991069,-10.196306,-0.66259533,0.38539252,-9.771896,-0.7293191
1409522949286,0.7505822,-10.195708,-0.587178,0.38487086,-9.771471,-0.7352543
1409522949306,0.82779527,-10.15381,-0.5117606,0.38465282,-9.771183,-0.73920274
1409522949308,0.8846575,-10.160992,-0.5009867,0.38450348,-9.77098,-0.7419611
1409522949314,0.8798691,-10.139444,-0.50757074,0.38474342,-9.770751,-0.74484575
1409522949341,0.85473,-10.111911,-0.56682724,0.3856012,-9.770514,-0.7475199
1409522949341,0.79248077,-10.123283,-0.676362,0.38704702,-9.770263,-0.75002635
1409522949346,0.6931214,-10.151415,-0.80924016,0.3881345,-9.770118,-0.7513526
1409522949354,0.623091,-10.135254,-0.9139865,0.3888383,-9.770151,-0.7505653
1409522949375,0.60094464,-10.134057,-0.97264445,0.39051557,-9.770312,-0.74758947
1409522949376,0.58538234,-10.142437,-0.98461545,0.39402533,-9.770539,-0.7427765
1409522949386,0.5566519,-10.15381,-0.9959879,0.39977354,-9.770759,-0.73680156
1409522949413,0.5518635,-10.197504,-0.94690675,0.4066171,-9.770919,-0.7308797
1409522949421,0.5650316,-10.192117,-0.908001,0.42777184,-9.77102,-0.7173305
1409522949425,0.60214174,-10.10413,-0.90021986,0.42777184,-9.77102,-0.7173305
1409522949448,0.6075287,-10.037092,-0.9259575,0.42777184,-9.77102,-0.7173305
1409522949449,0.5907693,-10.010158,-1.0067618,0.435994,-9.770949,-0.7133213
1409522949449,0.5243302,-10.011354,-1.1007342,0.4456129,-9.770817,-0.70919573
1409522949454,0.47046062,-10.022727,-1.1893197,0.4557573,-9.770693,-0.7044611
1409522949475,0.45370123,-10.081984,-1.2539631,0.4664026,-9.770539,-0.6995938
1409522949476,0.47165772,-10.176555,-1.2419921,0.47738606,-9.770306,-0.6954554
1409522949490,0.47046062,-10.287885,-1.2060791,0.4883587,-9.770025,-0.6917489
1409522949507,0.5494693,-10.379463,-1.103727,0.49999565,-9.769577,-0.68975514
1409522949508,0.41060558,-10.172364,-0.91219085,0.5125056,-9.768906,-0.690062
1409522949514,0.35194764,-10.011953,-0.82001406,0.5234926,-9.768148,-0.69255733
1409522949540,0.57879823,-10.5680065,-0.8086416,0.5341402,-9.7671585,-0.6983476
1409522949540,0.57999533,-10.752958,-0.6769605,0.54587567,-9.765971,-0.70583826
1409522949548,0.6254852,-10.526108,-0.65660983,0.5574284,-9.764791,-0.7131185
1409522949555,0.53929394,-10.177752,-0.80684596,0.5697037,-9.76343,-0.72197807
1409522949580,0.5315128,-9.978435,-0.92655605,0.5809958,-9.762019,-0.7319822
1409522949581,0.5847838,-9.964069,-0.8900445,0.59071434,-9.760661,-0.7422475
1409522949586,0.5979519,-9.888652,-0.6889315,0.60111004,-9.759181,-0.75328445
1409522949613,0.58418524,-9.831191,-0.49440265,0.61117464,-9.757516,-0.7666478
1409522949614,0.5590461,-9.925163,-0.415394,0.62045366,-9.755744,-0.7816063
1409522949615,0.52612585,-10.035296,-0.36032736,0.62954324,-9.753984,-0.7961346
1409522949643,0.51834464,-10.05864,-0.31663316,0.63815355,-9.752409,-0.80850136
1409522949643,0.51595044,-10.000581,-0.260968,0.6458128,-9.750979,-0.8195698
1409522949646,0.45310268,-9.986216,-0.20231004,0.651193,-9.749934,-0.8277379
1409522949677,0.29628247,-10.032304,-0.1921347,0.654742,-9.7492695,-0.8327543
1409522949678,0.2717419,-10.074203,-0.18734628,0.6566002,-9.748888,-0.83574003
1409522949678,0.32022446,-10.086772,-0.24181437,0.6574051,-9.748776,-0.8363801
1409522949686,0.4285621,-10.08318,-0.38187516,0.6569614,-9.749055,-0.83348674
1409522949706,0.5638345,-10.09575,-0.5434838,0.65648913,-9.749633,-0.8271143
1409522949722,0.6913257,-10.113108,-0.7332243,0.65627927,-9.750436,-0.8177508
1409522949723,0.83018947,-10.104729,-0.8702923,0.656701,-9.751209,-0.8081401
1409522949728,0.961272,-10.092158,-0.931943,0.65589,-9.7520075,-0.79909813
1409522949734,1.0648212,-10.178948,-0.94211835,0.65469784,-9.752604,-0.79279053
1409522949753,1.1348516,-10.19092,-0.90620536,0.6532266,-9.752906,-0.7902555
1409522949770,1.1683705,-10.1544075,-0.87687635,0.6512401,-9.752899,-0.79199034
1409522949770,1.1988965,-10.0903635,-0.87089086,0.6491162,-9.752581,-0.79763275
1409522949790,1.1994951,-10.06283,-0.85293436,0.6478443,-9.752035,-0.8052923
1409522949791,1.2072762,-10.010158,-0.8882488,0.6476412,-9.751406,-0.81305766
1409522949795,1.1971009,-9.940127,-0.90979666,0.648297,-9.750689,-0.82108784
1409522949819,1.1498153,-9.834782,-0.9271546,0.65098935,-9.749887,-0.82843006
1409522949819,1.0809821,-9.843162,-0.9091981,0.655349,-9.749119,-0.8340409
1409522949832,1.0073603,-9.989806,-0.89902276,0.66120094,-9.748383,-0.83799106
1409522949835,0.9463082,-10.099341,-0.9103952,0.6677511,-9.747686,-0.84091073
1409522949850,0.86610246,-10.089765,-0.9223662,0.6753005,-9.746973,-0.8431401
1409522949866,0.82001406,-10.155605,-0.9103952,0.68396896,-9.746173,-0.8454086
1409522949866,0.76434886,-10.241198,-0.8523358,0.69240946,-9.745335,-0.8481799
1409522949882,0.6877344,-10.059837,-0.7146692,0.70055944,-9.7443695,-0.85257196
1409522949886,0.58777654,-10.037092,-0.61650693,0.7079478,-9.74324,-0.85935533
1409522949900,0.4985925,-9.973047,-0.46686932,0.71389294,-9.741941,-0.869097
1409522949915,0.45310268,-9.96766,-0.39324763,0.71895814,-9.740654,-0.87930036
1409522949916,0.41599256,-10.064626,-0.3681085,0.7236659,-9.739486,-0.88833416
1409522949933,0.40282443,-10.032304,-0.39564183,0.7273177,-9.738612,-0.8948907
1409522949935,0.49081135,-10.178948,-0.4357447,0.72973675,-9.73805,-0.89904964
1409522949949,0.6362591,-10.22384,-0.45010993,0.731943,-9.7376,-0.90209734
1409522949965,0.7930793,-10.209475,-0.4818331,0.73378164,-9.737315,-0.9036989
1409522949968,0.8343793,-10.115502,-0.5805939,0.7359952,-9.737006,-0.9052175
1409522949981,0.86131406,-9.934141,-0.62728083,0.7368372,-9.73665,-0.9083453
1409522949987,0.9139865,-9.932345,-0.6452374,0.7381097,-9.73621,-0.9120418
1409522950005,1.0001777,-10.017939,-0.6907272,0.7408441,-9.735837,-0.91380703
1409522950007,1.0851719,-10.074203,-0.75477207,0.74443746,-9.7356825,-0.91254157
1409522950015,1.1372458,-10.128072,-0.8511387,0.7486881,-9.735405,-0.9120003
1409522950035,1.2156559,-10.092757,-0.9091981,0.75398266,-9.735522,-0.90636957
1409522950036,1.2970588,-10.104729,-0.93254155,0.760093,-9.7358,-0.8982734
1409522950055,1.3700819,-10.119692,-0.9516952,0.76688105,-9.736108,-0.8891145
1409522950056,1.3569138,-9.980229,-0.96187055,0.7742016,-9.73631,-0.8805109
1409522950067,1.3257892,-10.044274,-1.0510546,0.78148824,-9.736399,-0.8730501
1409522950092,1.2946646,-10.168773,-1.1528081,0.78937376,-9.736352,-0.8664608
1409522950093,1.3395559,-10.264542,-1.2491747,0.79740244,-9.736248,-0.8602473
1409522950095,1.460463,-10.425551,-1.3389573,0.8058526,-9.736091,-0.85414374
1409522950124,1.6364368,-10.447698,-1.3485341,0.8141554,-9.735953,-0.8478052
1409522950124,1.7962499,-10.362703,-1.3263878,0.822263,-9.73577,-0.84205407
1409522950127,1.9416976,-10.204087,-1.2791022,0.830207,-9.735346,-0.8391753
1409522950136,2.0231004,-10.108918,-1.2324153,0.83812577,-9.734515,-0.84093297
1409522950169,2.0608091,-9.958083,-1.1976994,0.84611356,-9.73321,-0.84800977
1409522950171,2.0284874,-9.922171,-1.1773487,0.8561463,-9.731325,-0.8595026
1409522950173,2.0398598,-9.974843,-1.2036849,0.8677935,-9.729196,-0.87184536
1409522950203,2.0057425,-9.985018,-1.2455834,0.88160396,-9.726669,-0.8860592
1409522950204,1.9434932,-9.974244,-1.3275849,0.8967387,-9.724055,-0.8994512
1409522950205,1.9219455,-9.889849,-1.401805,0.91206634,-9.721616,-0.91035134
1409522950209,1.851915,-9.707291,-1.4251486,0.92644644,-9.71955,-0.9178461
1409522950215,1.5771804,-9.528923,-1.3204023,0.94012135,-9.717762,-0.9228666
1409522950249,1.1007342,-9.348161,-1.2791022,0.95329064,-9.7161045,-0.92678344
1409522950250,0.8882488,-9.38168,-1.1121067,0.96405107,-9.714582,-0.9316104
1409522950250,0.66259533,-9.514558,-0.99658644,0.97232443,-9.713301,-0.93636024
1409522950282,0.4818331,-9.603143,-0.9379285,0.97872347,-9.712238,-0.9406921
1409522950282,0.219668,-9.685743,-0.8912416,0.9850363,-9.711133,-0.9455039
1409522950283,-0.02932897,-9.816227,-0.86370826,0.99066937,-9.710113,-0.9501047
1409522950307,-0.23582886,-10.100538,-0.8331822,0.99452984,-9.709274,-0.95461255
1409522950307,-0.38726214,-10.41358,-0.75956047,0.9966075,-9.708476,-0.96055245
1409522950308,-0.57400984,-10.662578,-0.61052144,0.9962971,-9.707623,-0.9694652
1409522950315,-0.76434886,-10.875661,-0.4429273,0.99278414,-9.7069645,-0.9796055
1409522950333,-0.84575176,-11.018715,-0.27832595,0.98614895,-9.706186,-0.99392277
1409522950335,-0.83018947,-11.052234,-0.16639702,0.9765455,-9.705336,-1.011552
1409522950351,-0.7469909,-11.009736,-0.051475335,0.963921,-9.70465,-1.030055
1409522950370,-0.6368576,-11.01273,-0.030526072,0.94846684,-9.704405,-1.0465847
1409522950371,-0.260968,-10.840346,-0.092176765,0.9324755,-9.704509,-1.0598954
1409522950375,0.2825158,-10.639234,-0.19632454,0.9199083,-9.704521,-1.0707254
1409522950410,0.65182143,-10.527305,-0.40581718,0.9098633,-9.704592,-1.0786434
1409522950411,0.84096336,-10.454282,-0.61770403,0.9019185,-9.704561,-1.0855659
1409522950411,0.94092125,-10.386645,-0.80205756,0.89264417,-9.704973,-1.0895476
1409522950415,0.9911995,-10.248381,-0.89662856,0.8846146,-9.705601,-1.0904806
1409522950438,1.0618285,-9.966463,-0.8571242,0.8782354,-9.706433,-1.088229
1409522950439,1.0121487,-9.910798,-0.87208796,0.87267834,-9.707673,-1.081635
1409522950449,0.99778354,-9.749189,-0.8631097,0.8670643,-9.709283,-1.0716531
1409522950489,1.0821792,-9.664794,-0.7781156,0.8619418,-9.71107,-1.059505
1409522950490,1.1695676,-9.654618,-0.705691,0.85693073,-9.713156,-1.0443687
1409522950490,1.1713632,-9.6767645,-0.6865373,0.85146165,-9.715375,-1.0280559
1409522950491,1.2246342,-9.671976,-0.7092823,0.8461653,-9.717787,-1.0094682
1409522950496,1.258153,-9.716867,-0.7954735,0.841592,-9.720132,-0.99052495
1409522950521,1.283292,-9.7863,-0.8888474,0.8367685,-9.722402,-0.9721634
1409522950522,1.3748703,-9.862315,-0.98940384,0.8324647,-9.724488,-0.9548411
1409522950527,1.4395138,-10.005369,-1.0965444,0.8302356,-9.726146,-0.9397902
1409522950537,1.54845,-10.110714,-1.1791444,0.82948303,-9.727391,-0.9274895
1409522950557,1.6490064,-10.128671,-1.2419921,0.83100194,-9.72831,-0.91641927
1409522950558,1.62686,-10.199898,-1.3054385,0.834073,-9.728821,-0.90817404
1409522950587,1.5532384,-10.23222,-1.3108255,0.837875,-9.729,-0.902728
1409522950587,1.5460558,-10.177153,-1.3000516,0.8429788,-9.728795,-0.90017426
1409522950588,1.567005,-10.123283,-1.2916719,0.85063106,-9.728238,-0.89901805
1409522950596,1.5777789,-10.067019,-1.2629414,0.8602415,-9.7275,-0.8978613
1409522950623,1.5125369,-10.028113,-1.2174516,0.87158936,-9.726639,-0.8962141
1409522950624,1.4323312,-9.982624,-1.2120646,0.8849685,-9.725659,-0.89374506
1409522950629,1.3323733,-9.989208,-1.2378023,0.8982705,-9.72465,-0.8914666
1409522950671,1.2216414,-10.016742,-1.2162545,0.9124881,-9.723637,-0.8880694
1409522950672,1.1384429,-10.039486,-1.2006922,0.92622405,-9.722692,-0.88416475
1409522950673,1.0217255,-10.052654,-1.168969,0.93922704,-9.72179,-0.88037765
1409522950674,0.8798691,-10.06283,-1.122282,0.9499068,-9.721009,-0.8775071
1409522950676,0.75716627,-10.070611,-1.1168951,0.95758045,-9.720354,-0.8764415
1409522950722,0.6500258,-10.158598,-1.1091139,0.96186614,-9.719748,-0.8784797
1409522950724,0.6039374,-10.236409,-1.0660183,0.96385497,-9.719255,-0.8817215
1409522950725,0.6027403,-10.288484,-1.0019734,0.9622303,-9.718894,-0.88747257
1409522950726,0.6548142,-10.268731,-0.8858546,0.95746005,-9.718626,-0.8955296
1409522950728,0.700304,-10.225037,-0.7942764,0.95041126,-9.718394,-0.9054864
1409522950775,0.7685388,-10.158598,-0.7020996,0.9416484,-9.718146,-0.9172429
1409522950776,0.84216046,-10.035296,-0.6434417,0.93183196,-9.717947,-0.9292928
1409522950778,0.9139865,-9.986814,-0.64583594,0.92109984,-9.717939,-0.9400322
1409522950779,0.9804256,-9.964069,-0.6703765,0.9105901,-9.718145,-0.9480916
1409522950780,1.0833763,-9.982025,-0.74758947,0.9010373,-9.718412,-0.95445997
1409522950810,1.2330139,-10.052654,-0.87448215,0.8918609,-9.718874,-0.9583605
1409522950811,1.4748282,-10.075399,-0.87208796,0.8830863,-9.719481,-0.9603455
1409522950812,1.5179238,-10.02572,-0.81642276,0.8758584,-9.72009,-0.9608166
1409522950816,1.5442601,-9.952697,-0.78888947,0.8692653,-9.720597,-0.9616344
1409522950841,1.5376761,-9.926959,-0.7565677,0.8632626,-9.720961,-0.96336865
1409522950842,1.5275006,-9.898229,-0.7392098,0.85726565,-9.721376,-0.96453184
1409522950848,1.5610195,-9.844358,-0.7320272,0.8523656,-9.721763,-0.96499366
1409522950874,1.4718355,-10.036493,-0.8230068,0.84884506,-9.722281,-0.9628572
1409522950874,1.4790181,-10.045472,-0.9391256,0.8473136,-9.722995,-0.9569956
1409522950876,1.4856021,-9.987412,-0.99898064,0.8487723,-9.723777,-0.9477058
1409522950907,1.5005659,-9.995792,-1.0342951,0.8518112,-9.724772,-0.934678
1409522950908,1.3617022,-10.088568,-1.091756,0.85602003,-9.72593,-0.91864043
1409522950909,1.3772645,-10.116699,-1.2114661,0.8604846,-9.727116,-0.9017659
1409522950916,1.3742718,-10.059238,-1.2970588,0.86681765,-9.727956,-0.8865227
1409522950936,1.389834,-9.936536,-1.3557167,0.8740017,-9.7285795,-0.8724901
1409522950960,1.3509283,-9.877279,-1.3515269,0.8811472,-9.729052,-0.8599603
1409522950961,1.3221979,-9.824607,-1.3563153,0.88680446,-9.729519,-0.8487726
1409522950961,1.3281834,-9.81084,-1.3551182,0.89133334,-9.729851,-0.840214
1409522950970,1.3150153,-9.821015,-1.3557167,0.89598966,-9.72994,-0.834187
1409522950994,1.3299791,-9.856929,-1.3509283,0.9009517,-9.729864,-0.8297101
1409522950994,1.371279,-9.948506,-1.3425486,0.90509415,-9.729746,-0.8265999
1409522950996,1.395221,-9.993398,-1.3461399,0.9086998,-9.72948,-0.82577336
1409522951019,1.388637,-9.97185,-1.2922704,0.91252315,-9.729064,-0.8264444
1409522951019,1.3640964,-9.898229,-1.2108675,0.9165432,-9.728431,-0.82945293
1409522951027,1.3461399,-9.862914,-1.1456255,0.9200915,-9.727646,-0.8347101
1409522951057,1.3186066,-9.880871,-1.0821792,0.9236837,-9.726686,-0.8418933
1409522951057,1.2892777,-9.903615,-1.0253168,0.92743725,-9.725612,-0.85014737
1409522951058,1.2515689,-9.922769,-0.9696517,0.9312165,-9.724475,-0.8589748
1409522951067,1.1965023,-9.9473095,-0.93732995,0.9350106,-9.723297,-0.8681103
1409522951086,1.1402385,-9.970055,-0.88525605,0.93839115,-9.722166,-0.87711483
1409522951087,1.1282675,-9.944916,-0.86370826,0.94119686,-9.72113,-0.88554895
1409522951099,1.1288661,-9.986814,-0.8559271,0.94426125,-9.720088,-0.8936913
1409522951118,1.13964,-10.005369,-0.8714894,0.94816846,-9.718987,-0.9014941
1409522951119,1.1378443,-10.0508585,-0.89303726,0.9525524,-9.717831,-0.90929806
1409522951127,1.0929531,-10.128671,-0.9056068,0.9567475,-9.716619,-0.9178063
1409522951156,1.0259154,-10.174759,-0.88046765,0.9605709,-9.715312,-0.92760295
1409522951157,0.93613285,-10.231621,-0.8726865,0.964239,-9.713992,-0.93755734
1409522951157,0.8924387,-10.26095,-0.84335756,0.96747404,-9.712745,-0.9470827
1409522951204,0.86370826,-10.304645,-0.8194155,0.971184,-9.711566,-0.95535547
1409522951205,0.8912416,-10.355521,-0.76315176,0.9744883,-9.710498,-0.9628128
1409522951205,0.9648633,-10.336966,-0.7374141,0.9766706,-9.709626,-0.9693752
1409522951206,0.99060094,-10.320805,-0.6787562,0.977671,-9.708868,-0.97593176
1409522951208,1.0295067,-10.245388,-0.65421563,0.97709876,-9.708223,-0.98290044
1409522951216,1.01574,-10.195708,-0.6218939,0.9750518,-9.707594,-0.99111766
1409522951244,1.0133458,-10.133459,-0.5746084,0.97193164,-9.70708,-0.99916947
1409522951244,0.97264445,-10.152613,-0.54527944,0.9659356,-9.706859,-1.0071002
1409522951251,0.95468795,-10.185533,-0.53689975,0.95949036,-9.7067375,-1.0144074
1409522951261,0.9367314,-10.1544075,-0.50038815,0.9529174,-9.706674,-1.021189
1409522951278,0.9487024,-10.092158,-0.48602295,0.94589174,-9.706756,-1.0269278
1409522951279,0.97623575,-10.025121,-0.45669398,0.9393977,-9.706952,-1.0310323
1409522951303,1.0163386,-10.016143,-0.44651863,0.93376815,-9.7072935,-1.0329274
1409522951303,1.049259,-10.02153,-0.45669398,0.92938775,-9.707703,-1.0330267
1409522951307,1.0893618,-10.008362,-0.5093664,0.9256141,-9.708139,-1.0323025
1409522951316,1.1127052,-10.001778,-0.56323594,0.9230238,-9.708702,-1.0293372
1409522951332,1.1318588,-9.995792,-0.65660983,0.9219842,-9.709472,-1.0229876
1409522951352,1.1522095,-9.985617,-0.7224504,0.92237264,-9.710415,-1.0136387
1409522951352,1.1665748,-10.020332,-0.7703344,0.92399675,-9.711523,-1.0014666
1409522951370,1.1546037,-10.033501,-0.8319851,0.9270614,-9.712678,-0.9873288
1409522951370,1.0737995,-10.109517,-0.9528923,0.93212014,-9.713691,-0.9724989
1409522951376,1.0348936,-10.093954,-1.0055647,0.93752724,-9.714621,-0.9578952
1409522951402,1.0360907,-10.067618,-1.0570401,0.9426748,-9.715511,-0.94371176
1409522951403,1.0372878,-10.058042,-1.1055226,0.9483821,-9.716282,-0.92996615
1409522951409,1.0935516,-10.071808,-1.1540052,0.95447075,-9.716898,-0.9172084
1409522951416,1.1330559,-10.059238,-1.1719618,0.960845,-9.717332,-0.90590197
1409522951431,1.1677719,-10.042479,-1.2186487,0.9664497,-9.717604,-0.89696056
1409522951454,1.2443863,-10.039486,-1.292869,0.9719971,-9.717547,-0.8915584
1409522951455,1.2880806,-10.008362,-1.3192052,0.9794667,-9.716964,-0.8897516
1409522951456,1.3389573,-9.982025,-1.328782,0.9877149,-9.716172,-0.8892694
1409522951496,1.3012487,-9.977836,-1.3311762,0.9951006,-9.715192,-0.8917542
1409522951497,1.2641385,-9.975441,-1.2982559,1.0007097,-9.714147,-0.8968431
1409522951498,1.2132617,-9.978435,-1.1785458,1.0049057,-9.713047,-0.9040449
1409522951501,1.1707647,-10.000581,-1.079785,1.0081997,-9.711946,-0.9121552
1409522951514,1.1438298,-10.02572,-0.96785605,1.0112872,-9.710761,-0.9213234
1409522951529,1.09834,-10.038888,-0.86849666,1.0141276,-9.709462,-0.93182725
1409522951530,1.0588357,-10.073005,-0.7727286,1.0155858,-9.708248,-0.94281393
1409522951551,1.0013748,-10.099341,-0.7236475,1.0160406,-9.707133,-0.9537381
1409522951552,0.96306765,-10.131663,-0.6997054,1.0158958,-9.706005,-0.9653198
1409522951566,0.943914,-10.161591,-0.6596026,1.015309,-9.704864,-0.97731185
1409522951568,0.97384155,-10.196905,-0.6362591,1.0143702,-9.703796,-0.98883337
1409522951576,1.0324994,-10.185533,-0.6171055,1.0134397,-9.702749,-1.0000076
1409522951602,1.0630256,-10.1304655,-0.5710171,1.0126486,-9.701732,-1.0106074
1409522951603,1.0929531,-10.077195,-0.5351041,1.0114757,-9.700805,-1.0206419
1409522951608,1.115698,-10.017939,-0.50876784,1.0102754,-9.6999035,-1.0303531
1409522951634,1.1061212,-9.951499,-0.5057751,1.0090505,-9.699047,-1.039564
1409522951635,1.0887632,-9.843162,-0.50637364,1.0075802,-9.6983385,-1.0475866
1409522951636,1.0408791,-9.779117,-0.56203884,1.0060949,-9.697732,-1.0545845
1409522951664,1.0169371,-9.749189,-0.55725044,1.0046055,-9.697225,-1.0606518
1409522951664,1.0169371,-9.835381,-0.5482722,1.002953,-9.696878,-1.065383
1409522951683,0.9935937,-9.991602,-0.5267244,1.0006094,-9.696703,-1.069173
1409522951684,0.91578215,-10.159795,-0.45908818,0.9965543,-9.696708,-1.0729016
1409522951700,0.7697359,-10.156203,-0.32561144,0.99055654,-9.696953,-1.0762364
1409522951701,0.5835867,-10.06283,-0.19393034,0.9814222,-9.697581,-1.0789467
1409522951710,0.41060558,-9.950302,-0.05267244,0.96909666,-9.698729,-1.0797826
1409522951732,0.25438392,-9.841965,0.091578215,0.9530358,-9.700659,-1.076725
1409522951733,0.19393034,-9.745598,0.23283611,0.9335244,-9.703565,-1.0676099
1409522951736,0.14664486,-9.689334,0.23283611,0.9106211,-9.707586,-1.0506892
1409522951748,0.05566519,-9.768942,0.10354923,0.8839178,-9.712608,-1.0267911
1409522951763,-0.08259996,-9.879673,-0.089184016,0.8555124,-9.7179365,-1.0001105
1409522951778,-0.25677812,-9.89344,-0.15682021,0.8220868,-9.723788,-0.97082597
1409522951779,-0.36272156,-9.731233,-0.04070143,0.78341013,-9.729913,-0.94099724
1409522951798,-0.42796355,-9.395446,0.20470424,0.7394208,-9.735964,-0.9136171
1409522951798,-0.45908818,-9.141661,0.5291186,0.6891098,-9.741676,-0.8917957
1409522951812,-0.492607,-9.093178,0.717662,0.6327791,-9.746773,-0.87774557
1409522951828,-0.17776948,-8.960898,0.641646,0.57259035,-9.750898,-0.87322897
1409522951830,0.46507367,-9.006389,0.24121583,0.5123586,-9.754055,-0.87536716
1409522951847,1.0887632,-9.217676,-0.3561375,0.4559113,-9.756541,-0.87890756
1409522951848,1.5574282,-9.272144,-0.8888474,0.40113398,-9.759205,-0.87601364
1409522951862,1.7615339,-9.568427,-1.3467385,0.3523992,-9.761996,-0.86580205
1409522951880,1.8010383,-9.983821,-1.714847,0.31231618,-9.76428,-0.8553829
1409522951880,1.8207904,-10.272921,-1.9123687,0.2805296,-9.765727,-0.8498943
1409522951896,1.7830818,-10.521918,-2.0033484,0.25657472,-9.766416,-0.84952074
1409522951896,1.7836803,-10.852318,-1.9620483,0.23945378,-9.766465,-0.85394967
1409522951909,1.745373,-11.052833,-1.845331,0.22833355,-9.766109,-0.86102825
1409522951927,1.6915035,-11.156382,-1.6424223,0.21763445,-9.765245,-0.8735148
1409522951928,1.5891514,-11.152191,-1.4065934,0.21229193,-9.763665,-0.89230716
1409522951944,1.5622166,-11.113286,-1.0971429,0.20935588,-9.761264,-0.9188661
1409522951959,1.5472529,-10.869676,-1.0133458,0.2089049,-9.758045,-0.95251936
1409522951960,1.5490485,-10.626664,-0.88645315,0.21057752,-9.753865,-0.9940777
1409522951976,1.6077064,-10.31063,-0.676362,0.21455285,-9.748927,-1.0405805
1409522951976,1.6711528,-10.0029745,-0.52852005,0.2205404,-9.743364,-1.0902414
1409522951992,1.7908629,-9.854534,-0.41240123,0.22787412,-9.7374525,-1.1403981
1409522951996,1.8237832,-9.625289,-0.3172317,0.23731735,-9.730987,-1.1924655
1409522952022,1.8273745,-9.320028,-0.25617957,0.24809945,-9.724166,-1.2447686
1409522952023,1.7567455,-9.35235,-0.30346507,0.2617688,-9.717259,-1.2948914
1409522952028,1.4885949,-9.591172,-0.50158525,0.28082478,-9.710721,-1.3392034
1409522952052,1.0127473,-9.788095,-0.7104794,0.3060282,-9.704936,-1.3751205
1409522952052,0.50996494,-9.905411,-0.8738836,0.33875412,-9.700308,-1.3998727
1409522952057,-0.047884032,-10.004171,-0.93493575,0.37963033,-9.697156,-1.4111814
1409522952078,-0.5614403,-10.1161,-1.0307038,0.42095074,-9.694982,-1.4144092
1409522952078,-0.9911995,-10.404003,-1.1522095,0.46611997,-9.694968,-1.4002649
1409522952099,-1.395221,-10.930129,-1.42455,0.5125205,-9.69729,-1.3675826
1409522952100,-1.8291701,-11.414356,-1.6196774,0.5562319,-9.701854,-1.3172172
1409522952151,-1.9560628,-11.412561,-1.7220296,0.5928493,-9.708383,-1.2514836
1409522952151,-2.1332338,-11.335348,-1.9937714,0.6233488,-9.715937,-1.1757412
1409522952152,-2.633622,-11.22282,-2.0961237,0.64400667,-9.723493,-1.0997101
1409522952152,-3.1477766,-11.058219,-2.582745,0.6552686,-9.730747,-1.0264491
1409522952153,-3.899556,-11.311406,-3.4081461,0.6574977,-9.736953,-0.9642893
1409522952157,-4.5675383,-11.823765,-4.590882,0.6439049,-9.741788,-0.9237737
1409522952182,-3.0897174,-10.947487,-2.9269116,0.6063643,-9.744629,-0.9191841
1409522952182,-2.190096,-9.953894,-1.7393875,0.57080144,-9.745352,-0.9341823
1409522952196,-2.1110873,-9.703101,-1.6717514,0.52441347,-9.742476,-0.9897148
1409522952197,-1.3892355,-9.272144,-1.2030864,0.4757073,-9.73588,-1.0754969
1409522952215,-0.38187516,-8.770559,-0.7811083,0.44289574,-9.727934,-1.1582518
1409522952217,0.38606504,-8.678981,-0.53211135,0.41765347,-9.719422,-1.2364409
1409522952228,0.8122329,-8.919,-0.2801216,0.38701457,-9.710268,-1.3157985
1409522952245,1.0582372,-9.257779,-0.01316811,0.34751844,-9.699421,-1.4038761
1409522952266,1.3413515,-9.514558,0.11791443,0.30732906,-9.685686,-1.50447
1409522952267,1.827973,-9.69113,0.11252748,0.27466887,-9.668468,-1.6173031
1409522952268,2.2152352,-9.634268,-0.12330139,0.25505117,-9.648267,-1.7367396
1409522952277,2.2068555,-9.63726,-0.39444473,0.2496724,-9.62528,-1.8606501
1409522952302,2.0649989,-9.557653,-0.6943185,0.25866556,-9.60026,-1.98456
1409522952303,1.9674352,-9.200318,-1.3575124,0.27694035,-9.573175,-2.1090362
1409522952310,1.6190789,-8.892065,-2.0500352,0.31049013,-9.544144,-2.2323313
1409522952338,1.6555905,-8.663419,-2.327164,0.3579881,-9.513891,-2.3511968
1409522952338,1.881244,-8.850765,-2.2768857,0.42291358,-9.483361,-2.461181
1409522952339,1.8058267,-9.4457245,-1.9428947,0.49791184,-9.4536705,-2.5594122
1409522952370,1.4646529,-9.970653,-1.4047978,0.57038,-9.427748,-2.6386745
1409522952371,0.99179804,-10.281899,-0.931943,0.6338705,-9.4082,-2.6934009
1409522952372,0.60214174,-10.675147,-0.60932434,0.6783675,-9.393037,-2.7351522
1409522952377,0.43873745,-11.193492,-0.46567222,0.7246946,-9.385725,-2.748339
1409522952404,0.43873745,-11.724405,-0.599149,0.76747024,-9.385745,-2.7366357
1409522952405,0.5518635,-12.0170965,-0.7679402,0.81067634,-9.390687,-2.7070634
1409522952408,0.78170687,-11.972804,-0.789488,0.8541227,-9.397673,-2.6691911
1409522952429,0.8086416,-11.874641,-0.9307459,0.89898705,-9.404145,-2.6314006
1409522952430,0.5686229,-11.629236,-1.3072342,0.9464511,-9.407849,-2.6013463
1409522952446,0.15143326,-11.462839,-1.7908629,0.99812055,-9.408341,-2.5801673
1409522952467,-0.8774749,-11.600506,-2.633622,1.0554098,-9.403711,-2.5742373
1409522952468,-2.1242554,-12.176909,-2.5785553,1.10515,-9.394189,-2.5880988
1409522952469,-3.7642837,-12.169128,-3.0340521,1.1440088,-9.382857,-2.6122055
1409522952477,-5.1666875,-12.58572,-1.5999253,1.1596149,-9.367726,-2.6592124
1409522952507,-5.8424506,-13.463793,-0.06584055,1.1469167,-9.356336,-2.7044413
1409522952508,-6.002862,-13.239936,0.97623575,1.1072567,-9.351829,-2.7363603
1409522952509,-5.789778,-13.217191,1.821389,1.0557506,-9.347845,-2.7701283
1409522952542,-5.3043537,-12.873623,0.635062,1.0185297,-9.343425,-2.7988188
1409522952542,-4.5382094,-11.919533,0.25139117,0.9977222,-9.329021,-2.8538246
1409522952543,-4.5459905,-11.493365,2.4570496,1.014803,-9.307865,-2.9161932
1409522952573,-5.2115784,-12.513295,8.257003,1.0454581,-9.292132,-2.955279
1409522952574,-5.1385555,-13.29979,8.276156,1.0572495,-9.307555,-2.9020765
1409522952574,-3.9995139,-13.034034,4.1611223,1.0544851,-9.332645,-2.821375
1409522952577,-3.8313212,-12.932879,4.549582,1.0396101,-9.357101,-2.7448645
1409522952608,-3.3446999,-12.41633,6.6469026,0.98716164,-9.41202,-2.5709589
1409522952608,-2.207454,-12.842498,4.3622355,0.91257983,-9.478754,-2.343254
1409522952611,-1.2910733,-13.073539,-0.25617957,0.83004653,-9.539737,-2.1153796
1409522952641,-1.1055226,-13.5930805,-3.3740287,0.7297253,-9.591504,-1.9081326
1409522952641,-1.0055647,-13.363835,-4.3568487,0.6091665,-9.643438,-1.6743413
1409522952642,-0.8439561,-12.020688,-5.395932,0.4718781,-9.691643,-1.4211785
1409522952676,-0.5506664,-12.451046,-4.747103,0.3207856,-9.728872,-1.1901971
1409522952677,0.17717093,-13.622409,-3.857059,0.15569296,-9.756402,-0.9791654
1409522952678,1.5849615,-15.272014,-3.3267434,-0.009044307,-9.775974,-0.77500767
1409522952679,4.7387238,-17.23526,-2.9526494,-0.16634762,-9.7875805,-0.58821607
1409522952706,9.570223,-19.202097,-2.332551,-0.2926894,-9.793933,-0.40447396
1409522952707,12.892178,-18.801067,-0.7649474,-0.34824002,-9.798323,-0.20492227
1409522952709,9.816826,-16.303915,0.86610246,-0.56136346,-9.790523,0.030595046
1409522952741,5.1487308,-15.391126,0.17118542,1.261014,-9.718419,-0.36409286
1409522952742,2.172738,-14.966753,-2.6539726,1.5383711,-9.680845,-0.29157004
1409522952742,1.3856442,-13.180679,-4.879383,1.5660286,-9.671804,-0.41730598
1409522952773,0.83856916,-11.548432,-5.0062757,1.5129131,-9.66588,-0.67248833
1409522952774,0.013766659,-11.052833,-4.68246,1.3959583,-9.659862,-0.95330554
1409522952774,0.6464345,-10.667366,-3.0609868,1.2439914,-9.652635,-1.2039602
1409522952777,0.93014735,-10.047267,-3.1944637,1.1643013,-9.645186,-1.3360984
1409522952805,0.99299514,-8.885481,-2.4343045,1.1270974,-9.630747,-1.4658687
1409522952806,0.7308301,-7.442376,-2.8269536,1.1217449,-9.621437,-1.5297132
1409522952809,0.99658644,-6.5966244,-3.6493618,1.1136245,-9.604545,-1.6379782
1409522952827,0.670975,-6.736685,-6.197391,1.1303211,-9.569378,-1.8220266
1409522952829,1.0079589,-6.4110737,-6.105813,1.1173682,-9.491785,-2.1972477
1409522952845,1.3132197,-5.674258,-4.0426097,1.147951,-9.399224,-2.5509098
1409522952867,1.4993688,-5.153519,-2.0093338,1.1881492,-9.332204,-2.7692373
1409522952868,1.2084733,-4.736928,-2.4558525,1.2278807,-9.304161,-2.8452282
1409522952869,1.2802993,-4.4304705,-2.0201077,1.2439152,-9.261639,-2.974082
1409522952877,1.6280571,-3.9588125,-1.7322049,1.2940845,-9.231184,-3.0464697
1409522952898,2.6013002,-3.2064347,-1.8549078,1.4025964,-9.200052,-3.0922816
1409522952899,4.0497923,-2.3894134,-2.0009542,1.6320434,-9.135792,-3.1692479
1409522952911,5.192425,-1.939902,-2.1015105,2.0590844,-9.007607,-3.285358
1409522952940,5.708974,-1.8100165,-2.6509798,2.6469688,-8.806372,-3.4076066
1409522952940,5.8639984,-1.7058687,-3.2489316,3.2912016,-8.51862,-3.573723
1409522952941,5.896919,-1.5496471,-3.4865563,3.9181483,-8.152517,-3.788799
1409522952972,5.5629277,-1.513734,-3.6008794,4.5016418,-7.734921,-4.009568
1409522952973,5.1690817,-1.721431,-3.6739025,4.980827,-7.309195,-4.2352586
1409522952974,4.654328,-2.3385365,-3.4584243,5.3380585,-6.9194617,-4.449334
1409522952978,4.0144777,-3.5452142,-3.1250317,5.557389,-6.6295347,-4.618997
1409522953005,2.8766334,-5.8598084,-0.39923313,5.643178,-6.5034533,-4.6936183
1409522953006,-1.6795325,-11.480197,14.384364,5.57212,-6.7753496,-4.383665
1409522953009,-13.189058,-19.378668,19.608511,5.009338,-8.217886,-1.8823599
1409522953038,-19.406801,-19.608511,19.55165,5.063384,-8.1201,-2.1439385
1409522953039,-19.60911,-19.608511,14.260464,5.067394,-8.072489,-2.3079982
1409522953039,-13.390172,-18.508377,6.160281,5.0181074,-8.073975,-2.4083056
1409522953086,-3.9743748,-12.269087,1.447295,4.9715004,-8.07951,-2.4851801
1409522953088,-7.020398,-12.164939,3.5877113,-3.1202588,-8.68343,3.321509
1409522953089,-3.0921116,-8.236053,2.9400797,-3.3873181,-8.652254,3.1360762
1409522953090,1.6346412,-5.8705826,0.27114335,-3.4181523,-8.649606,3.1098125
1409522953092,3.9839516,-6.9725137,-1.6400281,-3.1332612,-8.762391,3.094121
1409522953130,6.1040173,-13.088502,-3.6056678,-2.5643163,-9.009371,2.902741
1409522953131,6.5601125,-15.67005,-4.68665,-1.699161,-9.379614,2.3034961
1409522953131,5.2594624,-13.047801,-3.7726634,-0.8656226,-9.642322,1.5641963
1409522953158,3.1184478,-10.916363,-1.5652094,-0.2920052,-9.747787,1.0323528
1409522953159,2.043451,-9.890448,0.14305355,0.032594696,-9.775462,0.78080374
1409522953159,3.590704,-10.185533,-0.85293436,0.22625484,-9.777424,0.72194475
1409522953159,4.584896,-11.66874,-1.4885949,0.54449326,-9.775566,0.5587737
1409522953177,4.461595,-11.329363,-1.4149733,0.8982566,-9.759104,0.35129356
1409522953179,5.282806,-9.465476,-1.6376339,1.1978563,-9.7314,0.18814474
1409522953196,6.077681,-8.692149,-2.5342624,1.5720692,-9.679824,0.0044365213
1409522953213,6.1477113,-8.762179,-3.6290112,1.9943148,-9.598959,-0.23037645
1409522953213,5.433641,-9.856929,-4.3077674,2.3859088,-9.49654,-0.54180795
1409522953229,4.5783124,-11.2312,-4.748899,2.673058,-9.395803,-0.86257607
1409522953230,3.888782,-11.510723,-4.390966,2.838509,-9.310906,-1.1917624
1409522953238,3.544017,-10.691308,-3.4859576,2.911568,-9.249373,-1.4636463
1409522953265,3.7954082,-9.506178,-2.4911668,2.9424238,-9.209147,-1.6444354
1409522953265,3.9600096,-8.671799,-1.7794905,2.9963446,-9.174185,-1.7397342
1409522953272,3.807978,-8.391677,-1.3880384,3.0715597,-9.1423,-1.7760319
1409522953304,3.7056258,-8.900445,-1.2976574,3.1457589,-9.116107,-1.7807776
1409522953304,3.1854854,-10.296265,-1.5634137,3.2093933,-9.100598,-1.746224
1409522953305,2.2176294,-12.108076,-2.1188686,3.1919613,-9.110954,-1.7240292
1409522953310,1.1300632,-13.412916,-2.2613235,3.0530229,-9.15845,-1.7240163
1409522953327,0.16460137,-13.4422455,-1.9494787,2.8109708,-9.236529,-1.7191175
1409522953343,-0.2789245,-12.225991,-1.5676036,2.507945,-9.328426,-1.6914696
1409522953343,-0.50038815,-10.703279,-1.0085574,2.2073867,-9.410767,-1.653872
1409522953359,-0.9768343,-9.528923,-0.4854244,1.9327228,-9.481841,-1.5905063
1409522953359,-0.9959879,-8.74542,-0.27832595,1.6766701,-9.545592,-1.4969395
1409522953375,-0.7835025,-8.258201,-0.15562311,1.4360027,-9.599896,-1.3965145
1409522953390,-0.8319851,-8.588001,-0.44651863,1.2403679,-9.641263,-1.295349
1409522953392,-1.0923545,-9.062652,-0.3537433,1.0526352,-9.672843,-1.2241093
1409522953434,-1.1294646,-9.173384,-0.013766659,0.8600038,-9.701687,-1.143717
1409522953435,-1.3748703,-9.036914,0.4938041,0.6867454,-9.727297,-1.0384891
1409522953436,-2.3289597,-8.700529,0.93493575,0.50684536,-9.751863,-0.9026064
1409522953439,-5.099051,-8.850166,-0.024540568,0.24406536,-9.776155,-0.7332091
1409522953440,-6.6684504,-9.418191,-0.64823014,-0.28023323,-9.779103,-0.6789549
1409522953462,-4.7141833,-9.264363,-0.15263036,-0.92633045,-9.737846,-0.6976082
1409522953462,-2.5785553,-9.03452,-0.3429694,-1.347223,-9.687694,-0.70991415
1409522953470,-1.7663223,-9.366715,-1.4700398,-1.5319997,-9.654986,-0.7775708
1409522953492,-1.6998832,-9.7719345,-2.9173348,-1.5737433,-9.633941,-0.9385598
1409522953492,-1.7250223,-9.813833,-3.043629,-1.5501547,-9.609489,-1.1937872
1409522953516,-2.058415,-9.584588,-2.309806,-1.5168968,-9.58511,-1.4124714
1409522953517,-2.2212207,-9.554661,-1.4281414,-1.5483667,-9.563037,-1.5235821
1409522953518,-1.9081788,-9.744401,-0.94570965,-1.584659,-9.556189,-1.5292169
1409522953546,-1.7842789,-10.436325,-0.89603,-1.6053829,-9.563632,-1.4594723
1409522953548,-1.9488802,-11.265916,-0.87807345,-1.6119629,-9.574749,-1.3770027
1409522953551,-2.066196,-12.081141,-0.8858546,-1.6199057,-9.584779,-1.295494
1409522953558,-2.0925324,-12.888586,-1.0139444,-1.6224364,-9.593599,-1.2251316
1409522953576,-2.1655555,-13.52724,0.4770447,-1.6153646,-9.600778,-1.1773131
1409522953592,-1.882441,-13.297397,1.1336545,-1.6094471,-9.621211,-1.0061638
1409522953593,-1.6795325,-13.78701,2.107496,-1.5856227,-9.639372,-0.85947984
1409522953612,0.33758244,-13.217789,11.821371,-1.5482928,-9.654426,-0.7518045
1409522953612,1.6831238,-11.725004,19.446903,-1.3667533,-9.709797,0.14915654
1409522953618,-1.2114661,-12.155362,6.033388,-1.3526118,-9.70662,-0.3498229
1409522953643,-3.0609868,-12.784438,-3.9851487,-1.0436647,-9.495371,2.2179012
1409522953645,-6.1064115,-14.050971,-5.366603,-1.1229305,-9.540073,1.9739273
1409522953669,-5.804742,-14.052168,-4.1317935,-1.4326842,-9.592935,1.4468659
1409522953670,-5.5587378,-14.056956,-3.9211037,-1.69839,-9.60847,0.9813965
1409522953670,-5.4138885,-12.565369,0.26276365,-1.9366199,-9.601797,0.4747019
1409522953702,-5.3923407,-12.759898,10.864288,-2.1484632,-9.561843,0.3544915
1409522953702,-4.5112743,-14.435839,14.329896,-2.3034446,-9.469583,1.0915877
1409522953705,-3.1735144,-15.119983,10.520123,-2.3400931,-9.314005,1.9858719
1409522953710,-4.1144357,-15.061324,6.2285156,-2.3000019,-9.193116,2.5232918
1409522953739,-4.9338512,-15.164873,0.5105635,-2.3810325,-9.1052065,2.7561429
1409522953739,-5.345654,-14.367604,-2.926313,-2.5142832,-9.134316,2.5323963
1409522953740,-5.3079453,-12.466608,-2.7886465,-2.6756275,-9.183025,2.1641295
1409522953761,-4.5561657,-10.5291,-2.735974,-2.8425207,-9.20889,1.8129572
1409522953761,-3.513491,-10.201095,-4.972757,-2.9647655,-9.226047,1.5035341
1409522953770,-2.789245,-10.144233,-7.016208,-3.0137286,-9.271815,1.0588988
1409522953792,-2.1763294,-9.585785,-7.4687123,-3.0296211,-9.314569,0.48018417
1409522953792,-2.0566192,-10.812215,-6.9611416,-3.0155747,-9.330757,-0.11690204
1409522953820,-1.4041992,-13.072341,-6.4966664,-2.954572,-9.32969,-0.63067865
1409522953821,-0.038905777,-17.472286,-5.5976434,-2.7943702,-9.34387,-1.0266408
1409522953821,3.5284548,-19.608511,-0.24720132,-2.483646,-9.400384,-1.2785282
1409522953852,11.000758,-19.608511,4.2401314,-1.9581945,-9.547388,-1.0877637
1409522953852,10.821792,-19.608511,5.4671597,-2.2786007,-9.505408,-0.7909388
1409522953853,6.365584,-17.770962,1.3509283,-2.5582309,-9.455974,-0.45870414
1409522953858,3.3674448,-14.341269,-3.4524388,0.3801412,-9.799124,-0.055128016
1409522953874,2.0655975,-13.311163,-6.935404,0.6439657,-9.7826605,-0.23508887
1409522953892,2.3319526,-11.5155115,-6.1369376,0.74040836,-9.758596,-0.626089
1409522953894,3.2986114,-10.510546,-5.1642933,0.81496906,-9.724588,-0.9688035
1409522953918,4.8219223,-9.15842,-3.643975,0.9422265,-9.680548,-1.2528292
1409522953919,4.572925,-7.132327,-2.819771,1.1861556,-9.627218,-1.4422545
1409522953919,3.6332011,-5.193622,-3.9294837,1.4373266,-9.570727,-1.5829303
1409522953945,3.4284968,-4.4819455,-5.798158,1.6498706,-9.494084,-1.8195196
1409522953946,3.1549592,-4.824915,-7.0832458,1.8477256,-9.375978,-2.201673
1409522953950,2.4289176,-4.9482164,-6.3003416,2.0086238,-9.221465,-2.6646535
1409522953959,2.0398598,-4.957195,-2.554613,2.100711,-9.080973,-3.0485032
1409522953987,1.6340426,-5.056554,-1.2360066,2.1616235,-9.03902,-3.129525
1409522953988,1.7363948,-4.8614264,-0.49679685,2.156586,-9.040537,-3.1286108
1409522953993,2.0213048,-4.605247,-1.3311762,2.1861289,-9.061639,-3.045974
1409522954027,2.9400797,-3.99293,-1.1174936,2.2782764,-9.048632,-3.0169694
1409522954028,3.352481,-3.3716345,-2.132635,2.4989269,-9.003449,-2.9771874
1409522954029,3.9845502,-2.6072857,-1.9644425,2.7650404,-8.892802,-3.072952
1409522954030,4.5262384,-2.0536265,-1.9818004,3.1309874,-8.741148,-3.1558857
1409522954039,4.6962266,-1.939902,-2.4774003,3.5713668,-8.533796,-3.2542443
1409522954089,4.950012,-1.8896236,-2.7964275,4.015272,-8.271257,-3.4109075
1409522954092,5.070919,-1.9339164,-3.0693667,4.4665217,-7.9602857,-3.5853095
1409522954096,5.1235914,-1.7292122,-3.4799721,4.895956,-7.618339,-3.7631052
1409522954100,5.1050367,-1.5993267,-3.8947675,5.2943616,-7.233032,-3.9778621
1409522954102,5.2277393,-1.407192,-4.252701,5.6406755,-6.819603,-4.224478
1409522954156,5.3881507,-1.6927006,-4.358644,5.948158,-6.3748827,-4.4889526
1409522954156,5.0864816,-3.3800142,-4.2664676,6.18645,-5.9712105,-4.7162337
1409522954157,2.4073699,-8.7125,4.8015714,6.2807894,-5.763194,-4.848473
1409522954157,-7.8984714,-19.235016,19.608511,6.178771,-6.610478,-3.7808378
1409522954158,-17.661427,-19.608511,19.608511,6.296995,-6.402823,-3.9398139
1409522954160,-19.60911,-19.608511,17.846977,6.3637543,-6.2357054,-4.0974383
1409522954160,-19.166782,-19.608511,7.505822,6.304389,-6.1473203,-4.3168893
1409522954177,-11.622053,-15.814301,4.8757915,6.1539235,-6.0717998,-4.629566
1409522954179,-7.2514386,-10.120889,6.3242836,-3.3197958,-8.644761,3.2276096
1409522954190,-2.8766334,-7.5788455,6.5744777,-3.648389,-8.489081,3.285597
1409522954228,0.64942724,-6.96174,5.046977,-3.625466,-8.394302,3.5443
1409522954228,3.6888664,-7.32925,0.41000703,-3.3458858,-8.398077,3.801017
1409522954229,9.707291,-16.927006,-0.22325931,-2.790451,-8.6222725,3.7470229
1409522954233,8.58022,-15.346234,-1.827973,-1.5304657,-9.100531,3.317894
1409522954239,5.4408236,-10.831967,-1.845331,-0.569341,-9.39346,2.758475
1409522954262,2.5965118,-10.2406,-0.6955156,-0.025217736,-9.522012,2.3454404
1409522954262,1.4323312,-11.171944,-1.8842367,0.20363778,-9.581212,2.0807033
1409522954270,1.401805,-10.761936,-4.3275194,0.32206455,-9.650723,1.7117829
1409522954290,1.9375077,-10.371083,-4.755483,0.42862055,-9.73072,1.1400661
1409522954311,1.4927847,-9.904214,-4.183269,0.5844338,-9.771168,0.5942507
1409522954311,1.3784616,-9.072228,-3.8367083,0.68932974,-9.780512,0.1919564
1409522954311,2.046444,-8.32404,-3.5769374,0.7689428,-9.775331,-0.14850071
1409522954319,2.8904,-8.513183,-3.4039562,0.9029643,-9.753202,-0.4797025
1409522954339,3.2172086,-9.165004,-3.4237084,1.1054296,-9.712525,-0.78438866
1409522954339,2.8060043,-9.841965,-3.5212722,1.3184385,-9.660859,-1.0487667
1409522954355,2.1362264,-10.020931,-3.151368,1.4757512,-9.606915,-1.3037434
1409522954371,1.7591397,-9.577405,-2.042254,1.5630574,-9.564386,-1.499916
1409522954372,1.6047137,-8.945336,-0.9271546,1.6106817,-9.542724,-1.5851024
1409522954392,1.62686,-8.529344,-0.24181437,1.6348333,-9.54172,-1.566289
1409522954393,1.7280151,-8.537125,-0.31004912,1.6517353,-9.553022,-1.4771417
1409522954406,1.4251486,-9.169792,-0.6907272,1.6740867,-9.563311,-1.3823569
1409522954420,0.92296475,-10.248381,-1.01574,1.66319,-9.573959,-1.3204035
1409522954421,0.40761283,-11.447875,-1.1480197,1.594066,-9.592663,-1.2689246
1409522954436,-0.26755205,-12.251729,-1.2246342,1.4754074,-9.617643,-1.2224913
1409522954439,-0.7086837,-12.257714,-1.01574,1.2941899,-9.647926,-1.188692
1409522954454,-0.7763199,-11.605294,-0.82779527,1.0822752,-9.678818,-1.1487217
1409522954471,-0.79248077,-10.480618,-0.95827925,0.88086516,-9.70398,-1.1078244
1409522954473,-0.3489549,-9.305065,-1.2521675,0.69898385,-9.720322,-1.0941461
1409522954487,-0.32561144,-8.938752,-1.0013748,0.5858166,-9.725034,-1.1184616
1409522954490,-1.0636241,-8.926183,-0.9540894,0.5006398,-9.729725,-1.1190157
1409522954506,-1.6543933,-8.902839,-1.0959458,0.35471946,-9.736322,-1.1174135
1409522954520,-1.6071079,-8.893262,-1.6879122,0.17472762,-9.739672,-1.1307851
1409522954520,-1.5891514,-9.080608,-2.1338322,0.010046762,-9.73273,-1.2017659
1409522954536,-2.4582467,-9.7479925,-1.9644425,-0.14767186,-9.717264,-1.3127655
1409522954539,-2.384625,-9.921572,-2.5396495,-0.37464756,-9.699053,-1.3994348
1409522954552,-2.030283,-9.872491,-3.2190042,-0.5677169,-9.668475,-1.5390514
1409522954571,-1.5334862,-9.361329,-2.618658,-0.71165514,-9.628557,-1.7189673
1409522954571,-1.5149311,-9.210494,-1.2413936,-0.7957494,-9.600048,-1.837465
1409522954587,-1.596334,-9.665392,-0.15203181,-0.8762214,-9.596583,-1.8188474
1409522954606,-1.4682442,-10.175956,0.4189853,-0.9518571,-9.613442,-1.6870407
1409522954609,-1.3533225,-10.538078,0.76434886,-1.0011729,-9.639683,-1.4981968
1409522954621,-1.5658079,-10.62427,1.1007342,-1.0297867,-9.667642,-1.2832143
1409522954621,-1.6813282,-10.430939,1.1773487,-1.0715996,-9.690598,-1.0556554
1409522954636,-1.5753847,-10.415376,1.2958617,-1.1217974,-9.705549,-0.8451614
1409522954639,-1.4077905,-10.8182,1.407192,-1.1577488,-9.7164545,-0.64845693
1409522954656,-1.3652935,-11.428123,1.5711949,-1.1775097,-9.724974,-0.45688218
1409522954671,-1.1605892,-11.667543,1.5610195,-1.1853151,-9.730956,-0.27191082
1409522954672,-0.9504981,-11.48319,1.6304513,-1.1691271,-9.736075,-0.11116613
1409522954687,-0.8702923,-11.425131,2.2122424,-1.1366057,-9.740513,0.030393384
1409522954692,-0.6775591,-11.404779,2.556409,-1.0990318,-9.742851,0.19848844
1409522954703,-0.6619968,-11.378444,2.2601264,-1.0514857,-9.743475,0.35981414
1409522954721,-0.97025025,-11.368867,1.6328455,-1.0178187,-9.742952,0.45751348
1409522954722,-1.4915876,-11.199477,1.4478935,-1.0157284,-9.741138,0.4988748
1409522954736,-1.8830396,-10.815806,2.0416555,-1.056051,-9.735422,0.52601767
1409522954739,-2.6473885,-11.303026,3.0723593,-1.128195,-9.720896,0.6338532
1409522954756,-4.2054152,-12.899959,3.0490158,-1.2512755,-9.689292,0.84991825
1409522954773,-5.478532,-13.879188,1.441908,-1.4622146,-9.640791,1.0428096
1409522954775,-4.9643774,-13.556568,-0.9163807,-1.7217139,-9.592832,1.0879569
1409522954790,-4.0497923,-13.490728,-1.5753847,-1.905534,-9.572697,0.9501474
1409522954820,-3.4572272,-13.934254,0.15023616,-1.9973277,-9.571539,0.7528198
1409522954820,-5.173271,-14.926052,5.583278,-2.0239608,-9.570412,0.6936726
1409522954820,-5.2421045,-15.216948,9.903615,-2.1487513,-9.511122,1.0449182
1409522954821,-4.333505,-14.899715,8.213907,-2.244553,-9.403587,1.6446646
1409522954869,-4.180875,-14.624383,5.641338,-2.2891362,-9.312712,2.0502782
1409522954869,-3.7523127,-13.670293,3.0933087,-2.3621483,-9.241794,2.2759435
1409522954870,-3.3806129,-12.803592,0.9247604,-2.4386225,-9.206458,2.3376567
1409522954870,-2.432509,-12.858659,1.3497312,-2.4964263,-9.213832,2.2457843
1409522954909,-1.9333179,-13.037625,-0.4973954,-2.4516199,-9.24352,2.1719344
1409522954909,-1.4742297,-12.11107,-5.8909335,-2.3864288,-9.304154,1.97688
1409522954910,-1.4718355,-10.8229885,-8.457518,-2.3092437,-9.425132,1.4158652
1409522954910,-1.9548657,-9.179369,-9.276933,-2.2697248,-9.5151615,0.6931272
1409522954911,-2.2481554,-9.38168,-8.703522,-2.2935941,-9.534411,-0.06940087
1409522954920,-1.7118542,-11.394006,-5.846042,-2.3195474,-9.500374,-0.73004097
1409522954951,-0.15801731,-14.471752,-3.6110547,-2.2756414,-9.477048,-1.08509
1409522954952,2.271499,-19.039888,-1.389834,-2.0765176,-9.508895,-1.1997458
1409522954953,8.999206,-19.608511,-0.14425065,-1.6695865,-9.599935,-1.1064181
1409522954969,12.731766,-19.608511,3.115455,-0.8470003,-9.725342,-0.93312025
1409522954971,8.177995,-19.115906,4.460996,-1.1047441,-9.724443,-0.62057173
1409522954984,4.280833,-15.4803095,1.7010803,0.7108213,-9.778123,-0.23115678
1409522955013,3.3075895,-13.48594,-5.1475334,1.0189614,-9.752865,-0.11730185
1409522955014,2.873042,-11.503541,-9.302073,1.1812624,-9.727048,-0.39945173
1409522955015,3.0891187,-10.313024,-7.1730285,1.2496281,-9.682668,-0.92455
1409522955020,4.5286326,-8.525752,-3.6583402,1.3586565,-9.623725,-1.3070477
1409522955055,4.5980644,-6.827665,-3.2010477,1.5391724,-9.568423,-1.4988714
1409522955056,2.8449101,-4.951209,-4.9524064,1.7518147,-9.500708,-1.6846687
1409522955056,1.7477672,-3.6565444,-6.5140243,1.8727096,-9.415021,-2.0051725
1409522955071,0.32441434,-3.177704,-6.962937,1.9383931,-9.295327,-2.4515204
1409522955073,-0.66858083,-3.8414967,-3.448249,1.896667,-9.1593685,-2.9460177
1409522955103,-0.8158242,-4.9045224,-2.392406,1.7627062,-9.122002,-3.1388505
1409522955103,0.4285621,-5.0864816,-1.7411832,1.5667735,-9.126784,-3.2276037
1409522955104,1.6759412,-4.6860514,-1.2276269,1.486715,-9.131216,-3.2528405
1409522955128,2.3307555,-4.128801,-1.6873137,1.5673382,-9.128841,-3.2215014
1409522955128,2.5743654,-3.8337154,-2.321777,1.7377117,-9.089005,-3.2466521
1409522955133,2.666542,-3.5224693,-2.327164,1.9476036,-9.011642,-3.3417854
1409522955168,3.0783448,-3.0615854,-1.7866731,2.1746294,-8.921023,-3.4433613
1409522955169,3.6643257,-2.6426,-1.9081788,2.4631686,-8.822891,-3.5013938
1409522955170,4.034828,-2.3959973,-2.4785974,2.8291006,-8.678185,-3.5854878
1409522955172,4.367024,-2.0931308,-3.0059202,3.233713,-8.4760895,-3.7241633
1409522955204,4.594473,-1.7633295,-3.5362358,3.6712213,-8.200696,-3.9295216
1409522955205,4.896741,-1.5412674,-3.8714242,4.1219864,-7.8522015,-4.1859975
1409522955205,5.2480903,-1.5334862,-4.1299977,4.574161,-7.4384885,-4.462775
1409522955225,5.5701103,-1.650802,-4.646547,5.012586,-6.9797945,-4.7251334
1409522955225,5.5192337,-2.5019407,-4.9853263,5.4003215,-6.489353,-4.989513
1409522955231,4.9188876,-4.8297033,-5.0541596,5.6549416,-6.086032,-5.210786
1409522955258,2.0685902,-11.550227,5.163096,5.6766334,-5.9618397,-5.3294187
1409522955259,-9.374496,-19.608511,19.608511,5.4362464,-7.068402,-4.081094
1409522955260,-15.486894,-19.608511,19.608511,5.5368953,-6.8605723,-4.2948546
1409522955272,-19.60911,-19.608511,16.712126,5.588282,-6.696246,-4.4835005
1409522955295,-17.973272,-19.333776,6.329671,5.5338874,-6.639593,-4.632741
1409522955295,-10.607511,-14.744093,5.405509,5.412204,-6.6020293,-4.8261437
1409522955300,-7.559692,-10.5045595,7.233482,-3.308847,-8.748754,2.9463913
1409522955329,-2.4049757,-7.7548194,6.8324533,-3.661019,-8.571229,3.0498137
1409522955329,1.1731589,-6.9252286,3.642778,-3.6155012,-8.489338,3.3210998
1409522955332,4.553173,-8.429385,0.39504328,-3.302121,-8.53488,3.5245173
1409522955381,8.052897,-13.7086,-1.6699557,-2.6258173,-8.78405,3.4807963
1409522955382,7.467515,-16.451159,-2.336741,-1.560726,-9.18967,3.047046
1409522955383,1.1833342,-11.16955,1.8836381,-0.6483266,-9.472254,2.4548926
1409522955384,0.75477207,-10.741586,1.1701661,-0.4492162,-9.502289,2.3822494
1409522955385,2.517503,-10.096947,-4.150947,-0.33743018,-9.536409,2.26129
1409522955417,3.116652,-9.394848,-6.072294,-0.08663287,-9.657125,1.703762
1409522955418,2.6844985,-8.957906,-6.2327056,0.2035653,-9.750756,1.0255314
1409522955420,2.0189106,-8.578424,-5.191228,0.45105627,-9.787824,0.4067536
1409522955421,2.2349873,-7.621941,-4.944625,0.62556016,-9.786274,-0.088781275
1409522955448,3.2148144,-7.1466923,-4.1665096,0.8094621,-9.7558365,-0.5820944
1409522955449,4.189853,-7.6488757,-3.3279405,1.0705909,-9.696262,-1.0033569
1409522955452,4.4903255,-8.980052,-3.0430303,1.4034432,-9.618033,-1.3016181
1409522955473,4.1461587,-10.20289,-2.6042929,1.7302552,-9.532783,-1.5174575
1409522955474,3.4446578,-10.179547,-1.9632454,1.9626261,-9.46811,-1.6350545
1409522955480,2.825158,-9.632472,-1.2737153,2.1272159,-9.423289,-1.6873043
1409522955522,2.505532,-9.15842,-0.6955156,2.222663,-9.403566,-1.674249
1409522955523,2.337938,-8.649054,-0.56922144,2.2760067,-9.403843,-1.5993378
1409522955523,2.0536265,-8.375516,-0.7906851,2.3034656,-9.412037,-1.5093104
1409522955524,1.7543513,-8.705916,-1.0336965,2.301793,-9.422891,-1.442662
1409522955543,1.2258313,-9.946113,-1.448492,2.270139,-9.43727,-1.3981442
1409522955543,0.4177882,-11.713632,-1.7393875,2.172741,-9.461725,-1.3875715
1409522955554,-0.43873745,-12.80479,-1.6089035,1.9731574,-9.50447,-1.3936101
1409522955575,-0.7428011,-12.500127,-1.1468226,1.7024786,-9.559405,-1.3746762
1409522955576,-0.64942724,-11.466431,-0.801459,1.4323753,-9.610929,-1.3224101
1409522955580,-0.74519527,-10.454881,-0.66379243,1.1979578,-9.651827,-1.2559973
1409522955611,-1.0666169,-9.768942,-0.5781997,0.9814082,-9.684484,-1.1908038
1409522955612,-1.2695254,-9.627085,-0.9876082,0.76868546,-9.71144,-1.1258079
1409522955614,-0.7326257,-9.215881,-1.8740613,0.5653864,-9.727785,-1.1049674
1409522955621,-0.6901286,-8.866926,-2.3517046,0.4365949,-9.725601,-1.180017
1409522955645,-2.0649989,-9.263166,-2.6408045,0.3288418,-9.713651,-1.306621
1409522955645,-3.4165258,-10.014946,-2.260725,0.10166502,-9.695517,-1.4686855
1409522955652,-2.6916811,-9.38168,-1.9560628,-0.22183834,-9.674088,-1.5915987
1409522955673,-1.9375077,-8.910022,-1.4562732,-0.45081896,-9.649683,-1.688433
1409522955674,-2.0033484,-9.051279,-1.168969,-0.6040455,-9.635935,-1.7188083
1409522955681,-2.2397757,-9.322423,-0.85652566,-0.7457155,-9.630291,-1.6946418
1409522955732,-1.8764555,-9.389461,-0.4405331,-0.88933927,-9.630256,-1.6240871
1409522955735,-1.2413936,-9.668385,0.07062895,-0.99004185,-9.637141,-1.5217571
1409522955736,-1.0319009,-10.038888,0.36032736,-1.0235546,-9.655311,-1.3775644
1409522955737,-1.2988545,-10.336966,0.50278234,-1.0323902,-9.675899,-1.2171874
1409522955741,-1.3862427,-10.6158905,0.581791,-1.0544199,-9.69249,-1.0555753
1409522955774,-1.3617022,-10.922947,0.6512229,-1.0765347,-9.705485,-0.90277827
1409522955775,-1.2904748,-11.316195,0.8146271,-1.0964164,-9.715636,-0.758053
1409522955776,-1.3030443,-11.603498,0.9223662,-1.1071107,-9.724626,-0.6135002
1409522955777,-1.216853,-11.719019,0.8750807,-1.114248,-9.731477,-0.47663844
1409522955781,-1.1055226,-11.716026,1.0175357,-1.1074709,-9.737148,-0.36310092
1409522955820,-1.0462662,-11.577761,1.3425486,-1.0933912,-9.74223,-0.25273383
1409522955821,-1.198298,-11.777677,1.8351556,-1.0733777,-9.746845,-0.13138942
1409522955822,-1.09834,-11.766903,2.4582467,-1.0649469,-9.748641,0.01704349
1409522955823,-0.8230068,-11.386824,2.5234885,-1.054787,-9.747866,0.19225276
1409522955844,-0.65900403,-11.064204,2.6024973,-1.04084,-9.745668,0.3301403
1409522955845,-0.65301853,-10.5602255,3.3991678,-1.0259312,-9.74277,0.4430483
1409522955853,-0.98700964,-10.143036,5.5844755,-1.0099124,-9.732833,0.6499188
1409522955867,-3.269881,-11.236588,6.8599863,-1.0217569,-9.695228,1.062527
1409522955884,-5.153519,-12.558187,1.6915035,-1.2032549,-9.604455,1.5738609
1409522955884,-5.072715,-12.971785,-2.2810757,-1.4800524,-9.557278,1.6242812
1409522955903,-4.525041,-13.464991,-2.942474,-1.7091742,-9.557506,1.3795602
1409522955904,-4.346673,-13.630789,-3.3375173,-1.8556595,-9.570124,1.0675392
1409522955916,-3.9438488,-13.618219,-2.5151088,-1.9647727,-9.583207,0.68716455
1409522955922,-5.429451,-14.170083,9.59177,-2.0458472,-9.5834875,0.37637132
1409522955940,-4.8578353,-16.014217,14.505271,-2.201576,-9.496885,1.0642478
1409522955941,-3.7834373,-15.797542,9.323022,-2.158582,-9.507331,1.0590441
1409522955952,-4.0761285,-15.458163,2.5635915,-2.2519467,-9.243056,2.3801355
1409522955977,-3.518878,-14.285603,0.3453636,-2.3384433,-9.226177,2.3621466
1409522955977,-3.1783028,-13.803171,0.6362591,-2.4150121,-9.234423,2.2502296
1409522955981,-2.8736405,-13.880384,-0.50876784,-2.4464488,-9.2506895,2.1470976
1409522956007,-2.517503,-12.468404,-4.9458222,-2.422181,-9.301275,1.946723
1409522956008,-1.8261774,-11.335348,-7.9343843,-2.392524,-9.395899,1.4708172
1409522956012,-1.6837224,-9.743204,-8.95611,-2.3631103,-9.484813,0.79020756
1409522956021,-1.5885528,-9.638457,-8.930372,-2.3530865,-9.519941,0.063862525
1409522956041,-1.365892,-11.896789,-7.1610575,-2.3216758,-9.507369,-0.6246248
1409522956041,0.13227965,-15.805921,-4.3065705,-2.2410736,-9.485395,-1.084087
1409522956052,3.1070752,-19.519926,-1.1953052,-2.0182126,-9.516942,-1.2349218
1409522956073,10.238205,-19.608511,1.5352819,-1.5773245,-9.615142,-1.1097043
1409522956074,14.044986,-19.608511,5.121796,-1.8591771,-9.596317,-0.79028124
1409522956081,8.747216,-18.112734,4.196437,-2.1181693,-9.565235,-0.43592942
1409522956110,3.525462,-14.038402,-0.99299514,0.8996368,-9.76515,-0.053985275
1409522956111,2.1888988,-11.892,-7.2047515,1.1413565,-9.739399,-0.10870997
1409522956112,1.5861586,-10.067019,-8.765172,1.25625,-9.711097,-0.53556293
1409522956143,2.337938,-9.045294,-4.975151,1.2614836,-9.668525,-1.0481845
1409522956144,3.4757824,-8.110957,-3.702633,1.2978904,-9.629997,-1.3225071
1409522956145,2.6007016,-6.5655,-4.8883615,1.4291434,-9.580572,-1.5299008
1409522956175,1.5610195,-3.8301241,-6.1955953,1.5220279,-9.513751,-1.8282132
1409522956176,0.74758947,-2.5091233,-7.800309,1.5773879,-9.412818,-2.2541304
1409522956177,0.712275,-3.0573955,-6.4002995,1.5982077,-9.254892,-2.8218946
1409522956181,0.29568392,-3.8145618,-2.9364884,1.6058005,-9.108035,-3.2612102
1409522956207,0.092176765,-4.144363,-1.292869,1.5554994,-9.062501,-3.4090965
1409522956208,1.3251907,-3.9947255,-0.54168814,1.4571171,-9.072936,-3.4247723
1409522956214,2.0967221,-3.9378633,-1.2497733,1.4926366,-9.088467,-3.3678224
1409522956241,2.1739352,-4.1521444,-2.2840683,1.6441829,-9.066071,-3.357591
1409522956241,2.2319946,-4.055179,-2.3953989,1.8066692,-9.009134,-3.4266415
1409522956242,2.1511903,-3.7774518,-2.791639,1.981242,-8.941274,-3.5069537
1409522956252,2.8658595,-3.4272997,-2.4127567,2.1347609,-8.849032,-3.6479883
1409522956271,3.752911,-3.1501708,-1.7926586,2.3814652,-8.739643,-3.75735
1409522956274,4.334702,-2.8688521,-2.6252422,2.7587183,-8.614859,-3.7873576
1409522956281,4.827309,-2.4307132,-3.5847185,3.1981025,-8.404035,-3.9134092
1409522956307,5.2247467,-2.006341,-4.137779,3.6801665,-8.091452,-4.14188
1409522956308,5.2720323,-1.6687586,-4.8494554,4.1831946,-7.6941323,-4.4126644
1409522956312,5.1726727,-1.6579847,-5.403713,4.624646,-7.2317886,-4.7417603
1409522956340,5.109226,-1.7046716,-5.437232,4.9741483,-6.7313266,-5.1105266
1409522956341,4.59567,-2.7084408,-5.29777,5.2602224,-6.251747,-5.4236608
1409522956341,4.233547,-5.5778913,-4.732738,5.393128,-5.9266334,-5.653279
1409522956353,-2.2301989,-15.572487,10.983999,5.348204,-5.941614,-5.6801715
1409522956374,-14.441825,-19.608511,19.608511,4.640859,-7.8004208,-3.7129865
1409522956374,-17.513586,-19.608511,18.876484,4.744296,-7.619887,-3.949598
1409522956381,-19.034502,-19.608511,6.5846534,4.7839546,-7.4802437,-4.162948
1409522956404,-13.986328,-16.521189,2.433706,4.725529,-7.4584613,-4.2674537
1409522956405,-11.650186,-14.537593,6.8324533,-3.2374225,-9.023288,2.0663452
1409522956413,-5.0308166,-9.196728,7.5411367,-3.7866595,-8.795244,2.1154835
1409522956441,-0.7278373,-7.1209545,5.269039,-3.9048944,-8.667392,2.4080057
1409522956442,1.7004818,-6.5271926,1.3605051,-3.731645,-8.642118,2.74936
1409522956446,4.111443,-6.7079544,-0.65301853,-3.3473647,-8.760982,2.865444
1409522956479,5.9082913,-9.126099,0.20530279,-2.7241883,-9.006898,2.761337
1409522956479,5.9597664,-12.525267,-1.2060791,-1.889538,-9.263494,2.605324
1409522956480,5.445013,-12.281057,-2.4157495,-1.0564193,-9.498524,2.1982694
1409522956481,4.502895,-10.703877,-4.3185415,-0.38695613,-9.641049,1.7523797
1409522956504,3.7415388,-10.31901,-4.9919105,0.08594196,-9.730659,1.2154338
1409522956505,1.9895816,-14.757859,-2.3241713,0.44303164,-9.7764,0.6294149
1409522956515,1.6047137,-14.140754,-0.30705637,0.5823216,-9.785107,0.28807986
1409522956539,1.8722657,-12.410943,0.4333505,0.6839416,-9.781767,0.1402122
1409522956539,2.256535,-10.530297,0.40282443,0.79145324,-9.7739315,0.11949907
1409522956541,2.8892028,-9.006389,0.1448492,0.91988605,-9.762712,0.11692016
1409522956573,3.0603883,-8.825027,-0.36152446,1.0965611,-9.744138,0.14055179
1409522956574,2.7275944,-9.294291,-0.7954735,1.2893357,-9.720798,0.11882161
1409522956575,2.3529017,-9.188348,-1.1073183,1.4417495,-9.699964,0.049922846
1409522956581,2.2439656,-8.400057,-1.0241197,1.5579286,-9.681975,-0.05132336
1409522956606,2.3570917,-7.5309615,-0.7727286,1.6617179,-9.663807,-0.14123102
1409522956606,2.5187001,-7.098808,-0.6422446,1.770552,-9.643362,-0.20278175
1409522956613,2.4708161,-7.3430166,-0.90740246,1.8924189,-9.619018,-0.25225392
1409522956638,1.9566613,-8.325238,-1.3066356,1.9935718,-9.596531,-0.32038638
1409522956638,1.2138603,-9.51755,-1.5891514,2.0217655,-9.5868225,-0.4191934
1409522956641,0.48841715,-10.658387,-1.6298528,1.9617718,-9.593828,-0.5294483
1409522956673,-0.1436521,-11.538856,-1.6992847,1.818156,-9.616126,-0.6283704
1409522956673,-0.5351041,-11.952454,-1.9752164,1.6075115,-9.647015,-0.72210026
1409522956674,-0.7787141,-11.991958,-1.7483658,1.3670225,-9.675099,-0.8331284
1409522956681,-1.2802993,-11.688493,-1.5676036,1.1253372,-9.699823,-0.9041151
1409522956705,-1.4466964,-11.009736,-1.858499,0.87774557,-9.720124,-0.95873576
1409522956706,-1.3784616,-10.1065235,-2.497751,0.63537514,-9.730599,-1.0402532
1409522956713,-0.8643068,-9.0794115,-4.606444,0.4327084,-9.726817,-1.1713989
1409522956739,-0.41180268,-8.185776,-6.1477113,0.3059151,-9.687708,-1.4916929
1409522956740,-1.2551602,-7.7889366,-6.3165026,0.24316886,-9.608742,-1.9450773
1409522956741,-1.8842367,-8.048708,-4.285621,0.11509397,-9.506694,-2.4041502
1409522956773,-1.7806876,-8.170214,-2.475006,-0.06243264,-9.4415045,-2.6503837
1409522956773,-1.2012907,-8.8088665,-1.6938977,-0.23763037,-9.428285,-2.687268
1409522956774,-0.56203884,-9.479841,-0.8535329,-0.34281245,-9.438215,-2.640642
1409522956781,-0.25737667,-9.953894,-0.021547815,-0.39369887,-9.476984,-2.4904175
1409522956811,-0.089184016,-10.656591,0.09816227,-0.3962132,-9.532826,-2.2668567
1409522956812,-0.33877954,-10.874464,-0.0077811554,-0.3620175,-9.584348,-2.0444086
1409522956815,-0.7990648,-10.444705,0.12689269,-0.34347618,-9.625118,-1.8464906
1409522956835,-1.1133038,-9.925761,0.31603462,-0.3680787,-9.657158,-1.665601
1409522956836,-1.3880384,-9.827001,0.45070848,-0.4265911,-9.682595,-1.4952561
1409522956853,-1.328782,-9.968858,0.6015432,-0.514054,-9.703078,-1.3252994
1409522956854,-1.2252327,-10.509348,0.7386112,-0.59554625,-9.719865,-1.1575439
1409522956861,-1.3970166,-10.985196,0.79726917,-0.65703857,-9.734632,-0.98775375
1409522956880,-1.5334862,-10.919954,0.7254431,-0.7221461,-9.745016,-0.82677
1409522956881,-1.6430209,-10.579379,0.6063316,-0.78914165,-9.750359,-0.69148004
1409522956903,-1.7585411,-10.574591,0.53091425,-0.86277914,-9.751219,-0.58289284
1409522956904,-1.9794062,-10.952874,0.6326678,-0.9405615,-9.748756,-0.4975012
1409522956920,-2.337938,-11.56579,0.97025025,-1.0257245,-9.744193,-0.41107848
1409522956922,-2.6354175,-11.526884,2.4995465,-1.1280469,-9.73672,-0.30690733
1409522956957,-3.0502129,-11.395203,3.678691,-1.248406,-9.726546,-0.07865736
1409522956958,-3.7098155,-12.100295,3.2016463,-1.3972654,-9.704276,0.21226679
1409522956958,-4.3502645,-13.229161,2.0266917,-1.5764349,-9.671975,0.37166297
1409522956962,-4.881179,-14.075512,3.1364043,-1.7727076,-9.6380825,0.3677654
1409522956988,-4.2880154,-14.589068,12.53185,-1.9805063,-9.592103,0.4894155
1409522956989,-3.7175968,-14.932636,8.74542,-2.118429,-9.468564,1.4244045
1409522956995,-5.0254292,-14.640543,-2.4827871,-2.1439738,-9.369501,1.9458126
1409522957002,-5.1918263,-14.070724,-5.515642,-2.2618883,-9.389553,1.7001661
1409522957025,-4.237737,-13.916297,-3.043629,-2.3630645,-9.431627,1.276991
1409522957026,-3.9959226,-13.811551,-0.5279215,-2.38788,-9.461861,0.97036946
1409522957033,-4.7159786,-14.5346,5.1122193,-2.4037843,-9.47262,0.8134312
1409522957053,-4.233547,-16.101604,9.946711,-2.4539912,-9.434988,1.0627064
1409522957056,-3.027468,-16.25244,10.40939,-2.4442213,-9.358648,1.6161268
1409522957062,-3.8025908,-16.08305,1.9381063,-2.3718433,-9.276147,2.120817
1409522957080,-4.249708,-12.956821,-0.6099229,-2.3996232,-9.272106,2.1071923
1409522957082,-3.691859,-11.641806,-0.23463176,-2.525092,-9.269421,1.9677755
1409522957103,-3.1399956,-11.105505,-1.1899183,-2.612959,-9.2703705,1.8447444
1409522957104,-2.160767,-11.145607,-3.5021186,-2.6526256,-9.29723,1.6417987
1409522957116,-1.8357542,-10.593744,-6.133945,-2.6189826,-9.36238,1.287299
1409522957147,-1.4891934,-9.683948,-7.5225816,-2.5823853,-9.429736,0.76274204
1409522957148,-1.2216414,-10.505158,-7.8727336,-2.5431726,-9.470113,0.14002222
1409522957148,-0.56084174,-12.464214,-7.5267715,-2.4552624,-9.483093,-0.46154785
1409522957171,1.3934253,-16.16565,-5.834071,-2.29204,-9.483799,-0.9871511
1409522957171,5.1397524,-19.565416,-1.3605051,-1.9586265,-9.524529,-1.2718203
1409522957176,11.643601,-19.608511,3.0508115,-1.375311,-9.639103,-1.1690309
1409522957182,11.489176,-19.608511,5.229535,-1.6550484,-9.62416,-0.89820325
1409522957209,5.7574563,-17.373524,2.1176715,-1.8810666,-9.606374,-0.59121644
1409522957209,2.1829133,-14.294581,-3.4919431,0.8518913,-9.768422,-0.15043958
1409522957213,2.034473,-12.198458,-7.6440873,0.993321,-9.750527,-0.33311027
1409522957236,1.435324,-10.040085,-8.272566,1.0592378,-9.720321,-0.7508517
1409522957236,0.89543146,-9.296685,-4.7046065,1.0427351,-9.674316,-1.2209265
1409522957242,1.654992,-9.174581,-4.256292,0.9946894,-9.645195,-1.4666988
1409522957262,1.5610195,-8.542512,-4.9763484,1.0258428,-9.604223,-1.6961428
1409522957263,0.47524905,-6.326678,-6.117784,1.0523909,-9.551153,-1.9591677
1409522957281,-0.47345337,-4.8787847,-7.426215,1.0175141,-9.472076,-2.326971
1409522957282,0.30645782,-4.9781437,-5.957372,0.93587625,-9.34674,-2.816555
1409522957297,0.9923966,-5.377377,-4.7022123,0.926646,-9.237718,-3.1585283
1409522957317,1.910573,-5.116409,-1.0893618,0.9491838,-9.156457,-3.3806403
1409522957319,2.1140802,-5.037999,-0.36391866,1.0404559,-9.170113,-3.316156
1409522957337,2.1470003,-4.8763905,-1.8716671,1.1514738,-9.198503,-3.1987574
1409522957337,2.0266917,-4.3777976,-2.4768016,1.2797993,-9.170797,-3.229397
1409522957342,2.493561,-3.594894,-2.018312,1.4252082,-9.115973,-3.3223846
1409522957363,3.0101101,-2.867655,-1.9722236,1.647397,-9.054316,-3.387603
1409522957363,3.5296519,-2.3253684,-2.492364,1.9299971,-8.96346,-3.4787822
1409522957380,3.9755719,-2.0973208,-2.7814639,2.2823975,-8.817276,-3.635475
1409522957382,4.1701007,-2.147599,-3.544017,2.6983864,-8.616843,-3.8261092
1409522957397,4.4765587,-1.8716671,-3.66672,3.124217,-8.351518,-4.0818872
1409522957412,4.9099092,-1.4640543,-3.9426517,3.5781462,-8.0334425,-4.33948
1409522957416,5.057751,-1.376666,-4.402937,4.0647573,-7.636729,-4.6182847
1409522957431,5.53719,-1.3030443,-4.4119153,4.5132966,-7.1824074,-4.9207273
1409522957433,6.213552,-1.6106992,-4.301183,4.9750757,-6.6904855,-5.162989
1409522957446,6.68102,-2.5067291,-4.4155064,5.4280305,-6.2214456,-5.291547
1409522957462,6.199785,-5.043386,-3.863643,5.8108773,-5.816669,-5.3451295
1409522957463,1.2312182,-14.563331,12.534245,5.980286,-5.738128,-5.242181
1409522957480,-10.570999,-19.608511,19.608511,5.6991673,-7.3776426,-3.0430737
1409522957482,-18.8286,-19.608511,19.608511,5.827383,-7.1834793,-3.2572412
1409522957497,-19.60911,-19.608511,12.662932,5.8998747,-7.046148,-3.42253
1409522957514,-14.995483,-16.870743,4.7046065,5.8405457,-6.96803,-3.6749125
1409522957514,-9.157223,-10.643424,4.7800236,5.717319,-6.9217587,-3.946129
1409522957530,-6.2805896,-7.9463553,6.2249246,-3.2942958,-8.75977,2.9299219
1409522957548,-1.5113398,-6.5786676,5.819107,-3.611268,-8.587182,3.0642169
1409522957551,2.3092074,-6.606201,2.791639,-3.535784,-8.521463,3.3246472
1409522957566,5.969343,-10.218452,0.25617957,-3.0956078,-8.615934,3.5147243
1409522957567,7.5824366,-16.364368,-0.7302315,-2.206297,-8.939716,3.374035
1409522957574,5.898116,-16.586432,-2.554613,-1.1509224,-9.300414,2.8893046
1409522957582,3.0699651,-12.679692,-2.2176294,-0.43256724,-9.5242405,2.2961106
1409522957596,0.4914099,-11.204864,2.1057005,-0.11005086,-9.624619,1.8774948
1409522957613,1.1755531,-11.623849,1.1791444,-0.042395372,-9.620138,1.9030361
1409522957614,3.2202013,-11.02889,-2.2361844,0.072553486,-9.641514,1.7906274
1409522957629,4.103063,-10.908582,-3.6685154,0.35437664,-9.697467,1.4156085
1409522957648,3.7433343,-10.625467,-2.5432408,0.6826583,-9.732684,0.98957044
1409522957648,3.5847185,-7.3364325,-1.5472529,0.9562236,-9.735202,0.6941636
1409522957663,3.8971617,-7.091027,-1.2862848,1.2301375,-9.716984,0.487237
1409522957664,3.6140475,-8.449737,-1.869273,1.5222675,-9.6827755,0.31136957
1409522957678,3.0735564,-9.931149,-2.498948,1.7509732,-9.648511,0.1036106
1409522957682,2.5779567,-10.136452,-2.8365304,1.9050828,-9.61866,-0.14975569
1409522957695,2.5013423,-9.353547,-2.5246856,1.9988029,-9.59206,-0.40936232
1409522957710,2.7994204,-8.379107,-1.7136499,2.0754294,-9.564748,-0.6153221
1409522957715,3.0532057,-7.7823524,-1.1857284,2.1683428,-9.535764,-0.733423
1409522957729,2.7641058,-7.7949224,-1.1498153,2.2793128,-9.504269,-0.8024977
1409522957748,2.2068555,-8.446744,-1.3347675,2.3621495,-9.4780855,-0.86982
1409522957751,1.2838906,-10.200497,-1.5801731,2.3875387,-9.464718,-0.94295245
1409522957765,0.42676646,-12.328343,-1.4975731,2.2804801,-9.483679,-1.014706
1409522957765,-0.18974048,-13.424289,-1.389834,2.072291,-9.527989,-1.0456681
1409522957778,-0.59735334,-12.571953,-1.1953052,1.8055747,-9.581552,-1.0507991
1409522957782,-0.7445967,-10.969634,-1.532289,1.5332524,-9.630126,-1.0393279
1409522957795,-1.0019734,-10.095152,-2.15538,1.2837203,-9.663683,-1.0656822
1409522957810,-1.2479776,-9.576807,-2.1027076,1.041643,-9.683109,-1.150114
1409522957815,-1.2707225,-9.136872,-2.819771,0.8105074,-9.69456,-1.2365164
1409522957841,-1.1665748,-9.126697,-4.9302597,0.61496586,-9.6876745,-1.3932594
1409522957842,-1.5107412,-9.291298,-7.2687964,0.43844607,-9.639632,-1.7480396
1409522957842,-2.1787236,-9.1590185,-7.9750857,0.26465383,-9.536449,-2.2707915
1409522957861,-2.40318,-8.772954,-4.4783545,0.058310296,-9.399699,-2.7951152
1409522957863,-1.7184383,-8.22109,-0.8936358,-0.16021657,-9.340888,-2.9820373
1409522957878,-1.1671734,-8.63828,0.4309563,-0.32420447,-9.371642,-2.8701277
1409522957896,-0.7032967,-9.548675,0.6787562,-0.43938366,-9.439481,-2.621746
1409522957897,-0.5734113,-10.490194,0.53211135,-0.48967445,-9.513934,-2.327161
1409522957911,-0.84694886,-11.052234,0.16938977,-0.4929928,-9.577288,-2.050107
1409522957914,-1.2401965,-11.124659,0.005985504,-0.520584,-9.620632,-1.8283383
1409522957926,-1.5239093,-10.612299,0.0712275,-0.57139295,-9.649252,-1.6540345
1409522957946,-1.501763,-10.084976,0.24480712,-0.64708036,-9.668705,-1.5059224
1409522957947,-1.4131776,-9.900024,0.44472298,-0.72285366,-9.68432,-1.364488
1409522957958,-1.54845,-10.070012,0.5542577,-0.7905007,-9.69874,-1.2165222
1409522957962,-1.6723499,-10.438121,0.521936,-0.86232734,-9.70992,-1.0696862
1409522957974,-1.5568297,-10.653001,0.49081135,-0.9331901,-9.717544,-0.9321558
1409522957993,-1.6262615,-10.6637745,0.56323594,-0.9812939,-9.723569,-0.81220895
1409522957994,-1.7830818,-10.634445,0.6332663,-1.029827,-9.727454,-0.6974895
1409522958011,-2.006341,-10.647614,0.8391677,-1.0848013,-9.728555,-0.59060675
1409522958027,-2.142212,-10.792462,1.2641385,-1.1534817,-9.726937,-0.4759645
1409522958028,-2.2062569,-10.734404,2.7018566,-1.2281413,-9.723623,-0.33645374
1409522958043,-2.2290018,-10.848128,3.6403837,-1.3063477,-9.718934,-0.078337625
1409522958043,-2.557606,-11.67712,3.29502,-1.3818294,-9.706359,0.21805882
1409522958059,-2.5983074,-12.584522,3.1621418,-1.4713559,-9.686186,0.42815235
1409522958062,-2.4049757,-12.934674,8.980052,-1.553061,-9.66791,0.53841716
1409522958078,-3.095703,-13.834894,18.410213,-1.6220255,-9.604063,1.1407845
1409522958091,-4.1802764,-13.951014,3.74094,-1.6727486,-9.637142,0.7055267
1409522958094,-4.9518075,-14.254478,-6.2704144,-1.8402234,-9.287534,2.5545433
1409522958122,-5.2474914,-15.087062,-6.531382,-1.9831028,-9.389058,2.0207121
1409522958123,-4.7578773,-15.040974,-3.4554317,-2.1026316,-9.472661,1.4205723
1409522958123,-4.8057613,-14.454394,-1.364695,-2.174642,-9.505253,1.0447335
1409522958152,-5.701193,-14.77402,4.903325,-2.2667837,-9.510482,0.7634049
1409522958152,-5.029619,-15.589845,14.033014,-2.3853412,-9.461046,0.9844512
1409522958154,-3.752911,-16.470312,14.7955675,-2.4124305,-9.331264,1.810546
1409522958163,-3.4853592,-15.7987385,6.847417,-2.3818789,-9.334664,1.8333293
1409522958178,-4.435259,-14.548367,1.0139444,-2.4141958,-9.069002,2.8452182
1409522958195,-5.0571527,-14.56752,-1.9117701,-2.5499263,-9.069218,2.7235177
1409522958196,-5.605425,-13.329718,-5.2462945,-2.6838863,-9.129243,2.371513
1409522958222,-5.09546,-11.177331,-5.647922,-2.8222225,-9.208727,1.845214
1409522958223,-2.8455088,-10.474034,-5.8945246,-2.9753184,-9.250344,1.322506
1409522958224,-1.7687165,-9.7641535,-5.579687,-2.982281,-9.305574,0.82623225
1409522958254,-1.3628993,-9.560646,-5.3486466,-2.93087,-9.350567,0.38376668
1409522958254,-0.83258367,-10.630256,-5.720945,-2.855495,-9.381705,-0.013255788
1409522958256,0.6619968,-14.517242,-5.651513,-2.7198353,-9.412436,-0.42303076
1409522958263,3.7708676,-19.451094,-3.3566709,-2.4179354,-9.472158,-0.7759984
1409522958277,11.28926,-19.608511,1.2126632,-1.8638626,-9.587298,-0.8832395
1409522958296,14.709376,-19.608511,5.638345,-2.1413987,-9.551726,-0.591058
1409522958299,8.6095495,-18.070835,2.8455088,-2.3865201,-9.50811,-0.26596448
1409522958313,4.147356,-14.056956,-1.4059949,0.82442254,-9.771935,-0.0011655367
1409522958329,3.0262709,-11.997943,-7.20954,1.1172999,-9.742378,-0.09012685
1409522958329,2.5246856,-10.414778,-7.679402,1.2796623,-9.709472,-0.5089327
1409522958345,2.0087352,-10.061633,-4.5896845,1.3291866,-9.6710825,-0.9347931
1409522958345,2.7030537,-9.097368,-4.6950297,1.3241526,-9.645946,-1.1716548
1409522958360,2.3319526,-7.5531077,-4.1611223,1.4090285,-9.599946,-1.423392
1409522958363,2.1679497,-4.7830167,-4.2664676,1.4696627,-9.551577,-1.6666882
1409522958377,0.8535329,-3.7954082,-6.3326635,1.5598692,-9.484466,-1.944771
1409522958394,0.4405331,-3.911527,-6.859388,1.5710236,-9.376961,-2.403098
1409522958394,-0.37110126,-4.9266686,-5.787384,1.5521176,-9.24325,-2.8850744
1409522958409,-0.37708676,-5.3474493,-2.3319526,1.4409746,-9.142676,-3.2412055
1409522958415,0.44472298,-4.868609,-1.0594343,1.2992753,-9.143569,-3.2980928
1409522958426,1.388637,-4.437653,-0.7733272,1.2226776,-9.1634035,-3.2722285
1409522958443,1.7705121,-4.3927617,-2.5839422,1.2683477,-9.178601,-3.2116942
1409522958444,1.7998412,-4.044405,-3.8983588,1.3840432,-9.123352,-3.3195314
1409522958459,2.2098482,-3.3614593,-2.7820623,1.514082,-9.010462,-3.562239
1409522958463,3.1549592,-2.6803088,-2.03567,1.7110759,-8.916179,-3.7073407
1409522958477,4.1000705,-2.3517046,-2.3959973,2.0340874,-8.809235,-3.7987196
1409522958504,4.684854,-2.3930047,-2.903568,2.4718666,-8.636438,-3.9334717
