time,acc_x,acc_y,acc_z,local max
1407528681965,-1.60015847914,10.0752396759,1.20710970244,0
1407528681992,-1.90316347446,10.0193781344,1.56601449427,0
1407528681993,-1.40783435307,9.71578537538,1.51555489242,0
1407528681995,-1.25207926511,9.4191334309,1.53400407835,0
1407528681997,-0.867120358946,9.05634576286,1.53584932341,0
1407528682020,-0.606778875556,8.71836635041,1.45012081951,0
1407528682022,-0.386315451528,8.48610229565,1.32515796795,0
1407528682044,-0.309243690611,8.44461661414,1.35654250432,0
1407528682045,-0.117971953872,8.45151169833,1.34365449348,0
1407528682049,0.0152915882828,8.66662873982,1.14401772492,0
1407528682075,0.0866012835567,8.77836850293,0.860203611496,0
1407528682076,0.32050204404,8.67139128875,0.589046666935,0
1407528682078,0.264880418362,8.58091504915,0.593459810767,0
1407528682110,0.142951969706,8.51743063656,0.766570651378,0
1407528682111,0.0575252235152,8.55716046284,0.872251581395,0
1407528682112,-0.00307904150963,8.73918387359,0.919174904653,0
1407528682118,-0.0496157586703,8.83958957647,0.838872029773,0
1407528682142,-0.103454096276,8.95867788522,0.882947459569,0
1407528682143,-0.0357929056173,8.99438152048,0.906938340119,0
1407528682151,-0.0573219191607,9.05720197434,0.897689453644,0
1407528682173,-0.231595773897,9.36604228399,0.892389191158,0.0
1407528682174,-0.128667404306,9.27074802649,0.887846976008,0.0
1407528682178,-0.658201142766,9.33346095098,1.07424493173,0.0
1407528682211,-0.5915665847,9.3711468683,0.895519328288,0.0
1407528682212,-0.386957669953,9.5211457265,0.451318020181,0.0
1407528682213,-0.49181140684,9.407599065,0.411909303556,0.0
1407528682218,-0.158519980238,9.08522467131,0.489194697519,0.0
1407528682248,0.422869699498,8.73068846668,0.435445780973,0.0
1407528682249,0.72604415427,8.62586634891,0.461917561458,0.0
1407528682250,0.999161658932,8.5606916882,0.51928262741,0.0
1407528682267,1.08929945104,8.62484489614,0.557309565692,0.0
1407528682286,1.27268565694,8.651338535,0.515591504128,0.0
1407528682288,1.33434150077,8.83033318787,0.564512099099,0.0
1407528682302,1.33408625365,9.14858881352,0.674378599867,0.0
1407528682308,1.44527794014,9.05611349728,0.787437734837,0.0
1407528682324,1.35385286858,9.03503640664,0.845015717945,0.0
1407528682325,1.12641052,9.40957373806,0.81514226724,0.0
1407528682332,0.901568913367,9.57295804993,0.782836488528,0.0
1407528682363,0.561478598521,9.58669003182,0.759603788011,0.0
1407528682364,0.170171871056,9.55758333234,0.594334378453,0.0
1407528682365,-0.0899133544551,9.47437901672,0.404172159034,0.0
1407528682370,-0.185521291295,9.45880808384,0.154660999427,0.0
1407528682389,-0.323508783928,9.52256038489,-0.147231648194,0.0
1407528682395,-0.547670211766,9.59041982598,-0.104998837019,0.0
1407528682398,-0.68995516041,9.5968824906,-0.0840181086646,0.0
1407528682418,-0.891404408248,9.7925293241,-0.40104530224,0.0
1407528682418,-0.996945913489,10.1009025401,-0.53697075711,0.0
1407528682438,-0.747485634402,10.3385762433,0.103411203807,0.0
1407528682438,0.013729120111,10.1270936115,0.969064950793,0.0
1407528682451,0.924680950724,9.73042845414,1.22641187259,0.0
1407528682465,1.66992706909,9.54595221799,0.943298838146,0.0
1407528682469,2.33219935788,9.66151011135,0.586354961888,0.0
1407528682484,2.47153331407,10.2285941925,0.024786333387,0.0
1407528682509,2.17320396673,11.0734215238,-0.035861014101,0.0
1407528682510,1.73103798831,11.7530936277,0.0069874833686,0.0
1407528682510,1.32384943178,12.2994967049,-0.179054130154,0.0
1407528682518,0.894748103901,12.5168245014,-0.176096634958,0.0
1407528682545,0.276385602146,12.3368404275,0.209152490724,0.0
1407528682546,-0.28334301465,12.0936781536,0.390121507353,0.0
1407528682549,-0.969040253233,11.7839773312,0.922948149117,0.0
1407528682572,-1.29245564416,11.3724734096,1.08069719338,0.0
1407528682573,-1.45679618042,10.7020631842,1.30932032239,0.0
1407528682577,-1.1833636676,9.74371163596,1.07922967594,0.0
1407528682612,-0.88362426635,8.79314680393,0.715169191803,0.0
1407528682613,-1.03187615623,8.29357490038,0.886044660391,0.0
1407528682614,-1.07519697415,8.04526974636,0.915270676111,0.0
1407528682618,-1.35555552994,8.5728815082,0.373007745118,0.0
1407528682646,-1.4685335073,9.5752935807,-0.39381271185,0.0
1407528682647,-1.47277872968,10.749791936,-0.980288001191,0.0
1407528682649,-1.63760325564,11.7699976583,-0.903326247577,0.0
1407528682672,-1.45349456373,12.3239202598,-0.281364586333,0.0
1407528682673,-1.1210529176,12.6716069567,0.103177929738,12.6716069567
1407528682678,-0.917988209493,12.6139662632,0.0246189226896,0.0
1407528682709,-0.988572107193,12.2999433344,-0.220560114077,0.0
1407528682710,-1.06672032644,11.6194969215,-0.498691458747,0.0
1407528682711,-1.06598361707,10.6954777312,-0.66267871892,0.0
1407528682718,-1.13104761916,9.89585034319,-0.667564413827,0.0
1407528682745,-1.10182364982,9.22506509449,-0.777189829355,0.0
1407528682745,-0.766846576966,9.13240885743,-0.919956047685,0.0
1407528682776,-0.648840152554,9.21674443792,-0.92715517787,0.0
1407528682777,-0.502677648574,8.84857908111,-0.845752807391,0.0
1407528682778,-0.395588590136,8.40664985172,-0.718482499013,0.0
1407528682778,-0.108557591449,8.19348857508,-0.660267960223,0.0
1407528682807,0.096832564058,8.13971649243,-0.631688538028,0.0
1407528682809,0.311749227571,7.94862540738,-0.605882161968,0.0
1407528682811,0.359266522124,7.77452762553,-0.474777888249,0.0
1407528682821,0.274333448545,7.69413416003,-0.478922532955,0.0
1407528682855,-0.0681354452917,7.77386129702,-0.506400534917,0.0
1407528682857,-0.36106590688,7.71405415686,-0.485520543833,0.0
1407528682858,-0.758878655435,7.48290045994,-0.420397127477,0.0
1407528682860,-0.892577112242,7.14882211591,-0.571415223058,0.0
1407528682897,-1.04394588533,7.28786469207,-0.749485365673,0.0
1407528682898,-1.10503377344,7.29155312754,-0.851823551074,0.0
1407528682899,-1.25181716915,7.24360947814,-0.921094929853,0.0
1407528682901,-1.15532943117,7.17026050717,-0.930072013628,0.0
1407528682933,-1.04762015735,7.11564516166,-0.983725642283,0.0
1407528682935,-0.775894603666,7.03307361891,-1.08792323324,0.0
1407528682939,-0.43742172521,6.83623731925,-1.15318723448,0.0
1407528682957,-0.155122981987,6.56552842038,-1.17306370023,0.0
1407528682958,0.131018370902,6.48090024389,-1.07046031775,0.0
1407528682958,0.422887115204,6.4071816099,-0.931030599697,0.0
1407528682981,0.406007311076,6.43486457748,-0.780051697682,0.0
1407528682982,-0.0452298296299,6.49381404402,-0.757633291827,0.0
1407528683004,-0.380294006581,6.65425014377,-0.839602174744,0.0
1407528683005,-0.217103297015,7.65897069667,-1.0825606255,0.0
1407528683010,0.24837968269,9.21379102772,-1.00498012937,0.0
1407528683036,-0.282574932401,10.3195190395,-0.65805867348,0.0
1407528683037,-0.92405204733,10.861506363,-0.225472034865,0.0
1407528683039,-1.2886767351,11.1329152957,0.374461608221,0.0
1407528683051,-1.66739777025,11.5333228588,0.94623282892,0.0
1407528683075,-1.58889164499,12.3432598818,0.766724996055,0.0
1407528683076,-0.743709280326,12.4228845891,-0.147274893127,0.0
1407528683079,0.507842359421,11.6746135207,-1.00143906391,0.0
1407528683111,1.70401594914,10.636534001,-1.49398580643,0.0
1407528683112,2.49518835161,10.2855227736,-1.88239120146,0.0
1407528683113,2.87819910677,10.6441380881,-1.61995755293,0.0
1407528683147,2.93869444093,11.1844087271,-1.23042171801,0.0
1407528683147,2.37446056837,12.0043302083,-0.89559770528,0.0
1407528683148,1.95887590449,12.7989927627,-0.267544846198,0.0
1407528683150,1.52375871481,13.2685226937,-0.0926429090116,13.2685226937
1407528683166,0.915101002669,12.9060067917,-0.284146289306,0.0
1407528683182,0.0432975334846,12.222192035,-0.373240214263,0.0
1407528683182,-1.29830633999,12.2010384332,-0.287982555506,0.0
1407528683197,-2.61986596276,12.8709388172,-0.0240998683273,0.0
1407528683198,-3.96623567856,13.1899570074,0.439852688088,0.0
1407528683220,-5.04732894429,12.2325069772,1.11974753738,0.0
1407528683221,-5.26269423932,10.7870546503,1.43503935443,0.0
1407528683232,-4.2317233419,9.96740510806,1.00477410644,0.0
1407528683254,-3.00335953773,9.362579437,0.453816422512,0.0
1407528683255,-2.12916220209,9.06774485145,0.410499568814,0.0
1407528683259,-1.37576239397,8.95176091078,0.491475572203,0.0
1407528683286,-0.580353824945,8.70081303384,0.678511328088,0.0
1407528683286,-0.31165010892,8.43386335439,0.898143655175,0.0
1407528683293,-0.219794168525,8.17330645218,0.956338544575,0.0
1407528683299,-0.106853455148,7.44805346463,0.978688649144,0.0
1407528683323,-0.47100322188,7.43226787323,0.87181046137,0.0
1407528683324,-0.694291618604,7.66870947684,0.843989697406,0.0
1407528683330,-0.75283897246,7.95106586484,0.836840854032,0.0
1407528683354,-1.28475189911,8.44555940175,1.02362956913,0.0
1407528683355,-1.73111570241,8.83125448235,1.34391809397,0.0
1407528683359,-1.74569214774,9.13020293795,1.57314847158,0.0
1407528683387,-1.36770727494,9.26463013785,1.68871679817,0.0
1407528683388,-1.08879053008,9.35664126698,1.54071169356,0.0
1407528683390,-0.757535627951,9.28609209603,1.48229243853,0.0
1407528683399,-0.576009994429,8.9844208628,1.24597725053,0.0
1407528683429,-0.822928173497,8.71562792284,0.964240653642,0.0
1407528683430,-0.795048777464,8.31646629218,0.951901652264,0.0
1407528683431,-0.519638865855,7.98567033089,0.763450245994,0.0
1407528683455,-0.357514650089,7.71750806748,0.502697477116,0.0
1407528683455,-0.219053587563,7.43911107806,0.35406942554,0.0
1407528683459,-0.195486926523,7.22753900508,0.124416738538,0.0
1407528683490,-0.205120621715,7.72712150754,0.0282302289138,0.0
1407528683491,0.0604350528059,8.12882989918,0.0120093192553,0.0
1407528683492,0.140805833642,8.01661699373,0.292467357016,0.0
1407528683499,0.403076974939,8.19795508644,0.362928770694,0.0
1407528683517,0.710737607784,8.38389295585,0.333552053255,0.0
1407528683535,1.07567957631,8.44761721166,0.353897369753,0.0
1407528683535,1.48177832361,8.73197029629,0.50938868604,0.0
1407528683539,1.95348108773,8.98403196103,0.624217304697,0.0
1407528683551,2.26560473967,9.16942322663,0.758818754469,0.0
1407528683572,2.39657176786,9.27876614851,0.81691812919,0.0
1407528683573,2.24291802076,9.4146614538,0.878487643863,0.0
1407528683579,2.07681376324,9.43796636584,1.08817582171,0.0
1407528683609,2.01612505759,9.61574203616,0.660776365868,0.0
1407528683610,2.01834335589,9.58369006367,0.154482675171,0.0
1407528683611,1.76181592455,9.62377308971,-0.425742796301,0.0
1407528683680,1.07842700289,9.97638256666,-1.02968655194,0.0
1407528683682,-0.149308864788,10.4283804424,-1.40497322596,0.0
1407528683684,-1.1173515202,10.4483615167,-1.1003515035,0.0
1407528683686,-0.831717888851,9.71116471935,0.491359671353,0.0
1407528683689,0.696150789546,8.64206668582,1.76070902716,0.0
1407528683692,1.85645299262,8.55473155621,0.952742639721,0.0
1407528683693,2.75299749308,8.77224077552,-0.452416398114,0.0
1407528683715,3.18249372377,9.35372213044,-0.596611898721,0.0
1407528683716,2.94087176241,10.3083905698,-0.448971256488,0.0
1407528683716,2.47403004176,11.2839619394,-0.0977454911566,0.0
1407528683740,1.8530366764,12.4352612735,0.673551779491,0.0
1407528683741,1.18314804363,13.3926900623,1.19375916419,0.0
1407528683741,0.485813607052,13.9230830453,1.07303764304,13.9230830453
1407528683765,-0.0359585439993,13.7773802561,1.14718906181,0.0
1407528683766,-0.925634573302,13.1513578451,1.28653385635,0.0
1407528683781,-1.94833719205,12.4052751446,1.22509661116,0.0
1407528683782,-2.37396426064,11.6515523287,0.906461124552,0.0
1407528683795,-2.444386187,10.7785569586,0.478191294311,0.0
1407528683799,-2.49229839894,9.76900783322,0.385306700043,0.0
1407528683815,-2.28121697758,9.30368500284,0.144388240926,0.0
1407528683833,-2.2862003845,9.02223835977,-0.406179507491,0.0
1407528683835,-2.06083299323,9.37803655252,-1.11985659287,0.0
1407528683839,-2.0249487432,10.1128683728,-2.05517835919,0.0
1407528683864,-2.30016899142,11.0799106454,-1.71233346422,0.0
1407528683865,-2.37397173677,11.9843753062,-0.545423890805,0.0
1407528683881,-2.10532290872,12.7308199711,0.061276823638,0.0
1407528683882,-1.35336897517,13.457748961,0.129721528481,0.0
1407528683896,-0.917612156728,13.8213562381,-0.127538170192,0.0
1407528683899,-0.866481958626,13.000098723,-0.3567544241,0.0
1407528683912,-0.711696413832,11.9178009396,-0.427084522491,0.0
1407528683927,-0.491343902546,10.8816559434,-0.28580483739,0.0
1407528683931,-0.435399967073,9.91913603508,-0.01259624002,0.0
1407528683945,-0.209142894238,8.90437933962,-0.141364095994,0.0
1407528683963,0.025831999898,8.22256147843,-0.803649117926,0.0
1407528683963,-0.0761032350546,7.95271148845,-1.13427368159,0.0
1407528683981,0.136090335385,7.31827372765,-1.17154031509,0.0
1407528683981,0.612292107347,6.66166455743,-1.13018856458,0.0
1407528683995,0.570483688365,6.64880884765,-1.06802795703,0.0
1407528683999,0.357494767537,6.74837517827,-1.02498253501,0.0
1407528684015,0.231971852844,6.73288626687,-1.02579145323,0.0
1407528684032,0.0961496513724,6.66887103153,-0.934776603622,0.0
1407528684032,-0.405042683485,6.64148721679,-0.889904087436,0.0
1407528684046,-1.04778280559,6.50438905234,-1.03263798704,0.0
1407528684063,-1.53696945378,6.33195941184,-1.19310714809,0.0
1407528684064,-1.71270353795,6.03968968785,-1.28135378502,0.0
1407528684081,-1.81849425536,6.04922106322,-1.38968711213,0.0
1407528684081,-1.66125911651,6.07159641154,-1.62946746283,0.0
1407528684096,-1.31380350097,6.2283542306,-1.92381729134,0.0
1407528684111,-0.599118015625,6.09891705272,-1.9935960735,0.0
1407528684112,0.0972791164893,5.96414694384,-1.87563960399,0.0
1407528684126,0.575095929389,5.88334737867,-1.60398443844,0.0
1407528684132,0.861289506501,5.68111370039,-1.22878108721,0.0
1407528684144,0.838082725906,5.47080266372,-0.872012407812,0.0
1407528684161,0.379975444964,5.66051219925,-0.790040179311,0.0
1407528684161,-0.116473363092,6.50153811865,-1.17612653783,0.0
1407528684179,0.986622448418,8.20816434084,-1.74250808208,0.0
1407528684180,2.00085414378,10.3178641363,-1.53408711513,0.0
1407528684200,1.9241375811,11.7545296452,-0.723339517018,0.0
1407528684200,0.782698822065,12.5278700015,-0.131058724324,0.0
1407528684211,-0.473423468762,12.6217487298,0.952634267681,0.0
1407528684235,-1.17247869756,12.9666479736,1.88790461497,0.0
1407528684235,-0.688255039134,12.8966295309,0.662368068926,0.0
1407528684239,0.603722665185,11.7284785421,-1.10320256341,0.0
1407528684266,1.76807282558,11.020948168,-2.35033182756,0.0
1407528684266,2.27045388484,10.9423787125,-2.80570550004,0.0
1407528684271,2.31829759619,11.2439341847,-2.38695925138,0.0
1407528684279,1.64399322105,11.7714431,-1.51041774778,0.0
1407528684296,0.794923396164,12.3635529296,-0.511145188734,0.0
1407528684314,0.957264564032,12.4888765211,0.118923282439,0.0
1407528684315,0.77004728385,12.2532472798,0.179301144983,0.0
1407528684333,-1.29200563631,12.5378618896,0.431820538424,0.0
1407528684334,-3.20252488045,13.1967667266,0.584655127502,0.0
1407528684340,-4.00244824821,13.6780927351,0.164133365604,0.0
1407528684362,-5.20045381856,14.3954770636,0.483183377132,14.3954770636
1407528684363,-5.22170193942,14.0685683602,0.905298532854,0.0
1407528684381,-4.38423554225,11.6763043925,1.24313462217,0.0
1407528684382,-3.2728366073,9.18125098327,1.08713513666,0.0
1407528684395,-2.39230366417,7.75587146195,0.860169208772,0.0
1407528684412,-2.01639765027,7.69566059894,0.761447498178,0.0
1407528684412,-1.35837913473,8.04551117149,0.830857793854,0.0
1407528684428,-0.487738589768,8.2582093633,0.704488920349,0.0
1407528684445,-0.300813077567,8.48758477753,0.56821772987,0.0
1407528684446,-0.301015486214,8.74531999812,0.399971594979,0.0
1407528684462,-0.0822735173863,8.89235332103,0.307127380902,0.0
1407528684463,-0.304249620058,9.11898733569,0.451677940743,0.0
1407528684480,-0.616857196342,9.04551914595,0.881896495638,0.0
1407528684480,-1.21507440575,9.55201779452,1.03621918837,0.0
1407528684496,-1.43696080687,10.0885575815,1.29069951119,0.0
1407528684511,-1.36855668289,10.6311487947,1.59866280214,0.0
1407528684511,-1.01429717741,10.9885314115,1.70588716124,0.0
1407528684526,-0.562427568164,10.8580268628,1.67926849761,0.0
1407528684531,-0.198324481731,10.2965405607,1.59815386653,0.0
1407528684544,-0.0332596735001,9.33013910632,1.5248140033,0.0
1407528684561,-0.197826027866,8.38510324785,1.20019688516,0.0
1407528684561,-0.331035451049,7.61175778057,0.730815453549,0.0
1407528684576,-0.40708401158,7.40539993569,0.301897133473,0.0
1407528684580,-0.862349332603,7.62241950692,-0.074498033445,0.0
1407528684615,-0.937841081815,7.30224192705,0.0410699974313,0.0
1407528684617,-0.699423948645,6.84007229746,0.136079072929,0.0
1407528684618,-0.623490888412,6.77926464332,-0.0679147143801,0.0
1407528684620,-0.513621587264,6.92697602322,-0.0930840672335,0.0
1407528684656,-0.369533614376,7.12642473048,-0.0198096781963,0.0
1407528684657,-0.20463150058,7.24731219949,0.126270088712,0.0
1407528684659,0.0629294511412,6.94880946548,0.331500782104,0.0
1407528684660,0.249699042269,6.80584338928,0.353840598593,0.0
1407528684698,0.538401129137,7.04492213589,0.376172356492,0.0
1407528684700,1.03870307658,7.45402496888,0.527883794596,0.0
1407528684701,1.56581565286,7.87719805591,0.632464213227,0.0
1407528684702,2.02714246763,8.26271025577,0.81147892156,0.0
1407528684712,2.4415406312,8.45452491483,1.01494892172,0.0
1407528684740,2.66249521968,8.48656946567,1.04503294122,0.0
1407528684741,2.52963976968,8.69759074418,0.921927595463,0.0
1407528684742,2.07733832262,8.96897319899,0.412567625941,0.0
1407528684772,1.54553576568,9.24543938044,0.0553379704826,0.0
1407528684773,1.2056607281,9.82107503028,-0.26357103727,0.0
1407528684773,1.05273398664,10.7526626278,-0.824729317786,0.0
1407528684780,0.662298356901,11.3476360302,-0.985953066405,0.0
1407528684806,0.644841693752,11.0439531984,-0.0105076831145,0.0
1407528684807,1.10156081667,10.0286936859,1.31441267173,0.0
1407528684811,2.50548621704,8.82694414941,1.4860317849,0.0
1407528684829,3.48734641824,8.64246237255,0.98620770403,0.0
1407528684851,3.67495660713,9.3214822809,0.0588457041344,0.0
1407528684852,3.51328601505,10.2661245976,-0.516124052778,0.0
1407528684854,2.97319668716,11.1444477808,-0.488042721011,0.0
1407528684860,2.22376487096,12.1029009677,-0.0206576159448,0.0
1407528684885,1.31485162379,13.0316865103,0.503236561948,0.0
1407528684886,0.46608874491,13.5056312347,1.08294321197,0.0
1407528684892,-0.0620334098538,13.3707703841,0.88232662585,0.0
1407528684921,-0.58008632575,13.1074859245,0.651945580084,0.0
1407528684922,-1.0049076591,12.5369748944,0.650894261096,0.0
1407528684923,-1.44726318839,11.8312573249,0.868134653932,0.0
1407528684950,-1.53564503153,11.0183085345,1.14452521446,0.0
1407528684951,-1.33284703905,10.094628287,0.839181609664,0.0
1407528684952,-1.07940683144,9.27815089157,0.347054076861,0.0
1407528684960,-1.12470039568,8.94879032503,0.619707140885,0.0
1407528684981,-1.4495402097,9.26112084709,0.648215590849,0.0
1407528684982,-1.73873467357,9.9663898651,-0.237073135684,0.0
1407528684993,-1.89738386887,10.8110376843,-1.32860166439,0.0
1407528685021,-2.11309937168,11.6714288114,-1.69168262894,0.0
1407528685022,-1.81851443881,13.2358707918,-0.45916569293,0.0
1407528685023,-1.36567119029,13.9336662704,0.236778267564,13.9336662704
1407528685051,-0.889863691596,13.8765112576,0.239824521384,0.0
1407528685052,-0.295556603129,13.4920974927,0.070985184112,0.0
1407528685052,0.0798095083666,13.0301541999,-0.404088901504,0.0
1407528685060,-0.283806430427,11.8696748459,-0.611151105633,0.0
1407528685078,-0.820342010295,10.1927947912,-0.35269015061,0.0
1407528685100,-0.811386190006,9.20122976341,-0.285837923057,0.0
1407528685101,-0.591414611113,8.86253260225,-0.504915851802,0.0
1407528685102,-0.649024253845,8.06367173814,-0.754531347804,0.0
1407528685112,-0.246555291319,7.36506196157,-1.09225456848,0.0
1407528685143,0.0507586471986,7.39834663692,-1.42806237653,0.0
1407528685143,0.34221620099,7.34086477208,-1.41686635103,0.0
1407528685144,0.400665982141,7.04068619882,-1.22044295339,0.0
1407528685171,0.120552610151,6.91671791912,-1.09639461542,0.0
1407528685172,-0.0530932047992,6.37753884652,-0.937832935679,0.0
1407528685173,0.0651181169748,6.27754677909,-0.830686531941,0.0
1407528685201,0.344917648818,6.92073508894,-0.773285323728,0.0
1407528685202,-0.105934965065,6.98124023392,-0.777801840911,0.0
1407528685203,-0.633777357575,6.83112390777,-0.773339288354,0.0
1407528685233,-0.861981321565,6.54886502678,-0.737103849065,0.0
1407528685234,-1.00569937691,6.42402100834,-0.950910210196,0.0
1407528685235,-0.963447852029,6.31900098201,-1.18923756607,0.0
1407528685241,-0.720256343533,6.24788085867,-1.51932796755,0.0
1407528685263,-0.351152939731,6.31143347534,-1.86987241103,0.0
1407528685263,0.254113133997,6.26812036567,-1.94183148619,0.0
1407528685274,0.896591499536,6.0914230788,-1.65668961847,0.0
1407528685299,1.34240646047,5.83604221701,-1.30490908263,0.0
1407528685299,1.50555071444,5.6445195481,-0.999615836822,0.0
1407528685301,1.03438583437,5.55160961746,-0.703114124062,0.0
1407528685312,-0.0253467163997,5.84520803966,-0.739956330126,0.0
1407528685332,0.269824702761,7.09884686905,-1.18383657103,0.0
1407528685333,1.44087822611,9.25032926374,-1.49056076392,0.0
1407528685341,1.35631940435,10.8762087945,-1.55114093682,0.0
1407528685364,1.0239827653,11.7829076554,-0.953187828276,0.0
1407528685365,-0.187588083577,12.3147034255,0.404494275053,0.0
1407528685373,-0.692536052907,12.9753582125,1.66239478449,0.0
1407528685400,0.0739837381064,13.4344898013,1.03404165026,0.0
1407528685401,1.41788363995,12.2902223172,-0.656064837212,0.0
1407528685402,2.53019235447,11.2648104639,-1.97605779078,0.0
1407528685433,3.29983413697,10.6708770212,-2.54452474889,0.0
1407528685434,3.16421878744,10.8117191561,-1.96036096455,0.0
1407528685434,1.67689690805,11.5214183864,-1.12656096273,0.0
1407528685441,0.349401626649,12.6516224338,-0.0736297809155,0.0
1407528685465,0.24331895548,13.6737636622,0.638775043033,0.0
1407528685466,-0.263553865915,13.9352600289,0.490678194853,0.0
1407528685473,-1.89092822407,14.0709280968,0.29576930686,0.0
1407528685499,-4.00391492949,14.124414097,0.678509701881,14.124414097
1407528685500,-5.20261862927,13.8012128837,0.606730669702,0.0
1407528685501,-5.52062260006,13.4691630492,0.778852458462,0.0
1407528685527,-4.98465978036,11.8856058065,0.944449850033,0.0
1407528685528,-4.15877596015,10.0262609506,0.806985817233,0.0
1407528685547,-2.70164134923,8.57726264381,0.51736932081,0.0
1407528685547,-1.9787960423,8.00354496556,0.746932007592,0.0
1407528685552,-1.33373105891,8.44704219999,1.03106108346,0.0
1407528685560,-0.532722939029,8.9197828127,1.14374763825,0.0
1407528685573,-0.0635662106229,9.10328223297,1.22777072797,0.0
1407528685593,0.00905929063942,9.21774350017,1.1772163065,0.0
1407528685594,-0.120034054318,9.33702538853,1.12625079632,0.0
1407528685614,-0.492058919542,9.38418472604,1.09618674071,0.0
1407528685614,-0.892241160894,9.21717667458,1.25008150103,0.0
1407528685620,-1.19985185508,9.31467017513,1.36041740181,0.0
1407528685653,-1.56445174904,9.69337901604,1.36887473578,0.0
1407528685655,-1.77064281634,10.3555563857,1.27562044274,0.0
1407528685656,-1.46978038944,10.5379806622,1.3599472567,0.0
1407528685661,-1.0427943597,10.7815195647,1.533574704,0.0
1407528685680,-0.761286942965,10.7029649507,1.59190726429,0.0
1407528685681,-0.526399602873,10.0716611781,1.55739222559,0.0
1407528685696,-0.260850116514,9.16008272842,1.49478632382,0.0
1407528685723,-0.249642928942,8.39932719479,1.1783920033,0.0
1407528685724,-0.291482284009,7.73712187504,0.790811582438,0.0
1407528685731,-0.315047357216,7.44349489619,0.38579779806,0.0
1407528685759,-0.537323354403,7.26544463463,0.0453721826539,0.0
1407528685760,-0.485501253907,6.92789403189,0.108437942328,0.0
1407528685761,-0.02246248047,6.71380239089,0.332589720964,0.0
1407528685762,0.213274283077,6.68652692413,0.181850788315,0.0
1407528685778,0.275527420145,7.00956850709,-0.0526096482014,0.0
1407528685781,0.494743938407,7.03711129459,-0.0932101770432,0.0
1407528685794,0.640192057943,6.69691848817,0.00171073652379,0.0
1407528685819,0.944161435335,6.35545733809,0.162089157484,0.0
1407528685820,1.25898813837,6.1014477749,0.0900664435038,0.0
1407528685821,1.40609212906,6.08363233844,0.109928775355,0.0
1407528685846,1.59070995804,6.49383163409,0.464587748526,0.0
1407528685847,1.78481445226,6.92207718962,0.882825684232,0.0
1407528685853,1.71741165045,6.98665794231,1.18846438421,0.0
1407528685875,1.56838692306,7.03399795577,1.31269317311,0.0
1407528685875,1.35316953192,7.35139952807,1.40240417355,0.0
1407528685887,1.27183859144,7.93943541023,1.18999142645,0.0
1407528685893,0.993943691406,8.66004597264,0.729025008941,0.0
1407528685916,0.745043831343,9.57794389815,0.351237452811,0.0
1407528685917,0.464797028613,10.4830124475,-0.0631349229391,0.0
1407528685921,0.264976441465,11.3182162085,-0.798800475897,0.0
1407528685947,0.424051968011,12.0875697131,-1.11983466835,0.0
1407528685948,0.974505570356,12.0187374677,-0.629636383962,0.0
1407528685953,1.64071303541,10.7761602259,0.779723627979,0.0
1407528685972,2.81141173882,9.58214500072,1.40862259204,0.0
1407528685973,3.95940360864,9.49596094963,0.112944980305,0.0
1407528685988,4.33936493041,11.0288768363,0.0462504280929,0.0
1407528686011,3.79206073146,11.8824217539,0.212993964502,0.0
1407528686012,3.07668494434,12.5835492035,0.655353760668,0.0
1407528686013,2.30759940522,13.0480019836,0.890511899827,0.0
1407528686021,1.66994565901,13.25281687,0.97790155082,0.0
1407528686045,0.955198992694,12.9554145826,1.48715881293,0.0
1407528686046,0.48392420793,12.4035392011,1.93193356609,0.0
1407528686054,0.254804469404,12.0526578363,2.09669288966,0.0
1407528686081,-0.123358285313,11.4109680134,1.94690129715,0.0
1407528686082,-0.667182292937,10.5323808356,1.21896623417,0.0
1407528686083,-1.41573263251,9.88164168343,0.648288132284,0.0
1407528686093,-2.16784651014,9.67183222824,0.886752521735,0.0
1407528686120,-2.97536133372,10.1733657281,0.584506180954,0.0
1407528686121,-3.38952947518,11.0483788072,0.0259873743965,0.0
1407528686122,-3.33237796101,11.8464386031,-1.02056968556,0.0
1407528686150,-3.86091224673,12.546335953,-2.02937343121,0.0
1407528686151,-3.45898177819,13.5491097139,-1.15577620862,0.0
1407528686153,-2.67245626057,13.7136933351,-0.0561370887339,13.7136933351
1407528686177,-1.92446724758,13.393277032,0.114808775715,0.0
1407528686178,-1.12127564172,12.7667562566,-0.297787386237,0.0
1407528686182,-1.1103225915,12.0322843323,-0.738138715478,0.0
1407528686193,-1.29519254638,11.0150563174,-0.636636021044,0.0
1407528686220,-1.22287362524,10.0892944581,-0.474938492972,0.0
1407528686220,-0.80152175621,9.38226186942,-0.76153282351,0.0
1407528686222,-0.670255637427,8.8729604199,-1.292486271,0.0
1407528686248,-0.520717360802,8.27115731768,-1.32634923974,0.0
1407528686249,-0.0865048362601,7.84392381258,-1.17411827221,0.0
1407528686253,0.38551044996,7.40590158705,-1.19925120586,0.0
1407528686273,0.703777080609,7.27967310793,-0.941134139518,0.0
1407528686273,0.96383002843,7.22555024527,-0.687818675717,0.0
1407528686289,1.0888955656,7.21947356169,-0.553856360346,0.0
1407528686314,1.216848286,7.07843093914,-0.429421714624,0.0
1407528686314,0.922607648266,7.06396239152,-0.427203720085,0.0
1407528686315,0.334382565003,6.58606849073,-0.487756455258,0.0
1407528686322,-0.118673274538,5.81243534207,-0.565566900082,0.0
1407528686351,0.120657736821,5.8298399521,-0.92205924629,0.0
1407528686351,0.152622700647,6.17866695888,-0.941877741606,0.0
1407528686355,0.121287094748,5.97694947287,-1.05869992154,0.0
1407528686370,0.208437826206,5.7782923936,-1.2983237762,0.0
1407528686373,0.462178837648,5.66122972547,-1.50887934545,0.0
1407528686387,0.827540945238,5.46824209943,-1.71266331482,0.0
1407528686409,1.02217352769,5.23617533124,-1.76597297618,0.0
1407528686410,1.12385732316,5.05731061442,-1.5900589288,0.0
1407528686432,1.33728899693,4.92060988585,-1.42502542662,0.0
1407528686432,1.00541853533,5.09581150711,-1.29550962906,0.0
1407528686433,0.282670178038,5.50216601023,-1.04573894551,0.0
1407528686442,0.278546579753,6.54107291498,-0.888892628229,0.0
1407528686462,1.29283938766,8.94196807642,-0.801162685657,0.0
1407528686463,1.1378516279,11.3110289193,-0.862917964693,0.0
1407528686474,0.387750234262,12.7028801258,-0.802720991247,0.0
1407528686495,-0.793734282596,13.1090785255,-0.0285912101924,0.0
1407528686496,-1.7175812699,12.8076389524,1.20727333398,0.0
1407528686501,-1.37349768622,13.1276809553,1.1257442428,0.0
1407528686530,-0.574031187057,12.2928511229,-0.482668587172,0.0
1407528686531,0.827239212975,11.2387266854,-1.96298769635,0.0
1407528686536,1.95347091039,10.711908036,-2.87119361928,0.0
1407528686542,2.47043799045,10.9029615706,-3.45163427162,0.0
1407528686566,2.58047243936,11.7081535024,-3.41296658616,0.0
1407528686567,2.31396254759,12.7078741327,-2.61780975053,0.0
1407528686574,1.47959619607,13.2050902311,-0.82104168579,0.0
1407528686607,0.423776976909,12.7807872722,0.259067212819,0.0
1407528686609,0.757944870663,12.0191261728,0.0493196790442,0.0
1407528686610,-0.906915060332,12.6050847042,0.817032626182,0.0
1407528686644,-2.35944915784,13.232211305,0.880490514404,0.0
1407528686645,-2.26084098457,14.0861820498,0.330756082252,0.0
1407528686646,-4.33322402027,14.6085792978,0.0824720903201,14.6085792978
1407528686648,-4.65342328099,13.4565122198,0.465581608111,0.0
1407528686655,-4.0956318871,11.301174849,0.950139574971,0.0
1407528686663,-2.79115562407,9.16115160877,0.585637002721,0.0
1407528686674,-1.82304915032,8.15673565275,0.434384906148,0.0
1407528686705,-1.3296198313,8.37951000374,0.619367729302,0.0
1407528686705,-0.696163009047,9.00974911681,0.935246234759,0.0
1407528686706,-0.122385419062,9.37019330456,0.886734500197,0.0
1407528686729,0.0803532099276,9.28917274719,0.813285692872,0.0
1407528686730,0.188653637982,9.10900982209,0.753855158315,0.0
1407528686734,0.26080084723,8.83182148662,0.63482730371,0.0
1407528686781,0.124240907449,8.45747046647,0.645958823907,0.0
1407528686783,0.0526729671142,8.05316413168,0.824823475457,0.0
1407528686785,-0.339434953238,8.45082427128,0.754065868044,0.0
1407528686786,-0.766023341478,8.95689732961,0.825181305428,0.0
1407528686787,-1.08330959983,9.61244718931,1.12377677562,0.0
1407528686805,-1.08059716829,9.9704500366,1.41522812433,0.0
1407528686806,-0.996704023768,9.76402044403,1.67090387476,0.0
1407528686826,-0.802702397925,9.21533982962,1.78718756858,0.0
1407528686827,-0.673345712192,8.59174301669,1.67192976287,0.0
1407528686836,-0.614291551804,8.06495571768,1.22359587726,0.0
1407528686862,-0.582593257893,7.70376491275,0.865155197038,0.0
1407528686863,-0.51303294713,7.74885874714,0.640259949966,0.0
1407528686878,-0.516507404253,7.8431046471,0.345563806309,0.0
1407528686883,-0.714594273067,7.31071108775,0.126295194294,0.0
1407528686928,-0.659304917368,6.8609092673,0.0362466591151,0.0
1407528686929,-0.324920493164,6.76561005295,-0.0479613941018,0.0
1407528686931,0.0997975537336,6.75100948182,-0.054688437956,0.0
1407528686932,0.459404091181,6.68741949113,-0.0868037233252,0.0
1407528686935,0.839405413492,6.32907694095,0.00546279916891,0.0
1407528686936,1.14921584608,6.09974764546,0.181852804001,0.0
1407528686959,1.37489479399,6.20333468871,0.269196358079,0.0
1407528686960,1.40115673358,6.54423085965,0.408267389777,0.0
1407528686962,1.36548122963,7.07842074641,0.713779560651,0.0
1407528686975,1.48049519091,7.3840085323,1.07212798139,0.0
1407528686989,1.62567579792,7.7462084567,1.20713004645,0.0
1407528687003,1.90833914441,8.27248314933,1.13079934925,0.0
1407528687004,2.22172842383,8.9046189396,1.04668271505,0.0
1407528687022,2.30792819616,9.46923614589,0.873316058082,0.0
1407528687023,1.95750602009,9.98924316819,0.510501304051,0.0
1407528687040,1.84100623643,10.3342672344,0.179341439722,0.0
1407528687060,2.21433571519,10.5973446378,-0.0908063897966,0.0
1407528687060,2.05527317596,10.6660884063,-0.293746238597,0.0
1407528687062,1.83981147412,10.8796700501,-1.4008575269,0.0
1407528687085,1.41741443522,11.2088123157,-1.12331442884,0.0
1407528687086,1.28038276602,10.7855747262,0.0279981232622,0.0
1407528687111,2.10108140223,9.54259807154,1.6120368348,0.0
1407528687112,3.27279191582,8.74113597134,1.93614455741,0.0
1407528687114,3.75541960929,9.22507000023,0.916634656911,0.0
1407528687123,3.87341148391,10.1940718256,0.0767796266958,0.0
1407528687148,3.61895862394,11.1405324816,-0.307201530485,0.0
1407528687148,2.88967342548,11.9600216738,-0.0775539809565,0.0
1407528687154,1.95632282858,12.6034682812,0.167910583799,0.0
1407528687172,1.15301178245,13.143647222,0.423601935076,0.0
1407528687188,0.725879550608,13.0001405474,0.557390102099,0.0
1407528687188,0.172487035257,12.4491863911,0.627539353831,0.0
1407528687203,-0.685096271403,11.9056528468,0.617495498673,0.0
1407528687204,-1.52391776166,11.4513429238,0.672074962318,0.0
1407528687220,-2.13088054875,10.9259983111,0.681063938401,0.0
1407528687223,-1.4684283882,8.85933266012,0.547914758286,0.0
1407528687235,-0.817076774772,8.62442336328,1.38135099839,0.0
1407528687250,-0.985576649189,9.82531507342,1.59495710417,0.0
1407528687277,-1.19798202463,11.297723904,0.365079287693,0.0
1407528687278,-1.49479800678,12.2696939639,-1.1809147058,0.0
1407528687278,-2.12940576591,13.0949653051,-1.12169119263,0.0
1407528687282,-2.12134688183,14.1945320205,0.0388721386668,0.0
1407528687313,-1.65151459267,14.8323352629,0.683820304704,0.0
1407528687314,-1.06039580814,15.0124123316,0.55299812193,15.0124123316
1407528687315,-0.922095232763,14.3262160933,0.0622350768223,0.0
1407528687323,-0.958779220998,12.9433371093,-0.337941976092,0.0
1407528687346,-0.573940831665,11.3761388465,-0.507677795226,0.0
1407528687347,-0.591528558832,10.0713151386,-0.488181838588,0.0
1407528687354,-0.579543982379,9.13443344843,-0.435243240725,0.0
1407528687378,-0.437515291569,8.15187517453,-0.691063432036,0.0
1407528687379,-0.239326499619,7.36921903807,-0.968289841378,0.0
1407528687383,0.096789008996,6.95752918678,-1.25464902916,0.0
1407528687412,0.568236162041,6.9509477778,-1.47560572271,0.0
1407528687413,0.810053425669,6.75751989369,-1.5142727287,0.0
1407528687414,0.900127535348,6.57980208639,-1.41636687059,0.0
1407528687424,0.672892654097,6.45942586943,-1.19042939211,0.0
1407528687456,0.478197801526,6.16137432895,-0.983637966823,0.0
1407528687457,0.206593670253,6.06533495642,-0.898204030399,0.0
1407528687458,0.097636489401,6.02236995847,-0.748620568639,0.0
1407528687478,-0.230982616984,6.24773736529,-0.742582234449,0.0
1407528687479,-0.616490833022,6.28160182807,-0.732947776785,0.0
1407528687483,-0.802938901074,6.20502804775,-0.688096966181,0.0
1407528687511,-0.750335071054,6.10281930909,-0.578093077467,0.0
1407528687512,-0.666649853405,5.91874200379,-0.5415699812,0.0
1407528687515,-0.50745627082,5.84376372693,-0.638579953838,0.0
1407528687524,-0.0875040336856,5.73649067377,-0.919764661754,0.0
1407528687542,0.221795063753,5.75038057695,-1.23428411802,0.0
1407528687543,0.477300483571,5.76770038827,-1.41847816903,0.0
1407528687556,0.660706566205,5.72882629675,-1.56062489902,0.0
1407528687591,0.538855023845,5.79089975347,-1.58006009164,0.0
1407528687591,-0.0957133402054,6.30218206148,-1.39820865609,0.0
1407528687592,-0.84146865132,6.98915971984,-1.17989142885,0.0
1407528687595,-1.09802499607,7.74690330549,-1.09001855623,0.0
1407528687603,-0.310406359495,9.29988722796,-1.0404181344,0.0
1407528687627,0.0818896929945,11.0864642311,-1.08841299952,0.0
1407528687628,-0.215510110147,12.198625941,-0.610522030606,0.0
1407528687635,-0.47664255654,12.1476597126,0.719569524784,0.0
1407528687661,-0.729480920017,12.5977669467,1.61030636835,0.0
1407528687661,-0.209869991088,12.8666117773,0.946397389073,0.0
1407528687664,0.907345984155,12.2703244097,-0.85202150038,0.0
1407528687693,2.14525138298,11.8220446016,-2.26043215136,0.0
1407528687696,2.5506102162,11.6396345987,-2.84183462519,0.0
1407528687696,2.53601051666,12.026598569,-2.71494003355,0.0
1407528687703,1.94598874977,12.8130459688,-2.33094667804,0.0
1407528687720,0.892005361376,13.5630089551,-0.926332330111,0.0
1407528687736,0.0108673267279,13.7535285198,0.257252983078,0.0
1407528687736,0.255644912068,13.3024548055,-0.228865560333,0.0
1407528687752,0.899464580832,13.0405390273,-0.372336855986,0.0
1407528687755,-0.323467424539,12.8800024516,-0.00733498011392,0.0
1407528687768,-2.54334844413,12.394793428,0.429258239824,0.0
1407528687789,-4.45181434419,12.8697403779,0.0729167039216,0.0
1407528687789,-5.64826847545,13.8946562928,0.21204397597,13.8946562928
1407528687803,-5.41252074441,12.7961015713,1.13458229675,0.0
1407528687803,-4.5088516176,10.2804718094,1.37481167052,0.0
1407528687818,-3.14020020618,8.38594574503,0.921122938076,0.0
1407528687835,-2.45007362885,8.19017040917,0.718925984811,0.0
1407528687836,-1.64553474375,8.50630650092,0.716888705005,0.0
1407528687851,-0.995108882741,8.65564539815,0.5306431278,0.0
1407528687866,-0.518294175649,8.60900202214,0.175063535094,0.0
1407528687867,-0.0494128100732,8.55330035802,-0.114584896065,0.0
1407528687885,0.171571187185,8.37123003614,-0.239998004682,0.0
1407528687885,0.241521877054,8.10269080964,-0.250236601894,0.0
1407528687900,0.139462984194,7.94545354247,0.203598399757,0.0
1407528687903,-0.3387356531,8.63044054511,0.63449346023,0.0
1407528687916,-0.957224904821,9.50156768216,1.06750405096,0.0
1407528687959,-1.04783834984,10.2138672223,1.43408732813,0.0
1407528687962,-0.556080868358,10.6041212194,1.57955451444,0.0
1407528687964,-0.112322775895,10.4227253896,1.65794401193,0.0
1407528687964,0.129442086683,9.71585914916,1.74888082946,0.0
1407528687965,0.437287645567,9.03608195823,1.73993693618,0.0
1407528687995,0.430892923817,8.43750045306,1.62321374924,0.0
1407528687997,0.355858937448,7.74733417557,1.35334687966,0.0
1407528687998,0.447800139044,7.21680838521,1.05298918026,0.0
1407528688004,0.488283015359,7.17135183865,0.731915580461,0.0
1407528688045,0.0113360029856,7.19085205838,0.277575781767,0.0
1407528688046,-0.0759305281862,6.87908159511,0.224295296471,0.0
1407528688047,0.0780236941682,6.77072536881,0.089278956831,0.0
1407528688048,0.411601171846,6.43052084255,-0.0435478672325,0.0
1407528688055,0.558084770551,6.4808552087,-0.134675676412,0.0
1407528688079,0.738596758307,6.73716139578,-0.185909167926,0.0
1407528688080,0.889023887935,7.02821694872,-0.12647091789,0.0
1407528688083,1.01176425872,7.34606181112,-0.0293166859773,0.0
1407528688110,1.20505700037,7.53747006071,0.155054449595,0.0
1407528688111,1.5273634902,7.80505913178,0.418376622254,0.0
1407528688115,1.83186360731,7.98458094903,0.64075557358,0.0
1407528688148,2.38787549514,8.04502891927,0.758043450104,0.0
1407528688149,2.68464876713,8.2059036398,0.855874178157,0.0
1407528688150,2.90215422622,8.38857735525,1.16758258338,0.0
1407528688177,2.94531173395,8.78198502865,1.17176329907,0.0
1407528688178,2.57799524623,9.27674006107,0.701995293255,0.0
1407528688178,2.19603995674,9.69138234658,0.208549348373,0.0
1407528688184,1.70683189178,10.1824240515,-0.251091235871,0.0
1407528688215,0.94957669344,10.6762263748,-0.869559172638,0.0
1407528688216,0.0123328292014,11.0436663488,-1.42706796832,0.0
1407528688217,-0.381435505666,11.0274241743,-1.35964791305,0.0
1407528688246,0.0278302090481,10.3079510004,-0.407683142425,0.0
1407528688247,1.65271381366,9.16408007834,0.600374437627,0.0
1407528688247,2.95726900191,8.65828846609,0.337057079483,0.0
1407528688270,3.58783698003,8.85717242873,-0.0923910987543,0.0
1407528688271,3.69240909915,9.66220416186,-0.211589277856,0.0
1407528688290,3.36234581642,10.8256284296,-0.0372098861559,0.0
1407528688291,2.71105842701,11.8561277968,0.390931438659,0.0
1407528688295,2.01951821954,12.7651924008,0.789877334472,0.0
1407528688303,1.4919559242,13.5098642411,0.762472669752,0.0
1407528688319,0.967185606505,13.7769824678,0.439332795465,13.7769824678
1407528688338,0.285452229358,13.6508540243,0.675967124715,0.0
1407528688338,-0.485061462886,13.1732835443,0.970990389447,0.0
1407528688343,-1.19488628638,12.4305831621,1.07206902549,0.0
1407528688370,-1.71819889371,11.4879928794,0.899916048221,0.0
1407528688370,-1.83204386656,10.5982303389,0.670929497354,0.0
1407528688389,-1.29197500139,9.64798220379,0.615698570784,0.0
1407528688390,-0.798558749853,9.41397618859,1.13461507623,0.0
1407528688396,-0.775853692151,9.59758471327,0.772896485811,0.0
1407528688404,-1.15752427156,10.1732863178,-0.0844215087186,0.0
1407528688427,-1.51536117202,10.9201551107,-1.06117262085,0.0
1407528688428,-1.70632062152,11.9368128465,-0.73852468355,0.0
1407528688435,-1.32469684693,12.9019539087,0.175747861805,0.0
1407528688472,-0.864115114442,13.2491086163,0.433151324793,0.0
1407528688473,-0.624866871576,13.2427630047,0.115280566468,0.0
1407528688474,-0.555099739248,12.8596579192,-0.195347510387,0.0
1407528688476,-0.659937699799,12.1513653443,-0.401007698908,0.0
1407528688484,-0.509373430839,11.4256979606,-0.503043416097,0.0
1407528688508,-0.813850586522,9.20611623453,-0.25488980871,0.0
1407528688509,-0.829456627851,8.1237245833,-0.34189646096,0.0
1407528688518,-0.686570174297,7.44984735392,-0.64417956271,0.0
1407528688538,-0.394362613345,6.95238526324,-0.99456084743,0.0
1407528688539,-0.0609499926746,6.76721685812,-1.38347705419,0.0
1407528688544,0.26284660808,6.41406358134,-1.51516818183,0.0
1407528688572,0.305625314214,6.4327142484,-1.50615922785,0.0
1407528688573,0.354631414009,6.41323728666,-1.28293806547,0.0
1407528688576,0.228007396037,6.16037787774,-1.0644318901,0.0
1407528688583,-0.0447184619891,6.24157795798,-0.958695159141,0.0
1407528688604,-0.187412467833,6.30664989407,-0.793631081297,0.0
1407528688605,-0.462418601134,6.34984898932,-0.784556674301,0.0
1407528688615,-0.705922194008,6.39564734206,-0.805632674141,0.0
1407528688645,-0.78108027922,6.39524769069,-0.786038640419,0.0
1407528688646,-0.770477481667,6.41160241413,-0.738929339439,0.0
1407528688646,-0.644454543026,6.42782107504,-0.78515399804,0.0
1407528688675,-0.40437910264,6.62381699799,-0.996454587863,0.0
1407528688675,0.094030480334,6.59845638196,-1.19849456219,0.0
1407528688676,0.60040105936,6.55244772467,-1.30842872035,0.0
1407528688683,0.943431225735,6.36958296564,-1.21364205578,0.0
1407528688704,1.03480313156,6.20274399076,-1.17213845079,0.0
1407528688705,1.00196312676,5.98760742289,-1.05132205632,0.0
1407528688715,0.729367271782,6.24002388614,-1.21152719478,0.0
1407528688740,0.0962705272888,7.30406954758,-1.37904404023,0.0
1407528688740,0.288069938587,8.73435150415,-1.32505507101,0.0
1407528688744,0.672092706904,10.3876467879,-1.00082851858,0.0
1407528688774,1.11007212118,11.7195915905,-0.908574753867,0.0
1407528688775,1.04120249763,12.3154450657,-0.724723439387,0.0
1407528688776,0.0962999302629,12.4029319279,0.411348258517,0.0
1407528688784,0.0283403901053,12.9222965545,1.48313245343,0.0
1407528688807,0.402025621438,12.8969510266,0.842612503505,0.0
1407528688808,0.976609436594,12.0809229988,-0.656779912902,0.0
1407528688816,1.60749572015,11.5830716475,-1.86512832476,0.0
1407528688846,2.41638955572,11.2253185592,-2.38642885615,0.0
1407528688846,2.44243054465,12.0684394314,-2.74462415588,0.0
1407528688847,1.72101570856,13.6429871107,-2.43284126966,0.0
1407528688883,0.369254691174,14.1230863121,-0.668440128429,14.1230863121
1407528688883,-0.672506279143,13.1594295993,0.234388587207,0.0
1407528688884,-0.672206694269,12.6399285163,0.0770006750892,0.0
1407528688884,-1.37611852533,12.8069186935,0.0658723076995,0.0
1407528688910,-3.34089006378,13.2384763946,0.679215639982,0.0
1407528688912,-4.40146899471,13.2862553303,0.630530531862,0.0
1407528688917,-4.57880124055,12.5676920058,0.361089116353,0.0
1407528688955,-4.58909203595,11.2542292743,0.705207748001,0.0
1407528688955,-3.76921556287,9.54431072743,0.891974931611,0.0
1407528688956,-2.68449144416,8.65129481201,0.84593404575,0.0
1407528688957,-1.68198013348,8.77660033704,1.10136235061,0.0
1407528688965,-0.780067332631,9.26920231487,1.30478068897,0.0
1407528688988,-0.251802026416,9.43361285819,1.36245949539,0.0
1407528688989,0.093627376583,9.13862143509,1.21457121473,0.0
1407528688997,0.256789985124,8.90512810822,1.03395941408,0.0
1407528689038,0.247322948124,8.73459864583,0.846606717676,0.0
1407528689039,0.00477651659764,8.40000442271,0.760533082498,0.0
1407528689041,-0.291801510751,8.08859519973,0.823468708441,0.0
1407528689043,-0.77718681969,8.27872990499,0.889926509482,0.0
1407528689044,-1.14272883268,8.84735729228,0.966605895811,0.0
1407528689076,-1.49064649206,9.61700812564,1.21411183672,0.0
1407528689077,-1.4865020246,10.048690362,1.52326158557,0.0
1407528689078,-1.20117838105,9.86775840447,1.82207282814,0.0
1407528689084,-0.790412681381,9.51244432567,1.83084976581,0.0
1407528689108,-0.462005427166,9.0850050896,1.68285035728,0.0
1407528689110,-0.231701384342,8.40184361881,1.42086296763,0.0
1407528689118,-0.291405135735,8.07430228479,0.96050146789,0.0
1407528689148,-0.121288327854,7.91037118424,0.634556714245,0.0
1407528689148,0.148268324357,7.78418130935,0.270457218788,0.0
1407528689151,-0.122350600568,7.81842656504,-0.04577218826,0.0
1407528689167,-0.0196355462233,7.27267228623,0.0195926115437,0.0
1407528689167,0.173413474948,6.80976720175,0.0889624272589,0.0
1407528689184,0.400603629116,6.65044379585,-0.0758443587603,0.0
1407528689185,0.568310938487,6.7321606682,-0.0854142491043,0.0
1407528689197,0.884143353446,6.71784855437,0.0597916170696,0.0
1407528689217,1.32154672644,6.74602977216,0.186089132383,0.0
1407528689217,1.79437812793,6.74450894301,0.194987318767,0.0
1407528689230,2.08605900681,6.75026441969,0.234893690905,0.0
1407528689249,2.09820845228,6.94331267884,0.460511761275,0.0
1407528689249,2.05327090125,7.26590694403,0.877774098266,0.0
1407528689263,2.09760412748,7.45889924921,1.1709020271,0.0
1407528689264,2.06820203787,7.78653715482,1.19922244643,0.0
1407528689281,1.93630801801,8.1200845837,1.2054630565,0.0
1407528689284,1.76993569925,8.5646512766,1.10907180876,0.0
1407528689298,1.31030336287,9.08705177636,0.819097345783,0.0
1407528689315,0.942156512281,9.51612059324,0.311490147615,0.0
1407528689316,0.62262777409,10.1127437144,-0.232605117012,0.0
1407528689332,0.416150773782,10.8906956874,-0.853291945423,0.0
1407528689349,0.0827187566537,11.4281284823,-1.47734913774,0.0
1407528689349,0.148475939433,11.3903250038,-1.24935582939,0.0
1407528689366,0.731546136861,10.6455297456,-0.490226231612,0.0
1407528689366,2.13648595248,9.19640378752,0.939481529899,0.0
1407528689378,3.53723857753,8.4376619737,1.08390057265,0.0
1407528689384,4.13237560366,9.05607298848,0.432845241842,0.0
1407528689403,4.21480185248,10.2121241689,0.0631995412874,0.0
1407528689429,3.63302321965,11.4281072305,0.119708800498,0.0
1407528689430,2.62898337822,12.4286750158,0.27835567924,0.0
1407528689431,1.5338866502,13.2912830528,0.319897872411,0.0
1407528689456,0.852856722316,13.6256328273,0.167830903082,0.0
1407528689457,0.469036153329,13.2096204787,0.33810279782,0.0
1407528689457,-0.145258627022,12.4250753233,0.726558478527,0.0
1407528689464,-1.03350536015,11.6636080801,1.10369986317,0.0
1407528689481,-1.46691210503,10.7504025379,1.31142512445,0.0
1407528689485,-1.4415042244,9.75772982623,1.13500246179,0.0
1407528689506,-1.19230947642,9.07311292986,1.1046105829,0.0
1407528689507,-0.867726123105,9.30525884762,1.72085041577,0.0
1407528689516,-0.89429691112,10.5234076972,1.25784903724,0.0
1407528689538,-1.37282372195,11.9158281151,-0.138120227451,0.0
1407528689538,-1.80906520953,12.6527980878,-1.02062312801,0.0
1407528689545,-2.21240922739,13.5929397116,-0.502450199527,0.0
1407528689570,-2.14458220365,14.4794512873,0.323555620378,0.0
1407528689572,-1.68381332162,14.7282968114,0.559761379709,14.7282968114
1407528689576,-0.896763942585,14.6277447277,0.270706566176,0.0
1407528689606,-0.552596530443,13.9973722792,-0.337288941214,0.0
1407528689607,-1.07949893504,12.8064343514,-0.60129011681,0.0
1407528689607,-1.01901120226,11.4118126405,-0.493858265661,0.0
1407528689617,-0.678776867936,9.90467123569,-0.324225603821,0.0
1407528689638,-0.583209630149,8.78046363324,-0.261745620346,0.0
1407528689639,-0.312391272861,8.01912774856,-0.625349979765,0.0
1407528689645,-0.0309679330213,7.51000540898,-1.16749020198,0.0
1407528689677,-0.0840860858325,7.10057681486,-1.45560649913,0.0
1407528689678,0.29602923616,6.5304059257,-1.44983516007,0.0
1407528689678,0.639084796208,6.45355692751,-1.34244660672,0.0
1407528689709,0.685228495124,6.33552165932,-1.15922856134,0.0
1407528689710,0.67826140069,6.26250416459,-0.989653322825,0.0
1407528689711,0.472572856836,6.40389626806,-0.808910573232,0.0
1407528689717,0.141346436365,6.65997214823,-0.5790512032,0.0
1407528689740,-0.266179670979,6.73089203707,-0.56980311993,0.0
1407528689741,-0.670087150607,6.61502918043,-0.519551119268,0.0
1407528689745,-1.31911955363,6.32301699385,-0.862383602955,0.0
1407528689774,-1.41695509746,6.24991645738,-1.16446166546,0.0
1407528689775,-1.25214943655,6.13343633979,-1.34478390679,0.0
1407528689779,-1.0036676139,6.09809690483,-1.53362786077,0.0
1407528689801,-0.495544616037,5.91550221574,-1.68274236119,0.0
1407528689802,0.0228691432562,5.64997882678,-1.71928808411,0.0
1407528689822,0.544372386069,5.46771722534,-1.59278334889,0.0
1407528689823,0.719058176606,5.2527162466,-1.30183930197,0.0
1407528689825,0.844697629848,5.05455557046,-1.01919723345,0.0
1407528689862,0.678654196452,5.54852729849,-0.992264674061,0.0
1407528689863,0.536864944159,6.91503094414,-1.05896066908,0.0
1407528689865,1.29780383155,8.86429860602,-1.11797299567,0.0
1407528689867,1.66660506769,11.1276127255,-0.857393174066,0.0
1407528689898,1.30368621601,12.5715426249,-0.656667426699,0.0
1407528689898,0.922943192605,13.0434155778,-0.271168098134,0.0
1407528689899,0.0646057213389,12.740044145,0.914678454375,0.0
1407528689917,-0.23760016864,12.6126628839,1.37689280424,0.0
1407528689917,0.0663655652288,12.6139810612,0.510602268148,0.0
1407528689925,0.646376930746,12.0842874284,-0.902343152717,0.0
1407528689949,1.3610856023,11.7672048112,-1.80819530792,0.0
1407528689952,2.07256537899,11.5308159376,-2.45644637542,0.0
1407528689969,2.05051120972,12.1281290705,-2.86623391242,0.0
1407528689970,1.48898827101,13.7317729396,-2.23993443057,0.0
1407528689977,0.355599090718,14.1681320309,0.169384671997,14.1681320309
1407528690010,-0.661762656933,13.0779440357,1.15838094756,0.0
1407528690011,-0.202391267817,12.2545597619,0.566496158135,0.0
1407528690012,-1.29256735476,12.468331357,0.251222968478,0.0
1407528690048,-3.85107483133,13.2114380817,0.292978280867,0.0
1407528690049,-4.50449182852,13.2801637732,-0.284564441258,0.0
1407528690049,-4.19354664743,12.5817643194,-0.503919163051,0.0
1407528690050,-4.27163842295,11.127850882,0.279551903191,0.0
1407528690063,-3.65288923815,9.47638978039,0.550697659579,0.0
1407528690065,-2.67264811482,8.33208848597,0.517323679528,0.0
1407528690079,-2.01999591551,8.14865146748,0.924921815719,0.0
1407528690097,-1.13894645325,8.92223627702,1.25325688827,0.0
1407528690097,-0.499722532626,9.40198279989,1.22477490824,0.0
1407528690109,-0.16079275247,9.34589791925,1.03868771304,0.0
1407528690126,0.14604084763,9.18174444813,0.857096974509,0.0
1407528690126,0.223655072049,8.97674299522,0.666816847375,0.0
1407528690150,0.0775030225306,8.70305049438,0.754740889993,0.0
1407528690151,0.13504416751,8.61552141741,0.978348380155,0.0
1407528690157,-0.0678685505751,9.03966964283,1.040036056,0.0
1407528690165,-0.307780347397,9.44009608844,1.24857015654,0.0
1407528690185,-0.598655256911,9.82673172732,1.44516462061,0.0
1407528690186,-0.425654763238,9.97106911611,1.71382353984,0.0
1407528690201,-0.29044829874,9.90815142375,1.79638606932,0.0
1407528690220,-0.373557730243,9.49998275553,1.81683643929,0.0
1407528690221,-0.250606265441,8.78562454005,1.61572157619,0.0
1407528690225,-0.154317374388,8.1264370218,1.30584853062,0.0
1407528690254,-0.28241507183,7.77155522541,0.911097896378,0.0
1407528690255,-0.256555119466,7.57301909435,0.588081545927,0.0
1407528690258,-0.460923673385,7.50692066362,0.123211030669,0.0
1407528690267,-0.417839326392,7.35954732869,0.0430189343407,0.0
1407528690286,-0.349473578459,7.18531804206,-0.0368639604639,0.0
1407528690287,-0.260219660163,6.79806627375,-0.145944614022,0.0
1407528690304,-0.113651653906,6.84425625088,-0.167606153338,0.0
1407528690332,0.106336735201,7.36043832486,-0.234797668398,0.0
1407528690333,0.689779113392,7.05945242484,-0.060005192382,0.0
1407528690334,1.11019629536,6.7569946611,0.117287420531,0.0
1407528690337,1.43411194429,6.71035760037,0.290510316077,0.0
1407528690345,1.70915549398,6.83005712654,0.407417071015,0.0
1407528690365,1.91909720726,7.05759412147,0.511532132626,0.0
1407528690383,2.15634046557,7.16055668979,0.784573510237,0.0
1407528690384,2.22495788761,7.28612868498,1.04647748074,0.0
1407528690386,2.14058104535,7.57786601032,1.27549788215,0.0
1407528690397,2.10544336274,7.84671717525,1.30211260925,0.0
1407528690419,1.99130323635,8.00508495211,1.29851210083,0.0
1407528690419,1.64993534242,8.45540216886,0.978221128838,0.0
1407528690425,1.40890783904,9.27193086111,0.425486485796,0.0
1407528690450,1.00688157327,10.2776903596,-0.220221548536,0.0
1407528690451,0.893012440141,11.1603720169,-0.705285064652,0.0
1407528690457,0.421581938944,11.7043986017,-1.28160458242,0.0
1407528690487,0.382410141343,11.8139381146,-1.25072311576,0.0
1407528690488,0.605679456829,11.1007177773,-0.412108770883,0.0
1407528690489,1.52852550729,9.84127385515,0.460575099586,0.0
1407528690518,2.60187245371,9.16887731199,0.447394324493,0.0
1407528690519,3.1143412098,9.40167509669,0.124136336601,0.0
1407528690520,3.38637809338,10.0612128106,-0.122954408012,0.0
1407528690526,3.11196805458,11.0995984349,-0.179906698,0.0
1407528690556,2.57049670601,12.3227130621,0.175164718109,0.0
1407528690557,2.08046075667,13.1710891106,0.418214733784,0.0
1407528690558,1.62743031153,13.4539385785,0.631638031694,0.0
1407528690593,0.903551942926,13.0466169897,1.4704865394,0.0
1407528690594,0.23989988934,12.630932418,2.27304519366,0.0
1407528690595,0.176685219305,12.2379981128,2.57406783714,0.0
1407528690600,0.0813053085052,11.4321408024,2.06941167451,0.0
1407528690627,-0.422200412958,10.5637284678,0.904227995833,0.0
1407528690629,-0.745896888762,9.85386385281,0.909398814288,0.0
1407528690630,-1.03097108212,9.92422850317,1.15883985768,0.0
1407528690653,-1.61192865601,10.6599034097,0.543840935729,0.0
1407528690654,-2.12558598022,11.8201761567,-0.464054789772,0.0
1407528690657,-2.76739559585,12.5654038654,-1.39152826561,0.0
1407528690682,-3.33795803956,13.2047605035,-0.922425356555,0.0
1407528690683,-3.05152281629,13.6155462736,0.0931774660884,13.6155462736
1407528690686,-2.6313621567,13.3380856584,0.228158230796,0.0
1407528690698,-1.82582199124,12.7142596823,-0.0888433859413,0.0
1407528690717,-1.39314027756,12.0034958963,-0.675747366524,0.0
1407528690718,-0.687343768652,11.8490885128,-1.10447665405,0.0
1407528690726,-0.412475043649,11.1831435242,-0.910829231461,0.0
1407528690759,-0.867988717849,10.1742459632,-0.427791563176,0.0
1407528690760,-1.11726581245,9.47871138856,-0.181877191323,0.0
1407528690760,-0.866511395493,8.92485891591,-0.286018903998,0.0
1407528690784,-0.416772893955,8.65988194493,-0.746355633524,0.0
1407528690785,-0.185607843156,8.43651672857,-1.1522528405,0.0
1407528690786,0.191415491417,8.04190883743,-1.27184639861,0.0
1407528690812,0.571064248799,7.54428234209,-1.18860277856,0.0
1407528690813,0.806522998913,7.1312465199,-1.00039280593,0.0
1407528690829,0.629619289838,6.72090177846,-0.875751520169,0.0
1407528690830,0.467448014937,6.26118792976,-0.776687293107,0.0
1407528690846,0.244510182052,6.05255853272,-0.670659321508,0.0
1407528690847,0.119319633411,5.91628555896,-0.576221215549,0.0
1407528690867,-0.0642042976604,5.88399235812,-0.605344811456,0.0
1407528690867,-0.30464495534,5.82344566917,-0.681761447223,0.0
1407528690878,-0.496945916013,5.76936819987,-0.749584945056,0.0
1407528690901,-0.562328188252,5.72348254806,-0.859310574368,0.0
1407528690902,-0.369617991314,5.76289678639,-1.09649085175,0.0
1407528690906,-0.0808280140184,5.82784247687,-1.46561128163,0.0
1407528690945,0.269152620843,5.89300285347,-1.76523177873,0.0
1407528690946,0.681513434308,5.77179894518,-1.90420669825,0.0
1407528690947,0.82449118063,5.51482818103,-1.83745364667,0.0
1407528690948,0.519703353753,5.32591250255,-1.68872561111,0.0
1407528690974,0.114735119899,5.40554403849,-1.45893740482,0.0
1407528690976,-0.12011523236,6.05225168068,-1.37169989506,0.0
1407528690979,0.482732732174,7.32760247522,-1.3472819203,0.0
1407528691002,1.48113105487,9.13234605477,-1.14565456796,0.0
1407528691003,1.83263578188,10.7329035947,-0.916154278839,0.0
1407528691006,1.76716031918,12.014984426,-0.59847049647,0.0
1407528691028,-0.465885475845,13.5793987455,2.15088626279,13.5793987455
1407528691028,0.0155072639638,13.4265146308,1.56270714454,0.0
1407528691047,1.1797118259,12.190936846,-0.578033780486,0.0
1407528691048,2.12547212058,11.5481174011,-2.27714057481,0.0
1407528691057,2.96100166105,10.9357238676,-3.03445581022,0.0
1407528691079,2.47069213272,11.2471784245,-2.84328445175,0.0
1407528691080,0.880338090648,12.5832090232,-1.64886504686,0.0
1407528691102,-0.429008195025,13.3760950687,-0.132342827292,0.0
1407528691103,0.0244652807583,13.1478919099,0.394636505671,0.0
1407528691106,-0.0415427709559,12.9520288913,0.478294886551,0.0
1407528691139,-1.14903639183,12.8363249595,0.392214284832,0.0
1407528691140,-2.78694485837,12.8539390365,0.614657874381,0.0
1407528691141,-3.66512036114,13.2692477826,0.284154648396,0.0
1407528691161,-4.25216850938,13.2492884464,0.463070498558,0.0
1407528691162,-4.23814749621,11.9806124468,0.968133118654,0.0
1407528691178,-3.40351833927,10.3989086025,1.19948075206,0.0
1407528691179,-2.2663298463,8.94442647328,1.12283731042,0.0
1407528691193,-1.84103372722,8.81716179895,1.23347082337,0.0
1407528691209,-1.2228758847,9.35151808152,1.28267036533,0.0
1407528691210,-0.815890579816,9.47315126845,1.18739507061,0.0
1407528691230,-0.432850965629,9.3799076274,0.87109924462,0.0
1407528691230,-0.201343484702,9.2337901541,0.543337274551,0.0
1407528691238,-0.214623786789,9.01029994538,0.398424225392,0.0
1407528691247,-0.464267935933,8.66095813874,0.526535489127,0.0
1407528691267,-0.554823838647,8.55890823032,0.847866640465,0.0
1407528691268,-0.752202693728,9.01184582669,1.00839965742,0.0
1407528691300,-0.9907231336,9.53759732417,1.10768915331,0.0
1407528691300,-0.909558641943,10.0106102293,1.27214107196,0.0
1407528691301,-0.590217738883,10.1697650818,1.44241526735,0.0
1407528691306,-0.34259785475,10.14011082,1.5738044163,0.0
1407528691330,-0.154453818895,9.7339133037,1.61426508464,0.0
1407528691330,-0.100773773286,8.99451121086,1.49464010849,0.0
1407528691340,-0.337673810749,8.35865979278,1.18132775468,0.0
1407528691373,-0.56126119915,7.74282664529,0.830005706204,0.0
1407528691374,-0.572382219684,7.32939434338,0.353107928172,0.0
1407528691375,-0.568955140295,7.14298414343,-0.0118917272611,0.0
1407528691378,-0.724164716628,7.10851858249,-0.231194831593,0.0
1407528691397,-0.644182169928,7.18502687745,-0.25082501733,0.0
1407528691400,-0.360672957127,7.08942313401,-0.206085396052,0.0
1407528691406,-0.017489071919,6.88487827774,-0.141190453885,0.0
1407528691426,0.402315237012,6.77203897269,-0.0313666896675,0.0
1407528691431,0.956993217343,6.8563464814,0.126879180357,0.0
1407528691450,1.23192725704,6.86769510906,0.302508264705,0.0
1407528691451,1.48377239017,6.73630247017,0.479532841683,0.0
1407528691459,1.61478975343,6.73353067459,0.63057598037,0.0
1407528691493,1.59092301407,6.92627649919,0.856982988212,0.0
1407528691494,1.66056984941,7.17536944456,1.07192496487,0.0
1407528691495,1.72642364251,7.42615317141,1.20623538563,0.0
1407528691516,1.65460074548,7.79087934269,1.3183877598,0.0
1407528691517,1.46515593553,8.24421422791,1.24138189791,0.0
1407528691520,1.2185499443,8.84030886844,1.02917693822,0.0
1407528691526,1.05563675863,9.50600528822,0.482095734005,0.0
1407528691559,0.924925296462,10.2110789354,-0.0589701791621,0.0
1407528691560,1.23541210654,10.7836733998,-0.630634864814,0.0
1407528691561,1.14873721413,11.1509488161,-1.24861479664,0.0
1407528691591,0.843539163775,11.3299940627,-1.5504871211,0.0
1407528691592,0.806387452422,11.2410485425,-1.05644035367,0.0
1407528691592,1.0111031344,10.6015409441,-0.0103211379218,0.0
1407528691610,2.07015379925,9.58080394422,1.08277410531,0.0
1407528691611,3.0302468971,9.33047155114,1.14080354497,0.0
1407528691626,3.52824785652,9.75436764926,0.910588522216,0.0
1407528691627,3.6901714601,10.4580479477,0.605662852896,0.0
1407528691643,3.3037257402,11.5794970308,0.332508862958,0.0
1407528691660,2.64679758997,12.6312589412,0.643820569298,0.0
1407528691660,1.87537397209,13.1318134256,0.921403951536,0.0
1407528691676,1.37082441891,13.270584342,0.776408686422,0.0
1407528691678,0.971411576507,12.9500644428,0.803076120824,0.0
1407528691692,0.434672436127,12.1419936359,1.1492002441,0.0
1407528691706,-0.376242322942,11.120507021,1.31251354646,0.0
1407528691707,-1.16727047662,10.1422190986,0.937022816469,0.0
1407528691723,-1.74344138921,9.37237435884,0.436828937811,0.0
1407528691726,-2.22357337398,9.4255131196,0.759597735185,0.0
1407528691739,-2.26171653211,10.0998501766,0.971791040271,0.0
1407528691755,-2.071880627,10.9032669195,0.313367444298,0.0
1407528691760,-2.11045168505,12.0930550334,-0.88640449309,0.0
1407528691779,-2.43453739339,13.1230304199,-1.44805849371,0.0
1407528691780,-2.55667719458,13.9630219049,-0.484354158606,0.0
1407528691787,-2.22720409976,14.2486804534,0.32319875519,14.2486804534
1407528691821,-1.46302599928,14.2429617344,0.364904841834,0.0
1407528691823,-0.901510874729,13.9147126735,-0.0673116225788,0.0
1407528691823,-0.913799319659,13.0534538711,-0.565029989258,0.0
1407528691827,-0.655324486295,11.9641219133,-0.551709802195,0.0
1407528691851,-0.389236507057,10.6950909242,-0.392852512902,0.0
1407528691852,-0.474438388548,9.65148032316,-0.0762377942047,0.0
1407528691858,-0.421651249192,8.96697441374,-0.0597564255242,0.0
1407528691875,-0.254048674899,8.2213526096,-0.347760258402,0.0
1407528691896,0.0521290305434,7.74841125941,-0.75104416802,0.0
1407528691897,0.428537401818,7.26416149154,-0.933085552137,0.0
1407528691899,0.823273491892,6.92156386353,-1.04402330587,0.0
1407528691907,0.930325759408,6.74376195571,-1.15601368907,0.0
1407528691937,1.03394924846,6.47033578975,-1.0008682118,0.0
1407528691939,0.862969419011,6.13788220781,-0.908723022763,0.0
1407528691942,0.480949418758,6.29716611157,-0.84885558322,0.0
1407528691969,0.158939758935,6.23771329359,-0.866886142423,0.0
1407528691970,-0.207237969182,6.17625638963,-0.894665196233,0.0
1407528691971,-0.546285650022,5.99296363086,-0.845804295511,0.0
1407528691999,-0.692032840491,5.83130393572,-0.85234947395,0.0
1407528691999,-0.662985746671,5.82702929444,-0.943894976608,0.0
1407528692000,-0.51791131916,5.68528004876,-0.918859990847,0.0
1407528692007,-0.263121354063,5.72257136072,-1.05808756191,0.0
1407528692023,0.171264561981,5.85556699134,-1.37458090165,0.0
1407528692027,0.434275914318,5.97010607258,-1.59847503753,0.0
1407528692039,0.645972335456,5.87784147799,-1.65831806228,0.0
1407528692067,0.662401476127,5.70906671273,-1.55852948699,0.0
1407528692068,0.377130534343,5.64092235659,-1.37758253276,0.0
1407528692069,-0.278127909185,5.69185991764,-1.11679678855,0.0
1407528692092,-0.567816683307,6.29045892825,-1.12529949111,0.0
1407528692093,0.18458066489,8.09988771036,-1.05647136885,0.0
1407528692116,0.96340991348,10.1249488861,-0.95677278326,0.0
1407528692118,1.01944733505,11.6164232478,-0.932876102669,0.0
1407528692122,0.432570181408,12.6089385141,-0.527889090965,0.0
1407528692128,-0.555250828904,12.6769104465,0.695031653764,0.0
1407528692154,-1.19260207336,12.5597933647,1.85297376609,0.0
1407528692154,-0.84596212435,12.8563644391,1.39951757529,0.0
1407528692159,0.317255270097,12.1222741979,-0.371893340311,0.0
1407528692178,1.43075616188,11.2537754663,-1.90641254509,0.0
1407528692179,2.13082275035,11.0230021361,-2.77989844178,0.0
1407528692187,2.44304551953,11.2527360173,-3.07195655053,0.0
1407528692213,2.18537729166,12.3061295644,-2.87397131568,0.0
1407528692214,1.9212884442,13.3581782592,-1.62794361511,0.0
1407528692219,1.03710296393,13.5752776328,-0.0373933714461,13.5752776328
1407528692229,0.71128929114,12.586183282,0.0671894688808,0.0
1407528692250,1.33030334477,12.1139865876,-0.254839520081,0.0
1407528692251,0.75457624944,12.485614735,0.152512715168,0.0
1407528692259,-3.61687929846,13.3349376375,0.970590411459,0.0
1407528692289,-4.23326131399,13.311465658,0.453366452613,0.0
1407528692290,-4.28465578844,12.1168754936,0.50527335174,0.0
1407528692291,-3.56750403538,10.1563460367,0.351873282112,0.0
1407528692320,-2.51529761063,8.83051512749,-0.0618952567005,0.0
1407528692321,-1.49903742405,8.39127058806,0.0291273143095,0.0
1407528692322,-0.805280040406,8.53617780953,0.459272720451,0.0
1407528692351,-0.143188463787,8.80731530805,1.14780922928,0.0
1407528692351,0.383503855482,8.97257146235,1.46108618052,0.0
1407528692352,0.570761607646,8.94645539927,1.40320914596,0.0
1407528692360,0.4793725395,8.74055700913,1.31970529891,0.0
1407528692374,0.457782220256,8.4514026234,1.28988162948,0.0
1407528692389,0.450843648645,8.0965015991,1.24421698934,0.0
1407528692390,0.159073991209,7.89711723941,1.17299500713,0.0
1407528692406,-0.254897154996,8.36222814096,1.07447194437,0.0
1407528692407,-0.431696007988,8.8414438076,1.00103662557,0.0
1407528692422,-1.03897032403,9.38980045,0.942615669962,0.0
1407528692440,-1.17949665705,9.47739459646,0.999026220951,0.0
1407528692441,-1.00077496712,9.40849790872,1.0229491502,0.0
1407528692454,-0.554838586255,9.03375680126,1.07344833533,0.0
1407528692459,-0.194649138082,8.64369628178,1.04528290381,0.0
1407528692472,-0.153589934864,8.48601822129,0.869373239256,0.0
1407528692490,-0.338531607215,8.26213121417,0.718681846883,0.0
1407528692490,-0.578283635926,7.95747240826,0.528582681956,0.0
1407528692506,-0.276945256704,7.68118278116,0.367248650022,0.0
1407528692507,-0.385904434041,7.90433129079,0.0445228495212,0.0
1407528692523,-0.568850247701,8.25312965057,0.011449823188,0.0
1407528692540,-0.0170439986828,7.87220948342,0.123477039976,0.0
1407528692540,0.340008789478,7.48230835634,0.0193563979947,0.0
1407528692553,0.650270907161,7.32163005288,0.104176117993,0.0
1407528692559,0.984693053238,7.21296894769,0.222800529305,0.0
1407528692569,1.35864424366,7.20146681796,0.356738077483,0.0
1407528692590,1.52967728702,7.07270306891,0.338489218849,0.0
1407528692596,1.58290116561,7.01710737444,0.330087397111,0.0
1407528692616,1.57030506127,7.01157495171,0.693105648206,0.0
1407528692617,1.56771876852,7.09024451072,1.07841573827,0.0
1407528692619,1.50951591249,7.4051124599,1.23314869976,0.0
1407528692644,1.56934273518,7.6495219841,1.29106631811,0.0
1407528692645,1.46912964942,7.95588923431,1.23187978775,0.0
1407528692648,1.00058250691,8.39737752685,1.11520631543,0.0
1407528692681,0.517615277451,8.98836149656,0.890858800464,0.0
1407528692682,0.365484706136,9.65704025402,0.433682695045,0.0
1407528692683,0.248439329344,10.2137581583,-0.193854909262,0.0
1407528692688,0.0784966349778,10.711468416,-0.693189976154,0.0
1407528692716,-0.321843060508,10.9896232055,-1.39196905304,0.0
1407528692717,-0.413785864356,10.9318178205,-1.33799869893,0.0
1407528692722,-0.13297551812,10.4357292462,-0.193384792462,0.0
1407528692760,1.05236380922,9.40749459504,1.07744372224,0.0
1407528692761,2.43512619758,8.83805536518,1.18988761769,0.0
1407528692762,3.20986475961,9.23287023165,0.355717784264,0.0
1407528692763,3.42016214522,10.1369988053,0.0577751758148,0.0
1407528692768,3.08547676787,11.2244375038,0.0606244579972,0.0
1407528692796,2.45553983192,12.1430507181,-0.155918211956,0.0
1407528692797,1.71876120927,12.732356103,-0.28965622331,0.0
1407528692800,1.21246469298,12.9622241747,-0.0731799351686,0.0
1407528692808,0.94493754617,12.8107136967,0.544852062548,0.0
1407528692831,0.678526948377,12.4476316745,1.31717677883,0.0
1407528692832,0.274469008595,11.9229157519,1.85567727933,0.0
1407528692843,0.059174335892,11.727379133,1.98692086743,0.0
1407528692867,-0.186300380838,11.1284956985,1.42213375898,0.0
1407528692868,-0.579727412269,10.2706974677,1.34010712462,0.0
1407528692869,-1.0585085232,10.3277827586,1.46807118529,0.0
1407528692898,-1.55710382883,11.0126577774,0.757569491118,0.0
1407528692900,-2.05439818019,12.0598923691,-0.426626230991,0.0
1407528692901,-2.75254308261,13.1730482375,-1.39503671158,0.0
1407528692909,-3.14229596653,13.8592933038,-1.27141495733,0.0
1407528692927,-2.9491226413,14.0539166348,-0.44747816215,0.0
1407528692929,-2.28626168408,14.0831864021,-0.11391062129,14.0831864021
1407528692940,-1.78962991194,13.5556493726,-0.352486201018,0.0
1407528692978,-1.04839921266,12.8888256918,-0.685848005917,0.0
1407528692980,-0.389586909207,12.2340001605,-0.92940682994,0.0
1407528692982,-0.546339438895,11.2024262378,-1.06792477049,0.0
1407528692983,-0.612978213576,9.90162820926,-0.72961038575,0.0
1407528692989,-0.633002195167,8.7525938733,-0.40332342985,0.0
1407528693024,-0.278855128637,7.98292230697,-0.764646151404,0.0
1407528693028,0.151649114194,7.76262454874,-1.25943966294,0.0
1407528693030,0.706719132375,7.16853530574,-1.23873548417,0.0
1407528693073,0.897187834819,6.87382571052,-1.1528712913,0.0
1407528693077,1.00886582572,6.81919607584,-1.06959983468,0.0
1407528693079,1.12152130071,6.68978275906,-0.872476157499,0.0
1407528693080,0.99152080743,6.65152938218,-0.910330263123,0.0
1407528693082,0.727048830613,6.52320298882,-0.722449837325,0.0
1407528693104,0.23280228548,6.27015836226,-0.637638586186,0.0
1407528693105,-0.343930106244,5.85702917932,-0.792035307919,0.0
1407528693105,-0.284875675759,6.23458217269,-1.06692046051,0.0
1407528693144,-0.22706935641,6.52150936127,-0.959649159098,0.0
1407528693146,-0.506465518196,6.34110465011,-1.00518525426,0.0
1407528693148,-0.526710877811,6.15811277462,-1.14216445703,0.0
1407528693149,-0.45069049284,5.97998515936,-1.28768153451,0.0
1407528693150,-0.356056232074,5.77398402922,-1.45618830633,0.0
1407528693186,-0.0293308711696,5.65918790791,-1.68496419238,0.0
1407528693188,0.47849181374,5.67498199435,-1.86374526292,0.0
1407528693189,0.905724170134,5.54512125796,-1.92593329867,0.0
1407528693190,1.18176573221,5.3872200712,-1.86530752471,0.0
1407528693210,1.18423150696,5.46769249008,-1.62600209086,0.0
1407528693211,0.942629617974,5.86125039592,-1.24820375056,0.0
1407528693220,0.480404355475,6.70858765126,-0.804569164196,0.0
1407528693247,0.108776557689,7.75344203905,-0.556312263566,0.0
1407528693247,1.07058583345,9.68849089355,-0.727343071384,0.0
1407528693249,1.77576147048,11.8601003247,-0.85149180559,0.0
1407528693314,1.68982452607,12.7183455296,-0.450077270737,0.0
1407528693315,0.233782656925,12.8805208188,0.621574048416,0.0
1407528693316,-0.779883974949,12.9744402761,1.83212252931,0.0
1407528693316,-0.786362775471,13.0410565225,1.44400318487,0.0
1407528693317,-0.115606023435,12.4881490424,-0.245456291864,0.0
1407528693340,0.816425766697,11.9594971225,-1.4854107325,0.0
1407528693343,1.51054128652,11.8662585997,-2.59047163309,0.0
1407528693344,1.59488041511,12.8044632203,-3.3781748787,0.0
1407528693345,1.36347132224,14.3087872084,-2.75380782402,0.0
1407528693363,0.806988178149,14.6765563956,-0.624449280023,14.6765563956
1407528693364,-0.633345681916,13.8014793971,0.832880042114,0.0
1407528693368,-0.326940344609,12.945851371,0.067975495512,0.0
1407528693388,-0.193236892727,12.8031425427,-0.127243665768,0.0
1407528693389,-4.14054437967,12.8803706748,0.197787913605,0.0
1407528693409,-1.99092423778,12.359689303,-0.39694514083,0.0
1407528693410,-3.01537973212,11.802273379,-1.02925018192,0.0
1407528693419,-3.83478836581,10.4613921869,-0.525934836979,0.0
1407528693441,-3.22127068105,9.40661515166,-0.0806593857089,0.0
1407528693442,-2.07809765976,8.90820508035,0.131645267625,0.0
1407528693448,-1.5059461317,8.90821524393,0.534200461863,0.0
1407528693473,-0.823715136058,9.07494949325,1.14212122066,0.0
1407528693474,-0.188424650086,9.46922223298,1.61763231937,0.0
1407528693494,-0.195967781889,9.45664758378,1.38749820742,0.0
1407528693495,-0.317047654328,9.33795642623,1.21487404518,0.0
1407528693500,-0.277186227589,8.97449614824,1.06821558611,0.0
1407528693530,-0.434635855497,8.70006636974,0.833599336207,0.0
1407528693530,-0.617352955132,8.79133539194,0.817081723206,0.0
1407528693531,-0.87375011076,8.87486258019,0.871447203735,0.0
1407528693541,-1.06381636951,9.12821857786,0.993012213416,0.0
1407528693558,-1.08921668044,9.37859828007,1.09895767853,0.0
1407528693564,-0.823515750684,9.368452287,1.12680155207,0.0
1407528693568,-0.694583305758,9.06853130133,1.20666689707,0.0
1407528693591,-0.506383639026,8.58555074616,1.17316341738,0.0
1407528693593,-0.314843305774,8.12261168248,1.0507478958,0.0
1407528693600,-0.244920073403,7.74929142139,0.799696397042,0.0
1407528693636,-0.359187759347,7.6506586227,0.51353222356,0.0
1407528693637,-0.488880936216,7.67907794876,0.330637737219,0.0
1407528693639,-0.522997531639,7.77425777179,0.341570881288,0.0
1407528693641,-0.438985063113,7.6989011387,0.257774105304,0.0
1407528693659,-0.301847105808,7.36556882207,0.109952358522,0.0
1407528693660,0.0891343360857,6.86502408854,0.136700488445,0.0
1407528693669,0.333652545624,7.2254557906,0.0535754486192,0.0
1407528693695,0.657144279476,7.3520803528,0.124724652357,0.0
1407528693696,0.941766354815,6.91693484549,0.318795021625,0.0
1407528693700,1.04612139316,6.58865644984,0.452896849728,0.0
1407528693724,1.28294546324,6.26114865893,0.453981302979,0.0
1407528693725,1.3221381668,6.52114453083,0.440276472973,0.0
1407528693730,1.47936931998,7.02829596058,0.767091445621,0.0
1407528693764,1.69169031194,7.29479930239,1.15148876925,0.0
1407528693765,1.64647649974,7.72041278385,1.31472004377,0.0
1407528693767,1.72334108538,8.14249878885,1.21633129063,0.0
1407528693769,1.70751598528,8.67168622608,1.06105737957,0.0
1407528693793,1.57571730652,9.35098012647,0.639368420917,0.0
1407528693795,1.55061298494,10.1231752091,0.154914836864,0.0
1407528693801,1.76252644304,10.4429091101,-0.26082805288,0.0
1407528693820,1.59601322802,10.6608087927,-0.701210249174,0.0
1407528693821,1.28326899144,10.9849690559,-1.1610917656,0.0
1407528693838,0.983993618916,11.3288221948,-1.15322876029,0.0
1407528693854,1.09070065798,11.0649642443,-0.421946942493,0.0
1407528693857,1.70749891755,10.1263153135,0.97221001036,0.0
1407528693869,2.97066162506,9.11133235383,1.4585241225,0.0
1407528693869,3.84524487379,9.22562757545,0.73057585478,0.0
1407528693884,4.14449236401,9.96882396938,0.3008630523,0.0
1407528693889,3.99630341425,11.0364326894,0.00637171230558,0.0
1407528693903,3.17181533135,12.131048046,0.137671386182,0.0
1407528693918,2.06479035457,12.9690902005,0.258152671479,0.0
1407528693942,1.154292887,13.5892723288,0.35431764899,0.0
1407528693943,0.589195156664,13.5755596112,0.503787396889,0.0
1407528693943,0.0558810190849,12.8408683144,0.633038445718,0.0
1407528693949,-0.720440615301,11.9632495029,0.678217993672,0.0
1407528693969,-1.55499266713,11.2954802497,0.694835249438,0.0
1407528693970,-2.25566322116,10.6040353237,0.959832309023,0.0
1407528693984,-2.03692174226,9.42157291057,0.816957503832,0.0
1407528693989,-1.05339522219,8.4834527557,0.938142539261,0.0
1407528694013,-0.384392302308,8.83035876591,1.60817499912,0.0
1407528694014,-0.265801965874,9.65112525895,1.05292826442,0.0
1407528694021,-0.764267523002,10.8288204771,-0.366963039283,0.0
1407528694047,-1.28693730527,11.9156711281,-1.44549004194,0.0
1407528694049,-1.44607045883,13.2560135048,-0.770694765562,0.0
1407528694049,-1.2449175112,14.3513344252,0.37531558649,0.0
1407528694072,-1.13300057095,14.8338237692,0.820674199678,14.8338237692
1407528694073,-1.0106749885,14.6368358296,0.566883657151,0.0
1407528694080,-1.12781842296,13.5355358582,0.0802338659946,0.0
1407528694107,-1.30067113457,11.9916393032,-0.350487318631,0.0
1407528694108,-1.07735279291,10.5157768439,-0.354051876384,0.0
1407528694109,-0.758884456573,9.23980348277,-0.252039019844,0.0
1407528694121,-0.565353252828,8.51936466412,-0.554688017937,0.0
1407528694144,-0.399574015017,8.01297682352,-0.853326468443,0.0
1407528694145,-0.0281484943002,7.61134196304,-0.962379604801,0.0
1407528694149,0.393213580555,7.31264710644,-0.928051450718,0.0
1407528694176,0.703933052131,6.97069292493,-1.05284159861,0.0
1407528694177,0.795347714216,6.62034877698,-1.02364719473,0.0
1407528694181,0.642593145778,6.72567296695,-1.05349491194,0.0
1407528694208,0.843932262105,6.35357489826,-0.951468904182,0.0
1407528694209,0.551500283724,6.42669443907,-0.847354254579,0.0
1407528694210,0.345841446707,6.5451414441,-0.904676677693,0.0
1407528694221,-0.0890717460091,6.64168739529,-0.779854570975,0.0
1407528694243,-0.428880528583,6.63342344742,-0.637289620629,0.0
1407528694244,-0.779449620616,6.50932929251,-0.506890972813,0.0
1407528694249,-0.785551001703,6.35141614565,-0.520306999824,0.0
1407528694270,-0.559904586963,6.05590209346,-0.629274640255,0.0
1407528694270,-0.426477001486,6.03910687946,-0.830179869498,0.0
1407528694285,-0.263140635976,6.13305576376,-1.09360406849,0.0
1407528694304,-0.0305152104653,6.16832533771,-1.2865468723,0.0
1407528694305,0.207518056498,6.1560865364,-1.36604073923,0.0
1407528694332,0.335052090416,6.09000782324,-1.32241399276,0.0
1407528694333,0.43843977668,5.91315302464,-1.26720107132,0.0
1407528694334,0.428515844734,5.63794955201,-1.23143577473,0.0
1407528694352,-0.105250722376,5.87636782398,-1.23945317942,0.0
1407528694352,-0.412110894137,6.93620962965,-1.26183607068,0.0
1407528694370,-0.286338997306,8.29151221448,-1.14306096046,0.0
1407528694372,0.420676684072,9.92336636035,-0.919181420103,0.0
1407528694385,0.642447605777,11.586577042,-0.624953379866,0.0
1407528694408,0.0855747307948,12.4629434517,0.270023763348,0.0
1407528694409,-0.724913779229,12.5507073194,1.89101538356,0.0
1407528694410,-0.721962672145,13.2781641766,2.12873235494,0.0
1407528694421,0.101106444634,13.0836367071,0.543771586299,0.0
1407528694447,1.44399967599,12.3284144068,-1.43344746647,0.0
1407528694448,2.58695844745,11.9735194032,-2.56109206192,0.0
1407528694449,3.27872287392,11.9700905871,-3.18308409315,0.0
1407528694472,3.05725076823,12.4476130421,-2.89239165473,0.0
1407528694473,1.65540226982,13.0909260105,-1.50957920417,0.0
1407528694481,0.0242681582651,13.1880496389,0.186720177869,0.0
1407528694514,-0.269113087308,12.8416850981,0.840541579968,0.0
1407528694514,1.28961383807,12.4938745541,0.449938697534,0.0
1407528694515,-0.761342462018,12.3154078044,0.812648148266,0.0
1407528694546,-0.272391852314,12.1130115381,1.11961365011,0.0
1407528694548,-3.52619622852,13.2546567361,0.748787339557,0.0
1407528694548,-4.61154644144,13.4138036795,0.62845630854,13.4138036795
1407528694550,-4.78179281695,12.5147369418,1.00174572875,0.0
1407528694576,-3.90932399119,10.6781818597,1.02726693322,0.0
1407528694576,-2.73635460483,9.13278360978,0.560900189928,0.0
1407528694582,-1.94097025776,8.66898687389,0.279315727804,0.0
1407528694605,-1.11675896889,8.57171234407,0.421607680727,0.0
1407528694606,-0.480021615495,8.62586239965,0.487005186301,0.0
1407528694609,-0.0818562279627,8.6012498903,0.242951786032,0.0
1407528694634,0.270913325022,8.49265463191,0.179355990273,0.0
1407528694635,0.47868573469,8.37258803134,0.363797899978,0.0
1407528694659,0.438647005544,8.10965474014,0.624823436207,0.0
1407528694660,-0.0486945892391,8.37761696594,0.941950427838,0.0
1407528694661,-0.73947109446,8.74402603081,1.2990432846,0.0
1407528694670,-1.44992860126,9.62353686254,1.53209192622,0.0
1407528694693,-1.69286264152,10.4184617996,1.6816892676,0.0
1407528694695,-1.45371001912,10.7078103546,1.71538044227,0.0
1407528694703,-1.30104429156,10.2184211258,1.66245660837,0.0
1407528694717,-1.05070456944,9.45960603121,1.61463761094,0.0
1407528694732,-0.712617575277,8.90265933242,1.40950053685,0.0
1407528694733,-0.434991036879,8.54655746435,1.01482781766,0.0
1407528694754,-0.396783832355,7.6163176767,0.42309623108,0.0
1407528694754,-0.46873165095,7.43469831686,0.22395611249,0.0
1407528694762,-0.45252666588,7.58270464888,0.106957035469,0.0
1407528694770,-0.212440400299,7.41540029967,0.0666570398505,0.0
1407528694783,0.0455006379565,7.07742661504,0.0165101093681,0.0
1407528694806,0.435761739474,6.85121613081,0.105304359743,0.0
1407528694807,0.62539073162,6.66849844452,0.134566797765,0.0
1407528694810,0.785939711057,6.4315506515,0.255724213171,0.0
1407528694845,0.918244050106,6.27610035542,0.418742345441,0.0
1407528694846,0.93015034825,6.40627341859,0.434476358164,0.0
1407528694846,0.908532672023,6.64892570781,0.459220085875,0.0
1407528694850,1.04570997825,6.99027782807,0.748977725619,0.0
1407528694866,1.25759380477,7.37132848045,1.03205089814,0.0
1407528694870,1.29525840376,7.76345065125,1.23962432123,0.0
1407528694885,1.42155040055,8.18231288888,1.32016984387,0.0
1407528694900,1.35364872752,8.58134129866,1.17200226306,0.0
1407528694901,1.21121611256,9.02401536974,0.940989486724,0.0
1407528694916,1.02577033897,9.42707025203,0.411041441198,0.0
1407528694936,0.904964240644,9.96308764736,-0.321227185261,0.0
1407528694936,1.07103038732,10.5325359653,-0.7043655352,0.0
1407528694954,0.992773031855,10.9070230902,-1.06513443548,0.0
1407528694955,0.742976570401,10.9487140839,-1.13340528854,0.0
1407528694961,0.813671065465,10.7915790428,-0.581616576159,0.0
1407528694985,1.52485912067,10.0821424849,0.452414847991,0.0
1407528694987,2.68190023712,9.25868649503,1.14832503417,0.0
1407528695010,3.30867737887,9.31456484507,0.846346452618,0.0
1407528695011,3.71847016064,9.97922199084,0.556483638689,0.0
1407528695012,3.74865425956,10.9105633875,0.29611992332,0.0
1407528695043,3.02587388527,11.9080180449,-0.0725998553482,0.0
1407528695045,1.95336086308,12.6491324947,-0.268135194049,0.0
1407528695046,1.11557270876,13.1062625188,-0.189855112677,0.0
1407528695050,0.758767898812,13.0869687447,-0.0382681764082,0.0
1407528695070,0.302206730006,12.4231554802,0.304895435931,0.0
1407528695071,-0.648752396266,11.8373864333,0.944408389469,0.0
1407528695081,-1.29438539045,11.4597393694,1.38965066555,0.0
1407528695116,-1.55348207408,11.0619234153,1.10120396787,0.0
1407528695117,-1.50043633703,10.2982436174,0.855352540161,0.0
1407528695118,-1.1885559972,10.1666645964,1.56154432545,0.0
1407528695149,-1.0958429525,10.7432493242,1.14298843941,0.0
1407528695150,-1.22616127306,11.8275538566,-0.22171614352,0.0
1407528695151,-1.7396367247,12.7973949492,-1.30533151308,0.0
1407528695153,-2.22796134783,13.0953129572,-1.30109000115,0.0
1407528695177,-2.38019724102,13.3461923506,-0.251496811776,0.0
1407528695178,-1.95505836923,13.4039648786,0.256889252504,13.4039648786
1407528695184,-1.53528132265,13.0266396638,0.0821989667923,0.0
1407528695204,-1.09460748938,12.5695649018,-0.338846626461,0.0
1407528695205,-1.01176834384,12.1894891567,-0.63891783823,0.0
1407528695210,-0.94730122183,11.7262164952,-0.756901599716,0.0
1407528695233,-0.719282292742,10.3570931188,-0.462188944762,0.0
1407528695233,-0.612699166524,9.12145522787,-0.255338547323,0.0
1407528695255,-0.479116071556,8.3812167648,-0.469430497601,0.0
1407528695256,-0.115819379018,7.87676227968,-1.00671047774,0.0
1407528695262,0.17357158157,7.42910875473,-1.36202640319,0.0
1407528695294,0.546220101101,7.18366311484,-1.4724738513,0.0
1407528695295,0.689233418235,7.09248560418,-1.36168671668,0.0
1407528695296,0.674679634941,7.076112986,-1.17386502813,0.0
1407528695324,0.545767553519,6.85889160662,-0.866002803642,0.0
1407528695325,0.343481691168,6.42784495277,-0.690368976344,0.0
1407528695326,0.0435526459978,6.35909013906,-0.797256752707,0.0
1407528695330,-0.0108139395181,6.982230842,-0.964210047978,0.0
1407528695358,-0.0831694028151,7.25376296614,-0.702204384384,0.0
1407528695358,-0.243111725489,6.8045914411,-0.552429994649,0.0
1407528695364,-0.266957792092,6.6207579187,-0.667419159625,0.0
1407528695388,-0.21382881553,6.28481774093,-0.751715085248,0.0
1407528695389,-0.253422609381,6.2752981672,-0.944982140906,0.0
1407528695390,-0.24672873199,6.0942708803,-1.2350108131,0.0
1407528695425,-0.152306104537,5.88564785615,-1.55033319474,0.0
1407528695426,0.0481785065086,5.6472795439,-1.77962112228,0.0
1407528695428,0.343677761683,5.42450783536,-1.86168244286,0.0
1407528695431,0.720383774542,5.25079550361,-1.78647236266,0.0
1407528695472,0.933306843469,5.29574725159,-1.59202321934,0.0
1407528695473,1.01198106938,5.54122463617,-1.36148096687,0.0
1407528695474,0.693179502796,6.05108882088,-1.08658751877,0.0
1407528695475,0.0680429793049,6.60977111112,-0.708892898288,0.0
1407528695483,0.241505397091,7.71119352988,-0.509613535013,0.0
1407528695520,0.748922347111,9.59152135661,-0.491171484492,0.0
1407528695524,0.768623415155,11.4137006223,-0.416377376733,0.0
1407528695526,0.214058242989,12.584245551,0.318159045972,0.0
1407528695528,-0.677445221668,13.1148311385,1.5341450419,0.0
1407528695532,-0.467489507732,13.547527441,1.63381753121,0.0
1407528695561,0.398207190836,13.0604417304,0.124497944825,0.0
1407528695562,1.60045325888,12.3065771018,-1.32531481793,0.0
1407528695563,2.64085693692,11.9196488463,-2.10196701417,0.0
1407528695585,3.31857713768,11.8091499469,-2.28758851321,0.0
1407528695586,3.10318509718,12.3316950456,-2.35893715001,0.0
1407528695590,1.99683672769,13.2423461963,-1.52428109488,0.0
1407528695617,-0.180536660623,13.6511737538,0.108475156729,13.6511737538
1407528695617,-0.82881111976,13.3218836304,0.488125858925,0.0
1407528695640,-0.301908873354,13.1220766491,0.0894993797779,0.0
1407528695640,-2.3114774527,12.7026792428,0.595170428439,0.0
1407528695642,-1.64667719111,11.8667586812,0.41524819605,0.0
1407528695650,-4.31578280572,12.1603228133,-0.120895000709,0.0
1407528695666,-5.28956748829,12.4857391145,-0.151319232644,0.0
1407528695683,-4.94081973394,11.731168835,0.454656770529,0.0
1407528695683,-3.79072227957,10.4142833471,0.600901955174,0.0
1407528695698,-2.74044777949,9.49402919683,0.469225551042,0.0
1407528695714,-1.94983559151,9.28521772558,0.690010554779,0.0
1407528695714,-1.0025628763,9.5503893946,0.911612066606,0.0
1407528695737,-0.228589690381,9.66895738193,0.996814866652,0.0
1407528695737,0.316312588501,9.56321876735,0.748581527102,0.0
1407528695742,0.622601901441,9.45820969212,0.505112509447,0.0
1407528695750,0.70898907346,9.11928124625,0.531985917692,0.0
1407528695763,0.699451374053,8.56141019039,0.695483431723,0.0
1407528695780,0.299220223475,8.36491278684,0.842902190702,0.0
1407528695783,-0.313849744902,8.80085539336,0.93809969529,0.0
1407528695797,-0.673884512927,9.30569007776,1.17281698752,0.0
1407528695814,-0.948748277145,9.85930410173,1.2882020791,0.0
1407528695815,-1.07746683489,10.1463386942,1.44129341497,0.0
1407528695833,-0.904379931639,9.97811037537,1.5687590922,0.0
1407528695834,-0.565009188752,9.52388382,1.50610011509,0.0
1407528695845,-0.284895934318,9.04160111322,1.44085480983,0.0
1407528695862,-0.00824702372209,8.42941568785,1.34216571612,0.0
1407528695862,0.114225564315,7.82098121242,0.968736092214,0.0
1407528695880,0.14773599867,7.53067763496,0.609127578117,0.0
1407528695882,-0.0295613696043,7.67265699496,0.226769961538,0.0
1407528695896,-0.0892548446116,7.14966561928,0.202385124534,0.0
1407528695915,-0.287690593619,6.68666266622,-0.0606490785946,0.0
1407528695916,-0.284828029187,6.38729907991,-0.136763255833,0.0
1407528695932,-0.168283539831,6.17312424272,-0.121729670677,0.0
1407528695932,0.162544740386,6.12972880553,-0.130886863775,0.0
1407528695951,0.365469319968,6.21211800835,-0.0340109616679,0.0
1407528695951,0.436014295227,6.22694795523,0.124294241072,0.0
1407528695963,0.354042463396,6.23388946572,0.270167156429,0.0
1407528695979,0.310451283576,6.33600994187,0.455728398453,0.0
1407528695982,0.283293524991,6.74448179195,0.56515892147,0.0
1407528696001,0.381443439201,7.16947706434,0.654221159353,0.0
1407528696007,0.723255517601,8.62009711918,0.884467419372,0.0
1407528696011,0.95643092172,9.45702583945,0.932414309207,0.0
1407528696050,1.01156493169,10.0710065247,0.797141325505,0.0
1407528696051,1.24177364297,10.4480237751,0.423259391781,0.0
1407528696052,1.56612339133,10.5972706465,-0.0192874875809,0.0
1407528696070,1.69545928493,10.7203384748,-0.558771641703,0.0
1407528696071,1.52748758608,10.7748987998,-0.742085815413,0.0
1407528696072,1.44123048867,10.7930311237,-0.78900414225,0.0
1407528696112,1.2678579212,10.6448804853,-0.490655738765,0.0
1407528696113,1.85594462317,9.84395724837,0.497491634852,0.0
1407528696113,2.98585141891,9.10306561995,1.05526810135,0.0
1407528696114,3.67956776023,9.1431858954,0.777420825834,0.0
1407528696137,4.17292562682,9.64063136269,0.438095295361,0.0
1407528696138,4.04110857289,10.5810655686,0.289611592564,0.0
1407528696143,3.28317996967,11.6026018288,0.071374230083,0.0
1407528696169,2.15574594066,12.4888249717,-0.165805096246,0.0
1407528696170,1.11660869135,13.1244205207,-0.13427872642,0.0
1407528696171,0.578305998402,12.818323268,0.143263910278,0.0
1407528696183,0.197108240928,11.8778038334,0.510815907846,0.0
1407528696208,-0.640716779189,11.1542369346,0.672054938688,0.0
1407528696210,-1.40723953943,10.3277646259,1.1018774904,0.0
1407528696211,-1.63179253114,9.69250409567,0.995472940876,0.0
1407528696245,-1.26978917716,9.30429412228,1.17827661415,0.0
1407528696245,-0.851013175588,9.57824748157,1.56706816698,0.0
1407528696246,-0.762036886099,10.4170324869,1.13012116014,0.0
1407528696265,-1.073839334,11.2917528278,0.0440555254373,0.0
1407528696266,-1.78417006173,12.6102371797,-1.13278343862,0.0
1407528696283,-2.28447487036,13.4194714086,-1.39473588319,0.0
1407528696284,-2.67764239599,14.2047942557,-0.595291578618,0.0
1407528696291,-2.47752477142,14.5249939927,0.084737369768,14.5249939927
1407528696313,-2.30336951226,14.4507426713,0.0324674571566,0.0
1407528696314,-1.70640706865,13.991935296,-0.322002031124,0.0
1407528696331,-1.19131881592,12.7995394231,-0.681730914158,0.0
1407528696332,-0.819515847891,11.7797124362,-0.900694222237,0.0
1407528696344,-0.276566008782,10.7501626664,-0.83638420449,0.0
1407528696361,-0.462705548343,9.77406299088,-0.651121489639,0.0
1407528696363,-0.332604825947,8.84485102004,-0.712247380371,0.0
1407528696383,-0.238383333621,8.26008958567,-1.00147409677,0.0
1407528696384,0.169360257032,7.77407156689,-1.43022921407,0.0
1407528696391,0.862936333737,7.56089125886,-1.52157744452,0.0
1407528696423,0.997636771459,7.28593010301,-1.2924426537,0.0
1407528696424,0.782769426776,7.16506986724,-1.06005756964,0.0
1407528696425,0.667187482174,6.65875707725,-0.661274817092,0.0
1407528696431,0.592860477431,6.36885928218,-0.56078206197,0.0
1407528696452,0.0305701910855,6.21295747973,-0.653346023974,0.0
1407528696453,0.246592469647,6.67945342556,-0.607079927439,0.0
1407528696463,0.242733513454,7.22651190275,-0.267788865033,0.0
1407528696477,-0.0045175738939,7.20941070495,-0.264288148912,0.0
1407528696501,-0.319440246167,6.82595739647,-0.402992151294,0.0
1407528696502,-0.741877664623,6.50112696162,-0.687842167355,0.0
1407528696504,-0.913169838951,6.34379539465,-1.01426398312,0.0
1407528696511,-0.852927048773,6.16620001166,-1.40523436037,0.0
1407528696545,-0.875042685315,6.13310228966,-1.72733701598,0.0
1407528696545,-0.900976895224,6.02734386841,-1.97864698474,0.0
1407528696546,-0.644921448996,5.7886713038,-2.11008172062,0.0
1407528696564,-0.0451005511269,5.43532238273,-2.10318798176,0.0
1407528696564,0.435761751594,5.11591163715,-1.91005599429,0.0
1407528696581,0.546963424731,5.00141161407,-1.65429576575,0.0
1407528696597,0.35892431366,5.26660889666,-1.23981335526,0.0
1407528696598,0.0345632586423,6.08463974814,-0.825502231495,0.0
1407528696614,0.225922838883,7.38298225344,-0.565999713064,0.0
1407528696615,1.02434098648,9.41004852854,-0.481586889218,0.0
1407528696632,1.11501436203,11.6894543174,-0.553409899939,0.0
1407528696632,0.277807262581,13.2850360619,-0.214049144499,0.0
1407528696643,-1.15122583086,13.4023724802,1.06793915695,0.0
1407528696669,-1.4655559108,13.4982601808,1.71237530448,0.0
1407528696670,-0.540706767829,13.3454604835,0.585201671378,0.0
1407528696672,0.929387519088,12.2271576002,-1.46952183422,0.0
1407528696704,2.59862960986,11.0804768323,-2.59324280011,0.0
1407528696705,3.68066490157,10.6388300841,-3.02958021586,0.0
1407528696706,3.95755507732,11.2208256596,-2.90773450823,0.0
1407528696712,3.72910236226,11.7972020953,-2.21821240211,0.0
1407528696737,2.69680489653,11.8219815581,-1.08440604304,0.0
1407528696738,0.699377139388,11.4250158526,0.180839951331,0.0
1407528696745,0.460881214796,11.2866590456,0.25330737539,0.0
1407528696766,0.311184730641,12.2044187987,0.546828654251,0.0
1407528696767,-1.24491226977,13.4521820221,0.861317946746,0.0
1407528696772,-3.48450890459,14.2453687615,1.20491308907,0.0
1407528696803,-5.23481025574,14.7540853118,0.849076262125,14.7540853118
1407528696804,-6.26396168731,14.6966671064,1.35392103525,0.0
1407528696806,-5.85224072065,13.0423958445,2.14663444524,0.0
1407528696812,-4.44347767078,10.3380963535,1.44157458278,0.0
1407528696849,-2.84963574002,8.37764816263,0.474218309873,0.0
1407528696852,-2.24696663142,8.0799110636,-0.0201576482448,0.0
1407528696853,-1.65025421879,8.47403808224,-0.000849618145024,0.0
1407528696854,-0.817441555048,8.5571133793,-0.0730433587253,0.0
1407528696865,-0.149425508699,8.35395559087,-0.263694530215,0.0
1407528696898,0.305595591829,8.07516706977,-0.468671186661,0.0
1407528696899,0.537160770234,7.80659536165,-0.422075325552,0.0
1407528696899,0.480599732089,7.8091113292,-0.0136104870267,0.0
1407528696903,-0.0502602561904,8.18325827783,0.535368390314,0.0
1407528696912,-0.759291350922,9.02507080341,1.00112579102,0.0
1407528696937,-1.3310795046,9.917069782,1.3675934862,0.0
1407528696938,-1.61904148378,10.844197413,1.64667692084,0.0
1407528696943,-1.48889055435,11.0018335314,1.9421993887,0.0
1407528696972,-1.06349806959,10.738241121,2.14034396625,0.0
1407528696973,-0.264328596119,10.1641077289,2.18204373156,0.0
1407528696974,0.182820280763,9.63230147714,1.85312108116,0.0
1407528697004,0.355646850998,9.08465178024,1.44919672576,0.0
1407528697005,0.492953180485,8.63189216787,1.00534719118,0.0
1407528697005,0.689746366072,8.29238555325,0.703064846666,0.0
1407528697012,0.746032047206,7.75380516567,0.325994314161,0.0
1407528697032,0.452992681441,7.51433744745,0.0852073687558,0.0
1407528697033,0.256277234153,7.30334821625,-0.0791048879531,0.0
1407528697044,0.441519640839,7.00586596131,-0.068506574066,0.0
1407528697064,0.451691029551,6.78850600589,-0.218899952396,0.0
1407528697065,0.459441679049,6.73640787764,-0.281473031583,0.0
1407528697073,0.659312887276,6.58795459611,-0.181008805443,0.0
1407528697099,0.767774988187,6.53261347214,-0.171654976136,0.0
1407528697100,0.927553374356,6.50134715903,-0.137521258102,0.0
1407528697105,1.02891962524,6.77646890023,-0.0583080513342,0.0
1407528697112,1.15515133171,7.07903468976,0.246281534722,0.0
1407528697137,1.32162079637,7.17568991347,0.511856573153,0.0
1407528697138,1.47536446954,7.5069170673,0.716948645384,0.0
1407528697152,1.57627929048,7.82489821565,0.95763308368,0.0
1407528697198,1.58476537356,8.05433677567,1.18315493855,0.0
1407528697199,1.47790323149,8.60527055666,1.07354339214,0.0
1407528697200,1.49527541993,9.05461133778,0.604810623289,0.0
1407528697201,1.45000159696,9.40804393819,-0.140017213122,0.0
1407528697202,1.07154883459,9.81923539831,-0.744303327008,0.0
1407528697204,0.653897970368,10.3953120722,-1.27352581659,0.0
1407528697212,0.143864327463,10.8798103718,-1.33399534987,0.0
1407528697240,0.167827107329,10.833062878,-0.76392668004,0.0
1407528697242,1.20323282247,10.0101336539,0.492866510678,0.0
1407528697244,3.01098866264,8.9889512696,1.37373308309,0.0
1407528697270,4.1530571645,8.61110693731,0.572736889381,0.0
1407528697271,4.05644451858,10.1775758821,-0.601802896389,0.0
1407528697273,3.26754672447,11.1264083079,-0.0953162752953,0.0
1407528697306,2.49108298352,12.0399961687,0.109607665612,0.0
1407528697307,1.7778199057,12.8076644675,0.228802707833,0.0
1407528697308,1.34014716002,13.0088098055,0.346446068535,0.0
1407528697312,0.893560603782,12.7846740707,0.292403063278,0.0
1407528697340,0.39135734981,12.2630417101,0.489909836376,0.0
1407528697341,-0.313250309791,11.5331224835,0.734712152339,0.0
1407528697371,-1.01032329848,10.7964372925,1.10327927453,0.0
1407528697372,-1.26901269341,10.0919440032,1.06779513909,0.0
1407528697373,-1.02747609669,9.37912093107,1.48970681948,0.0
1407528697374,-0.821782762753,9.03633196709,1.17473837572,0.0
1407528697415,-1.24064458698,9.77306822289,0.626091446317,0.0
1407528697416,-1.60960634849,10.876943641,0.240650447287,0.0
1407528697417,-1.90913947476,12.0243960867,-0.560987732968,0.0
1407528697419,-2.38850815111,13.3046445032,-1.0665378349,0.0
1407528697449,-2.90370558512,14.5892281855,-0.277518784399,0.0
1407528697450,-3.07180440932,15.2826718806,0.304922390102,15.2826718806
1407528697450,-2.35750388681,15.1844799995,0.210907592095,0.0
1407528697453,-1.54258192524,14.7669812056,-0.119972222276,0.0
1407528697477,-1.25209092477,13.703434224,-0.51648199971,0.0
1407528697479,-1.15343528366,12.2908592969,-0.569452346967,0.0
1407528697517,-0.920716292296,10.984624487,-0.16679601342,0.0
1407528697518,-0.454751495974,9.70810993847,-0.24265579274,0.0
1407528697520,0.0464130109895,9.14507611996,-0.696070050971,0.0
1407528697522,0.286294361303,8.59735780606,-0.830492262626,0.0
1407528697528,0.429240458771,7.8826655033,-0.772894691087,0.0
1407528697571,0.59463773194,7.33277575611,-0.825308160593,0.0
1407528697573,0.837753798449,7.05552414338,-1.03055270283,0.0
1407528697573,0.770659522366,7.03394398499,-1.09940276839,0.0
1407528697574,0.577774246272,7.00862372675,-0.993691799854,0.0
1407528697575,0.393434328707,6.78872813713,-0.912622345208,0.0
1407528697597,0.32359290591,6.86900136198,-1.01704816322,0.0
1407528697598,0.253937847817,6.81815100404,-0.881576395854,0.0
1407528697604,-0.150509834097,6.82651018085,-0.883763324191,0.0
1407528697613,-0.39008996825,6.45123111188,-0.789582020618,0.0
1407528697654,-0.412989701771,6.10573226895,-0.711393826963,0.0
1407528697655,-0.267842111008,5.85733586242,-0.760395710194,0.0
1407528697656,-0.138602290922,5.82979373482,-0.98546782958,0.0
1407528697656,0.132540440506,5.69422535623,-1.22735498559,0.0
1407528697693,0.310556285381,5.68089515354,-1.45805758156,0.0
1407528697696,0.447354958049,5.63936932325,-1.61039636592,0.0
1407528697697,0.707891057852,5.56817757592,-1.5929504342,0.0
1407528697697,0.968485573148,5.49436995,-1.6774619723,0.0
1407528697711,0.868684108737,5.40473207434,-1.709889628,0.0
1407528697714,0.301360809712,5.39557272734,-1.60068112112,0.0
1407528697731,-0.19599577186,5.86459309455,-1.34856512942,0.0
1407528697732,-0.155697886267,7.19697631839,-1.15776632561,0.0
1407528697744,0.33229031314,9.10044336652,-1.06131603258,0.0
1407528697761,0.432665692811,10.7540668737,-1.18220299684,0.0
1407528697778,0.0346817087681,12.0829885364,-0.811848986586,0.0
1407528697780,-0.644624375907,12.5860900103,0.457957064396,0.0
1407528697796,-0.860293904494,12.9107495984,1.61712929183,0.0
1407528697797,-0.0419390322645,13.0036367642,1.2875653573,0.0
1407528697804,1.33414933336,11.8660479669,-0.495541552487,0.0
1407528697813,2.87344029082,10.7328313008,-2.02689186587,0.0
1407528697827,3.67848435527,10.3961477874,-2.92474368924,0.0
1407528697842,3.69385179036,11.0156271496,-3.01370341695,0.0
1407528697844,3.33580685036,11.9057266501,-2.37878135861,0.0
1407528697858,2.62995629013,12.4385017198,-1.41536799944,0.0
1407528697876,1.34745648498,12.7330807579,-0.0457544134611,0.0
1407528697877,0.190653494677,12.5123790892,0.234502254844,0.0
1407528697896,0.181911050499,12.1906285471,-0.240185654166,0.0
1407528697896,-0.106685834516,12.5687708536,-0.127476594774,0.0
1407528697904,-1.77413319581,12.9240214211,0.533837808513,0.0
1407528697925,-4.24530628741,12.8504581473,1.11760783053,0.0
1407528697926,-5.99440171222,13.3286701828,0.959011739305,13.3286701828
1407528697943,-5.94044666033,12.7392856065,1.40797850929,0.0
1407528697960,-5.19644753302,10.9326452355,1.90730468545,0.0
1407528697960,-3.46555071587,9.23237376659,1.33794757736,0.0
1407528697979,-2.23861413454,8.46950841151,1.01756558689,0.0
1407528697979,-1.570023534,8.76096407334,1.04406275621,0.0
1407528697993,-0.503329542656,9.139939347,1.03880989168,0.0
1407528697994,0.182113168726,9.36457890742,0.808845555469,0.0
1407528698007,0.472223789125,9.36798298717,0.337403636083,0.0
1407528698026,0.557235584437,8.99734978122,0.191373101449,0.0
1407528698026,0.496635772318,8.46439661414,0.149625466402,0.0
1407528698039,0.383437995046,8.09896902286,0.30943712199,0.0
1407528698045,-0.0835758101638,8.43437267999,0.665136456303,0.0
1407528698055,-0.565954280969,9.0418083011,1.03385124482,0.0
1407528698075,-0.922837424352,9.69232227583,1.34861684218,0.0
1407528698075,-1.02829071051,10.2113768827,1.70618682977,0.0
1407528698092,-0.691601158403,10.290439255,1.92632534163,0.0
1407528698093,-0.154976288888,10.0821611573,1.99277223609,0.0
1407528698106,0.261725942762,9.65853181553,1.94003963734,0.0
1407528698122,0.552060684637,8.9560433592,1.71712128325,0.0
1407528698126,0.662719184007,8.58791216456,1.38486001779,0.0
1407528698138,0.566793508931,8.31604494134,0.929053247289,0.0
1407528698145,0.638538232847,7.74090638246,0.580340975669,0.0
1407528698156,0.465943456331,7.58008407693,0.301736582292,0.0
1407528698174,0.237485522834,7.5823677699,0.117956884678,0.0
1407528698175,0.134361989115,7.2899416923,0.0590040939085,0.0
1407528698189,0.201042471026,6.94439665487,0.0777975139714,0.0
1407528698193,0.268032757855,6.7501535673,0.0861098351819,0.0
1407528698205,0.357701540744,7.04181252584,0.100523999163,0.0
1407528698223,0.668401648375,6.80668132655,0.197133787942,0.0
1407528698224,0.874793644613,6.57528058456,0.199263829282,0.0
1407528698241,0.917241653061,6.6311791245,0.162765300145,0.0
1407528698258,0.845692292227,6.910655513,0.239578985754,0.0
1407528698259,0.99986937127,7.36037149207,0.597812067337,0.0
1407528698276,1.36589953456,8.08828709701,0.920999003316,0.0
1407528698302,1.69105806094,8.37700747436,1.19144484678,0.0
1407528698333,1.81338847675,8.38793631,1.34880531254,0.0
1407528698334,1.79552512532,8.41553926501,1.29577113055,0.0
1407528698334,1.74393111533,8.59547771062,1.1953536477,0.0
1407528698335,1.45209024318,9.06114626606,0.750030355458,0.0
1407528698335,1.24109677792,9.50442953652,0.176382757694,0.0
1407528698336,1.09946162331,9.73398726697,-0.189382446239,0.0
1407528698358,0.744419193427,10.1368086626,-0.614519621724,0.0
1407528698359,0.147154544222,10.7378865226,-1.10053819975,0.0
1407528698378,-0.138311559679,11.1274346195,-1.18146127405,0.0
1407528698378,0.197378383589,10.62374411,0.0903581259572,0.0
1407528698398,1.39278368101,9.41298373081,1.50862270055,0.0
1407528698398,2.76700170343,8.74220118526,1.69665923849,0.0
1407528698404,3.55447104819,8.94607216473,0.890485628698,0.0
1407528698423,3.79707874775,9.79920453883,0.110094630901,0.0
1407528698440,3.44294169295,10.8977962223,-0.0985190120888,0.0
1407528698441,2.70304956516,11.8515241844,0.205583531953,0.0
1407528698461,1.86420103047,12.7088077337,0.461088312659,0.0
1407528698462,1.45243763927,13.1470537832,0.710075897095,0.0
1407528698480,1.12692019738,12.9286239285,0.80721884389,0.0
1407528698481,0.740693021199,12.1887689879,1.05361007933,0.0
1407528698486,0.131786330888,11.3880248712,1.10143966826,0.0
1407528698512,-0.734013538765,10.5770190485,1.09388306987,0.0
1407528698513,-1.43571685509,9.78858024856,1.23253593855,0.0
1407528698514,-1.4913909179,9.01362471545,1.02446208731,0.0
1407528698524,-1.07970084103,8.42725198454,0.937006009979,0.0
1407528698546,-1.06120479567,9.80418863655,0.833490795526,0.0
1407528698547,-1.45391784987,11.4933820682,-0.125426311529,0.0
1407528698553,-1.87149899886,13.0812821347,-0.957326646396,0.0
1407528698581,-2.46421221995,14.3754755579,-0.809884866417,0.0
1407528698582,-2.43246141847,15.3578332375,-0.0360055210983,0.0
1407528698584,-2.10700388325,15.5527088101,0.357865329426,15.5527088101
1407528698593,-1.61702949634,14.6511129319,0.13559962498,0.0
1407528698613,-1.17689761387,13.5315477941,-0.144390711594,0.0
1407528698614,-1.11993146082,12.4501448403,-0.304916888117,0.0
1407528698624,-0.713220616788,11.2650028538,-0.194358160618,0.0
1407528698645,-0.626470181451,10.2254314091,-0.191584399508,0.0
1407528698646,-0.105335566133,9.31018314216,-0.41140610914,0.0
1407528698653,0.262677239571,8.53356796479,-0.601858625244,0.0
1407528698679,0.506597007661,7.61490385749,-0.878603048309,0.0
1407528698680,0.945119265114,7.38337386028,-1.18398054157,0.0
1407528698685,1.11441057577,7.23027674956,-1.184994125,0.0
1407528698713,1.10819285212,7.00493659536,-1.08794370914,0.0
1407528698714,0.802760754626,6.74538015319,-1.08520290008,0.0
1407528698715,0.596042186346,6.39193998863,-1.08813923177,0.0
1407528698727,0.309835979845,6.62453425093,-0.981633023452,0.0
1407528698749,-0.0504231888906,6.60823706868,-0.882708772739,0.0
1407528698751,-0.310055343771,6.65013102075,-0.806350985034,0.0
1407528698754,-0.390833254245,6.77690788618,-0.71419156537,0.0
1407528698788,-0.517078671789,7.04556067879,-0.645747096937,0.0
1407528698789,-0.796723423141,7.01890508337,-0.597642627888,0.0
1407528698790,-0.89758029978,6.73571181368,-0.616891323883,0.0
1407528698812,-0.779435015581,6.70142992757,-0.735058074557,0.0
1407528698813,-0.548226385314,6.6670972122,-0.886181952245,0.0
1407528698814,-0.493069958202,6.75582701158,-1.08984446195,0.0
1407528698827,-0.227708575156,6.54794106375,-1.3741787117,0.0
1407528698851,0.101466187561,6.17670181647,-1.48969861853,0.0
1407528698852,0.31725481503,5.78427955203,-1.45817927542,0.0
1407528698854,0.483615789843,5.49722179667,-1.43828697736,0.0
1407528698888,0.411443854184,5.45730702682,-1.35261398269,0.0
1407528698889,0.0453314870312,5.83178636838,-1.14541361741,0.0
1407528698890,-0.20830032958,6.78752793886,-1.1679758904,0.0
1407528698913,0.21610051128,8.64159539021,-0.950797830653,0.0
1407528698914,0.752541058451,10.8634238463,-0.29306084163,0.0
1407528698915,0.632839345692,12.3039071547,0.0142929464077,0.0
1407528698925,-0.0713814517171,12.7450314093,0.152045128207,0.0
1407528698947,-0.991469888194,12.3790463236,1.2067195562,0.0
1407528698948,-1.1195228542,12.8712556857,1.92413601638,0.0
1407528698954,-0.17048446044,12.6448067214,0.514059407168,0.0
1407528698972,1.43852828713,11.3843424912,-1.67792213627,0.0
1407528698974,2.82620095503,10.1957175302,-2.65623527195,0.0
1407528698989,3.51879188126,9.45238504873,-2.41606269064,0.0
1407528699014,3.14684279162,9.6479581731,-1.603406196,0.0
1407528699014,2.22244563763,10.9346197739,-0.51252079111,0.0
1407528699015,1.59426695771,12.308447106,0.583976010563,0.0
1407528699048,1.06208543951,12.9970037106,1.3520422223,0.0
1407528699048,0.210144866603,13.3259906743,1.19845882591,0.0
1407528699049,-1.75314347463,14.2170964664,0.968284994902,0.0
1407528699054,-4.39530770788,16.0679795342,1.32541587857,0.0
1407528699072,-4.58380153373,16.1396068853,1.08267269592,16.1396068853
1407528699074,-4.50436970709,13.900222581,0.841806997973,0.0
1407528699087,-4.82805922803,11.3590696296,0.720106655602,0.0
1407528699106,-3.84819149536,9.51362913927,-0.0216218362446,0.0
1407528699106,-2.67302594284,8.42042551092,-0.388171298948,0.0
1407528699122,-1.33557279005,8.06790385324,-0.403945746983,0.0
1407528699136,-0.648636025101,8.42388176946,-0.0903488102792,0.0
1407528699136,-0.188519586792,8.83222427326,0.134907944142,0.0
1407528699154,0.00131112391277,9.11831911578,0.484761321843,0.0
1407528699154,-0.0357101305753,9.17112283705,0.97019467833,0.0
1407528699168,-0.268085528722,9.17197438443,1.2079675192,0.0
1407528699173,-0.663755291576,9.1707448108,1.35571136556,0.0
1407528699185,-0.925896506321,9.17488442064,1.48996957861,0.0
1407528699210,-1.22698716405,9.22671629998,1.43973319377,0.0
1407528699210,-1.33495336854,9.40668272655,1.41441754337,0.0
1407528699214,-1.24919787735,9.6430623188,1.43242894373,0.0
1407528699247,-0.828118131857,9.7762696501,1.48950723763,0.0
1407528699248,-0.417958631803,10.1036715183,1.39464146664,0.0
1407528699249,-0.0310533761476,10.1902418679,1.31429001306,0.0
1407528699254,0.299837148761,9.70889953049,1.46153603942,0.0
1407528699276,0.551811583943,8.96951912886,1.66239774675,0.0
1407528699277,0.502647417989,8.5716009308,1.5720587409,0.0
1407528699285,0.270794245538,8.20351573709,1.19883436376,0.0
1407528699312,0.32744145517,7.96466163443,0.929867036338,0.0
1407528699313,0.204320829208,7.9027939095,0.703088949706,0.0
1407528699314,-0.0301693201467,7.88491764057,0.433980717587,0.0
1407528699347,-0.163015812871,7.94518215465,0.215011908834,0.0
1407528699348,-0.110517379133,7.80401450153,0.147857893828,0.0
1407528699349,-0.0554015676482,7.66008063543,0.110746215489,0.0
1407528699354,0.00287499866308,7.6294830508,0.19617061788,0.0
1407528699373,0.150389630062,7.52468235887,0.285010711056,0.0
1407528699374,0.400684762621,8.0831715517,0.265225601682,0.0
1407528699393,0.719061142022,8.31146153057,0.438163105542,0.0
1407528699395,1.07876727584,7.94486274918,0.679740702906,0.0
1407528699409,1.26787606109,7.68745527665,0.791359664636,0.0
1407528699432,1.44512033379,7.62619853195,0.755865984263,0.0
1407528699433,1.65455003938,7.61918425401,0.688933762245,0.0
1407528699434,1.80595616376,7.62608282189,0.59596710654,0.0
1407528699460,1.80385789151,7.70589218184,0.630839758238,0.0
1407528699461,1.89858209746,7.887713322,0.680571627365,0.0
1407528699466,1.76796516297,8.1835634699,0.757233770666,0.0
1407528699490,1.46843847668,8.61556817543,0.82019700713,0.0
1407528699491,1.26979047995,9.15492809094,0.719499469687,0.0
1407528699508,1.11773629084,9.74066717417,0.390828162568,0.0
1407528699510,1.0735727101,10.2188758672,0.0541845647589,0.0
1407528699514,1.24492008579,10.4509320836,-0.274560013931,0.0
1407528699541,1.22791624096,10.2708186903,-0.645724538287,0.0
1407528699542,1.18098591509,9.9059420102,-1.02699741143,0.0
1407528699546,1.3943781161,9.42642769825,-1.19971221324,0.0
1407528699554,1.54513859338,9.09279608447,-1.25877756185,0.0
1407528699573,1.64208672978,8.97907899885,-1.41691695588,0.0
1407528699599,1.70929196736,9.1414648626,-0.826330438096,0.0
1407528699599,1.89555546378,9.25676400634,0.172214918973,0.0
1407528699599,1.73774210903,9.73281243035,0.783598780863,0.0
1407528699606,1.13640700473,10.4728381002,1.35616523293,0.0
1407528699621,0.50240767175,11.060571327,2.09100855492,0.0
1407528699637,0.00890814648227,11.676178619,2.75241517419,0.0
1407528699637,0.0116553143065,12.262459808,3.14701899892,0.0
1407528699652,0.359707505163,12.4038043978,3.3799726522,12.4038043978
1407528699654,0.337122328476,12.113802231,3.35190037855,0.0
1407528699668,0.282865554567,11.1978086628,2.98307046693,0.0
1407528699685,0.144158194486,10.0791207482,2.24622678397,0.0
1407528699688,-0.317901494857,10.0114586195,1.7149851657,0.0
1407528699708,-1.01315771758,10.4880626013,0.997768069871,0.0
1407528699709,-1.89836489562,11.1628929146,0.232457579829,0.0
1407528699714,-2.37960339149,11.8921645733,0.22533394315,0.0
1407528699744,-2.60530607175,12.0815283546,0.366797267209,0.0
1407528699745,-2.13575147992,11.7537113171,0.37779679322,0.0
1407528699748,-1.76430522785,11.2644468812,0.37732977858,0.0
1407528699754,-1.26739039352,10.6779885856,0.340328708923,0.0
1407528699774,-0.633521475889,10.2545599494,0.320577793783,0.0
1407528699775,-0.128783695905,10.0678702716,0.387587888961,0.0
1407528699786,0.0430253648963,9.93235211298,0.624827717937,0.0
1407528699807,0.215415682596,10.2101268385,0.655489091572,0.0
1407528699809,0.293606604178,10.3859961755,0.687211764316,0.0
1407528699815,0.311966564642,10.011933789,0.855935641195,0
1407528699842,0.248962627011,9.71868981293,0.90482505366,0
1407528699843,0.273668443038,9.29397129107,0.913302545117,0
1407528699846,0.269854209724,8.87902484647,0.788366469039,0
1407528699855,0.291396324891,8.60948275998,0.733894561592,0
1407528699875,0.193657612278,8.62540353008,0.617879439923,0
1407528699876,0.0900913492113,8.64352194738,0.674613816509,0
1407528699886,-0.0641678949558,8.58591059568,0.919270628515,0
1407528699909,-0.270715283283,8.41694379651,1.13720820008,0
1407528699910,-0.431160597448,8.35561029069,1.2921497176,0
1407528699915,-0.501372160096,8.30418839045,1.27239829042,0
1407528699947,-0.502610104589,8.19053220566,1.1966440556,0
1407528699947,-0.529903132102,8.01508894589,1.09826353777,0
1407528699948,-0.590064005228,7.81010840058,1.0962952797,0
1407528699955,-0.634859821169,7.67667643169,1.12874789274,0
1407528699976,-0.739895974612,7.63982741244,0.97462996229,0
1407528699977,-0.894171500822,7.86231973444,0.764546822184,0
1407528699988,-0.945868580669,8.40059060074,0.954547551023,0
1407528700014,-0.997318593722,9.05086981145,0.774088960832,0
1407528700015,-1.01619343141,9.61722983533,0.450717533062,0
