index,i,acc_x,acc_y,acc_z
0,0,[0.10584982408587681, 0.9217146910185905, -0.006435556710096117],[0.050722389458064315, 0.8864558722348277, -0.021051403807042627],[-0.03653006731546123, 0.8484066019977767, -0.023415014100464253]
0,1,[0.10584982408587681, 0.9217146910185905, -0.006435556710096117],[0.050722389458064315, 0.8864558722348277, -0.021051403807042627],[-0.03653006731546123, 0.8484066019977767, -0.023415014100464253]
0,2,[0.10584982408587681, 0.9217146910185905, -0.006435556710096117],[0.050722389458064315, 0.8864558722348277, -0.021051403807042627],[-0.03653006731546123, 0.8484066019977767, -0.023415014100464253]
0,3,[0.10584982408587681, 0.9217146910185905, -0.006435556710096117],[0.050722389458064315, 0.8864558722348277, -0.021051403807042627],[-0.03653006731546123, 0.8484066019977767, -0.023415014100464253]
0,4,[0.10584982408587681, 0.9217146910185905, -0.006435556710096117],[0.050722389458064315, 0.8864558722348277, -0.021051403807042627],[-0.03653006731546123, 0.8484066019977767, -0.023415014100464253]
0,5,[0.10584982408587681, 0.9217146910185905, -0.006435556710096117],[0.050722389458064315, 0.8864558722348277, -0.021051403807042627],[-0.03653006731546123, 0.8484066019977767, -0.023415014100464253]
0,6,[0.10584982408587681, 0.9217146910185905, -0.006435556710096117],[0.050722389458064315, 0.8864558722348277, -0.021051403807042627],[-0.03653006731546123, 0.8484066019977767, -0.023415014100464253]
0,7,[0.10584982408587681, 0.9217146910185905, -0.006435556710096117],[0.050722389458064315, 0.8864558722348277, -0.021051403807042627],[-0.03653006731546123, 0.8484066019977767, -0.023415014100464253]
0,8,[0.10584982408587681, 0.9217146910185905, -0.006435556710096117],[0.050722389458064315, 0.8864558722348277, -0.021051403807042627],[-0.03653006731546123, 0.8484066019977767, -0.023415014100464253]
0,9,[0.10584982408587681, 0.9217146910185905, -0.006435556710096117],[0.050722389458064315, 0.8864558722348277, -0.021051403807042627],[-0.03653006731546123, 0.8484066019977767, -0.023415014100464253]
0,10,[0.10584982408587681, 0.9217146910185905, -0.006435556710096117],[0.050722389458064315, 0.8864558722348277, -0.021051403807042627],[-0.03653006731546123, 0.8484066019977767, -0.023415014100464253]
0,11,[0.10584982408587681, 0.9217146910185905, -0.006435556710096117],[0.050722389458064315, 0.8864558722348277, -0.021051403807042627],[-0.03653006731546123, 0.8484066019977767, -0.023415014100464253]
0,12,[0.10584982408587681, 0.9217146910185905, -0.006435556710096117],[0.050722389458064315, 0.8864558722348277, -0.021051403807042627],[-0.03653006731546123, 0.8484066019977767, -0.023415014100464253]
0,13,[0.10584982408587681, 0.9217146910185905, -0.006435556710096117],[0.050722389458064315, 0.8864558722348277, -0.021051403807042627],[-0.03653006731546123, 0.8484066019977767, -0.023415014100464253]
0,14,[0.10584982408587681, 0.9217146910185905, -0.006435556710096117],[0.050722389458064315, 0.8864558722348277, -0.021051403807042627],[-0.03653006731546123, 0.8484066019977767, -0.023415014100464253]
0,15,[0.10584982408587681, 0.9217146910185905, -0.006435556710096117],[0.050722389458064315, 0.8864558722348277, -0.021051403807042627],[-0.03653006731546123, 0.8484066019977767, -0.023415014100464253]
0,16,[0.10584982408587681, 0.9217146910185905, -0.006435556710096117],[0.050722389458064315, 0.8864558722348277, -0.021051403807042627],[-0.03653006731546123, 0.8484066019977767, -0.023415014100464253]
0,17,[0.10584982408587681, 0.9217146910185905, -0.006435556710096117],[0.050722389458064315, 0.8864558722348277, -0.021051403807042627],[-0.03653006731546123, 0.8484066019977767, -0.023415014100464253]
0,18,[0.10584982408587681, 0.9217146910185905, -0.006435556710096117],[0.050722389458064315, 0.8864558722348277, -0.021051403807042627],[-0.03653006731546123, 0.8484066019977767, -0.023415014100464253]
0,19,[0.10584982408587681, 0.9217146910185905, -0.006435556710096117],[0.050722389458064315, 0.8864558722348277, -0.021051403807042627],[-0.03653006731546123, 0.8484066019977767, -0.023415014100464253]
0,20,[0.10584982408587681, 0.9217146910185905, -0.006435556710096117],[0.050722389458064315, 0.8864558722348277, -0.021051403807042627],[-0.03653006731546123, 0.8484066019977767, -0.023415014100464253]
0,21,[0.10584982408587681, 0.9217146910185905, -0.006435556710096117],[0.050722389458064315, 0.8864558722348277, -0.021051403807042627],[-0.03653006731546123, 0.8484066019977767, -0.023415014100464253]
0,22,[0.10584982408587681, 0.9217146910185905, -0.006435556710096117],[0.050722389458064315, 0.8864558722348277, -0.021051403807042627],[-0.03653006731546123, 0.8484066019977767, -0.023415014100464253]
0,23,[0.10584982408587681, 0.9217146910185905, -0.006435556710096117],[0.050722389458064315, 0.8864558722348277, -0.021051403807042627],[-0.03653006731546123, 0.8484066019977767, -0.023415014100464253]
0,24,[0.10584982408587681, 0.9217146910185905, -0.006435556710096117],[0.050722389458064315, 0.8864558722348277, -0.021051403807042627],[-0.03653006731546123, 0.8484066019977767, -0.023415014100464253]
0,25,[0.10584982408587681, 0.9217146910185905, -0.006435556710096117],[0.050722389458064315, 0.8864558722348277, -0.021051403807042627],[-0.03653006731546123, 0.8484066019977767, -0.023415014100464253]
0,26,[0.10584982408587681, 0.9217146910185905, -0.006435556710096117],[0.050722389458064315, 0.8864558722348277, -0.021051403807042627],[-0.03653006731546123, 0.8484066019977767, -0.023415014100464253]
0,27,[0.10584982408587681, 0.9217146910185905, -0.006435556710096117],[0.050722389458064315, 0.8864558722348277, -0.021051403807042627],[-0.03653006731546123, 0.8484066019977767, -0.023415014100464253]
0,28,[0.10584982408587681, 0.9217146910185905, -0.006435556710096117],[0.050722389458064315, 0.8864558722348277, -0.021051403807042627],[-0.03653006731546123, 0.8484066019977767, -0.023415014100464253]
0,29,[0.10584982408587681, 0.9217146910185905, -0.006435556710096117],[0.050722389458064315, 0.8864558722348277, -0.021051403807042627],[-0.03653006731546123, 0.8484066019977767, -0.023415014100464253]
0,30,[0.10584982408587681, 0.9217146910185905, -0.006435556710096117],[0.050722389458064315, 0.8864558722348277, -0.021051403807042627],[-0.03653006731546123, 0.8484066019977767, -0.023415014100464253]
0,31,[0.10584982408587681, 0.9217146910185905, -0.006435556710096117],[0.050722389458064315, 0.8864558722348277, -0.021051403807042627],[-0.03653006731546123, 0.8484066019977767, -0.023415014100464253]
0,32,[0.10584982408587681, 0.9217146910185905, -0.006435556710096117],[0.050722389458064315, 0.8864558722348277, -0.021051403807042627],[-0.03653006731546123, 0.8484066019977767, -0.023415014100464253]
0,33,[0.10584982408587681, 0.9217146910185905, -0.006435556710096117],[0.050722389458064315, 0.8864558722348277, -0.021051403807042627],[-0.03653006731546123, 0.8484066019977767, -0.023415014100464253]
0,34,[0.10584982408587681, 0.9217146910185905, -0.006435556710096117],[0.050722389458064315, 0.8864558722348277, -0.021051403807042627],[-0.03653006731546123, 0.8484066019977767, -0.023415014100464253]
0,35,[0.10584982408587681, 0.9217146910185905, -0.006435556710096117],[0.050722389458064315, 0.8864558722348277, -0.021051403807042627],[-0.03653006731546123, 0.8484066019977767, -0.023415014100464253]
0,36,[0.10584982408587681, 0.9217146910185905, -0.006435556710096117],[0.050722389458064315, 0.8864558722348277, -0.021051403807042627],[-0.03653006731546123, 0.8484066019977767, -0.023415014100464253]
0,37,[0.10584982408587681, 0.9217146910185905, -0.006435556710096117],[0.050722389458064315, 0.8864558722348277, -0.021051403807042627],[-0.03653006731546123, 0.8484066019977767, -0.023415014100464253]
0,38,[0.10584982408587681, 0.9217146910185905, -0.006435556710096117],[0.050722389458064315, 0.8864558722348277, -0.021051403807042627],[-0.03653006731546123, 0.8484066019977767, -0.023415014100464253]
0,39,[0.10584982408587681, 0.9217146910185905, -0.006435556710096117],[0.050722389458064315, 0.8864558722348277, -0.021051403807042627],[-0.03653006731546123, 0.8484066019977767, -0.023415014100464253]
0,40,[0.10584982408587681, 0.9217146910185905, -0.006435556710096117],[0.050722389458064315, 0.8864558722348277, -0.021051403807042627],[-0.03653006731546123, 0.8484066019977767, -0.023415014100464253]
0,41,[0.10584982408587681, 0.9217146910185905, -0.006435556710096117],[0.050722389458064315, 0.8864558722348277, -0.021051403807042627],[-0.03653006731546123, 0.8484066019977767, -0.023415014100464253]
0,42,[0.10584982408587681, 0.9217146910185905, -0.006435556710096117],[0.050722389458064315, 0.8864558722348277, -0.021051403807042627],[-0.03653006731546123, 0.8484066019977767, -0.023415014100464253]
0,43,[0.10584982408587681, 0.9217146910185905, -0.006435556710096117],[0.050722389458064315, 0.8864558722348277, -0.021051403807042627],[-0.03653006731546123, 0.8484066019977767, -0.023415014100464253]
0,44,[0.10584982408587681, 0.9217146910185905, -0.006435556710096117],[0.050722389458064315, 0.8864558722348277, -0.021051403807042627],[-0.03653006731546123, 0.8484066019977767, -0.023415014100464253]
0,45,[0.10584982408587681, 0.9217146910185905, -0.006435556710096117],[0.050722389458064315, 0.8864558722348277, -0.021051403807042627],[-0.03653006731546123, 0.8484066019977767, -0.023415014100464253]
0,46,[0.10584982408587681, 0.9217146910185905, -0.006435556710096117],[0.050722389458064315, 0.8864558722348277, -0.021051403807042627],[-0.03653006731546123, 0.8484066019977767, -0.023415014100464253]
0,47,[0.10584982408587681, 0.9217146910185905, -0.006435556710096117],[0.050722389458064315, 0.8864558722348277, -0.021051403807042627],[-0.03653006731546123, 0.8484066019977767, -0.023415014100464253]
0,48,[0.10584982408587681, 0.9217146910185905, -0.006435556710096117],[0.050722389458064315, 0.8864558722348277, -0.021051403807042627],[-0.03653006731546123, 0.8484066019977767, -0.023415014100464253]
0,49,[0.10584982408587681, 0.9217146910185905, -0.006435556710096117],[0.050722389458064315, 0.8864558722348277, -0.021051403807042627],[-0.03653006731546123, 0.8484066019977767, -0.023415014100464253]
0,50,[0.10584982408587681, 0.9217146910185905, -0.006435556710096117],[0.050722389458064315, 0.8864558722348277, -0.021051403807042627],[-0.03653006731546123, 0.8484066019977767, -0.023415014100464253]
0,51,[0.10584982408587681, 0.9217146910185905, -0.006435556710096117],[0.050722389458064315, 0.8864558722348277, -0.021051403807042627],[-0.03653006731546123, 0.8484066019977767, -0.023415014100464253]
0,52,[0.10584982408587681, 0.9217146910185905, -0.006435556710096117],[0.050722389458064315, 0.8864558722348277, -0.021051403807042627],[-0.03653006731546123, 0.8484066019977767, -0.023415014100464253]
0,53,[0.10584982408587681, 0.9217146910185905, -0.006435556710096117],[0.050722389458064315, 0.8864558722348277, -0.021051403807042627],[-0.03653006731546123, 0.8484066019977767, -0.023415014100464253]
0,54,[0.10584982408587681, 0.9217146910185905, -0.006435556710096117],[0.050722389458064315, 0.8864558722348277, -0.021051403807042627],[-0.03653006731546123, 0.8484066019977767, -0.023415014100464253]
0,55,[0.10584982408587681, 0.9217146910185905, -0.006435556710096117],[0.050722389458064315, 0.8864558722348277, -0.021051403807042627],[-0.03653006731546123, 0.8484066019977767, -0.023415014100464253]
0,56,[0.10584982408587681, 0.9217146910185905, -0.006435556710096117],[0.050722389458064315, 0.8864558722348277, -0.021051403807042627],[-0.03653006731546123, 0.8484066019977767, -0.023415014100464253]
0,57,[0.10584982408587681, 0.9217146910185905, -0.006435556710096117],[0.050722389458064315, 0.8864558722348277, -0.021051403807042627],[-0.03653006731546123, 0.8484066019977767, -0.023415014100464253]
0,58,[0.10584982408587681, 0.9217146910185905, -0.006435556710096117],[0.050722389458064315, 0.8864558722348277, -0.021051403807042627],[-0.03653006731546123, 0.8484066019977767, -0.023415014100464253]
0,59,[0.10584982408587681, 0.9217146910185905, -0.006435556710096117],[0.050722389458064315, 0.8864558722348277, -0.021051403807042627],[-0.03653006731546123, 0.8484066019977767, -0.023415014100464253]
0,60,[0.10584982408587681, 0.9217146910185905, -0.006435556710096117],[0.050722389458064315, 0.8864558722348277, -0.021051403807042627],[-0.03653006731546123, 0.8484066019977767, -0.023415014100464253]
0,61,[0.10584982408587681, 0.9217146910185905, -0.006435556710096117],[0.050722389458064315, 0.8864558722348277, -0.021051403807042627],[-0.03653006731546123, 0.8484066019977767, -0.023415014100464253]
0,62,[0.10584982408587681, 0.9217146910185905, -0.006435556710096117],[0.050722389458064315, 0.8864558722348277, -0.021051403807042627],[-0.03653006731546123, 0.8484066019977767, -0.023415014100464253]
0,63,[0.10584982408587681, 0.9217146910185905, -0.006435556710096117],[0.050722389458064315, 0.8864558722348277, -0.021051403807042627],[-0.03653006731546123, 0.8484066019977767, -0.023415014100464253]
0,64,[0.10584982408587681, 0.9217146910185905, -0.006435556710096117],[0.050722389458064315, 0.8864558722348277, -0.021051403807042627],[-0.03653006731546123, 0.8484066019977767, -0.023415014100464253]
0,65,[0.10584982408587681, 0.9217146910185905, -0.006435556710096117],[0.050722389458064315, 0.8864558722348277, -0.021051403807042627],[-0.03653006731546123, 0.8484066019977767, -0.023415014100464253]
0,66,[0.10584982408587681, 0.9217146910185905, -0.006435556710096117],[0.050722389458064315, 0.8864558722348277, -0.021051403807042627],[-0.03653006731546123, 0.8484066019977767, -0.023415014100464253]
0,67,[0.10584982408587681, 0.9217146910185905, -0.006435556710096117],[0.050722389458064315, 0.8864558722348277, -0.021051403807042627],[-0.03653006731546123, 0.8484066019977767, -0.023415014100464253]
0,68,[0.10584982408587681, 0.9217146910185905, -0.006435556710096117],[0.050722389458064315, 0.8864558722348277, -0.021051403807042627],[-0.03653006731546123, 0.8484066019977767, -0.023415014100464253]
0,69,[0.10584982408587681, 0.9217146910185905, -0.006435556710096117],[0.050722389458064315, 0.8864558722348277, -0.021051403807042627],[-0.03653006731546123, 0.8484066019977767, -0.023415014100464253]
0,70,[0.10584982408587681, 0.9217146910185905, -0.006435556710096117],[0.050722389458064315, 0.8864558722348277, -0.021051403807042627],[-0.03653006731546123, 0.8484066019977767, -0.023415014100464253]
0,71,[0.10584982408587681, 0.9217146910185905, -0.006435556710096117],[0.050722389458064315, 0.8864558722348277, -0.021051403807042627],[-0.03653006731546123, 0.8484066019977767, -0.023415014100464253]
0,72,[0.10584982408587681, 0.9217146910185905, -0.006435556710096117],[0.050722389458064315, 0.8864558722348277, -0.021051403807042627],[-0.03653006731546123, 0.8484066019977767, -0.023415014100464253]
0,73,[0.10584982408587681, 0.9217146910185905, -0.006435556710096117],[0.050722389458064315, 0.8864558722348277, -0.021051403807042627],[-0.03653006731546123, 0.8484066019977767, -0.023415014100464253]
0,74,[0.10584982408587681, 0.9217146910185905, -0.006435556710096117],[0.050722389458064315, 0.8864558722348277, -0.021051403807042627],[-0.03653006731546123, 0.8484066019977767, -0.023415014100464253]
0,75,[0.10584982408587681, 0.9217146910185905, -0.006435556710096117],[0.050722389458064315, 0.8864558722348277, -0.021051403807042627],[-0.03653006731546123, 0.8484066019977767, -0.023415014100464253]
0,76,[0.10584982408587681, 0.9217146910185905, -0.006435556710096117],[0.050722389458064315, 0.8864558722348277, -0.021051403807042627],[-0.03653006731546123, 0.8484066019977767, -0.023415014100464253]
0,77,[0.10584982408587681, 0.9217146910185905, -0.006435556710096117],[0.050722389458064315, 0.8864558722348277, -0.021051403807042627],[-0.03653006731546123, 0.8484066019977767, -0.023415014100464253]
0,78,[0.10584982408587681, 0.9217146910185905, -0.006435556710096117],[0.050722389458064315, 0.8864558722348277, -0.021051403807042627],[-0.03653006731546123, 0.8484066019977767, -0.023415014100464253]
0,79,[0.10584982408587681, 0.9217146910185905, -0.006435556710096117],[0.050722389458064315, 0.8864558722348277, -0.021051403807042627],[-0.03653006731546123, 0.8484066019977767, -0.023415014100464253]
0,80,[0.10584982408587681, 0.9217146910185905, -0.006435556710096117],[0.050722389458064315, 0.8864558722348277, -0.021051403807042627],[-0.03653006731546123, 0.8484066019977767, -0.023415014100464253]
0,81,[0.10584982408587681, 0.9217146910185905, -0.006435556710096117],[0.050722389458064315, 0.8864558722348277, -0.021051403807042627],[-0.03653006731546123, 0.8484066019977767, -0.023415014100464253]
0,82,[0.10584982408587681, 0.9217146910185905, -0.006435556710096117],[0.050722389458064315, 0.8864558722348277, -0.021051403807042627],[-0.03653006731546123, 0.8484066019977767, -0.023415014100464253]
0,83,[0.10584982408587681, 0.9217146910185905, -0.006435556710096117],[0.050722389458064315, 0.8864558722348277, -0.021051403807042627],[-0.03653006731546123, 0.8484066019977767, -0.023415014100464253]
0,84,[0.10584982408587681, 0.9217146910185905, -0.006435556710096117],[0.050722389458064315, 0.8864558722348277, -0.021051403807042627],[-0.03653006731546123, 0.8484066019977767, -0.023415014100464253]
0,85,[0.10584982408587681, 0.9217146910185905, -0.006435556710096117],[0.050722389458064315, 0.8864558722348277, -0.021051403807042627],[-0.03653006731546123, 0.8484066019977767, -0.023415014100464253]
0,86,[0.10584982408587681, 0.9217146910185905, -0.006435556710096117],[0.050722389458064315, 0.8864558722348277, -0.021051403807042627],[-0.03653006731546123, 0.8484066019977767, -0.023415014100464253]
0,87,[0.10584982408587681, 0.9217146910185905, -0.006435556710096117],[0.050722389458064315, 0.8864558722348277, -0.021051403807042627],[-0.03653006731546123, 0.8484066019977767, -0.023415014100464253]
0,88,[0.10584982408587681, 0.9217146910185905, -0.006435556710096117],[0.050722389458064315, 0.8864558722348277, -0.021051403807042627],[-0.03653006731546123, 0.8484066019977767, -0.023415014100464253]
0,89,[0.10584982408587681, 0.9217146910185905, -0.006435556710096117],[0.050722389458064315, 0.8864558722348277, -0.021051403807042627],[-0.03653006731546123, 0.8484066019977767, -0.023415014100464253]
0,90,[0.10584982408587681, 0.9217146910185905, -0.006435556710096117],[0.050722389458064315, 0.8864558722348277, -0.021051403807042627],[-0.03653006731546123, 0.8484066019977767, -0.023415014100464253]
0,91,[0.10584982408587681, 0.9217146910185905, -0.006435556710096117],[0.050722389458064315, 0.8864558722348277, -0.021051403807042627],[-0.03653006731546123, 0.8484066019977767, -0.023415014100464253]
0,92,[0.10584982408587681, 0.9217146910185905, -0.006435556710096117],[0.050722389458064315, 0.8864558722348277, -0.021051403807042627],[-0.03653006731546123, 0.8484066019977767, -0.023415014100464253]
0,93,[0.10584982408587681, 0.9217146910185905, -0.006435556710096117],[0.050722389458064315, 0.8864558722348277, -0.021051403807042627],[-0.03653006731546123, 0.8484066019977767, -0.023415014100464253]
0,94,[0.10584982408587681, 0.9217146910185905, -0.006435556710096117],[0.050722389458064315, 0.8864558722348277, -0.021051403807042627],[-0.03653006731546123, 0.8484066019977767, -0.023415014100464253]
0,95,[0.10584982408587681, 0.9217146910185905, -0.006435556710096117],[0.050722389458064315, 0.8864558722348277, -0.021051403807042627],[-0.03653006731546123, 0.8484066019977767, -0.023415014100464253]
0,96,[0.10584982408587681, 0.9217146910185905, -0.006435556710096117],[0.050722389458064315, 0.8864558722348277, -0.021051403807042627],[-0.03653006731546123, 0.8484066019977767, -0.023415014100464253]
0,97,[0.10584982408587681, 0.9217146910185905, -0.006435556710096117],[0.050722389458064315, 0.8864558722348277, -0.021051403807042627],[-0.03653006731546123, 0.8484066019977767, -0.023415014100464253]
0,98,[0.10584982408587681, 0.9217146910185905, -0.006435556710096117],[0.050722389458064315, 0.8864558722348277, -0.021051403807042627],[-0.03653006731546123, 0.8484066019977767, -0.023415014100464253]
0,99,[0.10584982408587681, 0.9217146910185905, -0.006435556710096117],[0.050722389458064315, 0.8864558722348277, -0.021051403807042627],[-0.03653006731546123, 0.8484066019977767, -0.023415014100464253]
1,0,[-0.36125609422940846, 1.0, 0.03356494369704701],[-0.3545052606007791, 0.9537904401873936, 0.06620644311776651],[-0.28272077903069076, 0.7620888611594728, 0.0832909913487285]
1,1,[-0.36125609422940846, 1.0, 0.03356494369704701],[-0.3545052606007791, 0.9537904401873936, 0.06620644311776651],[-0.28272077903069076, 0.7620888611594728, 0.0832909913487285]
1,2,[-0.36125609422940846, 1.0, 0.03356494369704701],[-0.3545052606007791, 0.9537904401873936, 0.06620644311776651],[-0.28272077903069076, 0.7620888611594728, 0.0832909913487285]
1,3,[-0.36125609422940846, 1.0, 0.03356494369704701],[-0.3545052606007791, 0.9537904401873936, 0.06620644311776651],[-0.28272077903069076, 0.7620888611594728, 0.0832909913487285]
1,4,[-0.36125609422940846, 1.0, 0.03356494369704701],[-0.3545052606007791, 0.9537904401873936, 0.06620644311776651],[-0.28272077903069076, 0.7620888611594728, 0.0832909913487285]
1,5,[-0.36125609422940846, 1.0, 0.03356494369704701],[-0.3545052606007791, 0.9537904401873936, 0.06620644311776651],[-0.28272077903069076, 0.7620888611594728, 0.0832909913487285]
1,6,[-0.36125609422940846, 1.0, 0.03356494369704701],[-0.3545052606007791, 0.9537904401873936, 0.06620644311776651],[-0.28272077903069076, 0.7620888611594728, 0.0832909913487285]
1,7,[-0.36125609422940846, 1.0, 0.03356494369704701],[-0.3545052606007791, 0.9537904401873936, 0.06620644311776651],[-0.28272077903069076, 0.7620888611594728, 0.0832909913487285]
1,8,[-0.36125609422940846, 1.0, 0.03356494369704701],[-0.3545052606007791, 0.9537904401873936, 0.06620644311776651],[-0.28272077903069076, 0.7620888611594728, 0.0832909913487285]
1,9,[-0.36125609422940846, 1.0, 0.03356494369704701],[-0.3545052606007791, 0.9537904401873936, 0.06620644311776651],[-0.28272077903069076, 0.7620888611594728, 0.0832909913487285]
1,10,[-0.36125609422940846, 1.0, 0.03356494369704701],[-0.3545052606007791, 0.9537904401873936, 0.06620644311776651],[-0.28272077903069076, 0.7620888611594728, 0.0832909913487285]
1,11,[-0.36125609422940846, 1.0, 0.03356494369704701],[-0.3545052606007791, 0.9537904401873936, 0.06620644311776651],[-0.28272077903069076, 0.7620888611594728, 0.0832909913487285]
1,12,[-0.36125609422940846, 1.0, 0.03356494369704701],[-0.3545052606007791, 0.9537904401873936, 0.06620644311776651],[-0.28272077903069076, 0.7620888611594728, 0.0832909913487285]
1,13,[-0.36125609422940846, 1.0, 0.03356494369704701],[-0.3545052606007791, 0.9537904401873936, 0.06620644311776651],[-0.28272077903069076, 0.7620888611594728, 0.0832909913487285]
1,14,[-0.36125609422940846, 1.0, 0.03356494369704701],[-0.3545052606007791, 0.9537904401873936, 0.06620644311776651],[-0.28272077903069076, 0.7620888611594728, 0.0832909913487285]
1,15,[-0.36125609422940846, 1.0, 0.03356494369704701],[-0.3545052606007791, 0.9537904401873936, 0.06620644311776651],[-0.28272077903069076, 0.7620888611594728, 0.0832909913487285]
1,16,[-0.36125609422940846, 1.0, 0.03356494369704701],[-0.3545052606007791, 0.9537904401873936, 0.06620644311776651],[-0.28272077903069076, 0.7620888611594728, 0.0832909913487285]
1,17,[-0.36125609422940846, 1.0, 0.03356494369704701],[-0.3545052606007791, 0.9537904401873936, 0.06620644311776651],[-0.28272077903069076, 0.7620888611594728, 0.0832909913487285]
1,18,[-0.36125609422940846, 1.0, 0.03356494369704701],[-0.3545052606007791, 0.9537904401873936, 0.06620644311776651],[-0.28272077903069076, 0.7620888611594728, 0.0832909913487285]
1,19,[-0.36125609422940846, 1.0, 0.03356494369704701],[-0.3545052606007791, 0.9537904401873936, 0.06620644311776651],[-0.28272077903069076, 0.7620888611594728, 0.0832909913487285]
1,20,[-0.36125609422940846, 1.0, 0.03356494369704701],[-0.3545052606007791, 0.9537904401873936, 0.06620644311776651],[-0.28272077903069076, 0.7620888611594728, 0.0832909913487285]
1,21,[-0.36125609422940846, 1.0, 0.03356494369704701],[-0.3545052606007791, 0.9537904401873936, 0.06620644311776651],[-0.28272077903069076, 0.7620888611594728, 0.0832909913487285]
1,22,[-0.36125609422940846, 1.0, 0.03356494369704701],[-0.3545052606007791, 0.9537904401873936, 0.06620644311776651],[-0.28272077903069076, 0.7620888611594728, 0.0832909913487285]
1,23,[-0.36125609422940846, 1.0, 0.03356494369704701],[-0.3545052606007791, 0.9537904401873936, 0.06620644311776651],[-0.28272077903069076, 0.7620888611594728, 0.0832909913487285]
1,24,[-0.36125609422940846, 1.0, 0.03356494369704701],[-0.3545052606007791, 0.9537904401873936, 0.06620644311776651],[-0.28272077903069076, 0.7620888611594728, 0.0832909913487285]
1,25,[-0.36125609422940846, 1.0, 0.03356494369704701],[-0.3545052606007791, 0.9537904401873936, 0.06620644311776651],[-0.28272077903069076, 0.7620888611594728, 0.0832909913487285]
1,26,[-0.36125609422940846, 1.0, 0.03356494369704701],[-0.3545052606007791, 0.9537904401873936, 0.06620644311776651],[-0.28272077903069076, 0.7620888611594728, 0.0832909913487285]
1,27,[-0.36125609422940846, 1.0, 0.03356494369704701],[-0.3545052606007791, 0.9537904401873936, 0.06620644311776651],[-0.28272077903069076, 0.7620888611594728, 0.0832909913487285]
1,28,[-0.36125609422940846, 1.0, 0.03356494369704701],[-0.3545052606007791, 0.9537904401873936, 0.06620644311776651],[-0.28272077903069076, 0.7620888611594728, 0.0832909913487285]
1,29,[-0.36125609422940846, 1.0, 0.03356494369704701],[-0.3545052606007791, 0.9537904401873936, 0.06620644311776651],[-0.28272077903069076, 0.7620888611594728, 0.0832909913487285]
1,30,[-0.36125609422940846, 1.0, 0.03356494369704701],[-0.3545052606007791, 0.9537904401873936, 0.06620644311776651],[-0.28272077903069076, 0.7620888611594728, 0.0832909913487285]
1,31,[-0.36125609422940846, 1.0, 0.03356494369704701],[-0.3545052606007791, 0.9537904401873936, 0.06620644311776651],[-0.28272077903069076, 0.7620888611594728, 0.0832909913487285]
1,32,[-0.36125609422940846, 1.0, 0.03356494369704701],[-0.3545052606007791, 0.9537904401873936, 0.06620644311776651],[-0.28272077903069076, 0.7620888611594728, 0.0832909913487285]
1,33,[-0.36125609422940846, 1.0, 0.03356494369704701],[-0.3545052606007791, 0.9537904401873936, 0.06620644311776651],[-0.28272077903069076, 0.7620888611594728, 0.0832909913487285]
1,34,[-0.36125609422940846, 1.0, 0.03356494369704701],[-0.3545052606007791, 0.9537904401873936, 0.06620644311776651],[-0.28272077903069076, 0.7620888611594728, 0.0832909913487285]
1,35,[-0.36125609422940846, 1.0, 0.03356494369704701],[-0.3545052606007791, 0.9537904401873936, 0.06620644311776651],[-0.28272077903069076, 0.7620888611594728, 0.0832909913487285]
1,36,[-0.36125609422940846, 1.0, 0.03356494369704701],[-0.3545052606007791, 0.9537904401873936, 0.06620644311776651],[-0.28272077903069076, 0.7620888611594728, 0.0832909913487285]
1,37,[-0.36125609422940846, 1.0, 0.03356494369704701],[-0.3545052606007791, 0.9537904401873936, 0.06620644311776651],[-0.28272077903069076, 0.7620888611594728, 0.0832909913487285]
1,38,[-0.36125609422940846, 1.0, 0.03356494369704701],[-0.3545052606007791, 0.9537904401873936, 0.06620644311776651],[-0.28272077903069076, 0.7620888611594728, 0.0832909913487285]
1,39,[-0.36125609422940846, 1.0, 0.03356494369704701],[-0.3545052606007791, 0.9537904401873936, 0.06620644311776651],[-0.28272077903069076, 0.7620888611594728, 0.0832909913487285]
1,40,[-0.36125609422940846, 1.0, 0.03356494369704701],[-0.3545052606007791, 0.9537904401873936, 0.06620644311776651],[-0.28272077903069076, 0.7620888611594728, 0.0832909913487285]
1,41,[-0.36125609422940846, 1.0, 0.03356494369704701],[-0.3545052606007791, 0.9537904401873936, 0.06620644311776651],[-0.28272077903069076, 0.7620888611594728, 0.0832909913487285]
1,42,[-0.36125609422940846, 1.0, 0.03356494369704701],[-0.3545052606007791, 0.9537904401873936, 0.06620644311776651],[-0.28272077903069076, 0.7620888611594728, 0.0832909913487285]
1,43,[-0.36125609422940846, 1.0, 0.03356494369704701],[-0.3545052606007791, 0.9537904401873936, 0.06620644311776651],[-0.28272077903069076, 0.7620888611594728, 0.0832909913487285]
1,44,[-0.36125609422940846, 1.0, 0.03356494369704701],[-0.3545052606007791, 0.9537904401873936, 0.06620644311776651],[-0.28272077903069076, 0.7620888611594728, 0.0832909913487285]
1,45,[-0.36125609422940846, 1.0, 0.03356494369704701],[-0.3545052606007791, 0.9537904401873936, 0.06620644311776651],[-0.28272077903069076, 0.7620888611594728, 0.0832909913487285]
1,46,[-0.36125609422940846, 1.0, 0.03356494369704701],[-0.3545052606007791, 0.9537904401873936, 0.06620644311776651],[-0.28272077903069076, 0.7620888611594728, 0.0832909913487285]
1,47,[-0.36125609422940846, 1.0, 0.03356494369704701],[-0.3545052606007791, 0.9537904401873936, 0.06620644311776651],[-0.28272077903069076, 0.7620888611594728, 0.0832909913487285]
1,48,[-0.36125609422940846, 1.0, 0.03356494369704701],[-0.3545052606007791, 0.9537904401873936, 0.06620644311776651],[-0.28272077903069076, 0.7620888611594728, 0.0832909913487285]
1,49,[-0.36125609422940846, 1.0, 0.03356494369704701],[-0.3545052606007791, 0.9537904401873936, 0.06620644311776651],[-0.28272077903069076, 0.7620888611594728, 0.0832909913487285]
1,50,[-0.36125609422940846, 1.0, 0.03356494369704701],[-0.3545052606007791, 0.9537904401873936, 0.06620644311776651],[-0.28272077903069076, 0.7620888611594728, 0.0832909913487285]
1,51,[-0.36125609422940846, 1.0, 0.03356494369704701],[-0.3545052606007791, 0.9537904401873936, 0.06620644311776651],[-0.28272077903069076, 0.7620888611594728, 0.0832909913487285]
1,52,[-0.36125609422940846, 1.0, 0.03356494369704701],[-0.3545052606007791, 0.9537904401873936, 0.06620644311776651],[-0.28272077903069076, 0.7620888611594728, 0.0832909913487285]
1,53,[-0.36125609422940846, 1.0, 0.03356494369704701],[-0.3545052606007791, 0.9537904401873936, 0.06620644311776651],[-0.28272077903069076, 0.7620888611594728, 0.0832909913487285]
1,54,[-0.36125609422940846, 1.0, 0.03356494369704701],[-0.3545052606007791, 0.9537904401873936, 0.06620644311776651],[-0.28272077903069076, 0.7620888611594728, 0.0832909913487285]
1,55,[-0.36125609422940846, 1.0, 0.03356494369704701],[-0.3545052606007791, 0.9537904401873936, 0.06620644311776651],[-0.28272077903069076, 0.7620888611594728, 0.0832909913487285]
1,56,[-0.36125609422940846, 1.0, 0.03356494369704701],[-0.3545052606007791, 0.9537904401873936, 0.06620644311776651],[-0.28272077903069076, 0.7620888611594728, 0.0832909913487285]
1,57,[-0.36125609422940846, 1.0, 0.03356494369704701],[-0.3545052606007791, 0.9537904401873936, 0.06620644311776651],[-0.28272077903069076, 0.7620888611594728, 0.0832909913487285]
1,58,[-0.36125609422940846, 1.0, 0.03356494369704701],[-0.3545052606007791, 0.9537904401873936, 0.06620644311776651],[-0.28272077903069076, 0.7620888611594728, 0.0832909913487285]
1,59,[-0.36125609422940846, 1.0, 0.03356494369704701],[-0.3545052606007791, 0.9537904401873936, 0.06620644311776651],[-0.28272077903069076, 0.7620888611594728, 0.0832909913487285]
1,60,[-0.36125609422940846, 1.0, 0.03356494369704701],[-0.3545052606007791, 0.9537904401873936, 0.06620644311776651],[-0.28272077903069076, 0.7620888611594728, 0.0832909913487285]
1,61,[-0.36125609422940846, 1.0, 0.03356494369704701],[-0.3545052606007791, 0.9537904401873936, 0.06620644311776651],[-0.28272077903069076, 0.7620888611594728, 0.0832909913487285]
1,62,[-0.36125609422940846, 1.0, 0.03356494369704701],[-0.3545052606007791, 0.9537904401873936, 0.06620644311776651],[-0.28272077903069076, 0.7620888611594728, 0.0832909913487285]
1,63,[-0.36125609422940846, 1.0, 0.03356494369704701],[-0.3545052606007791, 0.9537904401873936, 0.06620644311776651],[-0.28272077903069076, 0.7620888611594728, 0.0832909913487285]
1,64,[-0.36125609422940846, 1.0, 0.03356494369704701],[-0.3545052606007791, 0.9537904401873936, 0.06620644311776651],[-0.28272077903069076, 0.7620888611594728, 0.0832909913487285]
1,65,[-0.36125609422940846, 1.0, 0.03356494369704701],[-0.3545052606007791, 0.9537904401873936, 0.06620644311776651],[-0.28272077903069076, 0.7620888611594728, 0.0832909913487285]
1,66,[-0.36125609422940846, 1.0, 0.03356494369704701],[-0.3545052606007791, 0.9537904401873936, 0.06620644311776651],[-0.28272077903069076, 0.7620888611594728, 0.0832909913487285]
1,67,[-0.36125609422940846, 1.0, 0.03356494369704701],[-0.3545052606007791, 0.9537904401873936, 0.06620644311776651],[-0.28272077903069076, 0.7620888611594728, 0.0832909913487285]
1,68,[-0.36125609422940846, 1.0, 0.03356494369704701],[-0.3545052606007791, 0.9537904401873936, 0.06620644311776651],[-0.28272077903069076, 0.7620888611594728, 0.0832909913487285]
1,69,[-0.36125609422940846, 1.0, 0.03356494369704701],[-0.3545052606007791, 0.9537904401873936, 0.06620644311776651],[-0.28272077903069076, 0.7620888611594728, 0.0832909913487285]
1,70,[-0.36125609422940846, 1.0, 0.03356494369704701],[-0.3545052606007791, 0.9537904401873936, 0.06620644311776651],[-0.28272077903069076, 0.7620888611594728, 0.0832909913487285]
1,71,[-0.36125609422940846, 1.0, 0.03356494369704701],[-0.3545052606007791, 0.9537904401873936, 0.06620644311776651],[-0.28272077903069076, 0.7620888611594728, 0.0832909913487285]
1,72,[-0.36125609422940846, 1.0, 0.03356494369704701],[-0.3545052606007791, 0.9537904401873936, 0.06620644311776651],[-0.28272077903069076, 0.7620888611594728, 0.0832909913487285]
1,73,[-0.36125609422940846, 1.0, 0.03356494369704701],[-0.3545052606007791, 0.9537904401873936, 0.06620644311776651],[-0.28272077903069076, 0.7620888611594728, 0.0832909913487285]
1,74,[-0.36125609422940846, 1.0, 0.03356494369704701],[-0.3545052606007791, 0.9537904401873936, 0.06620644311776651],[-0.28272077903069076, 0.7620888611594728, 0.0832909913487285]
1,75,[-0.36125609422940846, 1.0, 0.03356494369704701],[-0.3545052606007791, 0.9537904401873936, 0.06620644311776651],[-0.28272077903069076, 0.7620888611594728, 0.0832909913487285]
1,76,[-0.36125609422940846, 1.0, 0.03356494369704701],[-0.3545052606007791, 0.9537904401873936, 0.06620644311776651],[-0.28272077903069076, 0.7620888611594728, 0.0832909913487285]
1,77,[-0.36125609422940846, 1.0, 0.03356494369704701],[-0.3545052606007791, 0.9537904401873936, 0.06620644311776651],[-0.28272077903069076, 0.7620888611594728, 0.0832909913487285]
1,78,[-0.36125609422940846, 1.0, 0.03356494369704701],[-0.3545052606007791, 0.9537904401873936, 0.06620644311776651],[-0.28272077903069076, 0.7620888611594728, 0.0832909913487285]
1,79,[-0.36125609422940846, 1.0, 0.03356494369704701],[-0.3545052606007791, 0.9537904401873936, 0.06620644311776651],[-0.28272077903069076, 0.7620888611594728, 0.0832909913487285]
1,80,[-0.36125609422940846, 1.0, 0.03356494369704701],[-0.3545052606007791, 0.9537904401873936, 0.06620644311776651],[-0.28272077903069076, 0.7620888611594728, 0.0832909913487285]
1,81,[-0.36125609422940846, 1.0, 0.03356494369704701],[-0.3545052606007791, 0.9537904401873936, 0.06620644311776651],[-0.28272077903069076, 0.7620888611594728, 0.0832909913487285]
1,82,[-0.36125609422940846, 1.0, 0.03356494369704701],[-0.3545052606007791, 0.9537904401873936, 0.06620644311776651],[-0.28272077903069076, 0.7620888611594728, 0.0832909913487285]
1,83,[-0.36125609422940846, 1.0, 0.03356494369704701],[-0.3545052606007791, 0.9537904401873936, 0.06620644311776651],[-0.28272077903069076, 0.7620888611594728, 0.0832909913487285]
1,84,[-0.36125609422940846, 1.0, 0.03356494369704701],[-0.3545052606007791, 0.9537904401873936, 0.06620644311776651],[-0.28272077903069076, 0.7620888611594728, 0.0832909913487285]
1,85,[-0.36125609422940846, 1.0, 0.03356494369704701],[-0.3545052606007791, 0.9537904401873936, 0.06620644311776651],[-0.28272077903069076, 0.7620888611594728, 0.0832909913487285]
1,86,[-0.36125609422940846, 1.0, 0.03356494369704701],[-0.3545052606007791, 0.9537904401873936, 0.06620644311776651],[-0.28272077903069076, 0.7620888611594728, 0.0832909913487285]
1,87,[-0.36125609422940846, 1.0, 0.03356494369704701],[-0.3545052606007791, 0.9537904401873936, 0.06620644311776651],[-0.28272077903069076, 0.7620888611594728, 0.0832909913487285]
1,88,[-0.36125609422940846, 1.0, 0.03356494369704701],[-0.3545052606007791, 0.9537904401873936, 0.06620644311776651],[-0.28272077903069076, 0.7620888611594728, 0.0832909913487285]
1,89,[-0.36125609422940846, 1.0, 0.03356494369704701],[-0.3545052606007791, 0.9537904401873936, 0.06620644311776651],[-0.28272077903069076, 0.7620888611594728, 0.0832909913487285]
1,90,[-0.36125609422940846, 1.0, 0.03356494369704701],[-0.3545052606007791, 0.9537904401873936, 0.06620644311776651],[-0.28272077903069076, 0.7620888611594728, 0.0832909913487285]
1,91,[-0.36125609422940846, 1.0, 0.03356494369704701],[-0.3545052606007791, 0.9537904401873936, 0.06620644311776651],[-0.28272077903069076, 0.7620888611594728, 0.0832909913487285]
1,92,[-0.36125609422940846, 1.0, 0.03356494369704701],[-0.3545052606007791, 0.9537904401873936, 0.06620644311776651],[-0.28272077903069076, 0.7620888611594728, 0.0832909913487285]
1,93,[-0.36125609422940846, 1.0, 0.03356494369704701],[-0.3545052606007791, 0.9537904401873936, 0.06620644311776651],[-0.28272077903069076, 0.7620888611594728, 0.0832909913487285]
1,94,[-0.36125609422940846, 1.0, 0.03356494369704701],[-0.3545052606007791, 0.9537904401873936, 0.06620644311776651],[-0.28272077903069076, 0.7620888611594728, 0.0832909913487285]
1,95,[-0.36125609422940846, 1.0, 0.03356494369704701],[-0.3545052606007791, 0.9537904401873936, 0.06620644311776651],[-0.28272077903069076, 0.7620888611594728, 0.0832909913487285]
1,96,[-0.36125609422940846, 1.0, 0.03356494369704701],[-0.3545052606007791, 0.9537904401873936, 0.06620644311776651],[-0.28272077903069076, 0.7620888611594728, 0.0832909913487285]
1,97,[-0.36125609422940846, 1.0, 0.03356494369704701],[-0.3545052606007791, 0.9537904401873936, 0.06620644311776651],[-0.28272077903069076, 0.7620888611594728, 0.0832909913487285]
1,98,[-0.36125609422940846, 1.0, 0.03356494369704701],[-0.3545052606007791, 0.9537904401873936, 0.06620644311776651],[-0.28272077903069076, 0.7620888611594728, 0.0832909913487285]
1,99,[-0.36125609422940846, 1.0, 0.03356494369704701],[-0.3545052606007791, 0.9537904401873936, 0.06620644311776651],[-0.28272077903069076, 0.7620888611594728, 0.0832909913487285]
2,0,[-0.2740796930258975, 0.9668574752609221, 0.046445974522831765],[-0.35965257834432096, 0.9410599062181377, 0.04343669015280731],[-0.36604395154852726, 0.8869655220063528, 0.05697877056295456]
2,1,[-0.2740796930258975, 0.9668574752609221, 0.046445974522831765],[-0.35965257834432096, 0.9410599062181377, 0.04343669015280731],[-0.36604395154852726, 0.8869655220063528, 0.05697877056295456]
2,2,[-0.2740796930258975, 0.9668574752609221, 0.046445974522831765],[-0.35965257834432096, 0.9410599062181377, 0.04343669015280731],[-0.36604395154852726, 0.8869655220063528, 0.05697877056295456]
2,3,[-0.2740796930258975, 0.9668574752609221, 0.046445974522831765],[-0.35965257834432096, 0.9410599062181377, 0.04343669015280731],[-0.36604395154852726, 0.8869655220063528, 0.05697877056295456]
2,4,[-0.2740796930258975, 0.9668574752609221, 0.046445974522831765],[-0.35965257834432096, 0.9410599062181377, 0.04343669015280731],[-0.36604395154852726, 0.8869655220063528, 0.05697877056295456]
2,5,[-0.2740796930258975, 0.9668574752609221, 0.046445974522831765],[-0.35965257834432096, 0.9410599062181377, 0.04343669015280731],[-0.36604395154852726, 0.8869655220063528, 0.05697877056295456]
2,6,[-0.2740796930258975, 0.9668574752609221, 0.046445974522831765],[-0.35965257834432096, 0.9410599062181377, 0.04343669015280731],[-0.36604395154852726, 0.8869655220063528, 0.05697877056295456]
2,7,[-0.2740796930258975, 0.9668574752609221, 0.046445974522831765],[-0.35965257834432096, 0.9410599062181377, 0.04343669015280731],[-0.36604395154852726, 0.8869655220063528, 0.05697877056295456]
2,8,[-0.2740796930258975, 0.9668574752609221, 0.046445974522831765],[-0.35965257834432096, 0.9410599062181377, 0.04343669015280731],[-0.36604395154852726, 0.8869655220063528, 0.05697877056295456]
2,9,[-0.2740796930258975, 0.9668574752609221, 0.046445974522831765],[-0.35965257834432096, 0.9410599062181377, 0.04343669015280731],[-0.36604395154852726, 0.8869655220063528, 0.05697877056295456]
2,10,[-0.2740796930258975, 0.9668574752609221, 0.046445974522831765],[-0.35965257834432096, 0.9410599062181377, 0.04343669015280731],[-0.36604395154852726, 0.8869655220063528, 0.05697877056295456]
2,11,[-0.2740796930258975, 0.9668574752609221, 0.046445974522831765],[-0.35965257834432096, 0.9410599062181377, 0.04343669015280731],[-0.36604395154852726, 0.8869655220063528, 0.05697877056295456]
2,12,[-0.2740796930258975, 0.9668574752609221, 0.046445974522831765],[-0.35965257834432096, 0.9410599062181377, 0.04343669015280731],[-0.36604395154852726, 0.8869655220063528, 0.05697877056295456]
2,13,[-0.2740796930258975, 0.9668574752609221, 0.046445974522831765],[-0.35965257834432096, 0.9410599062181377, 0.04343669015280731],[-0.36604395154852726, 0.8869655220063528, 0.05697877056295456]
2,14,[-0.2740796930258975, 0.9668574752609221, 0.046445974522831765],[-0.35965257834432096, 0.9410599062181377, 0.04343669015280731],[-0.36604395154852726, 0.8869655220063528, 0.05697877056295456]
2,15,[-0.2740796930258975, 0.9668574752609221, 0.046445974522831765],[-0.35965257834432096, 0.9410599062181377, 0.04343669015280731],[-0.36604395154852726, 0.8869655220063528, 0.05697877056295456]
2,16,[-0.2740796930258975, 0.9668574752609221, 0.046445974522831765],[-0.35965257834432096, 0.9410599062181377, 0.04343669015280731],[-0.36604395154852726, 0.8869655220063528, 0.05697877056295456]
2,17,[-0.2740796930258975, 0.9668574752609221, 0.046445974522831765],[-0.35965257834432096, 0.9410599062181377, 0.04343669015280731],[-0.36604395154852726, 0.8869655220063528, 0.05697877056295456]
2,18,[-0.2740796930258975, 0.9668574752609221, 0.046445974522831765],[-0.35965257834432096, 0.9410599062181377, 0.04343669015280731],[-0.36604395154852726, 0.8869655220063528, 0.05697877056295456]
2,19,[-0.2740796930258975, 0.9668574752609221, 0.046445974522831765],[-0.35965257834432096, 0.9410599062181377, 0.04343669015280731],[-0.36604395154852726, 0.8869655220063528, 0.05697877056295456]
2,20,[-0.2740796930258975, 0.9668574752609221, 0.046445974522831765],[-0.35965257834432096, 0.9410599062181377, 0.04343669015280731],[-0.36604395154852726, 0.8869655220063528, 0.05697877056295456]
2,21,[-0.2740796930258975, 0.9668574752609221, 0.046445974522831765],[-0.35965257834432096, 0.9410599062181377, 0.04343669015280731],[-0.36604395154852726, 0.8869655220063528, 0.05697877056295456]
2,22,[-0.2740796930258975, 0.9668574752609221, 0.046445974522831765],[-0.35965257834432096, 0.9410599062181377, 0.04343669015280731],[-0.36604395154852726, 0.8869655220063528, 0.05697877056295456]
2,23,[-0.2740796930258975, 0.9668574752609221, 0.046445974522831765],[-0.35965257834432096, 0.9410599062181377, 0.04343669015280731],[-0.36604395154852726, 0.8869655220063528, 0.05697877056295456]
2,24,[-0.2740796930258975, 0.9668574752609221, 0.046445974522831765],[-0.35965257834432096, 0.9410599062181377, 0.04343669015280731],[-0.36604395154852726, 0.8869655220063528, 0.05697877056295456]
2,25,[-0.2740796930258975, 0.9668574752609221, 0.046445974522831765],[-0.35965257834432096, 0.9410599062181377, 0.04343669015280731],[-0.36604395154852726, 0.8869655220063528, 0.05697877056295456]
2,26,[-0.2740796930258975, 0.9668574752609221, 0.046445974522831765],[-0.35965257834432096, 0.9410599062181377, 0.04343669015280731],[-0.36604395154852726, 0.8869655220063528, 0.05697877056295456]
2,27,[-0.2740796930258975, 0.9668574752609221, 0.046445974522831765],[-0.35965257834432096, 0.9410599062181377, 0.04343669015280731],[-0.36604395154852726, 0.8869655220063528, 0.05697877056295456]
2,28,[-0.2740796930258975, 0.9668574752609221, 0.046445974522831765],[-0.35965257834432096, 0.9410599062181377, 0.04343669015280731],[-0.36604395154852726, 0.8869655220063528, 0.05697877056295456]
2,29,[-0.2740796930258975, 0.9668574752609221, 0.046445974522831765],[-0.35965257834432096, 0.9410599062181377, 0.04343669015280731],[-0.36604395154852726, 0.8869655220063528, 0.05697877056295456]
2,30,[-0.2740796930258975, 0.9668574752609221, 0.046445974522831765],[-0.35965257834432096, 0.9410599062181377, 0.04343669015280731],[-0.36604395154852726, 0.8869655220063528, 0.05697877056295456]
2,31,[-0.2740796930258975, 0.9668574752609221, 0.046445974522831765],[-0.35965257834432096, 0.9410599062181377, 0.04343669015280731],[-0.36604395154852726, 0.8869655220063528, 0.05697877056295456]
2,32,[-0.2740796930258975, 0.9668574752609221, 0.046445974522831765],[-0.35965257834432096, 0.9410599062181377, 0.04343669015280731],[-0.36604395154852726, 0.8869655220063528, 0.05697877056295456]
2,33,[-0.2740796930258975, 0.9668574752609221, 0.046445974522831765],[-0.35965257834432096, 0.9410599062181377, 0.04343669015280731],[-0.36604395154852726, 0.8869655220063528, 0.05697877056295456]
2,34,[-0.2740796930258975, 0.9668574752609221, 0.046445974522831765],[-0.35965257834432096, 0.9410599062181377, 0.04343669015280731],[-0.36604395154852726, 0.8869655220063528, 0.05697877056295456]
2,35,[-0.2740796930258975, 0.9668574752609221, 0.046445974522831765],[-0.35965257834432096, 0.9410599062181377, 0.04343669015280731],[-0.36604395154852726, 0.8869655220063528, 0.05697877056295456]
2,36,[-0.2740796930258975, 0.9668574752609221, 0.046445974522831765],[-0.35965257834432096, 0.9410599062181377, 0.04343669015280731],[-0.36604395154852726, 0.8869655220063528, 0.05697877056295456]
2,37,[-0.2740796930258975, 0.9668574752609221, 0.046445974522831765],[-0.35965257834432096, 0.9410599062181377, 0.04343669015280731],[-0.36604395154852726, 0.8869655220063528, 0.05697877056295456]
2,38,[-0.2740796930258975, 0.9668574752609221, 0.046445974522831765],[-0.35965257834432096, 0.9410599062181377, 0.04343669015280731],[-0.36604395154852726, 0.8869655220063528, 0.05697877056295456]
2,39,[-0.2740796930258975, 0.9668574752609221, 0.046445974522831765],[-0.35965257834432096, 0.9410599062181377, 0.04343669015280731],[-0.36604395154852726, 0.8869655220063528, 0.05697877056295456]
2,40,[-0.2740796930258975, 0.9668574752609221, 0.046445974522831765],[-0.35965257834432096, 0.9410599062181377, 0.04343669015280731],[-0.36604395154852726, 0.8869655220063528, 0.05697877056295456]
2,41,[-0.2740796930258975, 0.9668574752609221, 0.046445974522831765],[-0.35965257834432096, 0.9410599062181377, 0.04343669015280731],[-0.36604395154852726, 0.8869655220063528, 0.05697877056295456]
2,42,[-0.2740796930258975, 0.9668574752609221, 0.046445974522831765],[-0.35965257834432096, 0.9410599062181377, 0.04343669015280731],[-0.36604395154852726, 0.8869655220063528, 0.05697877056295456]
2,43,[-0.2740796930258975, 0.9668574752609221, 0.046445974522831765],[-0.35965257834432096, 0.9410599062181377, 0.04343669015280731],[-0.36604395154852726, 0.8869655220063528, 0.05697877056295456]
2,44,[-0.2740796930258975, 0.9668574752609221, 0.046445974522831765],[-0.35965257834432096, 0.9410599062181377, 0.04343669015280731],[-0.36604395154852726, 0.8869655220063528, 0.05697877056295456]
2,45,[-0.2740796930258975, 0.9668574752609221, 0.046445974522831765],[-0.35965257834432096, 0.9410599062181377, 0.04343669015280731],[-0.36604395154852726, 0.8869655220063528, 0.05697877056295456]
2,46,[-0.2740796930258975, 0.9668574752609221, 0.046445974522831765],[-0.35965257834432096, 0.9410599062181377, 0.04343669015280731],[-0.36604395154852726, 0.8869655220063528, 0.05697877056295456]
2,47,[-0.2740796930258975, 0.9668574752609221, 0.046445974522831765],[-0.35965257834432096, 0.9410599062181377, 0.04343669015280731],[-0.36604395154852726, 0.8869655220063528, 0.05697877056295456]
2,48,[-0.2740796930258975, 0.9668574752609221, 0.046445974522831765],[-0.35965257834432096, 0.9410599062181377, 0.04343669015280731],[-0.36604395154852726, 0.8869655220063528, 0.05697877056295456]
2,49,[-0.2740796930258975, 0.9668574752609221, 0.046445974522831765],[-0.35965257834432096, 0.9410599062181377, 0.04343669015280731],[-0.36604395154852726, 0.8869655220063528, 0.05697877056295456]
2,50,[-0.2740796930258975, 0.9668574752609221, 0.046445974522831765],[-0.35965257834432096, 0.9410599062181377, 0.04343669015280731],[-0.36604395154852726, 0.8869655220063528, 0.05697877056295456]
2,51,[-0.2740796930258975, 0.9668574752609221, 0.046445974522831765],[-0.35965257834432096, 0.9410599062181377, 0.04343669015280731],[-0.36604395154852726, 0.8869655220063528, 0.05697877056295456]
2,52,[-0.2740796930258975, 0.9668574752609221, 0.046445974522831765],[-0.35965257834432096, 0.9410599062181377, 0.04343669015280731],[-0.36604395154852726, 0.8869655220063528, 0.05697877056295456]
2,53,[-0.2740796930258975, 0.9668574752609221, 0.046445974522831765],[-0.35965257834432096, 0.9410599062181377, 0.04343669015280731],[-0.36604395154852726, 0.8869655220063528, 0.05697877056295456]
2,54,[-0.2740796930258975, 0.9668574752609221, 0.046445974522831765],[-0.35965257834432096, 0.9410599062181377, 0.04343669015280731],[-0.36604395154852726, 0.8869655220063528, 0.05697877056295456]
2,55,[-0.2740796930258975, 0.9668574752609221, 0.046445974522831765],[-0.35965257834432096, 0.9410599062181377, 0.04343669015280731],[-0.36604395154852726, 0.8869655220063528, 0.05697877056295456]
2,56,[-0.2740796930258975, 0.9668574752609221, 0.046445974522831765],[-0.35965257834432096, 0.9410599062181377, 0.04343669015280731],[-0.36604395154852726, 0.8869655220063528, 0.05697877056295456]
2,57,[-0.2740796930258975, 0.9668574752609221, 0.046445974522831765],[-0.35965257834432096, 0.9410599062181377, 0.04343669015280731],[-0.36604395154852726, 0.8869655220063528, 0.05697877056295456]
2,58,[-0.2740796930258975, 0.9668574752609221, 0.046445974522831765],[-0.35965257834432096, 0.9410599062181377, 0.04343669015280731],[-0.36604395154852726, 0.8869655220063528, 0.05697877056295456]
2,59,[-0.2740796930258975, 0.9668574752609221, 0.046445974522831765],[-0.35965257834432096, 0.9410599062181377, 0.04343669015280731],[-0.36604395154852726, 0.8869655220063528, 0.05697877056295456]
2,60,[-0.2740796930258975, 0.9668574752609221, 0.046445974522831765],[-0.35965257834432096, 0.9410599062181377, 0.04343669015280731],[-0.36604395154852726, 0.8869655220063528, 0.05697877056295456]
2,61,[-0.2740796930258975, 0.9668574752609221, 0.046445974522831765],[-0.35965257834432096, 0.9410599062181377, 0.04343669015280731],[-0.36604395154852726, 0.8869655220063528, 0.05697877056295456]
2,62,[-0.2740796930258975, 0.9668574752609221, 0.046445974522831765],[-0.35965257834432096, 0.9410599062181377, 0.04343669015280731],[-0.36604395154852726, 0.8869655220063528, 0.05697877056295456]
2,63,[-0.2740796930258975, 0.9668574752609221, 0.046445974522831765],[-0.35965257834432096, 0.9410599062181377, 0.04343669015280731],[-0.36604395154852726, 0.8869655220063528, 0.05697877056295456]
2,64,[-0.2740796930258975, 0.9668574752609221, 0.046445974522831765],[-0.35965257834432096, 0.9410599062181377, 0.04343669015280731],[-0.36604395154852726, 0.8869655220063528, 0.05697877056295456]
2,65,[-0.2740796930258975, 0.9668574752609221, 0.046445974522831765],[-0.35965257834432096, 0.9410599062181377, 0.04343669015280731],[-0.36604395154852726, 0.8869655220063528, 0.05697877056295456]
2,66,[-0.2740796930258975, 0.9668574752609221, 0.046445974522831765],[-0.35965257834432096, 0.9410599062181377, 0.04343669015280731],[-0.36604395154852726, 0.8869655220063528, 0.05697877056295456]
2,67,[-0.2740796930258975, 0.9668574752609221, 0.046445974522831765],[-0.35965257834432096, 0.9410599062181377, 0.04343669015280731],[-0.36604395154852726, 0.8869655220063528, 0.05697877056295456]
2,68,[-0.2740796930258975, 0.9668574752609221, 0.046445974522831765],[-0.35965257834432096, 0.9410599062181377, 0.04343669015280731],[-0.36604395154852726, 0.8869655220063528, 0.05697877056295456]
2,69,[-0.2740796930258975, 0.9668574752609221, 0.046445974522831765],[-0.35965257834432096, 0.9410599062181377, 0.04343669015280731],[-0.36604395154852726, 0.8869655220063528, 0.05697877056295456]
2,70,[-0.2740796930258975, 0.9668574752609221, 0.046445974522831765],[-0.35965257834432096, 0.9410599062181377, 0.04343669015280731],[-0.36604395154852726, 0.8869655220063528, 0.05697877056295456]
2,71,[-0.2740796930258975, 0.9668574752609221, 0.046445974522831765],[-0.35965257834432096, 0.9410599062181377, 0.04343669015280731],[-0.36604395154852726, 0.8869655220063528, 0.05697877056295456]
2,72,[-0.2740796930258975, 0.9668574752609221, 0.046445974522831765],[-0.35965257834432096, 0.9410599062181377, 0.04343669015280731],[-0.36604395154852726, 0.8869655220063528, 0.05697877056295456]
2,73,[-0.2740796930258975, 0.9668574752609221, 0.046445974522831765],[-0.35965257834432096, 0.9410599062181377, 0.04343669015280731],[-0.36604395154852726, 0.8869655220063528, 0.05697877056295456]
2,74,[-0.2740796930258975, 0.9668574752609221, 0.046445974522831765],[-0.35965257834432096, 0.9410599062181377, 0.04343669015280731],[-0.36604395154852726, 0.8869655220063528, 0.05697877056295456]
2,75,[-0.2740796930258975, 0.9668574752609221, 0.046445974522831765],[-0.35965257834432096, 0.9410599062181377, 0.04343669015280731],[-0.36604395154852726, 0.8869655220063528, 0.05697877056295456]
2,76,[-0.2740796930258975, 0.9668574752609221, 0.046445974522831765],[-0.35965257834432096, 0.9410599062181377, 0.04343669015280731],[-0.36604395154852726, 0.8869655220063528, 0.05697877056295456]
2,77,[-0.2740796930258975, 0.9668574752609221, 0.046445974522831765],[-0.35965257834432096, 0.9410599062181377, 0.04343669015280731],[-0.36604395154852726, 0.8869655220063528, 0.05697877056295456]
2,78,[-0.2740796930258975, 0.9668574752609221, 0.046445974522831765],[-0.35965257834432096, 0.9410599062181377, 0.04343669015280731],[-0.36604395154852726, 0.8869655220063528, 0.05697877056295456]
2,79,[-0.2740796930258975, 0.9668574752609221, 0.046445974522831765],[-0.35965257834432096, 0.9410599062181377, 0.04343669015280731],[-0.36604395154852726, 0.8869655220063528, 0.05697877056295456]
2,80,[-0.2740796930258975, 0.9668574752609221, 0.046445974522831765],[-0.35965257834432096, 0.9410599062181377, 0.04343669015280731],[-0.36604395154852726, 0.8869655220063528, 0.05697877056295456]
2,81,[-0.2740796930258975, 0.9668574752609221, 0.046445974522831765],[-0.35965257834432096, 0.9410599062181377, 0.04343669015280731],[-0.36604395154852726, 0.8869655220063528, 0.05697877056295456]
2,82,[-0.2740796930258975, 0.9668574752609221, 0.046445974522831765],[-0.35965257834432096, 0.9410599062181377, 0.04343669015280731],[-0.36604395154852726, 0.8869655220063528, 0.05697877056295456]
2,83,[-0.2740796930258975, 0.9668574752609221, 0.046445974522831765],[-0.35965257834432096, 0.9410599062181377, 0.04343669015280731],[-0.36604395154852726, 0.8869655220063528, 0.05697877056295456]
2,84,[-0.2740796930258975, 0.9668574752609221, 0.046445974522831765],[-0.35965257834432096, 0.9410599062181377, 0.04343669015280731],[-0.36604395154852726, 0.8869655220063528, 0.05697877056295456]
2,85,[-0.2740796930258975, 0.9668574752609221, 0.046445974522831765],[-0.35965257834432096, 0.9410599062181377, 0.04343669015280731],[-0.36604395154852726, 0.8869655220063528, 0.05697877056295456]
2,86,[-0.2740796930258975, 0.9668574752609221, 0.046445974522831765],[-0.35965257834432096, 0.9410599062181377, 0.04343669015280731],[-0.36604395154852726, 0.8869655220063528, 0.05697877056295456]
2,87,[-0.2740796930258975, 0.9668574752609221, 0.046445974522831765],[-0.35965257834432096, 0.9410599062181377, 0.04343669015280731],[-0.36604395154852726, 0.8869655220063528, 0.05697877056295456]
2,88,[-0.2740796930258975, 0.9668574752609221, 0.046445974522831765],[-0.35965257834432096, 0.9410599062181377, 0.04343669015280731],[-0.36604395154852726, 0.8869655220063528, 0.05697877056295456]
2,89,[-0.2740796930258975, 0.9668574752609221, 0.046445974522831765],[-0.35965257834432096, 0.9410599062181377, 0.04343669015280731],[-0.36604395154852726, 0.8869655220063528, 0.05697877056295456]
2,90,[-0.2740796930258975, 0.9668574752609221, 0.046445974522831765],[-0.35965257834432096, 0.9410599062181377, 0.04343669015280731],[-0.36604395154852726, 0.8869655220063528, 0.05697877056295456]
2,91,[-0.2740796930258975, 0.9668574752609221, 0.046445974522831765],[-0.35965257834432096, 0.9410599062181377, 0.04343669015280731],[-0.36604395154852726, 0.8869655220063528, 0.05697877056295456]
2,92,[-0.2740796930258975, 0.9668574752609221, 0.046445974522831765],[-0.35965257834432096, 0.9410599062181377, 0.04343669015280731],[-0.36604395154852726, 0.8869655220063528, 0.05697877056295456]
2,93,[-0.2740796930258975, 0.9668574752609221, 0.046445974522831765],[-0.35965257834432096, 0.9410599062181377, 0.04343669015280731],[-0.36604395154852726, 0.8869655220063528, 0.05697877056295456]
2,94,[-0.2740796930258975, 0.9668574752609221, 0.046445974522831765],[-0.35965257834432096, 0.9410599062181377, 0.04343669015280731],[-0.36604395154852726, 0.8869655220063528, 0.05697877056295456]
2,95,[-0.2740796930258975, 0.9668574752609221, 0.046445974522831765],[-0.35965257834432096, 0.9410599062181377, 0.04343669015280731],[-0.36604395154852726, 0.8869655220063528, 0.05697877056295456]
2,96,[-0.2740796930258975, 0.9668574752609221, 0.046445974522831765],[-0.35965257834432096, 0.9410599062181377, 0.04343669015280731],[-0.36604395154852726, 0.8869655220063528, 0.05697877056295456]
2,97,[-0.2740796930258975, 0.9668574752609221, 0.046445974522831765],[-0.35965257834432096, 0.9410599062181377, 0.04343669015280731],[-0.36604395154852726, 0.8869655220063528, 0.05697877056295456]
2,98,[-0.2740796930258975, 0.9668574752609221, 0.046445974522831765],[-0.35965257834432096, 0.9410599062181377, 0.04343669015280731],[-0.36604395154852726, 0.8869655220063528, 0.05697877056295456]
2,99,[-0.2740796930258975, 0.9668574752609221, 0.046445974522831765],[-0.35965257834432096, 0.9410599062181377, 0.04343669015280731],[-0.36604395154852726, 0.8869655220063528, 0.05697877056295456]
3,0,[-0.28864275271449413, 0.9731000571492202, 0.00549359346776315],[-0.3039668160009694, 0.8731557978447708, 0.03622962084856565],[-0.24472968853075402, 0.7067118815388893, 0.05544215968324795]
3,1,[-0.28864275271449413, 0.9731000571492202, 0.00549359346776315],[-0.3039668160009694, 0.8731557978447708, 0.03622962084856565],[-0.24472968853075402, 0.7067118815388893, 0.05544215968324795]
3,2,[-0.28864275271449413, 0.9731000571492202, 0.00549359346776315],[-0.3039668160009694, 0.8731557978447708, 0.03622962084856565],[-0.24472968853075402, 0.7067118815388893, 0.05544215968324795]
3,3,[-0.28864275271449413, 0.9731000571492202, 0.00549359346776315],[-0.3039668160009694, 0.8731557978447708, 0.03622962084856565],[-0.24472968853075402, 0.7067118815388893, 0.05544215968324795]
3,4,[-0.28864275271449413, 0.9731000571492202, 0.00549359346776315],[-0.3039668160009694, 0.8731557978447708, 0.03622962084856565],[-0.24472968853075402, 0.7067118815388893, 0.05544215968324795]
3,5,[-0.28864275271449413, 0.9731000571492202, 0.00549359346776315],[-0.3039668160009694, 0.8731557978447708, 0.03622962084856565],[-0.24472968853075402, 0.7067118815388893, 0.05544215968324795]
3,6,[-0.28864275271449413, 0.9731000571492202, 0.00549359346776315],[-0.3039668160009694, 0.8731557978447708, 0.03622962084856565],[-0.24472968853075402, 0.7067118815388893, 0.05544215968324795]
3,7,[-0.28864275271449413, 0.9731000571492202, 0.00549359346776315],[-0.3039668160009694, 0.8731557978447708, 0.03622962084856565],[-0.24472968853075402, 0.7067118815388893, 0.05544215968324795]
3,8,[-0.28864275271449413, 0.9731000571492202, 0.00549359346776315],[-0.3039668160009694, 0.8731557978447708, 0.03622962084856565],[-0.24472968853075402, 0.7067118815388893, 0.05544215968324795]
3,9,[-0.28864275271449413, 0.9731000571492202, 0.00549359346776315],[-0.3039668160009694, 0.8731557978447708, 0.03622962084856565],[-0.24472968853075402, 0.7067118815388893, 0.05544215968324795]
3,10,[-0.28864275271449413, 0.9731000571492202, 0.00549359346776315],[-0.3039668160009694, 0.8731557978447708, 0.03622962084856565],[-0.24472968853075402, 0.7067118815388893, 0.05544215968324795]
3,11,[-0.28864275271449413, 0.9731000571492202, 0.00549359346776315],[-0.3039668160009694, 0.8731557978447708, 0.03622962084856565],[-0.24472968853075402, 0.7067118815388893, 0.05544215968324795]
3,12,[-0.28864275271449413, 0.9731000571492202, 0.00549359346776315],[-0.3039668160009694, 0.8731557978447708, 0.03622962084856565],[-0.24472968853075402, 0.7067118815388893, 0.05544215968324795]
3,13,[-0.28864275271449413, 0.9731000571492202, 0.00549359346776315],[-0.3039668160009694, 0.8731557978447708, 0.03622962084856565],[-0.24472968853075402, 0.7067118815388893, 0.05544215968324795]
3,14,[-0.28864275271449413, 0.9731000571492202, 0.00549359346776315],[-0.3039668160009694, 0.8731557978447708, 0.03622962084856565],[-0.24472968853075402, 0.7067118815388893, 0.05544215968324795]
3,15,[-0.28864275271449413, 0.9731000571492202, 0.00549359346776315],[-0.3039668160009694, 0.8731557978447708, 0.03622962084856565],[-0.24472968853075402, 0.7067118815388893, 0.05544215968324795]
3,16,[-0.28864275271449413, 0.9731000571492202, 0.00549359346776315],[-0.3039668160009694, 0.8731557978447708, 0.03622962084856565],[-0.24472968853075402, 0.7067118815388893, 0.05544215968324795]
3,17,[-0.28864275271449413, 0.9731000571492202, 0.00549359346776315],[-0.3039668160009694, 0.8731557978447708, 0.03622962084856565],[-0.24472968853075402, 0.7067118815388893, 0.05544215968324795]
3,18,[-0.28864275271449413, 0.9731000571492202, 0.00549359346776315],[-0.3039668160009694, 0.8731557978447708, 0.03622962084856565],[-0.24472968853075402, 0.7067118815388893, 0.05544215968324795]
3,19,[-0.28864275271449413, 0.9731000571492202, 0.00549359346776315],[-0.3039668160009694, 0.8731557978447708, 0.03622962084856565],[-0.24472968853075402, 0.7067118815388893, 0.05544215968324795]
3,20,[-0.28864275271449413, 0.9731000571492202, 0.00549359346776315],[-0.3039668160009694, 0.8731557978447708, 0.03622962084856565],[-0.24472968853075402, 0.7067118815388893, 0.05544215968324795]
3,21,[-0.28864275271449413, 0.9731000571492202, 0.00549359346776315],[-0.3039668160009694, 0.8731557978447708, 0.03622962084856565],[-0.24472968853075402, 0.7067118815388893, 0.05544215968324795]
3,22,[-0.28864275271449413, 0.9731000571492202, 0.00549359346776315],[-0.3039668160009694, 0.8731557978447708, 0.03622962084856565],[-0.24472968853075402, 0.7067118815388893, 0.05544215968324795]
3,23,[-0.28864275271449413, 0.9731000571492202, 0.00549359346776315],[-0.3039668160009694, 0.8731557978447708, 0.03622962084856565],[-0.24472968853075402, 0.7067118815388893, 0.05544215968324795]
3,24,[-0.28864275271449413, 0.9731000571492202, 0.00549359346776315],[-0.3039668160009694, 0.8731557978447708, 0.03622962084856565],[-0.24472968853075402, 0.7067118815388893, 0.05544215968324795]
3,25,[-0.28864275271449413, 0.9731000571492202, 0.00549359346776315],[-0.3039668160009694, 0.8731557978447708, 0.03622962084856565],[-0.24472968853075402, 0.7067118815388893, 0.05544215968324795]
3,26,[-0.28864275271449413, 0.9731000571492202, 0.00549359346776315],[-0.3039668160009694, 0.8731557978447708, 0.03622962084856565],[-0.24472968853075402, 0.7067118815388893, 0.05544215968324795]
3,27,[-0.28864275271449413, 0.9731000571492202, 0.00549359346776315],[-0.3039668160009694, 0.8731557978447708, 0.03622962084856565],[-0.24472968853075402, 0.7067118815388893, 0.05544215968324795]
3,28,[-0.28864275271449413, 0.9731000571492202, 0.00549359346776315],[-0.3039668160009694, 0.8731557978447708, 0.03622962084856565],[-0.24472968853075402, 0.7067118815388893, 0.05544215968324795]
3,29,[-0.28864275271449413, 0.9731000571492202, 0.00549359346776315],[-0.3039668160009694, 0.8731557978447708, 0.03622962084856565],[-0.24472968853075402, 0.7067118815388893, 0.05544215968324795]
3,30,[-0.28864275271449413, 0.9731000571492202, 0.00549359346776315],[-0.3039668160009694, 0.8731557978447708, 0.03622962084856565],[-0.24472968853075402, 0.7067118815388893, 0.05544215968324795]
3,31,[-0.28864275271449413, 0.9731000571492202, 0.00549359346776315],[-0.3039668160009694, 0.8731557978447708, 0.03622962084856565],[-0.24472968853075402, 0.7067118815388893, 0.05544215968324795]
3,32,[-0.28864275271449413, 0.9731000571492202, 0.00549359346776315],[-0.3039668160009694, 0.8731557978447708, 0.03622962084856565],[-0.24472968853075402, 0.7067118815388893, 0.05544215968324795]
3,33,[-0.28864275271449413, 0.9731000571492202, 0.00549359346776315],[-0.3039668160009694, 0.8731557978447708, 0.03622962084856565],[-0.24472968853075402, 0.7067118815388893, 0.05544215968324795]
3,34,[-0.28864275271449413, 0.9731000571492202, 0.00549359346776315],[-0.3039668160009694, 0.8731557978447708, 0.03622962084856565],[-0.24472968853075402, 0.7067118815388893, 0.05544215968324795]
3,35,[-0.28864275271449413, 0.9731000571492202, 0.00549359346776315],[-0.3039668160009694, 0.8731557978447708, 0.03622962084856565],[-0.24472968853075402, 0.7067118815388893, 0.05544215968324795]
3,36,[-0.28864275271449413, 0.9731000571492202, 0.00549359346776315],[-0.3039668160009694, 0.8731557978447708, 0.03622962084856565],[-0.24472968853075402, 0.7067118815388893, 0.05544215968324795]
3,37,[-0.28864275271449413, 0.9731000571492202, 0.00549359346776315],[-0.3039668160009694, 0.8731557978447708, 0.03622962084856565],[-0.24472968853075402, 0.7067118815388893, 0.05544215968324795]
3,38,[-0.28864275271449413, 0.9731000571492202, 0.00549359346776315],[-0.3039668160009694, 0.8731557978447708, 0.03622962084856565],[-0.24472968853075402, 0.7067118815388893, 0.05544215968324795]
3,39,[-0.28864275271449413, 0.9731000571492202, 0.00549359346776315],[-0.3039668160009694, 0.8731557978447708, 0.03622962084856565],[-0.24472968853075402, 0.7067118815388893, 0.05544215968324795]
3,40,[-0.28864275271449413, 0.9731000571492202, 0.00549359346776315],[-0.3039668160009694, 0.8731557978447708, 0.03622962084856565],[-0.24472968853075402, 0.7067118815388893, 0.05544215968324795]
3,41,[-0.28864275271449413, 0.9731000571492202, 0.00549359346776315],[-0.3039668160009694, 0.8731557978447708, 0.03622962084856565],[-0.24472968853075402, 0.7067118815388893, 0.05544215968324795]
3,42,[-0.28864275271449413, 0.9731000571492202, 0.00549359346776315],[-0.3039668160009694, 0.8731557978447708, 0.03622962084856565],[-0.24472968853075402, 0.7067118815388893, 0.05544215968324795]
3,43,[-0.28864275271449413, 0.9731000571492202, 0.00549359346776315],[-0.3039668160009694, 0.8731557978447708, 0.03622962084856565],[-0.24472968853075402, 0.7067118815388893, 0.05544215968324795]
3,44,[-0.28864275271449413, 0.9731000571492202, 0.00549359346776315],[-0.3039668160009694, 0.8731557978447708, 0.03622962084856565],[-0.24472968853075402, 0.7067118815388893, 0.05544215968324795]
3,45,[-0.28864275271449413, 0.9731000571492202, 0.00549359346776315],[-0.3039668160009694, 0.8731557978447708, 0.03622962084856565],[-0.24472968853075402, 0.7067118815388893, 0.05544215968324795]
3,46,[-0.28864275271449413, 0.9731000571492202, 0.00549359346776315],[-0.3039668160009694, 0.8731557978447708, 0.03622962084856565],[-0.24472968853075402, 0.7067118815388893, 0.05544215968324795]
3,47,[-0.28864275271449413, 0.9731000571492202, 0.00549359346776315],[-0.3039668160009694, 0.8731557978447708, 0.03622962084856565],[-0.24472968853075402, 0.7067118815388893, 0.05544215968324795]
3,48,[-0.28864275271449413, 0.9731000571492202, 0.00549359346776315],[-0.3039668160009694, 0.8731557978447708, 0.03622962084856565],[-0.24472968853075402, 0.7067118815388893, 0.05544215968324795]
3,49,[-0.28864275271449413, 0.9731000571492202, 0.00549359346776315],[-0.3039668160009694, 0.8731557978447708, 0.03622962084856565],[-0.24472968853075402, 0.7067118815388893, 0.05544215968324795]
3,50,[-0.28864275271449413, 0.9731000571492202, 0.00549359346776315],[-0.3039668160009694, 0.8731557978447708, 0.03622962084856565],[-0.24472968853075402, 0.7067118815388893, 0.05544215968324795]
3,51,[-0.28864275271449413, 0.9731000571492202, 0.00549359346776315],[-0.3039668160009694, 0.8731557978447708, 0.03622962084856565],[-0.24472968853075402, 0.7067118815388893, 0.05544215968324795]
3,52,[-0.28864275271449413, 0.9731000571492202, 0.00549359346776315],[-0.3039668160009694, 0.8731557978447708, 0.03622962084856565],[-0.24472968853075402, 0.7067118815388893, 0.05544215968324795]
3,53,[-0.28864275271449413, 0.9731000571492202, 0.00549359346776315],[-0.3039668160009694, 0.8731557978447708, 0.03622962084856565],[-0.24472968853075402, 0.7067118815388893, 0.05544215968324795]
3,54,[-0.28864275271449413, 0.9731000571492202, 0.00549359346776315],[-0.3039668160009694, 0.8731557978447708, 0.03622962084856565],[-0.24472968853075402, 0.7067118815388893, 0.05544215968324795]
3,55,[-0.28864275271449413, 0.9731000571492202, 0.00549359346776315],[-0.3039668160009694, 0.8731557978447708, 0.03622962084856565],[-0.24472968853075402, 0.7067118815388893, 0.05544215968324795]
3,56,[-0.28864275271449413, 0.9731000571492202, 0.00549359346776315],[-0.3039668160009694, 0.8731557978447708, 0.03622962084856565],[-0.24472968853075402, 0.7067118815388893, 0.05544215968324795]
3,57,[-0.28864275271449413, 0.9731000571492202, 0.00549359346776315],[-0.3039668160009694, 0.8731557978447708, 0.03622962084856565],[-0.24472968853075402, 0.7067118815388893, 0.05544215968324795]
3,58,[-0.28864275271449413, 0.9731000571492202, 0.00549359346776315],[-0.3039668160009694, 0.8731557978447708, 0.03622962084856565],[-0.24472968853075402, 0.7067118815388893, 0.05544215968324795]
3,59,[-0.28864275271449413, 0.9731000571492202, 0.00549359346776315],[-0.3039668160009694, 0.8731557978447708, 0.03622962084856565],[-0.24472968853075402, 0.7067118815388893, 0.05544215968324795]
3,60,[-0.28864275271449413, 0.9731000571492202, 0.00549359346776315],[-0.3039668160009694, 0.8731557978447708, 0.03622962084856565],[-0.24472968853075402, 0.7067118815388893, 0.05544215968324795]
3,61,[-0.28864275271449413, 0.9731000571492202, 0.00549359346776315],[-0.3039668160009694, 0.8731557978447708, 0.03622962084856565],[-0.24472968853075402, 0.7067118815388893, 0.05544215968324795]
3,62,[-0.28864275271449413, 0.9731000571492202, 0.00549359346776315],[-0.3039668160009694, 0.8731557978447708, 0.03622962084856565],[-0.24472968853075402, 0.7067118815388893, 0.05544215968324795]
3,63,[-0.28864275271449413, 0.9731000571492202, 0.00549359346776315],[-0.3039668160009694, 0.8731557978447708, 0.03622962084856565],[-0.24472968853075402, 0.7067118815388893, 0.05544215968324795]
3,64,[-0.28864275271449413, 0.9731000571492202, 0.00549359346776315],[-0.3039668160009694, 0.8731557978447708, 0.03622962084856565],[-0.24472968853075402, 0.7067118815388893, 0.05544215968324795]
3,65,[-0.28864275271449413, 0.9731000571492202, 0.00549359346776315],[-0.3039668160009694, 0.8731557978447708, 0.03622962084856565],[-0.24472968853075402, 0.7067118815388893, 0.05544215968324795]
3,66,[-0.28864275271449413, 0.9731000571492202, 0.00549359346776315],[-0.3039668160009694, 0.8731557978447708, 0.03622962084856565],[-0.24472968853075402, 0.7067118815388893, 0.05544215968324795]
3,67,[-0.28864275271449413, 0.9731000571492202, 0.00549359346776315],[-0.3039668160009694, 0.8731557978447708, 0.03622962084856565],[-0.24472968853075402, 0.7067118815388893, 0.05544215968324795]
3,68,[-0.28864275271449413, 0.9731000571492202, 0.00549359346776315],[-0.3039668160009694, 0.8731557978447708, 0.03622962084856565],[-0.24472968853075402, 0.7067118815388893, 0.05544215968324795]
3,69,[-0.28864275271449413, 0.9731000571492202, 0.00549359346776315],[-0.3039668160009694, 0.8731557978447708, 0.03622962084856565],[-0.24472968853075402, 0.7067118815388893, 0.05544215968324795]
3,70,[-0.28864275271449413, 0.9731000571492202, 0.00549359346776315],[-0.3039668160009694, 0.8731557978447708, 0.03622962084856565],[-0.24472968853075402, 0.7067118815388893, 0.05544215968324795]
3,71,[-0.28864275271449413, 0.9731000571492202, 0.00549359346776315],[-0.3039668160009694, 0.8731557978447708, 0.03622962084856565],[-0.24472968853075402, 0.7067118815388893, 0.05544215968324795]
3,72,[-0.28864275271449413, 0.9731000571492202, 0.00549359346776315],[-0.3039668160009694, 0.8731557978447708, 0.03622962084856565],[-0.24472968853075402, 0.7067118815388893, 0.05544215968324795]
3,73,[-0.28864275271449413, 0.9731000571492202, 0.00549359346776315],[-0.3039668160009694, 0.8731557978447708, 0.03622962084856565],[-0.24472968853075402, 0.7067118815388893, 0.05544215968324795]
3,74,[-0.28864275271449413, 0.9731000571492202, 0.00549359346776315],[-0.3039668160009694, 0.8731557978447708, 0.03622962084856565],[-0.24472968853075402, 0.7067118815388893, 0.05544215968324795]
3,75,[-0.28864275271449413, 0.9731000571492202, 0.00549359346776315],[-0.3039668160009694, 0.8731557978447708, 0.03622962084856565],[-0.24472968853075402, 0.7067118815388893, 0.05544215968324795]
3,76,[-0.28864275271449413, 0.9731000571492202, 0.00549359346776315],[-0.3039668160009694, 0.8731557978447708, 0.03622962084856565],[-0.24472968853075402, 0.7067118815388893, 0.05544215968324795]
3,77,[-0.28864275271449413, 0.9731000571492202, 0.00549359346776315],[-0.3039668160009694, 0.8731557978447708, 0.03622962084856565],[-0.24472968853075402, 0.7067118815388893, 0.05544215968324795]
3,78,[-0.28864275271449413, 0.9731000571492202, 0.00549359346776315],[-0.3039668160009694, 0.8731557978447708, 0.03622962084856565],[-0.24472968853075402, 0.7067118815388893, 0.05544215968324795]
3,79,[-0.28864275271449413, 0.9731000571492202, 0.00549359346776315],[-0.3039668160009694, 0.8731557978447708, 0.03622962084856565],[-0.24472968853075402, 0.7067118815388893, 0.05544215968324795]
3,80,[-0.28864275271449413, 0.9731000571492202, 0.00549359346776315],[-0.3039668160009694, 0.8731557978447708, 0.03622962084856565],[-0.24472968853075402, 0.7067118815388893, 0.05544215968324795]
3,81,[-0.28864275271449413, 0.9731000571492202, 0.00549359346776315],[-0.3039668160009694, 0.8731557978447708, 0.03622962084856565],[-0.24472968853075402, 0.7067118815388893, 0.05544215968324795]
3,82,[-0.28864275271449413, 0.9731000571492202, 0.00549359346776315],[-0.3039668160009694, 0.8731557978447708, 0.03622962084856565],[-0.24472968853075402, 0.7067118815388893, 0.05544215968324795]
3,83,[-0.28864275271449413, 0.9731000571492202, 0.00549359346776315],[-0.3039668160009694, 0.8731557978447708, 0.03622962084856565],[-0.24472968853075402, 0.7067118815388893, 0.05544215968324795]
3,84,[-0.28864275271449413, 0.9731000571492202, 0.00549359346776315],[-0.3039668160009694, 0.8731557978447708, 0.03622962084856565],[-0.24472968853075402, 0.7067118815388893, 0.05544215968324795]
3,85,[-0.28864275271449413, 0.9731000571492202, 0.00549359346776315],[-0.3039668160009694, 0.8731557978447708, 0.03622962084856565],[-0.24472968853075402, 0.7067118815388893, 0.05544215968324795]
3,86,[-0.28864275271449413, 0.9731000571492202, 0.00549359346776315],[-0.3039668160009694, 0.8731557978447708, 0.03622962084856565],[-0.24472968853075402, 0.7067118815388893, 0.05544215968324795]
3,87,[-0.28864275271449413, 0.9731000571492202, 0.00549359346776315],[-0.3039668160009694, 0.8731557978447708, 0.03622962084856565],[-0.24472968853075402, 0.7067118815388893, 0.05544215968324795]
3,88,[-0.28864275271449413, 0.9731000571492202, 0.00549359346776315],[-0.3039668160009694, 0.8731557978447708, 0.03622962084856565],[-0.24472968853075402, 0.7067118815388893, 0.05544215968324795]
3,89,[-0.28864275271449413, 0.9731000571492202, 0.00549359346776315],[-0.3039668160009694, 0.8731557978447708, 0.03622962084856565],[-0.24472968853075402, 0.7067118815388893, 0.05544215968324795]
3,90,[-0.28864275271449413, 0.9731000571492202, 0.00549359346776315],[-0.3039668160009694, 0.8731557978447708, 0.03622962084856565],[-0.24472968853075402, 0.7067118815388893, 0.05544215968324795]
3,91,[-0.28864275271449413, 0.9731000571492202, 0.00549359346776315],[-0.3039668160009694, 0.8731557978447708, 0.03622962084856565],[-0.24472968853075402, 0.7067118815388893, 0.05544215968324795]
3,92,[-0.28864275271449413, 0.9731000571492202, 0.00549359346776315],[-0.3039668160009694, 0.8731557978447708, 0.03622962084856565],[-0.24472968853075402, 0.7067118815388893, 0.05544215968324795]
3,93,[-0.28864275271449413, 0.9731000571492202, 0.00549359346776315],[-0.3039668160009694, 0.8731557978447708, 0.03622962084856565],[-0.24472968853075402, 0.7067118815388893, 0.05544215968324795]
3,94,[-0.28864275271449413, 0.9731000571492202, 0.00549359346776315],[-0.3039668160009694, 0.8731557978447708, 0.03622962084856565],[-0.24472968853075402, 0.7067118815388893, 0.05544215968324795]
3,95,[-0.28864275271449413, 0.9731000571492202, 0.00549359346776315],[-0.3039668160009694, 0.8731557978447708, 0.03622962084856565],[-0.24472968853075402, 0.7067118815388893, 0.05544215968324795]
3,96,[-0.28864275271449413, 0.9731000571492202, 0.00549359346776315],[-0.3039668160009694, 0.8731557978447708, 0.03622962084856565],[-0.24472968853075402, 0.7067118815388893, 0.05544215968324795]
3,97,[-0.28864275271449413, 0.9731000571492202, 0.00549359346776315],[-0.3039668160009694, 0.8731557978447708, 0.03622962084856565],[-0.24472968853075402, 0.7067118815388893, 0.05544215968324795]
3,98,[-0.28864275271449413, 0.9731000571492202, 0.00549359346776315],[-0.3039668160009694, 0.8731557978447708, 0.03622962084856565],[-0.24472968853075402, 0.7067118815388893, 0.05544215968324795]
3,99,[-0.28864275271449413, 0.9731000571492202, 0.00549359346776315],[-0.3039668160009694, 0.8731557978447708, 0.03622962084856565],[-0.24472968853075402, 0.7067118815388893, 0.05544215968324795]
4,0,[-0.39993159785589144, 0.9838257719173932, 0.01501399703187498],[-0.37806870669793413, 0.8916477659311491, 0.08170981511403409],[-0.30359195824150076, 0.7062398089501771, 0.09215324542066387]
4,1,[-0.39993159785589144, 0.9838257719173932, 0.01501399703187498],[-0.37806870669793413, 0.8916477659311491, 0.08170981511403409],[-0.30359195824150076, 0.7062398089501771, 0.09215324542066387]
4,2,[-0.39993159785589144, 0.9838257719173932, 0.01501399703187498],[-0.37806870669793413, 0.8916477659311491, 0.08170981511403409],[-0.30359195824150076, 0.7062398089501771, 0.09215324542066387]
4,3,[-0.39993159785589144, 0.9838257719173932, 0.01501399703187498],[-0.37806870669793413, 0.8916477659311491, 0.08170981511403409],[-0.30359195824150076, 0.7062398089501771, 0.09215324542066387]
4,4,[-0.39993159785589144, 0.9838257719173932, 0.01501399703187498],[-0.37806870669793413, 0.8916477659311491, 0.08170981511403409],[-0.30359195824150076, 0.7062398089501771, 0.09215324542066387]
4,5,[-0.39993159785589144, 0.9838257719173932, 0.01501399703187498],[-0.37806870669793413, 0.8916477659311491, 0.08170981511403409],[-0.30359195824150076, 0.7062398089501771, 0.09215324542066387]
4,6,[-0.39993159785589144, 0.9838257719173932, 0.01501399703187498],[-0.37806870669793413, 0.8916477659311491, 0.08170981511403409],[-0.30359195824150076, 0.7062398089501771, 0.09215324542066387]
4,7,[-0.39993159785589144, 0.9838257719173932, 0.01501399703187498],[-0.37806870669793413, 0.8916477659311491, 0.08170981511403409],[-0.30359195824150076, 0.7062398089501771, 0.09215324542066387]
4,8,[-0.39993159785589144, 0.9838257719173932, 0.01501399703187498],[-0.37806870669793413, 0.8916477659311491, 0.08170981511403409],[-0.30359195824150076, 0.7062398089501771, 0.09215324542066387]
4,9,[-0.39993159785589144, 0.9838257719173932, 0.01501399703187498],[-0.37806870669793413, 0.8916477659311491, 0.08170981511403409],[-0.30359195824150076, 0.7062398089501771, 0.09215324542066387]
4,10,[-0.39993159785589144, 0.9838257719173932, 0.01501399703187498],[-0.37806870669793413, 0.8916477659311491, 0.08170981511403409],[-0.30359195824150076, 0.7062398089501771, 0.09215324542066387]
4,11,[-0.39993159785589144, 0.9838257719173932, 0.01501399703187498],[-0.37806870669793413, 0.8916477659311491, 0.08170981511403409],[-0.30359195824150076, 0.7062398089501771, 0.09215324542066387]
4,12,[-0.39993159785589144, 0.9838257719173932, 0.01501399703187498],[-0.37806870669793413, 0.8916477659311491, 0.08170981511403409],[-0.30359195824150076, 0.7062398089501771, 0.09215324542066387]
4,13,[-0.39993159785589144, 0.9838257719173932, 0.01501399703187498],[-0.37806870669793413, 0.8916477659311491, 0.08170981511403409],[-0.30359195824150076, 0.7062398089501771, 0.09215324542066387]
4,14,[-0.39993159785589144, 0.9838257719173932, 0.01501399703187498],[-0.37806870669793413, 0.8916477659311491, 0.08170981511403409],[-0.30359195824150076, 0.7062398089501771, 0.09215324542066387]
4,15,[-0.39993159785589144, 0.9838257719173932, 0.01501399703187498],[-0.37806870669793413, 0.8916477659311491, 0.08170981511403409],[-0.30359195824150076, 0.7062398089501771, 0.09215324542066387]
4,16,[-0.39993159785589144, 0.9838257719173932, 0.01501399703187498],[-0.37806870669793413, 0.8916477659311491, 0.08170981511403409],[-0.30359195824150076, 0.7062398089501771, 0.09215324542066387]
4,17,[-0.39993159785589144, 0.9838257719173932, 0.01501399703187498],[-0.37806870669793413, 0.8916477659311491, 0.08170981511403409],[-0.30359195824150076, 0.7062398089501771, 0.09215324542066387]
4,18,[-0.39993159785589144, 0.9838257719173932, 0.01501399703187498],[-0.37806870669793413, 0.8916477659311491, 0.08170981511403409],[-0.30359195824150076, 0.7062398089501771, 0.09215324542066387]
4,19,[-0.39993159785589144, 0.9838257719173932, 0.01501399703187498],[-0.37806870669793413, 0.8916477659311491, 0.08170981511403409],[-0.30359195824150076, 0.7062398089501771, 0.09215324542066387]
4,20,[-0.39993159785589144, 0.9838257719173932, 0.01501399703187498],[-0.37806870669793413, 0.8916477659311491, 0.08170981511403409],[-0.30359195824150076, 0.7062398089501771, 0.09215324542066387]
4,21,[-0.39993159785589144, 0.9838257719173932, 0.01501399703187498],[-0.37806870669793413, 0.8916477659311491, 0.08170981511403409],[-0.30359195824150076, 0.7062398089501771, 0.09215324542066387]
4,22,[-0.39993159785589144, 0.9838257719173932, 0.01501399703187498],[-0.37806870669793413, 0.8916477659311491, 0.08170981511403409],[-0.30359195824150076, 0.7062398089501771, 0.09215324542066387]
4,23,[-0.39993159785589144, 0.9838257719173932, 0.01501399703187498],[-0.37806870669793413, 0.8916477659311491, 0.08170981511403409],[-0.30359195824150076, 0.7062398089501771, 0.09215324542066387]
4,24,[-0.39993159785589144, 0.9838257719173932, 0.01501399703187498],[-0.37806870669793413, 0.8916477659311491, 0.08170981511403409],[-0.30359195824150076, 0.7062398089501771, 0.09215324542066387]
4,25,[-0.39993159785589144, 0.9838257719173932, 0.01501399703187498],[-0.37806870669793413, 0.8916477659311491, 0.08170981511403409],[-0.30359195824150076, 0.7062398089501771, 0.09215324542066387]
4,26,[-0.39993159785589144, 0.9838257719173932, 0.01501399703187498],[-0.37806870669793413, 0.8916477659311491, 0.08170981511403409],[-0.30359195824150076, 0.7062398089501771, 0.09215324542066387]
4,27,[-0.39993159785589144, 0.9838257719173932, 0.01501399703187498],[-0.37806870669793413, 0.8916477659311491, 0.08170981511403409],[-0.30359195824150076, 0.7062398089501771, 0.09215324542066387]
4,28,[-0.39993159785589144, 0.9838257719173932, 0.01501399703187498],[-0.37806870669793413, 0.8916477659311491, 0.08170981511403409],[-0.30359195824150076, 0.7062398089501771, 0.09215324542066387]
4,29,[-0.39993159785589144, 0.9838257719173932, 0.01501399703187498],[-0.37806870669793413, 0.8916477659311491, 0.08170981511403409],[-0.30359195824150076, 0.7062398089501771, 0.09215324542066387]
4,30,[-0.39993159785589144, 0.9838257719173932, 0.01501399703187498],[-0.37806870669793413, 0.8916477659311491, 0.08170981511403409],[-0.30359195824150076, 0.7062398089501771, 0.09215324542066387]
4,31,[-0.39993159785589144, 0.9838257719173932, 0.01501399703187498],[-0.37806870669793413, 0.8916477659311491, 0.08170981511403409],[-0.30359195824150076, 0.7062398089501771, 0.09215324542066387]
4,32,[-0.39993159785589144, 0.9838257719173932, 0.01501399703187498],[-0.37806870669793413, 0.8916477659311491, 0.08170981511403409],[-0.30359195824150076, 0.7062398089501771, 0.09215324542066387]
4,33,[-0.39993159785589144, 0.9838257719173932, 0.01501399703187498],[-0.37806870669793413, 0.8916477659311491, 0.08170981511403409],[-0.30359195824150076, 0.7062398089501771, 0.09215324542066387]
4,34,[-0.39993159785589144, 0.9838257719173932, 0.01501399703187498],[-0.37806870669793413, 0.8916477659311491, 0.08170981511403409],[-0.30359195824150076, 0.7062398089501771, 0.09215324542066387]
4,35,[-0.39993159785589144, 0.9838257719173932, 0.01501399703187498],[-0.37806870669793413, 0.8916477659311491, 0.08170981511403409],[-0.30359195824150076, 0.7062398089501771, 0.09215324542066387]
4,36,[-0.39993159785589144, 0.9838257719173932, 0.01501399703187498],[-0.37806870669793413, 0.8916477659311491, 0.08170981511403409],[-0.30359195824150076, 0.7062398089501771, 0.09215324542066387]
4,37,[-0.39993159785589144, 0.9838257719173932, 0.01501399703187498],[-0.37806870669793413, 0.8916477659311491, 0.08170981511403409],[-0.30359195824150076, 0.7062398089501771, 0.09215324542066387]
4,38,[-0.39993159785589144, 0.9838257719173932, 0.01501399703187498],[-0.37806870669793413, 0.8916477659311491, 0.08170981511403409],[-0.30359195824150076, 0.7062398089501771, 0.09215324542066387]
4,39,[-0.39993159785589144, 0.9838257719173932, 0.01501399703187498],[-0.37806870669793413, 0.8916477659311491, 0.08170981511403409],[-0.30359195824150076, 0.7062398089501771, 0.09215324542066387]
4,40,[-0.39993159785589144, 0.9838257719173932, 0.01501399703187498],[-0.37806870669793413, 0.8916477659311491, 0.08170981511403409],[-0.30359195824150076, 0.7062398089501771, 0.09215324542066387]
4,41,[-0.39993159785589144, 0.9838257719173932, 0.01501399703187498],[-0.37806870669793413, 0.8916477659311491, 0.08170981511403409],[-0.30359195824150076, 0.7062398089501771, 0.09215324542066387]
4,42,[-0.39993159785589144, 0.9838257719173932, 0.01501399703187498],[-0.37806870669793413, 0.8916477659311491, 0.08170981511403409],[-0.30359195824150076, 0.7062398089501771, 0.09215324542066387]
4,43,[-0.39993159785589144, 0.9838257719173932, 0.01501399703187498],[-0.37806870669793413, 0.8916477659311491, 0.08170981511403409],[-0.30359195824150076, 0.7062398089501771, 0.09215324542066387]
4,44,[-0.39993159785589144, 0.9838257719173932, 0.01501399703187498],[-0.37806870669793413, 0.8916477659311491, 0.08170981511403409],[-0.30359195824150076, 0.7062398089501771, 0.09215324542066387]
4,45,[-0.39993159785589144, 0.9838257719173932, 0.01501399703187498],[-0.37806870669793413, 0.8916477659311491, 0.08170981511403409],[-0.30359195824150076, 0.7062398089501771, 0.09215324542066387]
4,46,[-0.39993159785589144, 0.9838257719173932, 0.01501399703187498],[-0.37806870669793413, 0.8916477659311491, 0.08170981511403409],[-0.30359195824150076, 0.7062398089501771, 0.09215324542066387]
4,47,[-0.39993159785589144, 0.9838257719173932, 0.01501399703187498],[-0.37806870669793413, 0.8916477659311491, 0.08170981511403409],[-0.30359195824150076, 0.7062398089501771, 0.09215324542066387]
4,48,[-0.39993159785589144, 0.9838257719173932, 0.01501399703187498],[-0.37806870669793413, 0.8916477659311491, 0.08170981511403409],[-0.30359195824150076, 0.7062398089501771, 0.09215324542066387]
4,49,[-0.39993159785589144, 0.9838257719173932, 0.01501399703187498],[-0.37806870669793413, 0.8916477659311491, 0.08170981511403409],[-0.30359195824150076, 0.7062398089501771, 0.09215324542066387]
4,50,[-0.39993159785589144, 0.9838257719173932, 0.01501399703187498],[-0.37806870669793413, 0.8916477659311491, 0.08170981511403409],[-0.30359195824150076, 0.7062398089501771, 0.09215324542066387]
4,51,[-0.39993159785589144, 0.9838257719173932, 0.01501399703187498],[-0.37806870669793413, 0.8916477659311491, 0.08170981511403409],[-0.30359195824150076, 0.7062398089501771, 0.09215324542066387]
4,52,[-0.39993159785589144, 0.9838257719173932, 0.01501399703187498],[-0.37806870669793413, 0.8916477659311491, 0.08170981511403409],[-0.30359195824150076, 0.7062398089501771, 0.09215324542066387]
4,53,[-0.39993159785589144, 0.9838257719173932, 0.01501399703187498],[-0.37806870669793413, 0.8916477659311491, 0.08170981511403409],[-0.30359195824150076, 0.7062398089501771, 0.09215324542066387]
4,54,[-0.39993159785589144, 0.9838257719173932, 0.01501399703187498],[-0.37806870669793413, 0.8916477659311491, 0.08170981511403409],[-0.30359195824150076, 0.7062398089501771, 0.09215324542066387]
4,55,[-0.39993159785589144, 0.9838257719173932, 0.01501399703187498],[-0.37806870669793413, 0.8916477659311491, 0.08170981511403409],[-0.30359195824150076, 0.7062398089501771, 0.09215324542066387]
4,56,[-0.39993159785589144, 0.9838257719173932, 0.01501399703187498],[-0.37806870669793413, 0.8916477659311491, 0.08170981511403409],[-0.30359195824150076, 0.7062398089501771, 0.09215324542066387]
4,57,[-0.39993159785589144, 0.9838257719173932, 0.01501399703187498],[-0.37806870669793413, 0.8916477659311491, 0.08170981511403409],[-0.30359195824150076, 0.7062398089501771, 0.09215324542066387]
4,58,[-0.39993159785589144, 0.9838257719173932, 0.01501399703187498],[-0.37806870669793413, 0.8916477659311491, 0.08170981511403409],[-0.30359195824150076, 0.7062398089501771, 0.09215324542066387]
4,59,[-0.39993159785589144, 0.9838257719173932, 0.01501399703187498],[-0.37806870669793413, 0.8916477659311491, 0.08170981511403409],[-0.30359195824150076, 0.7062398089501771, 0.09215324542066387]
4,60,[-0.39993159785589144, 0.9838257719173932, 0.01501399703187498],[-0.37806870669793413, 0.8916477659311491, 0.08170981511403409],[-0.30359195824150076, 0.7062398089501771, 0.09215324542066387]
4,61,[-0.39993159785589144, 0.9838257719173932, 0.01501399703187498],[-0.37806870669793413, 0.8916477659311491, 0.08170981511403409],[-0.30359195824150076, 0.7062398089501771, 0.09215324542066387]
4,62,[-0.39993159785589144, 0.9838257719173932, 0.01501399703187498],[-0.37806870669793413, 0.8916477659311491, 0.08170981511403409],[-0.30359195824150076, 0.7062398089501771, 0.09215324542066387]
4,63,[-0.39993159785589144, 0.9838257719173932, 0.01501399703187498],[-0.37806870669793413, 0.8916477659311491, 0.08170981511403409],[-0.30359195824150076, 0.7062398089501771, 0.09215324542066387]
4,64,[-0.39993159785589144, 0.9838257719173932, 0.01501399703187498],[-0.37806870669793413, 0.8916477659311491, 0.08170981511403409],[-0.30359195824150076, 0.7062398089501771, 0.09215324542066387]
4,65,[-0.39993159785589144, 0.9838257719173932, 0.01501399703187498],[-0.37806870669793413, 0.8916477659311491, 0.08170981511403409],[-0.30359195824150076, 0.7062398089501771, 0.09215324542066387]
4,66,[-0.39993159785589144, 0.9838257719173932, 0.01501399703187498],[-0.37806870669793413, 0.8916477659311491, 0.08170981511403409],[-0.30359195824150076, 0.7062398089501771, 0.09215324542066387]
4,67,[-0.39993159785589144, 0.9838257719173932, 0.01501399703187498],[-0.37806870669793413, 0.8916477659311491, 0.08170981511403409],[-0.30359195824150076, 0.7062398089501771, 0.09215324542066387]
4,68,[-0.39993159785589144, 0.9838257719173932, 0.01501399703187498],[-0.37806870669793413, 0.8916477659311491, 0.08170981511403409],[-0.30359195824150076, 0.7062398089501771, 0.09215324542066387]
4,69,[-0.39993159785589144, 0.9838257719173932, 0.01501399703187498],[-0.37806870669793413, 0.8916477659311491, 0.08170981511403409],[-0.30359195824150076, 0.7062398089501771, 0.09215324542066387]
4,70,[-0.39993159785589144, 0.9838257719173932, 0.01501399703187498],[-0.37806870669793413, 0.8916477659311491, 0.08170981511403409],[-0.30359195824150076, 0.7062398089501771, 0.09215324542066387]
4,71,[-0.39993159785589144, 0.9838257719173932, 0.01501399703187498],[-0.37806870669793413, 0.8916477659311491, 0.08170981511403409],[-0.30359195824150076, 0.7062398089501771, 0.09215324542066387]
4,72,[-0.39993159785589144, 0.9838257719173932, 0.01501399703187498],[-0.37806870669793413, 0.8916477659311491, 0.08170981511403409],[-0.30359195824150076, 0.7062398089501771, 0.09215324542066387]
4,73,[-0.39993159785589144, 0.9838257719173932, 0.01501399703187498],[-0.37806870669793413, 0.8916477659311491, 0.08170981511403409],[-0.30359195824150076, 0.7062398089501771, 0.09215324542066387]
4,74,[-0.39993159785589144, 0.9838257719173932, 0.01501399703187498],[-0.37806870669793413, 0.8916477659311491, 0.08170981511403409],[-0.30359195824150076, 0.7062398089501771, 0.09215324542066387]
4,75,[-0.39993159785589144, 0.9838257719173932, 0.01501399703187498],[-0.37806870669793413, 0.8916477659311491, 0.08170981511403409],[-0.30359195824150076, 0.7062398089501771, 0.09215324542066387]
4,76,[-0.39993159785589144, 0.9838257719173932, 0.01501399703187498],[-0.37806870669793413, 0.8916477659311491, 0.08170981511403409],[-0.30359195824150076, 0.7062398089501771, 0.09215324542066387]
4,77,[-0.39993159785589144, 0.9838257719173932, 0.01501399703187498],[-0.37806870669793413, 0.8916477659311491, 0.08170981511403409],[-0.30359195824150076, 0.7062398089501771, 0.09215324542066387]
4,78,[-0.39993159785589144, 0.9838257719173932, 0.01501399703187498],[-0.37806870669793413, 0.8916477659311491, 0.08170981511403409],[-0.30359195824150076, 0.7062398089501771, 0.09215324542066387]
4,79,[-0.39993159785589144, 0.9838257719173932, 0.01501399703187498],[-0.37806870669793413, 0.8916477659311491, 0.08170981511403409],[-0.30359195824150076, 0.7062398089501771, 0.09215324542066387]
4,80,[-0.39993159785589144, 0.9838257719173932, 0.01501399703187498],[-0.37806870669793413, 0.8916477659311491, 0.08170981511403409],[-0.30359195824150076, 0.7062398089501771, 0.09215324542066387]
4,81,[-0.39993159785589144, 0.9838257719173932, 0.01501399703187498],[-0.37806870669793413, 0.8916477659311491, 0.08170981511403409],[-0.30359195824150076, 0.7062398089501771, 0.09215324542066387]
4,82,[-0.39993159785589144, 0.9838257719173932, 0.01501399703187498],[-0.37806870669793413, 0.8916477659311491, 0.08170981511403409],[-0.30359195824150076, 0.7062398089501771, 0.09215324542066387]
4,83,[-0.39993159785589144, 0.9838257719173932, 0.01501399703187498],[-0.37806870669793413, 0.8916477659311491, 0.08170981511403409],[-0.30359195824150076, 0.7062398089501771, 0.09215324542066387]
4,84,[-0.39993159785589144, 0.9838257719173932, 0.01501399703187498],[-0.37806870669793413, 0.8916477659311491, 0.08170981511403409],[-0.30359195824150076, 0.7062398089501771, 0.09215324542066387]
4,85,[-0.39993159785589144, 0.9838257719173932, 0.01501399703187498],[-0.37806870669793413, 0.8916477659311491, 0.08170981511403409],[-0.30359195824150076, 0.7062398089501771, 0.09215324542066387]
4,86,[-0.39993159785589144, 0.9838257719173932, 0.01501399703187498],[-0.37806870669793413, 0.8916477659311491, 0.08170981511403409],[-0.30359195824150076, 0.7062398089501771, 0.09215324542066387]
4,87,[-0.39993159785589144, 0.9838257719173932, 0.01501399703187498],[-0.37806870669793413, 0.8916477659311491, 0.08170981511403409],[-0.30359195824150076, 0.7062398089501771, 0.09215324542066387]
4,88,[-0.39993159785589144, 0.9838257719173932, 0.01501399703187498],[-0.37806870669793413, 0.8916477659311491, 0.08170981511403409],[-0.30359195824150076, 0.7062398089501771, 0.09215324542066387]
4,89,[-0.39993159785589144, 0.9838257719173932, 0.01501399703187498],[-0.37806870669793413, 0.8916477659311491, 0.08170981511403409],[-0.30359195824150076, 0.7062398089501771, 0.09215324542066387]
4,90,[-0.39993159785589144, 0.9838257719173932, 0.01501399703187498],[-0.37806870669793413, 0.8916477659311491, 0.08170981511403409],[-0.30359195824150076, 0.7062398089501771, 0.09215324542066387]
4,91,[-0.39993159785589144, 0.9838257719173932, 0.01501399703187498],[-0.37806870669793413, 0.8916477659311491, 0.08170981511403409],[-0.30359195824150076, 0.7062398089501771, 0.09215324542066387]
4,92,[-0.39993159785589144, 0.9838257719173932, 0.01501399703187498],[-0.37806870669793413, 0.8916477659311491, 0.08170981511403409],[-0.30359195824150076, 0.7062398089501771, 0.09215324542066387]
4,93,[-0.39993159785589144, 0.9838257719173932, 0.01501399703187498],[-0.37806870669793413, 0.8916477659311491, 0.08170981511403409],[-0.30359195824150076, 0.7062398089501771, 0.09215324542066387]
4,94,[-0.39993159785589144, 0.9838257719173932, 0.01501399703187498],[-0.37806870669793413, 0.8916477659311491, 0.08170981511403409],[-0.30359195824150076, 0.7062398089501771, 0.09215324542066387]
4,95,[-0.39993159785589144, 0.9838257719173932, 0.01501399703187498],[-0.37806870669793413, 0.8916477659311491, 0.08170981511403409],[-0.30359195824150076, 0.7062398089501771, 0.09215324542066387]
4,96,[-0.39993159785589144, 0.9838257719173932, 0.01501399703187498],[-0.37806870669793413, 0.8916477659311491, 0.08170981511403409],[-0.30359195824150076, 0.7062398089501771, 0.09215324542066387]
4,97,[-0.39993159785589144, 0.9838257719173932, 0.01501399703187498],[-0.37806870669793413, 0.8916477659311491, 0.08170981511403409],[-0.30359195824150076, 0.7062398089501771, 0.09215324542066387]
4,98,[-0.39993159785589144, 0.9838257719173932, 0.01501399703187498],[-0.37806870669793413, 0.8916477659311491, 0.08170981511403409],[-0.30359195824150076, 0.7062398089501771, 0.09215324542066387]
4,99,[-0.39993159785589144, 0.9838257719173932, 0.01501399703187498],[-0.37806870669793413, 0.8916477659311491, 0.08170981511403409],[-0.30359195824150076, 0.7062398089501771, 0.09215324542066387]
5,0,[0.02507110604178253, 0.9589083172975297, -0.045384754054606916],[-0.04565816050060279, 0.8888476687429292, 0.014510943822839838],[-0.058192229465144386, 0.861184744225436, 0.005029642904477923]
5,1,[0.02507110604178253, 0.9589083172975297, -0.045384754054606916],[-0.04565816050060279, 0.8888476687429292, 0.014510943822839838],[-0.058192229465144386, 0.861184744225436, 0.005029642904477923]
5,2,[0.02507110604178253, 0.9589083172975297, -0.045384754054606916],[-0.04565816050060279, 0.8888476687429292, 0.014510943822839838],[-0.058192229465144386, 0.861184744225436, 0.005029642904477923]
5,3,[0.02507110604178253, 0.9589083172975297, -0.045384754054606916],[-0.04565816050060279, 0.8888476687429292, 0.014510943822839838],[-0.058192229465144386, 0.861184744225436, 0.005029642904477923]
5,4,[0.02507110604178253, 0.9589083172975297, -0.045384754054606916],[-0.04565816050060279, 0.8888476687429292, 0.014510943822839838],[-0.058192229465144386, 0.861184744225436, 0.005029642904477923]
5,5,[0.02507110604178253, 0.9589083172975297, -0.045384754054606916],[-0.04565816050060279, 0.8888476687429292, 0.014510943822839838],[-0.058192229465144386, 0.861184744225436, 0.005029642904477923]
5,6,[0.02507110604178253, 0.9589083172975297, -0.045384754054606916],[-0.04565816050060279, 0.8888476687429292, 0.014510943822839838],[-0.058192229465144386, 0.861184744225436, 0.005029642904477923]
5,7,[0.02507110604178253, 0.9589083172975297, -0.045384754054606916],[-0.04565816050060279, 0.8888476687429292, 0.014510943822839838],[-0.058192229465144386, 0.861184744225436, 0.005029642904477923]
5,8,[0.02507110604178253, 0.9589083172975297, -0.045384754054606916],[-0.04565816050060279, 0.8888476687429292, 0.014510943822839838],[-0.058192229465144386, 0.861184744225436, 0.005029642904477923]
5,9,[0.02507110604178253, 0.9589083172975297, -0.045384754054606916],[-0.04565816050060279, 0.8888476687429292, 0.014510943822839838],[-0.058192229465144386, 0.861184744225436, 0.005029642904477923]
5,10,[0.02507110604178253, 0.9589083172975297, -0.045384754054606916],[-0.04565816050060279, 0.8888476687429292, 0.014510943822839838],[-0.058192229465144386, 0.861184744225436, 0.005029642904477923]
5,11,[0.02507110604178253, 0.9589083172975297, -0.045384754054606916],[-0.04565816050060279, 0.8888476687429292, 0.014510943822839838],[-0.058192229465144386, 0.861184744225436, 0.005029642904477923]
5,12,[0.02507110604178253, 0.9589083172975297, -0.045384754054606916],[-0.04565816050060279, 0.8888476687429292, 0.014510943822839838],[-0.058192229465144386, 0.861184744225436, 0.005029642904477923]
5,13,[0.02507110604178253, 0.9589083172975297, -0.045384754054606916],[-0.04565816050060279, 0.8888476687429292, 0.014510943822839838],[-0.058192229465144386, 0.861184744225436, 0.005029642904477923]
5,14,[0.02507110604178253, 0.9589083172975297, -0.045384754054606916],[-0.04565816050060279, 0.8888476687429292, 0.014510943822839838],[-0.058192229465144386, 0.861184744225436, 0.005029642904477923]
5,15,[0.02507110604178253, 0.9589083172975297, -0.045384754054606916],[-0.04565816050060279, 0.8888476687429292, 0.014510943822839838],[-0.058192229465144386, 0.861184744225436, 0.005029642904477923]
5,16,[0.02507110604178253, 0.9589083172975297, -0.045384754054606916],[-0.04565816050060279, 0.8888476687429292, 0.014510943822839838],[-0.058192229465144386, 0.861184744225436, 0.005029642904477923]
5,17,[0.02507110604178253, 0.9589083172975297, -0.045384754054606916],[-0.04565816050060279, 0.8888476687429292, 0.014510943822839838],[-0.058192229465144386, 0.861184744225436, 0.005029642904477923]
5,18,[0.02507110604178253, 0.9589083172975297, -0.045384754054606916],[-0.04565816050060279, 0.8888476687429292, 0.014510943822839838],[-0.058192229465144386, 0.861184744225436, 0.005029642904477923]
5,19,[0.02507110604178253, 0.9589083172975297, -0.045384754054606916],[-0.04565816050060279, 0.8888476687429292, 0.014510943822839838],[-0.058192229465144386, 0.861184744225436, 0.005029642904477923]
5,20,[0.02507110604178253, 0.9589083172975297, -0.045384754054606916],[-0.04565816050060279, 0.8888476687429292, 0.014510943822839838],[-0.058192229465144386, 0.861184744225436, 0.005029642904477923]
5,21,[0.02507110604178253, 0.9589083172975297, -0.045384754054606916],[-0.04565816050060279, 0.8888476687429292, 0.014510943822839838],[-0.058192229465144386, 0.861184744225436, 0.005029642904477923]
5,22,[0.02507110604178253, 0.9589083172975297, -0.045384754054606916],[-0.04565816050060279, 0.8888476687429292, 0.014510943822839838],[-0.058192229465144386, 0.861184744225436, 0.005029642904477923]
5,23,[0.02507110604178253, 0.9589083172975297, -0.045384754054606916],[-0.04565816050060279, 0.8888476687429292, 0.014510943822839838],[-0.058192229465144386, 0.861184744225436, 0.005029642904477923]
5,24,[0.02507110604178253, 0.9589083172975297, -0.045384754054606916],[-0.04565816050060279, 0.8888476687429292, 0.014510943822839838],[-0.058192229465144386, 0.861184744225436, 0.005029642904477923]
5,25,[0.02507110604178253, 0.9589083172975297, -0.045384754054606916],[-0.04565816050060279, 0.8888476687429292, 0.014510943822839838],[-0.058192229465144386, 0.861184744225436, 0.005029642904477923]
5,26,[0.02507110604178253, 0.9589083172975297, -0.045384754054606916],[-0.04565816050060279, 0.8888476687429292, 0.014510943822839838],[-0.058192229465144386, 0.861184744225436, 0.005029642904477923]
5,27,[0.02507110604178253, 0.9589083172975297, -0.045384754054606916],[-0.04565816050060279, 0.8888476687429292, 0.014510943822839838],[-0.058192229465144386, 0.861184744225436, 0.005029642904477923]
5,28,[0.02507110604178253, 0.9589083172975297, -0.045384754054606916],[-0.04565816050060279, 0.8888476687429292, 0.014510943822839838],[-0.058192229465144386, 0.861184744225436, 0.005029642904477923]
5,29,[0.02507110604178253, 0.9589083172975297, -0.045384754054606916],[-0.04565816050060279, 0.8888476687429292, 0.014510943822839838],[-0.058192229465144386, 0.861184744225436, 0.005029642904477923]
5,30,[0.02507110604178253, 0.9589083172975297, -0.045384754054606916],[-0.04565816050060279, 0.8888476687429292, 0.014510943822839838],[-0.058192229465144386, 0.861184744225436, 0.005029642904477923]
5,31,[0.02507110604178253, 0.9589083172975297, -0.045384754054606916],[-0.04565816050060279, 0.8888476687429292, 0.014510943822839838],[-0.058192229465144386, 0.861184744225436, 0.005029642904477923]
5,32,[0.02507110604178253, 0.9589083172975297, -0.045384754054606916],[-0.04565816050060279, 0.8888476687429292, 0.014510943822839838],[-0.058192229465144386, 0.861184744225436, 0.005029642904477923]
5,33,[0.02507110604178253, 0.9589083172975297, -0.045384754054606916],[-0.04565816050060279, 0.8888476687429292, 0.014510943822839838],[-0.058192229465144386, 0.861184744225436, 0.005029642904477923]
5,34,[0.02507110604178253, 0.9589083172975297, -0.045384754054606916],[-0.04565816050060279, 0.8888476687429292, 0.014510943822839838],[-0.058192229465144386, 0.861184744225436, 0.005029642904477923]
5,35,[0.02507110604178253, 0.9589083172975297, -0.045384754054606916],[-0.04565816050060279, 0.8888476687429292, 0.014510943822839838],[-0.058192229465144386, 0.861184744225436, 0.005029642904477923]
5,36,[0.02507110604178253, 0.9589083172975297, -0.045384754054606916],[-0.04565816050060279, 0.8888476687429292, 0.014510943822839838],[-0.058192229465144386, 0.861184744225436, 0.005029642904477923]
5,37,[0.02507110604178253, 0.9589083172975297, -0.045384754054606916],[-0.04565816050060279, 0.8888476687429292, 0.014510943822839838],[-0.058192229465144386, 0.861184744225436, 0.005029642904477923]
5,38,[0.02507110604178253, 0.9589083172975297, -0.045384754054606916],[-0.04565816050060279, 0.8888476687429292, 0.014510943822839838],[-0.058192229465144386, 0.861184744225436, 0.005029642904477923]
5,39,[0.02507110604178253, 0.9589083172975297, -0.045384754054606916],[-0.04565816050060279, 0.8888476687429292, 0.014510943822839838],[-0.058192229465144386, 0.861184744225436, 0.005029642904477923]
5,40,[0.02507110604178253, 0.9589083172975297, -0.045384754054606916],[-0.04565816050060279, 0.8888476687429292, 0.014510943822839838],[-0.058192229465144386, 0.861184744225436, 0.005029642904477923]
5,41,[0.02507110604178253, 0.9589083172975297, -0.045384754054606916],[-0.04565816050060279, 0.8888476687429292, 0.014510943822839838],[-0.058192229465144386, 0.861184744225436, 0.005029642904477923]
5,42,[0.02507110604178253, 0.9589083172975297, -0.045384754054606916],[-0.04565816050060279, 0.8888476687429292, 0.014510943822839838],[-0.058192229465144386, 0.861184744225436, 0.005029642904477923]
5,43,[0.02507110604178253, 0.9589083172975297, -0.045384754054606916],[-0.04565816050060279, 0.8888476687429292, 0.014510943822839838],[-0.058192229465144386, 0.861184744225436, 0.005029642904477923]
5,44,[0.02507110604178253, 0.9589083172975297, -0.045384754054606916],[-0.04565816050060279, 0.8888476687429292, 0.014510943822839838],[-0.058192229465144386, 0.861184744225436, 0.005029642904477923]
5,45,[0.02507110604178253, 0.9589083172975297, -0.045384754054606916],[-0.04565816050060279, 0.8888476687429292, 0.014510943822839838],[-0.058192229465144386, 0.861184744225436, 0.005029642904477923]
5,46,[0.02507110604178253, 0.9589083172975297, -0.045384754054606916],[-0.04565816050060279, 0.8888476687429292, 0.014510943822839838],[-0.058192229465144386, 0.861184744225436, 0.005029642904477923]
5,47,[0.02507110604178253, 0.9589083172975297, -0.045384754054606916],[-0.04565816050060279, 0.8888476687429292, 0.014510943822839838],[-0.058192229465144386, 0.861184744225436, 0.005029642904477923]
5,48,[0.02507110604178253, 0.9589083172975297, -0.045384754054606916],[-0.04565816050060279, 0.8888476687429292, 0.014510943822839838],[-0.058192229465144386, 0.861184744225436, 0.005029642904477923]
5,49,[0.02507110604178253, 0.9589083172975297, -0.045384754054606916],[-0.04565816050060279, 0.8888476687429292, 0.014510943822839838],[-0.058192229465144386, 0.861184744225436, 0.005029642904477923]
5,50,[0.02507110604178253, 0.9589083172975297, -0.045384754054606916],[-0.04565816050060279, 0.8888476687429292, 0.014510943822839838],[-0.058192229465144386, 0.861184744225436, 0.005029642904477923]
5,51,[0.02507110604178253, 0.9589083172975297, -0.045384754054606916],[-0.04565816050060279, 0.8888476687429292, 0.014510943822839838],[-0.058192229465144386, 0.861184744225436, 0.005029642904477923]
5,52,[0.02507110604178253, 0.9589083172975297, -0.045384754054606916],[-0.04565816050060279, 0.8888476687429292, 0.014510943822839838],[-0.058192229465144386, 0.861184744225436, 0.005029642904477923]
5,53,[0.02507110604178253, 0.9589083172975297, -0.045384754054606916],[-0.04565816050060279, 0.8888476687429292, 0.014510943822839838],[-0.058192229465144386, 0.861184744225436, 0.005029642904477923]
5,54,[0.02507110604178253, 0.9589083172975297, -0.045384754054606916],[-0.04565816050060279, 0.8888476687429292, 0.014510943822839838],[-0.058192229465144386, 0.861184744225436, 0.005029642904477923]
5,55,[0.02507110604178253, 0.9589083172975297, -0.045384754054606916],[-0.04565816050060279, 0.8888476687429292, 0.014510943822839838],[-0.058192229465144386, 0.861184744225436, 0.005029642904477923]
5,56,[0.02507110604178253, 0.9589083172975297, -0.045384754054606916],[-0.04565816050060279, 0.8888476687429292, 0.014510943822839838],[-0.058192229465144386, 0.861184744225436, 0.005029642904477923]
5,57,[0.02507110604178253, 0.9589083172975297, -0.045384754054606916],[-0.04565816050060279, 0.8888476687429292, 0.014510943822839838],[-0.058192229465144386, 0.861184744225436, 0.005029642904477923]
5,58,[0.02507110604178253, 0.9589083172975297, -0.045384754054606916],[-0.04565816050060279, 0.8888476687429292, 0.014510943822839838],[-0.058192229465144386, 0.861184744225436, 0.005029642904477923]
5,59,[0.02507110604178253, 0.9589083172975297, -0.045384754054606916],[-0.04565816050060279, 0.8888476687429292, 0.014510943822839838],[-0.058192229465144386, 0.861184744225436, 0.005029642904477923]
5,60,[0.02507110604178253, 0.9589083172975297, -0.045384754054606916],[-0.04565816050060279, 0.8888476687429292, 0.014510943822839838],[-0.058192229465144386, 0.861184744225436, 0.005029642904477923]
5,61,[0.02507110604178253, 0.9589083172975297, -0.045384754054606916],[-0.04565816050060279, 0.8888476687429292, 0.014510943822839838],[-0.058192229465144386, 0.861184744225436, 0.005029642904477923]
5,62,[0.02507110604178253, 0.9589083172975297, -0.045384754054606916],[-0.04565816050060279, 0.8888476687429292, 0.014510943822839838],[-0.058192229465144386, 0.861184744225436, 0.005029642904477923]
5,63,[0.02507110604178253, 0.9589083172975297, -0.045384754054606916],[-0.04565816050060279, 0.8888476687429292, 0.014510943822839838],[-0.058192229465144386, 0.861184744225436, 0.005029642904477923]
5,64,[0.02507110604178253, 0.9589083172975297, -0.045384754054606916],[-0.04565816050060279, 0.8888476687429292, 0.014510943822839838],[-0.058192229465144386, 0.861184744225436, 0.005029642904477923]
5,65,[0.02507110604178253, 0.9589083172975297, -0.045384754054606916],[-0.04565816050060279, 0.8888476687429292, 0.014510943822839838],[-0.058192229465144386, 0.861184744225436, 0.005029642904477923]
5,66,[0.02507110604178253, 0.9589083172975297, -0.045384754054606916],[-0.04565816050060279, 0.8888476687429292, 0.014510943822839838],[-0.058192229465144386, 0.861184744225436, 0.005029642904477923]
5,67,[0.02507110604178253, 0.9589083172975297, -0.045384754054606916],[-0.04565816050060279, 0.8888476687429292, 0.014510943822839838],[-0.058192229465144386, 0.861184744225436, 0.005029642904477923]
5,68,[0.02507110604178253, 0.9589083172975297, -0.045384754054606916],[-0.04565816050060279, 0.8888476687429292, 0.014510943822839838],[-0.058192229465144386, 0.861184744225436, 0.005029642904477923]
5,69,[0.02507110604178253, 0.9589083172975297, -0.045384754054606916],[-0.04565816050060279, 0.8888476687429292, 0.014510943822839838],[-0.058192229465144386, 0.861184744225436, 0.005029642904477923]
5,70,[0.02507110604178253, 0.9589083172975297, -0.045384754054606916],[-0.04565816050060279, 0.8888476687429292, 0.014510943822839838],[-0.058192229465144386, 0.861184744225436, 0.005029642904477923]
5,71,[0.02507110604178253, 0.9589083172975297, -0.045384754054606916],[-0.04565816050060279, 0.8888476687429292, 0.014510943822839838],[-0.058192229465144386, 0.861184744225436, 0.005029642904477923]
5,72,[0.02507110604178253, 0.9589083172975297, -0.045384754054606916],[-0.04565816050060279, 0.8888476687429292, 0.014510943822839838],[-0.058192229465144386, 0.861184744225436, 0.005029642904477923]
5,73,[0.02507110604178253, 0.9589083172975297, -0.045384754054606916],[-0.04565816050060279, 0.8888476687429292, 0.014510943822839838],[-0.058192229465144386, 0.861184744225436, 0.005029642904477923]
5,74,[0.02507110604178253, 0.9589083172975297, -0.045384754054606916],[-0.04565816050060279, 0.8888476687429292, 0.014510943822839838],[-0.058192229465144386, 0.861184744225436, 0.005029642904477923]
5,75,[0.02507110604178253, 0.9589083172975297, -0.045384754054606916],[-0.04565816050060279, 0.8888476687429292, 0.014510943822839838],[-0.058192229465144386, 0.861184744225436, 0.005029642904477923]
5,76,[0.02507110604178253, 0.9589083172975297, -0.045384754054606916],[-0.04565816050060279, 0.8888476687429292, 0.014510943822839838],[-0.058192229465144386, 0.861184744225436, 0.005029642904477923]
5,77,[0.02507110604178253, 0.9589083172975297, -0.045384754054606916],[-0.04565816050060279, 0.8888476687429292, 0.014510943822839838],[-0.058192229465144386, 0.861184744225436, 0.005029642904477923]
5,78,[0.02507110604178253, 0.9589083172975297, -0.045384754054606916],[-0.04565816050060279, 0.8888476687429292, 0.014510943822839838],[-0.058192229465144386, 0.861184744225436, 0.005029642904477923]
5,79,[0.02507110604178253, 0.9589083172975297, -0.045384754054606916],[-0.04565816050060279, 0.8888476687429292, 0.014510943822839838],[-0.058192229465144386, 0.861184744225436, 0.005029642904477923]
5,80,[0.02507110604178253, 0.9589083172975297, -0.045384754054606916],[-0.04565816050060279, 0.8888476687429292, 0.014510943822839838],[-0.058192229465144386, 0.861184744225436, 0.005029642904477923]
5,81,[0.02507110604178253, 0.9589083172975297, -0.045384754054606916],[-0.04565816050060279, 0.8888476687429292, 0.014510943822839838],[-0.058192229465144386, 0.861184744225436, 0.005029642904477923]
5,82,[0.02507110604178253, 0.9589083172975297, -0.045384754054606916],[-0.04565816050060279, 0.8888476687429292, 0.014510943822839838],[-0.058192229465144386, 0.861184744225436, 0.005029642904477923]
5,83,[0.02507110604178253, 0.9589083172975297, -0.045384754054606916],[-0.04565816050060279, 0.8888476687429292, 0.014510943822839838],[-0.058192229465144386, 0.861184744225436, 0.005029642904477923]
5,84,[0.02507110604178253, 0.9589083172975297, -0.045384754054606916],[-0.04565816050060279, 0.8888476687429292, 0.014510943822839838],[-0.058192229465144386, 0.861184744225436, 0.005029642904477923]
5,85,[0.02507110604178253, 0.9589083172975297, -0.045384754054606916],[-0.04565816050060279, 0.8888476687429292, 0.014510943822839838],[-0.058192229465144386, 0.861184744225436, 0.005029642904477923]
5,86,[0.02507110604178253, 0.9589083172975297, -0.045384754054606916],[-0.04565816050060279, 0.8888476687429292, 0.014510943822839838],[-0.058192229465144386, 0.861184744225436, 0.005029642904477923]
5,87,[0.02507110604178253, 0.9589083172975297, -0.045384754054606916],[-0.04565816050060279, 0.8888476687429292, 0.014510943822839838],[-0.058192229465144386, 0.861184744225436, 0.005029642904477923]
5,88,[0.02507110604178253, 0.9589083172975297, -0.045384754054606916],[-0.04565816050060279, 0.8888476687429292, 0.014510943822839838],[-0.058192229465144386, 0.861184744225436, 0.005029642904477923]
5,89,[0.02507110604178253, 0.9589083172975297, -0.045384754054606916],[-0.04565816050060279, 0.8888476687429292, 0.014510943822839838],[-0.058192229465144386, 0.861184744225436, 0.005029642904477923]
5,90,[0.02507110604178253, 0.9589083172975297, -0.045384754054606916],[-0.04565816050060279, 0.8888476687429292, 0.014510943822839838],[-0.058192229465144386, 0.861184744225436, 0.005029642904477923]
5,91,[0.02507110604178253, 0.9589083172975297, -0.045384754054606916],[-0.04565816050060279, 0.8888476687429292, 0.014510943822839838],[-0.058192229465144386, 0.861184744225436, 0.005029642904477923]
5,92,[0.02507110604178253, 0.9589083172975297, -0.045384754054606916],[-0.04565816050060279, 0.8888476687429292, 0.014510943822839838],[-0.058192229465144386, 0.861184744225436, 0.005029642904477923]
5,93,[0.02507110604178253, 0.9589083172975297, -0.045384754054606916],[-0.04565816050060279, 0.8888476687429292, 0.014510943822839838],[-0.058192229465144386, 0.861184744225436, 0.005029642904477923]
5,94,[0.02507110604178253, 0.9589083172975297, -0.045384754054606916],[-0.04565816050060279, 0.8888476687429292, 0.014510943822839838],[-0.058192229465144386, 0.861184744225436, 0.005029642904477923]
5,95,[0.02507110604178253, 0.9589083172975297, -0.045384754054606916],[-0.04565816050060279, 0.8888476687429292, 0.014510943822839838],[-0.058192229465144386, 0.861184744225436, 0.005029642904477923]
5,96,[0.02507110604178253, 0.9589083172975297, -0.045384754054606916],[-0.04565816050060279, 0.8888476687429292, 0.014510943822839838],[-0.058192229465144386, 0.861184744225436, 0.005029642904477923]
5,97,[0.02507110604178253, 0.9589083172975297, -0.045384754054606916],[-0.04565816050060279, 0.8888476687429292, 0.014510943822839838],[-0.058192229465144386, 0.861184744225436, 0.005029642904477923]
5,98,[0.02507110604178253, 0.9589083172975297, -0.045384754054606916],[-0.04565816050060279, 0.8888476687429292, 0.014510943822839838],[-0.058192229465144386, 0.861184744225436, 0.005029642904477923]
5,99,[0.02507110604178253, 0.9589083172975297, -0.045384754054606916],[-0.04565816050060279, 0.8888476687429292, 0.014510943822839838],[-0.058192229465144386, 0.861184744225436, 0.005029642904477923]
6,0,[0.02509851615881433, 1.0, 0.01195532845315651],[-0.045070308515777334, 0.9201183997275316, 0.07964972191921091],[-0.022057252416680627, 0.8664623413697429, 0.03773612359309739]
6,1,[0.02509851615881433, 1.0, 0.01195532845315651],[-0.045070308515777334, 0.9201183997275316, 0.07964972191921091],[-0.022057252416680627, 0.8664623413697429, 0.03773612359309739]
6,2,[0.02509851615881433, 1.0, 0.01195532845315651],[-0.045070308515777334, 0.9201183997275316, 0.07964972191921091],[-0.022057252416680627, 0.8664623413697429, 0.03773612359309739]
6,3,[0.02509851615881433, 1.0, 0.01195532845315651],[-0.045070308515777334, 0.9201183997275316, 0.07964972191921091],[-0.022057252416680627, 0.8664623413697429, 0.03773612359309739]
6,4,[0.02509851615881433, 1.0, 0.01195532845315651],[-0.045070308515777334, 0.9201183997275316, 0.07964972191921091],[-0.022057252416680627, 0.8664623413697429, 0.03773612359309739]
6,5,[0.02509851615881433, 1.0, 0.01195532845315651],[-0.045070308515777334, 0.9201183997275316, 0.07964972191921091],[-0.022057252416680627, 0.8664623413697429, 0.03773612359309739]
6,6,[0.02509851615881433, 1.0, 0.01195532845315651],[-0.045070308515777334, 0.9201183997275316, 0.07964972191921091],[-0.022057252416680627, 0.8664623413697429, 0.03773612359309739]
6,7,[0.02509851615881433, 1.0, 0.01195532845315651],[-0.045070308515777334, 0.9201183997275316, 0.07964972191921091],[-0.022057252416680627, 0.8664623413697429, 0.03773612359309739]
6,8,[0.02509851615881433, 1.0, 0.01195532845315651],[-0.045070308515777334, 0.9201183997275316, 0.07964972191921091],[-0.022057252416680627, 0.8664623413697429, 0.03773612359309739]
6,9,[0.02509851615881433, 1.0, 0.01195532845315651],[-0.045070308515777334, 0.9201183997275316, 0.07964972191921091],[-0.022057252416680627, 0.8664623413697429, 0.03773612359309739]
6,10,[0.02509851615881433, 1.0, 0.01195532845315651],[-0.045070308515777334, 0.9201183997275316, 0.07964972191921091],[-0.022057252416680627, 0.8664623413697429, 0.03773612359309739]
6,11,[0.02509851615881433, 1.0, 0.01195532845315651],[-0.045070308515777334, 0.9201183997275316, 0.07964972191921091],[-0.022057252416680627, 0.8664623413697429, 0.03773612359309739]
6,12,[0.02509851615881433, 1.0, 0.01195532845315651],[-0.045070308515777334, 0.9201183997275316, 0.07964972191921091],[-0.022057252416680627, 0.8664623413697429, 0.03773612359309739]
6,13,[0.02509851615881433, 1.0, 0.01195532845315651],[-0.045070308515777334, 0.9201183997275316, 0.07964972191921091],[-0.022057252416680627, 0.8664623413697429, 0.03773612359309739]
6,14,[0.02509851615881433, 1.0, 0.01195532845315651],[-0.045070308515777334, 0.9201183997275316, 0.07964972191921091],[-0.022057252416680627, 0.8664623413697429, 0.03773612359309739]
