time,acc_x,acc_y,acc_z,local max
1408129650873,0.80244089085,9.22672603878,1.76921085842,0
1408129650891,0.489528622628,9.34937815028,1.84358160099,0
1408129650892,0.392454349203,9.17494069199,1.79305837048,0
1408129650908,0.568506541659,9.02492305082,1.6251404938,0
1408129650908,0.818091577129,9.05594166782,1.23668498669,0
1408129650923,1.10270167531,9.19893035869,0.951820085875,0
1408129650941,1.39710789249,9.19175616307,0.823665617523,0
1408129650941,1.60195608902,9.07817892231,0.816885592477,0
1408129650954,1.66611465376,8.60895295457,0.80312952969,0
1408129650973,1.6876148628,8.18241776486,0.701756437536,0
1408129650974,1.69117540288,7.68853463602,0.612931308334,0
1408129650988,1.63159804914,7.57822400528,0.500912005166,0
1408129650988,1.9048106649,7.61845536395,0.537744905414,0
1408129651003,2.43890407088,7.42418645488,0.863274004791,0
1408129651008,2.62484087616,6.94298923018,0.921967608638,0
1408129651021,2.36890480901,6.75785768358,0.968004395299,0
1408129651037,1.74111772013,6.90288191261,0.887912887241,0
1408129651040,1.00365167811,7.2513943505,0.889982072027,0
1408129651055,0.270018355977,7.75918771491,0.805339478316,0
1408129651082,-0.275859570094,8.40176569489,0.584484835606,0
1408129651082,-0.910125277527,8.98769154724,0.357108511501,0.0
1408129651084,-1.40866943823,9.46297128708,0.307070899487,0.0
1408129651089,-1.68162069993,9.52896549445,0.414032888211,0.0
1408129651119,-1.77146804042,9.45328642797,0.371410078745,0.0
1408129651120,-1.815900275,9.49942255792,0.0881334366213,0.0
1408129651121,-1.57142379802,9.38326253858,-0.067782819515,0.0
1408129651145,-1.27235881984,9.29073656843,-0.130088917966,0.0
1408129651146,-1.05026157319,9.2166758336,-0.15782310598,0.0
1408129651149,-0.993790728962,9.0986341927,-0.13438794105,0.0
1408129651179,-1.07796310516,9.13568484085,-0.178560647467,0.0
1408129651180,-1.15194633365,9.11835677402,-0.252820628238,0.0
1408129651180,-1.11770131076,8.97211996225,-0.358513717327,0.0
1408129651189,-0.932324955265,9.1877620966,-0.412197341846,0.0
1408129651209,-0.419622736852,9.19939741901,-0.908676842543,0.0
1408129651210,0.115014421596,9.05446218955,-0.98920409675,0.0
1408129651220,0.500137954659,8.9485148533,-0.616037658931,0.0
1408129651239,0.320139533095,8.83668418243,-0.0528589785239,0.0
1408129651240,-0.621540680581,8.77595788346,0.498382202255,0.0
1408129651270,-1.91271466786,8.77381240908,0.540049896687,0.0
1408129651271,-2.62979451833,9.09920524439,0.0278706513409,0.0
1408129651271,-2.38036221174,9.65930069597,-0.388622275912,0.0
1408129651303,-1.84955550977,10.405734818,-0.367058106671,0.0
1408129651303,-1.44181743287,11.3084914174,-0.464907539735,0.0
1408129651304,-1.00792754008,11.696892918,-0.273187026243,0.0
1408129651309,-0.939295737191,11.4598196433,0.341558679845,0.0
1408129651330,-1.28089468127,11.1318577851,0.774047071106,0.0
1408129651330,-1.66530858265,11.2423671229,0.663601033035,0.0
1408129651340,-1.71872229793,11.6989184918,0.513841266241,0.0
1408129651362,-1.41701218339,12.1538750701,1.07695682526,0.0
1408129651362,-0.617702890551,12.0407905273,2.0967963855,0.0
1408129651369,0.175712239215,11.3045965039,2.827598851,0.0
1408129651389,1.44802513526,10.2654166738,2.76344069921,0.0
1408129651390,2.39926813666,9.18490937689,2.72605271649,0.0
1408129651408,3.02901765982,8.6128886349,2.51021742496,0.0
1408129651421,3.84040103794,9.09621152275,1.8464885197,0.0
1408129651421,4.85289505752,11.3426262424,1.13865247193,0.0
1408129651440,4.75591123211,13.6461455512,0.523552542637,0.0
1408129651456,4.19638947497,15.4614831507,0.455092604479,15.4614831507
1408129651457,4.4450843927,15.1446216809,0.264403695893,0.0
1408129651473,4.44288001809,13.5199469347,-0.407804591279,0.0
1408129651473,4.13916672544,11.6575765069,-1.01542549508,0.0
1408129651488,3.99385103167,10.2162564466,-1.57077444207,0.0
1408129651489,4.20960314568,9.15763589909,-1.69367083219,0.0
1408129651504,3.83201779407,9.58279219566,-1.28644612664,0.0
1408129651522,3.2713439281,10.3152105366,-0.755440855747,0.0
1408129651522,2.31108006909,9.8866816412,-0.430234696262,0.0
1408129651539,1.34424446486,8.64541110986,-0.391657109134,0.0
1408129651540,0.32083957825,8.05231628917,-0.37811514033,0.0
1408129651554,-0.751313309743,8.31927422328,-0.270576646836,0.0
1408129651570,-1.71845143448,8.76018701464,-0.132990294791,0.0
1408129651571,-2.64292418264,9.33659164349,0.0430761903766,0.0
1408129651587,-2.76080587288,9.42045287027,0.0578734552261,0.0
1408129651589,-2.36630851548,8.77747774841,-0.0693118932821,0.0
1408129651601,-1.68424366548,7.38984372128,-0.26584441374,0.0
1408129651624,-1.12328800942,6.13759535083,-0.595256403524,0.0
1408129651625,-0.813705967516,5.42765933854,-1.04566228252,0.0
1408129651645,-0.740500467609,4.97467901147,-1.29687004512,0.0
1408129651646,-0.704304347453,4.76036717431,-1.49081949045,0.0
1408129651649,-0.503829878662,4.78330053356,-1.58909568313,0.0
1408129651674,-0.223044471259,4.86943405912,-1.61848419417,0.0
1408129651674,-0.0360592896151,5.004382575,-1.59732899747,0.0
1408129651689,-0.0197092040516,5.28963997548,-1.67751322183,0.0
1408129651690,-0.112908998409,5.75358778933,-1.88495351135,0.0
1408129651704,-0.413334102113,6.45085251964,-2.0269261819,0.0
1408129651720,-0.806486955114,7.35664648945,-1.73448865708,0.0
1408129651721,-1.0913499826,8.08800027232,-1.46562384906,0.0
1408129651742,-1.11281892171,8.27596552907,-1.54087273463,0.0
1408129651743,-1.05914122676,8.0307498752,-1.7536596062,0.0
1408129651749,-1.06637539551,8.11193062806,-1.76103512097,0.0
1408129651771,-0.713691410653,8.55493903996,-1.09936732717,0.0
1408129651771,0.135488215994,9.11444140935,-0.322438465863,0.0
1408129651787,0.922603089638,10.3453613069,0.361474855982,0.0
1408129651789,1.27921559782,12.5071673924,0.258169695888,0.0
1408129651806,1.21763687684,14.5837146762,-0.184757323916,0.0
1408129651831,1.26547466637,15.4400321127,0.198488086775,0.0
1408129651832,0.584366458444,15.2085534577,0.896297008817,0.0
1408129651832,-0.616367847071,13.0921032341,1.06249957003,0.0
1408129651841,-2.200639826,11.0823709253,-0.0420661923882,0.0
1408129651871,-3.33706505684,9.58647824994,-2.90263430766,0.0
1408129651872,-3.86663811449,9.01571919239,-4.70565366295,0.0
1408129651873,-2.83907520424,11.3677996506,-5.20364856235,0.0
1408129651906,-0.425533537218,15.7359461863,-3.87307961397,0.0
1408129651907,0.85028199749,16.4414427771,-0.0635908043411,16.4414427771
1408129651909,2.30799212609,13.7212889097,1.25607698037,0.0
1408129651933,3.13348481947,12.10687505,1.25679932064,0.0
1408129651933,2.86631739859,11.2819442902,1.91729419469,0.0
1408129651934,2.86481309654,10.9380462523,1.71614825537,0.0
1408129651941,3.55845543562,10.9762699781,1.19649857276,0.0
1408129651958,3.97896344925,10.3802092367,1.14983218351,0.0
1408129651983,3.82420934966,9.6830424536,1.19219136959,0.0
1408129651984,3.73425333092,8.46479307791,0.962942626133,0.0
1408129651985,3.74953845026,7.3401951452,0.666685183017,0.0
1408129651990,3.73806723891,6.86330194846,0.669052928454,0.0
1408129652014,3.47963237238,6.82574331993,1.07738615045,0.0
1408129652015,2.92612504694,7.52744833398,1.6971975899,0.0
1408129652021,2.13473245728,8.43931223755,2.01565004878,0.0
1408129652038,1.24699011151,9.43473684734,1.95907135323,0.0
1408129652054,0.568833712578,9.94772833171,1.85910925609,0.0
1408129652055,0.35203014445,9.81556691619,1.72160722717,0.0
1408129652069,0.241823552034,9.52438526484,1.48250927102,0.0
1408129652069,0.313599794704,9.28659206198,1.30308101954,0.0
1408129652085,0.544438497863,9.25035745961,0.974813640234,0.0
1408129652089,0.811669748962,9.2973373369,0.574229987857,0.0
1408129652103,0.871595760644,9.33571890395,0.443933546484,0.0
1408129652123,0.906326009889,9.19910979729,0.374708955408,0.0
1408129652124,1.00499547094,8.81877932918,0.319352881388,0.0
1408129652139,1.12655137159,8.36823052115,0.324954187401,0.0
1408129652141,1.22329920971,8.00612377556,0.21515008055,0.0
1408129652156,1.380622882,7.72041421188,0.172114870582,0.0
1408129652177,1.52178527443,7.41586869529,0.310955592184,0.0
1408129652178,1.48765951785,7.2336581658,0.425963904776,0.0
1408129652181,1.0567121319,7.25505430201,0.587182258871,0.0
1408129652189,0.478150602115,7.56867172376,0.805742965213,0.0
1408129652209,-0.0890277964418,7.77585048461,1.03886579808,0.0
1408129652210,-1.05073895366,8.72698152911,0.772360232308,0.0
1408129652223,-1.5231230722,8.7874611373,0.329189792726,0.0
1408129652248,-1.6893450792,8.36297448857,-0.185453943867,0.0
1408129652249,-1.89253799371,8.36758230286,-0.354874771083,0.0
1408129652250,-1.71907087303,8.45695433736,-0.496285153666,0.0
1408129652280,-1.08790549977,8.3866826129,-0.233032329164,0.0
1408129652281,-0.599459218934,8.23737476111,0.0982460683978,0.0
1408129652283,-0.221970145683,8.3812489817,0.173298787997,0.0
1408129652289,0.0705779922821,8.83053068545,0.463536996924,0.0
1408129652311,0.179232151565,9.26637808451,0.725728126909,0.0
1408129652312,0.244969303873,9.51223382935,0.799430741354,0.0
1408129652321,0.175979369448,9.46703747987,0.670878415845,0.0
1408129652340,0.107101499994,9.08339083848,0.477549756161,0.0
1408129652345,-0.0620373376295,8.78086105652,0.0920785049096,0.0
1408129652349,-0.345598197578,8.67880435363,-0.488658560898,0.0
1408129652375,-0.450931183469,8.66994842819,-0.916159904765,0.0
1408129652376,-0.59131278021,8.56533805395,-1.05417150863,0.0
1408129652381,-1.00466650015,8.48379512181,-0.926286011843,0.0
1408129652391,-1.85336247752,8.50024749566,-0.637570671347,0.0
1408129652412,-2.42667117472,8.8088007409,-0.70991751886,0.0
1408129652413,-2.43048713863,9.42645178054,-0.851814856397,0.0
1408129652421,-2.2077732633,10.0634893484,-0.712449081017,0.0
1408129652450,-2.34501251501,10.3056691335,-0.365606113015,0.0
1408129652451,-2.75349021453,10.3186612187,-0.100176954996,0.0
1408129652452,-3.16129178527,10.5532221327,0.0528806218832,0.0
1408129652479,-3.09808024847,10.8841045833,0.393995563536,0.0
1408129652480,-2.95654454898,11.5889082928,0.464941835902,0.0
1408129652482,-2.89185150531,12.3378463973,0.602300892361,0.0
1408129652512,-2.0404384162,12.0158172038,1.56933973114,0.0
1408129652514,-0.72748404119,10.681584111,2.67155655034,0.0
1408129652515,0.665928922946,9.36590367895,2.00848961683,0.0
1408129652540,2.30687635484,7.8881313551,1.3225607312,0.0
1408129652541,3.57370225295,6.70467600134,1.25969809252,0.0
1408129652542,4.00963504824,6.58781138545,0.847703687811,0.0
1408129652550,4.62792528128,8.45490921374,0.581515849305,0.0
1408129652581,4.16121935758,11.9042946076,0.696565373476,0.0
1408129652581,3.52222752254,15.3224085811,1.02459175308,0.0
1408129652582,2.76376641662,16.9232611772,1.15308099103,16.9232611772
1408129652633,2.4174269554,16.3396877222,0.521743900007,0.0
1408129652634,2.38354875727,15.2697094236,-0.531744227389,0.0
1408129652635,2.19783347817,14.0062613195,-1.40584807321,0.0
1408129652644,2.20071728157,12.0791144123,-1.48255818211,0.0
1408129652645,2.18649156636,10.8663027627,-0.832295455036,0.0
1408129652684,2.04056980758,10.3852425739,-0.472701984688,0.0
1408129652685,1.19773777187,10.1940428807,-0.4739126277,0.0
1408129652686,0.046185228218,9.68232252736,-0.711623728981,0.0
1408129652687,-0.683456784901,8.49677776012,-1.0974367995,0.0
1408129652690,-1.48894717431,8.0175207062,-1.29679395635,0.0
1408129652716,-2.48885478002,8.50429525657,-1.31936957954,0.0
1408129652717,-2.70992934411,8.55093542862,-1.12413218714,0.0
1408129652717,-2.35116097026,8.46710506056,-0.824213854814,0.0
1408129652721,-1.51650156193,8.00461326102,-0.594541401569,0.0
1408129652743,-0.731381188614,7.06525803184,-0.729762206721,0.0
1408129652744,-0.458247861392,6.49837675478,-1.08757253447,0.0
1408129652750,-0.38142368199,6.2790019894,-1.14695000005,0.0
1408129652776,-0.326148229036,6.31027901687,-0.980804619307,0.0
1408129652776,-0.404537683383,6.44144451225,-0.777105173288,0.0
1408129652781,-0.45889492908,6.50482431286,-0.755918185726,0.0
1408129652811,-0.35724797266,6.64994582109,-0.865193900955,0.0
1408129652812,-0.148001370383,6.7030024855,-0.940078787427,0.0
1408129652814,0.0810699029958,6.80115815213,-0.783597923432,0.0
1408129652840,0.376729744361,6.77138539486,-0.547524388672,0.0
1408129652842,0.653699584774,6.67210819218,-0.34889331289,0.0
1408129652842,0.901289962031,6.53973700759,-0.473967525914,0.0
1408129652850,0.947453911123,6.51168875042,-0.912161319852,0.0
1408129652877,0.895872403767,6.56525513604,-1.39379622577,0.0
1408129652877,0.772758811433,6.85794634263,-1.64874000346,0.0
1408129652884,0.907681884207,7.43784801782,-1.92083215993,0.0
1408129652911,0.988332675326,7.99411115697,-2.10035566615,0.0
1408129652912,1.05793747915,8.48401831768,-1.98650621587,0.0
1408129652914,1.29280811131,8.9637603927,-1.9112510788,0.0
1408129652922,1.50748770357,9.41226144482,-1.68068905775,0.0
1408129652943,1.31544927088,9.83482363937,-1.56889741002,0.0
1408129652943,0.96023232934,11.099269335,-1.35340905635,0.0
1408129652950,1.11849010939,12.1186683968,-0.805084613493,0.0
1408129652980,1.07890272877,12.7657165881,0.0422731168332,0.0
1408129652981,0.440510478556,12.9721942697,1.21500120761,0.0
1408129652982,-0.74791341343,12.1822236827,1.44701614026,0.0
1408129653017,-2.1639148386,11.4352218629,0.443751605928,0.0
1408129653018,-3.56404739258,10.799239856,-1.34096869109,0.0
1408129653018,-4.68204310839,10.8001075677,-3.40041158491,0.0
1408129653039,-5.02298060086,11.3516872434,-4.85263235579,0.0
1408129653040,-3.870293819,13.2587591522,-4.94066813256,0.0
1408129653042,-2.03534644838,16.1401900621,-2.34804758453,16.1401900621
1408129653050,-0.764432774332,15.5261716893,1.13293098643,0.0
1408129653079,0.908068161161,14.0626532495,1.9485102697,0.0
1408129653080,1.89025230065,13.2282649143,1.47556921087,0.0
1408129653082,2.32070308987,12.4553414114,1.72579150354,0.0
1408129653112,3.26573056997,11.9367607737,1.3472738878,0.0
1408129653112,4.1354623793,11.0038897967,0.537317745124,0.0
1408129653114,4.41594271468,10.1615801173,0.237264592262,0.0
1408129653136,4.36048923382,8.77194155759,0.229682927613,0.0
1408129653136,4.02170661638,7.53627298276,-0.0898715327819,0.0
1408129653157,3.28246587501,6.78891331731,-0.11747255817,0.0
1408129653157,2.55046980549,6.51368211429,0.183227415668,0.0
1408129653161,1.77430093515,6.76446498693,0.530996732564,0.0
1408129653170,0.815198714625,7.44833295632,0.954478164867,0.0
1408129653183,0.0220584492247,8.57941781957,1.283858858,0.0
1408129653200,-0.309964446691,9.61281970335,1.32279154557,0.0
1408129653202,-0.283449531255,10.4092753424,1.38218295005,0.0
1408129653226,0.123295023641,10.632743793,1.5836535631,0.0
1408129653226,0.671880208805,10.4960068412,1.83342259551,0.0
1408129653231,1.28782576355,10.367649359,1.93939673747,0.0
1408129653273,1.70363543701,10.2102400942,1.70168742161,0.0
1408129653274,1.8930221928,9.85809963961,1.30864259682,0.0
1408129653275,1.88983289203,9.35748163801,0.939513800286,0.0
1408129653276,1.76069784332,8.83208093644,0.546054548288,0.0
1408129653283,1.58580531706,8.40104057138,0.134270615828,0.0
1408129653319,1.31667069327,7.80110296987,-0.176142219707,0.0
1408129653321,1.18904441049,7.36525976278,-0.236142748001,0.0
1408129653324,0.997129550184,7.18839040999,-0.181264061573,0.0
1408129653374,0.973725286564,7.01544913495,0.0762300261137,0.0
1408129653375,0.998849249492,6.93571961529,0.303109188707,0.0
1408129653375,0.893278847312,7.26512402139,0.406423490335,0.0
1408129653376,0.440838459953,7.84333910558,0.621456237118,0.0
1408129653376,0.0951177534448,8.20554974562,0.944621884495,0.0
1408129653376,-0.0712452800809,8.33915776985,0.827889324647,0.0
1408129653382,-0.460206376119,8.73320254359,0.541994376626,0.0
1408129653406,-0.661924188325,8.64055173768,0.0972627935975,0.0
1408129653406,-0.671237403008,8.30749002021,-0.193317172499,0.0
1408129653411,-0.584469392695,7.88495594813,-0.208022745242,0.0
1408129653454,-0.6277961456,7.61601934578,-0.37241791758,0.0
1408129653454,-0.71610051661,7.31700415629,-0.604420139315,0.0
1408129653455,-0.987307041686,7.09536100878,-0.693047115832,0.0
1408129653456,-1.47666823317,7.20469604522,-0.599754919467,0.0
1408129653464,-2.0137779694,7.41211784849,-0.262467328434,0.0
1408129653518,-2.48372696655,7.63357070843,-0.128366574601,0.0
1408129653518,-2.88548319391,8.07379203135,-0.178467689816,0.0
1408129653519,-3.13928158942,8.70863123058,-0.220454444332,0.0
1408129653521,-3.08606768929,9.22689969079,-0.427746693893,0.0
1408129653521,-2.81099041539,9.65228773836,-0.786596384752,0.0
1408129653555,-2.38859363512,9.83399227318,-1.02652127528,0.0
1408129653557,-1.65131093687,9.85524615902,-1.05505753674,0.0
1408129653558,-1.22212856356,9.56745739886,-0.820061110001,0.0
1408129653559,-1.34457000002,9.30661509826,-0.489749052552,0.0
1408129653563,-1.68431070049,9.22637054151,-0.308090080198,0.0
1408129653588,-2.15378549062,9.10236454086,-0.449001950297,0.0
1408129653589,-2.01974733306,9.02049067576,-0.4620512154,0.0
1408129653592,-1.31655135744,9.19353790595,-0.323399192223,0.0
1408129653627,-0.538934490606,9.82739525089,0.213818016001,0.0
1408129653628,-0.320458995866,11.1895143513,0.446814390488,0.0
1408129653628,-0.286530397091,12.1656056117,0.75485543973,0.0
1408129653632,-0.958519034041,11.5656935126,2.21177023233,0.0
1408129653664,-0.945075528372,11.6110926764,1.6001709582,0.0
1408129653665,-0.647018080711,11.1868478888,1.36462464196,0.0
1408129653666,0.227486542753,9.94481919471,1.90818854555,0.0
1408129653688,1.46210975094,8.84905226659,2.06997874958,0.0
1408129653689,2.51250543762,8.76814131025,1.26992660589,0.0
1408129653692,3.16238240398,10.6210723218,0.201794200161,0.0
1408129653703,2.82410371975,13.5307261995,-0.273468088698,0.0
1408129653724,1.73362376035,17.2380536667,0.0916723589816,0.0
1408129653725,1.4797466743,19.2133126666,0.907243073014,19.2133126666
1408129653731,1.84133864905,18.2873139171,0.945349171157,0.0
1408129653752,2.06219424962,16.3279548344,0.088017320495,0.0
1408129653753,2.02294540802,13.7505171132,-0.800334134709,0.0
1408129653767,1.99054670002,11.0724937668,-1.42251105208,0.0
1408129653783,2.79773084462,9.05014620918,-1.82477455297,0.0
1408129653785,3.00439118446,9.31796277314,-1.9784852674,0.0
1408129653803,2.37366212148,9.81384898991,-1.57273101642,0.0
1408129653803,1.2620023162,8.67543645136,-1.35564185078,0.0
1408129653825,0.465252136446,7.50310411167,-1.51806454325,0.0
1408129653825,-0.572795836004,7.66350542658,-1.73567534259,0.0
1408129653831,-1.78949345044,8.59329740008,-1.56190960066,0.0
1408129653866,-2.39679929637,9.01686840955,-0.829375473649,0.0
1408129653866,-2.51404008591,9.08035395758,-0.124479977751,0.0
1408129653866,-2.38880651015,8.84964687771,0.442306743035,0.0
1408129653883,-1.57588182507,7.38124721076,0.880871002912,0.0
1408129653884,-0.854729742834,5.86472606643,0.51160400665,0.0
1408129653902,-0.531266882307,4.91744764311,-0.279455372993,0.0
1408129653903,-0.464644484767,4.32505141748,-0.876376770318,0.0
1408129653913,-0.47544638846,4.09433220861,-1.24622375243,0.0
1408129653937,-0.477933301978,4.00430140978,-1.45791465808,0.0
1408129653938,-0.532877440216,4.18235171319,-1.56374217759,0.0
1408129653944,-0.52817708117,4.55489420417,-1.59208479407,0.0
1408129653951,-0.507443484278,4.98289375278,-1.53461009642,0.0
1408129653974,-0.513192749854,5.44605284219,-1.41859010764,0.0
1408129653975,-0.472646291705,6.04040239885,-1.25147432023,0.0
1408129653983,-0.554477312615,6.50648057684,-1.29583839629,0.0
1408129654010,-0.651593812312,6.72544287421,-1.64803531356,0.0
1408129654010,-0.924219391675,6.9819367732,-2.04020201688,0.0
1408129654012,-1.35037181946,7.63198674671,-2.27491015657,0.0
1408129654050,-1.64663356107,8.5959817759,-2.44010060801,0.0
1408129654050,-1.56039981809,9.39277291664,-2.18270545085,0.0
1408129654051,-1.19921336559,10.0738673376,-1.85758812784,0.0
1408129654053,-0.626318454257,10.5033037085,-1.86332589448,0.0
1408129654070,-0.167715339163,10.2931559658,-1.71781196255,0.0
1408129654072,0.408791837945,10.8168692997,-1.03937060264,0.0
1408129654084,1.27969620913,12.7847638483,-0.209428259475,0.0
1408129654100,1.06256328687,14.9942718055,0.553125299771,0.0
1408129654121,0.143216080643,15.1030617869,1.36820266857,0.0
1408129654121,-1.40710099784,13.351522506,0.537421664159,0.0
1408129654124,-2.92343232745,11.4913492394,-1.89525243019,0.0
1408129654132,-3.01092669581,11.4993798558,-5.52647678226,0.0
1408129654157,-1.1722848946,15.9439062351,-6.40010887843,0.0
1408129654158,0.190224358099,19.4167990591,-0.838669599267,19.4167990591
1408129654164,2.00035276021,16.3043898085,3.43644502829,0.0
1408129654190,2.96965545345,13.5703211021,2.50098835709,0.0
1408129654191,2.8150126917,11.4180104286,1.07651885425,0.0
1408129654192,2.86243892274,9.91995197821,0.347239628562,0.0
1408129654240,3.45780892584,9.65639088057,-1.11131127363,0.0
1408129654241,3.63951934702,9.83154938436,-0.33971718171,0.0
1408129654241,3.70555366633,8.8772008739,1.15120167059,0.0
1408129654242,3.5300685371,8.08488689447,1.45585191161,0.0
1408129654244,3.26076888044,7.85619195954,1.48069888846,0.0
1408129654296,2.91756868397,8.15021294416,2.10668202422,0.0
1408129654297,2.46611198584,8.63234890808,2.39982111602,0.0
1408129654298,1.64969406723,8.81940410749,2.11159241493,0.0
1408129654299,0.666811695772,8.95786093596,1.9322126243,0.0
1408129654301,0.0928390862496,9.50121862108,1.96253134335,0.0
1408129654328,0.0623094879824,9.78210529903,1.92265594445,0.0
1408129654329,0.134829406586,9.82865513263,1.52246840242,0.0
1408129654329,0.249630955851,9.80257107634,1.21631852404,0.0
1408129654332,0.753919610932,9.59831598078,1.18674183125,0.0
1408129654348,1.2016966949,9.4000963661,1.1898041736,0.0
1408129654365,1.65702107366,9.09421844519,1.32218909583,0.0
1408129654366,1.64830276515,8.91129647956,1.36887421457,0.0
1408129654381,1.85483012691,8.58626424925,1.40867515387,0.0
1408129654397,2.17385806282,8.27103419139,1.21319487456,0.0
1408129654397,2.32939119706,8.14330277903,0.972600476878,0.0
1408129654415,2.03731288527,8.03192111819,1.11191217534,0.0
1408129654415,1.63830582426,7.71838076157,1.11384215759,0.0
1408129654431,1.28526073888,7.15173311424,1.12392320449,0.0
1408129654432,0.921536089425,6.91069835022,1.08505359437,0.0
1408129654447,0.490874982303,7.00388318229,1.0788656156,0.0
1408129654462,0.254477631527,7.35638006816,1.0683617023,0.0
1408129654463,-0.212635311216,7.89475391183,1.0084498671,0.0
1408129654480,-0.996392998866,8.23537840264,0.918700960821,0.0
1408129654485,-1.48542749788,7.81969478386,0.625045391039,0.0
1408129654501,-1.88093375762,7.58315997759,0.307603947989,0.0
1408129654506,-1.9241901588,6.92178556865,-0.0151870911789,0.0
1408129654513,-1.98324214589,6.84894581374,-0.420616177032,0.0
1408129654538,-1.89769841894,7.10099575343,-0.775800114955,0.0
1408129654539,-1.59275848841,7.23203721144,-0.656221146316,0.0
1408129654544,-1.55376755413,7.71031290145,-0.177600394487,0.0
1408129654573,-1.84659304764,8.13751813133,0.198653499413,0.0
1408129654573,-2.17265535643,8.36922939335,0.232086202791,0.0
1408129654573,-2.5973331273,8.6866208132,-0.0341686240791,0.0
1408129654583,-2.86981577982,8.91260887124,-0.387529495891,0.0
1408129654601,-2.75117897979,8.95770880825,-1.16385856023,0.0
1408129654603,-2.57173306675,9.03210718775,-1.39718611265,0.0
1408129654613,-2.16712361572,9.09021712925,-1.30770100076,0.0
1408129654638,-2.18155861647,8.96437582279,-0.776051362136,0.0
1408129654638,-2.76476481007,8.85827391085,0.00293198349586,0.0
1408129654644,-3.52600757672,8.93365416628,0.169171978095,0.0
1408129654672,-3.7387261099,9.34997551356,-0.509140208902,0.0
1408129654673,-3.27145524359,9.95233402801,-0.988508051493,0.0
1408129654673,-2.1987087097,10.5100715131,-0.73446040897,0.0
1408129654702,-1.51540714091,11.1198333103,-0.0375502593872,0.0
1408129654702,-1.33166967729,12.0129403615,0.237042962875,0.0
1408129654703,-1.10717858253,12.8278908784,0.3969419198,0.0
1408129654713,-0.729837796159,12.1981927487,1.18746667083,0.0
1408129654740,-0.425054130657,10.8443427522,1.81218958702,0.0
1408129654742,-0.145697773358,10.3329734418,1.83442675379,0.0
1408129654744,0.21157110043,9.74793665839,2.31657825754,0.0
1408129654775,0.659962734922,8.44439110607,2.92361521625,0.0
1408129654775,1.57462912889,7.76558047387,2.7836116604,0.0
1408129654776,2.359680146,8.13254511085,2.22187089943,0.0
1408129654801,2.87613799218,9.68826527769,1.55749594685,0.0
1408129654801,2.77559475845,12.7957274176,0.780208115368,0.0
1408129654804,2.24305039508,16.8762562396,0.529918244763,0.0
1408129654814,2.21210045677,19.1077193708,1.52862436236,19.1077193708
1408129654839,2.94935279089,18.4328181525,1.97182353869,0.0
1408129654840,3.89587874104,16.5035020516,0.996731750552,0.0
1408129654844,4.05201648236,14.278747005,-0.229193903856,0.0
1408129654873,3.78630111922,11.8694011078,-1.14669539814,0.0
1408129654874,4.09066476291,10.3699561799,-1.38563322552,0.0
1408129654874,4.33901994979,10.6876281217,-0.496105133011,0.0
1408129654899,3.21330171864,10.9878792177,0.140572156453,0.0
1408129654900,2.16571738052,9.60244093258,-0.259700268463,0.0
1408129654917,1.27625079202,7.85683706302,-0.968528989118,0.0
1408129654917,0.179795920013,7.55979223907,-1.45934676258,0.0
1408129654924,-1.18080943466,8.01211466288,-1.65360244456,0.0
1408129654933,-2.05760385094,8.3689702869,-1.26501896095,0.0
1408129654953,-2.70602664521,8.74440541005,-0.485009500124,0.0
1408129654954,-3.0194245345,8.72635484871,0.139789175901,0.0
1408129654965,-2.45391848265,7.98238099877,0.418945475679,0.0
1408129654989,-1.52435238058,6.7814641576,0.323075763926,0.0
1408129654990,-0.893767482112,6.12554862963,-0.242660843296,0.0
1408129654993,-0.49773838391,5.37738061789,-0.715364645661,0.0
1408129655026,-0.436593618981,4.74267472195,-1.03027116382,0.0
1408129655027,-0.408933405198,4.51807017012,-1.26553478666,0.0
1408129655029,-0.411834497618,4.46637521246,-1.41017452497,0.0
1408129655061,-0.395944600278,4.80371266515,-1.56681208125,0.0
1408129655062,-0.40729242725,5.13164434721,-1.56525064189,0.0
1408129655063,-0.340521049305,5.4629820844,-1.38167628361,0.0
1408129655065,-0.299280815881,5.66844890586,-1.30816874669,0.0
1408129655087,-0.582462757346,6.02928747783,-1.65612996455,0.0
1408129655087,-0.698061221655,6.26364200041,-2.21102019118,0.0
1408129655093,-0.892490888281,6.72811488199,-2.59877165358,0.0
1408129655122,-1.22012191551,7.57093074023,-2.6374647065,0.0
1408129655122,-1.38337664265,8.68343675017,-2.46295361706,0.0
1408129655125,-1.19400919505,9.80791186818,-1.92762419468,0.0
1408129655159,-0.750702910863,10.390472222,-1.06974483484,0.0
1408129655159,-0.276229582456,10.2593171536,-0.588431374027,0.0
1408129655160,-0.078237213445,10.6529232693,-0.831615089185,0.0
1408129655166,0.131112691762,12.1524448186,-0.875959720908,0.0
1408129655180,-0.0500998077298,14.3756249289,-0.368452465702,0.0
1408129655197,-0.36109139429,15.8856697489,0.788552431301,0.0
1408129655197,-0.886404779529,15.0345420639,1.78210173963,0.0
1408129655215,-2.28736523506,12.9919079125,1.3620447784,0.0
1408129655216,-4.09964502632,11.076835354,-1.12209699426,0.0
1408129655229,-5.57141562675,10.4435257547,-4.14420955696,0.0
1408129655247,-4.93635768166,12.0669900417,-6.2747947979,0.0
1408129655247,-1.85317955066,17.0209678204,-5.15652686942,0.0
1408129655260,0.139375198674,19.0708007623,0.467434952512,19.0708007623
1408129655264,3.24545417131,14.9456228697,1.49805527439,0.0
1408129655277,4.63565175469,12.8079430471,1.72379815118,0.0
1408129655296,4.42490911962,12.0215005545,2.59824261299,0.0
1408129655296,5.05356137666,10.9073766661,2.25498699555,0.0
1408129655310,5.63303057732,10.8009723525,1.65251187704,0.0
1408129655313,5.23995727483,9.94139572113,2.72775728976,0.0
1408129655327,4.62039121196,8.46774870632,3.05663884381,0.0
1408129655344,4.2490459024,7.67630399144,2.20275812411,0.0
1408129655345,3.85724315774,7.46387532062,1.72799301102,0.0
1408129655359,3.40440258661,7.29476452801,1.43051302874,0.0
1408129655399,2.68107853837,6.78537192866,0.861681395596,0.0
1408129655400,1.36095438924,6.61511959714,0.218658213711,0.0
1408129655401,0.284156392385,7.08374419583,0.0154842161901,0.0
1408129655408,-0.319005822285,8.12687048618,-0.165724905247,0.0
1408129655409,-0.480854215809,9.14015462617,-0.0228292954017,0.0
1408129655457,-0.399057587585,9.55241340355,0.2319282721,0.0
1408129655458,-0.0102684941985,9.55051437557,0.646619676171,0.0
1408129655460,0.47013672642,9.56245147325,1.27806662885,0.0
1408129655461,0.832533243799,9.49429611612,1.92422331531,0.0
1408129655462,1.08915789721,9.31903670157,2.27565689762,0.0
1408129655492,1.22598253618,9.0702212559,2.22631511248,0.0
1408129655493,1.35018763945,8.5484201288,2.08159604008,0.0
1408129655494,1.51905125895,7.91959271252,1.82337783627,0.0
1408129655494,1.437288822,7.38343101575,1.43880124994,0.0
1408129655521,1.22437838967,6.78855719187,0.896294622393,0.0
1408129655521,0.966554964735,6.34249102569,0.441977120183,0.0
1408129655525,0.566474614596,6.15521947586,0.129938661129,0.0
1408129655547,0.0604958152427,6.44493367624,0.0933167007129,0.0
1408129655548,-0.553670894729,7.54984320155,0.407463953231,0.0
1408129655563,-0.547402023209,7.93657405163,0.738334855503,0.0
1408129655582,-0.766792523608,8.24829692921,0.854994513118,0.0
1408129655582,-1.32495098123,8.46857929667,0.676429109525,0.0
1408129655589,-1.81030523504,8.27042358671,0.468269173732,0.0
1408129655593,-2.04263930001,8.07210187562,0.120694025893,0.0
1408129655618,-2.06388161965,8.2665759451,-0.488822706851,0.0
1408129655619,-2.02955278399,8.45834225459,-0.573930642729,0.0
1408129655625,-2.02031280438,8.81037378871,-0.199622001482,0.0
1408129655652,-1.98462093481,8.99318962515,-0.0136383762153,0.0
1408129655653,-2.13407257221,8.89022555171,0.0745255135743,0.0
1408129655654,-2.39366847488,8.78131324382,0.209145461942,0.0
1408129655682,-2.5020382464,8.76511456584,0.275682722445,0.0
1408129655682,-2.46808278124,8.86752466017,0.219571727229,0.0
1408129655685,-2.55374496063,8.96302131217,-0.0859070924074,0.0
1408129655693,-2.42711971983,9.08395142054,-1.00982619467,0.0
1408129655716,-2.24271627044,8.82971605209,-1.58150363959,0.0
1408129655717,-1.65353720674,8.30624183187,-1.33072872235,0.0
1408129655725,-1.28367323768,8.33962639889,-0.860998429863,0.0
1408129655752,-1.76369525274,8.71929186554,0.0401594308503,0.0
1408129655752,-3.05718086565,8.98429399414,0.873482558128,0.0
1408129655753,-3.855409941,9.39197374636,0.68154135969,0.0
1408129655789,-3.48027891471,9.90771925495,-0.134904251082,0.0
1408129655790,-2.64339676139,10.3800135933,-0.361970188368,0.0
1408129655790,-2.12974728934,10.8362281764,-0.0174804311664,0.0
1408129655793,-1.77307128231,11.45255022,0.138669973419,0.0
1408129655820,-1.52268409006,11.8628351084,0.483130153266,0.0
1408129655820,-1.44192903911,11.2149947601,1.10546895851,0.0
1408129655825,-1.57063502851,10.1185347856,1.72751741124,0.0
1408129655846,-1.52565837524,9.83290820259,1.54672073698,0.0
1408129655846,-1.01407910128,10.1536961147,1.21700286761,0.0
1408129655856,0.00722236612549,9.54747381181,1.54907953242,0.0
1408129655882,1.30982224286,8.19812533775,1.5134096028,0.0
1408129655883,2.47882927231,7.653045491,1.29747392863,0.0
1408129655887,3.52354682908,8.68252838984,1.0249298482,0.0
1408129655893,3.8228248699,11.3786320291,0.29820193334,0.0
1408129655923,3.61821409329,15.8376033386,-0.406581660595,0.0
1408129655924,2.79511749181,19.69335033,0.429287972667,0.0
1408129655925,2.55463718292,20.3193123983,1.97620405833,20.3193123983
1408129655951,3.15788329871,18.7090470541,1.72815379689,0.0
1408129655952,3.23106969101,16.1152669802,0.478151614107,0.0
1408129655953,2.80841447411,12.9212926493,-0.964062628302,0.0
1408129655992,2.48009489822,11.1977975549,-1.84948262437,0.0
1408129655994,3.27210349002,10.7872989282,-1.46939207163,0.0
1408129655994,3.07948916451,10.7751934065,-0.826766027773,0.0
1408129655995,2.20636874381,10.2047395911,-0.581060440008,0.0
1408129656025,1.78928537005,8.56091428945,-0.921351588927,0.0
1408129656026,1.2446267144,7.62421555112,-1.23694969422,0.0
1408129656026,0.335831348704,7.57058869128,-1.2156474975,0.0
1408129656045,-0.624751930805,7.82148418246,-0.762996297744,0.0
1408129656046,-1.54722201402,8.12898761448,-0.298485960559,0.0
1408129656062,-2.07280376699,8.11128944151,-0.0228104817694,0.0
1408129656077,-1.65285616883,7.25788846676,0.101346274141,0.0
1408129656078,-1.05024939024,6.14587017627,-0.106915642891,0.0
1408129656094,-0.624483474681,5.38446037806,-0.510852880755,0.0
1408129656095,-0.475434285253,4.72457862793,-0.939787150497,0.0
1408129656106,-0.46924307086,4.38433633352,-1.14712439734,0.0
1408129656113,-0.349307776124,4.10344444497,-1.22067614179,0.0
1408129656127,-0.15699035384,3.97743157403,-1.38307028086,0.0
1408129656139,-0.137685477521,4.10885009692,-1.49378133577,0.0
1408129656144,-0.156906775143,4.30277274781,-1.42298840911,0.0
1408129656158,-0.294594180935,4.37241287556,-1.17580305683,0.0
1408129656186,-0.416014145799,4.47852214393,-0.980627129812,0.0
1408129656187,-0.626772525219,4.76280402618,-0.993282003156,0.0
1408129656187,-0.805847030639,5.21737429411,-1.26923166773,0.0
1408129656193,-0.921586723532,5.83671521096,-1.71768462175,0.0
1408129656219,-0.923407491688,6.61676672318,-2.04818012335,0.0
1408129656219,-1.02076550454,7.86789584579,-2.23810812186,0.0
1408129656225,-1.19173814021,9.44050228131,-2.26916879011,0.0
1408129656246,-1.28100223708,10.9239914232,-2.20411678554,0.0
1408129656246,-1.21440688378,11.6197051711,-2.06618180574,0.0
1408129656261,-0.816058867779,11.4970253861,-1.9927980674,0.0
1408129656276,-0.204792980621,12.1583858066,-1.4638567277,0.0
1408129656276,0.466567635698,14.4267973735,-0.457526797258,0.0
1408129656294,0.581178716158,16.4091334769,0.358902997764,0.0
1408129656295,0.187835959317,16.4638190315,1.20398822825,0.0
1408129656310,-0.986949656026,14.7353287243,1.04523251292,0.0
1408129656323,-3.02177629544,12.7711404499,-0.210196081892,0.0
1408129656325,-4.48368366443,10.8851097132,-2.24681596036,0.0
1408129656344,-5.16832597849,9.89031651173,-5.12386673548,0.0
1408129656345,-4.57611200811,10.7219230023,-7.87110635485,0.0
1408129656359,-2.4123672001,15.0375663758,-7.16643667344,0.0
1408129656376,-0.879027532079,19.1353731096,-1.21561275994,19.1353731096
1408129656376,2.0908183783,16.9854406945,2.6847774206,0.0
1408129656392,3.84801773789,14.3132107919,2.40811027992,0.0
1408129656393,3.77176378962,12.8765203221,2.36402702408,0.0
1408129656408,4.06715019358,11.05713627,2.83248006356,0.0
1408129656426,4.38791717974,9.72767328527,1.91694375873,0.0
1408129656427,4.55033396757,9.1753980361,1.36020935399,0.0
1408129656445,4.36020984533,7.92483392572,1.50261646487,0.0
1408129656446,4.13267041706,6.96569346144,1.09638937107,0.0
1408129656454,4.06572764265,6.61260952996,0.570302724592,0.0
1408129656481,3.90758163434,6.66691916612,0.837649752007,0.0
1408129656481,3.39321902176,7.03803894179,1.3935634845,0.0
1408129656488,2.28531931834,7.2568702314,1.5385234998,0.0
1408129656494,0.784762514951,7.41585753908,1.02806964175,0.0
1408129656516,-1.07674887987,8.74522867547,0.592304025935,0.0
1408129656517,-1.21591027534,9.25224333549,0.595078213082,0.0
1408129656525,-0.549707069218,9.23302359381,0.742530530814,0.0
1408129656546,0.208364685167,9.06481717078,0.972717501269,0.0
1408129656547,0.688495970873,9.04589208213,1.15615689669,0.0
1408129656554,0.954828828172,8.93440633249,1.37780540155,0.0
1408129656585,0.911044395709,8.77604368986,1.34216506733,0.0
1408129656586,0.846858308567,8.55886112963,1.28826959985,0.0
1408129656587,0.850259237023,8.36493016259,1.1451511322,0.0
1408129656594,0.87908083493,8.1398063677,1.07927424453,0.0
1408129656609,0.772321343465,8.09806494603,0.920025170424,0.0
1408129656631,0.609411443437,7.9209861743,0.808665294746,0.0
1408129656633,0.471477615079,7.48718528989,0.614196364106,0.0
1408129656634,0.232747286245,7.09091045196,0.369712759587,0.0
1408129656664,-0.181860875502,7.18694160321,0.266567534918,0.0
1408129656665,-0.559351890727,7.67283035634,0.579327244753,0.0
1408129656668,-0.910196534468,7.69645508852,1.03332964977,0.0
1408129656674,-1.05734175222,7.73727637384,1.20315378057,0.0
1408129656702,-1.3968685429,8.36928749333,0.876585292569,0.0
1408129656704,-1.78543728428,8.75497511949,0.517590426523,0.0
1408129656706,-1.81917797845,8.54473034183,0.231035348047,0.0
1408129656729,-2.08357157973,8.76361565522,-0.244054733682,0.0
1408129656730,-2.00470556415,9.01228187373,-0.399443878281,0.0
1408129656734,-1.98198765162,9.15420533721,0.0804254045446,0.0
1408129656766,-1.77074047466,9.16120066923,0.464454066354,0.0
1408129656767,-1.49125589828,8.88426199169,0.374488644439,0.0
1408129656767,-1.60616993252,8.56647694954,0.341015751013,0.0
1408129656774,-1.96443047808,8.46509128217,0.23146496188,0.0
1408129656796,-2.19203564402,8.35994127346,-0.087242437776,0.0
1408129656797,-2.19366852132,8.4451750759,-0.701405962066,0.0
1408129656806,-2.19929992497,8.61574389286,-1.31008681651,0.0
1408129656837,-1.87165839708,8.77398566285,-1.31613951184,0.0
1408129656838,-1.43336926816,8.70591602917,-1.1716466524,0.0
1408129656839,-1.42173397653,9.00917044605,-0.635068509779,0.0
1408129656870,-2.15134205584,9.156137225,0.161072866578,0.0
1408129656871,-3.41781592378,9.00299015213,0.353763522133,0.0
1408129656871,-3.70836341484,9.0011324246,-0.549193167586,0.0
1408129656874,-2.92334471562,9.44636721988,-1.12621277714,0.0
1408129656888,-1.72567328159,10.1561862318,-0.77281242333,0.0
1408129656909,-1.35068307943,11.1693416834,-0.145346756147,0.0
1408129656909,-1.31868119337,12.0447937128,0.174923170321,0.0
1408129656925,-1.24776552993,11.8239816532,0.647832361608,0.0
1408129656926,-1.45934130123,10.8425074113,1.36751272776,0.0
1408129656948,-1.74463350741,10.4967646098,1.12286053274,0.0
1408129656949,-1.62198452126,10.8145099994,0.727452838758,0.0
1408129656954,-0.934235125554,10.6066438924,1.5378846553,0.0
1408129656973,0.361450391116,9.67184896623,2.27914895273,0.0
1408129656974,1.65403290991,8.78415742199,2.35547661915,0.0
1408129656991,2.47319777385,8.86566999374,2.15206864432,0.0
1408129657005,2.9440281267,10.5545363107,1.38624642464,0.0
1408129657006,2.78134475383,14.2118933583,0.557175616665,0.0
1408129657022,2.89807489618,18.3844900306,0.596264803536,0.0
1408129657047,2.94147624311,20.3996708146,1.77574713629,20.3996708146
1408129657048,3.65015115506,19.1917950033,2.54304576943,0.0
1408129657048,4.36980714149,16.3327980135,1.55081625402,0.0
1408129657054,4.00921097536,13.2150630476,0.0231725759058,0.0
1408129657071,3.46215831386,10.2039255034,-1.33135580772,0.0
1408129657074,3.17776185151,7.94701466918,-2.03547696569,0.0
1408129657087,3.36025332348,8.16793084692,-1.67938585641,0.0
1408129657102,2.60781740491,8.91633112014,-1.44446306073,0.0
1408129657105,1.02905313344,8.75263650675,-1.51348961557,0.0
1408129657124,0.161326107635,7.36562994082,-1.59814731962,0.0
1408129657125,-0.96846286728,6.69972158373,-1.51453023328,0.0
1408129657145,-2.07931189412,7.3089703088,-1.19192844821,0.0
1408129657146,-2.52829212156,7.7647718145,-0.520537918815,0.0
1408129657154,-2.95113645458,8.29871246466,0.0301786743761,0.0
1408129657172,-2.85449041584,8.44648104362,0.270437647772,0.0
1408129657174,-2.21435938713,7.81666772431,0.424198989337,0.0
1408129657188,-1.2856485722,6.50067226703,0.247467834828,0.0
1408129657207,-0.75046821839,5.56858021553,-0.401713586447,0.0
1408129657208,-0.552219480879,5.13154413109,-0.921413901275,0.0
1408129657223,-0.290556222312,4.76536906901,-1.19970317273,0.0
1408129657225,-0.178106956322,4.54510708485,-1.4388851087,0.0
1408129657240,-0.219474717085,4.62538274746,-1.5787797336,0.0
1408129657258,-0.14492455145,4.8680010012,-1.46133608324,0.0
1408129657259,-0.0095555223494,4.9860060103,-1.29382856885,0.0
1408129657278,-0.0617529417166,5.12855620807,-1.1055360322,0.0
1408129657278,-0.318503417958,5.49159098781,-1.07455798927,0.0
1408129657286,-0.686400320665,5.98842359972,-1.29392322406,0.0
1408129657319,-1.00413243515,6.48602577229,-1.72223476209,0.0
1408129657319,-1.10280572708,6.93088820878,-2.19968835086,0.0
1408129657320,-1.2785995458,7.5235393392,-2.53111393785,0.0
1408129657345,-1.48039183499,8.59457237036,-2.71058498855,0.0
1408129657346,-1.50778946548,10.0376059156,-2.5895565823,0.0
1408129657346,-1.33690414863,11.2327472796,-2.03675316295,0.0
1408129657354,-1.20948744163,11.6651108273,-1.49373104019,0.0
1408129657384,-1.02626340482,11.2730093641,-1.34316021414,0.0
1408129657385,-0.667737724401,11.9250835543,-0.801516503278,0.0
1408129657389,0.0111781116902,13.6711131259,-0.161585306973,0.0
1408129657413,0.494499606532,15.0655336688,0.207889651164,0.0
1408129657415,0.122354822247,15.7040027552,0.881666430425,0.0
1408129657415,-0.919873249053,13.7099893379,0.515637664232,0.0
1408129657448,-2.63569665158,11.8215352401,-1.48209950118,0.0
1408129657448,-3.29706996018,11.486681025,-4.59290571905,0.0
1408129657449,-1.94958988465,14.4839170133,-6.95283227179,0.0
1408129657455,-0.758117996782,19.4007458996,-2.60855729962,19.4007458996
1408129657485,0.8414938048,18.5252807766,3.25863968314,0.0
1408129657487,2.92438235437,15.3248018631,4.1593096555,0.0
1408129657487,3.33106802569,13.0038156159,2.66403903868,0.0
1408129657516,3.04337741557,10.2998004415,2.06838899835,0.0
1408129657517,3.0787796074,8.2328624207,0.177773039481,0.0
1408129657517,3.34325641297,8.50058966516,-1.56277493637,0.0
1408129657541,3.42687587086,8.71564482443,-0.900724799143,0.0
1408129657542,3.21214749539,7.83697914643,0.385052256626,0.0
1408129657555,3.10640350682,7.21903848307,0.419723567523,0.0
1408129657555,2.99918899022,6.96843901898,0.585724985336,0.0
1408129657569,2.61596458539,7.16368622978,1.30216333531,0.0
1408129657575,1.98712085265,7.64746390941,1.98562401465,0.0
1408129657589,0.920829201656,8.46195376294,2.02729360965,0.0
1408129657606,-0.233895620582,9.23577855907,1.74830588294,0.0
1408129657606,-0.766403635459,9.83169840729,1.54731793983,0.0
1408129657623,-0.765343052496,9.69818297944,1.61116072675,0.0
1408129657639,-0.637501175872,9.36743915173,1.35800407015,0.0
1408129657640,-0.292898787444,8.84566207613,0.943230105582,0.0
1408129657654,0.288461577972,8.56635643255,0.634743538619,0.0
1408129657655,0.611767646904,8.27211314433,0.450759075223,0.0
1408129657669,0.988923004747,8.18957376352,0.688991726427,0.0
1408129657675,1.18752369732,7.86291062342,0.89090841269,0.0
1408129657687,0.904250732365,7.59955886706,0.884043234585,0.0
1408129657703,0.924645121174,7.31130865415,0.909352741463,0.0
1408129657706,0.889991537657,7.3132447687,0.718574591828,0.0
1408129657731,0.81615453718,7.64058058021,0.54916818557,0.0
1408129657732,0.758895631533,7.58432903636,0.559921795407,0.0
1408129657734,0.76187536977,7.38244490294,0.695982074877,0.0
1408129657768,0.54668980275,7.21322539983,0.847937394637,0.0
1408129657769,-0.0517645834324,7.18967937195,0.856870278912,0.0
1408129657769,-0.453755217218,7.32051392967,0.913368393679,0.0
1408129657774,-0.783422902105,7.61775410331,0.858319364229,0.0
1408129657788,-1.41020908332,8.39725064428,0.65475099785,0.0
1408129657803,-2.06712862603,9.13108011422,0.498901582127,0.0
1408129657827,-2.56365088643,9.34681599901,0.497192166454,0.0
1408129657827,-2.72926833052,8.95229025523,0.417564947511,0.0
1408129657827,-2.58434510355,8.58100946107,0.38784898216,0.0
1408129657834,-2.12841227857,8.39598747865,0.158531094131,0.0
1408129657859,-1.53449788949,8.27175934918,0.039839613054,0.0
1408129657860,-1.01199862771,8.27543632798,0.000118904572274,0.0
1408129657868,-0.881590304877,8.39897974034,0.0750834877871,0.0
1408129657875,-1.13187943102,8.38619380932,0.126351297077,0.0
1408129657897,-1.43344365746,8.39504029639,-0.128467902882,0.0
1408129657898,-1.63858972148,8.32087670894,-0.514711271451,0.0
1408129657907,-1.7574621819,8.38881062865,-0.692437803502,0.0
1408129657933,-1.33243266695,8.35329444015,-1.14339603111,0.0
1408129657933,-0.446369434082,9.04684909398,-0.567595073296,0.0
1408129657936,-0.901993101761,9.46718720417,0.286848611025,0.0
1408129657997,-1.76940970985,9.59622259749,0.847879743483,0.0
1408129657999,-2.75717786562,9.52807622372,0.69881284459,0.0
1408129658000,-3.13563507701,9.73085401061,0.0119612682507,0.0
1408129658001,-2.51086214575,10.2533441579,-0.625899528832,0.0
1408129658003,-1.94750885197,10.8771547501,-0.463993380869,0.0
1408129658005,-1.60110927476,11.6027280397,-0.324920819866,0.0
1408129658008,-1.03836626436,11.7467376754,-0.00652496743333,0.0
1408129658043,-0.975211458054,10.9893746277,0.833349957482,0.0
1408129658044,-1.42385213104,10.7086598933,1.31223236511,0.0
1408129658046,-1.738242826,11.3343770344,0.920914744992,0.0
1408129658048,-1.64037576909,12.01071917,1.36209225814,0.0
1408129658056,-0.892865304582,11.8285528656,2.23497029997,0.0
1408129658095,0.536840050648,10.6031274097,2.34533185025,0.0
1408129658095,1.88318999615,9.40367236928,2.31229327163,0.0
1408129658096,2.5687043103,9.16730232174,2.03781521956,0.0
1408129658097,2.8285192086,10.3000371389,1.10676956082,0.0
1408129658126,2.72771477894,12.9322881185,0.108358196873,0.0
1408129658127,2.32960663804,16.5492766263,0.23669326791,0.0
1408129658128,2.18810905693,18.5807053926,1.17340759971,18.5807053926
1408129658136,2.56952477233,18.0216075672,1.04188334492,0.0
1408129658165,2.7961317798,15.6884179901,-0.116871847428,0.0
1408129658166,2.49817207548,12.8716326709,-1.04292841889,0.0
1408129658170,2.31203638673,10.0566988979,-1.62234340399,0.0
1408129658189,2.0317658017,8.5521646077,-1.96822447626,0.0
1408129658197,2.21691799211,8.86092882841,-1.52925656681,0.0
1408129658214,2.01620206952,9.53796629678,-0.943342508252,0.0
1408129658215,1.35062438734,9.04282672634,-0.983327676246,0.0
1408129658216,0.530486878356,7.92312818633,-1.42090861147,0.0
1408129658256,-0.00477825094976,7.33306264483,-1.62716618714,0.0
1408129658256,-0.867041311977,7.76689268583,-1.31404612956,0.0
1408129658259,-1.77820625307,8.48591794852,-0.688074180317,0.0
1408129658259,-2.2153047986,8.60155198623,0.0513381221996,0.0
1408129658288,-2.28487167113,8.25739722239,0.422148424742,0.0
1408129658288,-2.01498203951,7.84617959333,0.489089391068,0.0
1408129658290,-1.46049962846,7.0835451081,0.394777238282,0.0
1408129658315,-0.759680232966,5.99580475544,0.151989868855,0.0
1408129658316,-0.409188182827,5.10629704606,-0.35704588094,0.0
1408129658316,-0.38160138705,4.75713731969,-0.85402438797,0.0
1408129658338,-0.389093901248,4.59310821397,-1.23759477538,0.0
1408129658338,-0.387777915978,4.5036378581,-1.5380706863,0.0
1408129658358,-0.211377412304,4.69278752844,-1.77487415419,0.0
1408129658358,-0.140763957974,5.22405764463,-1.92620465163,0.0
1408129658372,-0.0409679490554,5.48010244233,-1.85162870582,0.0
1408129658386,-0.118028199194,5.70048515172,-1.80264872089,0.0
1408129658387,-0.396021290286,6.07729935032,-1.86456949259,0.0
1408129658403,-0.785051869613,6.57072804029,-2.06400780959,0.0
1408129658421,-1.30662857116,6.99766688252,-2.09343392231,0.0
1408129658421,-1.7907715572,7.50316726781,-2.09498854861,0.0
1408129658440,-2.08507396648,8.11038048533,-2.24582221228,0.0
1408129658440,-2.16001562615,9.03872284385,-2.3089119731,0.0
1408129658447,-1.98931891282,10.1825911682,-1.78111129504,0.0
1408129658456,-1.46996159226,10.8558751689,-1.03596994962,0.0
1408129658472,-0.695207542367,10.9480356306,-1.1146247097,0.0
1408129658487,-0.0538565355042,11.2130422023,-1.61529796237,0.0
1408129658487,0.292594970135,12.7943856392,-1.17265313963,0.0
1408129658502,0.53879976868,13.9331232935,-0.256082777105,0.0
1408129658519,0.511419589835,15.3429180288,0.591610134469,0.0
1408129658519,-0.288418018959,14.4142284336,1.11928570528,0.0
1408129658534,-1.88330098469,11.7266506352,-0.126459788113,0.0
1408129658536,-2.9806768147,10.5426723691,-3.21936407925,0.0
1408129658553,-2.15971808786,12.7389326314,-6.63255225432,0.0
1408129658556,-0.631835010434,17.183206683,-4.23017563323,0.0
1408129658568,1.10732366576,17.7520530893,1.40566803847,17.7520530893
1408129658583,2.84220469967,14.7175231386,3.51822265547,0.0
1408129658588,3.59422395662,12.3974638875,1.5254779697,0.0
1408129658599,3.428156493,10.3054079018,0.577373922998,0.0
1408129658623,3.43492306045,8.93105246766,-0.859816840874,0.0
1408129658624,3.66615668652,8.98202446825,-1.77139452476,0.0
1408129658628,3.5394292959,9.43000176096,-0.498741522046,0.0
1408129658636,3.22627794093,8.50386334884,0.9155707453,0.0
1408129658655,2.67136950557,8.08206106403,1.01752390189,0.0
1408129658674,2.07931465994,8.19270924604,1.48891036566,0.0
1408129658675,1.43802360969,8.67442469916,2.33681169701,0.0
1408129658676,0.684863877226,9.24666009833,2.80547201781,0.0
1408129658688,-0.434918045631,9.86578309431,2.48121933077,0.0
1408129658711,-1.0660969108,10.1856165399,2.13357229243,0.0
1408129658711,-1.20617693408,10.5072634236,2.16364486255,0.0
1408129658716,-0.991185038472,10.4044671403,2.25065347299,0.0
1408129658735,-0.686468265988,9.57665031719,1.87773035705,0.0
1408129658736,-0.54169168105,9.05772211135,1.17783004916,0.0
1408129658752,0.0459087108606,8.66333687778,0.871685419627,0.0
1408129658772,0.71815711292,8.16585322922,0.805968888516,0.0
1408129658772,1.07826408794,7.85029442978,0.945764236401,0.0
1408129658790,1.35674568614,7.59178165577,1.081392296,0.0
1408129658790,1.7281617747,7.27154378565,1.0860954504,0.0
1408129658796,1.82407045627,7.05841522012,0.982783036674,0.0
1408129658823,1.59283566032,6.95944419312,0.845533797117,0.0
1408129658824,1.21392436379,7.00830731808,0.751689850964,0.0
1408129658830,0.90122647354,7.04069002826,0.713510464802,0.0
1408129658836,0.764787939761,7.15359585411,0.651612874227,0.0
1408129658860,0.560487472085,7.32480258768,0.766741805479,0.0
1408129658861,0.102161804738,7.82865486619,0.997776908391,0.0
1408129658868,-0.333201383205,7.94211687628,1.40511371577,0.0
1408129658894,-0.723071470883,8.05094016458,1.37410265841,0.0
1408129658895,-1.1717763458,8.55424854876,1.24738652817,0.0
1408129658896,-1.79792876421,8.71404604085,1.17579023104,0.0
1408129658927,-2.24111860165,8.61306459703,0.89437768472,0.0
1408129658928,-2.45766329904,8.82926100808,0.55490367508,0.0
1408129658929,-2.31174778587,8.9157035777,0.219151976268,0.0
1408129658937,-1.93918340739,8.69809242664,0.0245604868769,0.0
1408129658955,-1.67331407842,8.5295699468,0.0381708234181,0.0
1408129658976,-1.21343944745,8.1136964775,-0.239690288167,0.0
1408129658976,-1.33916980579,7.91721619946,-0.434334068847,0.0
1408129658977,-1.79453518709,7.81780485529,-0.563895224074,0.0
1408129658988,-2.18955585463,7.75762351741,-0.732001976465,0.0
1408129659009,-2.20122600464,7.82473776263,-0.883283947701,0.0
1408129659012,-2.12165254395,8.14678010142,-1.47740906421,0.0
1408129659016,-1.7324563351,8.43672877432,-0.99751986127,0.0
1408129659034,-1.31379630244,8.420554397,-0.571141317361,0.0
1408129659036,-0.949513867808,8.99094252639,0.0147073842281,0.0
1408129659051,-1.49484187558,9.37546437247,0.687169466135,0.0
1408129659073,-2.42457317654,9.22805369302,0.605701810789,0.0
1408129659074,-2.59385699159,9.8089404486,-0.188437793059,0.0
1408129659112,-2.09511607063,10.6555585929,-0.657721731273,0.0
1408129659112,-1.77786545128,11.1944260555,-0.613389120457,0.0
1408129659115,-1.81173722688,11.3272925285,-0.173953556722,0.0
1408129659115,-1.69457198579,11.7388333903,-0.164341598924,0.0
1408129659116,-1.31374475449,11.660019354,-0.108113204979,0.0
1408129659134,-1.10613032387,10.6612957552,0.416626514192,0.0
1408129659136,-1.2519299633,9.85203369823,0.65496226508,0.0
1408129659154,-1.12639993765,9.98522609773,0.423822590887,0.0
1408129659167,-0.698395137379,10.1716177586,1.22825116275,0.0
1408129659168,-0.012871048897,9.76249159308,2.31594665746,0.0
1408129659183,1.27885521306,9.06712727694,2.38045457793,0.0
1408129659206,2.40993800911,8.69754869271,2.18977767355,0.0
1408129659206,2.59296164666,9.2885250667,1.85540604659,0.0
1408129659208,2.24903921438,11.2406054395,1.3020442997,0.0
1408129659216,1.82574448917,14.7365557922,0.701386651383,0.0
1408129659242,1.66886479425,18.4531374344,0.418665213518,0.0
1408129659243,1.52498657468,19.8220828985,0.676938505922,19.8220828985
1408129659249,1.96224466329,18.6453460772,0.258226416844,0.0
1408129659275,2.27439259141,16.3382663559,-0.309603937562,0.0
1408129659275,2.57833814371,13.4227133792,-0.718662332065,0.0
1408129659276,2.6381914091,11.0556039843,-1.38416685856,0.0
1408129659305,3.29485365754,9.96433998153,-1.1544536333,0.0
1408129659306,3.24849982367,10.3505540108,-0.15881420553,0.0
1408129659308,2.54380174589,10.0777366817,0.269447847224,0.0
1408129659316,2.01438618482,8.53388283337,-0.232477760689,0.0
1408129659339,1.25142836846,7.68835460054,-0.910272007831,0.0
1408129659340,0.119174568507,7.66120447833,-1.07768525635,0.0
1408129659348,-2.08782800142,7.80728765381,-0.448161937233,0.0
1408129659373,-2.66348479692,7.95059647903,0.16661772064,0.0
1408129659374,-2.55671980103,7.28461147509,0.386785757423,0.0
1408129659377,-1.9866621085,6.84305980791,0.428951090085,0.0
1408129659406,-1.05583755285,5.91697290347,0.353004696227,0.0
1408129659407,-0.43403196228,4.74989235984,-0.0491371443156,0.0
1408129659408,-0.205797482071,4.06633454032,-0.538673519953,0.0
1408129659416,-0.263922944111,3.80565130026,-0.949302311284,0.0
1408129659437,-0.351359593368,3.79338249947,-1.28880416403,0.0
1408129659438,-0.293056710843,3.82353676364,-1.48827283812,0.0
1408129659448,-0.242222872298,4.02588984035,-1.50422400096,0.0
1408129659482,-0.211889175905,4.34002837978,-1.42048647579,0.0
1408129659483,-0.277177095553,4.77842245903,-1.28362328826,0.0
1408129659484,-0.278136456176,5.19129081345,-1.10153810271,0.0
1408129659518,-0.282893081121,5.64355018569,-1.13145488378,0.0
1408129659519,-0.463103313031,6.16466180487,-1.47392041085,0.0
1408129659520,-0.87053997294,6.77891482762,-1.94322420619,0.0
1408129659521,-1.30709059308,7.64403074073,-2.19261804627,0.0
1408129659546,-1.66239245395,8.69897499029,-2.35767485862,0.0
1408129659547,-1.85616055472,9.93402342204,-2.27408988383,0.0
1408129659551,-1.76192863163,11.0023812974,-1.80281738045,0.0
1408129659580,-1.51157979516,11.4797942684,-1.18274136558,0.0
1408129659580,-0.995438180693,11.1255593711,-1.11881882658,0.0
1408129659581,-0.493354486415,11.3359940142,-0.939017293688,0.0
1408129659605,0.218049860592,13.2663342795,-0.241483329319,0.0
1408129659610,0.573452650254,14.7219560487,0.310826915332,0.0
1408129659610,-0.0430204407449,15.8693237469,1.00655710296,0.0
1408129659617,-1.72039625497,14.5998784274,1.12096631864,0.0
1408129659648,-3.52661758795,12.2213829663,-0.372663095586,0.0
1408129659649,-4.66857907676,10.5869522854,-3.01543060029,0.0
1408129659650,-4.34853608874,11.2785484759,-6.59639371795,0.0
1408129659676,-2.15792398327,16.1473656134,-7.0418235605,0.0
1408129659676,-0.973337546486,20.344498841,-1.17988123743,20.344498841
1408129659677,1.52426813027,17.1984360161,3.05019631454,0.0
1408129659709,3.72187380955,14.2027886353,3.06033998991,0.0
1408129659710,3.83503004568,12.3720684477,1.74727450942,0.0
1408129659711,3.88335269022,10.2179653171,0.887295197259,0.0
1408129659717,3.9938366734,9.41842680528,-0.272187777206,0.0
1408129659734,4.1566762728,9.62801296956,-0.296118882867,0.0
1408129659751,3.90238924645,8.66769009212,1.08029081139,0.0
1408129659752,3.53734857353,7.87736386033,1.25373672628,0.0
1408129659768,3.12803933305,7.72113556489,1.04905054131,0.0
1408129659768,2.5589695808,7.94274748017,1.61324199273,0.0
1408129659782,1.80940384398,8.38202999795,2.13466919595,0.0
1408129659799,0.938585033538,8.38312417324,2.03160408516,0.0
1408129659799,0.0927389242524,8.50589581543,1.6964741095,0.0
1408129659816,-0.103599142762,8.87761125655,1.45338664433,0.0
1408129659817,-0.364982990383,9.36195357786,1.23725767775,0.0
1408129659830,-0.295507018661,9.19462998124,0.936173381604,0.0
1408129659847,0.162333246271,8.69605147097,0.558179836042,0.0
1408129659851,0.779467474895,8.16765158915,0.29911551416,0.0
1408129659865,1.27304044889,7.81859167696,0.207801687124,0.0
1408129659869,1.46812392723,7.71140110249,0.499086355108,0.0
1408129659887,1.45768884287,7.6622582717,0.882851499797,0.0
1408129659889,1.54149525373,7.66805673031,1.15497384175,0.0
1408129659897,1.58854173992,7.63470376424,1.24744470681,0.0
1408129659921,1.65415884228,7.50410581844,1.22454003086,0.0
1408129659922,1.53068179951,7.6176470388,0.995290774924,0.0
1408129659929,1.38087334689,7.70586743454,0.890533811491,0.0
1408129659957,1.29640879184,7.55564476108,0.876889393535,0.0
1408129659957,1.12923229026,7.45340538196,0.920866141712,0.0
1408129659958,0.685314922887,7.63019525901,1.2137594301,0.0
1408129659985,-0.0637663423195,7.87168029091,1.40099438719,0.0
1408129659986,-0.732328283001,7.77193415095,1.47747047168,0.0
1408129660005,-1.0955547695,7.93082363788,1.0779522154,0.0
1408129660006,-1.7173044905,8.25899388834,0.507037658454,0.0
1408129660009,-2.23728124304,8.26064164807,0.291990656156,0.0
1408129660017,-2.71270666693,8.24865013355,0.148726460875,0.0
1408129660034,-2.85071818658,8.08374181898,-0.0965466915813,0.0
1408129660051,-2.85416393895,8.09616973132,-0.12519423274,0.0
1408129660051,-2.83400409376,8.21830734651,-0.0617778794899,0.0
1408129660065,-2.59398074287,8.2646520857,-0.0752129176887,0.0
1408129660079,-2.29619437429,8.47741954634,-0.10846363394,0.0
1408129660080,-2.12236450726,8.6398308945,-0.00464044054088,0.0
1408129660096,-2.20494175481,8.86536932792,-0.0400131127648,0.0
1408129660097,-2.12687139781,8.97560430749,-0.380607412945,0.0
1408129660114,-2.05570725043,9.06694076141,-0.850276134395,0.0
1408129660117,-1.84754579913,9.35740471739,-0.858950160927,0.0
1408129660129,-1.38284838905,9.4033736657,-0.551576648949,0.0
1408129660147,-1.31930317646,8.85272505599,-0.0986324747179,0.0
1408129660151,-1.93740589985,8.14419156605,0.205747234076,0.0
1408129660163,-2.89509700027,7.87776384857,-0.303486553368,0.0
1408129660187,-3.36574581276,8.21438667203,-0.987311710369,0.0
1408129660187,-2.86339686647,9.00016628761,-1.00486191317,0.0
1408129660189,-1.70890296731,9.92369370042,-0.32621386198,0.0
1408129660197,-1.17457433189,11.077703465,0.364444385876,0.0
1408129660222,-1.02722601344,12.2367463042,0.366738595276,0.0
1408129660223,-0.977452523794,12.1393163721,0.84488013271,0.0
1408129660229,-1.4545548467,11.2107359063,1.28834796164,0.0
1408129660258,-1.92168042857,10.9156857052,0.80995583423,0.0
1408129660259,-1.75220873679,10.989104605,1.1234678356,0.0
1408129660260,-1.18992830928,10.7855595975,2.15962723951,0.0
1408129660287,-0.386394383373,10.270872852,2.44992129884,0.0
1408129660288,1.04541492385,9.48570841914,1.82882293177,0.0
1408129660289,2.11234387615,8.92348412411,1.64006577472,0.0
1408129660297,2.55773121962,9.55802948139,1.73951782894,0.0
1408129660320,2.89001359438,12.0382649771,1.49537500819,0.0
1408129660320,2.80113802413,15.9689353673,1.30989369585,0.0
1408129660330,2.67425910422,18.9260268483,1.73350470833,0.0
1408129660357,2.97838894394,18.9898755846,1.7406335289,18.9898755846
1408129660358,3.42721091514,17.1132422462,0.991757400575,0.0
1408129660359,3.50165396739,14.63519421,0.180748350291,0.0
1408129660382,3.47386276407,12.1018794081,-0.520077902481,0.0
1408129660383,3.23567180946,10.5447796361,-1.26206713142,0.0
1408129660401,3.35121073743,10.2265390599,-1.26913676412,0.0
1408129660402,2.98854031093,10.5045195305,-0.943249310141,0.0
1408129660409,2.09764459991,9.74190839458,-0.961145880908,0.0
1408129660417,1.1887109098,8.31355836996,-1.24236007275,0.0
1408129660436,0.0950347971439,7.59052860367,-1.44150524653,0.0
1408129660437,-1.02660354682,7.77258199158,-1.37412624056,0.0
1408129660473,-1.82973264329,7.92434677146,-1.08319723762,0.0
1408129660474,-2.4687151444,7.82192089787,-0.589814315925,0.0
1408129660474,-2.72064326894,7.37777379047,-0.255599109845,0.0
1408129660478,-2.42071455472,6.85834961463,-0.104784343423,0.0
1408129660504,-2.05081577726,6.31614223711,-0.263235754103,0.0
1408129660505,-1.38630018905,5.34744990916,-0.5411667631,0.0
1408129660510,-0.90156092877,4.64571913731,-0.900987848319,0.0
1408129660534,-0.549824529291,4.03201579999,-1.18385087073,0.0
1408129660535,-0.459269637585,3.77859493825,-1.4229622884,0.0
1408129660538,-0.307672896006,3.84493896993,-1.57163885063,0.0
1408129660549,-0.291344307411,4.23680886662,-1.56311138089,0.0
1408129660574,-0.316312010256,4.74680998525,-1.31486331956,0.0
1408129660575,-0.161530567284,5.20023643054,-1.08203858369,0.0
1408129660578,0.00890385602798,5.4526650922,-1.09499927266,0.0
1408129660608,-0.116930076961,5.8850553205,-1.3166728146,0.0
1408129660608,-0.346640977553,6.41403103395,-1.64384289156,0.0
1408129660609,-0.573302806656,7.01259557238,-2.02295287366,0.0
1408129660640,-0.871790513551,7.67576107099,-2.34542016492,0.0
1408129660641,-1.38816542672,8.56948554342,-2.36145441927,0.0
1408129660641,-1.94173923962,9.8198325556,-2.12198805017,0.0
1408129660649,-2.22568069751,11.0436265304,-1.70004954333,0.0
1408129660678,-2.22004835444,11.7159990135,-1.00346359192,0.0
1408129660678,-1.8524910771,11.590052321,-0.538601402618,0.0
1408129660679,-1.51995438734,11.3862434398,-0.689929620057,0.0
1408129660702,-1.09430505278,12.5352334114,-0.370602409413,0.0
1408129660702,-0.320336395715,14.2282243759,0.185270576717,0.0
1408129660709,-0.0809354553758,15.7862054987,0.864023697122,0.0
1408129660731,-0.690483750214,15.1741140453,1.18085847743,0.0
1408129660731,-2.28455361064,12.7386123928,0.066864523443,0.0
1408129660748,-3.73915745004,10.9520635453,-2.3417151152,0.0
1408129660750,-3.69252316455,11.2234415676,-5.86981642789,0.0
1408129660764,-1.64965817182,15.3590373839,-7.12272610693,0.0
1408129660779,-0.254062176926,19.868273425,-1.24087041744,19.868273425
1408129660780,2.38198161864,17.0443605141,3.58434335277,0.0
1408129660797,3.96488848622,13.6199414269,3.67049614539,0.0
1408129660798,3.9697364396,9.30581221041,0.601305761351,0.0
1408129660813,4.26213505629,8.41118594666,-0.824734233647,0.0
1408129660828,4.22622547483,9.22140524401,-0.586032746808,0.0
1408129660829,3.74860166589,8.95290071544,1.57679945343,0.0
1408129660848,3.38490154488,8.63807016584,2.12935225046,0.0
1408129660849,3.15068716284,8.76107952336,1.93570088764,0.0
1408129660859,2.47675485748,8.85161317735,2.50019171593,0.0
1408129660877,1.46967976202,8.97811001774,2.65958537687,0.0
1408129660878,0.364495403762,8.95872048211,1.92790318609,0.0
1408129660894,-0.342936394002,8.90723216184,1.31747038891,0.0
1408129660898,-0.571201661091,9.03115347834,0.979321695392,0.0
1408129660914,-0.576833228979,9.16404259834,0.693266137738,0.0
1408129660932,-0.513148237926,9.03993053772,0.396553777131,0.0
1408129660933,-0.0215906824772,8.71840231799,0.298470563724,0.0
1408129660953,0.812209419803,8.30741099688,0.44732760883,0.0
1408129660954,1.55390831334,7.79195122669,0.712229330283,0.0
1408129660958,2.11917586303,7.60625362687,1.10378370399,0.0
1408129660980,2.18546734665,7.57205549994,1.30309282237,0.0
1408129660981,2.2534832138,7.62619546011,1.28892395662,0.0
1408129660994,2.27201077103,7.82398814009,1.14338902623,0.0
1408129660998,2.13571315401,7.7826279767,1.05019019373,0.0
1408129661012,1.90569425438,7.92151429832,0.999957461829,0.0
1408129661034,1.59443037915,7.98266894733,1.10887784438,0.0
1408129661035,1.38819602424,7.41537035522,1.17766045255,0.0
1408129661038,1.14966001199,6.87915533071,1.09904179829,0.0
1408129661063,0.569171478412,6.88423939238,1.0359359875,0.0
1408129661064,-0.143528238037,7.27875519827,1.08860202076,0.0
1408129661087,-0.602924438336,7.72692042858,1.11530055375,0.0
1408129661088,-1.03858403433,8.09316681276,0.981774857094,0.0
1408129661090,-1.51719926404,7.92628233074,0.697669651697,0.0
1408129661098,-1.85377273145,7.40664856154,0.447691456542,0.0
1408129661121,-1.97771991668,6.9197093145,-0.030213003938,0.0
1408129661122,-1.87821152855,6.77773284728,-0.762105082495,0.0
1408129661130,-1.85270030422,7.00786665081,-0.995271775897,0.0
1408129661154,-1.96715770642,7.56640606061,-0.590105482488,0.0
1408129661155,-2.13160916201,8.28538195728,-0.0632110623862,0.0
1408129661158,-2.24904366611,8.7388995708,0.37098545147,0.0
1408129661187,-2.59152846156,8.99254097479,0.769148523275,0.0
1408129661187,-2.69385177961,8.97506178725,1.08546015861,0.0
1408129661190,-2.91692961329,9.16099643768,1.00717993278,0.0
1408129661198,-3.11297018077,9.15040135759,0.411147886177,0.0
1408129661217,-3.271985793,9.34606105787,-0.840667109069,0.0
1408129661218,-3.08442686793,10.0099084325,-1.14429309947,0.0
1408129661232,-2.37177587995,10.0977107799,-1.11366790861,0.0
1408129661253,-2.17134193681,9.7300643359,-0.494456278689,0.0
1408129661254,-2.39418553643,9.77279302225,0.249289324665,0.0
1408129661258,-3.56695354863,9.51181990351,0.318064176921,0.0
1408129661288,-3.6290188743,9.67448802525,-0.646482938313,0.0
1408129661288,-2.2874598959,10.2584961312,-1.33596621919,0.0
1408129661292,-1.16017794144,10.7612676202,-0.942350441763,0.0
1408129661298,-1.07084370908,11.3803368747,-0.192088072429,0.0
1408129661316,-0.800441748199,12.0523524595,0.462962458021,0.0
1408129661318,-0.593031391955,11.8264630664,1.25448107659,0.0
1408129661330,-1.03482036948,11.0184864674,2.02538132567,0.0
1408129661350,-1.19597957348,10.4756244155,1.95151108173,0.0
1408129661353,-0.876649887018,9.82764867086,2.16319339461,0.0
1408129661358,0.16655458215,8.49678864041,2.52241887347,0.0
1408129661388,1.12330420199,7.51747082266,2.38525339155,0.0
1408129661390,1.80086750961,7.7928634536,1.37807432385,0.0
1408129661391,1.92564355041,9.7890261734,0.259108924589,0.0
1408129661399,1.75651109554,13.6613455896,-0.573014237525,0.0
1408129661432,1.58698309603,18.4032199778,-0.200497291081,0.0
1408129661433,1.93011004536,20.6731710802,1.04579935854,20.6731710802
1408129661434,3.01847399998,19.167743237,1.27626156499,0.0
1408129661469,3.5812273357,16.1639710583,0.308696883901,0.0
1408129661469,3.56587039454,12.8950584411,-0.334298210725,0.0
1408129661470,3.14324429082,10.2040936617,-1.09730622824,0.0
1408129661471,3.15436217762,9.48072298155,-1.26142936483,0.0
1408129661479,2.80762890158,10.3248961711,-0.311109456009,0.0
1408129661498,1.82326644359,10.4481523082,0.209348441254,0.0
1408129661499,1.16456484053,9.35394884762,-0.217158131987,0.0
1408129661513,0.642513389493,8.13015680442,-0.934520980004,0.0
1408129661531,-0.0772827414462,7.60192366649,-1.46774383451,0.0
1408129661545,-0.654922429145,7.52876315833,-1.42386093315,0.0
1408129661546,-0.999873734406,7.61815086541,-0.90507445189,0.0
1408129661567,-1.55267159011,8.0753169655,-0.384131961808,0.0
1408129661568,-1.7791171112,8.39435630347,0.197089201606,0.0
1408129661570,-1.18993516091,7.47304416899,0.686451799281,0.0
1408129661579,-0.473472061229,6.34197753255,0.697133564038,0.0
1408129661603,-0.217831374962,5.59937853762,0.125345334706,0.0
1408129661603,-0.0363767591551,5.16371211568,-0.505156153991,0.0
1408129661610,0.011555476236,4.63476470977,-0.942111656281,0.0
1408129661633,0.0622259783493,4.28822996703,-1.40445622153,0.0
1408129661633,0.0956885084769,4.17010307962,-1.7037414627,0.0
1408129661639,0.147335888036,4.11511516596,-1.77522736943,0.0
1408129661665,-0.208152432026,4.15177848682,-1.65810240907,0.0
1408129661666,-0.723731504898,4.30041502164,-1.40791809888,0.0
1408129661671,-1.13214487979,4.63632800798,-1.24680901584,0.0
1408129661679,-1.51014598364,5.05424047518,-1.36770689331,0.0
1408129661700,-1.74579449253,5.66152156386,-1.65637445557,0.0
1408129661701,-1.79652985336,6.40529073,-1.84236105797,0.0
1408129661734,-1.91740637787,7.46453714086,-1.98798538537,0.0
1408129661735,-1.99191880187,8.86229069023,-2.05412749054,0.0
1408129661736,-1.90348199196,10.3070634885,-1.85778812595,0.0
1408129661739,-1.54415300908,11.2622408755,-1.34909334178,0.0
1408129661771,-1.23275163264,11.5519364777,-0.932487754311,0.0
1408129661772,-0.852123847354,11.3000393852,-0.781871982693,0.0
1408129661772,-0.734284774853,12.5491553236,0.0369943030803,0.0
1408129661779,-0.322972320384,14.5632108006,0.978011457311,0.0
1408129661801,-0.167744731869,16.0924720288,1.68560081263,0.0
1408129661802,-0.533138530991,14.6940135018,1.53256384572,0.0
1408129661811,-2.097585869,12.1704447578,-0.0360075559412,0.0
1408129661831,-3.34995319813,10.6336971651,-2.62959131657,0.0
1408129661852,-2.62380844108,11.0905687429,-6.52556730502,0.0
1408129661853,0.00453474088999,15.1939537409,-6.21319229145,0.0
1408129661853,0.655868069806,19.6024208856,0.192858020032,19.6024208856
1408129661859,2.32268655676,17.1072571893,2.90606862777,0.0
1408129661882,3.28276785109,14.0326324896,2.23285772054,0.0
1408129661882,3.44831276682,11.4260710125,0.138887669878,0.0
1408129661893,3.50349744427,9.854400013,-0.705676870711,0.0
1408129661916,3.68388776246,10.4268054453,-0.955259392648,0.0
1408129661916,3.37723680187,10.5235030335,0.641952822237,0.0
1408129661919,2.94818425069,9.942158732,2.41870070948,0.0
1408129661950,2.90796669515,9.86429151871,2.85917280858,0.0
1408129661951,2.89032129715,9.58766348568,3.23683368686,0.0
1408129661952,2.63208506222,9.15615089263,3.2748436186,0.0
1408129661959,2.01725360895,9.00909904029,2.55086792347,0.0
1408129661986,1.19263769329,8.89678796929,1.54827362913,0.0
1408129661986,0.249468431944,9.21150995414,0.83195726929,0.0
1408129661992,-0.231392782262,9.47291448926,0.58095813273,0.0
1408129662016,-0.148609496082,9.42135853961,0.62677262576,0.0
1408129662017,0.102732137996,9.28218719921,0.535409650056,0.0
1408129662019,0.336225998384,9.09653245762,0.448963399244,0.0
1408129662051,0.688132704172,8.51072093186,0.526280343432,0.0
1408129662052,1.00912168479,7.76811226668,0.578254631296,0.0
1408129662053,1.15732045988,6.98026165389,0.728994952547,0.0
1408129662059,1.26110553863,6.8379441137,0.837440928275,0.0
1408129662092,1.36150099071,7.24976215029,0.953019206231,0.0
1408129662093,1.47489095572,7.57977269577,0.870555604378,0.0
1408129662093,1.35084897473,7.68143562041,1.01510120591,0.0
1408129662112,0.839734479331,7.72500225211,1.08707361281,0.0
1408129662114,0.539684035731,7.79033378695,1.05578771582,0.0
1408129662126,0.234304445373,7.65007135057,1.06192867336,0.0
1408129662144,0.167443760939,7.2508926148,1.03901576589,0.0
1408129662144,0.210574344584,7.299882125,1.00496048085,0.0
1408129662160,-0.276244692555,7.31733479368,1.20305287879,0.0
1408129662160,-0.650692113464,7.46651555651,1.30549926261,0.0
1408129662175,-1.19670602021,7.9555916161,0.954165822285,0.0
1408129662179,-1.5825486664,8.32492950348,0.441344169348,0.0
1408129662197,-1.88423410858,8.37548768735,0.0529893825059,0.0
1408129662202,-2.09933512492,8.51511798258,-0.248937845579,0.0
1408129662210,-2.02430910785,8.66007753428,-0.511837691126,0.0
1408129662228,-1.77889892612,8.64955206278,-0.562775162514,0.0
1408129662245,-1.20377877555,8.49897934992,0.139120669705,0.0
1408129662245,-1.29254755805,8.28473942251,0.0836889836182,0.0
1408129662262,-1.93441315956,8.21767483792,-3.69636717539e-05,0.0
1408129662262,-2.58898823693,8.28177457128,-0.247580086933,0.0
1408129662278,-3.05298247887,8.53195211928,-1.00742396399,0.0
1408129662279,-3.18426637135,8.71870012938,-1.43751334497,0.0
1408129662293,-2.69598164285,8.66534206897,-1.27918728503,0.0
1408129662309,-1.79200841176,8.89502879473,-0.778213883146,0.0
1408129662335,-1.19395043819,9.56434829492,0.0112772582344,0.0
1408129662335,-1.76360540579,9.64354036104,0.96230094978,0.0
1408129662335,-2.76616247069,9.48051919345,1.06369918313,0.0
1408129662339,-3.20642186484,9.57979868911,0.231933218827,0.0
1408129662359,-2.85303715732,9.85627880745,-0.369454496054,0.0
1408129662359,-2.18792087357,9.99650222062,-0.232789120137,0.0
1408129662397,-1.80477797871,10.3948667047,0.319251224126,0.0
1408129662398,-1.24660957072,11.1209236331,0.482656143899,0.0
1408129662409,-0.533247662177,10.8757609877,0.901394425473,0.0
1408129662453,-0.539072699314,9.7730625591,1.88539567286,0.0
1408129662454,-0.951309871364,9.38541241808,2.30156240145,0.0
1408129662455,-0.792477379953,9.60820733331,1.75466318582,0.0
1408129662456,-0.177484269342,9.24939867631,1.92663678049,0.0
1408129662457,0.903490214817,8.35688769781,1.90501431248,0.0
1408129662458,2.10364672274,8.16473544077,1.52341709756,0.0
1408129662460,2.70812619293,9.26045081954,1.0911796321,0.0
1408129662491,2.76722652777,11.886918288,0.138399567728,0.0
1408129662492,2.39091469672,16.2384757082,-0.749376658989,0.0
1408129662493,1.93961179158,20.2557567659,0.275644209934,0.0
1408129662520,2.08919365932,20.6085541599,1.87487590103,20.6085541599
1408129662521,2.82486441562,18.4365495001,1.47169993027,0.0
1408129662521,2.98336495362,15.6752803038,0.104718237647,0.0
1408129662548,3.01876458293,12.8758279726,-0.766778278267,0.0
1408129662549,2.81987307199,10.6245896922,-1.26450058909,0.0
1408129662552,2.63230993103,9.67771936048,-1.14489320781,0.0
1408129662560,2.48359239905,9.91434835232,-0.610714722865,0.0
1408129662588,1.96265081053,9.88378368475,-0.499729314808,0.0
1408129662588,1.30339456501,8.59375698248,-1.14937056097,0.0
1408129662593,0.718531750204,7.1804983576,-1.86480165778,0.0
1408129662616,-0.445698211104,7.19642213326,-2.18831999196,0.0
1408129662617,-1.32683822352,7.32371812091,-1.77541322184,0.0
1408129662620,-1.7655579704,7.49912091792,-1.11774099572,0.0
1408129662644,-2.55605625657,8.18054559843,-0.714025203394,0.0
1408129662644,-2.15144130952,8.03337419019,-0.321043633994,0.0
1408129662661,-1.02579879677,6.56602986646,-0.181636463127,0.0
1408129662662,-0.665871433402,5.78790795467,-0.547153100524,0.0
1408129662674,-0.485354655383,5.14094926271,-0.896806176659,0.0
1408129662693,-0.330995277313,4.659230088,-1.18586655378,0.0
1408129662694,-0.174543255488,4.36113681094,-1.39236992838,0.0
1408129662709,-0.166939289824,4.16345377461,-1.46414745493,0.0
1408129662711,-0.209373086062,4.38572924083,-1.47233481364,0.0
1408129662722,-0.211627958122,4.64637000496,-1.39157415196,0.0
1408129662738,-0.279090235582,4.74652808014,-1.27299827282,0.0
1408129662739,-0.397844977852,4.91140569488,-1.13255760154,0.0
1408129662759,-0.602295633639,5.30282924378,-1.09681613196,0.0
1408129662760,-0.898269033126,5.88474430161,-1.29801163948,0.0
1408129662773,-1.35972696963,6.67848277113,-1.73974954864,0.0
1408129662791,-1.7856370877,7.44249260861,-2.2814316455,0.0
1408129662808,-2.01015934741,8.18650279,-2.63983952176,0.0
1408129662809,-2.01346784877,9.08045110305,-2.64462631825,0.0
1408129662824,-1.94608274587,10.1941824217,-2.14552236842,0.0
1408129662824,-1.57471426607,11.1790733711,-1.65806493207,0.0
1408129662842,-1.02832122764,11.3072402503,-1.32402352334,0.0
1408129662843,-0.41802465606,10.6580794312,-1.14245433298,0.0
1408129662856,-0.104224202722,11.7189980955,-0.638257991995,0.0
1408129662860,0.00484720010495,14.0335563326,-0.0538476486123,0.0
1408129662874,-0.684035941033,16.3514292188,0.351409653756,0.0
1408129662889,-1.77898955749,16.6865146389,0.889912547052,0.0
1408129662892,-2.89767865547,14.2123607218,-0.123526580302,0.0
1408129662921,-3.1115431475,13.2324325311,-3.74343886077,0.0
1408129662921,-1.26719081519,17.8838087556,-6.69589074916,0.0
1408129662922,0.289123070271,20.6636485332,-0.98036116749,20.6636485332
1408129662943,3.08613230229,18.6080313866,4.98770906287,0.0
1408129662945,5.07913689762,15.2748686732,3.91808422182,0.0
1408129662959,4.53074615053,12.0929819584,1.44399658231,0.0
1408129662960,3.28511054581,8.87894054266,0.801096648392,0.0
1408129662995,3.12179645357,6.02026630777,-1.40834950791,0.0
1408129662996,2.89054959851,6.124676609,-2.35495560855,0.0
1408129662997,2.9003423589,6.1726402611,-0.984566366958,0.0
1408129663000,2.7111929128,5.75950210258,-0.0944843784857,0.0
1408129663035,2.60981653075,6.31256755503,0.151556295343,0.0
1408129663036,2.31604809552,7.52664722456,0.951670478823,0.0
1408129663037,1.34547418372,8.55471875346,1.56541004975,0.0
1408129663041,0.223516988138,9.11360128965,1.54125710485,0.0
1408129663068,-0.505266144324,9.83415879681,1.49869163643,0.0
1408129663069,-0.580833108915,10.9360051689,1.83770002253,0.0
1408129663072,-0.443556489025,11.4328618097,2.1719364606,0.0
1408129663113,-0.221156690415,11.0253628673,2.19344717188,0.0
1408129663114,0.167074289591,10.3397462948,1.80992166573,0.0
1408129663116,1.10031868733,9.6086802456,1.48514316453,0.0
1408129663117,1.93975487561,8.87673157457,1.23019676208,0.0
1408129663121,2.24928529188,8.23193145663,1.14582611282,0.0
1408129663167,2.00382023062,7.76176550652,1.16216242022,0.0
1408129663168,2.00083505254,7.40734016628,1.14353004044,0.0
1408129663170,2.03049363344,7.11555546622,0.840917322833,0.0
1408129663171,1.69522678373,6.89423053507,0.629879510071,0.0
1408129663173,1.14733899366,6.69953038369,0.366518239742,0.0
1408129663233,0.718986071831,6.64057777224,0.152198292248,0.0
1408129663234,0.597982884928,6.60446787326,0.171365239044,0.0
1408129663236,0.569038617684,6.69033375273,0.291383033926,0.0
1408129663237,0.460657445391,6.93850575398,0.675135065642,0.0
1408129663239,0.0545244430931,7.4852092886,0.919991960424,0.0
1408129663242,-0.560202062247,7.89216770713,0.979737512665,0.0
1408129663244,-1.26710461443,8.20334320531,0.853327678861,0.0
1408129663280,-1.91820002664,8.60028699014,0.487947640559,0.0
1408129663281,-2.38233653818,8.47255310033,0.376768237176,0.0
1408129663281,-2.85680248643,8.26523429964,0.108295802993,0.0
1408129663281,-3.07875332443,8.3041890025,-0.0543074176283,0.0
1408129663292,-3.1400031427,8.54987670922,-0.132684752972,0.0
1408129663312,-3.10781124943,8.96184273519,0.095174481617,0.0
1408129663312,-3.01824285711,9.08400888172,0.453205712127,0.0
1408129663320,-2.93018132097,8.91358380946,0.437237975599,0.0
1408129663349,-2.89472157938,8.60205714671,0.0200815057904,0.0
1408129663350,-2.91176773028,8.42407618627,-0.472676076254,0.0
1408129663352,-2.75193115604,8.24396474542,-1.17257911954,0.0
1408129663388,-2.4556257855,8.14074152816,-1.74763565853,0.0
1408129663389,-2.19443403247,8.22168003993,-1.80160730132,0.0
1408129663390,-1.55798828194,8.1049764821,-1.26868618551,0.0
1408129663425,-1.3118889849,8.15077077705,-0.24279121221,0.0
1408129663426,-1.96983752809,8.74312981868,0.439715246034,0.0
1408129663430,-2.31640539858,9.70220720633,0.309033983515,0.0
1408129663431,-3.24736933598,9.84035168469,-0.165790462352,0.0
1408129663465,-2.57793432133,10.214822958,-0.486952737366,0.0
1408129663465,-1.45536839485,11.0269538294,-0.112127300214,0.0
1408129663466,-0.8992969686,12.1832913237,0.390836946799,0.0
1408129663466,-0.235396899162,12.7574326364,0.457102188617,0.0
1408129663472,0.245030872082,11.820424732,0.810742059216,0.0
1408129663492,-0.474910717209,10.6587375045,1.14294739588,0.0
1408129663494,-1.12300331643,10.2859164751,0.935266075426,0.0
1408129663506,-0.977582676766,9.84877263121,1.47580819862,0.0
1408129663529,0.0888564247107,8.99673557957,2.04567948508,0.0
1408129663529,1.2406811594,8.09729745541,1.82602467042,0.0
1408129663532,2.32460392375,7.71076269167,1.402375262,0.0
1408129663541,2.6474789383,8.68597488429,0.682582971197,0.0
1408129663566,2.42881482888,11.7359850118,-0.347296446299,0.0
1408129663566,1.81484411726,16.4246447602,-0.607773945878,0.0
1408129663573,1.15107267625,20.037955975,0.583863741024,20.037955975
1408129663594,1.53605442055,19.9997832059,1.8929406613,0.0
1408129663594,2.33976393245,18.1184120805,1.61345866367,0.0
1408129663600,2.69676351151,16.3449067741,0.724207513811,0.0
1408129663629,3.1800641696,14.1551181169,0.194891319007,0.0
1408129663630,3.2018086208,11.8013504623,-0.353270823677,0.0
1408129663633,3.19087586635,10.5768275057,-0.848099605263,0.0
1408129663641,3.48145393,9.89545538258,-0.822410218712,0.0
1408129663665,2.46402923516,7.5926850407,-0.9670516877,0.0
1408129663665,1.54031912907,6.64205514668,-1.35675259725,0.0
1408129663672,0.0412083235216,6.9143981057,-1.67899856138,0.0
1408129663693,-1.11145030366,7.2807341305,-1.40166510421,0.0
1408129663695,-2.24546500383,7.80432277395,-0.973098455993,0.0
1408129663701,-2.69260544014,8.05736911072,-0.544998449068,0.0
1408129663733,-2.03607419976,7.15118693458,0.017709882147,0.0
1408129663734,-0.939096240483,5.7535029008,0.109464852948,0.0
1408129663734,-0.276873430608,4.72021751924,-0.411123210751,0.0
1408129663741,-0.0259335629997,4.03160364048,-0.83744263528,0.0
1408129663766,-0.147597522406,3.65537818539,-1.09486548878,0.0
1408129663767,-0.0554510022325,3.46611426245,-1.2789932268,0.0
1408129663773,-0.0888551620115,3.5761463585,-1.30913984356,0.0
1408129663798,-0.0178840584368,3.80868588056,-1.34761173438,0.0
1408129663799,-0.105542745062,4.11630228725,-1.40035096807,0.0
1408129663801,-0.163748474273,4.48983359333,-1.37010754763,0.0
1408129663828,-0.213450341437,4.84190715187,-1.37405193557,0.0
1408129663829,-0.369611415524,5.38710098143,-1.54227049496,0.0
1408129663832,-0.728489578418,6.04503882981,-1.82184458824,0.0
1408129663841,-1.27157182312,6.94138073391,-2.09083153392,0.0
1408129663867,-1.76237878258,7.85852893463,-2.28905197874,0.0
1408129663867,-2.25683093358,8.92841500102,-2.27400895709,0.0
1408129663876,-2.49582481404,10.2193620567,-2.04892515942,0.0
1408129663893,-2.33862960188,11.4321509503,-1.62790767869,0.0
1408129663894,-1.95564173419,11.969106252,-1.17990001246,0.0
1408129663901,-1.43687409709,12.1008792843,-0.991217534752,0.0
1408129663930,-0.827573463559,13.764707521,-0.335677329038,0.0
1408129663930,-0.278237576726,15.7318134784,0.367416904709,0.0
1408129663933,-0.385881282888,17.1968880481,0.716799939212,0.0
1408129663941,-1.12843644732,16.1701607119,0.747338913442,0.0
1408129663965,-2.60334095203,13.4780469695,-0.487925247768,0.0
1408129663966,-3.70478921312,11.823999384,-3.05847990992,0.0
1408129663972,-3.04313865844,13.0249848325,-6.66025738015,0.0
1408129663995,-0.984591041692,18.4035611732,-5.80515497182,0.0
1408129663995,0.888364201432,20.3091268337,0.396689537315,20.3091268337
1408129664001,3.82035458778,16.5199508775,4.69414967013,0.0
1408129664031,4.62629951836,12.6965663883,3.53885392337,0.0
1408129664032,3.95369748865,9.80074446535,2.64672538635,0.0
1408129664033,3.35306502416,7.38092471559,1.27119390783,0.0
1408129664044,3.51641401948,6.61807119907,-1.59646538997,0.0
1408129664081,3.55214464025,7.49364223409,-2.05232616329,0.0
1408129664082,3.44302141968,7.39851417461,-0.486261334923,0.0
1408129664083,2.99309563721,6.85767856481,0.0537277937531,0.0
1408129664084,2.79028379182,6.89770322556,0.0337306321533,0.0
1408129664109,2.53527116692,7.25970012994,0.849596534905,0.0
1408129664110,1.78113335768,7.92561242151,1.67084739617,0.0
1408129664114,0.598482738957,8.55500769895,1.83741064187,0.0
1408129664121,-0.453590033681,9.23380124285,1.71909814963,0.0
1408129664154,-0.8228192067,9.91082255168,1.70961203275,0.0
1408129664155,-0.71182064847,10.3925474559,1.89247583961,0.0
1408129664156,-0.416442386492,10.2397046811,2.03345435009,0.0
1408129664188,-0.280070294367,9.75527780968,1.78296493059,0.0
1408129664189,0.0552045979131,9.50883147961,1.42401107079,0.0
1408129664189,0.670999944006,9.23544346119,0.914261877063,0.0
1408129664214,0.86488114713,9.00501151971,0.708802460287,0.0
1408129664215,1.0286617374,8.77016503068,0.550311694088,0.0
1408129664216,1.10690928297,8.28241380962,0.51152323338,0.0
1408129664221,1.13140825293,7.94372629374,0.469641459362,0.0
1408129664249,1.18586453002,7.60320281765,0.591350674202,0.0
1408129664250,0.955197839238,7.27437847113,0.676310289772,0.0
1408129664253,0.631530394337,7.2490147336,0.627875145056,0.0
1408129664285,0.469216479425,7.26352561275,0.550769737891,0.0
1408129664286,0.262131542336,7.28662517006,0.56720714023,0.0
1408129664287,0.0616932962007,7.3058613863,0.60077354709,0.0
1408129664320,-0.204483312179,7.16604941619,0.802056971507,0.0
1408129664322,-0.450831112511,7.09452845232,0.839156484763,0.0
1408129664322,-0.643907553675,7.39948143166,0.707148870162,0.0
1408129664323,-1.0046745401,7.74356268434,0.44774569921,0.0
1408129664349,-1.66820431299,8.22065239007,0.139263189356,0.0
1408129664350,-2.16476285924,8.21540407037,0.0425159231185,0.0
1408129664355,-2.67858291879,8.18278681116,-0.140744191825,0.0
1408129664378,-2.93834058665,8.60501090275,-0.468774123358,0.0
1408129664378,-2.78693259335,9.05026970089,-0.787127408497,0.0
1408129664381,-2.43711763966,8.75890987116,-0.620904771603,0.0
1408129664404,-2.08951294045,8.4842540259,-0.154156756816,0.0
1408129664404,-1.81818109718,8.48479348825,0.0473555636394,0.0
1408129664422,-1.74819180566,8.60564936213,0.155499923853,0.0
1408129664425,-1.62571000638,8.54687285877,-0.311002427871,0.0
1408129664448,-1.5500480207,8.77299876448,-1.23664498575,0.0
1408129664449,-1.39186780876,8.93787608039,-0.94858048858,0.0
1408129664453,-0.951251072814,8.6718496395,-0.515633132797,0.0
1408129664480,-0.91136321167,8.48566894572,0.223371258915,0.0
1408129664482,-1.57997765671,8.21967011829,1.20996099868,0.0
1408129664482,-2.6859811098,8.48041589515,1.05874219008,0.0
1408129664516,-3.68818290387,8.79968901432,0.0573453180747,0.0
1408129664517,-3.07138496133,9.21798255321,-0.926440688484,0.0
1408129664517,-1.63006779565,9.83664699962,-0.777620753379,0.0
1408129664521,-0.585728366027,10.7976263567,-0.00987209194227,0.0
1408129664538,-0.132695861678,12.012944633,0.386039425089,0.0
1408129664564,0.369022820165,12.3951528903,0.638033675012,0.0
1408129664565,0.550057569209,11.1847581425,1.90679068435,0.0
1408129664566,-0.0898076063294,10.2822473603,2.24448637675,0.0
1408129664575,-0.606017102128,10.7539707394,1.06186929674,0.0
1408129664605,-0.61103416549,10.882640708,1.44579370123,0.0
1408129664606,0.119468014721,10.3211874667,2.46588352536,0.0
1408129664609,1.7200284546,9.69562175211,2.20250049801,0.0
1408129664631,2.99979639491,9.52593856186,2.07055593696,0.0
1408129664632,3.55730899018,10.3821414002,2.18214473164,0.0
1408129664633,3.50873006465,12.7286615646,1.79192046807,0.0
1408129664665,2.9665219629,16.2762258122,0.827687717842,0.0
1408129664665,2.72283001386,19.4018648237,0.28917701231,0.0
1408129664666,3.08820709888,19.846333971,0.427912324615,19.846333971
1408129664673,3.83174531618,17.8833093644,0.143836262003,0.0
1408129664702,3.40437301747,14.8683489209,-1.29512545754,0.0
1408129664703,2.50637520795,11.6598547081,-2.75777328072,0.0
1408129664703,1.88581158458,10.6528640386,-2.97603752722,0.0
1408129664743,1.66307051806,11.5706200597,-1.69420200812,0.0
1408129664744,1.08756556527,11.1023866795,-0.787283902355,0.0
1408129664745,0.794596575532,9.07452235473,-0.419969147115,0.0
1408129664778,0.0384339277853,7.62342062852,-0.412708198409,0.0
1408129664779,-0.536550653015,6.73623184523,-0.356513112057,0.0
1408129664779,-0.673122191986,6.10894059411,-0.175860860868,0.0
1408129664779,-1.25590417072,6.27722983591,0.207919929645,0.0
1408129664782,-1.92945003416,6.42834302937,0.500596668405,0.0
1408129664805,-1.98699562604,5.97180882522,0.364709109544,0.0
1408129664807,-1.70196400713,5.84119789144,-0.0501117284086,0.0
1408129664823,-1.14475052915,5.2518960326,-0.477138139827,0.0
1408129664824,-0.801407978585,4.81709243049,-0.90278085489,0.0
1408129664840,-0.756816151958,4.7351849366,-1.21984646716,0.0
1408129664893,-0.693546170027,4.56571901678,-1.50035674321,0.0
1408129664894,-0.598178894145,4.49189061928,-1.65859991667,0.0
1408129664895,-0.659831396161,4.71331420191,-1.71418929151,0.0
1408129664896,-0.810913576193,5.09196579643,-1.59390462356,0.0
1408129664896,-0.856034810877,5.58689403115,-1.31472497073,0.0
1408129664897,-0.883969931267,6.12375469628,-1.04128262255,0.0
1408129664902,-1.02244464563,6.66217196057,-0.875946998527,0.0
1408129664951,-1.13387017252,7.17252654828,-1.02563049402,0.0
1408129664952,-1.26487993152,7.46753258913,-1.26596682141,0.0
1408129664954,-1.35674551898,7.45161897505,-1.56306490199,0.0
1408129664955,-1.33539558575,7.50774040509,-1.91310180877,0.0
1408129664981,-1.2950651567,7.98868731597,-2.27846981448,0.0
1408129664981,-1.22225885259,9.0348399673,-2.56167250561,0.0
1408129664981,-1.12017529121,10.2564518617,-2.45309079423,0.0
1408129664982,-0.727299057004,11.2695357,-2.40998596109,0.0
1408129665007,0.0835492971959,11.5621045378,-2.56503691014,0.0
1408129665008,0.898797599242,11.36593242,-2.4747121856,0.0
1408129665014,0.92484440734,12.8987198887,-1.27365666671,0.0
1408129665023,0.746048106875,15.1499482455,-0.355198621508,0.0
1408129665055,0.77303490628,15.9142998563,0.300020396574,0.0
1408129665057,-0.0352110040858,14.5909565458,0.648240680466,0.0
1408129665058,-1.67371298726,12.2205797816,0.396092644139,0.0
1408129665092,-1.99497309483,16.0439146164,-6.58704956002,0.0
1408129665094,-1.88623219438,20.4228737573,-2.59101661893,20.4228737573
1408129665095,0.330838145629,18.1222696225,3.36716074917,0.0
1408129665095,2.19705904175,14.0012951586,3.29096711352,0.0
1408129665102,2.40076585804,11.4145788922,0.721425430815,0.0
1408129665126,2.48303408591,8.97596626438,0.365306510393,0.0
1408129665126,2.77514068225,7.22944871162,-2.13795760557,0.0
1408129665136,3.3046432136,7.36441100905,-3.60001025504,0.0
1408129665167,2.97219251262,7.9895306627,-1.81484374379,0.0
1408129665174,2.70758312476,7.45238117908,-0.184893022154,0.0
1408129665175,2.72686964651,7.03425078836,0.0824454966337,0.0
1408129665204,2.65260991791,7.31905135814,0.477705553477,0.0
1408129665208,2.01106993271,8.17423167851,1.72931466055,0.0
1408129665209,0.775479355397,9.26754381489,2.60151769022,0.0
1408129665210,-0.594948290215,10.4375954056,2.37206713746,0.0
1408129665240,-1.03376906276,11.2440539225,2.04687599502,0.0
1408129665240,-0.909286058757,11.3417247183,2.07313880419,0.0
1408129665241,-0.646026827654,10.6818134885,2.11492114585,0.0
1408129665242,-0.0883098088978,9.67051532122,1.7486484874,0.0
1408129665254,0.642256335831,9.17987293557,1.13696641143,0.0
1408129665278,1.47179831363,8.75875612265,0.60799493878,0.0
1408129665279,1.94702862481,8.08939673514,0.467479564821,0.0
1408129665282,1.75954138271,7.54007148374,0.687090691853,0.0
1408129665309,1.44708302597,7.26215637744,0.917746589868,0.0
1408129665310,1.52074051782,6.8884756301,0.957384468767,0.0
1408129665317,1.72034088631,6.67875540529,0.62438134196,0.0
1408129665334,1.31806036893,6.81197321329,0.388651635593,0.0
1408129665335,0.900292078381,6.97671253342,0.238882250471,0.0
1408129665353,0.685268080476,6.96502599608,0.169070583274,0.0
1408129665354,0.611312723951,7.05622480557,0.50591968952,0.0
1408129665366,0.585573471105,7.1186927189,1.07513060748,0.0
1408129665385,0.24634089239,7.25718569314,1.39739307595,0.0
1408129665385,-0.227238692254,7.35090093907,1.35220345896,0.0
1408129665402,-0.838432296364,7.98758555545,0.993969746067,0.0
1408129665403,-1.59542820205,8.52951727,0.643515533258,0.0
1408129665418,-2.09803882599,8.14291631312,0.485081337379,0.0
1408129665434,-2.59453060978,7.58845650744,0.223737108878,0.0
1408129665435,-2.6828220686,6.99590428542,-0.121160868554,0.0
1408129665452,-2.6824342794,6.53886379154,-0.502944935956,0.0
1408129665455,-2.75815173882,6.42793495162,-0.762937359693,0.0
1408129665474,-2.83713500315,6.59156136343,-0.889163939046,0.0
1408129665474,-3.01963656977,6.99059494207,-1.0554511296,0.0
1408129665482,-3.13443795086,7.45293045607,-1.17265590197,0.0
1408129665504,-2.98021745854,8.08466041204,-1.19023292537,0.0
1408129665504,-2.54444561979,8.71360130608,-1.31129674626,0.0
1408129665515,-1.76657865181,9.13149346738,-0.939902495516,0.0
1408129665544,-1.51511798711,9.69097044281,-0.387117113028,0.0
1408129665545,-1.40903577352,10.1262607264,-0.0405861743102,0.0
1408129665546,-1.66771211613,9.55039716451,0.893643389784,0.0
1408129665578,-2.20340414234,9.35280706527,0.732268089919,0.0
1408129665579,-2.75197276732,9.69132881452,-0.413367125196,0.0
1408129665579,-2.26376981117,10.2617749578,-1.04121213624,0.0
1408129665583,-1.44836623231,10.8911065231,-0.597014418152,0.0
1408129665607,-1.19342623456,11.3116535572,0.181609848277,0.0
1408129665608,-1.02361964977,12.0707836008,1.05552356384,0.0
1408129665615,-1.24321234879,13.3635006922,1.3182231216,0.0
1408129665633,-1.44107237601,13.5361444536,1.52220467289,0.0
1408129665634,-1.50251858729,12.0512714541,1.89389787649,0.0
1408129665653,-1.6427597992,11.0610766615,1.43601518077,0.0
1408129665666,-1.38239575484,11.1300729567,0.483974793874,0.0
1408129665667,-0.669497950158,10.7170623581,1.02568700968,0.0
1408129665683,0.731518208298,9.5429736948,1.67374689207,0.0
1408129665684,2.46798694414,8.48420027504,1.75841443823,0.0
1408129665702,3.59159656503,8.5428759042,1.6705617453,0.0
1408129665703,3.87704210423,9.92739841107,1.06563256147,0.0
1408129665716,3.38681746026,12.9256322484,0.0371137037986,0.0
1408129665734,2.3595673758,17.2752192306,-0.284477891658,0.0
1408129665735,2.14163079059,20.1224494769,0.625391593291,20.1224494769
1408129665749,2.79799010293,19.7074660207,1.04735882642,0.0
1408129665767,2.89961272525,17.4266680326,0.296008006664,0.0
1408129665768,2.78694576125,14.2878586181,-0.216789873143,0.0
1408129665783,2.68575965578,11.2810863354,-0.997317499961,0.0
1408129665784,2.55925204183,9.79588140908,-1.54876163813,0.0
1408129665802,2.27952669174,10.2097310516,-0.959987454753,0.0
1408129665803,1.49082784526,10.1595206409,-0.236508936177,0.0
1408129665818,0.861490460918,9.05503551484,-0.490765499036,0.0
1408129665832,0.422128009225,7.9669374807,-1.0841557736,0.0
1408129665834,-0.287593491887,7.4695047118,-1.42922547083,0.0
1408129665851,-0.832611760567,6.96624679522,-1.36593268165,0.0
1408129665870,-1.11159746196,6.6969016912,-1.13820128776,0.0
1408129665870,-1.65231419012,6.52888418277,-0.820841753493,0.0
1408129665874,-1.79143214389,5.96148958382,-0.426621040255,0.0
1408129665882,-1.54916572382,5.43109223542,-0.195691642017,0.0
1408129665899,-1.40457157104,5.03149701372,-0.118061491637,0.0
1408129665903,-1.14261447126,4.46181090435,-0.250628840914,0.0
1408129665918,-0.885312151312,3.85773637139,-0.673009753563,0.0
1408129665942,-0.490735759446,3.38909689734,-1.08673397878,0.0
1408129665943,-0.47332216188,3.3160808822,-1.36457575909,0.0
1408129665944,-0.662434965913,3.62191395435,-1.5472660177,0.0
1408129665976,-0.733790020511,4.24360628868,-1.60613006522,0.0
1408129665977,-0.698299800343,4.87955537381,-1.61952528746,0.0
1408129665978,-0.558049512323,5.28413361999,-1.57240782152,0.0
1408129665983,-0.620895714418,5.72758735502,-1.4503177814,0.0
1408129666009,-0.905729525296,6.24890488631,-1.46665184389,0.0
1408129666009,-1.40369688989,6.86537013187,-1.82083789066,0.0
1408129666015,-1.89726497723,7.3457694348,-2.10378136418,0.0
1408129666037,-2.11407899801,7.75861794077,-2.17612906665,0.0
1408129666037,-2.20085050689,8.64826017493,-2.10805638636,0.0
1408129666043,-2.17833593086,10.0606079803,-1.47782492504,0.0
1408129666068,-1.79344351813,11.5991321076,-1.0642766525,0.0
1408129666069,-1.02251020744,12.523286369,-1.10754792304,0.0
1408129666083,-0.143488003986,12.477171591,-0.830734643223,0.0
1408129666084,0.502390693564,13.8495724868,-0.177785986722,0.0
1408129666100,0.840909729027,15.3410850711,0.0128284272514,0.0
1408129666118,0.0909751612294,16.6895255756,0.0786059678214,0.0
1408129666118,-1.15176341249,15.8289651325,0.356079243611,0.0
1408129666134,-2.67861853242,12.4345502834,-0.549038347139,0.0
1408129666135,-3.78133028524,10.0487145677,-3.00638871683,0.0
1408129666151,-3.57977077156,10.2784943626,-6.64966593193,0.0
1408129666166,-1.44075601809,14.4365357532,-7.68342301427,0.0
1408129666167,-0.661008016655,18.6524161768,-0.750708639545,18.6524161768
1408129666180,1.41941072995,15.1086952889,4.57202746733,0.0
1408129666183,2.79915789097,12.1740865183,2.52250827903,0.0
1408129666199,2.81696241515,11.6868789425,0.877425280787,0.0
1408129666216,3.18845426603,11.4154060636,0.84490952178,0.0
1408129666217,3.83094326288,11.1148096585,0.499351582299,0.0
1408129666233,3.64535249999,11.0363454044,1.4535591626,0.0
1408129666234,3.47602789543,9.71105240224,2.53968082304,0.0
1408129666252,3.20296776367,8.55892125008,2.05163311891,0.0
1408129666267,2.87482020234,8.39245144014,1.46533217868,0.0
1408129666268,2.33399425102,8.58848170029,2.17436291316,0.0
1408129666280,1.72374491477,8.79381748424,2.64685859587,0.0
1408129666283,0.977549832591,8.40158571107,2.13548192536,0.0
1408129666299,0.258922514972,8.21443102165,1.39991878963,0.0
1408129666313,0.0990146255051,8.68394693819,0.978782913506,0.0
1408129666314,0.217337773303,9.3869450469,0.861022321916,0.0
1408129666329,0.725802743804,9.20973002733,0.549113003693,0.0
1408129666349,1.05376979539,8.7629835703,0.0594941661673,0.0
1408129666349,1.53745130702,8.29214124705,0.0878756908194,0.0
1408129666364,1.97376135443,7.85147305426,0.371404726005,0.0
1408129666365,2.11407097895,7.67406792989,0.787655362395,0.0
1408129666381,2.01764673825,7.82830182001,1.177412779,0.0
1408129666383,1.76027565151,7.91954749291,1.38114940526,0.0
1408129666399,1.8691497804,7.77153728186,1.56135155361,0.0
1408129666411,1.88823664866,7.70478311201,1.47716880633,0.0
1408129666415,1.5714214081,7.63271082927,1.32898396608,0.0
1408129666430,1.2535795565,7.38242704265,1.11005268959,0.0
1408129666435,1.0156969981,7.32225962878,0.941037380112,0.0
1408129666448,0.548670390801,7.35860333993,0.918097172894,0.0
1408129666466,-0.230753050775,7.62815424705,0.949182390303,0.0
1408129666466,-0.804017845606,7.78770207466,1.25342964993,0.0
1408129666480,-1.53866722865,7.7164783226,1.19134858294,0.0
1408129666483,-1.88380778727,7.81715048517,0.741198652262,0.0
1408129666496,-2.64384566229,7.84663801095,0.406148386433,0.0
1408129666512,-2.81903606729,7.6666471454,0.0444104000318,0.0
1408129666517,-2.65006406332,8.06637096864,-0.52274415686,0.0
1408129666530,-2.53037935028,8.34197603232,-0.512305932145,0.0
1408129666550,-2.54428312995,8.6436427956,-0.0819463139592,0.0
1408129666551,-2.21783954725,8.5028356794,0.0292018482839,0.0
1408129666565,-2.17199787416,8.38810811221,-0.113947300483,0.0
1408129666565,-2.3927214023,8.30922245379,-0.565726899762,0.0
1408129666582,-2.75621668823,8.26045935218,-0.993480829239,0.0
1408129666583,-2.72012708568,8.2624996921,-1.29447874286,0.0
1408129666596,-2.71183225101,8.45408944118,-1.74862711493,0.0
1408129666611,-2.60657256667,8.61099912002,-1.34215939872,0.0
1408129666615,-2.46092723792,8.9411569914,-0.740988606539,0.0
1408129666630,-2.52385418159,9.44008909048,-0.0654184006387,0.0
1408129666647,-3.06841276128,9.04873383464,0.581757898782,0.0
1408129666648,-3.75226679174,9.03509240686,0.502541989542,0.0
1408129666665,-4.43728049153,9.31642891571,-0.198805441288,0.0
1408129666665,-4.21893092897,9.62281247509,-0.626515516278,0.0
1408129666680,-3.05829783575,10.2844575191,-0.550986831838,0.0
1408129666683,-1.91208589378,11.3891239784,0.0373019862015,0.0
1408129666697,-1.18100865052,12.5534111617,0.437705043888,0.0
1408129666715,-0.37965615755,12.7321745711,0.637439186977,0.0
1408129666715,0.169491128254,11.1855235483,1.62506547682,0.0
1408129666731,0.410791268706,10.2134223088,1.86551214824,0.0
1408129666746,0.858109590368,9.95871334318,1.16178279055,0.0
1408129666747,1.51668139392,9.08228744585,1.6297251517,0.0
1408129666765,2.42699902606,8.21800828501,2.37746216466,0.0
1408129666765,3.31196771843,8.46626264974,2.7498985455,0.0
1408129666779,3.27909401889,10.2131064165,2.21749732616,0.0
1408129666784,2.70003265622,13.4427247465,1.55867135311,0.0
1408129666798,2.06174407321,17.8569240245,2.21640812873,0.0
1408129666813,2.41029463789,20.7609075303,3.3390698557,20.7609075303
1408129666816,3.42353007349,20.4218017322,2.84110648936,0.0
1408129666831,4.11517623062,17.7230547868,1.07448570374,0.0
1408129666850,3.92053920174,13.8140269742,-0.570496639675,0.0
1408129666850,3.6811453687,10.7635572292,-2.12656488292,0.0
1408129666865,4.37436111268,9.60879181152,-2.34260946239,0.0
1408129666866,3.3014382563,10.65236969,-0.764965561765,0.0
1408129666880,1.47001756039,10.7989258993,-0.102393873495,0.0
1408129666884,0.158466965928,9.43712345192,-0.935651919216,0.0
1408129666901,-0.697099582662,7.84443592461,-1.80554666847,0.0
1408129666920,-1.67320663261,7.14977478726,-2.32227748761,0.0
1408129666920,-2.69585179156,7.19364508882,-2.17357018064,0.0
1408129666924,-3.57207239424,7.3551577378,-1.55610463142,0.0
1408129666952,-3.7057425495,7.36284173547,-0.61768310666,0.0
1408129666953,-3.44625367924,7.3597266988,0.162736484265,0.0
1408129666955,-2.66642297008,6.97884859309,0.598106723798,0.0
1408129666965,-1.5863289226,6.2155177911,0.534545454318,0.0
1408129666987,-0.645405382705,5.59841177961,0.124173043042,0.0
1408129666988,-0.0391919084729,5.02392497496,-0.372112422526,0.0
1408129666996,0.196833456869,4.67110847324,-0.804657807788,0.0
1408129667018,0.223381787457,4.61963385343,-0.998000614874,0.0
1408129667019,0.303184448499,4.78549863055,-1.1145169454,0.0
1408129667024,0.33699599928,4.92335961011,-1.23694002154,0.0
1408129667053,0.336451501435,5.06034257296,-1.35593230647,0.0
1408129667054,0.205978762953,5.16315043874,-1.35339746274,0.0
1408129667057,0.0674079585568,5.29824630452,-1.2609241313,0.0
1408129667064,-0.177737372748,5.56429407169,-1.17645594966,0.0
1408129667087,-0.578886253321,6.00276807267,-1.24485714901,0.0
1408129667088,-1.0350661676,6.45758658377,-1.43571971339,0.0
1408129667096,-1.46163609019,6.93354421689,-1.8510650341,0.0
1408129667122,-1.65059637502,7.50763610617,-2.48702180519,0.0
1408129667123,-1.86828423268,8.59734998187,-2.85298531115,0.0
1408129667124,-1.93936591288,10.3643763517,-2.57974603017,0.0
1408129667156,-1.66802116563,11.7872640556,-1.87093436089,0.0
1408129667157,-1.44136615774,11.8451453386,-1.75013571832,0.0
1408129667158,-1.08852949266,10.8448223117,-1.65283203668,0.0
1408129667165,-0.565077936018,12.1552017774,-0.832253680486,0.0
1408129667205,0.422266944255,14.7857938886,-0.0406392701172,0.0
1408129667206,-0.0803666225647,16.5149273565,0.764677122379,0.0
1408129667207,-1.72219424086,16.1084539366,1.36082498174,0.0
1408129667208,-3.49474263166,13.1205078226,0.00475365733186,0.0
1408129667217,-4.41285459675,11.388708711,-3.06476837471,0.0
1408129667247,-3.03068648373,13.5958989442,-6.53401837349,0.0
1408129667248,-0.659633565023,18.2549484754,-3.25787021978,18.2549484754
1408129667250,1.58238737265,17.5072692166,2.54283210446,0.0
1408129667276,3.84582366652,15.252206929,3.63155736536,0.0
1408129667276,5.02057767349,14.1729971623,1.19980281265,0.0
1408129667277,4.81149275497,11.3727863775,0.880761778301,0.0
1408129667295,4.33930200432,9.75187065327,0.19515459732,0.0
1408129667298,3.86032417887,9.41682859899,0.381506315415,0.0
1408129667311,3.40265134431,7.98351656272,1.83739055694,0.0
1408129667327,3.25935041943,6.86327996885,1.4529658682,0.0
1408129667327,2.9444203954,6.72068415994,1.11072597158,0.0
1408129667345,2.4897743951,7.0044034524,1.52526609904,0.0
1408129667345,1.94359239022,7.45151508722,1.75429689762,0.0
1408129667363,1.06328364094,7.83834091332,1.35170953057,0.0
1408129667364,0.267746659584,8.23087878631,1.11458467254,0.0
1408129667377,0.205935117711,8.99275484319,1.30359695457,0.0
1408129667395,0.263017253986,10.2597794126,1.63978082549,0.0
1408129667396,0.0672643196346,11.078333876,1.70435952685,0.0
1408129667413,0.160657225997,10.7248219624,1.59664645559,0.0
1408129667427,0.698177582808,9.69911326517,1.58405487183,0.0
1408129667428,1.12419161895,9.16955310012,1.40014967569,0.0
1408129667441,1.46549899318,8.82313601618,1.26624597133,0.0
1408129667444,1.47351688859,8.42651838321,1.36570373021,0.0
1408129667463,1.54055623432,7.99619598266,1.56523359771,0.0
1408129667464,1.87683240211,7.63128686643,1.61792423974,0.0
1408129667484,2.00930530417,7.39341606602,1.28068235029,0.0
1408129667485,1.79861739368,7.22681933121,0.875602788741,0.0
1408129667496,1.37530088065,6.95667647403,0.78493822898,0.0
1408129667515,1.14454065142,6.5535939671,0.775618317371,0.0
1408129667532,0.718045922131,6.41513884396,0.738437911932,0.0
1408129667533,0.0947886159212,6.68367350721,0.803632141248,0.0
1408129667537,-0.575716924011,7.01533585032,1.04496691776,0.0
1408129667544,-1.3228431383,7.59717675878,1.22237791109,0.0
1408129667568,-1.93422024538,7.75093161536,1.23760583999,0.0
1408129667569,-2.54747424143,7.87607534391,0.929777838091,0.0
1408129667576,-2.80445068222,7.71271980369,0.397049201353,0.0
1408129667601,-2.67264229137,7.52618753487,-0.396320556266,0.0
1408129667601,-2.46906348845,7.74591511728,-0.907887204565,0.0
1408129667604,-2.05285613283,8.12576500546,-1.00255369004,0.0
1408129667636,-1.31330250943,8.46028632261,-0.603523722564,0.0
1408129667636,-1.05706713601,8.51366981311,0.0766042408256,0.0
1408129667637,-1.3322772188,8.18951398876,0.539757984104,0.0
1408129667644,-1.87455686505,8.3446672837,0.537649761474,0.0
1408129667669,-2.48144199511,8.59130974113,0.314337863154,0.0
1408129667669,-3.14354543287,8.78967124375,0.160955148457,0.0
1408129667676,-3.4163077925,8.98446972263,-0.200445186526,0.0
1408129667701,-3.1313270585,9.14001843048,-0.88176546569,0.0
1408129667702,-2.70448992795,9.32615112732,-1.32848864535,0.0
1408129667705,-2.38603452802,9.45974118274,-0.472259814373,0.0
1408129667733,-2.15865416741,9.9351710042,0.347706273182,0.0
1408129667734,-3.04333433007,9.82922795418,1.23249004462,0.0
1408129667736,-3.75850196984,9.45293871291,1.12228482032,0.0
1408129667745,-3.64530443851,9.57689490212,-0.152858693177,0.0
1408129667769,-2.53753701917,9.77284538373,-1.02156398255,0.0
1408129667770,-1.41741580801,10.3476778297,-1.04032875917,0.0
1408129667778,-0.669907349395,11.2392764096,-0.932397531977,0.0
1408129667800,0.117640084451,11.4514590719,-0.208585041037,0.0
1408129667800,0.384657956738,10.9632859723,1.50891015004,0.0
1408129667805,-0.402775867272,11.0026540408,2.41014254374,0.0
1408129667834,-1.1034525468,11.3741653313,1.95414438975,0.0
1408129667835,-0.81882228274,10.8573615227,1.74878211612,0.0
1408129667839,0.445940539225,9.08350153775,1.975867208,0.0
1408129667845,1.70425725016,7.66949337334,1.94786462344,0.0
1408129667869,2.62454030655,7.59369786166,1.31069306508,0.0
1408129667870,2.6630256557,13.5391742231,-1.49955801369,0.0
1408129667877,2.23458362394,19.0121328369,-1.75802553691,0.0
1408129667906,1.94132006325,20.7614209317,0.360160489267,20.7614209317
1408129667906,2.76982645304,19.8227099909,1.15718192608,0.0
1408129667909,3.52989566171,16.5338680913,0.301308859697,0.0
1408129667939,3.40552810455,13.591423803,-0.542678340167,0.0
1408129667940,2.7418378114,11.2866576406,-1.12867101695,0.0
1408129667940,2.53119564272,10.4437090515,-1.06762237377,0.0
1408129667945,2.30376505891,10.9784467097,-0.289319531422,0.0
1408129667967,1.78268494462,10.8812281335,0.0783763733679,0.0
1408129667967,1.13662496599,9.4862462929,-0.48075781823,0.0
1408129667976,0.658067330844,7.938139033,-1.04984816084,0.0
1408129667994,-0.114915659634,7.41167404497,-1.37627715737,0.0
1408129667996,-0.813641380537,7.62280502213,-1.22874749046,0.0
1408129668013,-1.36989566218,7.7112748024,-0.994017051859,0.0
1408129668035,-1.69106788467,7.55971270745,-0.478174420656,0.0
1408129668035,-1.53405880868,7.29576962549,0.0687197856342,0.0
1408129668036,-1.16934844161,6.67736446457,0.201790784697,0.0
1408129668045,-0.63546005604,5.80159631532,-0.125478004998,0.0
1408129668068,-0.381989720434,5.08396221861,-0.601992001284,0.0
1408129668068,-0.174773640707,4.44208921312,-1.06416270568,0.0
1408129668077,-0.137300160177,3.95836767889,-1.43334465929,0.0
1408129668092,-0.16287704039,3.81888640726,-1.66216962074,0.0
1408129668096,-0.135688497425,4.00155725267,-1.76157019988,0.0
1408129668110,-0.115551980855,4.29267749155,-1.71387341006,0.0
1408129668128,-0.266307148576,4.58256975535,-1.520828475,0.0
1408129668129,-0.546815348261,4.88693172399,-1.25012541478,0.0
1408129668149,-1.02151154799,5.25284642715,-1.05087526212,0.0
1408129668150,-1.61456168587,5.93526077579,-1.19173949638,0.0
1408129668157,-2.13603371905,6.83200239732,-1.54897963573,0.0
1408129668183,-2.3008982552,7.54461992965,-1.81756199914,0.0
1408129668183,-2.44489225961,8.3049637929,-1.76930970561,0.0
1408129668185,-2.55301669885,9.46610535189,-1.64543506633,0.0
1408129668214,-2.58711014539,10.7190000107,-1.59316689489,0.0
1408129668214,-2.4280706463,11.6065683359,-1.6122786261,0.0
1408129668216,-2.1874339463,11.7694648795,-1.63137625208,0.0
1408129668225,-1.73459364074,11.2463127884,-1.53704870096,0.0
1408129668248,-1.21755816934,11.974967678,-1.00652310041,0.0
1408129668248,-0.423425371937,14.2239406257,-0.168247556503,0.0
1408129668257,-0.200193112588,16.0307860206,0.430791183559,0.0
1408129668288,-0.239169871414,16.6605414963,0.570602579394,0.0
1408129668289,-1.26196810467,13.9277052817,-0.0341049864713,0.0
1408129668290,-2.85325437486,11.8444060796,-1.52196882455,0.0
1408129668296,-3.06905617471,10.8641458327,-3.89153154709,0.0
1408129668318,-1.41749779528,13.3401107454,-6.26296351985,0.0
1408129668319,-0.00521432736805,17.4961380039,-2.14792273522,17.4961380039
1408129668325,1.62783175114,15.8501825147,3.04829131801,0.0
1408129668349,3.53178862141,12.7721865393,2.4833486406,0.0
1408129668350,4.16898993433,11.2817836553,0.571090852814,0.0
1408129668356,4.0375231506,9.52407129021,0.33811244695,0.0
1408129668384,4.14396655866,8.58592653654,-0.276883380324,0.0
1408129668385,4.23408820883,8.73995930296,-0.528798541462,0.0
1408129668385,4.10454891081,8.48463822868,0.61150759914,0.0
1408129668419,3.87488038174,7.74986862822,1.38121340923,0.0
1408129668420,3.42725976963,7.69380980763,1.48865842589,0.0
1408129668420,2.6827449484,8.23766405362,1.9393391025,0.0
1408129668425,2.10829254575,8.8569611877,2.4544428318,0.0
1408129668446,1.21235416205,9.28700096687,2.51116234847,0.0
1408129668447,0.00855576676873,9.4364466944,1.97075757283,0.0
1408129668457,-0.568575387176,9.64847826034,1.72513669345,0.0
1408129668484,-0.728605939436,10.0430469657,1.64564466441,0.0
1408129668485,-0.797488465135,9.98477189066,1.41930562747,0.0
1408129668486,-0.394709441933,9.41195877313,1.19168801361,0.0
1408129668517,0.369953938979,8.89619575379,0.692983246963,0.0
1408129668517,1.1099405309,8.37313907547,0.358039513199,0.0
1408129668518,1.57480620081,8.04094380945,0.321683923937,0.0
1408129668525,1.77574558158,7.75239452197,0.49871716693,0.0
1408129668547,1.84426012537,7.6425886961,0.703469427394,0.0
1408129668547,1.94353486386,7.43736198966,0.912488012373,0.0
1408129668559,1.94558810103,7.34422172267,0.988429348069,0.0
1408129668584,1.71040483594,7.45978888949,0.838086375879,0.0
1408129668584,1.23768339805,7.58503122859,0.906791694786,0.0
1408129668585,0.920749779732,7.58506155677,1.01483876584,0.0
1408129668611,0.543462272871,7.6439560782,1.09644155861,0.0
1408129668612,0.177834265749,7.54320087941,1.26028544483,0.0
1408129668627,-0.351955017134,7.67024798248,1.45391528314,0.0
1408129668628,-0.911617967578,8.12177871588,1.56369656897,0.0
1408129668644,-1.31956838769,8.5437469753,1.43231758142,0.0
1408129668665,-1.73365899019,8.99403814519,1.05578101077,0.0
1408129668666,-2.29723293978,9.04579727596,0.823832532743,0.0
1408129668666,-2.56342949188,8.51562937843,0.608208167208,0.0
1408129668692,-2.54706589849,8.18671429043,0.117374450623,0.0
1408129668692,-2.24973153206,8.01493774482,-0.332460992874,0.0
1408129668708,-1.79969794503,7.9156236183,-0.624372404653,0.0
1408129668709,-1.50745084735,7.86527405385,-0.715566015653,0.0
1408129668725,-1.49319877271,8.00650599588,-0.583099732869,0.0
1408129668725,-1.64583737491,8.16595267324,-0.399693491871,0.0
1408129668742,-1.8987890798,8.26510183512,-0.213283755575,0.0
1408129668759,-2.0624610818,8.34616243774,-0.247793380108,0.0
1408129668760,-2.07145753878,8.22409006668,-0.508618016354,0.0
1408129668773,-2.37383233434,8.32406161827,-1.09495904348,0.0
1408129668790,-2.28218221453,8.62753987765,-0.972575192645,0.0
1408129668791,-1.98334755317,8.82682083893,-0.746302680295,0.0
1408129668806,-2.02431847292,9.00174462447,0.105637004424,0.0
1408129668807,-2.72416615352,8.87298151377,1.02442136029,0.0
1408129668832,-3.53465535177,9.26881244954,1.10932400426,0.0
1408129668832,-4.06770680984,9.45052353874,0.271291338696,0.0
1408129668837,-3.32844086531,9.79022482034,-0.340762838708,0.0
1408129668870,-2.34483528089,10.414936681,-0.0731957640343,0.0
1408129668870,-2.04793006193,11.2465922639,0.30304021506,0.0
1408129668871,-1.39830115354,11.957387413,0.201200270932,0.0
1408129668877,-0.587067842377,11.3755065248,0.870628967547,0.0
1408129668894,-0.506478580919,10.1111499348,1.56869051405,0.0
1408129668907,-0.864556619436,9.95123704511,0.911293629289,0.0
1408129668908,-1.00870189818,10.2874118379,0.618619431638,0.0
1408129668922,-0.0387276735437,9.80258291178,1.17981811043,0.0
1408129668925,1.41337565642,8.57490005499,1.65099694534,0.0
1408129668941,2.68985743555,8.16310640645,1.89701879373,0.0
1408129668962,3.24757278829,9.26323797578,1.92274718608,0.0
1408129668962,3.20946313119,12.0291070446,1.02422055067,0.0
1408129668965,2.626769515,16.40221729,0.354161112478,0.0
1408129668977,1.6901565285,20.2856354858,1.12960874242,0.0
1408129668990,1.59447064257,20.4867402313,2.24434488103,20.4867402313
1408129669008,2.26665463637,19.0556869044,1.52804497139,0.0
1408129669008,2.56617661578,15.5566615039,0.0500813949294,0.0
1408129669031,2.43043883095,12.4838395289,-1.04288559495,0.0
1408129669031,2.22253972477,10.524346436,-1.77194935042,0.0
1408129669038,2.65314089209,10.1932459764,-1.29759746964,0.0
1408129669066,2.78578707425,10.5312203179,-0.383957980358,0.0
1408129669067,2.59710050502,9.82361739866,-0.147452892051,0.0
1408129669067,2.22888748298,8.01916134018,-0.805514293772,0.0
1408129669079,1.61565479418,6.95016630219,-1.41643701226,0.0
1408129669097,0.853064912817,6.9004518319,-1.49015198779,0.0
1408129669100,-0.369019939275,7.30163192057,-1.32494459548,0.0
1408129669106,-1.38846045268,7.67250753058,-1.0108670996,0.0
1408129669129,-1.65780740548,7.48324767783,-0.540140489785,0.0
1408129669129,-1.83028089025,7.49834432876,-0.070121240391,0.0
1408129669138,-1.69237316974,6.80142954075,0.195672353728,0.0
1408129669174,-1.17585027416,5.67370145102,0.163460554621,0.0
1408129669175,-0.932789631832,5.08861684291,-0.324565315298,0.0
1408129669175,-0.834927056524,4.5037696325,-0.79220147804,0.0
1408129669195,-0.826952665144,4.16377689637,-1.2294096762,0.0
1408129669195,-0.626649390358,3.99877813969,-1.55056653943,0.0
1408129669198,-0.373717922618,4.04399722214,-1.64057300122,0.0
1408129669206,-0.146343646194,4.21323340145,-1.65355417005,0.0
1408129669229,-0.0249152719773,4.56043898265,-1.54625163195,0.0
1408129669230,-0.0455371889617,4.81200207662,-1.41511160278,0.0
1408129669238,-0.546557467378,5.7000923579,-1.30798340556,0.0
1408129669271,-0.801910092641,6.30981987984,-1.63261503915,0.0
1408129669271,-1.13851287168,7.06408793291,-2.1378690298,0.0
1408129669272,-1.43973728313,8.04185364603,-2.4598070536,0.0
1408129669295,-1.81421155542,9.44128250624,-2.39009830899,0.0
1408129669299,-1.86341144229,11.1753654616,-2.13414842212,0.0
1408129669300,-1.43945663308,12.3384603271,-1.39876948003,0.0
1408129669306,-0.605196605116,12.1356330553,-0.875419851595,0.0
1408129669336,0.367194946897,10.9334558802,-0.572577387452,0.0
1408129669336,0.722101563122,12.1265901567,0.217336549438,0.0
1408129669338,0.665017358735,14.8652123165,0.805920237194,0.0
1408129669365,0.38752265131,16.0291983084,0.93653171097,0.0
1408129669366,-1.26969682564,15.2863024489,1.17572588286,0.0
1408129669366,-3.03020825656,11.876671605,0.398748117859,0.0
1408129669390,-4.43784949214,9.65745689649,-2.22013836683,0.0
1408129669390,-4.14083596642,10.2143606064,-6.98556367846,0.0
1408129669408,-1.73641845383,14.4516661899,-7.72893501143,0.0
1408129669409,-0.389753621011,19.73238032,0.28222032606,19.73238032
1408129669433,2.57445814169,16.6746156859,5.29781070579,0.0
1408129669434,3.75032861322,13.6311120447,2.79591699336,0.0
1408129669438,2.87347364486,12.01313842,0.901098642591,0.0
1408129669466,2.92546124907,10.064672824,-0.239432743027,0.0
1408129669467,3.3070472975,10.1476341382,-1.67239531473,0.0
1408129669467,3.01421231071,10.7376696805,-0.495854241241,0.0
1408129669486,2.54417415839,9.63950856639,2.1635950055,0.0
1408129669487,2.48262810656,8.25808920333,1.65109728551,0.0
1408129669503,2.52699099875,7.55594519406,0.616834194143,0.0
1408129669506,2.05016790906,7.45586886622,0.885638719965,0.0
1408129669526,1.54418849497,7.46030636551,1.21893843888,0.0
1408129669527,0.65665685957,7.49041543554,0.89282076923,0.0
1408129669546,-0.100324113395,7.55192262397,0.585309737365,0.0
1408129669547,-0.41571648419,8.18658008866,0.383773152511,0.0
1408129669558,-0.364511171057,9.56091400615,0.261207008477,0.0
1408129669577,-0.437650031836,10.3194284666,0.3447161645,0.0
1408129669578,-0.225368639526,10.1589361943,0.472159915447,0.0
1408129669586,0.31243143605,9.87372378282,0.820187957734,0.0
1408129669606,0.773514641672,9.57675004163,1.15788309268,0.0
1408129669607,0.855203340065,9.52928167418,1.47439140444,0.0
1408129669629,1.12601355446,9.28227855797,1.91769237197,0.0
1408129669629,1.39166094673,8.77281762992,1.86559257245,0.0
1408129669642,1.57540799008,8.29566886701,1.59689247619,0.0
1408129669661,1.61152489767,7.78993423128,1.36909392471,0.0
1408129669662,1.38124131305,7.38201395016,0.919323327332,0.0
1408129669666,1.00280529341,7.25329812176,0.381277968738,0.0
1408129669693,0.670064757599,6.94537111921,0.138697179367,0.0
1408129669694,0.608693796872,6.76423335209,0.135470201694,0.0
1408129669699,0.452384323074,6.9505058654,0.35811168956,0.0
1408129669706,0.0999138654836,7.29312183522,0.7067078575,0.0
1408129669731,-0.184123642724,7.24027270857,0.937812402347,0.0
1408129669732,-0.657605262705,7.53121651392,0.696070540043,0.0
1408129669738,-1.1488509409,7.71792447984,0.510391892995,0.0
1408129669765,-1.71121054454,7.61105125266,0.301741011711,0.0
1408129669766,-2.18387199098,7.53766494396,0.00866685225888,0.0
1408129669767,-2.27758107753,7.64770426354,-0.340283613239,0.0
1408129669797,-2.13362937841,7.60672068179,-0.356140434766,0.0
1408129669798,-1.91998304505,7.78849813475,-0.296545546871,0.0
1408129669798,-1.69624136065,7.91280715382,-0.341968651308,0.0
1408129669806,-1.65000143279,8.13114009771,-0.22762649745,0.0
1408129669829,-1.62022661834,8.40294143259,-0.148075852958,0.0
1408129669829,-1.5447531811,8.79703562399,-0.111383332153,0.0
1408129669838,-1.43438459693,8.95953436366,-0.333786447012,0.0
1408129669862,-1.15721489797,9.13413395445,-0.666231493372,0.0
1408129669863,-0.822730330783,9.3523340118,-0.803044188682,0.0
1408129669869,-0.584185735991,9.63227977239,-0.509832508872,0.0
1408129669898,-0.807602894948,9.62099091276,-0.00341637979973,0.0
1408129669898,-1.71437760464,9.24499774658,0.328732656172,0.0
1408129669899,-2.7265791488,9.00516907135,-0.0491724472241,0.0
1408129669907,-3.11442028173,9.43960719733,-0.857804352502,0.0
1408129669934,-3.03048131113,9.95738966961,-0.968377075437,0.0
1408129669934,-2.78041604416,10.4858874358,-0.40864545897,0.0
1408129669940,-2.55672346933,11.0139736682,0.385574880786,0.0
1408129669966,-2.333615151,11.833821366,0.523364846842,0.0
1408129669967,-1.68898300775,11.9630402383,0.415528949636,0.0
1408129669967,-1.50690564311,10.8581579848,0.939196678976,0.0
1408129669993,-1.74633150743,10.2631173748,0.559967920655,0.0
1408129669993,-1.49397723058,10.4107212276,0.128484463655,0.0
1408129670005,-0.969728220902,10.2776006259,1.28826618668,0.0
1408129670006,0.260932885974,9.43856961964,2.08674727667,0.0
1408129670031,1.8089330425,8.31841250088,2.05838245166,0.0
1408129670034,2.84684530194,8.215201492,1.91077157416,0.0
1408129670041,3.01216902364,9.46188662902,1.20094761305,0.0
1408129670058,2.89769506261,12.4289877421,-0.0968249361554,0.0
1408129670060,2.36829045876,17.1820029412,-0.516909780759,0.0
1408129670076,2.4636296648,20.7554058837,0.600809312649,0.0
1408129670078,3.31532687173,20.7809522845,1.60555766521,20.7809522845
1408129670086,3.8056111855,17.9321584062,1.01238061338,0.0
1408129670106,3.45196072952,14.4542405994,0.325679723772,0.0
1408129670106,3.01156970456,11.3174504135,-0.684920889851,0.0
1408129670127,2.86282881754,9.0161577239,-1.6001559691,0.0
1408129670128,2.6168552461,10.0235548411,-1.17310136893,0.0
1408129670138,2.22556257153,10.2967644093,-0.578743293679,0.0
1408129670171,1.66765944368,9.4204424948,-0.796189940817,0.0
1408129670172,0.813586335609,8.02214319106,-1.55789772552,0.0
1408129670172,-0.036786494055,7.06697580071,-2.21773650107,0.0
1408129670203,-1.20038821517,7.2720657671,-2.33233497611,0.0
1408129670204,-2.0427267374,7.66677603147,-1.78318629123,0.0
1408129670205,-2.73348264297,7.93582656757,-0.93932631251,0.0
1408129670207,-2.98545601732,7.89515496186,-0.068502309823,0.0
1408129670230,-2.52814234339,7.19267870958,0.440331196917,0.0
1408129670231,-1.65054032815,6.12204357181,0.32829789098,0.0
1408129670239,-1.13091944885,5.33208107642,-0.121093750534,0.0
1408129670267,-1.04802802407,4.90408913793,-0.557574769337,0.0
1408129670267,-0.973648345511,4.65062234698,-0.991103318111,0.0
1408129670268,-0.791132976566,4.66804253431,-1.30723696216,0.0
1408129670292,-0.751886373234,5.00911927184,-1.49783265929,0.0
1408129670293,-0.579977840831,5.45100752424,-1.54427778745,0.0
