index,i,acc_x,acc_y,acc_z
0,0,[0.05024338917807755, 0.9715292227001385, -0.003757597526573308],[0.1442632753267138, 0.7953770492275027, 0.07422882085636653],[0.18005558393351795, 0.6996423821617048, 0.08687998122012722]
0,1,[0.05024338917807755, 0.9715292227001385, -0.003757597526573308],[0.1442632753267138, 0.7953770492275027, 0.07422882085636653],[0.18005558393351795, 0.6996423821617048, 0.08687998122012722]
0,2,[0.05024338917807755, 0.9715292227001385, -0.003757597526573308],[0.1442632753267138, 0.7953770492275027, 0.07422882085636653],[0.18005558393351795, 0.6996423821617048, 0.08687998122012722]
0,3,[0.05024338917807755, 0.9715292227001385, -0.003757597526573308],[0.1442632753267138, 0.7953770492275027, 0.07422882085636653],[0.18005558393351795, 0.6996423821617048, 0.08687998122012722]
0,4,[0.05024338917807755, 0.9715292227001385, -0.003757597526573308],[0.1442632753267138, 0.7953770492275027, 0.07422882085636653],[0.18005558393351795, 0.6996423821617048, 0.08687998122012722]
0,5,[0.05024338917807755, 0.9715292227001385, -0.003757597526573308],[0.1442632753267138, 0.7953770492275027, 0.07422882085636653],[0.18005558393351795, 0.6996423821617048, 0.08687998122012722]
0,6,[0.05024338917807755, 0.9715292227001385, -0.003757597526573308],[0.1442632753267138, 0.7953770492275027, 0.07422882085636653],[0.18005558393351795, 0.6996423821617048, 0.08687998122012722]
0,7,[0.05024338917807755, 0.9715292227001385, -0.003757597526573308],[0.1442632753267138, 0.7953770492275027, 0.07422882085636653],[0.18005558393351795, 0.6996423821617048, 0.08687998122012722]
0,8,[0.05024338917807755, 0.9715292227001385, -0.003757597526573308],[0.1442632753267138, 0.7953770492275027, 0.07422882085636653],[0.18005558393351795, 0.6996423821617048, 0.08687998122012722]
0,9,[0.05024338917807755, 0.9715292227001385, -0.003757597526573308],[0.1442632753267138, 0.7953770492275027, 0.07422882085636653],[0.18005558393351795, 0.6996423821617048, 0.08687998122012722]
0,10,[0.05024338917807755, 0.9715292227001385, -0.003757597526573308],[0.1442632753267138, 0.7953770492275027, 0.07422882085636653],[0.18005558393351795, 0.6996423821617048, 0.08687998122012722]
0,11,[0.05024338917807755, 0.9715292227001385, -0.003757597526573308],[0.1442632753267138, 0.7953770492275027, 0.07422882085636653],[0.18005558393351795, 0.6996423821617048, 0.08687998122012722]
0,12,[0.05024338917807755, 0.9715292227001385, -0.003757597526573308],[0.1442632753267138, 0.7953770492275027, 0.07422882085636653],[0.18005558393351795, 0.6996423821617048, 0.08687998122012722]
0,13,[0.05024338917807755, 0.9715292227001385, -0.003757597526573308],[0.1442632753267138, 0.7953770492275027, 0.07422882085636653],[0.18005558393351795, 0.6996423821617048, 0.08687998122012722]
0,14,[0.05024338917807755, 0.9715292227001385, -0.003757597526573308],[0.1442632753267138, 0.7953770492275027, 0.07422882085636653],[0.18005558393351795, 0.6996423821617048, 0.08687998122012722]
0,15,[0.05024338917807755, 0.9715292227001385, -0.003757597526573308],[0.1442632753267138, 0.7953770492275027, 0.07422882085636653],[0.18005558393351795, 0.6996423821617048, 0.08687998122012722]
0,16,[0.05024338917807755, 0.9715292227001385, -0.003757597526573308],[0.1442632753267138, 0.7953770492275027, 0.07422882085636653],[0.18005558393351795, 0.6996423821617048, 0.08687998122012722]
0,17,[0.05024338917807755, 0.9715292227001385, -0.003757597526573308],[0.1442632753267138, 0.7953770492275027, 0.07422882085636653],[0.18005558393351795, 0.6996423821617048, 0.08687998122012722]
0,18,[0.05024338917807755, 0.9715292227001385, -0.003757597526573308],[0.1442632753267138, 0.7953770492275027, 0.07422882085636653],[0.18005558393351795, 0.6996423821617048, 0.08687998122012722]
0,19,[0.05024338917807755, 0.9715292227001385, -0.003757597526573308],[0.1442632753267138, 0.7953770492275027, 0.07422882085636653],[0.18005558393351795, 0.6996423821617048, 0.08687998122012722]
0,20,[0.05024338917807755, 0.9715292227001385, -0.003757597526573308],[0.1442632753267138, 0.7953770492275027, 0.07422882085636653],[0.18005558393351795, 0.6996423821617048, 0.08687998122012722]
0,21,[0.05024338917807755, 0.9715292227001385, -0.003757597526573308],[0.1442632753267138, 0.7953770492275027, 0.07422882085636653],[0.18005558393351795, 0.6996423821617048, 0.08687998122012722]
0,22,[0.05024338917807755, 0.9715292227001385, -0.003757597526573308],[0.1442632753267138, 0.7953770492275027, 0.07422882085636653],[0.18005558393351795, 0.6996423821617048, 0.08687998122012722]
0,23,[0.05024338917807755, 0.9715292227001385, -0.003757597526573308],[0.1442632753267138, 0.7953770492275027, 0.07422882085636653],[0.18005558393351795, 0.6996423821617048, 0.08687998122012722]
0,24,[0.05024338917807755, 0.9715292227001385, -0.003757597526573308],[0.1442632753267138, 0.7953770492275027, 0.07422882085636653],[0.18005558393351795, 0.6996423821617048, 0.08687998122012722]
0,25,[0.05024338917807755, 0.9715292227001385, -0.003757597526573308],[0.1442632753267138, 0.7953770492275027, 0.07422882085636653],[0.18005558393351795, 0.6996423821617048, 0.08687998122012722]
0,26,[0.05024338917807755, 0.9715292227001385, -0.003757597526573308],[0.1442632753267138, 0.7953770492275027, 0.07422882085636653],[0.18005558393351795, 0.6996423821617048, 0.08687998122012722]
0,27,[0.05024338917807755, 0.9715292227001385, -0.003757597526573308],[0.1442632753267138, 0.7953770492275027, 0.07422882085636653],[0.18005558393351795, 0.6996423821617048, 0.08687998122012722]
0,28,[0.05024338917807755, 0.9715292227001385, -0.003757597526573308],[0.1442632753267138, 0.7953770492275027, 0.07422882085636653],[0.18005558393351795, 0.6996423821617048, 0.08687998122012722]
0,29,[0.05024338917807755, 0.9715292227001385, -0.003757597526573308],[0.1442632753267138, 0.7953770492275027, 0.07422882085636653],[0.18005558393351795, 0.6996423821617048, 0.08687998122012722]
0,30,[0.05024338917807755, 0.9715292227001385, -0.003757597526573308],[0.1442632753267138, 0.7953770492275027, 0.07422882085636653],[0.18005558393351795, 0.6996423821617048, 0.08687998122012722]
0,31,[0.05024338917807755, 0.9715292227001385, -0.003757597526573308],[0.1442632753267138, 0.7953770492275027, 0.07422882085636653],[0.18005558393351795, 0.6996423821617048, 0.08687998122012722]
0,32,[0.05024338917807755, 0.9715292227001385, -0.003757597526573308],[0.1442632753267138, 0.7953770492275027, 0.07422882085636653],[0.18005558393351795, 0.6996423821617048, 0.08687998122012722]
0,33,[0.05024338917807755, 0.9715292227001385, -0.003757597526573308],[0.1442632753267138, 0.7953770492275027, 0.07422882085636653],[0.18005558393351795, 0.6996423821617048, 0.08687998122012722]
0,34,[0.05024338917807755, 0.9715292227001385, -0.003757597526573308],[0.1442632753267138, 0.7953770492275027, 0.07422882085636653],[0.18005558393351795, 0.6996423821617048, 0.08687998122012722]
0,35,[0.05024338917807755, 0.9715292227001385, -0.003757597526573308],[0.1442632753267138, 0.7953770492275027, 0.07422882085636653],[0.18005558393351795, 0.6996423821617048, 0.08687998122012722]
0,36,[0.05024338917807755, 0.9715292227001385, -0.003757597526573308],[0.1442632753267138, 0.7953770492275027, 0.07422882085636653],[0.18005558393351795, 0.6996423821617048, 0.08687998122012722]
0,37,[0.05024338917807755, 0.9715292227001385, -0.003757597526573308],[0.1442632753267138, 0.7953770492275027, 0.07422882085636653],[0.18005558393351795, 0.6996423821617048, 0.08687998122012722]
0,38,[0.05024338917807755, 0.9715292227001385, -0.003757597526573308],[0.1442632753267138, 0.7953770492275027, 0.07422882085636653],[0.18005558393351795, 0.6996423821617048, 0.08687998122012722]
0,39,[0.05024338917807755, 0.9715292227001385, -0.003757597526573308],[0.1442632753267138, 0.7953770492275027, 0.07422882085636653],[0.18005558393351795, 0.6996423821617048, 0.08687998122012722]
0,40,[0.05024338917807755, 0.9715292227001385, -0.003757597526573308],[0.1442632753267138, 0.7953770492275027, 0.07422882085636653],[0.18005558393351795, 0.6996423821617048, 0.08687998122012722]
0,41,[0.05024338917807755, 0.9715292227001385, -0.003757597526573308],[0.1442632753267138, 0.7953770492275027, 0.07422882085636653],[0.18005558393351795, 0.6996423821617048, 0.08687998122012722]
0,42,[0.05024338917807755, 0.9715292227001385, -0.003757597526573308],[0.1442632753267138, 0.7953770492275027, 0.07422882085636653],[0.18005558393351795, 0.6996423821617048, 0.08687998122012722]
0,43,[0.05024338917807755, 0.9715292227001385, -0.003757597526573308],[0.1442632753267138, 0.7953770492275027, 0.07422882085636653],[0.18005558393351795, 0.6996423821617048, 0.08687998122012722]
0,44,[0.05024338917807755, 0.9715292227001385, -0.003757597526573308],[0.1442632753267138, 0.7953770492275027, 0.07422882085636653],[0.18005558393351795, 0.6996423821617048, 0.08687998122012722]
0,45,[0.05024338917807755, 0.9715292227001385, -0.003757597526573308],[0.1442632753267138, 0.7953770492275027, 0.07422882085636653],[0.18005558393351795, 0.6996423821617048, 0.08687998122012722]
0,46,[0.05024338917807755, 0.9715292227001385, -0.003757597526573308],[0.1442632753267138, 0.7953770492275027, 0.07422882085636653],[0.18005558393351795, 0.6996423821617048, 0.08687998122012722]
0,47,[0.05024338917807755, 0.9715292227001385, -0.003757597526573308],[0.1442632753267138, 0.7953770492275027, 0.07422882085636653],[0.18005558393351795, 0.6996423821617048, 0.08687998122012722]
0,48,[0.05024338917807755, 0.9715292227001385, -0.003757597526573308],[0.1442632753267138, 0.7953770492275027, 0.07422882085636653],[0.18005558393351795, 0.6996423821617048, 0.08687998122012722]
0,49,[0.05024338917807755, 0.9715292227001385, -0.003757597526573308],[0.1442632753267138, 0.7953770492275027, 0.07422882085636653],[0.18005558393351795, 0.6996423821617048, 0.08687998122012722]
0,50,[0.05024338917807755, 0.9715292227001385, -0.003757597526573308],[0.1442632753267138, 0.7953770492275027, 0.07422882085636653],[0.18005558393351795, 0.6996423821617048, 0.08687998122012722]
0,51,[0.05024338917807755, 0.9715292227001385, -0.003757597526573308],[0.1442632753267138, 0.7953770492275027, 0.07422882085636653],[0.18005558393351795, 0.6996423821617048, 0.08687998122012722]
0,52,[0.05024338917807755, 0.9715292227001385, -0.003757597526573308],[0.1442632753267138, 0.7953770492275027, 0.07422882085636653],[0.18005558393351795, 0.6996423821617048, 0.08687998122012722]
0,53,[0.05024338917807755, 0.9715292227001385, -0.003757597526573308],[0.1442632753267138, 0.7953770492275027, 0.07422882085636653],[0.18005558393351795, 0.6996423821617048, 0.08687998122012722]
0,54,[0.05024338917807755, 0.9715292227001385, -0.003757597526573308],[0.1442632753267138, 0.7953770492275027, 0.07422882085636653],[0.18005558393351795, 0.6996423821617048, 0.08687998122012722]
0,55,[0.05024338917807755, 0.9715292227001385, -0.003757597526573308],[0.1442632753267138, 0.7953770492275027, 0.07422882085636653],[0.18005558393351795, 0.6996423821617048, 0.08687998122012722]
0,56,[0.05024338917807755, 0.9715292227001385, -0.003757597526573308],[0.1442632753267138, 0.7953770492275027, 0.07422882085636653],[0.18005558393351795, 0.6996423821617048, 0.08687998122012722]
0,57,[0.05024338917807755, 0.9715292227001385, -0.003757597526573308],[0.1442632753267138, 0.7953770492275027, 0.07422882085636653],[0.18005558393351795, 0.6996423821617048, 0.08687998122012722]
0,58,[0.05024338917807755, 0.9715292227001385, -0.003757597526573308],[0.1442632753267138, 0.7953770492275027, 0.07422882085636653],[0.18005558393351795, 0.6996423821617048, 0.08687998122012722]
0,59,[0.05024338917807755, 0.9715292227001385, -0.003757597526573308],[0.1442632753267138, 0.7953770492275027, 0.07422882085636653],[0.18005558393351795, 0.6996423821617048, 0.08687998122012722]
0,60,[0.05024338917807755, 0.9715292227001385, -0.003757597526573308],[0.1442632753267138, 0.7953770492275027, 0.07422882085636653],[0.18005558393351795, 0.6996423821617048, 0.08687998122012722]
0,61,[0.05024338917807755, 0.9715292227001385, -0.003757597526573308],[0.1442632753267138, 0.7953770492275027, 0.07422882085636653],[0.18005558393351795, 0.6996423821617048, 0.08687998122012722]
0,62,[0.05024338917807755, 0.9715292227001385, -0.003757597526573308],[0.1442632753267138, 0.7953770492275027, 0.07422882085636653],[0.18005558393351795, 0.6996423821617048, 0.08687998122012722]
0,63,[0.05024338917807755, 0.9715292227001385, -0.003757597526573308],[0.1442632753267138, 0.7953770492275027, 0.07422882085636653],[0.18005558393351795, 0.6996423821617048, 0.08687998122012722]
0,64,[0.05024338917807755, 0.9715292227001385, -0.003757597526573308],[0.1442632753267138, 0.7953770492275027, 0.07422882085636653],[0.18005558393351795, 0.6996423821617048, 0.08687998122012722]
0,65,[0.05024338917807755, 0.9715292227001385, -0.003757597526573308],[0.1442632753267138, 0.7953770492275027, 0.07422882085636653],[0.18005558393351795, 0.6996423821617048, 0.08687998122012722]
0,66,[0.05024338917807755, 0.9715292227001385, -0.003757597526573308],[0.1442632753267138, 0.7953770492275027, 0.07422882085636653],[0.18005558393351795, 0.6996423821617048, 0.08687998122012722]
0,67,[0.05024338917807755, 0.9715292227001385, -0.003757597526573308],[0.1442632753267138, 0.7953770492275027, 0.07422882085636653],[0.18005558393351795, 0.6996423821617048, 0.08687998122012722]
0,68,[0.05024338917807755, 0.9715292227001385, -0.003757597526573308],[0.1442632753267138, 0.7953770492275027, 0.07422882085636653],[0.18005558393351795, 0.6996423821617048, 0.08687998122012722]
0,69,[0.05024338917807755, 0.9715292227001385, -0.003757597526573308],[0.1442632753267138, 0.7953770492275027, 0.07422882085636653],[0.18005558393351795, 0.6996423821617048, 0.08687998122012722]
0,70,[0.05024338917807755, 0.9715292227001385, -0.003757597526573308],[0.1442632753267138, 0.7953770492275027, 0.07422882085636653],[0.18005558393351795, 0.6996423821617048, 0.08687998122012722]
0,71,[0.05024338917807755, 0.9715292227001385, -0.003757597526573308],[0.1442632753267138, 0.7953770492275027, 0.07422882085636653],[0.18005558393351795, 0.6996423821617048, 0.08687998122012722]
0,72,[0.05024338917807755, 0.9715292227001385, -0.003757597526573308],[0.1442632753267138, 0.7953770492275027, 0.07422882085636653],[0.18005558393351795, 0.6996423821617048, 0.08687998122012722]
0,73,[0.05024338917807755, 0.9715292227001385, -0.003757597526573308],[0.1442632753267138, 0.7953770492275027, 0.07422882085636653],[0.18005558393351795, 0.6996423821617048, 0.08687998122012722]
0,74,[0.05024338917807755, 0.9715292227001385, -0.003757597526573308],[0.1442632753267138, 0.7953770492275027, 0.07422882085636653],[0.18005558393351795, 0.6996423821617048, 0.08687998122012722]
0,75,[0.05024338917807755, 0.9715292227001385, -0.003757597526573308],[0.1442632753267138, 0.7953770492275027, 0.07422882085636653],[0.18005558393351795, 0.6996423821617048, 0.08687998122012722]
0,76,[0.05024338917807755, 0.9715292227001385, -0.003757597526573308],[0.1442632753267138, 0.7953770492275027, 0.07422882085636653],[0.18005558393351795, 0.6996423821617048, 0.08687998122012722]
0,77,[0.05024338917807755, 0.9715292227001385, -0.003757597526573308],[0.1442632753267138, 0.7953770492275027, 0.07422882085636653],[0.18005558393351795, 0.6996423821617048, 0.08687998122012722]
0,78,[0.05024338917807755, 0.9715292227001385, -0.003757597526573308],[0.1442632753267138, 0.7953770492275027, 0.07422882085636653],[0.18005558393351795, 0.6996423821617048, 0.08687998122012722]
0,79,[0.05024338917807755, 0.9715292227001385, -0.003757597526573308],[0.1442632753267138, 0.7953770492275027, 0.07422882085636653],[0.18005558393351795, 0.6996423821617048, 0.08687998122012722]
0,80,[0.05024338917807755, 0.9715292227001385, -0.003757597526573308],[0.1442632753267138, 0.7953770492275027, 0.07422882085636653],[0.18005558393351795, 0.6996423821617048, 0.08687998122012722]
0,81,[0.05024338917807755, 0.9715292227001385, -0.003757597526573308],[0.1442632753267138, 0.7953770492275027, 0.07422882085636653],[0.18005558393351795, 0.6996423821617048, 0.08687998122012722]
0,82,[0.05024338917807755, 0.9715292227001385, -0.003757597526573308],[0.1442632753267138, 0.7953770492275027, 0.07422882085636653],[0.18005558393351795, 0.6996423821617048, 0.08687998122012722]
0,83,[0.05024338917807755, 0.9715292227001385, -0.003757597526573308],[0.1442632753267138, 0.7953770492275027, 0.07422882085636653],[0.18005558393351795, 0.6996423821617048, 0.08687998122012722]
0,84,[0.05024338917807755, 0.9715292227001385, -0.003757597526573308],[0.1442632753267138, 0.7953770492275027, 0.07422882085636653],[0.18005558393351795, 0.6996423821617048, 0.08687998122012722]
0,85,[0.05024338917807755, 0.9715292227001385, -0.003757597526573308],[0.1442632753267138, 0.7953770492275027, 0.07422882085636653],[0.18005558393351795, 0.6996423821617048, 0.08687998122012722]
0,86,[0.05024338917807755, 0.9715292227001385, -0.003757597526573308],[0.1442632753267138, 0.7953770492275027, 0.07422882085636653],[0.18005558393351795, 0.6996423821617048, 0.08687998122012722]
0,87,[0.05024338917807755, 0.9715292227001385, -0.003757597526573308],[0.1442632753267138, 0.7953770492275027, 0.07422882085636653],[0.18005558393351795, 0.6996423821617048, 0.08687998122012722]
0,88,[0.05024338917807755, 0.9715292227001385, -0.003757597526573308],[0.1442632753267138, 0.7953770492275027, 0.07422882085636653],[0.18005558393351795, 0.6996423821617048, 0.08687998122012722]
0,89,[0.05024338917807755, 0.9715292227001385, -0.003757597526573308],[0.1442632753267138, 0.7953770492275027, 0.07422882085636653],[0.18005558393351795, 0.6996423821617048, 0.08687998122012722]
0,90,[0.05024338917807755, 0.9715292227001385, -0.003757597526573308],[0.1442632753267138, 0.7953770492275027, 0.07422882085636653],[0.18005558393351795, 0.6996423821617048, 0.08687998122012722]
0,91,[0.05024338917807755, 0.9715292227001385, -0.003757597526573308],[0.1442632753267138, 0.7953770492275027, 0.07422882085636653],[0.18005558393351795, 0.6996423821617048, 0.08687998122012722]
0,92,[0.05024338917807755, 0.9715292227001385, -0.003757597526573308],[0.1442632753267138, 0.7953770492275027, 0.07422882085636653],[0.18005558393351795, 0.6996423821617048, 0.08687998122012722]
0,93,[0.05024338917807755, 0.9715292227001385, -0.003757597526573308],[0.1442632753267138, 0.7953770492275027, 0.07422882085636653],[0.18005558393351795, 0.6996423821617048, 0.08687998122012722]
0,94,[0.05024338917807755, 0.9715292227001385, -0.003757597526573308],[0.1442632753267138, 0.7953770492275027, 0.07422882085636653],[0.18005558393351795, 0.6996423821617048, 0.08687998122012722]
0,95,[0.05024338917807755, 0.9715292227001385, -0.003757597526573308],[0.1442632753267138, 0.7953770492275027, 0.07422882085636653],[0.18005558393351795, 0.6996423821617048, 0.08687998122012722]
0,96,[0.05024338917807755, 0.9715292227001385, -0.003757597526573308],[0.1442632753267138, 0.7953770492275027, 0.07422882085636653],[0.18005558393351795, 0.6996423821617048, 0.08687998122012722]
0,97,[0.05024338917807755, 0.9715292227001385, -0.003757597526573308],[0.1442632753267138, 0.7953770492275027, 0.07422882085636653],[0.18005558393351795, 0.6996423821617048, 0.08687998122012722]
0,98,[0.05024338917807755, 0.9715292227001385, -0.003757597526573308],[0.1442632753267138, 0.7953770492275027, 0.07422882085636653],[0.18005558393351795, 0.6996423821617048, 0.08687998122012722]
0,99,[0.05024338917807755, 0.9715292227001385, -0.003757597526573308],[0.1442632753267138, 0.7953770492275027, 0.07422882085636653],[0.18005558393351795, 0.6996423821617048, 0.08687998122012722]
1,0,[-0.10482399504611713, 0.831248755935731, -0.12092866478095916],[-0.028928835618230737, 0.7904894863529203, 0.06343934845398425],[0.05902998756962951, 0.7138343064308831, 0.09444697275935486]
1,1,[-0.10482399504611713, 0.831248755935731, -0.12092866478095916],[-0.028928835618230737, 0.7904894863529203, 0.06343934845398425],[0.05902998756962951, 0.7138343064308831, 0.09444697275935486]
1,2,[-0.10482399504611713, 0.831248755935731, -0.12092866478095916],[-0.028928835618230737, 0.7904894863529203, 0.06343934845398425],[0.05902998756962951, 0.7138343064308831, 0.09444697275935486]
1,3,[-0.10482399504611713, 0.831248755935731, -0.12092866478095916],[-0.028928835618230737, 0.7904894863529203, 0.06343934845398425],[0.05902998756962951, 0.7138343064308831, 0.09444697275935486]
1,4,[-0.10482399504611713, 0.831248755935731, -0.12092866478095916],[-0.028928835618230737, 0.7904894863529203, 0.06343934845398425],[0.05902998756962951, 0.7138343064308831, 0.09444697275935486]
1,5,[-0.10482399504611713, 0.831248755935731, -0.12092866478095916],[-0.028928835618230737, 0.7904894863529203, 0.06343934845398425],[0.05902998756962951, 0.7138343064308831, 0.09444697275935486]
1,6,[-0.10482399504611713, 0.831248755935731, -0.12092866478095916],[-0.028928835618230737, 0.7904894863529203, 0.06343934845398425],[0.05902998756962951, 0.7138343064308831, 0.09444697275935486]
1,7,[-0.10482399504611713, 0.831248755935731, -0.12092866478095916],[-0.028928835618230737, 0.7904894863529203, 0.06343934845398425],[0.05902998756962951, 0.7138343064308831, 0.09444697275935486]
1,8,[-0.10482399504611713, 0.831248755935731, -0.12092866478095916],[-0.028928835618230737, 0.7904894863529203, 0.06343934845398425],[0.05902998756962951, 0.7138343064308831, 0.09444697275935486]
1,9,[-0.10482399504611713, 0.831248755935731, -0.12092866478095916],[-0.028928835618230737, 0.7904894863529203, 0.06343934845398425],[0.05902998756962951, 0.7138343064308831, 0.09444697275935486]
1,10,[-0.10482399504611713, 0.831248755935731, -0.12092866478095916],[-0.028928835618230737, 0.7904894863529203, 0.06343934845398425],[0.05902998756962951, 0.7138343064308831, 0.09444697275935486]
1,11,[-0.10482399504611713, 0.831248755935731, -0.12092866478095916],[-0.028928835618230737, 0.7904894863529203, 0.06343934845398425],[0.05902998756962951, 0.7138343064308831, 0.09444697275935486]
1,12,[-0.10482399504611713, 0.831248755935731, -0.12092866478095916],[-0.028928835618230737, 0.7904894863529203, 0.06343934845398425],[0.05902998756962951, 0.7138343064308831, 0.09444697275935486]
1,13,[-0.10482399504611713, 0.831248755935731, -0.12092866478095916],[-0.028928835618230737, 0.7904894863529203, 0.06343934845398425],[0.05902998756962951, 0.7138343064308831, 0.09444697275935486]
1,14,[-0.10482399504611713, 0.831248755935731, -0.12092866478095916],[-0.028928835618230737, 0.7904894863529203, 0.06343934845398425],[0.05902998756962951, 0.7138343064308831, 0.09444697275935486]
1,15,[-0.10482399504611713, 0.831248755935731, -0.12092866478095916],[-0.028928835618230737, 0.7904894863529203, 0.06343934845398425],[0.05902998756962951, 0.7138343064308831, 0.09444697275935486]
1,16,[-0.10482399504611713, 0.831248755935731, -0.12092866478095916],[-0.028928835618230737, 0.7904894863529203, 0.06343934845398425],[0.05902998756962951, 0.7138343064308831, 0.09444697275935486]
1,17,[-0.10482399504611713, 0.831248755935731, -0.12092866478095916],[-0.028928835618230737, 0.7904894863529203, 0.06343934845398425],[0.05902998756962951, 0.7138343064308831, 0.09444697275935486]
1,18,[-0.10482399504611713, 0.831248755935731, -0.12092866478095916],[-0.028928835618230737, 0.7904894863529203, 0.06343934845398425],[0.05902998756962951, 0.7138343064308831, 0.09444697275935486]
1,19,[-0.10482399504611713, 0.831248755935731, -0.12092866478095916],[-0.028928835618230737, 0.7904894863529203, 0.06343934845398425],[0.05902998756962951, 0.7138343064308831, 0.09444697275935486]
1,20,[-0.10482399504611713, 0.831248755935731, -0.12092866478095916],[-0.028928835618230737, 0.7904894863529203, 0.06343934845398425],[0.05902998756962951, 0.7138343064308831, 0.09444697275935486]
1,21,[-0.10482399504611713, 0.831248755935731, -0.12092866478095916],[-0.028928835618230737, 0.7904894863529203, 0.06343934845398425],[0.05902998756962951, 0.7138343064308831, 0.09444697275935486]
1,22,[-0.10482399504611713, 0.831248755935731, -0.12092866478095916],[-0.028928835618230737, 0.7904894863529203, 0.06343934845398425],[0.05902998756962951, 0.7138343064308831, 0.09444697275935486]
1,23,[-0.10482399504611713, 0.831248755935731, -0.12092866478095916],[-0.028928835618230737, 0.7904894863529203, 0.06343934845398425],[0.05902998756962951, 0.7138343064308831, 0.09444697275935486]
1,24,[-0.10482399504611713, 0.831248755935731, -0.12092866478095916],[-0.028928835618230737, 0.7904894863529203, 0.06343934845398425],[0.05902998756962951, 0.7138343064308831, 0.09444697275935486]
1,25,[-0.10482399504611713, 0.831248755935731, -0.12092866478095916],[-0.028928835618230737, 0.7904894863529203, 0.06343934845398425],[0.05902998756962951, 0.7138343064308831, 0.09444697275935486]
1,26,[-0.10482399504611713, 0.831248755935731, -0.12092866478095916],[-0.028928835618230737, 0.7904894863529203, 0.06343934845398425],[0.05902998756962951, 0.7138343064308831, 0.09444697275935486]
1,27,[-0.10482399504611713, 0.831248755935731, -0.12092866478095916],[-0.028928835618230737, 0.7904894863529203, 0.06343934845398425],[0.05902998756962951, 0.7138343064308831, 0.09444697275935486]
1,28,[-0.10482399504611713, 0.831248755935731, -0.12092866478095916],[-0.028928835618230737, 0.7904894863529203, 0.06343934845398425],[0.05902998756962951, 0.7138343064308831, 0.09444697275935486]
1,29,[-0.10482399504611713, 0.831248755935731, -0.12092866478095916],[-0.028928835618230737, 0.7904894863529203, 0.06343934845398425],[0.05902998756962951, 0.7138343064308831, 0.09444697275935486]
1,30,[-0.10482399504611713, 0.831248755935731, -0.12092866478095916],[-0.028928835618230737, 0.7904894863529203, 0.06343934845398425],[0.05902998756962951, 0.7138343064308831, 0.09444697275935486]
1,31,[-0.10482399504611713, 0.831248755935731, -0.12092866478095916],[-0.028928835618230737, 0.7904894863529203, 0.06343934845398425],[0.05902998756962951, 0.7138343064308831, 0.09444697275935486]
1,32,[-0.10482399504611713, 0.831248755935731, -0.12092866478095916],[-0.028928835618230737, 0.7904894863529203, 0.06343934845398425],[0.05902998756962951, 0.7138343064308831, 0.09444697275935486]
1,33,[-0.10482399504611713, 0.831248755935731, -0.12092866478095916],[-0.028928835618230737, 0.7904894863529203, 0.06343934845398425],[0.05902998756962951, 0.7138343064308831, 0.09444697275935486]
1,34,[-0.10482399504611713, 0.831248755935731, -0.12092866478095916],[-0.028928835618230737, 0.7904894863529203, 0.06343934845398425],[0.05902998756962951, 0.7138343064308831, 0.09444697275935486]
1,35,[-0.10482399504611713, 0.831248755935731, -0.12092866478095916],[-0.028928835618230737, 0.7904894863529203, 0.06343934845398425],[0.05902998756962951, 0.7138343064308831, 0.09444697275935486]
1,36,[-0.10482399504611713, 0.831248755935731, -0.12092866478095916],[-0.028928835618230737, 0.7904894863529203, 0.06343934845398425],[0.05902998756962951, 0.7138343064308831, 0.09444697275935486]
1,37,[-0.10482399504611713, 0.831248755935731, -0.12092866478095916],[-0.028928835618230737, 0.7904894863529203, 0.06343934845398425],[0.05902998756962951, 0.7138343064308831, 0.09444697275935486]
1,38,[-0.10482399504611713, 0.831248755935731, -0.12092866478095916],[-0.028928835618230737, 0.7904894863529203, 0.06343934845398425],[0.05902998756962951, 0.7138343064308831, 0.09444697275935486]
1,39,[-0.10482399504611713, 0.831248755935731, -0.12092866478095916],[-0.028928835618230737, 0.7904894863529203, 0.06343934845398425],[0.05902998756962951, 0.7138343064308831, 0.09444697275935486]
1,40,[-0.10482399504611713, 0.831248755935731, -0.12092866478095916],[-0.028928835618230737, 0.7904894863529203, 0.06343934845398425],[0.05902998756962951, 0.7138343064308831, 0.09444697275935486]
1,41,[-0.10482399504611713, 0.831248755935731, -0.12092866478095916],[-0.028928835618230737, 0.7904894863529203, 0.06343934845398425],[0.05902998756962951, 0.7138343064308831, 0.09444697275935486]
1,42,[-0.10482399504611713, 0.831248755935731, -0.12092866478095916],[-0.028928835618230737, 0.7904894863529203, 0.06343934845398425],[0.05902998756962951, 0.7138343064308831, 0.09444697275935486]
1,43,[-0.10482399504611713, 0.831248755935731, -0.12092866478095916],[-0.028928835618230737, 0.7904894863529203, 0.06343934845398425],[0.05902998756962951, 0.7138343064308831, 0.09444697275935486]
1,44,[-0.10482399504611713, 0.831248755935731, -0.12092866478095916],[-0.028928835618230737, 0.7904894863529203, 0.06343934845398425],[0.05902998756962951, 0.7138343064308831, 0.09444697275935486]
1,45,[-0.10482399504611713, 0.831248755935731, -0.12092866478095916],[-0.028928835618230737, 0.7904894863529203, 0.06343934845398425],[0.05902998756962951, 0.7138343064308831, 0.09444697275935486]
1,46,[-0.10482399504611713, 0.831248755935731, -0.12092866478095916],[-0.028928835618230737, 0.7904894863529203, 0.06343934845398425],[0.05902998756962951, 0.7138343064308831, 0.09444697275935486]
1,47,[-0.10482399504611713, 0.831248755935731, -0.12092866478095916],[-0.028928835618230737, 0.7904894863529203, 0.06343934845398425],[0.05902998756962951, 0.7138343064308831, 0.09444697275935486]
1,48,[-0.10482399504611713, 0.831248755935731, -0.12092866478095916],[-0.028928835618230737, 0.7904894863529203, 0.06343934845398425],[0.05902998756962951, 0.7138343064308831, 0.09444697275935486]
1,49,[-0.10482399504611713, 0.831248755935731, -0.12092866478095916],[-0.028928835618230737, 0.7904894863529203, 0.06343934845398425],[0.05902998756962951, 0.7138343064308831, 0.09444697275935486]
1,50,[-0.10482399504611713, 0.831248755935731, -0.12092866478095916],[-0.028928835618230737, 0.7904894863529203, 0.06343934845398425],[0.05902998756962951, 0.7138343064308831, 0.09444697275935486]
1,51,[-0.10482399504611713, 0.831248755935731, -0.12092866478095916],[-0.028928835618230737, 0.7904894863529203, 0.06343934845398425],[0.05902998756962951, 0.7138343064308831, 0.09444697275935486]
1,52,[-0.10482399504611713, 0.831248755935731, -0.12092866478095916],[-0.028928835618230737, 0.7904894863529203, 0.06343934845398425],[0.05902998756962951, 0.7138343064308831, 0.09444697275935486]
1,53,[-0.10482399504611713, 0.831248755935731, -0.12092866478095916],[-0.028928835618230737, 0.7904894863529203, 0.06343934845398425],[0.05902998756962951, 0.7138343064308831, 0.09444697275935486]
1,54,[-0.10482399504611713, 0.831248755935731, -0.12092866478095916],[-0.028928835618230737, 0.7904894863529203, 0.06343934845398425],[0.05902998756962951, 0.7138343064308831, 0.09444697275935486]
1,55,[-0.10482399504611713, 0.831248755935731, -0.12092866478095916],[-0.028928835618230737, 0.7904894863529203, 0.06343934845398425],[0.05902998756962951, 0.7138343064308831, 0.09444697275935486]
1,56,[-0.10482399504611713, 0.831248755935731, -0.12092866478095916],[-0.028928835618230737, 0.7904894863529203, 0.06343934845398425],[0.05902998756962951, 0.7138343064308831, 0.09444697275935486]
1,57,[-0.10482399504611713, 0.831248755935731, -0.12092866478095916],[-0.028928835618230737, 0.7904894863529203, 0.06343934845398425],[0.05902998756962951, 0.7138343064308831, 0.09444697275935486]
1,58,[-0.10482399504611713, 0.831248755935731, -0.12092866478095916],[-0.028928835618230737, 0.7904894863529203, 0.06343934845398425],[0.05902998756962951, 0.7138343064308831, 0.09444697275935486]
1,59,[-0.10482399504611713, 0.831248755935731, -0.12092866478095916],[-0.028928835618230737, 0.7904894863529203, 0.06343934845398425],[0.05902998756962951, 0.7138343064308831, 0.09444697275935486]
1,60,[-0.10482399504611713, 0.831248755935731, -0.12092866478095916],[-0.028928835618230737, 0.7904894863529203, 0.06343934845398425],[0.05902998756962951, 0.7138343064308831, 0.09444697275935486]
1,61,[-0.10482399504611713, 0.831248755935731, -0.12092866478095916],[-0.028928835618230737, 0.7904894863529203, 0.06343934845398425],[0.05902998756962951, 0.7138343064308831, 0.09444697275935486]
1,62,[-0.10482399504611713, 0.831248755935731, -0.12092866478095916],[-0.028928835618230737, 0.7904894863529203, 0.06343934845398425],[0.05902998756962951, 0.7138343064308831, 0.09444697275935486]
1,63,[-0.10482399504611713, 0.831248755935731, -0.12092866478095916],[-0.028928835618230737, 0.7904894863529203, 0.06343934845398425],[0.05902998756962951, 0.7138343064308831, 0.09444697275935486]
1,64,[-0.10482399504611713, 0.831248755935731, -0.12092866478095916],[-0.028928835618230737, 0.7904894863529203, 0.06343934845398425],[0.05902998756962951, 0.7138343064308831, 0.09444697275935486]
1,65,[-0.10482399504611713, 0.831248755935731, -0.12092866478095916],[-0.028928835618230737, 0.7904894863529203, 0.06343934845398425],[0.05902998756962951, 0.7138343064308831, 0.09444697275935486]
1,66,[-0.10482399504611713, 0.831248755935731, -0.12092866478095916],[-0.028928835618230737, 0.7904894863529203, 0.06343934845398425],[0.05902998756962951, 0.7138343064308831, 0.09444697275935486]
1,67,[-0.10482399504611713, 0.831248755935731, -0.12092866478095916],[-0.028928835618230737, 0.7904894863529203, 0.06343934845398425],[0.05902998756962951, 0.7138343064308831, 0.09444697275935486]
1,68,[-0.10482399504611713, 0.831248755935731, -0.12092866478095916],[-0.028928835618230737, 0.7904894863529203, 0.06343934845398425],[0.05902998756962951, 0.7138343064308831, 0.09444697275935486]
1,69,[-0.10482399504611713, 0.831248755935731, -0.12092866478095916],[-0.028928835618230737, 0.7904894863529203, 0.06343934845398425],[0.05902998756962951, 0.7138343064308831, 0.09444697275935486]
1,70,[-0.10482399504611713, 0.831248755935731, -0.12092866478095916],[-0.028928835618230737, 0.7904894863529203, 0.06343934845398425],[0.05902998756962951, 0.7138343064308831, 0.09444697275935486]
1,71,[-0.10482399504611713, 0.831248755935731, -0.12092866478095916],[-0.028928835618230737, 0.7904894863529203, 0.06343934845398425],[0.05902998756962951, 0.7138343064308831, 0.09444697275935486]
1,72,[-0.10482399504611713, 0.831248755935731, -0.12092866478095916],[-0.028928835618230737, 0.7904894863529203, 0.06343934845398425],[0.05902998756962951, 0.7138343064308831, 0.09444697275935486]
1,73,[-0.10482399504611713, 0.831248755935731, -0.12092866478095916],[-0.028928835618230737, 0.7904894863529203, 0.06343934845398425],[0.05902998756962951, 0.7138343064308831, 0.09444697275935486]
1,74,[-0.10482399504611713, 0.831248755935731, -0.12092866478095916],[-0.028928835618230737, 0.7904894863529203, 0.06343934845398425],[0.05902998756962951, 0.7138343064308831, 0.09444697275935486]
1,75,[-0.10482399504611713, 0.831248755935731, -0.12092866478095916],[-0.028928835618230737, 0.7904894863529203, 0.06343934845398425],[0.05902998756962951, 0.7138343064308831, 0.09444697275935486]
1,76,[-0.10482399504611713, 0.831248755935731, -0.12092866478095916],[-0.028928835618230737, 0.7904894863529203, 0.06343934845398425],[0.05902998756962951, 0.7138343064308831, 0.09444697275935486]
1,77,[-0.10482399504611713, 0.831248755935731, -0.12092866478095916],[-0.028928835618230737, 0.7904894863529203, 0.06343934845398425],[0.05902998756962951, 0.7138343064308831, 0.09444697275935486]
1,78,[-0.10482399504611713, 0.831248755935731, -0.12092866478095916],[-0.028928835618230737, 0.7904894863529203, 0.06343934845398425],[0.05902998756962951, 0.7138343064308831, 0.09444697275935486]
1,79,[-0.10482399504611713, 0.831248755935731, -0.12092866478095916],[-0.028928835618230737, 0.7904894863529203, 0.06343934845398425],[0.05902998756962951, 0.7138343064308831, 0.09444697275935486]
1,80,[-0.10482399504611713, 0.831248755935731, -0.12092866478095916],[-0.028928835618230737, 0.7904894863529203, 0.06343934845398425],[0.05902998756962951, 0.7138343064308831, 0.09444697275935486]
1,81,[-0.10482399504611713, 0.831248755935731, -0.12092866478095916],[-0.028928835618230737, 0.7904894863529203, 0.06343934845398425],[0.05902998756962951, 0.7138343064308831, 0.09444697275935486]
1,82,[-0.10482399504611713, 0.831248755935731, -0.12092866478095916],[-0.028928835618230737, 0.7904894863529203, 0.06343934845398425],[0.05902998756962951, 0.7138343064308831, 0.09444697275935486]
1,83,[-0.10482399504611713, 0.831248755935731, -0.12092866478095916],[-0.028928835618230737, 0.7904894863529203, 0.06343934845398425],[0.05902998756962951, 0.7138343064308831, 0.09444697275935486]
1,84,[-0.10482399504611713, 0.831248755935731, -0.12092866478095916],[-0.028928835618230737, 0.7904894863529203, 0.06343934845398425],[0.05902998756962951, 0.7138343064308831, 0.09444697275935486]
1,85,[-0.10482399504611713, 0.831248755935731, -0.12092866478095916],[-0.028928835618230737, 0.7904894863529203, 0.06343934845398425],[0.05902998756962951, 0.7138343064308831, 0.09444697275935486]
1,86,[-0.10482399504611713, 0.831248755935731, -0.12092866478095916],[-0.028928835618230737, 0.7904894863529203, 0.06343934845398425],[0.05902998756962951, 0.7138343064308831, 0.09444697275935486]
1,87,[-0.10482399504611713, 0.831248755935731, -0.12092866478095916],[-0.028928835618230737, 0.7904894863529203, 0.06343934845398425],[0.05902998756962951, 0.7138343064308831, 0.09444697275935486]
1,88,[-0.10482399504611713, 0.831248755935731, -0.12092866478095916],[-0.028928835618230737, 0.7904894863529203, 0.06343934845398425],[0.05902998756962951, 0.7138343064308831, 0.09444697275935486]
1,89,[-0.10482399504611713, 0.831248755935731, -0.12092866478095916],[-0.028928835618230737, 0.7904894863529203, 0.06343934845398425],[0.05902998756962951, 0.7138343064308831, 0.09444697275935486]
1,90,[-0.10482399504611713, 0.831248755935731, -0.12092866478095916],[-0.028928835618230737, 0.7904894863529203, 0.06343934845398425],[0.05902998756962951, 0.7138343064308831, 0.09444697275935486]
1,91,[-0.10482399504611713, 0.831248755935731, -0.12092866478095916],[-0.028928835618230737, 0.7904894863529203, 0.06343934845398425],[0.05902998756962951, 0.7138343064308831, 0.09444697275935486]
1,92,[-0.10482399504611713, 0.831248755935731, -0.12092866478095916],[-0.028928835618230737, 0.7904894863529203, 0.06343934845398425],[0.05902998756962951, 0.7138343064308831, 0.09444697275935486]
1,93,[-0.10482399504611713, 0.831248755935731, -0.12092866478095916],[-0.028928835618230737, 0.7904894863529203, 0.06343934845398425],[0.05902998756962951, 0.7138343064308831, 0.09444697275935486]
1,94,[-0.10482399504611713, 0.831248755935731, -0.12092866478095916],[-0.028928835618230737, 0.7904894863529203, 0.06343934845398425],[0.05902998756962951, 0.7138343064308831, 0.09444697275935486]
1,95,[-0.10482399504611713, 0.831248755935731, -0.12092866478095916],[-0.028928835618230737, 0.7904894863529203, 0.06343934845398425],[0.05902998756962951, 0.7138343064308831, 0.09444697275935486]
1,96,[-0.10482399504611713, 0.831248755935731, -0.12092866478095916],[-0.028928835618230737, 0.7904894863529203, 0.06343934845398425],[0.05902998756962951, 0.7138343064308831, 0.09444697275935486]
1,97,[-0.10482399504611713, 0.831248755935731, -0.12092866478095916],[-0.028928835618230737, 0.7904894863529203, 0.06343934845398425],[0.05902998756962951, 0.7138343064308831, 0.09444697275935486]
1,98,[-0.10482399504611713, 0.831248755935731, -0.12092866478095916],[-0.028928835618230737, 0.7904894863529203, 0.06343934845398425],[0.05902998756962951, 0.7138343064308831, 0.09444697275935486]
1,99,[-0.10482399504611713, 0.831248755935731, -0.12092866478095916],[-0.028928835618230737, 0.7904894863529203, 0.06343934845398425],[0.05902998756962951, 0.7138343064308831, 0.09444697275935486]
2,0,[0.0097968958488062, 1.0, -0.04319298957138992],[0.10856851600781477, 0.8240598436434534, 0.1716300090462172],[0.15117272349359195, 0.6742630338552159, 0.11250255884279614]
2,1,[0.0097968958488062, 1.0, -0.04319298957138992],[0.10856851600781477, 0.8240598436434534, 0.1716300090462172],[0.15117272349359195, 0.6742630338552159, 0.11250255884279614]
2,2,[0.0097968958488062, 1.0, -0.04319298957138992],[0.10856851600781477, 0.8240598436434534, 0.1716300090462172],[0.15117272349359195, 0.6742630338552159, 0.11250255884279614]
2,3,[0.0097968958488062, 1.0, -0.04319298957138992],[0.10856851600781477, 0.8240598436434534, 0.1716300090462172],[0.15117272349359195, 0.6742630338552159, 0.11250255884279614]
2,4,[0.0097968958488062, 1.0, -0.04319298957138992],[0.10856851600781477, 0.8240598436434534, 0.1716300090462172],[0.15117272349359195, 0.6742630338552159, 0.11250255884279614]
2,5,[0.0097968958488062, 1.0, -0.04319298957138992],[0.10856851600781477, 0.8240598436434534, 0.1716300090462172],[0.15117272349359195, 0.6742630338552159, 0.11250255884279614]
2,6,[0.0097968958488062, 1.0, -0.04319298957138992],[0.10856851600781477, 0.8240598436434534, 0.1716300090462172],[0.15117272349359195, 0.6742630338552159, 0.11250255884279614]
2,7,[0.0097968958488062, 1.0, -0.04319298957138992],[0.10856851600781477, 0.8240598436434534, 0.1716300090462172],[0.15117272349359195, 0.6742630338552159, 0.11250255884279614]
2,8,[0.0097968958488062, 1.0, -0.04319298957138992],[0.10856851600781477, 0.8240598436434534, 0.1716300090462172],[0.15117272349359195, 0.6742630338552159, 0.11250255884279614]
2,9,[0.0097968958488062, 1.0, -0.04319298957138992],[0.10856851600781477, 0.8240598436434534, 0.1716300090462172],[0.15117272349359195, 0.6742630338552159, 0.11250255884279614]
2,10,[0.0097968958488062, 1.0, -0.04319298957138992],[0.10856851600781477, 0.8240598436434534, 0.1716300090462172],[0.15117272349359195, 0.6742630338552159, 0.11250255884279614]
2,11,[0.0097968958488062, 1.0, -0.04319298957138992],[0.10856851600781477, 0.8240598436434534, 0.1716300090462172],[0.15117272349359195, 0.6742630338552159, 0.11250255884279614]
2,12,[0.0097968958488062, 1.0, -0.04319298957138992],[0.10856851600781477, 0.8240598436434534, 0.1716300090462172],[0.15117272349359195, 0.6742630338552159, 0.11250255884279614]
2,13,[0.0097968958488062, 1.0, -0.04319298957138992],[0.10856851600781477, 0.8240598436434534, 0.1716300090462172],[0.15117272349359195, 0.6742630338552159, 0.11250255884279614]
2,14,[0.0097968958488062, 1.0, -0.04319298957138992],[0.10856851600781477, 0.8240598436434534, 0.1716300090462172],[0.15117272349359195, 0.6742630338552159, 0.11250255884279614]
2,15,[0.0097968958488062, 1.0, -0.04319298957138992],[0.10856851600781477, 0.8240598436434534, 0.1716300090462172],[0.15117272349359195, 0.6742630338552159, 0.11250255884279614]
2,16,[0.0097968958488062, 1.0, -0.04319298957138992],[0.10856851600781477, 0.8240598436434534, 0.1716300090462172],[0.15117272349359195, 0.6742630338552159, 0.11250255884279614]
2,17,[0.0097968958488062, 1.0, -0.04319298957138992],[0.10856851600781477, 0.8240598436434534, 0.1716300090462172],[0.15117272349359195, 0.6742630338552159, 0.11250255884279614]
2,18,[0.0097968958488062, 1.0, -0.04319298957138992],[0.10856851600781477, 0.8240598436434534, 0.1716300090462172],[0.15117272349359195, 0.6742630338552159, 0.11250255884279614]
2,19,[0.0097968958488062, 1.0, -0.04319298957138992],[0.10856851600781477, 0.8240598436434534, 0.1716300090462172],[0.15117272349359195, 0.6742630338552159, 0.11250255884279614]
2,20,[0.0097968958488062, 1.0, -0.04319298957138992],[0.10856851600781477, 0.8240598436434534, 0.1716300090462172],[0.15117272349359195, 0.6742630338552159, 0.11250255884279614]
2,21,[0.0097968958488062, 1.0, -0.04319298957138992],[0.10856851600781477, 0.8240598436434534, 0.1716300090462172],[0.15117272349359195, 0.6742630338552159, 0.11250255884279614]
2,22,[0.0097968958488062, 1.0, -0.04319298957138992],[0.10856851600781477, 0.8240598436434534, 0.1716300090462172],[0.15117272349359195, 0.6742630338552159, 0.11250255884279614]
2,23,[0.0097968958488062, 1.0, -0.04319298957138992],[0.10856851600781477, 0.8240598436434534, 0.1716300090462172],[0.15117272349359195, 0.6742630338552159, 0.11250255884279614]
2,24,[0.0097968958488062, 1.0, -0.04319298957138992],[0.10856851600781477, 0.8240598436434534, 0.1716300090462172],[0.15117272349359195, 0.6742630338552159, 0.11250255884279614]
2,25,[0.0097968958488062, 1.0, -0.04319298957138992],[0.10856851600781477, 0.8240598436434534, 0.1716300090462172],[0.15117272349359195, 0.6742630338552159, 0.11250255884279614]
2,26,[0.0097968958488062, 1.0, -0.04319298957138992],[0.10856851600781477, 0.8240598436434534, 0.1716300090462172],[0.15117272349359195, 0.6742630338552159, 0.11250255884279614]
2,27,[0.0097968958488062, 1.0, -0.04319298957138992],[0.10856851600781477, 0.8240598436434534, 0.1716300090462172],[0.15117272349359195, 0.6742630338552159, 0.11250255884279614]
2,28,[0.0097968958488062, 1.0, -0.04319298957138992],[0.10856851600781477, 0.8240598436434534, 0.1716300090462172],[0.15117272349359195, 0.6742630338552159, 0.11250255884279614]
2,29,[0.0097968958488062, 1.0, -0.04319298957138992],[0.10856851600781477, 0.8240598436434534, 0.1716300090462172],[0.15117272349359195, 0.6742630338552159, 0.11250255884279614]
2,30,[0.0097968958488062, 1.0, -0.04319298957138992],[0.10856851600781477, 0.8240598436434534, 0.1716300090462172],[0.15117272349359195, 0.6742630338552159, 0.11250255884279614]
2,31,[0.0097968958488062, 1.0, -0.04319298957138992],[0.10856851600781477, 0.8240598436434534, 0.1716300090462172],[0.15117272349359195, 0.6742630338552159, 0.11250255884279614]
2,32,[0.0097968958488062, 1.0, -0.04319298957138992],[0.10856851600781477, 0.8240598436434534, 0.1716300090462172],[0.15117272349359195, 0.6742630338552159, 0.11250255884279614]
2,33,[0.0097968958488062, 1.0, -0.04319298957138992],[0.10856851600781477, 0.8240598436434534, 0.1716300090462172],[0.15117272349359195, 0.6742630338552159, 0.11250255884279614]
2,34,[0.0097968958488062, 1.0, -0.04319298957138992],[0.10856851600781477, 0.8240598436434534, 0.1716300090462172],[0.15117272349359195, 0.6742630338552159, 0.11250255884279614]
2,35,[0.0097968958488062, 1.0, -0.04319298957138992],[0.10856851600781477, 0.8240598436434534, 0.1716300090462172],[0.15117272349359195, 0.6742630338552159, 0.11250255884279614]
2,36,[0.0097968958488062, 1.0, -0.04319298957138992],[0.10856851600781477, 0.8240598436434534, 0.1716300090462172],[0.15117272349359195, 0.6742630338552159, 0.11250255884279614]
2,37,[0.0097968958488062, 1.0, -0.04319298957138992],[0.10856851600781477, 0.8240598436434534, 0.1716300090462172],[0.15117272349359195, 0.6742630338552159, 0.11250255884279614]
2,38,[0.0097968958488062, 1.0, -0.04319298957138992],[0.10856851600781477, 0.8240598436434534, 0.1716300090462172],[0.15117272349359195, 0.6742630338552159, 0.11250255884279614]
2,39,[0.0097968958488062, 1.0, -0.04319298957138992],[0.10856851600781477, 0.8240598436434534, 0.1716300090462172],[0.15117272349359195, 0.6742630338552159, 0.11250255884279614]
2,40,[0.0097968958488062, 1.0, -0.04319298957138992],[0.10856851600781477, 0.8240598436434534, 0.1716300090462172],[0.15117272349359195, 0.6742630338552159, 0.11250255884279614]
2,41,[0.0097968958488062, 1.0, -0.04319298957138992],[0.10856851600781477, 0.8240598436434534, 0.1716300090462172],[0.15117272349359195, 0.6742630338552159, 0.11250255884279614]
2,42,[0.0097968958488062, 1.0, -0.04319298957138992],[0.10856851600781477, 0.8240598436434534, 0.1716300090462172],[0.15117272349359195, 0.6742630338552159, 0.11250255884279614]
2,43,[0.0097968958488062, 1.0, -0.04319298957138992],[0.10856851600781477, 0.8240598436434534, 0.1716300090462172],[0.15117272349359195, 0.6742630338552159, 0.11250255884279614]
2,44,[0.0097968958488062, 1.0, -0.04319298957138992],[0.10856851600781477, 0.8240598436434534, 0.1716300090462172],[0.15117272349359195, 0.6742630338552159, 0.11250255884279614]
2,45,[0.0097968958488062, 1.0, -0.04319298957138992],[0.10856851600781477, 0.8240598436434534, 0.1716300090462172],[0.15117272349359195, 0.6742630338552159, 0.11250255884279614]
2,46,[0.0097968958488062, 1.0, -0.04319298957138992],[0.10856851600781477, 0.8240598436434534, 0.1716300090462172],[0.15117272349359195, 0.6742630338552159, 0.11250255884279614]
2,47,[0.0097968958488062, 1.0, -0.04319298957138992],[0.10856851600781477, 0.8240598436434534, 0.1716300090462172],[0.15117272349359195, 0.6742630338552159, 0.11250255884279614]
2,48,[0.0097968958488062, 1.0, -0.04319298957138992],[0.10856851600781477, 0.8240598436434534, 0.1716300090462172],[0.15117272349359195, 0.6742630338552159, 0.11250255884279614]
2,49,[0.0097968958488062, 1.0, -0.04319298957138992],[0.10856851600781477, 0.8240598436434534, 0.1716300090462172],[0.15117272349359195, 0.6742630338552159, 0.11250255884279614]
2,50,[0.0097968958488062, 1.0, -0.04319298957138992],[0.10856851600781477, 0.8240598436434534, 0.1716300090462172],[0.15117272349359195, 0.6742630338552159, 0.11250255884279614]
2,51,[0.0097968958488062, 1.0, -0.04319298957138992],[0.10856851600781477, 0.8240598436434534, 0.1716300090462172],[0.15117272349359195, 0.6742630338552159, 0.11250255884279614]
2,52,[0.0097968958488062, 1.0, -0.04319298957138992],[0.10856851600781477, 0.8240598436434534, 0.1716300090462172],[0.15117272349359195, 0.6742630338552159, 0.11250255884279614]
2,53,[0.0097968958488062, 1.0, -0.04319298957138992],[0.10856851600781477, 0.8240598436434534, 0.1716300090462172],[0.15117272349359195, 0.6742630338552159, 0.11250255884279614]
2,54,[0.0097968958488062, 1.0, -0.04319298957138992],[0.10856851600781477, 0.8240598436434534, 0.1716300090462172],[0.15117272349359195, 0.6742630338552159, 0.11250255884279614]
2,55,[0.0097968958488062, 1.0, -0.04319298957138992],[0.10856851600781477, 0.8240598436434534, 0.1716300090462172],[0.15117272349359195, 0.6742630338552159, 0.11250255884279614]
2,56,[0.0097968958488062, 1.0, -0.04319298957138992],[0.10856851600781477, 0.8240598436434534, 0.1716300090462172],[0.15117272349359195, 0.6742630338552159, 0.11250255884279614]
2,57,[0.0097968958488062, 1.0, -0.04319298957138992],[0.10856851600781477, 0.8240598436434534, 0.1716300090462172],[0.15117272349359195, 0.6742630338552159, 0.11250255884279614]
2,58,[0.0097968958488062, 1.0, -0.04319298957138992],[0.10856851600781477, 0.8240598436434534, 0.1716300090462172],[0.15117272349359195, 0.6742630338552159, 0.11250255884279614]
2,59,[0.0097968958488062, 1.0, -0.04319298957138992],[0.10856851600781477, 0.8240598436434534, 0.1716300090462172],[0.15117272349359195, 0.6742630338552159, 0.11250255884279614]
2,60,[0.0097968958488062, 1.0, -0.04319298957138992],[0.10856851600781477, 0.8240598436434534, 0.1716300090462172],[0.15117272349359195, 0.6742630338552159, 0.11250255884279614]
2,61,[0.0097968958488062, 1.0, -0.04319298957138992],[0.10856851600781477, 0.8240598436434534, 0.1716300090462172],[0.15117272349359195, 0.6742630338552159, 0.11250255884279614]
2,62,[0.0097968958488062, 1.0, -0.04319298957138992],[0.10856851600781477, 0.8240598436434534, 0.1716300090462172],[0.15117272349359195, 0.6742630338552159, 0.11250255884279614]
2,63,[0.0097968958488062, 1.0, -0.04319298957138992],[0.10856851600781477, 0.8240598436434534, 0.1716300090462172],[0.15117272349359195, 0.6742630338552159, 0.11250255884279614]
2,64,[0.0097968958488062, 1.0, -0.04319298957138992],[0.10856851600781477, 0.8240598436434534, 0.1716300090462172],[0.15117272349359195, 0.6742630338552159, 0.11250255884279614]
2,65,[0.0097968958488062, 1.0, -0.04319298957138992],[0.10856851600781477, 0.8240598436434534, 0.1716300090462172],[0.15117272349359195, 0.6742630338552159, 0.11250255884279614]
2,66,[0.0097968958488062, 1.0, -0.04319298957138992],[0.10856851600781477, 0.8240598436434534, 0.1716300090462172],[0.15117272349359195, 0.6742630338552159, 0.11250255884279614]
2,67,[0.0097968958488062, 1.0, -0.04319298957138992],[0.10856851600781477, 0.8240598436434534, 0.1716300090462172],[0.15117272349359195, 0.6742630338552159, 0.11250255884279614]
2,68,[0.0097968958488062, 1.0, -0.04319298957138992],[0.10856851600781477, 0.8240598436434534, 0.1716300090462172],[0.15117272349359195, 0.6742630338552159, 0.11250255884279614]
2,69,[0.0097968958488062, 1.0, -0.04319298957138992],[0.10856851600781477, 0.8240598436434534, 0.1716300090462172],[0.15117272349359195, 0.6742630338552159, 0.11250255884279614]
2,70,[0.0097968958488062, 1.0, -0.04319298957138992],[0.10856851600781477, 0.8240598436434534, 0.1716300090462172],[0.15117272349359195, 0.6742630338552159, 0.11250255884279614]
2,71,[0.0097968958488062, 1.0, -0.04319298957138992],[0.10856851600781477, 0.8240598436434534, 0.1716300090462172],[0.15117272349359195, 0.6742630338552159, 0.11250255884279614]
2,72,[0.0097968958488062, 1.0, -0.04319298957138992],[0.10856851600781477, 0.8240598436434534, 0.1716300090462172],[0.15117272349359195, 0.6742630338552159, 0.11250255884279614]
2,73,[0.0097968958488062, 1.0, -0.04319298957138992],[0.10856851600781477, 0.8240598436434534, 0.1716300090462172],[0.15117272349359195, 0.6742630338552159, 0.11250255884279614]
2,74,[0.0097968958488062, 1.0, -0.04319298957138992],[0.10856851600781477, 0.8240598436434534, 0.1716300090462172],[0.15117272349359195, 0.6742630338552159, 0.11250255884279614]
2,75,[0.0097968958488062, 1.0, -0.04319298957138992],[0.10856851600781477, 0.8240598436434534, 0.1716300090462172],[0.15117272349359195, 0.6742630338552159, 0.11250255884279614]
2,76,[0.0097968958488062, 1.0, -0.04319298957138992],[0.10856851600781477, 0.8240598436434534, 0.1716300090462172],[0.15117272349359195, 0.6742630338552159, 0.11250255884279614]
2,77,[0.0097968958488062, 1.0, -0.04319298957138992],[0.10856851600781477, 0.8240598436434534, 0.1716300090462172],[0.15117272349359195, 0.6742630338552159, 0.11250255884279614]
2,78,[0.0097968958488062, 1.0, -0.04319298957138992],[0.10856851600781477, 0.8240598436434534, 0.1716300090462172],[0.15117272349359195, 0.6742630338552159, 0.11250255884279614]
2,79,[0.0097968958488062, 1.0, -0.04319298957138992],[0.10856851600781477, 0.8240598436434534, 0.1716300090462172],[0.15117272349359195, 0.6742630338552159, 0.11250255884279614]
2,80,[0.0097968958488062, 1.0, -0.04319298957138992],[0.10856851600781477, 0.8240598436434534, 0.1716300090462172],[0.15117272349359195, 0.6742630338552159, 0.11250255884279614]
2,81,[0.0097968958488062, 1.0, -0.04319298957138992],[0.10856851600781477, 0.8240598436434534, 0.1716300090462172],[0.15117272349359195, 0.6742630338552159, 0.11250255884279614]
2,82,[0.0097968958488062, 1.0, -0.04319298957138992],[0.10856851600781477, 0.8240598436434534, 0.1716300090462172],[0.15117272349359195, 0.6742630338552159, 0.11250255884279614]
2,83,[0.0097968958488062, 1.0, -0.04319298957138992],[0.10856851600781477, 0.8240598436434534, 0.1716300090462172],[0.15117272349359195, 0.6742630338552159, 0.11250255884279614]
2,84,[0.0097968958488062, 1.0, -0.04319298957138992],[0.10856851600781477, 0.8240598436434534, 0.1716300090462172],[0.15117272349359195, 0.6742630338552159, 0.11250255884279614]
2,85,[0.0097968958488062, 1.0, -0.04319298957138992],[0.10856851600781477, 0.8240598436434534, 0.1716300090462172],[0.15117272349359195, 0.6742630338552159, 0.11250255884279614]
2,86,[0.0097968958488062, 1.0, -0.04319298957138992],[0.10856851600781477, 0.8240598436434534, 0.1716300090462172],[0.15117272349359195, 0.6742630338552159, 0.11250255884279614]
2,87,[0.0097968958488062, 1.0, -0.04319298957138992],[0.10856851600781477, 0.8240598436434534, 0.1716300090462172],[0.15117272349359195, 0.6742630338552159, 0.11250255884279614]
2,88,[0.0097968958488062, 1.0, -0.04319298957138992],[0.10856851600781477, 0.8240598436434534, 0.1716300090462172],[0.15117272349359195, 0.6742630338552159, 0.11250255884279614]
2,89,[0.0097968958488062, 1.0, -0.04319298957138992],[0.10856851600781477, 0.8240598436434534, 0.1716300090462172],[0.15117272349359195, 0.6742630338552159, 0.11250255884279614]
2,90,[0.0097968958488062, 1.0, -0.04319298957138992],[0.10856851600781477, 0.8240598436434534, 0.1716300090462172],[0.15117272349359195, 0.6742630338552159, 0.11250255884279614]
2,91,[0.0097968958488062, 1.0, -0.04319298957138992],[0.10856851600781477, 0.8240598436434534, 0.1716300090462172],[0.15117272349359195, 0.6742630338552159, 0.11250255884279614]
2,92,[0.0097968958488062, 1.0, -0.04319298957138992],[0.10856851600781477, 0.8240598436434534, 0.1716300090462172],[0.15117272349359195, 0.6742630338552159, 0.11250255884279614]
2,93,[0.0097968958488062, 1.0, -0.04319298957138992],[0.10856851600781477, 0.8240598436434534, 0.1716300090462172],[0.15117272349359195, 0.6742630338552159, 0.11250255884279614]
2,94,[0.0097968958488062, 1.0, -0.04319298957138992],[0.10856851600781477, 0.8240598436434534, 0.1716300090462172],[0.15117272349359195, 0.6742630338552159, 0.11250255884279614]
2,95,[0.0097968958488062, 1.0, -0.04319298957138992],[0.10856851600781477, 0.8240598436434534, 0.1716300090462172],[0.15117272349359195, 0.6742630338552159, 0.11250255884279614]
2,96,[0.0097968958488062, 1.0, -0.04319298957138992],[0.10856851600781477, 0.8240598436434534, 0.1716300090462172],[0.15117272349359195, 0.6742630338552159, 0.11250255884279614]
2,97,[0.0097968958488062, 1.0, -0.04319298957138992],[0.10856851600781477, 0.8240598436434534, 0.1716300090462172],[0.15117272349359195, 0.6742630338552159, 0.11250255884279614]
2,98,[0.0097968958488062, 1.0, -0.04319298957138992],[0.10856851600781477, 0.8240598436434534, 0.1716300090462172],[0.15117272349359195, 0.6742630338552159, 0.11250255884279614]
2,99,[0.0097968958488062, 1.0, -0.04319298957138992],[0.10856851600781477, 0.8240598436434534, 0.1716300090462172],[0.15117272349359195, 0.6742630338552159, 0.11250255884279614]
3,0,[0.006859247790594818, 0.9385554190278742, 0.023004467048387118],[0.16801567407319004, 0.7227857850732922, 0.07507232614167167],[0.22562587459566327, 0.6209506539553997, 0.09526821820728387]
3,1,[0.006859247790594818, 0.9385554190278742, 0.023004467048387118],[0.16801567407319004, 0.7227857850732922, 0.07507232614167167],[0.22562587459566327, 0.6209506539553997, 0.09526821820728387]
3,2,[0.006859247790594818, 0.9385554190278742, 0.023004467048387118],[0.16801567407319004, 0.7227857850732922, 0.07507232614167167],[0.22562587459566327, 0.6209506539553997, 0.09526821820728387]
3,3,[0.006859247790594818, 0.9385554190278742, 0.023004467048387118],[0.16801567407319004, 0.7227857850732922, 0.07507232614167167],[0.22562587459566327, 0.6209506539553997, 0.09526821820728387]
3,4,[0.006859247790594818, 0.9385554190278742, 0.023004467048387118],[0.16801567407319004, 0.7227857850732922, 0.07507232614167167],[0.22562587459566327, 0.6209506539553997, 0.09526821820728387]
3,5,[0.006859247790594818, 0.9385554190278742, 0.023004467048387118],[0.16801567407319004, 0.7227857850732922, 0.07507232614167167],[0.22562587459566327, 0.6209506539553997, 0.09526821820728387]
3,6,[0.006859247790594818, 0.9385554190278742, 0.023004467048387118],[0.16801567407319004, 0.7227857850732922, 0.07507232614167167],[0.22562587459566327, 0.6209506539553997, 0.09526821820728387]
3,7,[0.006859247790594818, 0.9385554190278742, 0.023004467048387118],[0.16801567407319004, 0.7227857850732922, 0.07507232614167167],[0.22562587459566327, 0.6209506539553997, 0.09526821820728387]
3,8,[0.006859247790594818, 0.9385554190278742, 0.023004467048387118],[0.16801567407319004, 0.7227857850732922, 0.07507232614167167],[0.22562587459566327, 0.6209506539553997, 0.09526821820728387]
3,9,[0.006859247790594818, 0.9385554190278742, 0.023004467048387118],[0.16801567407319004, 0.7227857850732922, 0.07507232614167167],[0.22562587459566327, 0.6209506539553997, 0.09526821820728387]
3,10,[0.006859247790594818, 0.9385554190278742, 0.023004467048387118],[0.16801567407319004, 0.7227857850732922, 0.07507232614167167],[0.22562587459566327, 0.6209506539553997, 0.09526821820728387]
3,11,[0.006859247790594818, 0.9385554190278742, 0.023004467048387118],[0.16801567407319004, 0.7227857850732922, 0.07507232614167167],[0.22562587459566327, 0.6209506539553997, 0.09526821820728387]
3,12,[0.006859247790594818, 0.9385554190278742, 0.023004467048387118],[0.16801567407319004, 0.7227857850732922, 0.07507232614167167],[0.22562587459566327, 0.6209506539553997, 0.09526821820728387]
3,13,[0.006859247790594818, 0.9385554190278742, 0.023004467048387118],[0.16801567407319004, 0.7227857850732922, 0.07507232614167167],[0.22562587459566327, 0.6209506539553997, 0.09526821820728387]
3,14,[0.006859247790594818, 0.9385554190278742, 0.023004467048387118],[0.16801567407319004, 0.7227857850732922, 0.07507232614167167],[0.22562587459566327, 0.6209506539553997, 0.09526821820728387]
3,15,[0.006859247790594818, 0.9385554190278742, 0.023004467048387118],[0.16801567407319004, 0.7227857850732922, 0.07507232614167167],[0.22562587459566327, 0.6209506539553997, 0.09526821820728387]
3,16,[0.006859247790594818, 0.9385554190278742, 0.023004467048387118],[0.16801567407319004, 0.7227857850732922, 0.07507232614167167],[0.22562587459566327, 0.6209506539553997, 0.09526821820728387]
3,17,[0.006859247790594818, 0.9385554190278742, 0.023004467048387118],[0.16801567407319004, 0.7227857850732922, 0.07507232614167167],[0.22562587459566327, 0.6209506539553997, 0.09526821820728387]
3,18,[0.006859247790594818, 0.9385554190278742, 0.023004467048387118],[0.16801567407319004, 0.7227857850732922, 0.07507232614167167],[0.22562587459566327, 0.6209506539553997, 0.09526821820728387]
3,19,[0.006859247790594818, 0.9385554190278742, 0.023004467048387118],[0.16801567407319004, 0.7227857850732922, 0.07507232614167167],[0.22562587459566327, 0.6209506539553997, 0.09526821820728387]
3,20,[0.006859247790594818, 0.9385554190278742, 0.023004467048387118],[0.16801567407319004, 0.7227857850732922, 0.07507232614167167],[0.22562587459566327, 0.6209506539553997, 0.09526821820728387]
3,21,[0.006859247790594818, 0.9385554190278742, 0.023004467048387118],[0.16801567407319004, 0.7227857850732922, 0.07507232614167167],[0.22562587459566327, 0.6209506539553997, 0.09526821820728387]
3,22,[0.006859247790594818, 0.9385554190278742, 0.023004467048387118],[0.16801567407319004, 0.7227857850732922, 0.07507232614167167],[0.22562587459566327, 0.6209506539553997, 0.09526821820728387]
3,23,[0.006859247790594818, 0.9385554190278742, 0.023004467048387118],[0.16801567407319004, 0.7227857850732922, 0.07507232614167167],[0.22562587459566327, 0.6209506539553997, 0.09526821820728387]
3,24,[0.006859247790594818, 0.9385554190278742, 0.023004467048387118],[0.16801567407319004, 0.7227857850732922, 0.07507232614167167],[0.22562587459566327, 0.6209506539553997, 0.09526821820728387]
3,25,[0.006859247790594818, 0.9385554190278742, 0.023004467048387118],[0.16801567407319004, 0.7227857850732922, 0.07507232614167167],[0.22562587459566327, 0.6209506539553997, 0.09526821820728387]
3,26,[0.006859247790594818, 0.9385554190278742, 0.023004467048387118],[0.16801567407319004, 0.7227857850732922, 0.07507232614167167],[0.22562587459566327, 0.6209506539553997, 0.09526821820728387]
3,27,[0.006859247790594818, 0.9385554190278742, 0.023004467048387118],[0.16801567407319004, 0.7227857850732922, 0.07507232614167167],[0.22562587459566327, 0.6209506539553997, 0.09526821820728387]
3,28,[0.006859247790594818, 0.9385554190278742, 0.023004467048387118],[0.16801567407319004, 0.7227857850732922, 0.07507232614167167],[0.22562587459566327, 0.6209506539553997, 0.09526821820728387]
3,29,[0.006859247790594818, 0.9385554190278742, 0.023004467048387118],[0.16801567407319004, 0.7227857850732922, 0.07507232614167167],[0.22562587459566327, 0.6209506539553997, 0.09526821820728387]
3,30,[0.006859247790594818, 0.9385554190278742, 0.023004467048387118],[0.16801567407319004, 0.7227857850732922, 0.07507232614167167],[0.22562587459566327, 0.6209506539553997, 0.09526821820728387]
3,31,[0.006859247790594818, 0.9385554190278742, 0.023004467048387118],[0.16801567407319004, 0.7227857850732922, 0.07507232614167167],[0.22562587459566327, 0.6209506539553997, 0.09526821820728387]
3,32,[0.006859247790594818, 0.9385554190278742, 0.023004467048387118],[0.16801567407319004, 0.7227857850732922, 0.07507232614167167],[0.22562587459566327, 0.6209506539553997, 0.09526821820728387]
3,33,[0.006859247790594818, 0.9385554190278742, 0.023004467048387118],[0.16801567407319004, 0.7227857850732922, 0.07507232614167167],[0.22562587459566327, 0.6209506539553997, 0.09526821820728387]
3,34,[0.006859247790594818, 0.9385554190278742, 0.023004467048387118],[0.16801567407319004, 0.7227857850732922, 0.07507232614167167],[0.22562587459566327, 0.6209506539553997, 0.09526821820728387]
3,35,[0.006859247790594818, 0.9385554190278742, 0.023004467048387118],[0.16801567407319004, 0.7227857850732922, 0.07507232614167167],[0.22562587459566327, 0.6209506539553997, 0.09526821820728387]
3,36,[0.006859247790594818, 0.9385554190278742, 0.023004467048387118],[0.16801567407319004, 0.7227857850732922, 0.07507232614167167],[0.22562587459566327, 0.6209506539553997, 0.09526821820728387]
3,37,[0.006859247790594818, 0.9385554190278742, 0.023004467048387118],[0.16801567407319004, 0.7227857850732922, 0.07507232614167167],[0.22562587459566327, 0.6209506539553997, 0.09526821820728387]
3,38,[0.006859247790594818, 0.9385554190278742, 0.023004467048387118],[0.16801567407319004, 0.7227857850732922, 0.07507232614167167],[0.22562587459566327, 0.6209506539553997, 0.09526821820728387]
3,39,[0.006859247790594818, 0.9385554190278742, 0.023004467048387118],[0.16801567407319004, 0.7227857850732922, 0.07507232614167167],[0.22562587459566327, 0.6209506539553997, 0.09526821820728387]
3,40,[0.006859247790594818, 0.9385554190278742, 0.023004467048387118],[0.16801567407319004, 0.7227857850732922, 0.07507232614167167],[0.22562587459566327, 0.6209506539553997, 0.09526821820728387]
3,41,[0.006859247790594818, 0.9385554190278742, 0.023004467048387118],[0.16801567407319004, 0.7227857850732922, 0.07507232614167167],[0.22562587459566327, 0.6209506539553997, 0.09526821820728387]
3,42,[0.006859247790594818, 0.9385554190278742, 0.023004467048387118],[0.16801567407319004, 0.7227857850732922, 0.07507232614167167],[0.22562587459566327, 0.6209506539553997, 0.09526821820728387]
3,43,[0.006859247790594818, 0.9385554190278742, 0.023004467048387118],[0.16801567407319004, 0.7227857850732922, 0.07507232614167167],[0.22562587459566327, 0.6209506539553997, 0.09526821820728387]
3,44,[0.006859247790594818, 0.9385554190278742, 0.023004467048387118],[0.16801567407319004, 0.7227857850732922, 0.07507232614167167],[0.22562587459566327, 0.6209506539553997, 0.09526821820728387]
3,45,[0.006859247790594818, 0.9385554190278742, 0.023004467048387118],[0.16801567407319004, 0.7227857850732922, 0.07507232614167167],[0.22562587459566327, 0.6209506539553997, 0.09526821820728387]
3,46,[0.006859247790594818, 0.9385554190278742, 0.023004467048387118],[0.16801567407319004, 0.7227857850732922, 0.07507232614167167],[0.22562587459566327, 0.6209506539553997, 0.09526821820728387]
3,47,[0.006859247790594818, 0.9385554190278742, 0.023004467048387118],[0.16801567407319004, 0.7227857850732922, 0.07507232614167167],[0.22562587459566327, 0.6209506539553997, 0.09526821820728387]
3,48,[0.006859247790594818, 0.9385554190278742, 0.023004467048387118],[0.16801567407319004, 0.7227857850732922, 0.07507232614167167],[0.22562587459566327, 0.6209506539553997, 0.09526821820728387]
3,49,[0.006859247790594818, 0.9385554190278742, 0.023004467048387118],[0.16801567407319004, 0.7227857850732922, 0.07507232614167167],[0.22562587459566327, 0.6209506539553997, 0.09526821820728387]
3,50,[0.006859247790594818, 0.9385554190278742, 0.023004467048387118],[0.16801567407319004, 0.7227857850732922, 0.07507232614167167],[0.22562587459566327, 0.6209506539553997, 0.09526821820728387]
3,51,[0.006859247790594818, 0.9385554190278742, 0.023004467048387118],[0.16801567407319004, 0.7227857850732922, 0.07507232614167167],[0.22562587459566327, 0.6209506539553997, 0.09526821820728387]
3,52,[0.006859247790594818, 0.9385554190278742, 0.023004467048387118],[0.16801567407319004, 0.7227857850732922, 0.07507232614167167],[0.22562587459566327, 0.6209506539553997, 0.09526821820728387]
3,53,[0.006859247790594818, 0.9385554190278742, 0.023004467048387118],[0.16801567407319004, 0.7227857850732922, 0.07507232614167167],[0.22562587459566327, 0.6209506539553997, 0.09526821820728387]
3,54,[0.006859247790594818, 0.9385554190278742, 0.023004467048387118],[0.16801567407319004, 0.7227857850732922, 0.07507232614167167],[0.22562587459566327, 0.6209506539553997, 0.09526821820728387]
3,55,[0.006859247790594818, 0.9385554190278742, 0.023004467048387118],[0.16801567407319004, 0.7227857850732922, 0.07507232614167167],[0.22562587459566327, 0.6209506539553997, 0.09526821820728387]
3,56,[0.006859247790594818, 0.9385554190278742, 0.023004467048387118],[0.16801567407319004, 0.7227857850732922, 0.07507232614167167],[0.22562587459566327, 0.6209506539553997, 0.09526821820728387]
3,57,[0.006859247790594818, 0.9385554190278742, 0.023004467048387118],[0.16801567407319004, 0.7227857850732922, 0.07507232614167167],[0.22562587459566327, 0.6209506539553997, 0.09526821820728387]
3,58,[0.006859247790594818, 0.9385554190278742, 0.023004467048387118],[0.16801567407319004, 0.7227857850732922, 0.07507232614167167],[0.22562587459566327, 0.6209506539553997, 0.09526821820728387]
3,59,[0.006859247790594818, 0.9385554190278742, 0.023004467048387118],[0.16801567407319004, 0.7227857850732922, 0.07507232614167167],[0.22562587459566327, 0.6209506539553997, 0.09526821820728387]
3,60,[0.006859247790594818, 0.9385554190278742, 0.023004467048387118],[0.16801567407319004, 0.7227857850732922, 0.07507232614167167],[0.22562587459566327, 0.6209506539553997, 0.09526821820728387]
3,61,[0.006859247790594818, 0.9385554190278742, 0.023004467048387118],[0.16801567407319004, 0.7227857850732922, 0.07507232614167167],[0.22562587459566327, 0.6209506539553997, 0.09526821820728387]
3,62,[0.006859247790594818, 0.9385554190278742, 0.023004467048387118],[0.16801567407319004, 0.7227857850732922, 0.07507232614167167],[0.22562587459566327, 0.6209506539553997, 0.09526821820728387]
3,63,[0.006859247790594818, 0.9385554190278742, 0.023004467048387118],[0.16801567407319004, 0.7227857850732922, 0.07507232614167167],[0.22562587459566327, 0.6209506539553997, 0.09526821820728387]
3,64,[0.006859247790594818, 0.9385554190278742, 0.023004467048387118],[0.16801567407319004, 0.7227857850732922, 0.07507232614167167],[0.22562587459566327, 0.6209506539553997, 0.09526821820728387]
3,65,[0.006859247790594818, 0.9385554190278742, 0.023004467048387118],[0.16801567407319004, 0.7227857850732922, 0.07507232614167167],[0.22562587459566327, 0.6209506539553997, 0.09526821820728387]
3,66,[0.006859247790594818, 0.9385554190278742, 0.023004467048387118],[0.16801567407319004, 0.7227857850732922, 0.07507232614167167],[0.22562587459566327, 0.6209506539553997, 0.09526821820728387]
3,67,[0.006859247790594818, 0.9385554190278742, 0.023004467048387118],[0.16801567407319004, 0.7227857850732922, 0.07507232614167167],[0.22562587459566327, 0.6209506539553997, 0.09526821820728387]
3,68,[0.006859247790594818, 0.9385554190278742, 0.023004467048387118],[0.16801567407319004, 0.7227857850732922, 0.07507232614167167],[0.22562587459566327, 0.6209506539553997, 0.09526821820728387]
3,69,[0.006859247790594818, 0.9385554190278742, 0.023004467048387118],[0.16801567407319004, 0.7227857850732922, 0.07507232614167167],[0.22562587459566327, 0.6209506539553997, 0.09526821820728387]
3,70,[0.006859247790594818, 0.9385554190278742, 0.023004467048387118],[0.16801567407319004, 0.7227857850732922, 0.07507232614167167],[0.22562587459566327, 0.6209506539553997, 0.09526821820728387]
3,71,[0.006859247790594818, 0.9385554190278742, 0.023004467048387118],[0.16801567407319004, 0.7227857850732922, 0.07507232614167167],[0.22562587459566327, 0.6209506539553997, 0.09526821820728387]
3,72,[0.006859247790594818, 0.9385554190278742, 0.023004467048387118],[0.16801567407319004, 0.7227857850732922, 0.07507232614167167],[0.22562587459566327, 0.6209506539553997, 0.09526821820728387]
3,73,[0.006859247790594818, 0.9385554190278742, 0.023004467048387118],[0.16801567407319004, 0.7227857850732922, 0.07507232614167167],[0.22562587459566327, 0.6209506539553997, 0.09526821820728387]
3,74,[0.006859247790594818, 0.9385554190278742, 0.023004467048387118],[0.16801567407319004, 0.7227857850732922, 0.07507232614167167],[0.22562587459566327, 0.6209506539553997, 0.09526821820728387]
3,75,[0.006859247790594818, 0.9385554190278742, 0.023004467048387118],[0.16801567407319004, 0.7227857850732922, 0.07507232614167167],[0.22562587459566327, 0.6209506539553997, 0.09526821820728387]
3,76,[0.006859247790594818, 0.9385554190278742, 0.023004467048387118],[0.16801567407319004, 0.7227857850732922, 0.07507232614167167],[0.22562587459566327, 0.6209506539553997, 0.09526821820728387]
3,77,[0.006859247790594818, 0.9385554190278742, 0.023004467048387118],[0.16801567407319004, 0.7227857850732922, 0.07507232614167167],[0.22562587459566327, 0.6209506539553997, 0.09526821820728387]
3,78,[0.006859247790594818, 0.9385554190278742, 0.023004467048387118],[0.16801567407319004, 0.7227857850732922, 0.07507232614167167],[0.22562587459566327, 0.6209506539553997, 0.09526821820728387]
3,79,[0.006859247790594818, 0.9385554190278742, 0.023004467048387118],[0.16801567407319004, 0.7227857850732922, 0.07507232614167167],[0.22562587459566327, 0.6209506539553997, 0.09526821820728387]
3,80,[0.006859247790594818, 0.9385554190278742, 0.023004467048387118],[0.16801567407319004, 0.7227857850732922, 0.07507232614167167],[0.22562587459566327, 0.6209506539553997, 0.09526821820728387]
3,81,[0.006859247790594818, 0.9385554190278742, 0.023004467048387118],[0.16801567407319004, 0.7227857850732922, 0.07507232614167167],[0.22562587459566327, 0.6209506539553997, 0.09526821820728387]
3,82,[0.006859247790594818, 0.9385554190278742, 0.023004467048387118],[0.16801567407319004, 0.7227857850732922, 0.07507232614167167],[0.22562587459566327, 0.6209506539553997, 0.09526821820728387]
3,83,[0.006859247790594818, 0.9385554190278742, 0.023004467048387118],[0.16801567407319004, 0.7227857850732922, 0.07507232614167167],[0.22562587459566327, 0.6209506539553997, 0.09526821820728387]
3,84,[0.006859247790594818, 0.9385554190278742, 0.023004467048387118],[0.16801567407319004, 0.7227857850732922, 0.07507232614167167],[0.22562587459566327, 0.6209506539553997, 0.09526821820728387]
3,85,[0.006859247790594818, 0.9385554190278742, 0.023004467048387118],[0.16801567407319004, 0.7227857850732922, 0.07507232614167167],[0.22562587459566327, 0.6209506539553997, 0.09526821820728387]
3,86,[0.006859247790594818, 0.9385554190278742, 0.023004467048387118],[0.16801567407319004, 0.7227857850732922, 0.07507232614167167],[0.22562587459566327, 0.6209506539553997, 0.09526821820728387]
3,87,[0.006859247790594818, 0.9385554190278742, 0.023004467048387118],[0.16801567407319004, 0.7227857850732922, 0.07507232614167167],[0.22562587459566327, 0.6209506539553997, 0.09526821820728387]
3,88,[0.006859247790594818, 0.9385554190278742, 0.023004467048387118],[0.16801567407319004, 0.7227857850732922, 0.07507232614167167],[0.22562587459566327, 0.6209506539553997, 0.09526821820728387]
3,89,[0.006859247790594818, 0.9385554190278742, 0.023004467048387118],[0.16801567407319004, 0.7227857850732922, 0.07507232614167167],[0.22562587459566327, 0.6209506539553997, 0.09526821820728387]
3,90,[0.006859247790594818, 0.9385554190278742, 0.023004467048387118],[0.16801567407319004, 0.7227857850732922, 0.07507232614167167],[0.22562587459566327, 0.6209506539553997, 0.09526821820728387]
3,91,[0.006859247790594818, 0.9385554190278742, 0.023004467048387118],[0.16801567407319004, 0.7227857850732922, 0.07507232614167167],[0.22562587459566327, 0.6209506539553997, 0.09526821820728387]
3,92,[0.006859247790594818, 0.9385554190278742, 0.023004467048387118],[0.16801567407319004, 0.7227857850732922, 0.07507232614167167],[0.22562587459566327, 0.6209506539553997, 0.09526821820728387]
3,93,[0.006859247790594818, 0.9385554190278742, 0.023004467048387118],[0.16801567407319004, 0.7227857850732922, 0.07507232614167167],[0.22562587459566327, 0.6209506539553997, 0.09526821820728387]
3,94,[0.006859247790594818, 0.9385554190278742, 0.023004467048387118],[0.16801567407319004, 0.7227857850732922, 0.07507232614167167],[0.22562587459566327, 0.6209506539553997, 0.09526821820728387]
3,95,[0.006859247790594818, 0.9385554190278742, 0.023004467048387118],[0.16801567407319004, 0.7227857850732922, 0.07507232614167167],[0.22562587459566327, 0.6209506539553997, 0.09526821820728387]
3,96,[0.006859247790594818, 0.9385554190278742, 0.023004467048387118],[0.16801567407319004, 0.7227857850732922, 0.07507232614167167],[0.22562587459566327, 0.6209506539553997, 0.09526821820728387]
3,97,[0.006859247790594818, 0.9385554190278742, 0.023004467048387118],[0.16801567407319004, 0.7227857850732922, 0.07507232614167167],[0.22562587459566327, 0.6209506539553997, 0.09526821820728387]
3,98,[0.006859247790594818, 0.9385554190278742, 0.023004467048387118],[0.16801567407319004, 0.7227857850732922, 0.07507232614167167],[0.22562587459566327, 0.6209506539553997, 0.09526821820728387]
3,99,[0.006859247790594818, 0.9385554190278742, 0.023004467048387118],[0.16801567407319004, 0.7227857850732922, 0.07507232614167167],[0.22562587459566327, 0.6209506539553997, 0.09526821820728387]
4,0,[-0.04309028023386488, 0.9380236222193634, -0.05958982235468752],[0.11119362090315874, 0.8194013831909805, 0.13023892732985604],[0.18787621303740315, 0.6874115970021138, 0.11760996505658891]
4,1,[-0.04309028023386488, 0.9380236222193634, -0.05958982235468752],[0.11119362090315874, 0.8194013831909805, 0.13023892732985604],[0.18787621303740315, 0.6874115970021138, 0.11760996505658891]
4,2,[-0.04309028023386488, 0.9380236222193634, -0.05958982235468752],[0.11119362090315874, 0.8194013831909805, 0.13023892732985604],[0.18787621303740315, 0.6874115970021138, 0.11760996505658891]
4,3,[-0.04309028023386488, 0.9380236222193634, -0.05958982235468752],[0.11119362090315874, 0.8194013831909805, 0.13023892732985604],[0.18787621303740315, 0.6874115970021138, 0.11760996505658891]
4,4,[-0.04309028023386488, 0.9380236222193634, -0.05958982235468752],[0.11119362090315874, 0.8194013831909805, 0.13023892732985604],[0.18787621303740315, 0.6874115970021138, 0.11760996505658891]
4,5,[-0.04309028023386488, 0.9380236222193634, -0.05958982235468752],[0.11119362090315874, 0.8194013831909805, 0.13023892732985604],[0.18787621303740315, 0.6874115970021138, 0.11760996505658891]
4,6,[-0.04309028023386488, 0.9380236222193634, -0.05958982235468752],[0.11119362090315874, 0.8194013831909805, 0.13023892732985604],[0.18787621303740315, 0.6874115970021138, 0.11760996505658891]
4,7,[-0.04309028023386488, 0.9380236222193634, -0.05958982235468752],[0.11119362090315874, 0.8194013831909805, 0.13023892732985604],[0.18787621303740315, 0.6874115970021138, 0.11760996505658891]
4,8,[-0.04309028023386488, 0.9380236222193634, -0.05958982235468752],[0.11119362090315874, 0.8194013831909805, 0.13023892732985604],[0.18787621303740315, 0.6874115970021138, 0.11760996505658891]
4,9,[-0.04309028023386488, 0.9380236222193634, -0.05958982235468752],[0.11119362090315874, 0.8194013831909805, 0.13023892732985604],[0.18787621303740315, 0.6874115970021138, 0.11760996505658891]
4,10,[-0.04309028023386488, 0.9380236222193634, -0.05958982235468752],[0.11119362090315874, 0.8194013831909805, 0.13023892732985604],[0.18787621303740315, 0.6874115970021138, 0.11760996505658891]
4,11,[-0.04309028023386488, 0.9380236222193634, -0.05958982235468752],[0.11119362090315874, 0.8194013831909805, 0.13023892732985604],[0.18787621303740315, 0.6874115970021138, 0.11760996505658891]
4,12,[-0.04309028023386488, 0.9380236222193634, -0.05958982235468752],[0.11119362090315874, 0.8194013831909805, 0.13023892732985604],[0.18787621303740315, 0.6874115970021138, 0.11760996505658891]
4,13,[-0.04309028023386488, 0.9380236222193634, -0.05958982235468752],[0.11119362090315874, 0.8194013831909805, 0.13023892732985604],[0.18787621303740315, 0.6874115970021138, 0.11760996505658891]
4,14,[-0.04309028023386488, 0.9380236222193634, -0.05958982235468752],[0.11119362090315874, 0.8194013831909805, 0.13023892732985604],[0.18787621303740315, 0.6874115970021138, 0.11760996505658891]
4,15,[-0.04309028023386488, 0.9380236222193634, -0.05958982235468752],[0.11119362090315874, 0.8194013831909805, 0.13023892732985604],[0.18787621303740315, 0.6874115970021138, 0.11760996505658891]
4,16,[-0.04309028023386488, 0.9380236222193634, -0.05958982235468752],[0.11119362090315874, 0.8194013831909805, 0.13023892732985604],[0.18787621303740315, 0.6874115970021138, 0.11760996505658891]
4,17,[-0.04309028023386488, 0.9380236222193634, -0.05958982235468752],[0.11119362090315874, 0.8194013831909805, 0.13023892732985604],[0.18787621303740315, 0.6874115970021138, 0.11760996505658891]
4,18,[-0.04309028023386488, 0.9380236222193634, -0.05958982235468752],[0.11119362090315874, 0.8194013831909805, 0.13023892732985604],[0.18787621303740315, 0.6874115970021138, 0.11760996505658891]
4,19,[-0.04309028023386488, 0.9380236222193634, -0.05958982235468752],[0.11119362090315874, 0.8194013831909805, 0.13023892732985604],[0.18787621303740315, 0.6874115970021138, 0.11760996505658891]
4,20,[-0.04309028023386488, 0.9380236222193634, -0.05958982235468752],[0.11119362090315874, 0.8194013831909805, 0.13023892732985604],[0.18787621303740315, 0.6874115970021138, 0.11760996505658891]
4,21,[-0.04309028023386488, 0.9380236222193634, -0.05958982235468752],[0.11119362090315874, 0.8194013831909805, 0.13023892732985604],[0.18787621303740315, 0.6874115970021138, 0.11760996505658891]
4,22,[-0.04309028023386488, 0.9380236222193634, -0.05958982235468752],[0.11119362090315874, 0.8194013831909805, 0.13023892732985604],[0.18787621303740315, 0.6874115970021138, 0.11760996505658891]
4,23,[-0.04309028023386488, 0.9380236222193634, -0.05958982235468752],[0.11119362090315874, 0.8194013831909805, 0.13023892732985604],[0.18787621303740315, 0.6874115970021138, 0.11760996505658891]
4,24,[-0.04309028023386488, 0.9380236222193634, -0.05958982235468752],[0.11119362090315874, 0.8194013831909805, 0.13023892732985604],[0.18787621303740315, 0.6874115970021138, 0.11760996505658891]
4,25,[-0.04309028023386488, 0.9380236222193634, -0.05958982235468752],[0.11119362090315874, 0.8194013831909805, 0.13023892732985604],[0.18787621303740315, 0.6874115970021138, 0.11760996505658891]
4,26,[-0.04309028023386488, 0.9380236222193634, -0.05958982235468752],[0.11119362090315874, 0.8194013831909805, 0.13023892732985604],[0.18787621303740315, 0.6874115970021138, 0.11760996505658891]
4,27,[-0.04309028023386488, 0.9380236222193634, -0.05958982235468752],[0.11119362090315874, 0.8194013831909805, 0.13023892732985604],[0.18787621303740315, 0.6874115970021138, 0.11760996505658891]
4,28,[-0.04309028023386488, 0.9380236222193634, -0.05958982235468752],[0.11119362090315874, 0.8194013831909805, 0.13023892732985604],[0.18787621303740315, 0.6874115970021138, 0.11760996505658891]
4,29,[-0.04309028023386488, 0.9380236222193634, -0.05958982235468752],[0.11119362090315874, 0.8194013831909805, 0.13023892732985604],[0.18787621303740315, 0.6874115970021138, 0.11760996505658891]
4,30,[-0.04309028023386488, 0.9380236222193634, -0.05958982235468752],[0.11119362090315874, 0.8194013831909805, 0.13023892732985604],[0.18787621303740315, 0.6874115970021138, 0.11760996505658891]
4,31,[-0.04309028023386488, 0.9380236222193634, -0.05958982235468752],[0.11119362090315874, 0.8194013831909805, 0.13023892732985604],[0.18787621303740315, 0.6874115970021138, 0.11760996505658891]
4,32,[-0.04309028023386488, 0.9380236222193634, -0.05958982235468752],[0.11119362090315874, 0.8194013831909805, 0.13023892732985604],[0.18787621303740315, 0.6874115970021138, 0.11760996505658891]
4,33,[-0.04309028023386488, 0.9380236222193634, -0.05958982235468752],[0.11119362090315874, 0.8194013831909805, 0.13023892732985604],[0.18787621303740315, 0.6874115970021138, 0.11760996505658891]
4,34,[-0.04309028023386488, 0.9380236222193634, -0.05958982235468752],[0.11119362090315874, 0.8194013831909805, 0.13023892732985604],[0.18787621303740315, 0.6874115970021138, 0.11760996505658891]
4,35,[-0.04309028023386488, 0.9380236222193634, -0.05958982235468752],[0.11119362090315874, 0.8194013831909805, 0.13023892732985604],[0.18787621303740315, 0.6874115970021138, 0.11760996505658891]
4,36,[-0.04309028023386488, 0.9380236222193634, -0.05958982235468752],[0.11119362090315874, 0.8194013831909805, 0.13023892732985604],[0.18787621303740315, 0.6874115970021138, 0.11760996505658891]
4,37,[-0.04309028023386488, 0.9380236222193634, -0.05958982235468752],[0.11119362090315874, 0.8194013831909805, 0.13023892732985604],[0.18787621303740315, 0.6874115970021138, 0.11760996505658891]
4,38,[-0.04309028023386488, 0.9380236222193634, -0.05958982235468752],[0.11119362090315874, 0.8194013831909805, 0.13023892732985604],[0.18787621303740315, 0.6874115970021138, 0.11760996505658891]
4,39,[-0.04309028023386488, 0.9380236222193634, -0.05958982235468752],[0.11119362090315874, 0.8194013831909805, 0.13023892732985604],[0.18787621303740315, 0.6874115970021138, 0.11760996505658891]
4,40,[-0.04309028023386488, 0.9380236222193634, -0.05958982235468752],[0.11119362090315874, 0.8194013831909805, 0.13023892732985604],[0.18787621303740315, 0.6874115970021138, 0.11760996505658891]
4,41,[-0.04309028023386488, 0.9380236222193634, -0.05958982235468752],[0.11119362090315874, 0.8194013831909805, 0.13023892732985604],[0.18787621303740315, 0.6874115970021138, 0.11760996505658891]
4,42,[-0.04309028023386488, 0.9380236222193634, -0.05958982235468752],[0.11119362090315874, 0.8194013831909805, 0.13023892732985604],[0.18787621303740315, 0.6874115970021138, 0.11760996505658891]
4,43,[-0.04309028023386488, 0.9380236222193634, -0.05958982235468752],[0.11119362090315874, 0.8194013831909805, 0.13023892732985604],[0.18787621303740315, 0.6874115970021138, 0.11760996505658891]
4,44,[-0.04309028023386488, 0.9380236222193634, -0.05958982235468752],[0.11119362090315874, 0.8194013831909805, 0.13023892732985604],[0.18787621303740315, 0.6874115970021138, 0.11760996505658891]
4,45,[-0.04309028023386488, 0.9380236222193634, -0.05958982235468752],[0.11119362090315874, 0.8194013831909805, 0.13023892732985604],[0.18787621303740315, 0.6874115970021138, 0.11760996505658891]
4,46,[-0.04309028023386488, 0.9380236222193634, -0.05958982235468752],[0.11119362090315874, 0.8194013831909805, 0.13023892732985604],[0.18787621303740315, 0.6874115970021138, 0.11760996505658891]
4,47,[-0.04309028023386488, 0.9380236222193634, -0.05958982235468752],[0.11119362090315874, 0.8194013831909805, 0.13023892732985604],[0.18787621303740315, 0.6874115970021138, 0.11760996505658891]
4,48,[-0.04309028023386488, 0.9380236222193634, -0.05958982235468752],[0.11119362090315874, 0.8194013831909805, 0.13023892732985604],[0.18787621303740315, 0.6874115970021138, 0.11760996505658891]
4,49,[-0.04309028023386488, 0.9380236222193634, -0.05958982235468752],[0.11119362090315874, 0.8194013831909805, 0.13023892732985604],[0.18787621303740315, 0.6874115970021138, 0.11760996505658891]
4,50,[-0.04309028023386488, 0.9380236222193634, -0.05958982235468752],[0.11119362090315874, 0.8194013831909805, 0.13023892732985604],[0.18787621303740315, 0.6874115970021138, 0.11760996505658891]
4,51,[-0.04309028023386488, 0.9380236222193634, -0.05958982235468752],[0.11119362090315874, 0.8194013831909805, 0.13023892732985604],[0.18787621303740315, 0.6874115970021138, 0.11760996505658891]
4,52,[-0.04309028023386488, 0.9380236222193634, -0.05958982235468752],[0.11119362090315874, 0.8194013831909805, 0.13023892732985604],[0.18787621303740315, 0.6874115970021138, 0.11760996505658891]
4,53,[-0.04309028023386488, 0.9380236222193634, -0.05958982235468752],[0.11119362090315874, 0.8194013831909805, 0.13023892732985604],[0.18787621303740315, 0.6874115970021138, 0.11760996505658891]
4,54,[-0.04309028023386488, 0.9380236222193634, -0.05958982235468752],[0.11119362090315874, 0.8194013831909805, 0.13023892732985604],[0.18787621303740315, 0.6874115970021138, 0.11760996505658891]
4,55,[-0.04309028023386488, 0.9380236222193634, -0.05958982235468752],[0.11119362090315874, 0.8194013831909805, 0.13023892732985604],[0.18787621303740315, 0.6874115970021138, 0.11760996505658891]
4,56,[-0.04309028023386488, 0.9380236222193634, -0.05958982235468752],[0.11119362090315874, 0.8194013831909805, 0.13023892732985604],[0.18787621303740315, 0.6874115970021138, 0.11760996505658891]
4,57,[-0.04309028023386488, 0.9380236222193634, -0.05958982235468752],[0.11119362090315874, 0.8194013831909805, 0.13023892732985604],[0.18787621303740315, 0.6874115970021138, 0.11760996505658891]
4,58,[-0.04309028023386488, 0.9380236222193634, -0.05958982235468752],[0.11119362090315874, 0.8194013831909805, 0.13023892732985604],[0.18787621303740315, 0.6874115970021138, 0.11760996505658891]
4,59,[-0.04309028023386488, 0.9380236222193634, -0.05958982235468752],[0.11119362090315874, 0.8194013831909805, 0.13023892732985604],[0.18787621303740315, 0.6874115970021138, 0.11760996505658891]
4,60,[-0.04309028023386488, 0.9380236222193634, -0.05958982235468752],[0.11119362090315874, 0.8194013831909805, 0.13023892732985604],[0.18787621303740315, 0.6874115970021138, 0.11760996505658891]
4,61,[-0.04309028023386488, 0.9380236222193634, -0.05958982235468752],[0.11119362090315874, 0.8194013831909805, 0.13023892732985604],[0.18787621303740315, 0.6874115970021138, 0.11760996505658891]
4,62,[-0.04309028023386488, 0.9380236222193634, -0.05958982235468752],[0.11119362090315874, 0.8194013831909805, 0.13023892732985604],[0.18787621303740315, 0.6874115970021138, 0.11760996505658891]
4,63,[-0.04309028023386488, 0.9380236222193634, -0.05958982235468752],[0.11119362090315874, 0.8194013831909805, 0.13023892732985604],[0.18787621303740315, 0.6874115970021138, 0.11760996505658891]
4,64,[-0.04309028023386488, 0.9380236222193634, -0.05958982235468752],[0.11119362090315874, 0.8194013831909805, 0.13023892732985604],[0.18787621303740315, 0.6874115970021138, 0.11760996505658891]
4,65,[-0.04309028023386488, 0.9380236222193634, -0.05958982235468752],[0.11119362090315874, 0.8194013831909805, 0.13023892732985604],[0.18787621303740315, 0.6874115970021138, 0.11760996505658891]
4,66,[-0.04309028023386488, 0.9380236222193634, -0.05958982235468752],[0.11119362090315874, 0.8194013831909805, 0.13023892732985604],[0.18787621303740315, 0.6874115970021138, 0.11760996505658891]
4,67,[-0.04309028023386488, 0.9380236222193634, -0.05958982235468752],[0.11119362090315874, 0.8194013831909805, 0.13023892732985604],[0.18787621303740315, 0.6874115970021138, 0.11760996505658891]
4,68,[-0.04309028023386488, 0.9380236222193634, -0.05958982235468752],[0.11119362090315874, 0.8194013831909805, 0.13023892732985604],[0.18787621303740315, 0.6874115970021138, 0.11760996505658891]
4,69,[-0.04309028023386488, 0.9380236222193634, -0.05958982235468752],[0.11119362090315874, 0.8194013831909805, 0.13023892732985604],[0.18787621303740315, 0.6874115970021138, 0.11760996505658891]
4,70,[-0.04309028023386488, 0.9380236222193634, -0.05958982235468752],[0.11119362090315874, 0.8194013831909805, 0.13023892732985604],[0.18787621303740315, 0.6874115970021138, 0.11760996505658891]
4,71,[-0.04309028023386488, 0.9380236222193634, -0.05958982235468752],[0.11119362090315874, 0.8194013831909805, 0.13023892732985604],[0.18787621303740315, 0.6874115970021138, 0.11760996505658891]
4,72,[-0.04309028023386488, 0.9380236222193634, -0.05958982235468752],[0.11119362090315874, 0.8194013831909805, 0.13023892732985604],[0.18787621303740315, 0.6874115970021138, 0.11760996505658891]
4,73,[-0.04309028023386488, 0.9380236222193634, -0.05958982235468752],[0.11119362090315874, 0.8194013831909805, 0.13023892732985604],[0.18787621303740315, 0.6874115970021138, 0.11760996505658891]
4,74,[-0.04309028023386488, 0.9380236222193634, -0.05958982235468752],[0.11119362090315874, 0.8194013831909805, 0.13023892732985604],[0.18787621303740315, 0.6874115970021138, 0.11760996505658891]
4,75,[-0.04309028023386488, 0.9380236222193634, -0.05958982235468752],[0.11119362090315874, 0.8194013831909805, 0.13023892732985604],[0.18787621303740315, 0.6874115970021138, 0.11760996505658891]
4,76,[-0.04309028023386488, 0.9380236222193634, -0.05958982235468752],[0.11119362090315874, 0.8194013831909805, 0.13023892732985604],[0.18787621303740315, 0.6874115970021138, 0.11760996505658891]
4,77,[-0.04309028023386488, 0.9380236222193634, -0.05958982235468752],[0.11119362090315874, 0.8194013831909805, 0.13023892732985604],[0.18787621303740315, 0.6874115970021138, 0.11760996505658891]
4,78,[-0.04309028023386488, 0.9380236222193634, -0.05958982235468752],[0.11119362090315874, 0.8194013831909805, 0.13023892732985604],[0.18787621303740315, 0.6874115970021138, 0.11760996505658891]
4,79,[-0.04309028023386488, 0.9380236222193634, -0.05958982235468752],[0.11119362090315874, 0.8194013831909805, 0.13023892732985604],[0.18787621303740315, 0.6874115970021138, 0.11760996505658891]
4,80,[-0.04309028023386488, 0.9380236222193634, -0.05958982235468752],[0.11119362090315874, 0.8194013831909805, 0.13023892732985604],[0.18787621303740315, 0.6874115970021138, 0.11760996505658891]
4,81,[-0.04309028023386488, 0.9380236222193634, -0.05958982235468752],[0.11119362090315874, 0.8194013831909805, 0.13023892732985604],[0.18787621303740315, 0.6874115970021138, 0.11760996505658891]
4,82,[-0.04309028023386488, 0.9380236222193634, -0.05958982235468752],[0.11119362090315874, 0.8194013831909805, 0.13023892732985604],[0.18787621303740315, 0.6874115970021138, 0.11760996505658891]
4,83,[-0.04309028023386488, 0.9380236222193634, -0.05958982235468752],[0.11119362090315874, 0.8194013831909805, 0.13023892732985604],[0.18787621303740315, 0.6874115970021138, 0.11760996505658891]
4,84,[-0.04309028023386488, 0.9380236222193634, -0.05958982235468752],[0.11119362090315874, 0.8194013831909805, 0.13023892732985604],[0.18787621303740315, 0.6874115970021138, 0.11760996505658891]
4,85,[-0.04309028023386488, 0.9380236222193634, -0.05958982235468752],[0.11119362090315874, 0.8194013831909805, 0.13023892732985604],[0.18787621303740315, 0.6874115970021138, 0.11760996505658891]
4,86,[-0.04309028023386488, 0.9380236222193634, -0.05958982235468752],[0.11119362090315874, 0.8194013831909805, 0.13023892732985604],[0.18787621303740315, 0.6874115970021138, 0.11760996505658891]
4,87,[-0.04309028023386488, 0.9380236222193634, -0.05958982235468752],[0.11119362090315874, 0.8194013831909805, 0.13023892732985604],[0.18787621303740315, 0.6874115970021138, 0.11760996505658891]
4,88,[-0.04309028023386488, 0.9380236222193634, -0.05958982235468752],[0.11119362090315874, 0.8194013831909805, 0.13023892732985604],[0.18787621303740315, 0.6874115970021138, 0.11760996505658891]
4,89,[-0.04309028023386488, 0.9380236222193634, -0.05958982235468752],[0.11119362090315874, 0.8194013831909805, 0.13023892732985604],[0.18787621303740315, 0.6874115970021138, 0.11760996505658891]
4,90,[-0.04309028023386488, 0.9380236222193634, -0.05958982235468752],[0.11119362090315874, 0.8194013831909805, 0.13023892732985604],[0.18787621303740315, 0.6874115970021138, 0.11760996505658891]
4,91,[-0.04309028023386488, 0.9380236222193634, -0.05958982235468752],[0.11119362090315874, 0.8194013831909805, 0.13023892732985604],[0.18787621303740315, 0.6874115970021138, 0.11760996505658891]
4,92,[-0.04309028023386488, 0.9380236222193634, -0.05958982235468752],[0.11119362090315874, 0.8194013831909805, 0.13023892732985604],[0.18787621303740315, 0.6874115970021138, 0.11760996505658891]
4,93,[-0.04309028023386488, 0.9380236222193634, -0.05958982235468752],[0.11119362090315874, 0.8194013831909805, 0.13023892732985604],[0.18787621303740315, 0.6874115970021138, 0.11760996505658891]
4,94,[-0.04309028023386488, 0.9380236222193634, -0.05958982235468752],[0.11119362090315874, 0.8194013831909805, 0.13023892732985604],[0.18787621303740315, 0.6874115970021138, 0.11760996505658891]
4,95,[-0.04309028023386488, 0.9380236222193634, -0.05958982235468752],[0.11119362090315874, 0.8194013831909805, 0.13023892732985604],[0.18787621303740315, 0.6874115970021138, 0.11760996505658891]
4,96,[-0.04309028023386488, 0.9380236222193634, -0.05958982235468752],[0.11119362090315874, 0.8194013831909805, 0.13023892732985604],[0.18787621303740315, 0.6874115970021138, 0.11760996505658891]
4,97,[-0.04309028023386488, 0.9380236222193634, -0.05958982235468752],[0.11119362090315874, 0.8194013831909805, 0.13023892732985604],[0.18787621303740315, 0.6874115970021138, 0.11760996505658891]
4,98,[-0.04309028023386488, 0.9380236222193634, -0.05958982235468752],[0.11119362090315874, 0.8194013831909805, 0.13023892732985604],[0.18787621303740315, 0.6874115970021138, 0.11760996505658891]
4,99,[-0.04309028023386488, 0.9380236222193634, -0.05958982235468752],[0.11119362090315874, 0.8194013831909805, 0.13023892732985604],[0.18787621303740315, 0.6874115970021138, 0.11760996505658891]
5,0,[-0.03907674481720102, 1.0, -0.13445654683195604],[0.05638778786152061, 0.9348786913891619, 0.17359187210810392],[0.15581735031165583, 0.7609057201642981, 0.19570483674427033]
5,1,[-0.03907674481720102, 1.0, -0.13445654683195604],[0.05638778786152061, 0.9348786913891619, 0.17359187210810392],[0.15581735031165583, 0.7609057201642981, 0.19570483674427033]
5,2,[-0.03907674481720102, 1.0, -0.13445654683195604],[0.05638778786152061, 0.9348786913891619, 0.17359187210810392],[0.15581735031165583, 0.7609057201642981, 0.19570483674427033]
5,3,[-0.03907674481720102, 1.0, -0.13445654683195604],[0.05638778786152061, 0.9348786913891619, 0.17359187210810392],[0.15581735031165583, 0.7609057201642981, 0.19570483674427033]
5,4,[-0.03907674481720102, 1.0, -0.13445654683195604],[0.05638778786152061, 0.9348786913891619, 0.17359187210810392],[0.15581735031165583, 0.7609057201642981, 0.19570483674427033]
5,5,[-0.03907674481720102, 1.0, -0.13445654683195604],[0.05638778786152061, 0.9348786913891619, 0.17359187210810392],[0.15581735031165583, 0.7609057201642981, 0.19570483674427033]
5,6,[-0.03907674481720102, 1.0, -0.13445654683195604],[0.05638778786152061, 0.9348786913891619, 0.17359187210810392],[0.15581735031165583, 0.7609057201642981, 0.19570483674427033]
5,7,[-0.03907674481720102, 1.0, -0.13445654683195604],[0.05638778786152061, 0.9348786913891619, 0.17359187210810392],[0.15581735031165583, 0.7609057201642981, 0.19570483674427033]
5,8,[-0.03907674481720102, 1.0, -0.13445654683195604],[0.05638778786152061, 0.9348786913891619, 0.17359187210810392],[0.15581735031165583, 0.7609057201642981, 0.19570483674427033]
5,9,[-0.03907674481720102, 1.0, -0.13445654683195604],[0.05638778786152061, 0.9348786913891619, 0.17359187210810392],[0.15581735031165583, 0.7609057201642981, 0.19570483674427033]
5,10,[-0.03907674481720102, 1.0, -0.13445654683195604],[0.05638778786152061, 0.9348786913891619, 0.17359187210810392],[0.15581735031165583, 0.7609057201642981, 0.19570483674427033]
5,11,[-0.03907674481720102, 1.0, -0.13445654683195604],[0.05638778786152061, 0.9348786913891619, 0.17359187210810392],[0.15581735031165583, 0.7609057201642981, 0.19570483674427033]
5,12,[-0.03907674481720102, 1.0, -0.13445654683195604],[0.05638778786152061, 0.9348786913891619, 0.17359187210810392],[0.15581735031165583, 0.7609057201642981, 0.19570483674427033]
5,13,[-0.03907674481720102, 1.0, -0.13445654683195604],[0.05638778786152061, 0.9348786913891619, 0.17359187210810392],[0.15581735031165583, 0.7609057201642981, 0.19570483674427033]
5,14,[-0.03907674481720102, 1.0, -0.13445654683195604],[0.05638778786152061, 0.9348786913891619, 0.17359187210810392],[0.15581735031165583, 0.7609057201642981, 0.19570483674427033]
5,15,[-0.03907674481720102, 1.0, -0.13445654683195604],[0.05638778786152061, 0.9348786913891619, 0.17359187210810392],[0.15581735031165583, 0.7609057201642981, 0.19570483674427033]
5,16,[-0.03907674481720102, 1.0, -0.13445654683195604],[0.05638778786152061, 0.9348786913891619, 0.17359187210810392],[0.15581735031165583, 0.7609057201642981, 0.19570483674427033]
5,17,[-0.03907674481720102, 1.0, -0.13445654683195604],[0.05638778786152061, 0.9348786913891619, 0.17359187210810392],[0.15581735031165583, 0.7609057201642981, 0.19570483674427033]
5,18,[-0.03907674481720102, 1.0, -0.13445654683195604],[0.05638778786152061, 0.9348786913891619, 0.17359187210810392],[0.15581735031165583, 0.7609057201642981, 0.19570483674427033]
5,19,[-0.03907674481720102, 1.0, -0.13445654683195604],[0.05638778786152061, 0.9348786913891619, 0.17359187210810392],[0.15581735031165583, 0.7609057201642981, 0.19570483674427033]
5,20,[-0.03907674481720102, 1.0, -0.13445654683195604],[0.05638778786152061, 0.9348786913891619, 0.17359187210810392],[0.15581735031165583, 0.7609057201642981, 0.19570483674427033]
5,21,[-0.03907674481720102, 1.0, -0.13445654683195604],[0.05638778786152061, 0.9348786913891619, 0.17359187210810392],[0.15581735031165583, 0.7609057201642981, 0.19570483674427033]
5,22,[-0.03907674481720102, 1.0, -0.13445654683195604],[0.05638778786152061, 0.9348786913891619, 0.17359187210810392],[0.15581735031165583, 0.7609057201642981, 0.19570483674427033]
5,23,[-0.03907674481720102, 1.0, -0.13445654683195604],[0.05638778786152061, 0.9348786913891619, 0.17359187210810392],[0.15581735031165583, 0.7609057201642981, 0.19570483674427033]
5,24,[-0.03907674481720102, 1.0, -0.13445654683195604],[0.05638778786152061, 0.9348786913891619, 0.17359187210810392],[0.15581735031165583, 0.7609057201642981, 0.19570483674427033]
5,25,[-0.03907674481720102, 1.0, -0.13445654683195604],[0.05638778786152061, 0.9348786913891619, 0.17359187210810392],[0.15581735031165583, 0.7609057201642981, 0.19570483674427033]
5,26,[-0.03907674481720102, 1.0, -0.13445654683195604],[0.05638778786152061, 0.9348786913891619, 0.17359187210810392],[0.15581735031165583, 0.7609057201642981, 0.19570483674427033]
5,27,[-0.03907674481720102, 1.0, -0.13445654683195604],[0.05638778786152061, 0.9348786913891619, 0.17359187210810392],[0.15581735031165583, 0.7609057201642981, 0.19570483674427033]
5,28,[-0.03907674481720102, 1.0, -0.13445654683195604],[0.05638778786152061, 0.9348786913891619, 0.17359187210810392],[0.15581735031165583, 0.7609057201642981, 0.19570483674427033]
5,29,[-0.03907674481720102, 1.0, -0.13445654683195604],[0.05638778786152061, 0.9348786913891619, 0.17359187210810392],[0.15581735031165583, 0.7609057201642981, 0.19570483674427033]
5,30,[-0.03907674481720102, 1.0, -0.13445654683195604],[0.05638778786152061, 0.9348786913891619, 0.17359187210810392],[0.15581735031165583, 0.7609057201642981, 0.19570483674427033]
5,31,[-0.03907674481720102, 1.0, -0.13445654683195604],[0.05638778786152061, 0.9348786913891619, 0.17359187210810392],[0.15581735031165583, 0.7609057201642981, 0.19570483674427033]
5,32,[-0.03907674481720102, 1.0, -0.13445654683195604],[0.05638778786152061, 0.9348786913891619, 0.17359187210810392],[0.15581735031165583, 0.7609057201642981, 0.19570483674427033]
5,33,[-0.03907674481720102, 1.0, -0.13445654683195604],[0.05638778786152061, 0.9348786913891619, 0.17359187210810392],[0.15581735031165583, 0.7609057201642981, 0.19570483674427033]
5,34,[-0.03907674481720102, 1.0, -0.13445654683195604],[0.05638778786152061, 0.9348786913891619, 0.17359187210810392],[0.15581735031165583, 0.7609057201642981, 0.19570483674427033]
5,35,[-0.03907674481720102, 1.0, -0.13445654683195604],[0.05638778786152061, 0.9348786913891619, 0.17359187210810392],[0.15581735031165583, 0.7609057201642981, 0.19570483674427033]
5,36,[-0.03907674481720102, 1.0, -0.13445654683195604],[0.05638778786152061, 0.9348786913891619, 0.17359187210810392],[0.15581735031165583, 0.7609057201642981, 0.19570483674427033]
5,37,[-0.03907674481720102, 1.0, -0.13445654683195604],[0.05638778786152061, 0.9348786913891619, 0.17359187210810392],[0.15581735031165583, 0.7609057201642981, 0.19570483674427033]
5,38,[-0.03907674481720102, 1.0, -0.13445654683195604],[0.05638778786152061, 0.9348786913891619, 0.17359187210810392],[0.15581735031165583, 0.7609057201642981, 0.19570483674427033]
5,39,[-0.03907674481720102, 1.0, -0.13445654683195604],[0.05638778786152061, 0.9348786913891619, 0.17359187210810392],[0.15581735031165583, 0.7609057201642981, 0.19570483674427033]
5,40,[-0.03907674481720102, 1.0, -0.13445654683195604],[0.05638778786152061, 0.9348786913891619, 0.17359187210810392],[0.15581735031165583, 0.7609057201642981, 0.19570483674427033]
5,41,[-0.03907674481720102, 1.0, -0.13445654683195604],[0.05638778786152061, 0.9348786913891619, 0.17359187210810392],[0.15581735031165583, 0.7609057201642981, 0.19570483674427033]
5,42,[-0.03907674481720102, 1.0, -0.13445654683195604],[0.05638778786152061, 0.9348786913891619, 0.17359187210810392],[0.15581735031165583, 0.7609057201642981, 0.19570483674427033]
5,43,[-0.03907674481720102, 1.0, -0.13445654683195604],[0.05638778786152061, 0.9348786913891619, 0.17359187210810392],[0.15581735031165583, 0.7609057201642981, 0.19570483674427033]
5,44,[-0.03907674481720102, 1.0, -0.13445654683195604],[0.05638778786152061, 0.9348786913891619, 0.17359187210810392],[0.15581735031165583, 0.7609057201642981, 0.19570483674427033]
5,45,[-0.03907674481720102, 1.0, -0.13445654683195604],[0.05638778786152061, 0.9348786913891619, 0.17359187210810392],[0.15581735031165583, 0.7609057201642981, 0.19570483674427033]
5,46,[-0.03907674481720102, 1.0, -0.13445654683195604],[0.05638778786152061, 0.9348786913891619, 0.17359187210810392],[0.15581735031165583, 0.7609057201642981, 0.19570483674427033]
5,47,[-0.03907674481720102, 1.0, -0.13445654683195604],[0.05638778786152061, 0.9348786913891619, 0.17359187210810392],[0.15581735031165583, 0.7609057201642981, 0.19570483674427033]
5,48,[-0.03907674481720102, 1.0, -0.13445654683195604],[0.05638778786152061, 0.9348786913891619, 0.17359187210810392],[0.15581735031165583, 0.7609057201642981, 0.19570483674427033]
5,49,[-0.03907674481720102, 1.0, -0.13445654683195604],[0.05638778786152061, 0.9348786913891619, 0.17359187210810392],[0.15581735031165583, 0.7609057201642981, 0.19570483674427033]
5,50,[-0.03907674481720102, 1.0, -0.13445654683195604],[0.05638778786152061, 0.9348786913891619, 0.17359187210810392],[0.15581735031165583, 0.7609057201642981, 0.19570483674427033]
5,51,[-0.03907674481720102, 1.0, -0.13445654683195604],[0.05638778786152061, 0.9348786913891619, 0.17359187210810392],[0.15581735031165583, 0.7609057201642981, 0.19570483674427033]
5,52,[-0.03907674481720102, 1.0, -0.13445654683195604],[0.05638778786152061, 0.9348786913891619, 0.17359187210810392],[0.15581735031165583, 0.7609057201642981, 0.19570483674427033]
5,53,[-0.03907674481720102, 1.0, -0.13445654683195604],[0.05638778786152061, 0.9348786913891619, 0.17359187210810392],[0.15581735031165583, 0.7609057201642981, 0.19570483674427033]
5,54,[-0.03907674481720102, 1.0, -0.13445654683195604],[0.05638778786152061, 0.9348786913891619, 0.17359187210810392],[0.15581735031165583, 0.7609057201642981, 0.19570483674427033]
5,55,[-0.03907674481720102, 1.0, -0.13445654683195604],[0.05638778786152061, 0.9348786913891619, 0.17359187210810392],[0.15581735031165583, 0.7609057201642981, 0.19570483674427033]
5,56,[-0.03907674481720102, 1.0, -0.13445654683195604],[0.05638778786152061, 0.9348786913891619, 0.17359187210810392],[0.15581735031165583, 0.7609057201642981, 0.19570483674427033]
5,57,[-0.03907674481720102, 1.0, -0.13445654683195604],[0.05638778786152061, 0.9348786913891619, 0.17359187210810392],[0.15581735031165583, 0.7609057201642981, 0.19570483674427033]
5,58,[-0.03907674481720102, 1.0, -0.13445654683195604],[0.05638778786152061, 0.9348786913891619, 0.17359187210810392],[0.15581735031165583, 0.7609057201642981, 0.19570483674427033]
5,59,[-0.03907674481720102, 1.0, -0.13445654683195604],[0.05638778786152061, 0.9348786913891619, 0.17359187210810392],[0.15581735031165583, 0.7609057201642981, 0.19570483674427033]
5,60,[-0.03907674481720102, 1.0, -0.13445654683195604],[0.05638778786152061, 0.9348786913891619, 0.17359187210810392],[0.15581735031165583, 0.7609057201642981, 0.19570483674427033]
5,61,[-0.03907674481720102, 1.0, -0.13445654683195604],[0.05638778786152061, 0.9348786913891619, 0.17359187210810392],[0.15581735031165583, 0.7609057201642981, 0.19570483674427033]
5,62,[-0.03907674481720102, 1.0, -0.13445654683195604],[0.05638778786152061, 0.9348786913891619, 0.17359187210810392],[0.15581735031165583, 0.7609057201642981, 0.19570483674427033]
5,63,[-0.03907674481720102, 1.0, -0.13445654683195604],[0.05638778786152061, 0.9348786913891619, 0.17359187210810392],[0.15581735031165583, 0.7609057201642981, 0.19570483674427033]
5,64,[-0.03907674481720102, 1.0, -0.13445654683195604],[0.05638778786152061, 0.9348786913891619, 0.17359187210810392],[0.15581735031165583, 0.7609057201642981, 0.19570483674427033]
5,65,[-0.03907674481720102, 1.0, -0.13445654683195604],[0.05638778786152061, 0.9348786913891619, 0.17359187210810392],[0.15581735031165583, 0.7609057201642981, 0.19570483674427033]
5,66,[-0.03907674481720102, 1.0, -0.13445654683195604],[0.05638778786152061, 0.9348786913891619, 0.17359187210810392],[0.15581735031165583, 0.7609057201642981, 0.19570483674427033]
5,67,[-0.03907674481720102, 1.0, -0.13445654683195604],[0.05638778786152061, 0.9348786913891619, 0.17359187210810392],[0.15581735031165583, 0.7609057201642981, 0.19570483674427033]
5,68,[-0.03907674481720102, 1.0, -0.13445654683195604],[0.05638778786152061, 0.9348786913891619, 0.17359187210810392],[0.15581735031165583, 0.7609057201642981, 0.19570483674427033]
5,69,[-0.03907674481720102, 1.0, -0.13445654683195604],[0.05638778786152061, 0.9348786913891619, 0.17359187210810392],[0.15581735031165583, 0.7609057201642981, 0.19570483674427033]
5,70,[-0.03907674481720102, 1.0, -0.13445654683195604],[0.05638778786152061, 0.9348786913891619, 0.17359187210810392],[0.15581735031165583, 0.7609057201642981, 0.19570483674427033]
5,71,[-0.03907674481720102, 1.0, -0.13445654683195604],[0.05638778786152061, 0.9348786913891619, 0.17359187210810392],[0.15581735031165583, 0.7609057201642981, 0.19570483674427033]
5,72,[-0.03907674481720102, 1.0, -0.13445654683195604],[0.05638778786152061, 0.9348786913891619, 0.17359187210810392],[0.15581735031165583, 0.7609057201642981, 0.19570483674427033]
5,73,[-0.03907674481720102, 1.0, -0.13445654683195604],[0.05638778786152061, 0.9348786913891619, 0.17359187210810392],[0.15581735031165583, 0.7609057201642981, 0.19570483674427033]
5,74,[-0.03907674481720102, 1.0, -0.13445654683195604],[0.05638778786152061, 0.9348786913891619, 0.17359187210810392],[0.15581735031165583, 0.7609057201642981, 0.19570483674427033]
5,75,[-0.03907674481720102, 1.0, -0.13445654683195604],[0.05638778786152061, 0.9348786913891619, 0.17359187210810392],[0.15581735031165583, 0.7609057201642981, 0.19570483674427033]
5,76,[-0.03907674481720102, 1.0, -0.13445654683195604],[0.05638778786152061, 0.9348786913891619, 0.17359187210810392],[0.15581735031165583, 0.7609057201642981, 0.19570483674427033]
5,77,[-0.03907674481720102, 1.0, -0.13445654683195604],[0.05638778786152061, 0.9348786913891619, 0.17359187210810392],[0.15581735031165583, 0.7609057201642981, 0.19570483674427033]
5,78,[-0.03907674481720102, 1.0, -0.13445654683195604],[0.05638778786152061, 0.9348786913891619, 0.17359187210810392],[0.15581735031165583, 0.7609057201642981, 0.19570483674427033]
5,79,[-0.03907674481720102, 1.0, -0.13445654683195604],[0.05638778786152061, 0.9348786913891619, 0.17359187210810392],[0.15581735031165583, 0.7609057201642981, 0.19570483674427033]
5,80,[-0.03907674481720102, 1.0, -0.13445654683195604],[0.05638778786152061, 0.9348786913891619, 0.17359187210810392],[0.15581735031165583, 0.7609057201642981, 0.19570483674427033]
5,81,[-0.03907674481720102, 1.0, -0.13445654683195604],[0.05638778786152061, 0.9348786913891619, 0.17359187210810392],[0.15581735031165583, 0.7609057201642981, 0.19570483674427033]
5,82,[-0.03907674481720102, 1.0, -0.13445654683195604],[0.05638778786152061, 0.9348786913891619, 0.17359187210810392],[0.15581735031165583, 0.7609057201642981, 0.19570483674427033]
5,83,[-0.03907674481720102, 1.0, -0.13445654683195604],[0.05638778786152061, 0.9348786913891619, 0.17359187210810392],[0.15581735031165583, 0.7609057201642981, 0.19570483674427033]
5,84,[-0.03907674481720102, 1.0, -0.13445654683195604],[0.05638778786152061, 0.9348786913891619, 0.17359187210810392],[0.15581735031165583, 0.7609057201642981, 0.19570483674427033]
5,85,[-0.03907674481720102, 1.0, -0.13445654683195604],[0.05638778786152061, 0.9348786913891619, 0.17359187210810392],[0.15581735031165583, 0.7609057201642981, 0.19570483674427033]
5,86,[-0.03907674481720102, 1.0, -0.13445654683195604],[0.05638778786152061, 0.9348786913891619, 0.17359187210810392],[0.15581735031165583, 0.7609057201642981, 0.19570483674427033]
5,87,[-0.03907674481720102, 1.0, -0.13445654683195604],[0.05638778786152061, 0.9348786913891619, 0.17359187210810392],[0.15581735031165583, 0.7609057201642981, 0.19570483674427033]
5,88,[-0.03907674481720102, 1.0, -0.13445654683195604],[0.05638778786152061, 0.9348786913891619, 0.17359187210810392],[0.15581735031165583, 0.7609057201642981, 0.19570483674427033]
5,89,[-0.03907674481720102, 1.0, -0.13445654683195604],[0.05638778786152061, 0.9348786913891619, 0.17359187210810392],[0.15581735031165583, 0.7609057201642981, 0.19570483674427033]
5,90,[-0.03907674481720102, 1.0, -0.13445654683195604],[0.05638778786152061, 0.9348786913891619, 0.17359187210810392],[0.15581735031165583, 0.7609057201642981, 0.19570483674427033]
5,91,[-0.03907674481720102, 1.0, -0.13445654683195604],[0.05638778786152061, 0.9348786913891619, 0.17359187210810392],[0.15581735031165583, 0.7609057201642981, 0.19570483674427033]
5,92,[-0.03907674481720102, 1.0, -0.13445654683195604],[0.05638778786152061, 0.9348786913891619, 0.17359187210810392],[0.15581735031165583, 0.7609057201642981, 0.19570483674427033]
5,93,[-0.03907674481720102, 1.0, -0.13445654683195604],[0.05638778786152061, 0.9348786913891619, 0.17359187210810392],[0.15581735031165583, 0.7609057201642981, 0.19570483674427033]
5,94,[-0.03907674481720102, 1.0, -0.13445654683195604],[0.05638778786152061, 0.9348786913891619, 0.17359187210810392],[0.15581735031165583, 0.7609057201642981, 0.19570483674427033]
5,95,[-0.03907674481720102, 1.0, -0.13445654683195604],[0.05638778786152061, 0.9348786913891619, 0.17359187210810392],[0.15581735031165583, 0.7609057201642981, 0.19570483674427033]
5,96,[-0.03907674481720102, 1.0, -0.13445654683195604],[0.05638778786152061, 0.9348786913891619, 0.17359187210810392],[0.15581735031165583, 0.7609057201642981, 0.19570483674427033]
5,97,[-0.03907674481720102, 1.0, -0.13445654683195604],[0.05638778786152061, 0.9348786913891619, 0.17359187210810392],[0.15581735031165583, 0.7609057201642981, 0.19570483674427033]
5,98,[-0.03907674481720102, 1.0, -0.13445654683195604],[0.05638778786152061, 0.9348786913891619, 0.17359187210810392],[0.15581735031165583, 0.7609057201642981, 0.19570483674427033]
5,99,[-0.03907674481720102, 1.0, -0.13445654683195604],[0.05638778786152061, 0.9348786913891619, 0.17359187210810392],[0.15581735031165583, 0.7609057201642981, 0.19570483674427033]
6,0,[0.054428652896216415, 0.8725726412875728, 0.06909327427811653],[0.14381098388102262, 0.7107444076344185, 0.16204904357910893],[0.17485415116986647, 0.5865252641814099, 0.06462622607820992]
6,1,[0.054428652896216415, 0.8725726412875728, 0.06909327427811653],[0.14381098388102262, 0.7107444076344185, 0.16204904357910893],[0.17485415116986647, 0.5865252641814099, 0.06462622607820992]
6,2,[0.054428652896216415, 0.8725726412875728, 0.06909327427811653],[0.14381098388102262, 0.7107444076344185, 0.16204904357910893],[0.17485415116986647, 0.5865252641814099, 0.06462622607820992]
6,3,[0.054428652896216415, 0.8725726412875728, 0.06909327427811653],[0.14381098388102262, 0.7107444076344185, 0.16204904357910893],[0.17485415116986647, 0.5865252641814099, 0.06462622607820992]
6,4,[0.054428652896216415, 0.8725726412875728, 0.06909327427811653],[0.14381098388102262, 0.7107444076344185, 0.16204904357910893],[0.17485415116986647, 0.5865252641814099, 0.06462622607820992]
6,5,[0.054428652896216415, 0.8725726412875728, 0.06909327427811653],[0.14381098388102262, 0.7107444076344185, 0.16204904357910893],[0.17485415116986647, 0.5865252641814099, 0.06462622607820992]
6,6,[0.054428652896216415, 0.8725726412875728, 0.06909327427811653],[0.14381098388102262, 0.7107444076344185, 0.16204904357910893],[0.17485415116986647, 0.5865252641814099, 0.06462622607820992]
6,7,[0.054428652896216415, 0.8725726412875728, 0.06909327427811653],[0.14381098388102262, 0.7107444076344185, 0.16204904357910893],[0.17485415116986647, 0.5865252641814099, 0.06462622607820992]
6,8,[0.054428652896216415, 0.8725726412875728, 0.06909327427811653],[0.14381098388102262, 0.7107444076344185, 0.16204904357910893],[0.17485415116986647, 0.5865252641814099, 0.06462622607820992]
6,9,[0.054428652896216415, 0.8725726412875728, 0.06909327427811653],[0.14381098388102262, 0.7107444076344185, 0.16204904357910893],[0.17485415116986647, 0.5865252641814099, 0.06462622607820992]
6,10,[0.054428652896216415, 0.8725726412875728, 0.06909327427811653],[0.14381098388102262, 0.7107444076344185, 0.16204904357910893],[0.17485415116986647, 0.5865252641814099, 0.06462622607820992]
6,11,[0.054428652896216415, 0.8725726412875728, 0.06909327427811653],[0.14381098388102262, 0.7107444076344185, 0.16204904357910893],[0.17485415116986647, 0.5865252641814099, 0.06462622607820992]
6,12,[0.054428652896216415, 0.8725726412875728, 0.06909327427811653],[0.14381098388102262, 0.7107444076344185, 0.16204904357910893],[0.17485415116986647, 0.5865252641814099, 0.06462622607820992]
6,13,[0.054428652896216415, 0.8725726412875728, 0.06909327427811653],[0.14381098388102262, 0.7107444076344185, 0.16204904357910893],[0.17485415116986647, 0.5865252641814099, 0.06462622607820992]
6,14,[0.054428652896216415, 0.8725726412875728, 0.06909327427811653],[0.14381098388102262, 0.7107444076344185, 0.16204904357910893],[0.17485415116986647, 0.5865252641814099, 0.06462622607820992]
6,15,[0.054428652896216415, 0.8725726412875728, 0.06909327427811653],[0.14381098388102262, 0.7107444076344185, 0.16204904357910893],[0.17485415116986647, 0.5865252641814099, 0.06462622607820992]
6,16,[0.054428652896216415, 0.8725726412875728, 0.06909327427811653],[0.14381098388102262, 0.7107444076344185, 0.16204904357910893],[0.17485415116986647, 0.5865252641814099, 0.06462622607820992]
6,17,[0.054428652896216415, 0.8725726412875728, 0.06909327427811653],[0.14381098388102262, 0.7107444076344185, 0.16204904357910893],[0.17485415116986647, 0.5865252641814099, 0.06462622607820992]
6,18,[0.054428652896216415, 0.8725726412875728, 0.06909327427811653],[0.14381098388102262, 0.7107444076344185, 0.16204904357910893],[0.17485415116986647, 0.5865252641814099, 0.06462622607820992]
6,19,[0.054428652896216415, 0.8725726412875728, 0.06909327427811653],[0.14381098388102262, 0.7107444076344185, 0.16204904357910893],[0.17485415116986647, 0.5865252641814099, 0.06462622607820992]
6,20,[0.054428652896216415, 0.8725726412875728, 0.06909327427811653],[0.14381098388102262, 0.7107444076344185, 0.16204904357910893],[0.17485415116986647, 0.5865252641814099, 0.06462622607820992]
6,21,[0.054428652896216415, 0.8725726412875728, 0.06909327427811653],[0.14381098388102262, 0.7107444076344185, 0.16204904357910893],[0.17485415116986647, 0.5865252641814099, 0.06462622607820992]
6,22,[0.054428652896216415, 0.8725726412875728, 0.06909327427811653],[0.14381098388102262, 0.7107444076344185, 0.16204904357910893],[0.17485415116986647, 0.5865252641814099, 0.06462622607820992]
6,23,[0.054428652896216415, 0.8725726412875728, 0.06909327427811653],[0.14381098388102262, 0.7107444076344185, 0.16204904357910893],[0.17485415116986647, 0.5865252641814099, 0.06462622607820992]
6,24,[0.054428652896216415, 0.8725726412875728, 0.06909327427811653],[0.14381098388102262, 0.7107444076344185, 0.16204904357910893],[0.17485415116986647, 0.5865252641814099, 0.06462622607820992]
6,25,[0.054428652896216415, 0.8725726412875728, 0.06909327427811653],[0.14381098388102262, 0.7107444076344185, 0.16204904357910893],[0.17485415116986647, 0.5865252641814099, 0.06462622607820992]
6,26,[0.054428652896216415, 0.8725726412875728, 0.06909327427811653],[0.14381098388102262, 0.7107444076344185, 0.16204904357910893],[0.17485415116986647, 0.5865252641814099, 0.06462622607820992]
6,27,[0.054428652896216415, 0.8725726412875728, 0.06909327427811653],[0.14381098388102262, 0.7107444076344185, 0.16204904357910893],[0.17485415116986647, 0.5865252641814099, 0.06462622607820992]
6,28,[0.054428652896216415, 0.8725726412875728, 0.06909327427811653],[0.14381098388102262, 0.7107444076344185, 0.16204904357910893],[0.17485415116986647, 0.5865252641814099, 0.06462622607820992]
