time,acc_x,acc_y,acc_z,gravity_x,gravity_y,gravity_z1408129650873,-0.8762778,9.331401,1.0313023,-0.07850509,9.369346,2.89475351408129650891,-0.59855044,9.478644,0.919972,-0.11438893,9.3921,2.81882071408129650892,-0.5398925,9.303867,0.83378077,-0.15764374,9.416635,2.73359851408129650908,-0.7625532,9.114127,0.87448215,-0.21099772,9.438386,2.65381361408129650908,-1.0696096,9.036914,1.1827357,-0.2727107,9.45745,2.57927781408129650923,-1.42455,9.09258,1.4275428,-0.34383374,9.47291,2.51319341408129650941,-1.79206,9.039309,1.4826094,-0.42275864,9.486591,2.44872711408129650941,-2.067393,8.9124155,1.3934253,-0.50508225,9.499333,2.38284331408129650954,-2.1787236,8.4425535,1.2294226,-0.58733124,9.511071,2.31624221408129650973,-2.2391772,7.9942393,1.1707647,-0.6657147,9.521037,2.25323491408129650974,-2.2655134,7.4842744,1.0965444,-0.73869085,9.52881,2.19693851408129650988,-2.2499511,7.3472066,1.13964,-0.80735123,9.535,2.14531351408129650988,-2.570774,7.36217,1.0714053,-0.8668408,9.539475,2.1017551408129651003,-3.1250317,7.1832037,0.6691794,-0.9205343,9.54304,2.06237391408129651008,-3.301604,6.6947865,0.47345337,-0.97423726,9.546987,2.01899531408129651021,-3.064578,6.534375,0.3573346,-1.0284822,9.552126,1.96711031408129651037,-2.4911668,6.71394,0.4321534,-1.0806284,9.559092,1.90430931408129651040,-1.8297687,7.1287355,0.46387658,-1.1262054,9.566669,1.83872061408129651055,-1.1905168,7.6907744,0.60094464,-1.165816,9.575286,1.76781871408129651082,-0.7529764,8.346188,0.88405895,-1.1984574,9.584101,1.69679691408129651082,-0.219668,8.963293,1.1599907,-1.2249624,9.592497,1.62906841408129651084,0.1945289,9.489418,1.240795,-1.2463973,9.599589,1.56996331408129651089,0.43514615,9.612122,1.103727,-1.2682645,9.604493,1.52171561408129651119,0.5057751,9.548675,1.0989386,-1.2968647,9.606621,1.48370181408129651120,0.5093664,9.56304,1.353921,-1.3314316,9.607084,1.44969841408129651121,0.24181437,9.3978405,1.4634558,-1.3734175,9.604772,1.42564541408129651145,-0.08738836,9.258378,1.4927847,-1.4210784,9.599926,1.41151631408129651146,-0.3441665,9.148843,1.501763,-1.4710437,9.5929985,1.40741361408129651149,-0.43035775,9.025542,1.4646529,-1.5219908,9.584503,1.41111121408129651179,-0.40102878,9.064447,1.5263035,-1.5726398,9.574778,1.42155371408129651180,-0.37349546,9.044097,1.6124948,-1.6234937,9.564296,1.43488791408129651180,-0.42916065,8.874108,1.7154455,-1.6728362,9.552563,1.45621531408129651189,-0.6955156,9.035717,1.8237832,-1.7220298,9.539377,1.48502761408129651209,-1.2497733,8.866926,2.333748,-1.7722279,9.524903,1.51849321408129651210,-1.7998412,8.598177,2.409764,-1.8269726,9.508429,1.55639061408129651220,-2.2134395,8.462905,2.0458453,-1.8878541,9.490336,1.59371891408129651239,-2.0733786,8.463503,1.5041572,-1.9528,9.472146,1.6233951408129651240,-1.1947067,8.672996,1.0019734,-2.0147412,9.455625,1.64389421408129651270,0.023343466,8.938752,1.0139444,-2.063902,9.4438715,1.65045671408129651271,0.623091,9.31524,1.5969325,-2.0971546,9.437233,1.64650821408129651271,0.23702596,9.733028,2.0811598,-2.118944,9.434367,1.63498661408129651303,-0.46267948,10.344747,2.146402,-2.1372163,9.433232,1.61767321408129651303,-1.0761937,11.113286,2.3481133,-2.1530952,9.433815,1.59302331408129651304,-1.6011224,11.428721,2.1745336,-2.1665413,9.43516,1.56659881408129651309,-1.6232687,11.291056,1.484405,-2.1729147,9.439654,1.53028711408129651330,-1.2084733,11.125257,0.9624691,-2.1651711,9.448988,1.4829181408129651330,-0.82480246,11.307216,1.0348936,-2.1371934,9.463825,1.42787891408129651340,-0.81343,11.748946,1.1761516,-2.0895004,9.483244,1.36838511408129651362,-1.1264719,12.217611,0.58777654,-2.0275676,9.505859,1.30307471408129651362,-1.7986441,12.091916,-0.55605334,-1.9578713,9.53043,1.22802321408129651369,-2.3546975,11.314998,-1.4987702,-1.8931203,9.554539,1.13898651408129651389,-3.3327289,10.059238,-1.6783354,-1.8246307,9.578145,1.04894091408129651390,-4.009091,8.834604,-1.8513165,-1.7604066,9.59893,0.965354861408129651408,-4.4759603,8.15525,-1.7651252,-1.6996877,9.617015,0.8913311408129651421,-5.3079453,8.453327,-1.1252748,-1.6405069,9.6328,0.82963241408129651421,-6.627749,10.463859,-0.28790274,-1.5900271,9.644781,0.78764971408129651440,-6.8641763,12.718598,0.48003745,-1.5585189,9.6519165,0.76284551408129651456,-6.56131,14.605229,0.7146692,-1.5326906,9.655142,0.77426531408129651457,-6.6971807,14.263456,0.94331545,-1.4918071,9.657907,0.81839851408129651473,-6.38773,12.625823,1.5747862,-1.445912,9.658426,0.89138481408129651473,-5.7682304,10.781689,2.1320367,-1.4064037,9.654139,0.99501941408129651488,-5.385158,9.31105,2.6635494,-1.3733013,9.645088,1.12102531408129651489,-5.422867,8.204929,2.7790697,-1.3416356,9.632722,1.25740721408129651504,-5.0787005,8.70831,2.557606,-1.3110062,9.618807,1.38932031408129651522,-4.5914803,9.564836,2.2601264,-1.2817293,9.605822,1.50191561408129651522,-3.5404258,9.3182335,1.977012,-1.237726,9.597879,1.58717861408129651539,-2.35769,8.237849,1.8118122,-1.1602802,9.59733,1.64784441408129651540,-1.1833342,7.784148,1.7585411,-1.0526615,9.60144,1.69548521408129651554,-0.033518825,8.1720085,1.75076,-0.92123336,9.607867,1.73511231408129651570,1.0193313,8.698134,1.7363948,-0.77659315,9.614312,1.76982191408129651571,2.0524294,9.330204,1.7010803,-0.6147639,9.620569,1.79920641408129651587,2.3295584,9.379884,1.7208325,-0.44595358,9.624785,1.8262061408129651589,2.1045034,8.670602,1.7435774,-0.29133523,9.624795,1.8570981408129651601,1.5544355,7.2262993,1.697489,-0.17191772,9.619503,1.89894681408129651624,1.0642227,5.905897,1.809418,-0.094291605,9.609212,1.95565191408129651625,0.7870938,5.0996494,2.142212,-0.048064988,9.596174,2.02027961408129651645,0.7332243,4.583101,2.331354,-0.014342044,9.579586,2.09802681408129651646,0.7098808,4.308366,2.5127146,0.011488833,9.560682,2.18257431408129651649,0.51954174,4.2850223,2.6509798,0.032217797,9.541203,2.26601241408129651674,0.24779987,4.341286,2.7335799,0.049861196,9.52314,2.34044961408129651674,0.06943185,4.4603977,2.7742813,0.06539885,9.507752,2.4018221408129651689,0.06284779,4.703409,2.9442697,0.07997737,9.496132,2.44693451408129651690,0.16879122,5.08708,3.280655,0.09525703,9.48632,2.48416261408129651704,0.48602295,5.7137623,3.606865,0.11054222,9.480416,2.50596521408129651720,0.9008184,6.655282,3.560178,0.1258354,9.477951,2.51455471408129651721,1.2054806,7.427412,3.4835634,0.13851467,9.478779,2.5107671408129651742,1.2330139,7.5926123,3.5966895,0.14256504,9.481209,2.50134751408129651743,1.1677719,7.305308,3.7361517,0.13277155,9.482792,2.49588351408129651749,1.1593921,7.385514,3.7618895,0.11253435,9.483929,2.49255161408129651771,0.7954735,7.9912467,3.2267854,0.093785405,9.48698,2.48169421408129651771,-0.06943185,8.747216,2.5839422,0.07106928,9.496973,2.443941408129651787,-0.8750807,10.129269,2.154183,0.045038544,9.51498,2.37350081408129651789,-1.2623428,12.225392,2.6605566,0.013228754,9.537283,2.28264741408129651806,-1.2539631,14.165893,3.457826,-0.02442969,9.555608,2.20457581408129651831,-1.3611037,15.094245,3.21661,-0.060753673,9.564023,2.16706421408129651832,-0.7302315,15.0302,2.4504654,-0.09407281,9.568766,2.14482831408129651832,0.4890157,13.012486,1.8297687,-0.095371395,9.568449,2.14617851408129651841,2.1374235,10.810419,2.4959552,-0.055907693,9.563415,2.1698821408129651871,3.3566709,8.668207,5.005677,0.020063275,9.549536,2.23077631408129651872,3.9839516,7.5866265,6.7043633,0.12796324,9.5239315,2.33425551408129651873,3.1423898,9.634866,7.852383,0.26253802,9.493868,2.4429411408129651906,1.0642227,14.1587105,7.823054,0.39825025,9.46163,2.54742361408129651907,-0.009576807,15.846622,4.4645877,0.50078475,9.437055,2.61947061408129651909,-1.5179238,13.657723,2.5181017,0.56195396,9.428242,2.63872241408129651933,-2.4127567,12.151173,2.1218612,0.57936144,9.421831,2.65779141408129651933,-2.2062569,11.5155115,1.3036429,0.56954175,9.411713,2.69549581408129651934,-2.2523453,11.118074,1.4520833,0.54514456,9.400548,2.73914551408129651941,-3.0011318,11.022904,2.0153193,0.49390116,9.391339,2.78014761408129651958,-3.5290532,10.427347,1.9285295,0.4215754,9.384184,2.81598521408129651983,-3.4997244,9.7324295,1.6849195,0.3264802,9.385139,2.82541231408129651984,-3.53863,8.4647,1.5334862,0.22549017,9.390768,2.81656271408129651985,-3.6535518,7.2687964,1.4826094,0.12781462,9.392996,2.8152581408129651990,-3.7098155,6.779182,1.3437457,0.040322438,9.389646,2.82901531408129652014,-3.5021186,6.8342485,0.94211835,-0.032333486,9.386391,2.83990031408129652015,-2.9981391,7.6692266,0.5470751,-0.09399397,9.38605,2.83965181408129652021,-2.2601264,8.631696,0.4770447,-0.14598514,9.394611,2.80897671408129652038,-1.4317327,9.580399,0.75716627,-0.19227424,9.4115715,2.7487751408129652054,-0.81163436,10.061633,0.9175778,-0.23952457,9.432666,2.67167381408129652055,-0.64583594,9.906608,0.9355343,-0.29369667,9.452218,2.59609561408129652069,-0.5907693,9.569026,1.0271125,-0.35945445,9.466671,2.5344291408129652069,-0.7248446,9.291897,1.0827777,-0.4346003,9.478341,2.4784221408129652085,-1.0283096,9.164406,1.3311762,-0.5137625,9.489448,2.42008661408129652089,-1.376666,9.097966,1.661576,-0.5975378,9.501391,2.35306361408129652103,-1.5191209,9.100361,1.7286136,-0.68240833,9.512491,2.28412581408129652123,-1.620276,8.948329,1.6992847,-0.7640385,9.522014,2.217631408129652124,-1.757344,8.556278,1.6077064,-0.8407406,9.529858,2.1553141408129652139,-1.9015948,8.104373,1.4508862,-0.9140128,9.535759,2.09863761408129652141,-2.0213048,7.713519,1.4341269,-0.9850505,9.540148,2.04589031408129652156,-2.1978772,7.40347,1.377863,-1.0481409,9.542597,2.00265461408129652177,-2.3451207,7.1125746,1.1486182,-1.1015029,9.543943,1.96728791408129652178,-2.3235726,6.955156,0.973243,-1.1470898,9.545737,1.93222491408129652181,-1.9267339,7.053318,0.79726917,-1.1865007,9.54941,1.88981131408129652189,-1.4155718,7.4687123,0.61411273,-1.2194154,9.555859,1.83548241408129652209,-0.90021986,7.784148,0.3842694,-1.2466961,9.564626,1.77033211408129652210,-0.08798691,8.789114,0.777517,-1.2696669,9.574095,1.70148421408129652223,0.3549404,8.839992,1.1731589,-1.2889255,9.583303,1.63382291408129652248,0.55725044,8.370728,1.5646108,-1.3097769,9.589963,1.57718321408129652249,0.7338228,8.383297,1.7046716,-1.3372736,9.592327,1.53926831408129652250,0.5177461,8.430583,1.8381484,-1.3734055,9.590386,1.51942311408129652280,-0.1376666,8.315661,1.5508442,-1.4196761,9.584266,1.51551511408129652281,-0.6464345,8.1480665,1.1893197,-1.4751252,9.576026,1.51464881408129652283,-1.0959458,8.236652,1.1318588,-1.538837,9.565426,1.51823081408129652289,-1.5179238,8.664018,0.9103952,-1.6083956,9.553467,1.52142111408129652311,-1.7615339,9.099762,0.7182605,-1.6773524,9.54124,1.5236861408129652312,-1.9297266,9.326612,0.6871359,-1.7409145,9.5289545,1.52926951408129652321,-1.9087774,9.26197,0.82360536,-1.7980494,9.5158825,1.5444741408129652340,-1.8183962,8.858546,0.98341835,-1.849631,9.501159,1.57392931408129652345,-1.6394296,8.520366,1.3533225,-1.8989226,9.485282,1.61055721408129652349,-1.3814543,8.362348,1.9602526,-1.9437425,9.468057,1.65775851408129652375,-1.3126211,8.282143,2.4277205,-1.984219,9.450732,1.7079041408129652376,-1.1881226,8.16722,2.5905263,-2.022758,9.434139,1.75381531408129652381,-0.79966336,8.182783,2.498948,-2.0597687,9.419101,1.79116451408129652391,-0.003591303,8.420407,2.2786815,-2.0930793,9.406217,1.82003221408129652412,0.46746787,8.817246,2.4546554,-2.1174145,9.395937,1.84480431408129652413,0.32022446,9.378088,2.7275944,-2.1347415,9.388759,1.8613171408129652421,-0.05207389,9.964667,2.7126305,-2.149838,9.38352,1.87033211408129652450,0.010175358,10.293272,2.4265234,-2.1666374,9.379446,1.87138491408129652451,0.39085343,10.448297,2.1787236,-2.17993,9.377867,1.86384051408129652452,0.7326257,10.794857,2.0739772,-2.183136,9.380062,1.84899191408129652479,0.60932434,11.166556,1.775899,-2.1729953,9.386108,1.83015321408129652480,0.33399114,11.827955,1.8022354,-2.1579094,9.393992,1.80740891408129652482,0.1388637,12.561778,1.769315,-2.1331553,9.404208,1.7835161408129652512,-0.57760113,12.25532,0.6925228,-2.0981393,9.416727,1.75881991408129652514,-1.5382746,10.903194,-0.7188591,-2.0651915,9.429843,1.72727041408129652515,-2.6007016,9.235035,-0.38486794,-2.0410905,9.441364,1.6926341408129652540,-3.8845923,7.36217,-0.04309563,-2.0231361,9.449523,1.66848271408129652541,-4.8739963,5.957971,-0.24001873,-2.0132182,9.45517,1.64836051408129652542,-5.2660465,5.6964045,0.12150574,-1.9951314,9.4620695,1.63067231408129652550,-6.2249246,7.351995,0.6631939,-1.9607044,9.472045,1.61444371408129652581,-6.407482,10.825981,1.1204864,-1.9165529,9.483464,1.60034851408129652581,-6.3607955,14.34905,1.3700819,-1.8575512,9.496218,1.59428751408129652582,-5.7825956,16.110582,1.5412674,-1.7758207,9.510851,1.60017071408129652633,-5.163096,15.555128,2.1170728,-1.6690462,9.526696,1.62072731408129652634,-4.7698483,14.391546,3.0430303,-1.5518385,9.5398445,1.65938461408129652635,-4.24073,13.067553,3.7732618,-1.447207,9.546783,1.71315941408129652644,-3.8552632,11.186908,3.5966895,-1.3605523,9.546863,1.78233121408129652645,-3.5966895,10.132261,2.819771,-1.2898215,9.542434,1.85707341408129652684,-3.323152,9.758766,2.4420857,-1.2262492,9.539195,1.91584591408129652685,-2.3906105,9.685144,2.461838,-1.1555687,9.541349,1.94877211408129652686,-1.1019313,9.276933,2.6420016,-1.0695817,9.546791,1.9710851408129652687,-0.14425065,8.12233,2.8060043,-0.9515853,9.556845,1.98282461408129652690,0.8230068,7.677606,2.9251158,-0.8083491,9.567614,1.99443021408129652716,1.91596,8.1959505,3.0681696,-0.65423447,9.576187,2.00972371408129652717,2.272696,8.256405,2.896984,-0.4974407,9.581656,2.02850081408129652717,2.0482395,8.18398,2.593519,-0.3491193,9.583621,2.05005981408129652721,1.3311762,7.730279,2.2798786,-0.22655089,9.582555,2.07213191408129652743,0.6386533,6.7534447,2.2290018,-0.12861995,9.577941,2.10164451408129652744,0.4165911,6.105813,2.4833858,-0.06284969,9.568938,2.1451921408129652750,0.36631286,5.861006,2.5300727,-0.02359861,9.555336,2.20576291408129652776,0.3250129,5.910087,2.4193408,-0.001764379,9.538584,2.27723841408129652776,0.41060558,6.0663085,2.3002293,0.009238223,9.520033,2.3535671408129652781,0.46627077,6.1141925,2.3439236,0.011120237,9.50086,2.42980071408129652811,0.362123,6.208165,2.534861,0.007189327,9.481403,2.5046671408129652812,0.14305355,6.221333,2.666542,-0.007238719,9.462805,2.57403761408129652814,-0.10354923,6.3404446,2.581548,-0.032413784,9.446208,2.6341071408129652840,-0.4225766,6.3607955,2.3780408,-0.06641016,9.432459,2.68229271408129652842,-0.7272388,6.306926,2.1817162,-0.1081462,9.422165,2.71688991408129652842,-1.0055647,6.133346,2.2750902,-0.15653716,9.416215,2.73509721408129652850,-1.0875661,5.9747305,2.6928782,-0.21134135,9.412165,2.74533631408129652877,-1.074398,5.8879404,3.1663318,-0.2671639,9.412041,2.7408981408129652877,-1.0013748,6.101623,3.4805708,-0.32753026,9.415474,2.72249321408129652884,-1.2012907,6.5846534,3.8774097,-0.38805458,9.42251,2.69000551408129652911,-1.3521254,7.077859,4.1677065,-0.44754022,9.432083,2.64686821408129652912,-1.4903905,7.589619,4.14975,-0.501471,9.442555,2.59943961408129652914,-1.7878702,8.074445,4.156933,-0.5437905,9.453852,2.54938821408129652922,-2.059612,8.569447,4.0013094,-0.5779896,9.465128,2.49953441408129652943,-1.91596,9.033323,3.9552212,-0.6012581,9.476781,2.44938471408129652943,-1.6478093,10.347141,4.021062,-0.6091402,9.487223,2.40664841408129652950,-1.8620903,11.471219,3.7020345,-0.6034503,9.494983,2.37730031408129652980,-1.8100165,12.33373,2.9550436,-0.56301016,9.513362,2.31286671408129652981,-1.1845313,12.846687,1.8728642,-0.56301016,9.513362,2.31286671408129652982,0.047285482,12.20145,1.4772224,-0.56301016,9.513362,2.31286671408129653017,1.5520413,11.319786,2.2577322,-0.5221004,9.522851,2.28322271408129653018,3.0538042,10.344747,3.845088,-0.4597861,9.528754,2.27196931408129653018,4.2580876,9.871892,5.8771667,-0.38173547,9.526414,2.29610971408129653039,4.6896424,9.989208,7.474099,-0.28612143,9.514828,2.35723951408129653040,3.6290112,11.679515,8.099585,-0.17798969,9.497015,2.4383251408129653042,1.9033904,15.015835,6.408081,-0.08013415,9.479165,2.51185131408129653050,0.7541735,15.287577,2.9412768,-0.006479864,9.469666,2.54868151408129653079,-0.8535329,14.092271,1.7489643,0.038025633,9.474132,2.53175191408129653080,-1.8166006,13.175891,1.9578584,0.054579295,9.480632,2.50699571408129653082,-2.2589293,12.494142,1.5143325,0.048614834,9.481523,2.50374981408129653112,-3.2453403,11.887212,1.7687165,0.01674772,9.476913,2.52154971408129653112,-4.189853,10.746973,2.3289597,-0.048517946,9.471132,2.54277251408129653114,-4.5525746,9.811439,2.4133554,-0.13224706,9.464311,2.56509831408129653136,-4.565144,8.422203,2.0590134,-0.23013768,9.458461,2.57971671408129653136,-4.271256,7.1107793,2.042254,-0.3276504,9.452517,2.59093881408129653157,-3.5649664,6.3739634,1.8818425,-0.41226652,9.444559,2.60782461408129653157,-2.8622682,6.197391,1.5382746,-0.47391325,9.43509,2.63151171408129653161,-2.1254525,6.5577183,1.2910733,-0.51259136,9.428122,2.64918021408129653170,-1.2198458,7.375937,1.0773908,-0.5343625,9.428281,2.6443111408129653183,-0.50038815,8.595782,1.0570401,-0.546791,9.433655,2.62250951408129653200,-0.23343466,9.625289,1.2455834,-0.5538514,9.448167,2.56822731408129653202,-0.31902736,10.4171715,1.3132197,-0.56715065,9.467633,2.49251721408129653226,-0.770933,10.669162,1.0737995,-0.59753203,9.487664,2.40781121408129653226,-1.3670892,10.565612,0.6913257,-0.6509335,9.5060215,2.3199641408129653231,-2.0530279,10.415975,0.44771573,-0.7271499,9.521965,2.23020531408129653273,-2.5474305,10.1621895,0.5363012,-0.8161178,9.535519,2.13968441408129653274,-2.8060043,9.697714,0.74758947,-0.9164584,9.545368,2.05339671408129653275,-2.8520927,9.111733,0.92655605,-1.019174,9.551096,1.97692551408129653276,-2.755726,8.5143795,1.1468226,-1.1175597,9.553388,1.9116041408129653283,-2.606687,8.018182,1.4227544,-1.2057343,9.553222,1.85810741408129653319,-2.3235726,7.3962874,1.5867572,-1.2799194,9.5513735,1.81754981408129653321,-2.1829133,6.968324,1.5472529,-1.338118,9.548426,1.79092131408129653324,-2.005144,6.8246717,1.4502877,-1.38888,9.54498,1.77053081408129653374,-1.9871874,6.699575,1.1563994,-1.4312577,9.541168,1.75726931408129653375,-2.0296845,6.6522894,0.90620536,-1.4735682,9.537704,1.7410331408129653375,-2.0111294,6.999449,0.8415619,-1.5235435,9.535644,1.70900521408129653376,-1.7010803,7.6626425,0.6991069,-1.582928,9.535516,1.65489021408129653376,-1.472434,8.118738,0.3878607,-1.64768,9.537182,1.58041631408129653376,-1.3868413,8.252214,0.45789108,-1.7133863,9.538906,1.49798871408129653382,-1.1372458,8.656835,0.7350199,-1.7851701,9.538621,1.41361361408129653406,-0.9876082,8.53892,1.103727,-1.8585328,9.53493,1.34214821408129653406,-0.97862995,8.1756,1.3054385,-1.9320703,9.526981,1.29388071408129653411,-1.0414777,7.741651,1.240795,-2.0068338,9.515117,1.26710381408129653454,-1.0043676,7.462128,1.3581109,-2.0831816,9.500843,1.25090031408129653454,-0.9127894,7.1550717,1.5454572,-2.159567,9.485116,1.240661408129653455,-0.65541273,6.9844847,1.608305,-2.2345417,9.468752,1.23286951408129653456,-0.25677812,7.211934,1.5394717,-2.3032517,9.45327,1.22518831408129653464,0.17058687,7.5830355,1.2378023,-2.3603227,9.440936,1.21161931408129653518,0.5351041,7.9301944,1.1324574,-2.4058359,9.431811,1.19300331408129653518,0.78170687,8.450335,1.2348095,-2.4446585,9.4239,1.17649821408129653519,0.83497787,9.122507,1.3515269,-2.4799376,9.416017,1.16572671408129653521,0.6194997,9.584588,1.6106992,-2.5121076,9.408435,1.15804261408129653521,0.20949265,9.879075,2.011728,-2.5452342,9.399292,1.1599551408129653555,-0.28491,9.910199,2.2744915,-2.5820255,9.387437,1.17455821408129653557,-1.0456676,9.723452,2.3080103,-2.6237762,9.372699,1.19946111408129653558,-1.429937,9.350554,2.055422,-2.6710093,9.355519,1.22896781408129653559,-1.2898762,9.166202,1.7256209,-2.7203877,9.33788,1.25453651408129653563,-0.9864111,9.19972,1.5652094,-2.766007,9.322245,1.27097391408129653588,-0.54288524,9.189545,1.7178397,-2.8081536,9.308268,1.28094411408129653589,-0.6817489,9.068638,1.7196354,-2.842665,9.297257,1.28478611408129653592,-1.4347254,9.045893,1.572392,-2.873134,9.288633,1.27937351408129653627,-2.393603,9.488221,1.0761937,-2.9022555,9.281698,1.26386321408129653628,-3.0346506,10.73979,0.97743285,-2.9276586,9.277772,1.2337611408129653628,-3.3722332,11.693281,0.7410054,-2.9387019,9.279736,1.19203071408129653632,-2.5528176,11.506534,-0.81163436,-2.9399118,9.285477,1.14335351408129653664,-2.545635,11.476605,-0.2801216,-2.9122221,9.301932,1.07860661408129653665,-2.645593,10.972627,-0.16938977,-2.8616927,9.3239155,1.02259591408129653666,-3.0538042,9.613318,-0.9223662,-2.796364,9.34946,0.96869891408129653688,-3.863643,8.255806,-1.2814964,-2.7252376,9.376658,0.906491761408129653689,-4.787805,7.845799,-0.5710171,-2.6492736,9.404237,0.843852041408129653692,-5.831078,9.407417,0.5895722,-2.56577,9.43168,0.79412331408129653703,-6.161478,12.3115835,1.2617443,-2.4856665,9.456041,0.75838151408129653724,-5.898116,16.247652,1.1791444,-2.3991299,9.479693,0.74162151408129653725,-5.93343,18.349161,0.516549,-2.294159,9.505846,0.73901861408129653731,-5.85502,17.442957,0.41479546,-2.1769915,9.532901,0.744919361408129653752,-5.4623713,15.480908,1.168969,-2.0700717,9.554219,0.77594231408129653753,-4.771045,12.932281,1.9500773,-1.9899151,9.565115,0.84806351408129653767,-4.119224,10.277111,2.4492683,-1.9194186,9.569978,0.949604331408129653783,-4.474763,8.090606,2.753332,-1.8730245,9.564895,1.08395271408129653785,-4.7058034,8.261193,3.0615854,-1.847247,9.5518055,1.23331841408129653803,-4.1653123,8.8806925,2.8640637,-1.8320965,9.536182,1.36932491408129653803,-2.8341362,7.991845,2.6060886,-1.8014033,9.526813,1.47145381408129653825,-1.7782934,6.968324,2.6641479,-1.7256498,9.529929,1.54044381408129653825,-0.6937199,7.2634096,2.971803,-1.6107497,9.541514,1.59229731408129653831,0.47285482,8.37372,3.0238767,-1.4791803,9.554387,1.64197411408129653866,1.1546037,8.97287,2.4271219,-1.3270224,9.568334,1.69008661408129653866,1.4155718,9.144653,1.7776948,-1.1670353,9.58201,1.73017311408129653866,1.4580688,8.980651,1.2000936,-1.0171118,9.59323,1.76233651408129653883,0.8996213,7.527969,0.51235914,-0.889836,9.59961,1.79612951408129653884,0.37588966,5.9052987,0.61112,-0.7959727,9.599503,1.84021461408129653902,0.16759412,4.795586,1.2312182,-0.7223783,9.594959,1.89349381408129653903,0.16699557,4.0821137,1.7316064,-0.6724117,9.584179,1.96514151408129653913,0.2088941,3.763685,2.0817583,-0.63604224,9.568417,2.0521331408129653937,0.22984336,3.6086605,2.3050177,-0.60534734,9.549891,2.14558121408129653938,0.2861071,3.7379475,2.4833858,-0.576459,9.530791,2.23654151408129653944,0.272939,4.0701427,2.630629,-0.5477503,9.512903,2.31841331408129653951,0.24301147,4.4777555,2.707842,-0.51901937,9.497485,2.38722131408129653974,0.24001873,4.936844,2.7395654,-0.4907439,9.483456,2.44819521408129653975,0.18614918,5.5383873,2.7509377,-0.46427032,9.473372,2.49199751408129653983,0.26036942,5.9723363,2.9299042,-0.44243222,9.467314,2.51885151408129654010,0.35793316,6.0920463,3.3363202,-0.42729655,9.464302,2.53274271408129654010,0.62249243,6.247071,3.7882257,-0.42259216,9.462945,2.5385991408129654012,1.0133458,6.8318543,4.188656,-0.4313789,9.462401,2.53914791408129654050,1.2545617,7.73387,4.601057,-0.44535366,9.461991,2.53826761408129654050,1.1049241,8.57184,4.5525746,-0.47364423,9.462463,2.53137251408129654051,0.6655881,9.305663,4.396951,-0.5178417,9.464006,2.5169051408129654053,0.010175358,9.698911,4.484938,-0.5742726,9.466151,2.49651461408129654070,-0.49799395,9.512762,4.264672,-0.63391036,9.467427,2.47716931408129654072,-1.163582,10.15381,3.714604,-0.6852039,9.467749,2.46223881408129654084,-2.2164323,12.20145,3.3680432,-0.72118855,9.469286,2.44599911408129654100,-2.2176294,14.53879,3.1573534,-0.7575202,9.470889,2.4287471408129654121,-1.3371617,14.915876,2.392406,-0.77553856,9.4726715,2.41607931408129654121,0.3561375,13.138182,2.791639,-0.7687489,9.474015,2.4129761408129654124,2.059612,10.836756,4.744709,-0.7302527,9.47106,2.43642521408129654132,2.2224178,9.868899,8.337209,-0.6665018,9.456552,2.50993941408129654157,0.22744916,13.654132,10.490793,-0.57988036,9.42352,2.651681408129654158,-1.1605892,18.315044,6.4002995,-0.49021265,9.377115,2.828391408129654164,-2.6689363,16.496649,1.543063,-0.40315205,9.354368,2.91610151408129654190,-3.425504,13.595474,1.6298528,-0.33064103,9.354613,2.92443041408129654191,-3.13401,11.13603,2.3708582,-0.27492929,9.351954,2.9386641408129654192,-3.1160536,9.479841,2.6725276,-0.25164983,9.335984,2.9910641408129654240,-3.7295678,8.72507,4.0497923,-0.27739275,9.308871,3.07219461408129654241,-3.9773676,9.0716305,3.4506433,-0.33916444,9.276811,3.16166661408129654241,-4.06715,8.611943,1.775899,-0.4029122,9.254776,3.21825721408129654242,-3.913921,7.9445596,1.2294226,-0.47052953,9.248795,3.22626641408129654244,-3.6834793,7.7290816,1.1127052,-0.5336887,9.251773,3.2078421408129654296,-3.4039562,8.2115135,0.6003461,-0.59163463,9.255114,3.1879791408129654297,-3.0244753,8.774749,0.46327803,-0.6402983,9.259694,3.1651961408129654298,-2.2559366,8.903438,0.7757214,-0.6785013,9.269657,3.1278591408129654299,-1.3120226,9.042301,0.96785605,-0.7082533,9.282248,3.08361031408129654301,-0.7990648,9.610924,1.0606314,-0.7291937,9.30044,3.0233221408129654328,-0.8122329,9.874287,1.1085154,-0.751989,9.322025,2.95038081408129654329,-0.9235633,9.801263,1.4215573,-0.78740245,9.343096,2.87349271408129654329,-1.0887632,9.685144,1.6262615,-0.84040016,9.361105,2.79889851408129654332,-1.6406267,9.442133,1.5029601,-0.9092715,9.377915,2.7199851408129654348,-2.1458032,9.208698,1.3479356,-0.99136144,9.393684,2.63558461408129654365,-2.6479871,8.895058,1.0319009,-1.0794551,9.410158,2.540491408129654366,-2.6994624,8.717887,0.84455466,-1.1697237,9.425448,2.4419381408129654381,-2.9376855,8.37372,0.63206923,-1.2541599,9.4383,2.34861061408129654397,-3.2788591,7.963713,0.66020113,-1.3341204,9.448169,2.26332381408129654397,-3.477578,7.743447,0.7942764,-1.4119427,9.454441,2.18869141408129654415,-3.229778,7.6889787,0.58897364,-1.4846219,9.457556,2.12625221408129654415,-2.8377275,7.430405,0.4842273,-1.5501031,9.459952,2.06805781408129654431,-2.4384944,6.9288197,0.32800564,-1.6051124,9.4617605,2.01719671408129654432,-2.0727801,6.737882,0.29807812,-1.6523739,9.462471,1.97527371408129654447,-1.6956934,6.891111,0.31064767,-1.6973274,9.462078,1.93869381408129654462,-1.5592239,7.2634096,0.36631286,-1.7447447,9.461981,1.89662221408129654463,-1.2395979,7.8487916,0.49919105,-1.7994406,9.46283,1.84045721408129654480,-0.57999533,8.302493,0.62488663,-1.855719,9.463931,1.7778381408129654485,-0.074220255,7.943961,0.7954735,-1.9198996,9.464635,1.70442081408129654501,0.30107087,7.7452426,1.0283096,-1.9923712,9.461469,1.63751771408129654506,0.4213795,7.0700774,1.2042835,-2.0678568,9.453429,1.58966051408129654513,0.43873745,6.952163,1.578976,-2.1428726,9.440794,1.56521521408129654538,0.24660277,7.119757,1.9686323,-2.2126255,9.424736,1.56494341408129654539,-0.13108255,7.1927805,1.8752584,-2.27843,9.406174,1.58211031408129654544,-0.3357868,7.716512,1.4957775,-2.3459232,9.386479,1.60033271408129654573,-0.21188685,8.254609,1.2186487,-2.412327,9.367679,1.61172681408129654573,-0.008978256,8.560468,1.2395979,-2.473987,9.351634,1.6114351408129654573,0.2669535,8.924985,1.5741876,-2.5314736,9.336402,1.61048171408129654583,0.41958386,9.149442,1.9829975,-2.5843947,9.320353,1.61935711408129654601,0.24540567,9.023148,2.7724855,-2.6326869,9.303204,1.6400511408129654603,0.005985504,8.995016,3.0388405,-2.6795185,9.284258,1.67126441408129654613,-0.4417302,8.941745,2.9813797,-2.7225628,9.264446,1.71116331408129654638,-0.4333505,8.91062,2.4768016,-2.7638574,9.244896,1.75025031408129654638,0.11671733,9.111733,1.7537527,-2.8037865,9.227363,1.77903211408129654644,0.78649527,9.428367,1.6609775,-2.841211,9.213486,1.7915351408129654672,0.8319851,9.753379,2.416348,-2.8762586,9.202799,1.79053721408129654673,0.16998832,10.094553,2.966416,-2.9107938,9.193112,1.78447821408129654673,-1.0630256,10.350733,2.7509377,-2.948507,9.182572,1.77681621408129654702,-1.9428947,10.847529,2.12246,-2.9864206,9.173075,1.76249661408129654702,-2.4271219,11.677719,1.9698294,-3.015774,9.168525,1.73598791408129654703,-2.9071593,12.405556,1.894412,-3.0275307,9.171575,1.69901811408129654713,-3.063381,11.853094,0.92655605,-3.0209966,9.182232,1.65244641408129654740,-2.9101522,10.611102,-5.99E-04,-2.9976633,9.200174,1.59412041408129654742,-2.9885623,10.059238,-0.1921347,-2.968127,9.220885,1.52836291408129654744,-3.105878,9.490616,-0.84575176,-2.921404,9.246687,1.46102361408129654775,-3.0945058,8.228871,-1.7322049,-2.8606195,9.27815,1.37956991408129654775,-3.7152026,7.313688,-1.7998412,-2.7850683,9.314427,1.28654911408129654776,-4.5058875,7.393295,-1.2958617,-2.697798,9.352336,1.19419931408129654801,-5.3444567,8.701127,-0.5363012,-2.6029012,9.389086,1.11371831408129654801,-5.9483943,11.678317,0.52612585,-2.502035,9.42289,1.05799811408129654804,-6.3021374,15.780184,1.1785458,-2.3982797,9.453429,1.02535081408129654814,-6.597223,18.128296,0.4201824,-2.2817338,9.482377,1.02401221408129654839,-6.9407907,17.440563,-0.08798691,-2.1621425,9.509336,1.03347851408129654840,-7.2819643,15.330672,0.6931214,-2.0639179,9.528875,1.0541181408129654844,-6.877943,13.038224,1.7471687,-1.9992956,9.536404,1.10914551408129654873,-6.073491,10.647614,2.5049336,-1.9523245,9.534126,1.20798991408129654874,-6.025607,9.098565,2.6641479,-1.9034003,9.528481,1.32496381408129654874,-6.291962,9.48463,1.9369092,-1.86459,9.519396,1.44041741408129654899,-5.20679,10.089765,1.471237,-1.8295318,9.513588,1.52145091408129654900,-3.8552632,8.89446,1.7292122,-1.7614474,9.51873,1.56890181408129654917,-2.5791538,7.2646065,2.2068555,-1.6489215,9.532527,1.60698461408129654917,-1.3383588,7.0862384,2.7030537,-1.5056666,9.549388,1.64697991408129654924,0.076015905,7.689577,3.0310593,-1.3387129,9.568062,1.68239021408129654933,1.0564415,8.197148,2.7503393,-1.1563293,9.586289,1.71358261408129654953,1.8303672,8.740033,2.0697873,-0.9672349,9.603764,1.73278771408129654954,2.304419,8.823232,1.4580688,-0.79242504,9.617701,1.74421921408129654965,1.9213469,8.069656,1.0510546,-0.6477012,9.625347,1.76169171408129654989,1.1456255,6.7983356,0.9415198,-0.54427785,9.62498,1.79831031408129654990,0.59256494,6.0040593,1.407192,-0.48048943,9.617016,1.85810221408129654993,0.25917232,5.1475334,1.763928,-0.43417937,9.605071,1.92989551408129655026,0.24061728,4.44304,1.9865888,-0.40446138,9.588814,2.0153131408129655027,0.23104046,4.1533413,2.208651,-0.38543785,9.570611,2.10362481408129655029,0.24121583,4.050989,2.3744495,-0.37396324,9.552208,2.18766451408129655061,0.21547815,4.322731,2.6372132,-0.36784855,9.534456,2.26477861408129655062,0.21547815,4.622605,2.7449522,-0.36601767,9.517928,2.33355161408129655063,0.13467385,4.969166,2.6755204,-0.36908516,9.50329,2.39199691408129655065,0.08200141,5.1702785,2.6821043,-0.37552258,9.489923,2.44350841408129655087,0.3429694,5.4312468,3.1334114,-0.38879168,9.479638,2.4810671408129655087,0.43754035,5.5120506,3.7463272,-0.40694225,9.471942,2.50740961408129655093,0.5955577,5.8628016,4.253299,-0.4315387,9.466242,2.52476531408129655122,0.8607155,6.679224,4.5178585,-0.46377194,9.462649,2.53250311408129655122,0.9343372,7.811083,4.6363716,-0.50505,9.461727,2.52805021408129655125,0.6428431,9.032724,4.396951,-0.54922146,9.462326,2.51657371408129655159,0.110133275,9.803658,3.6804867,-0.60323554,9.467095,2.48608921408129655159,-0.42078096,9.785102,3.1226375,-0.6656477,9.476021,2.4356361408129655160,-0.717662,10.108319,3.389591,-0.7324715,9.486125,2.37640951408129655166,-1.1145009,11.544841,3.7337575,-0.7939114,9.493048,2.3285471408129655180,-1.1851299,13.837887,3.728969,-0.8425129,9.496105,2.2988161408129655197,-1.049259,15.600618,2.9370868,-0.86976874,9.49774,2.281851408129655197,-0.46986207,15.057135,1.7495629,-0.8823136,9.501799,2.26002931408129655215,1.1348516,13.102867,1.7040731,-0.8632468,9.505534,2.2516731408129655216,3.1747115,10.801441,3.7433343,-0.80657387,9.504133,2.27843831408129655229,4.791396,9.503185,6.634333,-0.71839523,9.491088,2.3608321408129655247,4.1916485,10.33098,9.222465,-0.5977539,9.463124,2.50247551408129655247,1.0522517,15.031996,9.626487,-0.46027884,9.423652,2.67457061408129655260,-0.81343,18.376696,5.056554,-0.34665948,9.382717,2.83104871408129655264,-3.655946,14.638748,2.9137435,-0.27015463,9.373714,2.86895631408129655277,-4.9613843,12.631808,2.0799627,-0.2505622,9.370625,2.88080051408129655296,-4.744709,12.134413,1.0444705,-0.2621699,9.362842,2.9049751408129655296,-5.3701944,10.935516,1.0815806,-0.28662077,9.349283,2.94603591408129655310,-6.015432,10.589554,1.6729485,-0.35046515,9.328914,3.00315261408129655313,-5.7119665,10.04607,0.42317516,-0.47159183,9.307785,3.05174451408129655327,-5.130774,8.715493,-0.33039984,-0.60114646,9.290783,3.08064561408129655344,-4.8159366,7.654263,0.22625206,-0.73967856,9.278206,3.0883911408129655345,-4.5034933,7.2747817,0.60812724,-0.8690347,9.264874,3.09471491408129655359,-4.1144357,7.0144124,0.84814596,-0.97731036,9.249491,3.10840321408129655399,-3.3967736,6.393117,1.2497733,-1.0569391,9.236902,3.11976461408129655400,-2.100912,6.151303,1.8459295,-1.1099216,9.231727,3.11668011408129655401,-1.110311,6.640917,2.219425,-1.1464158,9.23035,3.10753421408129655408,-0.6488287,7.638102,2.722806,-1.165154,9.236756,3.081421408129655409,-0.61530983,8.667608,2.8754363,-1.1723956,9.24871,3.04256991408129655457,-0.7529764,9.141062,2.7084408,-1.17972,9.2642765,2.99195721408129655458,-1.1546037,9.235633,2.2361844,-1.1960342,9.2823,2.92895671408129655460,-1.6621746,9.390059,1.5358804,-1.2262634,9.304101,2.84611251408129655461,-2.0560207,9.470863,0.78290397,-1.2709919,9.327938,2.74673031408129655462,-2.3373394,9.363723,0.25857377,-1.3239857,9.357016,2.61986921408129655492,-2.493561,9.083003,0.09816227,-1.3837578,9.386153,2.48107581408129655493,-2.593519,8.514978,-0.018555064,-1.4432005,9.410714,2.35075241408129655494,-2.7090392,7.811083,-0.01616086,-1.4955368,9.428841,2.2429281408129655494,-2.5791538,7.2089415,0.17357962,-1.5403169,9.44092,2.16029481408129655521,-2.3002293,6.5427547,0.53689975,-1.5771827,9.448155,2.10124641408129655521,-1.99437,6.0525417,0.86370826,-1.609454,9.452811,2.05533741408129655525,-1.584363,5.868787,1.127669,-1.6343473,9.453882,2.03062271408129655547,-1.146224,6.2219315,1.234211,-1.6533685,9.452833,2.02008251408129655548,-0.7398083,7.454347,1.1653777,-1.6696274,9.452962,2.00604941408129655563,-0.8265981,7.8966756,0.89064306,-1.6876614,9.457361,1.96990491408129655582,-0.6907272,8.261193,0.7930793,-1.7187779,9.464481,1.90782751408129655582,-0.2220622,8.540716,0.96785605,-1.7663543,9.469708,1.83712081408129655589,0.24660277,8.405443,1.0881647,-1.8169923,9.474142,1.76338921408129655593,0.46148238,8.20433,1.3497312,-1.8751316,9.474351,1.7002721408129655618,0.39444473,8.298902,1.9512744,-1.9324484,9.469922,1.66030351408129655619,0.27593175,8.465898,2.0602105,-1.9844759,9.460743,1.65123991408129655625,0.15203181,8.866327,1.7633295,-2.0308,9.448816,1.66316761408129655652,0.035913024,9.065644,1.6214731,-2.07593,9.437175,1.6735061408129655653,0.1592144,9.012972,1.5286977,-2.1226265,9.425999,1.67791751408129655654,0.39324763,8.988432,1.3922282,-2.1678634,9.415172,1.68086521408129655682,0.46267948,9.008782,1.3383588,-2.2097006,9.403905,1.68944011408129655682,0.36870706,9.088389,1.4275428,-2.2489684,9.391637,1.70578521408129655685,0.39205053,9.141661,1.7723078,-2.288046,9.378032,1.72852061408129655693,0.20171149,9.053075,2.7257986,-2.3275838,9.363088,1.75651471408129655716,0.04309563,8.6496525,3.2674868,-2.369206,9.346163,1.79066471408129655717,-0.44232875,8.04392,2.9322984,-2.414366,9.327407,1.8277691408129655725,-0.85652566,8.063671,2.4863784,-2.4680934,9.307638,1.85654681408129655752,-0.54049104,8.711902,1.7172412,-2.5246723,9.288818,1.87464181408129655752,0.5907693,9.456498,1.0259154,-2.5750704,9.273861,1.8801411408129655753,1.2156559,10.014946,1.3269863,-2.6109982,9.265662,1.87098321408129655789,0.6907272,10.2495775,2.1823149,-2.6344671,9.263621,1.84805771408129655790,-0.26994625,10.436325,2.4235306,-2.6588733,9.261547,1.82333241408129655790,-0.9175778,10.802039,2.1057005,-2.6841877,9.26075,1.7899851408129655793,-1.4514848,11.323976,1.9961656,-2.7023573,9.263414,1.7483741408129655820,-1.8118122,11.715427,1.6567876,-2.7075999,9.2709255,1.69978261408129655820,-1.6992847,11.200674,0.8571242,-2.6980903,9.284278,1.64100371408129655825,-1.2455834,10.309433,-0.008379706,-2.671828,9.303532,1.57354061408129655846,-1.1647792,10.002377,0.04249708,-2.6276164,9.328136,1.50063781408129655846,-1.6891093,10.131663,0.32142156,-2.5763907,9.35298,1.4333021408129655856,-2.456451,9.352949,-0.20530279,-2.5159643,9.379762,1.36396841408129655882,-3.3153708,7.7464395,-0.46507367,-2.44868,9.407934,1.29039691408129655883,-4.256292,6.9366007,-0.40581718,-2.3719628,9.435924,1.22780811408129655887,-5.4521956,7.6889787,-0.073023155,-2.2882018,9.462513,1.18126321408129655893,-6.2823853,10.190321,0.93014735,-2.2040582,9.486844,1.14556831408129655923,-6.965331,14.528016,2.1230583,-2.125808,9.507558,1.12146781408129655924,-6.841431,18.598158,1.7687165,-2.0455494,9.524474,1.12717451408129655925,-6.5391636,19.504364,0.3537433,-1.9475998,9.542635,1.14689981408129655951,-6.613982,17.862541,0.41479546,-1.8409995,9.5629225,1.15396491408129655952,-6.0681043,15.21994,1.3790601,-1.7582872,9.576431,1.17080321408129655953,-5.006874,12.0159,2.5151088,-1.7008287,9.579359,1.23021861408129655992,-4.3221326,10.269928,3.2878375,-1.643929,9.576674,1.32483641408129655994,-4.9907136,9.773131,2.9682117,-1.602352,9.565501,1.45053551408129655994,-4.7722425,9.872491,2.4558525,-1.5770769,9.551573,1.56545891408129655995,-3.7870286,9.48882,2.2278047,-1.5454942,9.542936,1.64749131408129656025,-3.0627825,7.902063,2.348712,-1.4823607,9.542659,1.70606161408129656026,-2.3110032,7.0251865,2.552219,-1.3877373,9.547248,1.75915671408129656026,-1.3186066,7.1059904,2.582745,-1.2767518,9.553434,1.80891351408129656045,-0.30346507,7.551911,2.2415714,-1.1583238,9.559935,1.85373181408129656046,0.682946,8.032547,1.8908207,-1.0322759,9.567329,1.88971421408129656062,1.3096284,8.102577,1.6502035,-0.9118321,9.5730915,1.92220621408129656077,1.0456676,7.2406645,1.377863,-0.812733,9.574602,1.95878961408129656078,0.5781997,6.0543375,1.3772645,-0.748339,9.570401,2.00443841408129656094,0.22924481,5.1864395,1.6406267,-0.716801,9.560796,2.06101731408129656095,0.1376666,4.429273,1.9476831,-0.6985861,9.548505,2.1233081408129656106,0.1592144,4.0372224,2.1057005,-0.69084805,9.533347,2.1928131408129656113,0.062249243,3.7235823,2.1404164,-0.68399614,9.517245,2.26375461408129656127,-0.11791443,3.5350387,2.2906525,-0.6768749,9.501896,2.32942321408129656139,-0.1436521,3.620033,2.4510639,-0.67070293,9.48803,2.3870161408129656144,-0.13467385,3.8139634,2.4492683,-0.663735,9.476302,2.43506671408129656158,0.001795651,3.9432502,2.244564,-0.6552258,9.46748,2.4714231408129656186,0.12030864,4.096479,2.0967221,-0.64553255,9.460676,2.4998541408129656187,0.31543607,4.3783965,2.1894975,-0.6383076,9.458512,2.50988551408129656187,0.46686932,4.759673,2.570774,-0.6339787,9.461267,2.50057241408129656193,0.5422867,5.2582655,3.1501708,-0.63404727,9.467897,2.47534161408129656219,0.48841715,5.9424086,3.643975,-0.64176166,9.476918,2.438561408129656219,0.48841715,7.131728,4.1054573,-0.6606358,9.4877,2.39112661408129656225,0.5303157,8.6813755,4.477157,-0.68406016,9.49842,2.34146951408129656246,0.48003745,10.166978,4.71538,-0.71597064,9.508675,2.2897361408129656246,0.3184288,10.892421,4.6920366,-0.75314915,9.516553,2.24463731408129656261,-0.11492168,10.776301,4.547188,-0.7918283,9.521485,2.21013861408129656276,-0.82240826,11.497555,4.1401734,-0.82792515,9.524116,2.18543961408129656276,-1.726818,13.874399,3.6164417,-0.857874,9.527013,2.1611231408129656294,-2.059612,15.974113,3.2112231,-0.8849787,9.530359,2.13529131408129656295,-1.7208325,16.248848,2.3570917,-0.91361386,9.534061,2.10651231408129656310,-0.40282443,14.644733,2.136825,-0.92201245,9.537234,2.08841131408129656323,1.834557,12.646772,2.9951463,-0.90180534,9.537402,2.09645031408129656325,3.5248635,10.459669,4.6698904,-0.84866893,9.529052,2.15576171408129656344,4.3783965,8.793902,7.367557,-0.7675275,9.509273,2.27046821408129656345,3.8444893,8.714894,10.350134,-0.65968734,9.480006,2.42171451408129656359,1.5855601,12.698247,10.933721,-0.53683776,9.439919,2.60194131408129656376,0.038905777,18.042105,6.549339,-0.43011883,9.40246,2.75302031408129656376,-2.6982653,16.961123,2.2637177,-0.35148895,9.390479,2.80459931408129656392,-4.329315,14.271237,1.7501614,-0.3312639,9.39095,2.8054821408129656393,-4.2173862,12.8772135,1.417966,-0.3411207,9.382517,2.83238671408129656408,-4.481347,11.246762,0.50278234,-0.36992127,9.36486,2.8866851408129656426,-4.8201265,9.65821,1.0205284,-0.4401767,9.347678,2.93216061408129656427,-5.04159,8.907627,1.407192,-0.5322212,9.331126,2.96937941408129656445,-4.875193,7.7147164,0.88765025,-0.6491024,9.3208685,2.97833251408129656446,-4.6645036,6.640917,0.9708488,-0.7665426,9.312836,2.97554781408129656454,-4.6381674,6.101623,1.3563153,-0.87287325,9.30184,2.98064781408129656481,-4.5418005,6.2075663,1.1210849,-0.96053696,9.288744,2.99449231408129656481,-4.1120415,6.7504516,0.7158663,-1.0276214,9.280584,2.9975191408129656488,-3.071761,7.0970125,0.6697779,-1.0816078,9.277355,2.9885081408129656494,-1.6250644,7.24665,1.2300211,-1.1179717,9.282876,2.95782521408129656516,0.05327099,8.585009,2.0697873,-1.13952,9.294476,2.91284041408129656517,0.12210429,9.095572,2.166154,-1.1504494,9.311162,2.85466811408129656525,-0.5542577,9.059061,1.9309237,-1.1683929,9.329514,2.7866521408129656546,-1.3221979,8.88608,1.5652094,-1.2066985,9.346715,2.71167661408129656547,-1.8525136,8.863335,1.2838906,-1.2681787,9.363365,2.62478611408129656554,-2.1691468,8.777742,0.9379285,-1.3427395,9.379837,2.52707581408129656585,-2.1775265,8.615535,0.825401,-1.4260312,9.397866,2.4118351408129656586,-2.1529858,8.395268,0.717662,-1.5080888,9.415081,2.2917881408129656587,-2.1888988,8.16722,0.7152678,-1.5824211,9.428783,2.18275451408129656594,-2.2331917,7.9236107,0.65062433,-1.6464344,9.43843,2.09181211408129656609,-2.1643584,7.8607626,0.7386112,-1.699897,9.445049,2.01787071408129656631,-2.011728,7.690176,0.7625532,-1.7482369,9.450114,1.95177351408129656633,-1.827973,7.2544312,0.83018947,-1.7870662,9.4537525,1.89825531408129656634,-1.5448587,6.865972,0.97144735,-1.8202289,9.455669,1.85674021408129656664,-1.1785458,7.013814,1.0833763,-1.8518236,9.4554205,1.82652161408129656665,-0.92535895,7.6111674,0.8571242,-1.8842891,9.454615,1.79725111408129656668,-0.61291564,7.7847466,0.39205053,-1.9183104,9.456121,1.75278831408129656674,-0.50757074,7.8829093,0.18195933,-1.9565145,9.460605,1.68505681408129656702,-0.3369839,8.505402,0.55605334,-1.9973211,9.46543,1.60832671408129656704,-0.0796072,8.903438,0.90979666,-2.045108,9.468994,1.52515091408129656706,-0.050278235,8.670003,1.0971429,-2.097242,9.468859,1.45351241408129656729,0.107140526,8.874108,1.5622166,-2.1546884,9.463594,1.40288011408129656730,-0.0796072,9.077616,1.7292122,-2.2118225,9.453709,1.38045011408129656734,-0.18734628,9.276933,1.2797008,-2.2664647,9.440103,1.38492521408129656766,-0.44651863,9.287707,0.9044097,-2.3196836,9.4257765,1.39434251408129656767,-0.70509243,8.937555,0.9576807,-2.3753614,9.41002,1.40697461408129656767,-0.5722142,8.65025,0.9624691,-2.4361136,9.392582,1.41955011408129656774,-0.25677812,8.620922,1.0881647,-2.4981503,9.373497,1.43777191408129656796,-0.062249243,8.525154,1.4209588,-2.55555,9.354216,1.46225631408129656797,-0.12988544,8.504803,2.0679917,-2.6065173,9.335703,1.4903491408129656806,-0.2136825,8.561666,2.7269957,-2.6531596,9.317269,1.52303491408129656837,-0.6147113,8.608353,2.7814639,-2.6982617,9.297722,1.56273041408129656838,-1.0582372,8.43178,2.64679,-2.7422242,9.277807,1.60403041408129656839,-1.1965023,8.792108,2.2038627,-2.7862236,9.258121,1.64151571408129656870,-0.58119243,9.266159,1.5131354,-2.828732,9.239747,1.67204481408129656871,0.6392518,9.514558,1.3874398,-2.8642612,9.224807,1.69391231408129656871,0.89543146,9.431957,2.304419,-2.8857746,9.215887,1.70590091408129656874,-0.004189853,9.514558,2.9191303,-2.9031563,9.208467,1.71646381408129656888,-1.377863,9.894038,2.6330233,-2.921088,9.202548,1.7177861408129656909,-2.0638018,10.847529,2.1613655,-2.9432383,9.197451,1.70724581408129656909,-2.3744495,11.719019,1.9680338,-2.9569116,9.197327,1.68411921408129656925,-2.3732524,11.582549,1.412579,-2.955119,9.204869,1.64561031408129656926,-1.8567034,10.857106,0.4854244,-2.9385886,9.21981,1.5906631408129656948,-1.4413095,10.584765,0.6099229,-2.9034085,9.241823,1.52621531408129656949,-1.5981296,10.7990465,0.9696517,-2.8562477,9.266548,1.46400991408129656954,-2.123657,10.546458,0.032920275,-2.79152,9.296139,1.39986381408129656973,-3.0268695,9.4217825,-0.9684546,-2.7169144,9.32981,1.32038941408129656974,-3.9534256,8.255806,-1.287482,-2.6349509,9.364998,1.23460141408129656991,-4.6902413,8.122928,-1.1695676,-2.5461724,9.399565,1.15566711408129657005,-5.4899044,9.579201,-0.29508537,-2.4523911,9.43304,1.08348731408129657006,-6.123171,13.107656,0.8487445,-2.362489,9.463301,1.01734641408129657022,-7.0754647,17.18498,1.1653777,-2.270299,9.490328,0.97459091408129657047,-7.4028716,19.31642,0.15981296,-2.180093,9.513175,0.957667231408129657048,-7.6548615,18.137276,-0.7469909,-2.0891476,9.534249,0.95076521408129657048,-7.6309195,15.166669,-0.04189853,-2.0139859,9.549987,0.954989551408129657054,-6.5720835,12.08174,1.2455834,-1.9620123,9.5558195,1.00359891408129657071,-5.3965306,9.114127,2.3852234,-1.9237069,9.55351,1.09552791408129657074,-4.643554,6.8689647,2.9412768,-1.8816558,9.544859,1.23508491408129657087,-4.83509,7.0700774,2.731784,-1.8425843,9.530505,1.39453241408129657102,-4.2036195,7.948151,2.746748,-1.8041009,9.515986,1.53676471408129657105,-2.569577,8.048708,2.9281087,-1.7444254,9.50906,1.64473651408129657124,-1.388637,6.8348475,2.8616695,-1.6370643,9.514345,1.72269421408129657125,-0.06284779,6.3763576,2.730587,-1.4930449,9.527846,1.77801981408129657145,1.0636241,7.1670427,2.5821466,-1.3367372,9.542672,1.82234871408129657146,1.5825673,7.766192,2.0338743,-1.1715513,9.558898,1.85076821408129657154,2.0829554,8.405443,1.6089035,-1.0074837,9.574301,1.86766031408129657172,2.1068976,8.552687,1.4059949,-0.8553503,9.58575,1.88472891408129657174,1.6262615,7.8888946,1.1420342,-0.730107,9.590266,1.91418931408129657188,0.85652566,6.4870896,1.0755951,-0.6431815,9.58666,1.9628171408129657207,0.4189853,5.3995233,1.5502456,-0.5814391,9.578362,2.02171161408129657208,0.2657564,4.836886,2.005144,-0.54581016,9.563728,2.0994241408129657223,0.034715924,4.38498,2.236783,-0.5256341,9.544632,2.18954541408129657225,-0.059855044,4.087501,2.4594438,-0.5129075,9.523446,2.28282521408129657240,-0.019153614,4.1102457,2.653374,-0.50531715,9.501983,2.37220431408129657258,-0.10414778,4.3478703,2.6342204,-0.5013776,9.4816885,2.4528761408129657259,-0.24480712,4.478953,2.532467,-0.5002649,9.463663,2.52175191408129657278,-0.20051439,4.6519337,2.4181437,-0.50134426,9.44702,2.58318881408129657278,0.034715924,5.0104656,2.5115175,-0.506018,9.4342375,2.62859321408129657286,0.37229836,5.439626,2.8772318,-0.51283586,9.426102,2.656321408129657319,0.65780693,5.8143187,3.4356794,-0.52148426,9.422574,2.66712021408129657319,0.7224504,6.1195793,4.015076,-0.53584117,9.423012,2.66272571408129657320,0.8451532,6.619369,4.484938,-0.56223965,9.426894,2.64347171408129657345,0.95708215,7.627328,4.9308586,-0.5940096,9.431843,2.61875871408129657346,0.85054016,9.073426,5.16549,-0.6389961,9.439327,2.5809261408129657346,0.53929394,10.386645,4.892551,-0.69342506,9.448602,2.53248621408129657354,0.31124622,10.962451,4.4155064,-0.7521404,9.458682,2.47750431408129657384,0.095768064,10.630854,4.11264,-0.80643564,9.46714,2.42761751408129657385,-0.3681085,11.377845,3.7020345,-0.84976786,9.471989,2.39368721408129657389,-1.2336124,13.169307,3.46022,-0.8769166,9.475511,2.36983541408129657413,-1.8800468,14.568119,3.3901896,-0.9032665,9.479147,2.34526781408129657415,-1.6023195,15.380352,2.878429,-0.9245311,9.479921,2.33381941408129657415,-0.3866636,13.4608,2.7808652,-0.9315802,9.479593,2.33234881408129657448,1.5239093,11.304223,4.3341036,-0.9128001,9.476294,2.35309461408129657448,2.267309,10.226234,7.361572,-0.86809874,9.4624605,2.42458631408129657449,0.7589619,12.264298,10.532692,-0.80172193,9.432634,2.55989151408129657455,-0.688333,17.892467,7.946954,-0.7300857,9.386757,2.7433841408129657485,-2.083554,18.573618,2.2786815,-0.6585097,9.355838,2.86444951408129657487,-3.8498764,15.673641,0.46567222,-0.5956981,9.356635,2.8755731408129657487,-4.0587707,13.01488,1.1965023,-0.55278105,9.362546,2.86487981408129657516,-3.6002808,10.277709,1.0163386,-0.53454703,9.354132,2.89566251408129657517,-3.5434184,7.7183075,2.2720973,-0.55943084,9.328797,2.97169471408129657517,-3.8786068,7.365163,4.073136,-0.625456,9.2947855,3.0636851408129657541,-4.044405,7.705738,3.5751417,-0.70480114,9.259307,3.15259671408129657542,-3.8361096,7.2622123,2.1045034,-0.79397833,9.2374735,3.19516561408129657555,-3.739743,6.669049,1.8650831,-0.8772743,9.229677,3.19591211408129657555,-3.6631286,6.4697313,1.6190789,-0.9543948,9.223439,3.19181871408129657569,-3.3464954,6.9012866,1.0151415,-1.0194547,9.215086,3.19582271408129657575,-2.8089972,7.6285253,0.5386954,-1.069113,9.212209,3.18788121408129657589,-1.8716671,8.511986,0.7781156,-1.1087793,9.216047,3.16314271408129657606,-0.83497787,9.278131,1.276708,-1.1332777,9.232507,3.1059461408129657606,-0.39025488,9.846753,1.5915456,-1.1484516,9.256943,3.02662631408129657623,-0.39743748,9.753379,1.3964181,-1.1702554,9.282905,2.9374441408129657639,-0.52492875,9.361329,1.4454993,-1.2118177,9.305251,2.84854171408129657640,-0.85772276,8.713099,1.6023195,-1.2728777,9.321727,2.7668761408129657654,-1.4622587,8.291719,1.7256209,-1.3468767,9.334882,2.68631721408129657655,-1.8106151,7.9188223,1.7375919,-1.4289833,9.346252,2.60306721408129657669,-2.2415714,7.8452005,1.3964181,-1.5141919,9.356577,2.51636221408129657675,-2.4522612,7.545925,1.0366893,-1.5971601,9.365845,2.4290791408129657687,-2.1877017,7.32925,0.9211691,-1.6733071,9.374295,2.34371541408129657703,-2.2068555,7.0485296,0.7649474,-1.7394941,9.382002,2.26331331408129657706,-2.2146366,7.006033,0.89603,-1.79647,9.388763,2.18956641408129657731,-2.2415714,7.290344,1.0827777,-1.8482895,9.394496,2.12076881408129657732,-2.208651,7.2460513,1.0139444,-1.8930107,9.399376,2.05879431408129657734,-2.203264,7.0766616,0.79487497,-1.9345921,9.403236,2.0017241408129657768,-1.9907787,6.9820905,0.5793968,-1.9785781,9.40558,1.94697931408129657769,-1.4347254,7.076063,0.5470751,-2.026034,9.407254,1.88921631408129657769,-1.1049241,7.29214,0.48362875,-2.074273,9.4095,1.82458511408129657774,-0.88645315,7.6351094,0.54767364,-2.125722,9.411932,1.75135391408129657788,-0.4890157,8.483853,0.8463503,-2.1769025,9.41376,1.67707461408129657803,-0.05925649,9.312846,1.079785,-2.22577,9.415189,1.60329631408129657827,0.3321955,9.639654,1.0720038,-2.268295,9.415738,1.53919171408129657827,0.5446809,9.293094,1.0528502,-2.309018,9.413009,1.49468791408129657827,0.45070848,8.902241,1.0049661,-2.3521726,9.405189,1.47652341408129657834,0.009576807,8.580819,1.1905168,-2.3992825,9.392913,1.47886031408129657859,-0.5823896,8.29531,1.2755109,-2.4519124,9.377932,1.48758021408129657860,-1.1402385,8.154053,1.3108255,-2.5105052,9.359669,1.50477561408129657868,-1.3569138,8.239047,1.2659341,-2.5774882,9.338795,1.52113821408129657875,-1.1767502,8.289325,1.2360066,-2.6504092,9.316406,1.53306941408129657897,-0.9528923,8.328231,1.5101427,-2.7218072,9.294644,1.54005041408129657898,-0.7930793,8.243237,1.8992004,-2.78628,9.273934,1.54957161408129657907,-0.748188,8.302493,2.1092918,-2.8410392,9.254161,1.56825591408129657933,-1.1887212,8.058883,2.5498247,-2.890316,9.234773,1.59230961408129657933,-2.2840683,8.533533,2.0805612,-2.9375362,9.214293,1.62421391408129657936,-2.0284874,9.19553,1.3605051,-2.9910393,9.192232,1.65135321408129657997,-1.2916719,9.668385,0.88944596,-3.0391798,9.174562,1.661681408129657999,-0.3705027,9.878476,1.0737995,-3.0759199,9.163552,1.65481021408129658000,-0.10115502,10.065224,1.7896658,-3.0999641,9.15821,1.63944891408129658001,-0.87927055,10.247782,2.4570496,-3.117836,9.154361,1.62700741408129658003,-1.6334441,10.681731,2.356493,-3.136308,9.150177,1.61500821408129658005,-2.2134395,11.273099,2.304419,-3.1522472,9.146959,1.60214531408129658008,-2.8006175,11.285668,1.9632454,-3.158739,9.147546,1.58593181408129658043,-2.6120741,10.70687,0.9756372,-3.1549406,9.153853,1.55682671408129658044,-2.071583,10.674548,0.43275195,-3.132689,9.1686535,1.51407831408129658046,-1.91596,11.30961,0.8714894,-3.0852935,9.192455,1.46632991408129658048,-2.1458032,11.999141,0.46866497,-3.0260255,9.219547,1.41898661408129658056,-2.7072437,11.751341,-0.5327099,-2.9504316,9.252991,1.35924381408129658095,-3.6164417,10.208278,-0.96306765,-2.87001,9.289789,1.27799691408129658095,-4.4795513,8.704719,-1.2180501,-2.7887032,9.325851,1.19249431408129658096,-4.996699,8.287529,-1.067814,-2.7038362,9.360746,1.11179221408129658097,-5.4701524,9.240421,-0.090979666,-2.612408,9.394938,1.03964471408129658126,-5.9597664,11.744757,1.1127052,-2.5203683,9.426386,0.980499271408129658127,-6.3470287,15.40609,1.3150153,-2.4234307,9.454585,0.953006271408129658128,-6.5218053,17.565062,0.5847838,-2.320051,9.480566,0.952152251408129658136,-6.5643024,16.997635,0.6757634,-2.209761,9.50573,0.96355981408129658165,-6.0986304,14.629769,1.6537948,-2.1050982,9.525669,1.00029591408129658166,-5.08708,11.890802,2.3953989,-2.012968,9.536942,1.07939981408129658170,-4.2491093,9.130887,2.7724855,-1.9331485,9.540467,1.18862821408129658189,-3.6122518,7.6650367,3.0561984,-1.8543525,9.53744,1.33004331408129658197,-3.7978024,7.973889,2.7862523,-1.7908701,9.527478,1.47998791408129658214,-3.6768951,8.74542,2.4343045,-1.7403808,9.516114,1.60780581408129658215,-2.8856115,8.369531,2.4875755,-1.6864649,9.511241,1.6919041408129658216,-1.821389,7.3484035,2.7856536,-1.6066531,9.516912,1.73707751408129658256,-1.1109096,6.831256,2.9191303,-1.491957,9.530634,1.7639311408129658256,-0.21906945,7.436989,2.7287915,-1.360757,9.546023,1.78666081408129658259,0.7182605,8.363545,2.2762873,-1.2092314,9.563479,1.80222831408129658259,1.2838906,8.645462,1.5825673,-1.0474591,9.580765,1.81167651408129658288,1.5251064,8.36175,1.1569979,-0.89108706,9.594871,1.82066941408129658288,1.4024036,7.9278,1.0223241,-0.7581027,9.602329,1.84145261408129658290,0.9804256,7.107786,0.99179804,-0.6600424,9.601473,1.88320041408129658315,0.39384618,5.94181,1.043872,-0.5960556,9.595139,1.93608561408129658316,0.12150574,4.939238,1.3994108,-0.551252,9.583161,2.00737261408129658316,0.12509704,4.4783545,1.8531121,-0.5276341,9.56656,2.09115221408129658338,0.14604631,4.2155905,2.2331917,-0.51776725,9.54671,2.18235161408129658338,0.15143326,4.0360255,2.546832,-0.51348114,9.524531,2.2781691408129658358,-0.033518825,4.1276035,2.859874,-0.5111661,9.501663,2.3722361408129658358,-0.1316811,4.573524,3.1759086,-0.51107734,9.4797735,2.45826821408129658372,-0.24540567,4.807557,3.2076318,-0.5123659,9.45844,2.53886031408129658386,-0.18255788,5.0146556,3.252523,-0.5168217,9.44076,2.6029521408129658387,0.07062895,5.358822,3.441665,-0.5241568,9.427899,2.64771341408129658403,0.42556936,5.78918,3.788824,-0.5347754,9.419916,2.67387081408129658421,0.91219085,6.215946,3.9480386,-0.5498908,9.416378,2.68325191408129658421,1.3497312,6.7330937,4.091092,-0.5724493,9.417145,2.67583081408129658440,1.5867572,7.302315,4.396353,-0.5978493,9.41983,2.66078231408129658440,1.5693992,8.201338,4.687248,-0.63586354,9.425475,2.63182571408129658447,1.2737153,9.456498,4.4460325,-0.68451065,9.432984,2.59242061408129658456,0.64823014,10.290877,3.8420951,-0.73853976,9.442875,2.5410741408129658472,-0.19093758,10.326192,3.8624458,-0.79172754,9.454458,2.481291408129658487,-0.90500826,10.423157,4.345476,-0.8384271,9.463447,2.4311751408129658487,-1.4293385,12.036849,4.26946,-0.87218076,9.466764,2.40625621408129658502,-1.8166006,13.341689,3.6314054,-0.90096766,9.4682665,2.3896841408129658519,-1.9482816,14.909891,3.1489737,-0.9198325,9.467162,2.38687061408129658519,-1.0881647,14.210784,2.44448,-0.9356562,9.46313,2.3966871408129658534,0.75836337,11.453861,3.05141,-0.93359876,9.459371,2.41227871408129658536,1.9979613,9.618107,5.8221,-0.9023467,9.451939,2.45296551408129658553,1.0552444,10.699687,9.7641535,-0.84407294,9.4315,2.55043671408129658556,-0.7206547,15.333066,8.82802,-0.7707658,9.392956,2.7108521408129658568,-2.360683,17.27177,3.8013937,-0.6939184,9.356068,2.85532051408129658583,-3.7696705,14.899117,0.93134445,-0.6218041,9.348804,2.89544031408129658588,-4.2981906,12.08174,2.1212628,-0.56151664,9.357644,2.87916371408129658599,-3.9737763,9.828796,2.4271219,-0.5238711,9.357708,2.88604191408129658623,-3.911527,8.071452,3.442862,-0.5288178,9.340318,2.94095421408129658624,-4.187459,7.773973,4.3915644,-0.5760745,9.309555,3.0283181408129658628,-4.1461587,8.54311,3.394978,-0.63878006,9.2767315,3.11522411408129658636,-3.8361096,8.101978,1.7902644,-0.7131072,9.259137,3.15123251408129658655,-3.3063924,7.7560163,1.5502456,-0.78081805,9.2597685,3.13327571408129658674,-2.7730842,8.04392,1.1252748,-0.83957857,9.264312,3.10452031408129658675,-2.2146366,8.811859,0.46986207,-0.8846077,9.266925,3.08414441408129658676,-1.5442601,9.561244,0.19572599,-0.91460836,9.273739,3.05477861408129658688,-0.50876784,10.146626,0.682946,-0.9360558,9.285543,3.0121221408129658711,0.079008654,10.406996,1.0600328,-0.94558,9.3048525,2.94889661408129658711,0.17717093,10.7433815,1.0426749,-0.9550419,9.328238,2.8709371408129658716,-0.050876785,10.658986,0.82719666,-0.9775344,9.351601,2.78610541408129658735,-0.31603462,9.7402115,0.85891986,-1.0227463,9.37012,2.7065131408129658736,-0.47165772,9.041702,1.3221979,-1.09348,9.380742,2.64128781408129658752,-1.0911574,8.517372,1.441908,-1.1835715,9.38544,2.58515981408129658772,-1.7818847,7.9355817,1.3030443,-1.2849017,9.387454,2.52886151408129658772,-2.1829133,7.607576,1.0217255,-1.393607,9.388235,2.4676521408129658790,-2.5025394,7.3352356,0.75956047,-1.5007167,9.389022,2.40093951408129658790,-2.8921957,6.9503675,0.6075287,-1.6011297,9.389659,2.33261421408129658796,-3.016694,6.682217,0.6015432,-1.6951262,9.389507,2.26585411408129658823,-2.8281507,6.5750766,0.6751649,-1.7778935,9.388851,2.20430451408129658824,-2.5145104,6.6534867,0.7505822,-1.850409,9.388096,2.14709691408129658830,-2.2523453,6.7253127,0.7679402,-1.9058439,9.389286,2.09271291408129658836,-2.1697452,6.841431,0.81881696,-1.9468825,9.392557,2.03959271408129658860,-2.0284874,7.0664864,0.7104794,-1.9808673,9.396745,1.98689571408129658861,-1.7076644,7.6853876,0.5590461,-2.0138783,9.401601,1.92992651408129658868,-1.3335704,7.960122,0.1436521,-2.0489912,9.407584,1.86262811408129658894,-1.0109516,8.135497,0.142455,-2.0918987,9.413554,1.78307471408129658895,-0.7218518,8.688558,0.30346507,-2.138539,9.417908,1.70296251408129658896,-0.19812019,8.965687,0.3561375,-2.1949878,9.418253,1.62756261408129658927,0.20290859,8.923788,0.57640404,-2.252443,9.415334,1.56473891408129658928,0.31064767,9.130887,0.91338795,-2.3080108,9.409129,1.52045191408129658929,0.09756372,9.129091,1.2378023,-2.3606758,9.398882,1.50287771408129658937,-0.260968,8.798093,1.3940239,-2.4133208,9.383816,1.51336351408129658955,-0.52852005,8.56825,1.3640964,-2.4695039,9.365934,1.53337051408129658976,-0.9187749,8.001422,1.5795746,-2.5275586,9.3458395,1.56113581408129658976,-0.801459,7.803302,1.769315,-2.5924761,9.323573,1.58759771408129658977,-0.39683893,7.7973166,1.9237411,-2.6641955,9.299179,1.61174311408129658988,-0.061650693,7.8116817,2.1176715,-2.7359211,9.274815,1.63185661408129659009,-0.12449849,7.845799,2.297835,-2.7999654,9.252171,1.6516451408129659012,-0.3405752,8.012196,2.956839,-2.853396,9.2313175,1.67668761408129659016,-0.84096336,8.24563,2.5450363,-2.9011436,9.210386,1.70954821408129659034,-1.2743138,8.173206,2.1290438,-2.943582,9.191102,1.74050991408129659036,-1.834557,8.696339,1.6573862,-2.9874313,9.172468,1.76392581408129659051,-1.4820108,9.336788,1.1109096,-3.0368977,9.153989,1.77543031408129659073,-0.6003461,9.463681,1.216853,-3.0838668,9.139145,1.77093481408129659074,-0.66139823,9.907207,2.0949266,-3.1197705,9.130259,1.75380241408129659112,-1.4401124,10.45069,2.6593595,-3.1513162,9.122641,1.736961408129659112,-1.9494787,10.858902,2.6713305,-3.181049,9.115809,1.7185261408129659115,-1.9883845,11.07438,2.2415714,-3.2038999,9.111526,1.69868151408129659115,-2.2451627,11.425131,2.2637177,-3.2131205,9.113148,1.67235861408129659116,-2.5761611,11.247959,2.1308396,-3.210705,9.120116,1.63867151408129659134,-2.4331074,10.354323,1.388637,-3.199834,9.131218,1.59759771408129659136,-2.0057425,9.69951,0.97743285,-3.175524,9.148165,1.54839151408129659154,-2.1332338,9.759963,1.1599907,-3.1429837,9.168573,1.49308931408129659167,-2.546832,9.943718,0.30705637,-3.094386,9.194598,1.4333611408129659168,-3.0101101,9.524733,-0.9427169,-3.0360196,9.226002,1.35419691408129659183,-3.9636009,8.500014,-1.2467805,-2.968612,9.261343,1.25907361408129659206,-4.8704047,7.8116817,-1.2276269,-2.8953528,9.296723,1.16545891408129659206,-5.149329,8.312668,-0.9091981,-2.8140996,9.332378,1.07608031408129659208,-5.285799,10.25257,-0.22325931,-2.7267365,9.367531,0.992316541408129659216,-5.7023897,13.713388,0.64583594,-2.6240718,9.403557,0.926145731408129659242,-6.3380504,17.372328,1.228824,-2.5109348,9.437307,0.896001341408129659243,-6.321291,18.827404,1.1264719,-2.3957531,9.466033,0.908280971408129659249,-6.249465,17.613543,1.5077485,-2.2832563,9.489497,0.952137651408129659275,-5.8634,15.295358,1.9698294,-2.1886477,9.503599,1.0304351408129659275,-5.4144874,12.37503,2.2080526,-2.1164882,9.507395,1.14030051408129659276,-4.895544,9.985617,2.7246015,-2.0542583,9.505357,1.26436111408129659305,-5.269638,8.811261,2.4636335,-2.0125532,9.495637,1.39746381408129659306,-5.2786164,9.3343935,1.6484078,-1.9872965,9.483504,1.51135271408129659308,-4.5034933,9.283517,1.2802993,-1.9567543,9.477668,1.58598271408129659316,-3.6242228,7.829638,1.5813702,-1.8934911,9.483111,1.6296261408129659339,-2.6384103,7.061698,2.1625626,-1.7961245,9.4958515,1.66527311408129659340,-1.429937,7.2191167,2.3894134,-1.6800842,9.509971,1.70533621408129659348,0.8355764,7.826047,1.8890251,-1.5403856,9.526442,1.74484991408129659373,1.5197195,8.136695,1.3485341,-1.378172,9.544641,1.78070091408129659374,1.6316484,7.4854717,1.0283096,-1.218665,9.559667,1.8160471408129659377,1.2210429,6.9731126,0.91817635,-1.0798793,9.568004,1.85944311408129659406,0.46148238,5.945401,0.83018947,-0.97637546,9.568087,1.91541641408129659407,-0.009576807,4.660912,1.0139444,-0.9119933,9.561874,1.97717231408129659408,-0.15442601,3.86484,1.3808558,-0.8667971,9.550563,2.05080751408129659416,-0.06404489,3.514688,1.7597382,-0.8426137,9.534325,2.13471841408129659437,0.02873042,3.4159272,2.12246,-0.83079535,9.514659,2.22518421408129659438,-0.029927522,3.3722332,2.355296,-0.8257245,9.493,2.31765751408129659448,-0.09816227,3.5380316,2.4498668,-0.827041,9.471427,2.4038471408129659482,-0.15801731,3.8402996,2.475006,-0.8340992,9.451855,2.47732261408129659483,-0.13467385,4.285621,2.484583,-0.84312636,9.4336605,2.54275321408129659484,-0.17537527,4.7177744,2.4396915,-0.8547106,9.419704,2.5901791408129659518,-0.21787235,5.1367598,2.6030958,-0.8682367,9.41092,2.61747031408129659519,-0.095169514,5.557541,3.0813377,-0.8850854,9.407116,2.625491408129659520,0.24061728,6.0597243,3.702633,-0.90588695,9.407534,2.61688521408129659521,0.57640404,6.8731546,4.1683054,-0.9298544,9.411675,2.5934781408129659546,0.8050503,7.890092,4.5926776,-0.9575557,9.41672,2.56493191408129659547,0.8487445,9.139266,4.8015714,-0.9852283,9.424958,2.5238611408129659551,0.60693014,10.305243,4.565144,-1.0209404,9.4345875,2.473181408129659580,0.25558102,10.922348,4.0132804,-1.0652996,9.4448185,2.41473821408129659580,-0.27234045,10.565612,3.7834373,-1.111829,9.454804,2.35391351408129659581,-0.84335756,10.772112,3.5889084,-1.1534134,9.462219,2.30357221408129659605,-1.8130093,12.7257805,3.2968156,-1.1801866,9.467515,2.26797251408129659610,-2.373851,14.223952,3.0340521,-1.2021698,9.472984,2.2333251408129659610,-1.9201498,15.571289,2.5881321,-1.2129618,9.478366,2.20446871408129659617,-0.090381116,14.577097,2.207454,-1.207495,9.483681,2.18452721408129659648,2.0452468,12.1523695,3.1741128,-1.1685169,9.489596,2.18002821408129659649,3.4542346,10.070012,5.443816,-1.0976671,9.490552,2.21244761408129659650,3.169923,9.774927,9.1668,-1.0048959,9.478573,2.30591681408129659676,0.6817489,13.976751,10.916363,-0.89109206,9.450889,2.4611091408129659676,-0.6584055,19.276915,6.6486983,-0.7850427,9.409908,2.64721251408129659677,-2.7090392,17.225683,1.8303672,-0.67764103,9.394423,2.73057131408129659709,-4.589086,14.246697,0.95349085,-0.6036606,9.399158,2.73163561408129659710,-4.5394063,12.136807,1.7088615,-0.56333953,9.401213,2.73317241408129659711,-4.453215,9.824008,1.9829975,-0.5528503,9.388285,2.77936481408129659717,-4.554969,8.675988,2.9514523,-0.591842,9.356766,2.87594491408129659734,-4.7961845,8.79091,3.127426,-0.66100204,9.317805,2.985291408129659751,-4.5645456,8.255806,1.590947,-0.76253325,9.283041,3.0682391408129659752,-4.219182,7.5429325,1.2000936,-0.86603016,9.2642,3.0975791408129659768,-3.8720226,7.327454,1.3479356,-0.96418595,9.253856,3.0994981408129659768,-3.3967736,7.739257,0.89662856,-1.0526642,9.242962,3.10321741408129659782,-2.7581203,8.376115,0.56802434,-1.1239102,9.232662,3.10888721408129659799,-1.941099,8.428188,0.694917,-1.1807369,9.226072,3.1073881408129659799,-1.1534066,8.531139,1.06123,-1.2237046,9.228693,3.08287791408129659816,-1.0360907,8.830415,1.3730747,-1.2580123,9.239167,3.03736111408129659817,-0.8750807,9.258378,1.6813282,-1.295616,9.252847,2.9793631408129659830,-0.96546185,9.007586,1.8537107,-1.3419378,9.26624,2.91657421408129659847,-1.4053963,8.367136,1.9937714,-1.4037035,9.275434,2.85768081408129659851,-2.006341,7.702147,2.0147207,-1.4838451,9.279414,2.80376051408129659865,-2.5133133,7.2622123,1.9333179,-1.5764059,9.280922,2.74769021408129659869,-2.7670987,7.1963716,1.5574282,-1.6795009,9.282905,2.67906021408129659887,-2.8275523,7.2388687,1.103727,-1.7843833,9.2879925,2.59221391408129659889,-2.9831753,7.282563,0.7577648,-1.8803381,9.296033,2.4936931408129659897,-3.086126,7.24665,0.5746084,-1.9650037,9.305307,2.39173441408129659921,-3.1789012,7.08564,0.4854244,-2.0398748,9.313367,2.29575661408129659922,-3.13401,7.147889,0.6691794,-2.1102223,9.319388,2.20598861408129659929,-3.0538042,7.225701,0.7374141,-2.1726792,9.322709,2.13001061408129659957,-2.9783869,7.0862384,0.6721721,-2.2270424,9.324225,2.06628011408129659957,-2.8275523,7.0251865,0.57281274,-2.2750614,9.324782,2.0107071408129659958,-2.4714148,7.3460093,0.30166942,-2.320587,9.324939,1.95724061408129659985,-1.8381484,7.7799582,0.15382746,-2.3670833,9.325472,1.89812551408129659986,-1.204882,7.8529816,0.033518825,-2.4158988,9.326967,1.82798291408129660005,-0.931943,8.013991,0.40940848,-2.463605,9.3288145,1.7533571408129660006,-0.46208093,8.380304,0.98700964,-2.5193439,9.328838,1.67214821408129660009,-0.012569559,8.484452,1.1587936,-2.5775352,9.32571,1.59931911408129660017,0.39803603,8.582016,1.2695254,-2.6334088,9.319694,1.54235631408129660034,0.5291186,8.429984,1.4622587,-2.6843286,9.31094,1.50704481408129660051,0.4842273,8.441956,1.4862007,-2.733605,9.298172,1.49726871408129660051,0.3854665,8.564059,1.4437037,-2.7827568,9.283596,1.49716751408129660065,0.09696517,8.537125,1.4652514,-2.8317847,9.267033,1.50781051408129660079,-0.29807812,8.644265,1.5292963,-2.883616,9.24925,1.51871821408129660080,-0.5650316,8.758589,1.4556746,-2.9395604,9.2299185,1.52905261408129660096,-0.6123171,8.983644,1.541866,-2.999491,9.208966,1.53895261408129660097,-0.7799112,8.9998045,1.903989,-3.0599034,9.187277,1.54962661408129660114,-0.9331401,8.975264,2.3942018,-3.1173587,9.1654825,1.56409471408129660117,-1.2791022,9.1668,2.4588451,-3.1726303,9.14324,1.58303671408129660129,-1.7830818,9.098565,2.1625626,-3.2216625,9.121955,1.60661581408129660147,-1.7052702,8.631097,1.6484078,-3.2670033,9.101207,1.6325271408129660151,-0.9235633,8.221688,1.2940661,-3.3082228,9.081255,1.66038421408129660163,0.035314474,8.195353,1.8351556,-3.344005,9.063029,1.68806121408129660187,0.33758244,8.532935,2.6180596,-3.370375,9.04898,1.7108221408129660187,-0.4261679,9.077616,2.7617116,-3.3917828,9.037168,1.73083891408129660189,-1.8513165,9.657611,2.1930888,-3.412676,9.0276375,1.73948811408129660197,-2.7802668,10.663176,1.6717514,-3.4351826,9.021253,1.72826811408129660222,-3.3399115,11.68131,1.8219875,-3.4473267,9.022827,1.69556471408129660223,-3.3435028,11.671733,1.2743138,-3.4404602,9.033696,1.6510471408129660229,-2.5366566,11.072584,0.6476316,-3.411844,9.053831,1.59932151408129660258,-1.9321208,10.8948145,1.0348936,-3.357893,9.082917,1.54776951408129660259,-2.0386627,10.976816,0.6679823,-3.2922165,9.114896,1.50012921408129660260,-2.4115596,10.787076,-0.48123455,-3.2148254,9.151101,1.44659641408129660287,-2.914342,10.110115,-0.96665895,-3.1322255,9.190977,1.37313371408129660288,-3.9396589,8.861539,-0.60693014,-3.0456116,9.231829,1.29150461408129660289,-4.7081976,8.015787,-0.6003461,-2.961123,9.26915,1.21861181408129660297,-5.2462945,8.53892,-0.6979098,-2.8736987,9.305421,1.14951791408129660320,-6.1902084,10.822391,-0.25558102,-2.7853746,9.340698,1.07863061408129660320,-7.079056,14.641741,0.27473465,-2.693248,9.374298,1.0194951408129660330,-7.5962033,17.624916,0.10594343,-2.5999248,9.404122,0.98654961408129660357,-7.7344685,17.682976,0.0796072,-2.5072277,9.43039,0.975695671408129660358,-7.5549035,15.7508545,0.65301853,-2.4264169,9.450008,0.99006961408129660359,-6.927623,13.297995,1.2862848,-2.3648975,9.459753,1.044381408129660382,-6.238691,10.795456,1.8249803,-2.32039,9.459718,1.14014671408129660383,-5.597045,9.255385,2.5031378,-2.2784212,9.455174,1.25652561408129660401,-5.6066217,8.905233,2.585738,-2.2484112,9.444839,1.38204541408129660402,-5.2917843,9.288904,2.4247277,-2.2228448,9.434043,1.49270881408129660409,-4.212598,8.749012,2.4366987,-2.1819386,9.430039,1.57604171408129660417,-2.9418752,7.538144,2.5677812,-2.100573,9.438247,1.63630941408129660436,-1.6244658,7.047931,2.718616,-1.9784868,9.456377,1.68313251408129660437,-0.44771573,7.454347,2.754529,-1.8372121,9.477086,1.72623111408129660473,0.44711718,7.7865424,2.546832,-1.6776536,9.499857,1.76311851408129660474,1.2312182,7.8595657,2.082357,-1.514372,9.5212,1.79549571408129660474,1.6675615,7.4992385,1.6968905,-1.3645909,9.537806,1.82717571408129660478,1.5334862,6.95755,1.46585,-1.2408158,9.547388,1.86498321408129660504,1.2964603,6.3344593,1.5370775,-1.1492946,9.549445,1.91248611408129660505,0.78649527,5.245696,1.6352397,-1.0843873,9.545328,1.97007441408129660510,0.40581718,4.4238863,1.8632874,-1.03582,9.537917,2.03116271408129660534,0.1340753,3.716998,2.03148,-1.0041544,9.526474,2.09961151408129660535,0.077213004,3.393781,2.2337902,-0.9855238,9.512585,2.17022511408129660538,-0.075417355,3.3925838,2.415151,-0.9732113,9.497519,2.2406261408129660549,-0.12629414,3.7547069,2.52289,-0.9634169,9.482238,2.30854461408129660574,-0.14724341,4.292804,2.4313118,-0.954577,9.467325,2.37253931408129660575,-0.34117374,4.7578773,2.3421278,-0.94658166,9.452672,2.43338351408129660578,-0.53211135,4.968567,2.441487,-0.94106567,9.439246,2.48705081408129660608,-0.44711718,5.327099,2.7934349,-0.93901336,9.427756,2.53102141408129660608,-0.2693477,5.761048,3.271078,-0.939371,9.419139,2.56277541408129660609,-0.10354923,6.2500634,3.8109705,-0.94281906,9.413897,2.58070761408129660640,0.12150574,6.827665,4.3065705,-0.9532985,9.411983,2.58383821408129660641,0.5303157,7.7320743,4.5687356,-0.9738442,9.410815,2.58042451408129660641,0.93493575,9.062054,4.6591167,-0.99543613,9.41517,2.55618261408129660649,1.0630256,10.399814,4.5298295,-1.0216734,9.424596,2.51069331408129660678,0.95349085,11.253346,3.9564183,-1.049476,9.437845,2.44869021408129660678,0.56802434,11.237784,3.3824084,-1.0773342,9.452775,2.37798121408129660679,0.22864626,10.993576,3.3943794,-1.1038477,9.466252,2.31127261408129660702,-0.3453636,12.148778,3.2794578,-1.1206832,9.476438,2.26088741408129660702,-1.3239936,13.84088,3.0424318,-1.1318613,9.48582,2.21551681408129660709,-1.7567455,15.483901,2.6683378,-1.141256,9.493048,2.1794421408129660731,-1.0869676,15.036784,2.1996727,-1.1456668,9.498251,2.1543181408129660731,0.80325466,12.613253,2.7850552,-1.128671,9.501358,2.14957761408129660748,2.5067291,10.480618,4.8255134,-1.0830545,9.49637,2.19461851408129660750,2.5169046,9.832388,8.428787,-1.0100553,9.478873,2.30242181408129660764,0.21667525,13.148955,10.78947,-0.91040206,9.448382,2.46366331408129660779,-1.389834,18.739416,6.576872,-0.81097037,9.405807,2.65396141408129660780,-3.6272156,17.154455,1.264737,-0.72015876,9.389739,2.73579341408129660797,-4.8775873,13.815741,0.17357962,-0.66370857,9.399208,2.71749851408129660798,-4.565144,8.841787,1.9237411,-0.6362668,9.402883,2.71133921408129660813,-4.8027687,7.5429325,3.103484,-0.6409531,9.379741,2.78927181408129660828,-4.875193,8.321048,3.1986535,-0.7016744,9.341149,2.90189531408129660829,-4.449624,8.693346,1.1486182,-0.780911,9.303064,3.002261408129660848,-4.1371803,8.554482,0.5590461,-0.8691721,9.283572,3.03812381408129660849,-3.9881415,8.598776,0.76554596,-0.9541302,9.280057,3.02333621408129660859,-3.3991678,8.895058,0.24480712,-1.0373303,9.2798815,2.99635271408129660877,-2.4756045,9.148245,0.14425065,-1.1090549,9.277177,2.97899081408129660878,-1.4251486,9.018958,0.85772276,-1.1638625,9.2754,2.96357681408129660894,-0.75237787,8.863934,1.4341269,-1.2030628,9.27558,2.94730731408129660898,-0.5710171,8.909423,1.7729063,-1.2353591,9.281156,2.9162361408129660914,-0.61171854,8.957307,2.0458453,-1.2667251,9.289955,2.8744661408129660932,-0.6955156,8.752005,2.2493525,-1.3062162,9.298107,2.83008671408129660933,-1.1881226,8.359355,2.1930888,-1.3604772,9.303199,2.7874681408129660953,-2.018312,7.8954787,1.8602947,-1.4340751,9.305605,2.74217631408129660954,-2.7473464,7.3603745,1.38325,-1.5258327,9.307247,2.6865171408129660958,-3.3530796,7.180211,0.8750807,-1.6288072,9.308462,2.62105511408129660980,-3.4931402,7.1586633,0.6015432,-1.7384077,9.311308,2.5392651408129660981,-3.6481647,7.161656,0.54767364,-1.845202,9.315765,2.4458391408129660994,-3.7762547,7.27957,0.6572084,-1.9418174,9.320474,2.35127851408129660998,-3.6966474,7.2191167,0.6727707,-2.0248773,9.324209,2.2648161408129661012,-3.551798,7.3669586,0.7032967,-2.0921519,9.327022,2.19088221408129661034,-3.3063924,7.4992385,0.56922144,-2.1508236,9.329397,2.1228961408129661035,-3.015497,7.0066314,0.33997664,-2.1988087,9.3324995,2.05914861408129661038,-2.6898856,6.522404,0.2741361,-2.238971,9.335561,2.00117441408129661063,-2.1529858,6.6367273,0.32920274,-2.2783403,9.336455,1.95196761408129661064,-1.5825673,7.180211,0.3549404,-2.320075,9.335657,1.90608321408129661087,-1.2773066,7.715315,0.39384618,-2.3637414,9.335514,1.85237381408129661088,-0.98341835,8.1402855,0.55725044,-2.4114594,9.33633,1.78556071408129661090,-0.5189432,8.046912,0.7697359,-2.459201,9.336883,1.71620131408129661098,-0.107140526,7.5962033,0.88405895,-2.514274,9.335017,1.64507321408129661121,0.090979666,7.089231,1.2366052,-2.575511,9.328399,1.58686591408129661122,-0.01616086,6.8121023,1.9081788,-2.640583,9.315906,1.55293441408129661130,-0.15203181,6.985682,2.1703439,-2.7048116,9.298625,1.54595111408129661154,-0.24600422,7.6093717,1.8722657,-2.7649903,9.279634,1.55357971408129661155,-0.3429694,8.41921,1.4814123,-2.8221986,9.261469,1.55909991408129661158,-0.41120413,8.951322,1.1264719,-2.8744361,9.24655,1.55220781408129661187,-0.20649989,9.355942,0.7727286,-2.9228895,9.234677,1.53227211408129661187,-0.14903906,9.4217825,0.44113165,-2.9682338,9.224092,1.50868081408129661190,-0.037110128,9.651626,0.5398925,-3.0113738,9.213255,1.48928521408129661198,0.11372458,9.607333,1.1294646,-3.0489986,9.202253,1.48072031408129661217,0.16938977,9.639654,2.4103625,-3.0815878,9.190515,1.48614751408129661218,-0.25079262,10.148422,2.822764,-3.1113732,9.177551,1.50409111408129661232,-0.98581254,10.002377,2.794632,-3.1395743,9.16431,1.5260711408129661253,-1.0929531,9.688137,2.1398177,-3.1723223,9.149469,1.54724811408129661254,-0.93134445,9.915586,1.4544775,-3.205114,9.133672,1.57279241408129661258,0.22864626,10.058042,1.4431051,-3.2358198,9.117935,1.60096691408129661288,0.21068975,10.056845,2.4492683,-3.2563083,9.106698,1.62323551408129661288,-1.2707225,10.029311,3.1705215,-3.2758489,9.095925,1.64418531408129661292,-2.529474,10.183139,2.818574,-3.300664,9.084108,1.65981191408129661298,-2.8538885,10.852318,2.1859062,-3.3272798,9.0735655,1.66434131408129661316,-3.347094,11.500547,1.6274586,-3.3358898,9.072104,1.65503751408129661318,-3.4476504,11.37186,0.7649474,-3.3215184,9.082121,1.62879841408129661330,-2.718616,10.916363,-0.14903906,-3.287338,9.101421,1.58995691408129661350,-2.321777,10.466252,-0.21068975,-3.2306163,9.129826,1.54266791408129661353,-2.3415294,9.807847,-0.59495914,-3.164507,9.16143,1.49147671408129661358,-2.8287494,8.306683,-1.258153,-3.08234,9.198585,1.43373811408129661388,-3.3638535,7.093421,-1.3533225,-2.992732,9.236601,1.3780941408129661390,-4.020463,7.04015,-0.37828386,-2.8941064,9.274171,1.33578341408129661391,-4.6297874,8.787319,0.97384155,-2.7886531,9.3102255,1.30901981408129661399,-5.42167,12.46182,2.3139958,-2.6789544,9.343473,1.30118611408129661432,-6.3524156,17.149666,2.6024973,-2.56892,9.372859,1.31170451408129661433,-7.037756,19.486408,1.7172412,-2.4519746,9.400423,1.3380011408129661434,-7.4986396,17.89546,1.2904748,-2.3366315,9.426747,1.35902391408129661469,-7.1820064,14.8033495,1.863886,-2.242136,9.445406,1.38835181408129661469,-6.330868,11.59871,2.1212628,-2.169996,9.452512,1.45310851408129661470,-5.2702365,8.983644,2.593519,-2.1152556,9.448213,1.5580011408129661471,-5.084686,8.245032,2.7551277,-2.0702155,9.4361,1.6865971408129661479,-4.8853683,9.289502,2.1027076,-2.0312834,9.421444,1.81126681408129661498,-3.9043443,9.706094,1.7549498,-1.9888663,9.41124,1.90875921408129661499,-2.9741971,8.710106,2.046444,-1.9208632,9.412393,1.97168591408129661513,-2.1404164,7.499837,2.5605986,-1.820248,9.422899,2.01644331408129661531,-1.2384008,7.015011,3.0340521,-1.6957589,9.436588,2.06047821408129661545,-0.5506664,7.0461354,3.0310593,-1.5594939,9.449491,2.1084391408129661546,-0.11492168,7.289746,2.5887306,-1.4214548,9.460755,2.15499021408129661567,0.47644615,7.909844,2.2307975,-1.290567,9.469487,2.19855451408129661568,0.75836337,8.363545,1.7735049,-1.1774529,9.474848,2.23858331408129661570,0.35254622,7.510012,1.0995371,-1.0892186,9.475959,2.27821408129661579,-0.19752164,6.339846,0.8355764,-1.0334861,9.471886,2.32071261408129661603,-0.3597288,5.4551888,1.2360066,-1.0095018,9.462727,2.36814551408129661603,-0.492607,4.8536453,1.7663223,-1.004255,9.449271,2.42345931408129661610,-0.48602295,4.2173862,2.0847511,-1.0040493,9.433546,2.48404741408129661633,-0.5021838,3.743933,2.4690206,-1.0068811,9.415622,2.550031408129661633,-0.52492875,3.5296519,2.7509377,-1.0106237,9.397218,2.61559061408129661639,-0.57161564,3.4344823,2.8257565,-1.0129709,9.380019,2.67572781408129661665,-0.2208651,3.5218706,2.7527335,-1.0107366,9.365302,2.72762541408129661666,0.2813187,3.7732618,2.5851393,-1.0002688,9.3543415,2.76877861408129661671,0.6619968,4.168904,2.552219,-0.98239994,9.345908,2.80344411408129661679,1.0085574,4.560954,2.806603,-0.95917404,9.342622,2.82237391408129661700,1.1994951,5.073912,3.2650926,-0.9325726,9.34417,2.8261641408129661701,1.1947067,5.7347116,3.651756,-0.9095495,9.349345,2.81653451408129661734,1.2258313,6.721721,4.0821137,-0.8979844,9.357102,2.79440051408129661735,1.168969,8.059482,4.51726,-0.9013135,9.366669,2.76107451408129661736,0.93014735,9.508572,4.6938324,-0.91812414,9.37672,2.72113351408129661739,0.45789108,10.551846,4.414908,-0.93968105,9.38662,2.67932751408129661771,0.08319851,10.9343195,4.0336313,-0.9707371,9.396272,2.63403921408129661772,-0.30645782,10.713454,3.762488,-1.0015988,9.40499,2.59101441408129661772,-0.57999533,12.1284275,3.25372,-1.0239199,9.4124775,2.5548551408129661779,-1.2078748,14.276625,2.8048072,-1.0296476,9.421497,2.51904681408129661801,-1.5191209,15.922638,2.4492683,-1.0274026,9.431258,2.48318221408129661802,-1.0097545,14.585477,2.1888988,-1.0277534,9.442031,2.4417581408129661811,0.83378077,11.927315,3.09271,-1.009367,9.44942,2.42075251408129661831,2.285864,9.905411,5.279215,-0.96629435,9.44778,2.44461041408129661852,1.5927427,9.208099,9.227253,-0.90187085,9.431449,2.53077171408129661853,-1.2761095,12.857462,10.125079,-0.8207241,9.398002,2.67849681408129661853,-2.147599,18.724453,5.431845,-0.74723333,9.363568,2.81702451408129661859,-3.4889505,17.022175,2.1380222,-0.67168176,9.360533,2.84598761408129661882,-4.1575313,13.854647,1.8549078,-0.6158533,9.368713,2.8316661408129661882,-4.1066546,10.766127,3.1130607,-0.57003903,9.370371,2.83576941408129661893,-4.0539823,9.001001,3.525462,-0.55337274,9.353019,2.89572381408129661916,-4.299388,9.414599,4.010288,-0.58506376,9.324948,2.9788331408129661916,-4.0683475,9.970653,2.5683799,-0.6509744,9.30507,3.02693081408129661919,-3.6727054,9.9712515,0.688333,-0.72255033,9.303802,3.01456641408129661950,-3.690662,10.013748,0.19812019,-0.787457,9.311196,2.975221408129661951,-3.7223852,9.838972,-0.30466217,-0.86252564,9.320423,2.92509251408129661952,-3.496133,9.434352,-0.50757074,-0.9383698,9.325044,2.8867661408129661959,-2.9311013,9.117719,0.12629414,-1.0063404,9.32672,2.85831571408129661986,-2.1493945,8.789713,1.0456676,-1.0623393,9.329999,2.82718041408129661986,-1.2886791,8.980651,1.8148049,-1.1080532,9.336085,2.789291408129661992,-0.88046765,9.214684,2.107496,-1.1493809,9.34252,2.7507521408129662016,-0.9995792,9.173983,2.0039468,-1.1939938,9.349609,2.70732261408129662017,-1.2862848,8.98903,1.9997569,-1.2513131,9.355517,2.66062261408129662019,-1.5640123,8.759187,1.9728222,-1.3269669,9.360394,2.6062611408129662051,-1.9093759,8.170214,1.6687586,-1.4155056,9.36615,2.53810291408129662052,-2.1936872,7.4208283,1.347337,-1.510629,9.372964,2.45681451408129662053,-2.2828712,6.671443,0.9355343,-1.6031731,9.37933,2.37242651408129662059,-2.421735,6.5307837,0.7302315,-1.6916306,9.384767,2.28800061408129662092,-2.6461914,6.9210386,0.6464345,-1.7679584,9.390488,2.20532351408129662093,-2.8652608,7.1861963,0.7314286,-1.8324592,9.396974,2.1235271408129662093,-2.80361,7.327454,0.55485624,-1.88692,9.403559,2.04523321408129662112,-2.345719,7.4735007,0.45489833,-1.9327084,9.410061,1.97124341408129662114,-2.0937295,7.5830355,0.45729253,-1.9701188,9.415871,1.90536671408129662126,-1.7938557,7.505822,0.38845924,-2.0055416,9.420281,1.84566821408129662144,-1.6729485,7.12694,0.30166942,-2.0411174,9.422016,1.79718851408129662144,-1.7591397,7.152079,0.30945057,-2.0868196,9.420145,1.7539861408129662160,-1.3329718,7.2993226,0.10055647,-2.1476753,9.415137,1.70677071408129662160,-1.0564415,7.533954,-0.007182605,-2.2199926,9.409142,1.64623221408129662175,-0.7020996,8.061875,0.38367084,-2.2994816,9.402113,1.57576411408129662179,-0.4854244,8.422802,0.908001,-2.3802955,9.392623,1.511041408129662197,-0.2753332,8.486847,1.264737,-2.4581504,9.381059,1.45727041408129662202,-0.17238252,8.631696,1.5622166,-2.534161,9.366242,1.42194191408129662210,-0.34835634,8.710705,1.8327614,-2.6044781,9.348526,1.41141991408129662228,-0.6434417,8.620922,1.8872294,-2.6701875,9.32776,1.42597331408129662245,-1.2120646,8.417415,1.174356,-2.7325394,9.305364,1.45390061408129662245,-1.122282,8.219295,1.2240356,-2.7949786,9.282971,1.47815071408129662262,-0.54168814,8.316259,1.3485341,-2.854896,9.260935,1.50167761408129662262,0.01316811,8.520964,1.6567876,-2.9118319,9.23947,1.52440561408129662278,0.33279404,8.762778,2.496554,-2.962629,9.218753,1.55170871408129662279,0.35913026,8.896255,2.991555,-3.0053341,9.199237,1.58506381408129662293,-0.12330139,8.713099,2.8389246,-3.0402808,9.181182,1.62263981408129662309,-1.086369,8.725668,2.3708582,-3.073814,9.163456,1.65926121408129662335,-1.9003977,9.293693,1.7082629,-3.1095667,9.145336,1.69227921408129662335,-1.4275428,9.709685,0.8475474,-3.1500797,9.12683,1.71707511408129662335,-0.46447513,9.889849,0.7990648,-3.186508,9.111037,1.73365631408129662339,-0.110731825,9.965864,1.6663644,-3.2143743,9.10055,1.73729731408129662359,-0.55725044,9.99639,2.2768857,-3.234289,9.094993,1.72941091408129662359,-1.2521675,9.937134,2.1110873,-3.2532115,9.091045,1.71461731408129662397,-1.7645266,10.283695,1.5951369,-3.2698894,9.088412,1.6967521408129662398,-2.5390508,10.805631,1.5011644,-3.2751527,9.090413,1.67576291408129662409,-3.1310172,10.422559,0.97264445,-3.27643,9.095,1.64814661408129662453,-2.7491422,9.578603,-0.22505496,-3.2685857,9.105361,1.60597341408129662454,-2.2080526,9.427169,-0.7356185,-3.24516,9.123868,1.54737031408129662455,-2.3876176,9.500791,-0.24241292,-3.2014601,9.150698,1.47844111408129662456,-2.7964275,9.0081835,-0.5722142,-3.1431546,9.182661,1.40346221408129662457,-3.478775,7.8446016,-0.80205756,-3.0755374,9.21803,1.31885731408129662458,-4.5076833,7.264008,-0.56922144,-3.0093958,9.251757,1.23244511408129662460,-5.355231,8.098986,-0.092176765,-2.9346585,9.285694,1.15502351408129662491,-6.103419,10.513538,1.0905589,-2.8509443,9.319545,1.09022571408129662492,-6.8605847,14.734516,2.4067712,-2.757558,9.352318,1.04900171408129662493,-7.345411,18.890251,1.8267759,-2.652165,9.383181,1.04516261408129662520,-7.3418193,19.457678,0.29807812,-2.5332212,9.414657,1.05709091408129662521,-7.2729864,17.232267,0.45250413,-2.4121814,9.446086,1.05983881408129662521,-6.588843,14.451402,1.5394717,-2.308062,9.470028,1.07788351408129662548,-5.861006,11.680712,2.167351,-2.224687,9.483573,1.13270061408129662549,-5.093664,9.496601,2.5103204,-2.1628323,9.48528,1.23369661408129662552,-4.6591167,8.628104,2.3971944,-2.116683,9.478027,1.3627281408129662560,-4.530428,8.956709,2.0219033,-2.0805235,9.467844,1.4838411408129662588,-3.977966,9.050681,2.0129251,-2.0422838,9.461491,1.57469381408129662588,-3.0232782,7.8308353,2.5318682,-1.9936829,9.459191,1.64903681408129662593,-2.107496,6.4619503,3.0585926,-1.915865,9.465402,1.70470731408129662616,-0.8888474,6.637326,3.4542346,-1.8081875,9.477474,1.75451371408129662617,0.053869538,6.980295,3.13401,-1.6783265,9.492017,1.80423441408129662620,0.56802434,7.32925,2.5617957,-1.5374712,9.507792,1.84620191408129662644,1.3605051,8.16363,2.3385365,-1.4017358,9.522368,1.87883461408129662644,1.0929531,8.021174,1.9321208,-1.27002,9.53512,1.90759541408129662661,0.24061728,6.4721255,1.5005659,-1.1619111,9.542537,1.93916311408129662662,0.017357962,5.5940523,1.7172412,-1.091785,9.543197,1.97631121408129662674,-0.07062895,4.865018,1.9482816,-1.055195,9.537679,2.02229021408129662693,-0.16400282,4.308366,2.1529858,-1.0379485,9.527776,2.0771471408129662694,-0.28311434,3.9438488,2.3139958,-1.0269518,9.515124,2.13967281408129662709,-0.26635495,3.7193923,2.3666685,-1.0184604,9.500895,2.20593241408129662711,-0.24361002,3.9205053,2.4528596,-1.0103952,9.486226,2.2717861408129662722,-0.26396075,4.1760864,2.461838,-1.0014447,9.472249,2.3332381408129662738,-0.20171149,4.2945995,2.396596,-0.99042076,9.459974,2.38711861408129662739,-0.093972415,4.489128,2.3241713,-0.9780558,9.450116,2.43086581408129662759,0.077213004,4.887164,2.4073699,-0.9656351,9.443446,2.46155981408129662760,0.32142156,5.419874,2.7647045,-0.95418656,9.4402895,2.47807651408129662773,0.7116765,6.1106014,3.4105403,-0.9423545,9.438632,2.4888991408129662791,1.0690111,6.7468605,4.137779,-0.9335811,9.43968,2.48822671408129662808,1.2228385,7.3968863,4.6710877,-0.9322308,9.442305,2.4787571408129662809,1.1294646,8.268375,4.88477,-0.94458973,9.446338,2.45862721408129662824,0.92416185,9.479841,4.646547,-0.9738193,9.452193,2.42447831408129662824,0.40641573,10.538677,4.3556514,-1.0174154,9.460085,2.37529951408129662842,-0.21188685,10.710462,3.9881415,-1.0702919,9.467873,2.32039881408129662843,-0.8086416,10.077793,3.5859156,-1.1261287,9.474369,2.26684071408129662856,-1.3066356,11.192294,3.283049,-1.179997,9.477744,2.22494171408129662860,-1.745373,13.554174,3.1908724,-1.2163057,9.480548,2.1932161408129662874,-1.3772645,15.975311,3.2944214,-1.2329944,9.483792,2.16974881408129662889,-0.32441434,16.555305,2.8658595,-1.2279401,9.485528,2.165021408129662892,1.1474211,14.066533,3.3494883,-1.1928465,9.488003,2.17378141408129662921,1.5526398,12.306795,6.7025676,-1.1396888,9.487479,2.2043621408129662921,-0.6847417,15.823877,10.742783,-1.06623,9.4719925,2.30541231408129662922,-2.3708582,19.592949,6.206968,-0.9886586,9.431079,2.49953841408129662943,-4.7979803,18.911201,0.078410104,-0.9091686,9.407932,2.61430981408129662945,-6.3763576,15.28997,0.17178397,-0.8449581,9.415277,2.60940931408129662959,-5.4964886,11.646594,1.7316064,-0.7952575,9.418817,2.612251408129662960,-3.9749734,8.480263,1.5981296,-0.7732392,9.397459,2.69448881408129662995,-3.5853171,5.109226,3.0023289,-0.77077866,9.364383,2.8079581408129662996,-3.466804,4.7578773,4.0934863,-0.94418305,9.24742,3.12476471408129662997,-3.4811692,5.2409077,2.8101943,-0.94418305,9.24742,3.12476471408129663000,-3.2531216,5.153519,1.8411411,-0.94418305,9.24742,3.12476471408129663035,-3.2387564,5.7466826,1.780089,-0.99812037,9.243208,3.12045671408129663036,-3.1022868,7.165846,1.395221,-1.0414749,9.246841,3.09542041408129663037,-2.2762873,8.423999,1.13964,-1.0763502,9.253573,3.06320331408129663041,-1.2425907,9.065046,1.3281834,-1.0980823,9.266964,3.01462841408129663068,-0.60932434,9.821015,1.5454572,-1.108245,9.287058,2.94834541408129663069,-0.6679823,10.988189,1.4574703,-1.1164646,9.312247,2.86460611408129663072,-0.8822633,11.554418,1.158195,-1.1346796,9.339461,2.7671911408129663113,-1.0989386,11.153987,0.89423436,-1.1727642,9.364329,2.66540651408129663114,-1.4694413,10.350733,0.9576807,-1.2364843,9.38299,2.56924081408129663116,-2.380435,9.442732,0.95468795,-1.3166584,9.396498,2.47842841408129663117,-3.204639,8.54311,0.9044097,-1.4199762,9.403653,2.39277321408129663121,-3.5098996,7.827244,0.7428011,-1.5347817,9.406181,2.31054141408129663167,-3.277662,7.386112,0.55964464,-1.6453305,9.40602,2.23384051408129663168,-3.2854433,7.013814,0.4381389,-1.7428753,9.4054785,2.16096121408129663170,-3.3225534,6.6367273,0.61291564,-1.8298638,9.405142,2.0893291408129663171,-3.0071173,6.420052,0.7356185,-1.9123842,9.403623,2.02115151408129663173,-2.4809916,6.269816,0.931943,-1.987012,9.401345,1.95879421408129663233,-2.0925324,6.247071,1.110311,-2.0519242,9.398643,1.90408181408129663234,-2.0033484,6.2351,1.0564415,-2.1075048,9.396109,1.85525381408129663236,-2.0266917,6.341043,0.9235633,-2.1570463,9.394108,1.80783561408129663237,-2.0093338,6.667852,0.55964464,-2.2055266,9.392711,1.75585471408129663239,-1.775899,7.319673,0.3824737,-2.2571545,9.392478,1.69026491408129663242,-1.3132197,7.855376,0.3585317,-2.3083181,9.392866,1.61744341408129663244,-0.7457938,8.296508,0.4902128,-2.3617275,9.393587,1.5341408129663280,-0.26036942,8.778939,0.8631097,-2.4167013,9.392684,1.45170991408129663281,0.16879122,8.760384,0.9103952,-2.4729772,9.388287,1.38378371408129663281,0.6266823,8.65025,1.1258733,-2.531172,9.379214,1.33936481408129663281,0.777517,8.728063,1.287482,-2.5886388,9.365883,1.32271291408129663292,0.7194576,8.972271,1.3994108,-2.6430743,9.3512125,1.31885731408129663312,0.5291186,9.388862,1.2455834,-2.6912155,9.33531,1.33407191408129663312,0.3669114,9.530719,0.93014735,-2.7331429,9.319751,1.35740771408129663320,0.29029694,9.340978,0.943914,-2.772829,9.304618,1.38054371408129663349,0.30585927,8.972271,1.3341689,-2.812741,9.289367,1.40234761408129663350,0.33399114,8.731055,1.8231846,-2.8541124,9.272765,1.42837861408129663352,0.19572599,8.400655,2.5103204,-2.8948674,9.255514,1.45794141408129663388,-0.095169514,8.113351,3.0855274,-2.9370046,9.235975,1.49704771408129663389,-0.40521863,8.08462,3.1830912,-2.9772687,9.215005,1.54594471408129663390,-1.0073603,7.85358,2.6521769,-3.0127888,9.194647,1.59748261408129663425,-1.2850877,7.9846625,1.6759412,-3.046474,9.175602,1.64247441408129663426,-0.87567925,8.853159,1.1707647,-3.0798578,9.158815,1.67361431408129663430,-0.87567925,9.828198,1.4945804,-3.1059165,9.1481695,1.68365051408129663431,-0.05925649,10.160992,2.0386627,-3.1264322,9.141401,1.68243631408129663465,-0.82001406,10.245986,2.360683,-3.132511,9.14255,1.66479491408129663465,-2.1481974,10.722432,2.034473,-3.136778,9.145896,1.63817811408129663466,-3.0502129,11.719019,1.6597804,-3.1409307,9.150211,1.60578571408129663466,-3.858256,12.065579,1.5975311,-3.1372855,9.15859,1.56463241408129663472,-4.0001125,11.109096,1.0133458,-3.125955,9.170816,1.51489661408129663492,-2.9245174,10.313024,0.47884035,-3.1051865,9.187165,1.45747211408129663494,-2.1535845,10.1460285,0.5967548,-3.0700972,9.207855,1.40011581408129663506,-2.095525,9.784504,-0.065242,-3.0128863,9.2347765,1.3460341408129663529,-2.7814639,8.756194,-0.8523358,-2.9394577,9.267263,1.28366681408129663529,-3.5446155,7.5590935,-0.85772276,-2.8554044,9.303297,1.21067991408129663532,-4.4023385,6.8641763,-0.5734113,-2.7621894,9.340029,1.14217971408129663541,-4.9063177,7.668628,0.20350714,-2.6625545,9.375258,1.08889651408129663566,-5.409699,10.590153,1.5286977,-2.5612862,9.408117,1.04763041408129663566,-5.85921,15.291766,2.2942438,-2.449102,9.438928,1.03871821408129663573,-5.865794,19.139847,1.5634137,-2.3234413,9.467834,1.06400351408129663594,-5.9567738,19.244593,0.31064767,-2.1866074,9.497006,1.09362111408129663594,-6.1129956,17.286736,0.39324763,-2.0708313,9.520881,1.11125041408129663600,-5.966949,15.429433,1.1318588,-1.9959185,9.532281,1.14991881408129663629,-5.9148755,13.165715,1.4820108,-1.9381298,9.53604,1.21573711408129663630,-5.441422,10.800842,1.8387469,-1.912134,9.529124,1.30765151408129663633,-5.1810527,9.528324,2.2667105,-1.9013997,9.517007,1.40770941408129663641,-5.3235073,8.799889,2.2224178,-1.8902199,9.504943,1.50116681408129663665,-3.863643,6.7324953,2.0979192,-1.8658661,9.497534,1.57664551408129663665,-2.734777,5.925649,2.3953989,-1.8022918,9.500237,1.63328741408129663672,-1.2401965,6.407482,2.834735,-1.7014041,9.511198,1.67711381408129663693,-0.076015905,6.9988503,2.6868927,-1.5798806,9.524802,1.71828691408129663695,1.0785879,7.740454,2.4121583,-1.4358506,9.541127,1.75373641408129663701,1.614889,8.098388,2.0679917,-1.2835023,9.556817,1.78613111408129663733,1.186327,7.2143283,1.3533225,-1.1461499,9.568113,1.81877321408129663734,0.32022446,5.73531,1.0001777,-1.0457196,9.572572,1.85545961408129663734,-0.20051439,4.553173,1.3245921,-0.9888816,9.5693,1.90289881408129663741,-0.36631286,3.7654808,1.6256629,-0.9538184,9.56185,1.95745921408129663766,-0.20350714,3.345897,1.8291701,-0.94012004,9.548904,2.02608081408129663767,-0.2753332,3.0986955,1.9937714,-0.9351702,9.532491,2.10415271408129663773,-0.25139117,3.1848867,2.0745757,-0.93193424,9.514627,2.18489381408129663798,-0.3429694,3.37762,2.190096,-0.9289228,9.4967165,2.26271341408129663799,-0.2837129,3.6541502,2.3415294,-0.92623603,9.479894,2.33326131408129663801,-0.25917232,4.012682,2.4277205,-0.9221546,9.465369,2.3930731408129663828,-0.24001873,4.3418846,2.5432408,-0.91655004,9.452192,2.44671061408129663829,-0.1328782,4.8279076,2.8652608,-0.91181487,9.442689,2.4848811408129663832,0.16519992,5.415684,3.321955,-0.90871996,9.437842,2.5043491408129663841,0.623091,6.2584434,3.8229415,-0.9084369,9.43819,2.50313971408129663867,1.0241197,7.1431007,4.2461166,-0.91174704,9.442875,2.48419361408129663867,1.4083891,8.238448,4.4861355,-0.9209433,9.450581,2.45127841408129663876,1.5161282,9.5798,4.559757,-0.9293523,9.459254,2.41437581408129663893,1.2246342,10.863091,4.3939586,-0.94623953,9.469422,2.36750441408129663894,0.7613561,11.480197,4.012682,-0.97064626,9.480921,2.31092481408129663901,0.19752164,11.62744,3.7738605,-0.99833167,9.492839,2.24938821408129663930,-0.61112,13.3464775,3.429694,-1.0217863,9.50269,2.1966371408129663930,-1.3844471,15.367184,3.1040826,-1.0354887,9.510896,2.15430451408129663933,-1.447295,16.883911,3.0388405,-1.0441313,9.516155,2.12673041408129663941,-0.61411273,15.976508,2.7712884,-1.0528412,9.51951,2.10733411408129663965,1.1611878,13.245322,3.4476504,-1.0386589,9.518612,2.11839681408129663966,2.486977,11.159374,5.671864,-0.9942039,9.51366,2.16152641408129663972,1.8016368,11.3551,9.543886,-0.9245351,9.498499,2.25701981408129663995,-0.5883751,16.397888,10.204087,-0.83627063,9.463909,2.43011761408129663995,-2.4361002,19.552847,5.0158525,-0.74860567,9.421786,2.61532931408129664001,-4.953005,16.882114,-0.029927522,-0.67779243,9.40221,2.7035961408129664031,-5.4432178,12.864644,0.035314474,-0.63855964,9.400882,2.7177311408129664032,-4.5441947,9.900622,0.13946225,-0.59822047,9.394424,2.74905321408129664033,-3.7792473,7.2340803,0.8499416,-0.573881,9.374381,2.82170871408129664044,-3.9121256,5.619191,3.4398694,-0.5959968,9.338022,2.93539361408129664081,-4.052785,6.235698,4.2042184,-0.6658986,9.2971,3.04810211408129664082,-4.0013094,6.585252,2.7299886,-0.75349575,9.266646,3.11959821408129664083,-3.5625722,6.244078,2.0757728,-0.82971275,9.247054,3.15815781408129664084,-3.4129345,6.26802,2.1045034,-0.9020576,9.241246,3.15532111408129664109,-3.2375593,6.8761473,1.4454993,-0.96530664,9.237458,3.1476891408129664110,-2.5917234,7.8266454,0.89782566,-1.0148044,9.234226,3.14159821408129664114,-1.5107412,8.5862055,0.9576807,-1.049668,9.238671,3.11697941408129664121,-0.55605334,9.300875,1.2683283,-1.0694071,9.254204,3.0637361408129664154,-0.27473465,9.985018,1.4311341,-1.0810555,9.2743225,2.99811051408129664155,-0.44592008,10.4967785,1.3084313,-1.0883222,9.299518,2.91632251408129664156,-0.7410054,10.371682,1.0193313,-1.105953,9.325022,2.82687471408129664188,-0.8607155,9.830592,1.0205284,-1.1448681,9.347169,2.7368041408129664189,-1.2246342,9.461287,1.1971009,-1.206489,9.364519,2.6496361408129664189,-1.8770541,8.988432,1.5047557,-1.2868085,9.379019,2.55900651408129664214,-2.1206641,8.686164,1.5472529,-1.3769046,9.391349,2.4651751408129664215,-2.3295584,8.393473,1.5490485,-1.467594,9.401888,2.37088041408129664216,-2.4013844,7.89907,1.3868413,-1.5491573,9.41141,2.27944251408129664221,-2.4277205,7.5549035,1.2779051,-1.6194947,9.419735,2.1945881408129664249,-2.4720132,7.2394676,1.0217255,-1.6815343,9.426055,2.11950971408129664250,-2.2278047,6.9743094,0.82599956,-1.7359481,9.430934,2.05289821408129664253,-1.9363106,6.992266,0.8367735,-1.77932,9.43525,1.9951071408129664285,-1.8058267,7.017405,0.88166475,-1.8155389,9.439361,1.94234051408129664286,-1.6280571,7.079654,0.84455466,-1.844618,9.4427185,1.89811621408129664287,-1.4562732,7.1407065,0.79367787,-1.8734683,9.4446945,1.85963541408129664320,-1.1947067,7.0928226,0.5494693,-1.9094186,9.445326,1.81942731408129664322,-0.973243,7.076063,0.47105917,-1.955953,9.445494,1.76840621408129664322,-0.8882488,7.382521,0.6135142,-2.0124295,9.4454155,1.70430561408129664323,-0.65660983,7.743447,0.8834604,-2.0750837,9.44467,1.63176071408129664349,-0.16280572,8.297106,1.2300211,-2.1364639,9.44302,1.5605461408129664350,0.26994625,8.393473,1.287482,-2.1961918,9.439703,1.49637661408129664355,0.7236475,8.4587145,1.441908,-2.2567348,9.432788,1.44915951408129664378,0.8194155,8.884284,1.816002,-2.3197818,9.421462,1.42304781408129664378,0.50517654,9.233239,2.1877017,-2.3820162,9.406709,1.41782981408129664381,0.17836803,8.892664,1.9829975,-2.4429226,9.389144,1.43057291408129664404,-0.14903906,8.610746,1.4850036,-2.507197,9.369789,1.44617561408129664404,-0.47285482,8.567651,1.292869,-2.5742648,9.348955,1.46307171408129664422,-0.6362591,8.674791,1.216853,-2.6434813,9.327321,1.47766841408129664425,-0.801459,8.504205,1.6807296,-2.7121685,9.304919,1.49433371408129664448,-0.9983821,8.537125,2.6491842,-2.7777314,9.281737,1.51788181408129664449,-1.258153,8.677784,2.4157495,-2.8420672,9.256759,1.55095291408129664453,-1.6645688,8.353969,1.9524715,-2.9096854,9.230907,1.57938751408129664480,-1.7130513,8.275558,1.2114661,-2.9830525,9.203983,1.59953371408129664482,-1.0606314,8.3868885,0.24181437,-3.056536,9.178197,1.60894271408129664482,-0.15263036,8.943541,0.492607,-3.1210365,9.15717,1.60492891408129664516,0.6488287,9.387665,1.5783775,-3.1669285,9.143313,1.59398891408129664517,-0.10055647,9.414599,2.5725696,-3.1960988,9.134927,1.58381761408129664517,-1.6938977,9.549872,2.4396915,-3.2235253,9.126404,1.57735221408129664521,-3.0346506,10.226832,1.7705121,-3.2578971,9.115597,1.56920161408129664538,-3.9055414,11.265318,1.5221137,-3.2902968,9.107724,1.54716461408129664564,-4.531027,11.492168,1.258153,-3.3099785,9.106909,1.5095221408129664565,-4.2999864,10.511144,-0.25139117,-3.3163023,9.113284,1.45622351408129664566,-3.3806129,9.937733,-0.7637503,-3.304889,9.128712,1.38374281408129664575,-3.007716,10.38904,0.40521863,-3.2638922,9.155404,1.30229961408129664605,-2.9652188,10.587758,-0.049081136,-3.1926637,9.191309,1.22356861408129664606,-3.3859997,9.977836,-1.264737,-3.109544,9.2319,1.12832711408129664609,-4.6124296,8.8884735,-1.2389994,-3.0094686,9.277612,1.01952251408129664631,-5.6886234,8.371924,-1.2569559,-2.9068482,9.320933,0.91695471408129664632,-6.3763576,9.088389,-1.3958195,-2.802962,9.361824,0.818558631408129664633,-6.8719573,11.377845,-0.9283517,-2.6952627,9.401628,0.717885851408129664665,-7.1460934,14.94341,0.16938977,-2.5812783,9.439768,0.63102181408129664665,-7.5088153,18.080412,0.8038532,-2.4631917,9.474951,0.573074041408129664666,-7.7464395,18.52394,0.6733692,-2.346079,9.505079,0.565482261408129664673,-7.832032,16.50383,0.8936358,-2.2496684,9.526309,0.59901161408129664702,-6.8013287,13.545197,2.1458032,-2.3033283,9.513685,0.595705571408129664703,-5.0104656,10.579977,3.5775359,-2.1577537,9.538293,0.73174481408129664703,-4.1545386,9.692925,3.83192,-2.1299517,9.536415,0.8309681408129664743,-4.1078515,10.727221,2.7509377,-2.1049206,9.532645,0.931881671408129664744,-3.4141316,10.475829,1.9147629,-2.0768266,9.529619,1.02153851408129664745,-2.6503813,8.610746,1.4089876,-2.0239964,9.533179,1.09192781408129664778,-1.5472529,7.3609734,1.3078327,-1.9419004,9.542636,1.15650871408129664779,-0.736217,6.6175733,1.2072762,-1.8390454,9.554568,1.22413911408129664779,-0.41299978,6.053739,0.9923966,-1.7266651,9.567147,1.28792151408129664779,0.20350714,6.364985,0.6853402,-1.6172512,9.578089,1.34726631408129664782,0.91697925,6.6510925,0.46806642,-1.5094798,9.5875225,1.40402041408129664805,1.1091139,6.179435,0.57281274,-1.4078221,9.594298,1.46215061408129664807,0.8996213,5.934029,0.9983821,-1.3209918,9.595684,1.53238381408129664823,0.46507367,5.2008047,1.3623008,-1.2516508,9.590615,1.61983471408129664824,0.2088941,4.642956,1.7495629,-1.1941016,9.580927,1.71766731408129664840,0.20051439,4.4795513,2.0919337,-1.141457,9.569125,1.81640471408129664893,0.18195933,4.2299557,2.3774424,-1.0896072,9.556108,1.91413971408129664894,0.11911154,4.092888,2.553416,-1.0385511,9.543718,2.00231241408129664895,0.18076223,4.281431,2.6880898,-0.98975444,9.532567,2.0786921408129664896,0.3172317,4.6710877,2.6844985,-0.9435398,9.523179,2.1422441408129664896,0.3393781,5.2026005,2.5480292,-0.9005365,9.515841,2.19276261408129664897,0.34117374,5.777209,2.4235306,-0.86373866,9.510811,2.2290921408129664902,0.45130703,6.3422403,2.4019828,-0.83524,9.508082,2.25146911408129664951,0.53689975,6.806117,2.6779146,-0.8108998,9.506353,2.26761411408129664952,0.65421563,7.043741,2.9873652,-0.7964605,9.505844,2.27486281408129664954,0.7469909,6.967127,3.2728736,-0.7965633,9.506318,2.27284431408129664955,0.705691,6.9449806,3.6164417,-0.81646764,9.507924,2.25902221408129664981,0.5907693,7.33763,4.0617633,-0.85846746,9.510779,2.2312591408129664981,0.36870706,8.302493,4.5406036,-0.9206087,9.514338,2.190951408129664981,0.0796072,9.523536,4.665102,-0.98946774,9.517039,2.14879421408129664982,-0.5057751,10.497377,4.7842135,-1.0692372,9.51921,2.10042381408129665007,-1.441908,10.6715555,4.9302597,-1.1526126,9.5189705,2.05695651408129665008,-2.3199813,10.401609,4.747702,-1.2323605,9.515108,2.0284021408129665014,-2.622848,12.123639,3.8720226,-1.297138,9.509169,2.01582671408129665023,-2.80361,14.511256,3.4302924,-1.336377,9.5051565,2.0091061408129665055,-2.961029,15.377359,2.9532478,-1.352832,9.501723,2.01432561408129665057,-1.9949685,14.272435,2.373851,-1.364263,9.498683,2.02093841408129665058,-0.017357962,12.140997,2.212841,-1.344354,9.495804,2.04763871408129665092,-0.13946225,14.358027,9.929952,-1.2939858,9.490495,2.10391641408129665094,-0.6607997,19.313427,7.3430166,-1.2160428,9.457591,2.2903321408129665095,-2.384625,18.236635,1.2659341,-1.1125382,9.4293585,2.45354131408129665095,-3.6415808,14.082096,0.35673606,-1.020106,9.422796,2.5180721408129665102,-3.470994,10.931925,2.2409728,-0.92873967,9.416948,2.57466941408129665126,-3.2423477,8.506598,1.9979613,-0.839544,9.410097,2.62975761408129665126,-3.347094,6.114791,3.99293,-0.78802025,9.390529,2.7142911408129665136,-3.8953662,5.7227407,5.494693,-0.80133903,9.354256,2.83304551408129665167,-3.6613328,6.7947445,4.0479965,-0.85992974,9.315757,2.940681408129665174,-3.3967736,6.7630215,2.3720553,-0.9227181,9.293196,2.99257331408129665175,-3.41473,6.429629,1.9806033,-0.9779145,9.289448,2.98667241408129665204,-3.4063504,6.8132997,1.6759412,-1.0295634,9.289585,2.96884061408129665208,-2.9005754,8.054693,0.7493851,-1.0818692,9.287517,2.9566861408129665209,-1.8321629,9.4774475,0.2789245,-1.1235559,9.285508,2.94743231408129665210,-0.6314707,10.667366,0.8559271,-1.1484368,9.293834,2.9113861408129665240,-0.30166942,11.393407,1.3365631,-1.1584079,9.314018,2.84210281408129665240,-0.44951138,11.4915695,1.2252327,-1.169279,9.339584,2.75233771408129665241,-0.6560113,10.852917,0.88046765,-1.1909719,9.36453,2.65660761408129665242,-1.1318588,9.725846,0.84335756,-1.2366304,9.38471,2.56287841408129665254,-1.8680758,9.002198,1.2024878,-1.3157182,9.39558,2.48240421408129665278,-2.7281928,8.337808,1.5131354,-1.4241791,9.39784,2.41303091408129665279,-3.2004492,7.5644803,1.4083891,-1.5491385,9.394651,2.34757331408129665282,-3.0202854,7.08983,1.0163386,-1.6732883,9.389408,2.28243351408129665309,-2.7431567,6.9048777,0.6877344,-1.7827489,9.385065,2.2164751408129665310,-2.8149827,6.5188127,0.51116204,-1.8828002,9.381203,2.14907031408129665317,-3.027468,6.1848216,0.7332243,-1.970838,9.378324,2.0816411408129665334,-2.7150247,6.323685,0.9648633,-2.0531502,9.374217,2.01966761408129665335,-2.392406,6.5230026,1.1264719,-2.1274934,9.368532,1.96845411408129665353,-2.2254105,6.533178,1.1725603,-2.1929295,9.36193,1.92761591408129665354,-2.2146366,6.694188,0.83856916,-2.2509627,9.3551655,1.8932641408129665366,-2.2439656,6.8605847,0.26755205,-2.3072307,9.348475,1.8582491408129665385,-1.9883845,7.1221514,-0.037708677,-2.3638425,9.342262,1.81790461408129665385,-1.596334,7.305308,0.005386954,-2.4233804,9.337004,1.76578751408129665402,-1.2138603,7.9888525,0.4441244,-2.4860485,9.332894,1.69912561408129665403,-0.6757634,8.6334915,0.8475474,-2.5482495,9.329883,1.62176241408129665418,-0.1412579,8.37372,0.8972271,-2.6059775,9.326634,1.54699441408129665434,0.43634325,7.9427643,1.0432734,-2.6630557,9.319786,1.49000361408129665435,0.6386533,7.3579803,1.2677298,-2.718114,9.31036,1.44895611408129665452,0.7230489,6.871359,1.5705963,-2.7742505,9.295755,1.43627321408129665455,0.78769237,6.7492547,1.8261774,-2.8274937,9.277742,1.44885271408129665474,0.7787141,6.905476,1.9991584,-2.876738,9.258742,1.47326291408129665474,0.7990648,7.307702,2.2493525,-2.9226048,9.241279,1.49250591408129665482,0.7338228,7.759608,2.4486697,-2.9656448,9.226509,1.49895441408129665504,0.3573346,8.306085,2.557606,-3.0073633,9.212941,1.49929511408129665504,-0.29029694,8.744822,2.7503393,-3.048464,9.199986,1.49582841408129665515,-1.2006922,8.9519205,2.4103625,-3.0900202,9.186051,1.49620891408129665544,-1.6609775,9.4774475,1.9440918,-3.1336257,9.170394,1.50154331408129665545,-1.9416976,9.897031,1.6753427,-3.171639,9.155631,1.51178631408129665546,-1.5412674,9.58818,0.6937199,-3.2012706,9.143045,1.52544841408129665578,-0.99538934,9.546281,0.86251116,-3.2254736,9.132843,1.53554431408129665579,-0.6123171,9.845556,2.0871453,-3.2472281,9.123439,1.54555831408129665579,-1.2826935,10.105327,2.783858,-3.2656958,9.114695,1.55818871408129665583,-2.2864625,10.490194,2.4079683,-3.2874796,9.105802,1.564371408129665607,-2.6940753,10.923545,1.6819267,-3.309573,9.099478,1.55454591408129665608,-3.1268275,11.717223,0.89184016,-3.322751,9.099879,1.52378311408129665615,-3.3620577,13.037026,0.7739257,-3.325468,9.107168,1.47346991408129665633,-3.2243912,13.302185,0.5255273,-3.3184395,9.118803,1.41625451408129665634,-2.6384103,12.003929,-0.14844051,-3.2984223,9.13697,1.34409521408129665653,-2.1338322,11.07019,0.076614454,-3.2651904,9.160457,1.26292381408129665666,-2.343325,10.939108,0.931943,-3.2153816,9.18746,1.19260121408129665667,-2.8125885,10.410587,0.25438392,-3.1537402,9.215455,1.14004041408129665683,-3.7008374,8.961497,-0.6326678,-3.0896463,9.243683,1.08572961408129665684,-4.9661727,7.45734,-0.94331545,-3.0268674,9.271155,1.02671621408129665702,-6.0106435,7.1885905,-0.93134445,-2.970613,9.295681,0.967564341408129665703,-6.6480994,8.394072,-0.25019407,-2.909834,9.320579,0.911083161408129665716,-6.985682,11.345523,1.0115502,-2.8406112,9.34638,0.864013971408129665734,-7.1227503,15.823877,1.7184383,-2.7579863,9.3724985,0.84864691408129665735,-7.5112095,18.76755,1.1186907,-2.6558623,9.399544,0.874860351408129665749,-7.820061,18.319834,0.7350199,-2.5468092,9.425419,0.91957921408129665767,-7.1568675,16.096817,1.3623008,-2.4473486,9.446272,0.97408471408129665768,-6.143522,13.091495,1.6813282,-2.3600469,9.459534,1.05725751408129665783,-5.241506,10.143036,2.2619221,-2.2860322,9.464086,1.17283681408129665784,-4.720767,8.65863,2.7659016,-2.2310772,9.458737,1.31337861408129665802,-4.5076833,9.185355,2.380435,-2.1957798,9.447128,1.44937651408129665803,-3.6948519,9.415198,1.7878702,-2.1629093,9.438407,1.55200151408129665818,-2.7844565,8.449138,1.958457,-2.104315,9.438264,1.63138251408129665832,-2.0572178,7.398083,2.4211364,-2.0238478,9.446387,1.68529181408129665834,-1.174356,7.0036387,2.7365725,-1.9121342,9.460857,1.73387311408129665851,-0.4429273,6.627749,2.6390088,-1.7762384,9.477617,1.78610371408129665870,-0.017357962,6.4487824,2.4067712,-1.6305354,9.4941435,1.83657251408129665870,0.6404489,6.4164605,2.1092918,-1.4910095,9.507488,1.88545431408129665874,0.9415198,5.9448028,1.644218,-1.3692399,9.5158415,1.93503061408129665882,0.8367735,5.4282537,1.3299791,-1.2630337,9.520838,1.98211431408129665899,0.78769237,5.0254292,1.1947067,-1.1823597,9.520141,2.03453951408129665903,0.6218939,4.4035354,1.2240356,-1.1278324,9.514672,2.0903151408129665918,0.44951138,3.6870706,1.5239093,-1.0937954,9.505382,2.1498231408129665942,0.11671733,3.086126,1.8357542,-1.0737184,9.492874,2.21424321408129665943,0.11133038,2.9352913,2.110489,-1.0622822,9.477967,2.28255751408129665944,0.2693477,3.1902738,2.3876176,-1.0539303,9.46176,2.3526031408129665976,0.2777274,3.7642837,2.622848,-1.0442841,9.445576,2.42094181408129665977,0.18076223,4.350863,2.8209682,-1.03232,9.430417,2.48434141408129665978,0.005386954,4.720767,2.9017725,-1.0200506,9.4169855,2.53974371408129665983,0.026934769,5.171476,2.9239187,-1.0112993,9.40625,2.58266261408129666009,0.25917232,5.6868277,3.1004913,-1.0071516,9.399466,2.60884861408129666009,0.6913257,6.229114,3.6248214,-1.0069687,9.397229,2.616961408129666015,1.1336545,6.6612678,4.040814,-1.006061,9.396669,2.61932091408129666037,1.3024458,7.065289,4.2173862,-1.0116234,9.399652,2.60644341408129666037,1.2814964,7.961319,4.365228,-1.0287277,9.4064,2.57522231408129666043,1.079785,9.504981,4.0785227,-1.0584173,9.416757,2.52484461408129666068,0.4866215,11.079767,3.9863458,-1.0953825,9.430499,2.45687061408129666069,-0.4357447,11.903971,4.148553,-1.1365249,9.444068,2.38500831408129666083,-1.3575124,11.848306,3.763685,-1.1789196,9.4548645,2.3207951408129666084,-2.2278047,13.257892,3.3704374,-1.224521,9.460309,2.2745351408129666100,-2.8072014,14.698603,3.4823663,-1.2613996,9.461319,2.25004631408129666118,-2.2888567,16.098013,3.7642837,-1.291926,9.455201,2.25842791408129666118,-0.9624691,15.476718,3.3991678,-1.3035163,9.444107,2.29784271408129666134,1.033098,12.170326,3.5930982,-1.2796949,9.435273,2.34699341408129666135,2.5025394,9.363124,5.5120506,-1.219349,9.4239235,2.42347861408129666151,2.3660698,8.525154,9.18715,-1.1350311,9.404556,2.53700731408129666166,-0.074818805,11.811195,11.402386,-1.0241687,9.371184,2.70228861408129666167,-1.0630256,17.584215,6.211158,-0.904941,9.330758,2.8789621408129666180,-2.6264393,15.629349,0.12689269,-0.78641707,9.323981,2.93518421408129666183,-3.6709096,12.150574,1.1378443,-0.7081122,9.339635,2.90519881408129666199,-3.6050692,11.207258,2.5863364,-0.6667834,9.337778,2.9209041408129666216,-3.9324763,10.90918,2.5917234,-0.645101,9.322929,2.97274761408129666217,-4.5753193,10.444106,2.9071593,-0.66453606,9.294909,3.05507161408129666233,-4.461595,10.634445,2.0506337,-0.7343904,9.266843,3.12356881408129666234,-4.286818,9.700109,0.60693014,-0.83140975,9.253983,3.13734771408129666252,-4.004901,8.44016,0.6691794,-0.9355793,9.254391,3.10666251408129666267,-3.7457285,8.0924015,1.1522095,-1.036479,9.251538,3.08304331408129666268,-3.3033998,8.527548,0.5530606,-1.1244816,9.241148,3.08335831408129666280,-2.7850552,8.917204,0.18794483,-1.1979434,9.231817,3.08364531408129666283,-2.0458453,8.461707,0.5626374,-1.2563577,9.229205,3.06818131408129666299,-1.3479356,8.13849,1.204882,-1.3028388,9.232496,3.03875681408129666313,-1.2910733,8.470087,1.7232267,-1.3472341,9.238154,3.0019771408129666314,-1.553837,9.081207,2.005144,-1.3985773,9.243648,2.96131131408129666329,-2.0907366,8.746617,2.184709,-1.4620379,9.247417,2.9185791408129666349,-2.415151,8.124125,2.4636335,-1.5381165,9.248559,2.87554381408129666349,-2.8904,7.6015906,2.2343888,-1.625199,9.247701,2.83004051408129666364,-3.3213563,7.180211,1.7585411,-1.7214534,9.250006,2.76484871408129666365,-3.50152,7.0862384,1.2270284,-1.8199433,9.257813,2.67415211408129666381,-3.5051112,7.3346367,0.81043726,-1.9118714,9.269266,2.5682361408129666383,-3.3321302,7.504027,0.55844754,-1.9918373,9.282275,2.45811871408129666399,-3.457826,7.369353,0.25378537,-2.0571785,9.295603,2.35163571408129666411,-3.50571,7.264008,0.23523031,-2.1152966,9.308022,2.24870371408129666415,-3.21661,7.2149267,0.30346507,-2.1635165,9.319364,2.15384861408129666430,-2.8778305,6.9892735,0.41479546,-2.2000651,9.32947,2.0714941408129666435,-2.6527755,6.9437833,0.52852005,-2.2281034,9.337347,2.00496631408129666448,-2.2242134,7.074866,0.54049104,-2.2525096,9.342648,1.95231311408129666466,-1.5466543,7.5124063,0.56084174,-2.2769039,9.3469095,1.90299461408129666466,-1.0450691,7.8547773,0.27593175,-2.3002148,9.351887,1.8497681408129666480,-0.3417723,7.9451585,0.29747957,-2.3336241,9.357413,1.77858851408129666483,-0.07062895,8.04392,0.7044938,-2.381128,9.360706,1.69640121408129666496,0.60573304,8.206126,1.0085574,-2.443038,9.35825,1.62021821408129666512,0.7625532,8.028955,1.2964603,-2.5103652,9.350286,1.56225571408129666517,0.43514615,8.2833395,1.8866309,-2.5793378,9.336917,1.52950911408129666530,0.18435353,8.517971,1.9141643,-2.6474867,9.318378,1.52612011408129666550,0.051475335,8.876503,1.54845,-2.7153552,9.297386,1.53487681408129666551,-0.2861071,8.666411,1.42455,-2.7827551,9.273902,1.55609261408129666565,-0.36391866,8.514978,1.5664065,-2.8547974,9.24864,1.57582141408129666565,-0.20111294,8.421604,2.0308816,-2.9320986,9.221116,1.59505151408129666582,0.08798691,8.403049,2.4899697,-3.009752,9.191671,1.62018071408129666583,-0.011971008,8.3312235,2.8167782,-3.0793922,9.163011,1.65134981408129666596,-0.1412579,8.412626,3.3303347,-3.1435564,9.134969,1.68547011408129666611,-0.3417723,8.583213,2.992752,-3.1956909,9.109201,1.72638711408129666615,-0.63206923,8.941146,2.4911668,-3.2407527,9.085957,1.76445711408129666630,-0.7793127,9.542689,1.9542671,-3.2803936,9.066063,1.79330271408129666647,-0.16938977,9.482236,1.3006501,-3.313433,9.051156,1.80779831408129666648,0.45070848,9.681553,1.42455,-3.340005,9.041159,1.8089241408129666665,0.97743285,10.035296,2.2050598,-3.3593109,9.035229,1.80279291408129666665,0.65301853,10.162787,2.6611552,-3.3718915,9.031644,1.79726221408129666680,-0.6781576,10.396821,2.621651,-3.3837643,9.028861,1.78891531408129666683,-2.154183,11.139622,2.1535845,-3.399207,9.025666,1.77570331408129666697,-3.2632968,12.039244,1.8926164,-3.414148,9.024483,1.75291511408129666715,-4.088698,11.97041,1.6280571,-3.4232478,9.027898,1.71722191408129666715,-4.0659533,10.543466,0.29807812,-3.425494,9.035579,1.67173851408129666731,-3.9534256,9.607333,-0.18016368,-3.4264004,9.045626,1.61457231408129666746,-4.26946,9.103952,0.38965634,-3.412058,9.060428,1.5610581408129666747,-4.557363,8.160038,-0.29747957,-3.3837695,9.080123,1.50727861408129666765,-5.08289,7.1844006,-1.2755109,-3.3427534,9.107143,1.43399481408129666765,-5.959168,7.192182,-1.7232267,-3.2884223,9.140834,1.34232131408129666779,-6.452972,8.788516,-1.0480618,-3.2224023,9.1783905,1.24243521408129666784,-6.862979,11.971607,-0.08140286,-3.1406705,9.219071,1.1468641408129666798,-7.511808,16.476896,-0.3429694,-3.0491848,9.259973,1.06101781408129666813,-8.522161,19.328989,-1.3180081,-2.939355,9.304124,0.98177351408129666816,-9.17099,18.752584,-1.0372878,-2.8298962,9.345694,0.905598041408129666831,-8.900445,15.900492,0.39025488,-2.738397,9.376611,0.866465451408129666850,-7.524976,12.120048,1.7328035,-2.6634238,9.395127,0.89896841408129666850,-6.39611,9.127894,3.1142578,-2.5929596,9.404081,1.00511408129666865,-6.6959834,7.817667,3.316568,-2.5192542,9.407389,1.1509921408129666866,-5.8759694,9.28232,2.066196,-2.4679518,9.40015,1.3102591408129666880,-4.087501,9.97185,1.6256629,-2.418194,9.395012,1.43403571408129666884,-2.4025815,8.863934,2.3702598,-2.33673,9.403837,1.50928641408129666901,-1.0881647,7.3992805,3.0573955,-2.209426,9.425761,1.56328051408129666920,0.13946225,6.843227,3.5302503,-2.0528421,9.451296,1.62149181408129666920,1.2665327,7.0808516,3.4638114,-1.8803146,9.476698,1.68137091408129666924,2.243367,7.455544,2.9430726,-1.6995022,9.501198,1.73474181408129666952,2.5246856,7.6003933,2.0458453,-1.5138954,9.524851,1.77643221408129666953,2.405574,7.6572556,1.2838906,-1.3433892,9.544692,1.80680861408129666955,1.7896658,7.235876,0.78170687,-1.2036846,9.557562,1.83699741408129666965,0.87807345,6.3380504,0.7020996,-1.1016215,9.561309,1.88100611408129666987,0.049081136,5.5467668,1.002572,-1.0382183,9.555507,1.94545081408129666988,-0.47165772,4.8165355,1.3994108,-0.99677724,9.544574,2.0193981408129666996,-0.66139823,4.3448777,1.7860745,-0.9773773,9.527129,2.10925441408129667018,-0.6793547,4.2305546,2.0069396,-0.9702751,9.505615,2.20731661408129667019,-0.7739257,4.334702,2.2014685,-0.96769565,9.482268,2.30663561408129667024,-0.82121116,4.4119153,2.396596,-0.9677659,9.458557,2.40197591408129667053,-0.8355764,4.490924,2.586935,-0.97047585,9.435761,2.4889791408129667054,-0.7188591,4.5795093,2.6539726,-0.976084,9.41306,2.57137041408129667057,-0.59735334,4.727351,2.6384103,-0.98151517,9.393464,2.64005331408129667064,-0.38486794,5.0140567,2.6623523,-0.9899496,9.378266,2.69045381408129667087,-0.036511578,5.4444146,2.8766334,-1.000434,9.368758,2.71953851408129667088,0.36272156,5.8681884,3.2040405,-1.0126365,9.365285,