time,acc_x,acc_y,acc_z,local max
1419804789353.00,-2.1428933005,9.41946498957,0.261608709993,0
1419804789357.00,-1.99780545991,9.26693682455,0.409130815196,0
1419804789368.00,-1.74329358978,9.43428025592,0.652588665037,0
1419804789384.00,-1.08678806118,9.91134179076,0.817337030263,0
1419804789388.00,-0.500498013445,10.2630328828,0.669439930213,0
1419804789399.00,-0.237327455826,10.4915096674,0.410964079522,0
1419804789408.00,-0.0420595779899,10.5241931445,0.20983740062,0
1419804789418.00,0.119461582066,10.4068057796,0.132417117406,0
1419804789435.00,0.263802363581,10.2127258635,0.208542702852,0
1419804789436.00,0.36969761498,10.0185280366,0.337697819212,0
1419804789451.00,0.380978291088,9.85130079442,0.311398890556,0
1419804789456.00,0.315142729783,9.78351366635,0.194680279152,0
1419804789468.00,0.24432565185,9.81267917367,0.105525925431,0
1419804789483.00,0.130797750968,9.84212754336,0.0988926508603,0
1419804789490.00,-0.0633671591396,9.77874500167,0.193809071254,0
1419804789501.00,-0.233384965878,9.76145077523,0.118747145114,0
1419804789516.00,-0.480205302778,9.6467534325,-0.0939927138371,0
1419804789517.00,-0.447283883335,9.49478063747,-0.192143764298,0
1419804789533.00,-0.361017917357,9.51969576567,-0.236333043026,0
1419804789538.00,-0.289750999298,9.45390612419,-0.267687982234,0
1419804789549.00,-0.151922593379,9.15012886262,-0.381466676256,0
1419804789556.00,0.00630122294517,8.84808109743,-0.499305641244,0
1419804789568.00,0.125143234037,8.67180991401,-0.625007395267,0
1419804789583.00,0.203282427201,8.63938924333,-0.6807402923,0
1419804789588.00,0.325974846311,8.70339238014,-0.778990625618,0
1419804789600.00,0.436231844545,8.88033517388,-0.794058265718,0
1419804789615.00,0.419787168238,9.21908373334,-0.631181435577,0
1419804789616.00,0.340513671236,9.61024714053,-0.370930630363,0
1419804789633.00,0.379571011415,9.96823937366,-0.103631367399,0.0
1419804789636.00,0.251876932787,10.4387600322,0.160645781115,0.0
1419804789649.00,0.0653471753365,10.9945763016,0.344734792114,0.0
1419804789665.00,-0.0551224102182,11.490552627,0.458007288354,0.0
1419804789670.00,-0.0417986862605,11.8312911609,0.430813904309,0.0
1419804789682.00,0.182808799723,11.9672226748,0.278240496388,11.9672226748
1419804789688.00,0.569049816406,11.8354682769,-0.0325514289491,0.0
1419804789700.00,0.707070012938,11.5252959786,-0.404746815327,0.0
1419804789717.00,0.468804071383,11.2325645689,-0.660982036663,0.0
1419804789718.00,0.203841142243,10.9439329408,-0.715626406335,0.0
1419804789733.00,0.142929263782,10.6482670438,-0.561952755337,0.0
1419804789736.00,0.226733556226,10.1527455982,-0.226212984035,0.0
1419804789748.00,0.393882391022,9.64076041735,0.138125968933,0.0
1419804789756.00,0.341649327204,9.24884995025,0.244535696162,0.0
1419804789768.00,0.304762631995,8.9815776031,0.323082686275,0.0
1419804789784.00,0.299595047146,8.76941310401,0.381446661416,0.0
1419804789788.00,0.285775006169,8.70682642618,0.354040037188,0.0
1419804789799.00,0.262532832534,8.74242585087,0.234459899048,0.0
1419804789815.00,0.223185577519,8.8413895755,0.206591635546,0.0
1419804789816.00,0.189618264753,8.94103528834,0.274807910953,0.0
1419804789833.00,0.158793297298,9.02770839945,0.408139891969,0.0
1419804789839.00,0.0426310716241,9.14665266099,0.513445096493,0.0
1419804789850.00,-0.0324216372083,9.26718612592,0.498408066142,0.0
1419804789857.00,0.00285847656356,9.38194798801,0.41460142202,0.0
1419804789868.00,0.0637085204588,9.43115238646,0.330132749322,0.0
1419804789881.00,0.185351328889,9.59157280684,0.293416106525,0.0
1419804789888.00,0.280747994233,9.76206927564,0.0865840708922,0.0
1419804789900.00,0.288177690086,9.89016971094,0.0467797785214,0.0
1419804789916.00,0.278656595244,9.95371426783,-0.0239616712023,0.0
1419804789917.00,0.245927539924,9.93748500168,-0.214424975589,0.0
1419804789933.00,0.186110495733,9.90318428576,-0.410590277218,0.0
1419804789937.00,0.145240938664,9.86436295365,-0.568133127313,0.0
1419804789948.00,0.16859701917,9.79668119734,-0.731184506967,0.0
1419804789968.00,0.159491412853,9.72954871753,-0.956751682435,0.0
1419804789969.00,0.103598995318,9.76242738198,-1.27042014687,0.0
1419804789989.00,0.0381216411158,9.92031237187,-1.5670017458,0.0
1419804789990.00,-0.127600167314,10.1541150595,-1.699217963,0.0
1419804790002.00,-0.415394600771,10.3158808024,-1.57502581978,0.0
1419804790018.00,-0.666333239262,10.398074119,-1.22640510959,0.0
1419804790019.00,-0.942854411434,10.4720177879,-0.87924278043,0.0
1419804790034.00,-1.044743549,10.6156075168,-0.52480967145,0.0
1419804790037.00,-1.03063080412,10.8917514634,-0.0277580917081,0.0
1419804790050.00,-0.845616663746,11.2920027341,0.571977151077,0.0
1419804790057.00,-0.479760537656,11.7066483207,0.96150441445,0.0
1419804790069.00,-0.026955551572,12.166787361,1.05897283465,0.0
1419804790083.00,0.325023922917,12.7442183516,0.914109198663,0.0
1419804790088.00,0.532043575678,13.4088389204,0.850534812622,0.0
1419804790099.00,0.749624749459,13.9675949933,0.765701001208,0.0
1419804790116.00,1.00442070901,14.3132256115,0.44315637861,0.0
1419804790117.00,1.06520437737,14.3900160702,0.0825995094572,14.3900160702
1419804790134.00,0.817940339931,14.347211012,-0.199370325116,0.0
1419804790137.00,0.450166266269,14.2898567169,-0.359426590488,0.0
1419804790149.00,0.169039952007,14.1548608484,-0.508016376093,0.0
1419804790163.00,-0.0962840289525,13.9740713956,-0.806538539305,0.0
1419804790168.00,-0.565882667724,13.8504220452,-1.12080214502,0.0
1419804790180.00,-1.08506852358,13.2708158406,-1.52899081507,0.0
1419804790188.00,-1.74741802508,12.3177410675,-1.48786310237,0.0
1419804790200.00,-2.34571812047,11.2167505326,-1.2866844733,0.0
1419804790215.00,-2.86679897258,10.2568845796,-1.17570451534,0.0
1419804790216.00,-3.20737631663,9.46895858421,-1.0995864616,0.0
1419804790233.00,-3.24133997708,8.82184079053,-1.00019796114,0.0
1419804790236.00,-3.01606934811,8.39230777089,-0.694613815943,0.0
1419804790250.00,-2.76068109889,8.30324303965,-0.258935713381,0.0
1419804790266.00,-2.54641342125,8.58170572482,-0.113702143039,0.0
1419804790268.00,-2.15154600136,8.89678975997,-0.195156254758,0.0
1419804790279.00,-1.80575000469,9.22508790899,-0.305463900424,0.0
1419804790288.00,-1.3999805646,9.56795856205,-0.297333116046,0.0
1419804790297.00,-0.770926517415,9.78539296286,-0.278706337914,0.0
1419804790314.00,-0.324593764521,10.0659262909,-0.567848261108,0.0
1419804790317.00,-0.260488083218,10.4608103178,-0.714109794271,0.0
1419804790333.00,0.015586547145,10.6785292809,-0.666819880335,0.0
1419804790336.00,0.292110523019,10.9921584555,-0.346525521947,0.0
1419804790348.00,0.439267080058,11.347485309,0.298120697707,0.0
1419804790366.00,0.544866662473,11.4956088349,0.703703727631,0.0
1419804790368.00,0.506912041111,11.3956455511,0.581783420621,0.0
1419804790380.00,0.472029269175,11.0533314099,0.235185207791,0.0
1419804790397.00,0.367564437572,10.4559444894,-0.0442621187752,0.0
1419804790398.00,0.159683336986,9.75152752607,-0.160050112585,0.0
1419804790414.00,-0.0388336873536,8.99874108956,-0.158236119435,0.0
1419804790417.00,-0.0685052978579,8.2748731161,-0.176546638594,0.0
1419804790431.00,-0.0585925634652,7.74669873623,-0.263972035146,0.0
1419804790447.00,0.14710525009,7.08984561886,-0.253333637724,0.0
1419804790449.00,0.270292330303,6.81921356021,0.0484618813424,0.0
1419804790463.00,0.267024333368,6.69295009782,0.311790422056,0.0
1419804790469.00,0.360871079335,6.53484601155,0.487518798062,0.0
1419804790482.00,0.355566778858,6.52304563707,0.722795671749,0.0
1419804790499.00,0.403636073989,6.53974884126,0.972331754137,0.0
1419804790499.00,0.467669688348,6.61180604375,1.07058137119,0.0
1419804790516.00,0.60107953544,6.66252126022,1.31187259134,0.0
1419804790517.00,0.748136936256,6.64999522692,1.67791969472,0.0
1419804790537.00,0.938676841143,6.60933371577,1.73904864699,0.0
1419804790540.00,1.12253253828,6.83054641521,1.70333339301,0.0
1419804790559.00,1.17566593176,7.34367850541,1.62403142484,0.0
1419804790560.00,1.12472967239,8.21371707849,1.63879366103,0.0
1419804790573.00,1.13137550602,9.41214461095,1.66117045871,0.0
1419804790595.00,1.13762257825,10.7998151735,1.42467155018,0.0
1419804790599.00,1.17512058828,12.2429243712,0.99347146346,0.0
1419804790600.00,1.05710556778,13.7565753216,0.747141610938,0.0
1419804790623.00,0.562566687261,15.3319421187,0.502905898984,0.0
1419804790624.00,-0.108592187513,16.4260290406,-0.24184216973,16.4260290406
1419804790629.00,-0.169910173085,16.0281889923,-0.959781906465,0.0
1419804790638.00,0.0722054814424,14.1108879018,0.545985125065,0.0
1419804790656.00,0.17996808126,12.0079808845,2.9724553323,0.0
1419804790658.00,0.602702816288,10.7763277386,3.79783413721,0.0
1419804790669.00,0.824354451508,10.642499681,3.6155504927,0.0
1419804790691.00,0.351683589434,11.8072934053,2.9377641249,0.0
1419804790692.00,0.157936181978,12.8992400176,-0.717217831297,0.0
1419804790698.00,-0.968351721226,13.5066543878,-4.40998189783,0.0
1419804790722.00,-3.15644085025,14.130514391,-7.39090965702,0.0
1419804790733.00,-5.08369410651,14.2047764913,-8.54522253975,0.0
1419804790734.00,-6.52017857619,13.4099127499,-4.85524273916,0.0
1419804790760.00,-7.45546770561,11.8645110662,-0.725747110747,0.0
1419804790761.00,-6.84606335276,10.0505767168,-0.275910578935,0.0
1419804790762.00,-4.51613903066,7.7955776154,-1.84475674143,0.0
1419804790770.00,-3.51700056611,7.15648066872,-3.21723378854,0.0
1419804790791.00,-2.22432978012,7.01401232841,-3.49333420054,0.0
1419804790792.00,-1.49123484554,7.30440839709,-4.02824959531,0.0
1419804790798.00,-0.849342094253,8.03823076478,-3.74711639028,0.0
1419804790823.00,-0.13389806805,8.71957296501,-3.08646722547,0.0
1419804790823.00,0.419683674409,9.38172668578,-2.8492794913,0.0
1419804790829.00,0.0774401454904,10.414843368,-2.97116452837,0.0
1419804790867.00,-0.763354241156,11.1961146004,-3.0897705793,0.0
1419804790868.00,-1.20811751497,11.0835076668,-2.75604580117,0.0
1419804790869.00,-1.40708709917,10.5742396426,-1.93200884741,0.0
1419804790872.00,-1.48617246754,9.94402223688,-1.40227991954,0.0
1419804790893.00,-1.41887389493,9.35857279133,-1.60381976178,0.0
1419804790894.00,-1.07918014605,8.95760108856,-2.03463323277,0.0
1419804790898.00,-0.706703676544,8.66141128575,-2.31325622023,0.0
1419804790920.00,-0.427267525702,8.42177867596,-2.07672832114,0.0
1419804790922.00,-0.193978141999,8.12993041466,-1.44355644646,0.0
1419804790936.00,-0.194198293052,7.91608385209,-0.816628956122,0.0
1419804790939.00,-0.224869658164,7.64564560773,-0.399148967694,0.0
1419804790955.00,-0.230739309839,7.3468748569,-0.270121873207,0.0
1419804790958.00,-0.114368454146,6.99349251862,-0.171995816601,0.0
1419804790969.00,-0.0422230828,6.88518091948,-0.283912045436,0.0
1419804790984.00,0.0110725274381,6.86764549266,-0.531800900355,0.0
1419804791000.00,0.28001968648,6.79574124778,-0.779542265742,0.0
1419804791001.00,0.512779074263,6.90945515754,-0.744893348031,0.0
1419804791014.00,0.519322383274,7.21097980235,-0.487920713981,0.0
1419804791018.00,0.543753562047,7.43515346826,0.00294222976525,0.0
1419804791032.00,0.521353375439,7.68069002478,0.493799563305,0.0
1419804791050.00,0.39090083552,8.11766672992,0.787232267394,0.0
1419804791051.00,0.22619819458,8.60919301296,1.03987149125,0.0
1419804791064.00,0.135847494867,8.99653776967,1.20142252628,0.0
1419804791069.00,0.210748919997,9.24958170033,1.32736345298,0.0
1419804791080.00,0.371248888548,9.4314251404,1.53616140958,0.0
1419804791100.00,0.543706078618,9.52801430945,1.79493447012,0.0
1419804791101.00,0.70482628697,9.77887287554,1.86600065453,0.0
1419804791119.00,0.765562701489,10.2667845404,1.60717615375,0.0
1419804791121.00,0.720731671996,10.8699816791,1.19926060875,0.0
1419804791131.00,0.638256804489,11.4669103357,0.929342654202,0.0
1419804791147.00,0.63446395297,11.9797806176,1.06939510794,0.0
1419804791149.00,0.732791973532,12.3598783572,1.51984076903,0.0
1419804791165.00,0.861837123079,12.6679935975,1.94399977215,0.0
1419804791171.00,1.05794676879,12.9965435293,2.11158244289,0.0
1419804791181.00,1.13916659123,13.3864840483,2.01586943345,0.0
1419804791199.00,1.07704372161,13.7311248649,1.79116886078,0.0
1419804791199.00,1.06812879571,13.662672118,1.47348393709,0.0
1419804791217.00,1.2304347494,13.1797070192,0.95705206742,0.0
1419804791221.00,1.29443647339,12.8796920835,0.219434943138,0.0
1419804791242.00,1.22189365311,13.214993138,-0.00152719241768,0.0
1419804791254.00,1.1393315298,13.9683654294,0.454148004481,0.0
1419804791255.00,1.2307580631,14.4615752258,-0.160904542648,0.0
1419804791258.00,1.01766246716,14.5516496494,-1.28157529019,14.5516496494
1419804791270.00,0.51534959725,13.8638249878,-1.87108112911,0.0
1419804791281.00,0.0901948855887,12.3942227825,-2.43824690171,0.0
1419804791304.00,-0.95983001348,10.966883501,-2.7718528057,0.0
1419804791305.00,-2.39226149252,9.77201732838,-2.54505090495,0.0
1419804791310.00,-3.4996692664,9.23425832469,-1.93981772391,0.0
1419804791318.00,-3.84997847041,9.383879515,-1.41964085938,0.0
1419804791338.00,-3.71932492232,9.90658654275,-1.21977014278,0.0
1419804791339.00,-3.46988159198,10.6747145182,-1.27055957098,0.0
1419804791350.00,-3.53649582555,11.6329850938,-1.61236193541,0.0
1419804791368.00,-3.45284112841,12.0723694095,-1.77640615781,0.0
1419804791370.00,-2.94491940142,11.8526710535,-1.18120619031,0.0
1419804791387.00,-2.20875328126,11.1668418443,-0.41646437758,0.0
1419804791390.00,-1.21387538612,10.7702954885,-0.0574157604605,0.0
1419804791399.00,0.0899370438617,10.4437912898,-0.0528913448725,0.0
1419804791420.00,0.944191421439,10.3443738389,-0.944374256427,0.0
1419804791421.00,1.3712100619,10.1382372369,-2.08328093974,0.0
1419804791430.00,1.41196240784,9.63538819029,-2.56584680918,0.0
1419804791464.00,1.22520427175,8.78432154604,-2.07450464804,0.0
1419804791465.00,0.98078300487,7.79174684901,-1.26712564319,0.0
1419804791466.00,0.598998355997,6.91463134138,-0.656531586269,0.0
1419804791493.00,0.136041584132,6.24026954488,-0.553964345092,0.0
1419804791493.00,-0.131634483657,5.83749782943,-0.766289701255,0.0
1419804791494.00,-0.416643660055,5.69213668876,-0.842733619585,0.0
1419804791498.00,-0.523275583097,5.52958001798,-0.634456607452,0.0
1419804791516.00,-0.598933299687,5.41727325307,-0.257028649175,0.0
1419804791519.00,-0.649413354139,5.51477497754,0.135744015307,0.0
1419804791533.00,-0.661846499652,5.83887831271,0.446274093221,0.0
1419804791546.00,-0.688244732484,6.31263704887,0.648614617614,0.0
1419804791550.00,-0.751334207592,6.72041232007,0.754821068797,0.0
1419804791560.00,-0.793024019431,6.98279074087,0.813185768876,0.0
1419804791578.00,-0.826343308365,7.17559093798,0.888263741999,0.0
1419804791579.00,-0.73732806181,7.27574986606,0.96650618998,0.0
1419804791603.00,-0.440130231115,7.28534505935,1.07615268756,0.0
1419804791604.00,0.0164735677779,7.45533555715,1.16606895318,0.0
1419804791610.00,0.433283933866,8.04306984791,1.34930220422,0.0
1419804791619.00,0.6233487697,9.10751752757,1.60726370115,0.0
1419804791637.00,0.911267723499,10.37963354,1.69009980568,0.0
1419804791639.00,1.35030628517,11.68838499,1.55238953939,0.0
1419804791652.00,1.5601560511,13.1372717008,1.2864221466,0.0
1419804791671.00,1.42556731731,14.5419079861,0.952704762599,0.0
1419804791672.00,0.694914507924,15.7772195774,0.442011351517,0.0
1419804791678.00,-0.241498561803,16.3649335692,-0.438386984579,0.0
1419804791721.00,-0.480671502411,15.5217240088,-0.307829733747,0.0
1419804791722.00,-0.254182712515,13.3625272625,2.01380060126,0.0
1419804791724.00,-0.244377985787,11.8634736122,3.94289251083,0.0
1419804791726.00,-0.477502084118,12.3616829741,4.11657636704,0.0
1419804791731.00,-0.400331631014,13.9521583739,3.25749836012,0.0
1419804791756.00,-0.180886079617,15.6049189591,1.62526939036,0.0
1419804791757.00,-0.685785149646,17.0026857389,-1.26983541091,0.0
1419804791759.00,-2.12392561657,17.2574434392,-7.36390719883,17.2574434392
1419804791784.00,-4.2177527787,16.1295265544,-7.81274077098,0.0
1419804791786.00,-5.19922249755,13.0402162404,-1.75433294519,0.0
1419804791802.00,-4.96884674281,9.68385875853,1.37255917825,0.0
1419804791803.00,-2.60995663017,6.84670263835,-0.0206690728917,0.0
1419804791810.00,-1.34216515524,5.79660899325,-2.64653390903,0.0
1419804791837.00,-0.909103194835,5.60618666535,-4.8991905378,0.0
1419804791839.00,-0.701113165881,5.96323812936,-5.1266670472,0.0
1419804791840.00,-0.988872084744,7.25838987874,-4.46634472824,0.0
1419804791853.00,-0.912962985931,8.34430615511,-4.23408599452,0.0
1419804791883.00,-0.507003719211,9.19854883452,-3.68777854239,0.0
1419804791885.00,-0.361420541886,10.0755634775,-3.27767689491,0.0
1419804791886.00,-0.618226908249,11.0640817695,-3.21996115719,0.0
1419804791900.00,-1.28623874766,11.8245045434,-2.72194133403,0.0
1419804791900.00,-1.52296820171,11.5846953042,-1.65407294269,0.0
1419804791913.00,-1.45810540757,10.9750031385,-0.808609398309,0.0
1419804791933.00,-1.36390453629,10.4724141818,-0.555571517722,0.0
1419804791934.00,-1.0576157129,9.91247226754,-1.00795280659,0.0
1419804791946.00,-0.709619841332,9.3648491312,-1.63544806742,0.0
1419804791952.00,-0.506270306356,8.9354621172,-1.74372557846,0.0
1419804791967.00,-0.212228018348,7.83045589571,-0.720821602969,0.0
1419804791979.00,0.00516156857883,7.25239180328,-0.471145328282,0.0
1419804791979.00,0.130521632257,6.81471057609,-0.538661033942,0.0
1419804791997.00,-0.0559807209363,6.63406240435,-0.609599959517,0.0
1419804792000.00,-0.153995829881,6.54746816148,-0.655866625329,0.0
1419804792015.00,0.143999100672,6.31106693843,-0.823089033151,0.0
1419804792029.00,0.627875536517,6.17274159183,-0.915745977256,0.0
1419804792030.00,0.942971146389,6.16221629154,-0.866436918387,0.0
1419804792046.00,1.0575925086,6.32313566011,-0.596810588799,0.0
1419804792052.00,1.13635012907,6.44336725681,-0.208477359177,0.0
1419804792070.00,1.17338405572,6.60480489199,0.301237986593,0.0
1419804792071.00,1.08791598758,6.78611397243,0.899107112545,0.0
1419804792079.00,1.01824200832,7.21115148904,1.53488826595,0.0
1419804792109.00,0.946492937824,7.92786471824,1.83981370776,0.0
1419804792111.00,0.974263230141,8.68655232407,1.93099105264,0.0
1419804792112.00,1.15025417146,9.35865239393,2.10563892927,0.0
1419804792138.00,1.43251383696,9.85900753524,2.31761241501,0.0
1419804792139.00,1.64833413814,10.4027222521,2.41552101331,0.0
1419804792140.00,1.84439553746,11.1080168367,2.20792555107,0.0
1419804792152.00,2.07521876557,11.8677591047,2.37360423633,0.0
1419804792173.00,2.31373214163,12.6545942736,2.15603085267,0.0
1419804792174.00,2.51293734195,13.252248614,1.31526307743,0.0
1419804792180.00,2.55489893466,13.5177222649,1.34888743234,0.0
1419804792213.00,2.56909946853,13.4851597491,2.32954886308,0.0
1419804792214.00,2.38741434794,13.5480445084,2.94779694537,0.0
1419804792215.00,2.06219316639,13.7544056253,2.79622968238,0.0
1419804792245.00,1.66372790369,13.7755538694,2.31308405848,0.0
1419804792246.00,1.24107620529,13.575201378,1.5921036059,0.0
1419804792247.00,1.13767288126,13.139197725,0.313008044327,0.0
1419804792270.00,1.15935896653,13.0335807762,-0.936276713242,0.0
1419804792271.00,1.07936478959,13.336680648,-1.31005178402,0.0
1419804792272.00,1.01896803529,13.7983018965,-1.18033850168,0.0
1419804792279.00,1.07177685939,13.9224013652,-1.16904752264,13.9224013652
1419804792308.00,1.04195727471,13.4212321089,-1.5181262177,0.0
1419804792311.00,0.697266088179,12.1956313527,-2.03637362707,0.0
1419804792312.00,-0.0284636211212,10.7641617711,-2.36747864984,0.0
1419804792345.00,-1.12136931878,9.78688686086,-2.12889029892,0.0
1419804792346.00,-2.52642765905,9.51652217056,-1.28868385103,0.0
1419804792347.00,-3.56391327585,9.70109217355,-0.585560842958,0.0
1419804792374.00,-3.80425169471,10.1356810646,-0.320006677947,0.0
1419804792375.00,-3.96804854643,10.7626464597,-0.363450988645,0.0
1419804792376.00,-4.03451347139,11.3106467319,-0.628253556437,0.0
1419804792379.00,-3.88743776623,11.5801501728,-0.884661288041,0.0
1419804792401.00,-3.50814422895,11.5185550378,-0.839459387027,0.0
1419804792402.00,-3.42394486479,11.359397802,-0.420237146452,0.0
1419804792411.00,-2.71986903354,10.708976606,0.0437058775916,0.0
1419804792434.00,-1.71955247198,10.1883085741,0.351452926353,0.0
1419804792435.00,-0.556646559203,9.97221893539,0.519533733993,0.0
1419804792439.00,0.711784077631,9.65139810597,-0.289141211434,0.0
1419804792474.00,1.21087593891,9.5509092598,-1.58904669942,0.0
1419804792475.00,1.25826680682,9.31424716766,-2.50614748958,0.0
1419804792481.00,1.33867613948,8.76419538064,-2.57059422056,0.0
1419804792482.00,1.32410461701,7.98221450759,-2.00940996996,0.0
1419804792502.00,0.864619186061,7.27905651945,-1.57978128481,0.0
1419804792508.00,0.250012882899,6.62837808503,-1.48369203599,0.0
1419804792511.00,-0.361802678726,6.23215746571,-1.24734324971,0.0
1419804792538.00,-0.627294029257,5.97270699667,-0.925205910977,0.0
1419804792539.00,-0.787098443495,6.00480507024,-0.558550055678,0.0
1419804792540.00,-0.873224787283,6.18866142249,-0.134322033526,0.0
1419804792564.00,-0.935854286768,6.4191340068,0.323289244989,0.0
1419804792564.00,-0.930712809406,6.61356073262,0.681670572157,0.0
1419804792578.00,-0.819771776579,6.66614142612,0.859998308019,0.0
1419804792579.00,-0.816943683922,6.72896089318,0.858411323486,0.0
1419804792603.00,-0.798221740344,6.8157747635,0.666111493172,0.0
1419804792604.00,-0.716469500969,6.85090131882,0.476518933105,0.0
1419804792611.00,-0.537160031836,6.95627902541,0.45642764883,0.0
1419804792643.00,-0.223241152654,7.18606963563,0.765919495093,0.0
1419804792645.00,0.294028958613,7.60390302871,1.17986502836,0.0
1419804792647.00,0.694938231544,8.40881227592,1.76175110598,0.0
1419804792680.00,0.855682646409,9.66122374527,2.35108851188,0.0
1419804792682.00,1.07328774567,11.126262847,2.51242822269,0.0
1419804792685.00,1.28780769454,12.6389935956,2.42088735135,0.0
1419804792686.00,1.23239192895,14.2180591974,2.29674561278,0.0
1419804792700.00,0.894866867032,15.7202061988,1.908421024,0.0
1419804792701.00,0.149795095726,16.7500846711,1.14134300704,0.0
1419804792711.00,-0.407830196451,16.5408111247,0.154031352617,0.0
1419804792737.00,-0.0410645437639,14.4887677417,0.93858818241,0.0
1419804792737.00,0.397381070718,12.0568729377,3.49523484711,0.0
1419804792739.00,0.189774817657,11.6816190044,4.30929926277,0.0
1419804792774.00,0.0786138855497,12.968157988,4.17596205003,0.0
1419804792775.00,0.380022954622,14.7361493717,2.82509119656,0.0
1419804792777.00,0.165138571119,16.5057068692,0.500546989152,0.0
1419804792780.00,-0.913036913381,17.5440596479,-5.57783282333,17.5440596479
1419804792803.00,-3.1169205906,16.9159428633,-9.33138053952,0.0
1419804792805.00,-4.5003880406,13.7302146656,-3.73035709806,0.0
1419804792811.00,-4.76833938405,9.77889284022,0.939865765519,0.0
1419804792845.00,-3.56316946511,6.80496021328,0.236869633849,0.0
1419804792846.00,-2.21673998143,5.4828221746,-2.79069097962,0.0
1419804792847.00,-1.34480431053,5.30892961326,-5.53382957634,0.0
1419804792875.00,-1.00623576709,6.20236134145,-5.66814560449,0.0
1419804792877.00,-1.34490806003,8.00356867779,-4.97446278772,0.0
1419804792878.00,-1.249115383,9.1943094861,-4.60655484563,0.0
1419804792880.00,-0.786484098075,9.7972390402,-3.65389036127,0.0
1419804792900.00,-0.574412241862,10.3489913805,-2.89106833081,0.0
1419804792901.00,-0.682651699473,11.140138217,-2.57166347434,0.0
1419804792913.00,-1.34378285519,11.8479976486,-1.993510826,0.0
1419804792934.00,-1.63200021074,11.6910849534,-1.08585119284,0.0
1419804792935.00,-1.49146260506,10.9713253839,-0.532071405323,0.0
1419804792940.00,-1.16721307112,10.3460809941,-0.569498322914,0.0
1419804792968.00,-0.742854646121,9.84062446063,-1.14849528752,0.0
1419804792969.00,-0.422392239427,9.42279150071,-1.65420819953,0.0
1419804792972.00,0.0894714530485,8.79247398054,-1.63977032689,0.0
1419804792980.00,0.242325110218,8.3427943117,-1.2803337913,0.0
1419804793002.00,0.384784610884,7.72770096372,-1.01915164171,0.0
1419804793004.00,0.416143506526,7.06980366237,-0.835685379827,0.0
1419804793013.00,0.288437755199,6.68531456019,-0.741442309189,0.0
1419804793059.00,0.265746533583,6.34556501724,-0.842450236329,0.0
1419804793061.00,0.0978177774988,6.09168522225,-0.869932640579,0.0
1419804793062.00,0.254337053723,5.77198706731,-0.853173888038,0.0
1419804793063.00,0.548858239457,5.65895236436,-0.666172285479,0.0
1419804793065.00,0.701925175778,5.73240303619,-0.371504094009,0.0
1419804793091.00,0.781083667663,5.99323083097,0.0414832933669,0.0
1419804793091.00,0.847898676406,6.37317245606,0.656932842877,0.0
1419804793094.00,0.902908348894,6.79741237229,1.17649648838,0.0
1419804793114.00,0.856647184925,7.46101204662,1.55827799956,0.0
1419804793115.00,0.865669558426,8.08169800288,1.93747748327,0.0
1419804793135.00,0.844449436743,8.64216427067,2.38511101125,0.0
1419804793142.00,0.945006558259,9.11073093213,2.6397424633,0.0
1419804793143.00,1.1479429011,9.53154086552,2.63121743008,0.0
1419804793163.00,1.3364269856,9.88472343131,2.36981680744,0.0
1419804793163.00,1.4198290825,10.2594987274,2.08318934869,0.0
1419804793179.00,1.56601534366,10.5565951858,1.66873962533,0.0
1419804793180.00,1.70244150622,10.984637266,1.20933601562,0.0
1419804793199.00,1.75858564839,11.5740338934,0.835119674543,0.0
1419804793201.00,1.81906787776,12.1204214348,0.841374790398,0.0
1419804793211.00,1.95858856364,12.4758863933,1.39420275756,0.0
1419804793231.00,2.00959618756,12.7887709713,2.22196665747,0.0
1419804793234.00,2.01994656974,12.9956704209,2.94998007406,0.0
1419804793240.00,2.03632731972,13.2516317418,3.13821286033,0.0
1419804793268.00,1.89054139119,13.615256564,2.97241828271,0.0
1419804793269.00,1.63407812229,13.7305497854,2.66787422157,0.0
1419804793274.00,1.42519109016,13.3397881838,2.26944068275,0.0
1419804793280.00,1.58114102127,12.7299056467,1.44695040575,0.0
1419804793303.00,1.60490686109,12.701342442,0.460215990222,0.0
1419804793304.00,1.13472620877,13.4079767213,-0.20320501434,0.0
1419804793312.00,0.87955253527,13.9840868363,-0.62186165581,0.0
1419804793336.00,0.801906421998,14.2369522457,-0.828958197885,14.2369522457
1419804793337.00,0.418534389807,13.8935504765,-1.32474673472,0.0
1419804793340.00,0.233986254014,12.5456319082,-2.37131319286,0.0
1419804793366.00,-0.133399091245,11.104649624,-3.20000228805,0.0
1419804793367.00,-1.27930794095,10.3148899268,-3.02211512753,0.0
1419804793372.00,-2.65634940121,10.1919264651,-2.06271678497,0.0
1419804793381.00,-3.469689671,10.3736763014,-1.03902536899,0.0
1419804793401.00,-3.95287714756,10.9461783919,-0.4515686435,0.0
1419804793402.00,-4.05623772316,11.5869641163,-0.638866092017,0.0
1419804793412.00,-3.98044564108,12.0412828409,-1.31157181028,0.0
1419804793436.00,-4.04173833737,12.194710288,-1.69626123056,0.0
1419804793437.00,-3.74352225836,11.7747945298,-1.71734596161,0.0
1419804793442.00,-3.45563607305,10.9621058389,-1.24893414492,0.0
1419804793476.00,-2.82382775117,9.99287771094,-0.266541769499,0.0
1419804793478.00,-1.74550966741,9.2398612461,0.56609516536,0.0
1419804793481.00,-0.528415199177,8.68414274159,0.407853057365,0.0
1419804793507.00,1.37142447446,8.18463061321,-1.30841530269,0.0
1419804793508.00,1.43695805572,8.15460196443,-1.60124536017,0.0
1419804793509.00,1.47981798956,7.81799160059,-1.40947880043,0.0
1419804793512.00,1.37524805676,7.39600780635,-0.90293773691,0.0
1419804793536.00,1.09451518812,7.01523745584,-0.172786960238,0.0
1419804793537.00,0.766184398698,6.81080591865,-0.0734001300186,0.0
1419804793541.00,0.353615916112,6.74470247653,-0.252803133468,0.0
1419804793573.00,0.110499487046,6.70836791586,-0.562817257648,0.0
1419804793574.00,-0.225919258636,6.66999130017,-0.628717000212,0.0
1419804793575.00,-0.501286298725,6.63678233795,-0.353419712404,0.0
1419804793600.00,-0.64818428535,6.76962840489,0.00714889975518,0.0
1419804793601.00,-0.799944731752,7.0229057736,0.489141607839,0.0
1419804793602.00,-1.02174446694,7.37573152888,0.878563196773,0.0
1419804793612.00,-1.19963359853,7.67221186124,1.14817016571,0.0
1419804793634.00,-1.23269414138,7.8481018159,1.32480318468,0.0
1419804793635.00,-1.12962612481,7.9297264389,1.46046721396,0.0
1419804793640.00,-0.883288979266,7.76978772826,1.61955717555,0.0
1419804793668.00,-0.515390202131,7.58257374605,1.82523475207,0.0
1419804793670.00,-0.0714064033729,7.72229972436,1.845834732,0.0
1419804793672.00,0.390912491701,8.25613822272,1.96215499654,0.0
1419804793701.00,0.865715436371,9.0937623612,2.28576066037,0.0
1419804793703.00,1.37159657153,10.008650253,2.40186703969,0.0
1419804793704.00,1.80042239851,10.9860104706,2.37059776966,0.0
1419804793712.00,1.9693500517,12.1619501656,2.30841446204,0.0
1419804793741.00,1.83562568035,13.6488704444,2.061111784,0.0
1419804793743.00,1.40494831296,15.2370736586,1.40790512776,0.0
1419804793744.00,0.722265165891,16.3283419393,0.428091063251,0.0
1419804793769.00,0.331142172665,15.7709915321,1.18347186093,0.0
1419804793770.00,0.301817948347,13.5584184097,3.39719267084,0.0
1419804793772.00,0.056387972314,11.7896623166,4.79471646772,0.0
1419804793799.00,-0.437487543871,11.934090833,4.89769981356,0.0
1419804793801.00,-0.397373154333,13.3750827063,3.33401169012,0.0
1419804793804.00,-0.477818718104,15.1233619733,0.966073131488,0.0
1419804793841.00,-1.37931694438,16.9206932392,-2.74881707709,0.0
1419804793843.00,-3.14991939147,17.7545110603,-8.29289287148,17.7545110603
1419804793843.00,-5.67599320282,17.2512783025,-7.49449709482,0.0
1419804793844.00,-6.06183685168,13.8124383793,-1.62888597475,0.0
1419804793865.00,-3.80938967192,8.47117703087,1.56042284504,0.0
1419804793866.00,-1.67518236769,5.3271433505,-0.391634246904,0.0
1419804793872.00,-0.723422757158,4.88065189904,-4.59092137079,0.0
1419804793923.00,-0.382798468338,5.43536842203,-6.68243368603,0.0
1419804793924.00,-0.664341087262,6.71880815719,-5.60479641722,0.0
1419804793925.00,-0.85621517874,8.29443859909,-4.9985782922,0.0
1419804793926.00,-0.52406917423,9.1311494152,-4.67124842067,0.0
1419804793927.00,-0.198377761503,9.74067806812,-3.84966734643,0.0
1419804793973.00,-0.525577850011,10.5786439879,-2.82714592054,0.0
1419804793976.00,-1.27998654964,11.5979254527,-2.12025654913,0.0
1419804793978.00,-2.02619237121,12.3169124888,-1.18880040861,0.0
1419804793982.00,-1.72376869294,11.7410259596,-0.146991011503,0.0
1419804793985.00,-1.01635737777,10.9777854999,0.492414775242,0.0
1419804794002.00,-0.620062539295,10.6863050845,0.370424993188,0.0
1419804794003.00,-0.184166265811,10.3422108667,-0.517178471604,0.0
1419804794004.00,0.206603303178,9.76096534353,-1.45766879647,0.0
1419804794029.00,0.232308358708,9.11875913357,-1.7419881107,0.0
1419804794030.00,0.0837141801235,8.34125880724,-1.33634044413,0.0
1419804794032.00,0.0463140638504,7.47664609339,-0.916563727614,0.0
1419804794041.00,0.0646022838806,6.76390001951,-0.789857909058,0.0
1419804794060.00,0.08357571363,6.19437820285,-0.705454005374,0.0
1419804794061.00,0.260210645109,5.68449489351,-0.610093428612,0.0
1419804794076.00,0.462450212837,5.50066397418,-0.557059588615,0.0
1419804794097.00,0.619893048176,5.55898486383,-0.728245988772,0.0
1419804794098.00,0.712299127052,5.87088329881,-0.73133413068,0.0
1419804794101.00,0.776465605411,6.15203585058,-0.334211501939,0.0
1419804794123.00,1.00736740553,6.22733694689,0.341075409034,0.0
1419804794124.00,1.12007631333,6.40094344429,1.05105748376,0.0
1419804794153.00,1.07028790272,6.81286493367,1.51960138355,0.0
1419804794154.00,0.885840848333,7.38496500726,1.63051971264,0.0
1419804794155.00,0.849584897789,7.93995278978,1.5748457754,0.0
1419804794162.00,0.838787963529,8.49402587168,1.47760262849,0.0
1419804794184.00,0.913241802615,9.00624833062,1.51436731162,0.0
1419804794184.00,1.11426909418,9.48131019853,1.74424506728,0.0
1419804794192.00,1.40940586591,9.85102676434,2.08260859798,0.0
1419804794211.00,1.69135650251,10.3256305645,2.13149583788,0.0
1419804794225.00,1.86602632873,11.0088223868,1.79138376582,0.0
1419804794226.00,1.92728613489,11.7604829211,1.38772200632,0.0
1419804794242.00,1.97674884604,12.3819114042,1.42218076682,0.0
1419804794243.00,2.07482565914,12.7988235161,2.10081286632,0.0
1419804794260.00,2.18723606778,13.0179780555,3.11933027147,0.0
1419804794261.00,2.29328816377,13.1109162784,3.60173339749,0.0
1419804794280.00,2.06052220047,13.1426043514,3.18609929871,0.0
1419804794283.00,1.54302652085,13.1000864903,2.58990661191,0.0
1419804794293.00,1.07217284977,12.974661163,2.32153727685,0.0
1419804794317.00,1.0553188628,12.4771503335,2.10007751699,0.0
1419804794319.00,1.46475314183,11.8071673474,1.2816062967,0.0
1419804794321.00,1.62864281067,11.8366238465,0.133067003216,0.0
1419804794351.00,1.23081476486,12.9596028028,-0.576942261841,0.0
1419804794352.00,1.24611254576,14.3069323358,-0.755534303559,0.0
1419804794354.00,1.48069287011,15.3095426309,-0.627096712752,0.0
1419804794361.00,1.48674337326,15.5211174539,-0.853789173386,15.5211174539
1419804794384.00,1.18989562341,14.3740340418,-2.0392101673,0.0
1419804794385.00,0.857192119181,11.7242842353,-3.38238869434,0.0
1419804794393.00,-0.0543126726592,9.40767853471,-3.13640847984,0.0
1419804794417.00,-1.42873855427,8.47686669232,-1.36643036004,0.0
1419804794418.00,-2.09911358089,8.42031740854,-0.00160717960432,0.0
1419804794428.00,-2.29156422134,9.17996398588,0.304111248601,0.0
1419804794453.00,-2.24311494005,10.3644274448,-0.504242534539,0.0
1419804794454.00,-2.22100121627,11.5507781987,-1.50566735035,0.0
1419804794455.00,-2.07922664761,12.33257819,-1.94653156795,0.0
1419804794475.00,-1.55195754196,12.6658472372,-1.64045102631,0.0
1419804794476.00,-1.02053857631,12.617184436,-1.01123926856,0.0
1419804794489.00,-0.457746700461,12.3537780581,-0.348722692805,0.0
1419804794493.00,0.196765872924,11.9084054564,0.529912997859,0.0
1419804794512.00,0.534692698568,11.2729230869,1.04465546676,0.0
1419804794513.00,0.826747843227,10.5730248584,0.53333588868,0.0
1419804794521.00,0.991402872768,9.77487146912,-0.55661003658,0.0
1419804794554.00,0.917991840202,8.89700279202,-1.20365372777,0.0
1419804794555.00,0.67180837057,7.98604360987,-1.1221782738,0.0
1419804794556.00,0.132314326109,7.42550359325,-0.966048029563,0.0
1419804794605.00,-0.366196918967,7.07411287591,-0.88895998819,0.0
1419804794607.00,-0.692557177763,6.85950349093,-0.995594038877,0.0
1419804794609.00,-0.756979997796,6.64806415682,-1.0554930282,0.0
1419804794613.00,-0.577058759065,6.38614449941,-1.01097036438,0.0
1419804794615.00,-0.551010592507,6.37881865764,-1.11207218459,0.0
1419804794645.00,-0.487693728879,6.32898243461,-0.956964818371,0.0
1419804794646.00,-0.360629586759,6.21000117386,-0.489050699194,0.0
1419804794647.00,-0.361557049693,6.09801088432,-0.0901274706873,0.0
1419804794647.00,-0.421681861802,6.03476500194,0.215254489308,0.0
1419804794653.00,-0.391310592158,6.03906132023,0.511382858996,0.0
1419804794678.00,-0.369533527125,6.181890424,0.85832277755,0.0
1419804794679.00,-0.248957653575,6.38278443158,1.21351303829,0.0
1419804794681.00,0.0158267552748,6.62732866487,1.50459645918,0.0
1419804794693.00,0.32937121893,7.11026433634,1.6299140613,0.0
1419804794707.00,0.586389244094,7.73511207375,1.65734429352,0.0
1419804794728.00,0.671486488565,8.50499017998,1.70370715594,0.0
1419804794729.00,0.599712363272,9.54292016718,1.84482240585,0.0
1419804794735.00,0.655019973003,10.6734717361,1.89968752083,0.0
1419804794742.00,0.820366957316,11.7472808145,1.94050042907,0.0
1419804794764.00,0.981394177531,12.8413874379,1.83107827934,0.0
1419804794765.00,0.873546972416,14.0197201619,1.45185282177,0.0
1419804794773.00,0.686565855251,14.9933028647,0.609709108337,0.0
1419804794799.00,0.491314264765,15.3206063446,0.132791473488,0.0
1419804794800.00,0.558793726877,14.1337280036,1.70112051541,0.0
1419804794802.00,0.729456155649,12.4073821852,3.7846178636,0.0
1419804794833.00,0.969971523002,11.4748998295,4.64440556278,0.0
1419804794836.00,0.976821305135,11.4795419193,4.57648820276,0.0
1419804794837.00,0.558779584721,12.4533480557,4.29899438858,0.0
1419804794841.00,0.476737429594,13.9149817225,2.23626738611,0.0
1419804794859.00,-0.0219460783163,15.4754625962,-0.83568117624,0.0
1419804794875.00,-1.28249538865,16.9127630309,-5.0350746357,0.0
1419804794876.00,-2.99288781,17.0541653549,-7.47105906379,17.0541653549
1419804794891.00,-4.95567409223,15.3334662607,-3.98354479405,0.0
1419804794907.00,-5.61005115068,12.0261840335,0.576595793066,0.0
1419804794907.00,-4.57688530205,9.39519518429,0.20968723798,0.0
1419804794928.00,-2.08839896252,7.82123912924,-3.17675032762,0.0
1419804794928.00,-1.10623391187,7.33414467618,-5.22300628871,0.0
1419804794934.00,-1.12629503205,7.07540544695,-4.72318082318,0.0
1419804794944.00,-1.07391046293,7.54403999138,-3.46432394601,0.0
1419804794969.00,-1.08481607699,8.60283255844,-3.33883398899,0.0
1419804794970.00,-0.642203270325,9.22931961385,-3.34975455097,0.0
1419804794974.00,0.135723219508,10.4916626489,-3.0819544558,0.0
1419804794998.00,0.0439389356481,11.2587893643,-3.13538666402,0.0
1419804794999.00,-0.489901996983,11.803603788,-2.49168487065,0.0
1419804795003.00,-0.927535416363,11.6384497715,-1.64099227294,0.0
1419804795031.00,-0.621476119179,10.9168114817,-0.876239473877,0.0
1419804795032.00,-0.262368273266,10.629404422,-0.562453209341,0.0
1419804795034.00,0.0500501756089,10.449756054,-1.14665733974,0.0
1419804795051.00,0.183663887951,10.070744608,-2.04230075462,0.0
1419804795088.00,0.0573525380005,9.38566956127,-2.21967942459,0.0
1419804795089.00,-0.0590961772986,8.47025814213,-1.57873647055,0.0
1419804795091.00,-0.151201350395,7.57126970816,-0.624681888512,0.0
1419804795092.00,-0.279373301077,6.89422442413,0.0674282025412,0.0
1419804795114.00,-0.214641601047,6.46473206102,0.313083590762,0.0
1419804795115.00,-0.0961548547312,6.29492868006,0.0169587858263,0.0
1419804795117.00,0.117928292329,6.13572555284,-0.309265199718,0.0
1419804795123.00,0.60190016961,6.02323491313,-0.527268198938,0.0
1419804795147.00,0.978708363608,6.24851321782,-0.653280612891,0.0
1419804795148.00,1.30639445264,6.36718743603,-0.780076664546,0.0
1419804795154.00,1.56369306075,6.31547648843,-0.613296903802,0.0
1419804795182.00,1.63064375221,6.21084088855,-0.0114438619147,0.0
1419804795183.00,1.61095656313,6.18185936915,0.624120093742,0.0
1419804795184.00,1.54966126858,6.29113522662,1.31802292535,0.0
1419804795213.00,1.35927155643,6.77932221427,1.84515752373,0.0
1419804795214.00,1.27358871838,7.4674893743,2.02863526914,0.0
1419804795215.00,1.27963227231,8.22041010136,1.9871220843,0.0
1419804795222.00,1.34303776556,9.17009294242,2.71932130887,0.0
1419804795246.00,1.80614521093,10.3212701936,4.05916012952,0.0
1419804795248.00,2.27709879047,11.2880569563,3.66579593644,0.0
1419804795256.00,2.23909897761,11.829059856,2.38044581403,0.0
1419804795279.00,1.75444981619,11.9058404,1.67480937643,0.0
1419804795281.00,1.43330857757,11.5962021854,1.27669066421,0.0
1419804795282.00,1.35242045624,11.564000233,0.933231691546,0.0
1419804795313.00,1.37343369862,11.6383124992,0.942400363208,0.0
1419804795314.00,1.56117248263,11.7856039442,1.46794307408,0.0
1419804795315.00,1.81241010741,12.0527170505,2.19285269147,0.0
1419804795322.00,2.05431025989,12.2795180241,2.58999567344,0.0
1419804795362.00,2.08410373159,12.4983582815,2.69418523713,0.0
1419804795363.00,1.85345838021,12.6012754941,2.76322979606,0.0
1419804795364.00,1.57182675476,12.4290965534,3.02067327799,0.0
1419804795365.00,1.5452337735,11.9436230774,2.85019940432,0.0
1419804795373.00,1.7818466321,11.5972931566,1.74057476408,0.0
1419804795398.00,1.72306366992,12.2005731981,0.0911314987404,0.0
1419804795399.00,1.4093224064,13.2708161649,-1.31031092845,0.0
1419804795402.00,1.14542739009,14.1196614707,-1.98224421319,0.0
1419804795436.00,1.02684832647,14.3014739285,-2.3343863537,14.3014739285
1419804795437.00,1.14162830127,13.3389179551,-3.12531766348,0.0
1419804795438.00,0.998890662589,11.7914552638,-3.98832618299,0.0
1419804795457.00,-0.109831446447,10.9427254206,-3.45667270115,0.0
1419804795457.00,-1.56051907059,10.7279029691,-2.18417645046,0.0
1419804795476.00,-2.63844045141,10.9880999115,-1.16599476797,0.0
1419804795477.00,-3.28484935136,11.5144301617,-0.780224641504,0.0
1419804795483.00,-3.50143727633,12.1578302779,-0.847709226806,0.0
1419804795505.00,-3.51350845277,12.7789046192,-1.01273410868,0.0
1419804795506.00,-3.26959125807,13.1206339875,-1.17840819445,0.0
1419804795525.00,-3.15139984478,13.163141024,-1.13947644857,0.0
1419804795526.00,-2.64931021074,12.246532398,-0.990048780376,0.0
1419804795535.00,-1.87762718205,10.7640586075,-0.852239883196,0.0
1419804795575.00,-0.952885350387,9.57897678055,-0.358022206654,0.0
1419804795576.00,0.000337416577382,8.80572009914,-0.269717511731,0.0
1419804795577.00,0.733823549507,8.4219221708,-0.850885340268,0.0
1419804795578.00,1.08621200328,8.303277753,-1.40231782073,0.0
1419804795601.00,1.22246285349,8.31234388213,-1.75105491289,0.0
1419804795602.00,1.09989891466,8.30824654922,-1.61474282735,0.0
1419804795603.00,0.849669904517,8.1874686131,-0.840155540173,0.0
1419804795625.00,0.490490660376,7.87201479445,-0.144194086455,0.0
1419804795626.00,0.0683907496957,7.52449852228,0.426084859743,0.0
1419804795634.00,-0.259610625651,7.31668169003,0.508131118701,0.0
1419804795656.00,-0.411980341424,7.16882690901,0.20221138216,0.0
1419804795657.00,-0.49788115917,7.00899284176,-0.00516350314427,0.0
1419804795696.00,-0.645939866361,6.85070263197,0.131112506765,0.0
1419804795697.00,-0.954456834136,6.57824121002,0.134672849032,0.0
1419804795699.00,-1.10509898479,6.30058055677,0.225301363728,0.0
1419804795701.00,-1.13290042349,6.19485997618,0.3930700949,0.0
1419804795703.00,-1.06952720628,6.33462171755,0.364996069132,0.0
1419804795729.00,-0.90300470725,6.53945157767,0.416694439753,0.0
1419804795731.00,-0.632674993058,6.67845634,0.737496695721,0.0
1419804795737.00,-0.372113785243,6.79934289329,1.10969147793,0.0
1419804795758.00,-0.0488431222563,7.04921922214,1.33953399616,0.0
1419804795758.00,0.373743399306,7.40253374854,1.62687587978,0.0
1419804795763.00,0.7975996554,8.01182212334,1.96091278071,0.0
1419804795774.00,1.05643475461,9.0794425774,2.37123804637,0.0
1419804795797.00,1.18969321891,10.4144991023,2.50504319769,0.0
1419804795798.00,1.35009324565,11.6524460972,2.33356257956,0.0
1419804795803.00,1.3538235644,12.9644139567,2.09434929414,0.0
1419804795829.00,1.20106582869,14.334862386,1.51711386697,0.0
1419804795831.00,0.796563221918,15.43119812,0.772946365774,0.0
1419804795836.00,0.165107850991,15.8704515165,0.239521526458,0.0
1419804795885.00,0.0416585871762,14.6022389714,1.0012558843,0.0
1419804795886.00,0.183091424073,12.2497100889,2.70302104402,0.0
1419804795887.00,0.0677620355369,10.9456974103,3.90302356657,0.0
1419804795888.00,-0.287478033047,11.503169312,4.22847255673,0.0
1419804795889.00,-0.501938254764,13.3266745822,3.71031777735,0.0
1419804795913.00,-0.307481893879,15.1003731412,1.72734544042,0.0
1419804795914.00,-0.691250405276,16.7654114668,-0.517215889926,0.0
1419804795915.00,-1.45432188781,17.3807390098,-4.70288023197,17.3807390098
1419804795923.00,-3.16463856631,16.5120148432,-6.18257482009,0.0
1419804795944.00,-4.30474725905,13.6898207001,-2.10774135094,0.0
1419804795945.00,-4.15497073198,10.2757564224,0.855389868794,0.0
1419804795954.00,-2.85802727475,7.91084666198,-0.197117011279,0.0
1419804795971.00,-1.72677093337,7.40520978169,-3.98156282316,0.0
1419804795996.00,-0.955088495671,7.2571114042,-6.19615551884,0.0
1419804795997.00,-1.02341733856,7.40607556321,-5.0256681808,0.0
1419804795998.00,-0.8377379406,8.11503213413,-3.90059006459,0.0
1419804796003.00,-0.328150061024,8.81894525107,-3.89844764286,0.0
1419804796028.00,0.276560354066,9.30403057545,-3.95839321061,0.0
1419804796029.00,0.490340680647,9.97433900222,-3.69125141606,0.0
1419804796035.00,0.220159634332,10.8228075689,-3.4263468368,0.0
1419804796064.00,-0.441110869335,11.429904148,-2.6624727478,0.0
1419804796065.00,-0.958125551441,11.3124302776,-1.56397469498,0.0
1419804796066.00,-0.980796412947,10.6881737189,-0.937405115973,0.0
1419804796092.00,-0.857392449414,10.3537618496,-0.815280712766,0.0
1419804796095.00,-0.60591424358,10.1759473487,-1.10702454652,0.0
1419804796096.00,-0.229386138768,9.87275164788,-1.54262456096,0.0
1419804796104.00,-0.0017792055699,9.3435300439,-1.6677464562,0.0
1419804796137.00,0.00989171542971,8.76750773875,-1.3555289887,0.0
1419804796139.00,-0.0461423098898,8.1585631395,-0.799926332504,0.0
1419804796140.00,-0.0614230754313,7.60505152563,-0.311105991263,0.0
1419804796171.00,0.119858046672,7.11819277161,-0.197349436409,0.0
1419804796172.00,0.314107848168,6.7401705996,-0.405678971112,0.0
1419804796173.00,0.384021692704,6.45971748561,-0.557151973768,0.0
1419804796191.00,0.483708912363,6.21300180697,-0.568880739794,0.0
1419804796192.00,0.773999982547,6.03247980686,-0.510407673758,0.0
1419804796194.00,0.995557542178,6.05368305665,-0.202503949928,0.0
1419804796203.00,1.03407331951,6.20962473734,0.320643055779,0.0
1419804796218.00,1.20716065311,6.3707608486,0.900382215265,0.0
1419804796236.00,1.39517309798,6.49120058059,1.62693023914,0.0
1419804796237.00,1.47266167685,6.74113203753,2.28015495103,0.0
1419804796254.00,1.48575026135,7.20792036212,2.46947011127,0.0
1419804796254.00,1.52949642426,7.73018538283,2.27641897507,0.0
1419804796270.00,1.63133450114,8.38459395406,2.04371372603,0.0
1419804796289.00,1.95394585055,9.14854550036,2.85160097676,0.0
1419804796290.00,2.51570819608,9.87917749907,3.61118862931,0.0
1419804796304.00,2.78345358909,10.1788467017,2.81864391358,0.0
1419804796305.00,2.63163644935,10.2887592381,1.71657082077,0.0
1419804796323.00,2.49935875554,9.9828104782,1.42676780435,0.0
1419804796324.00,2.12776530115,9.94799583002,1.07847577196,0.0
1419804796337.00,1.66990559083,10.3834174719,0.56650195334,0.0
1419804796364.00,1.43236973403,10.9784194249,0.641554301729,0.0
1419804796366.00,1.49665478116,11.6348181672,1.30027133035,0.0
1419804796367.00,1.7188778657,12.3760796142,2.17363080189,0.0
1419804796393.00,2.10794902289,12.9919337953,2.88074949401,0.0
1419804796394.00,2.3595514152,13.5537737756,3.04307620412,0.0
1419804796395.00,2.34185363711,13.8855966199,2.42047269079,0.0
1419804796403.00,1.99245991573,13.9288338098,1.08900125939,0.0
1419804796428.00,1.77061765427,13.9210221584,-0.566473387091,0.0
1419804796429.00,1.93689152902,14.1196961147,-1.0474977045,0.0
1419804796435.00,2.07687808258,14.5276945409,-0.30517546689,0.0
1419804796461.00,2.08440245188,15.0039056655,0.310122450022,15.0039056655
1419804796463.00,2.23601030111,14.9072492755,-0.339025397797,0.0
1419804796464.00,1.16264790805,14.1842940629,-1.0094569122,0.0
1419804796494.00,-0.402391783266,13.0073780404,-1.32316878244,0.0
1419804796496.00,-1.9162641973,12.0781422925,-1.08479767949,0.0
1419804796498.00,-3.34299402508,11.5073902804,-0.794858947845,0.0
1419804796505.00,-4.08871205794,11.1995594889,-0.783905956394,0.0
1419804796536.00,-4.42895367445,11.1687181471,-0.754109408356,0.0
1419804796537.00,-4.3013824028,11.0024785875,-1.01273263559,0.0
1419804796539.00,-4.13541429049,10.6886191128,-1.21521850713,0.0
1419804796564.00,-3.95054527979,10.1597381574,-1.15017502685,0.0
1419804796566.00,-3.64439475861,9.29638791611,-0.707653207379,0.0
1419804796567.00,-3.15342814293,8.23424575204,-0.228402883943,0.0
1419804796589.00,-2.72151416605,7.57192053232,-0.442748000737,0.0
1419804796590.00,-1.73909943184,8.1473339437,-0.153647456064,0.0
1419804796595.00,0.104786338337,8.2563662215,-0.0115888767911,0.0
1419804796603.00,1.28832988295,8.37516331739,-0.661813898891,0.0
1419804796617.00,1.57124739261,8.72588528702,-1.56297752155,0.0
1419804796638.00,1.50337185755,9.00656632503,-2.02171946679,0.0
1419804796639.00,1.40913150475,8.98482636398,-1.98930115084,0.0
1419804796654.00,1.22455194596,8.8240232652,-1.44790226275,0.0
1419804796655.00,0.91803784803,8.55152920837,-0.764442715011,0.0
1419804796668.00,0.644991935857,8.06782925464,-0.355325432752,0.0
1419804796682.00,0.237059072844,7.62827811948,0.0316916620084,0.0
1419804796684.00,-0.0823487185996,7.28193517411,0.393600104384,0.0
1419804796699.00,-0.350883417096,7.11164521533,0.589536840599,0.0
1419804796703.00,-0.593185873571,7.0591288447,0.58921332267,0.0
1419804796715.00,-0.733243500243,7.01476748943,0.580036153244,0.0
1419804796734.00,-0.811984454061,6.90979769571,0.411374060283,0.0
1419804796735.00,-0.826818491431,6.72255033289,0.392183500466,0.0
1419804796759.00,-0.864567333106,6.63431105034,0.553788526455,0.0
1419804796760.00,-0.869165789207,6.61280243403,0.654681673875,0.0
1419804796764.00,-0.808159461049,6.68320447257,0.822369042771,0.0
1419804796790.00,-0.631699180453,6.84907818999,1.25326115747,0.0
1419804796791.00,-0.347261703233,7.05308658647,1.82090154492,0.0
1419804796795.00,0.0174479254918,7.43578612584,2.26354906666,0.0
1419804796804.00,0.324421231645,8.08462866014,2.63836613402,0.0
1419804796818.00,0.478163711941,8.98566621526,2.94155885035,0.0
1419804796836.00,0.636338163764,10.1065039835,3.02128308576,0.0
1419804796838.00,0.816511817487,11.2639792248,2.95727057923,0.0
1419804796853.00,0.890459327296,12.5108697963,2.81494685451,0.0
1419804796870.00,1.03432126581,13.752813621,2.51966150876,0.0
1419804796871.00,0.96509793062,15.0494403736,1.93992222402,0.0
1419804796888.00,0.965265849375,15.693285274,0.866865480403,0.0
1419804796889.00,1.087196516,15.0452212131,0.805533197499,0.0
1419804796895.00,1.30861124303,13.0719514541,2.21554430892,0.0
1419804796903.00,1.04539148666,11.4405390833,3.40261785519,0.0
1419804796917.00,0.380454466538,11.2849575609,3.57232614786,0.0
1419804796934.00,-0.0984675724863,12.7501290144,2.87612842161,0.0
1419804796935.00,-0.308583759991,14.7376538132,0.80172793996,0.0
1419804796954.00,-0.820741244503,16.7574185784,-1.39524697356,0.0
1419804796972.00,-1.56266107086,18.1232154803,-5.5270574599,18.1232154803
1419804796973.00,-3.2995296572,17.6129327264,-7.28805590073,0.0
1419804796975.00,-4.68514497626,14.1435587259,-2.87688921499,0.0
1419804796984.00,-4.54947272501,9.87150466331,0.396015202944,0.0
1419804797008.00,-2.77584603625,6.82320754438,-0.471822512284,0.0
1419804797010.00,-1.16030537038,5.57755775108,-2.95545799692,0.0
1419804797015.00,-0.569289016244,5.6673086993,-4.99541950666,0.0
1419804797042.00,-0.339445610038,6.17452708456,-4.7626413836,0.0
1419804797043.00,-0.361564051653,7.74946504818,-3.98512491551,0.0
1419804797044.00,-0.466669649325,9.2065872709,-3.86217414932,0.0
1419804797066.00,-0.253991265591,10.124491737,-3.3908513755,0.0
1419804797067.00,0.138540483253,10.6901708524,-3.06655906416,0.0
1419804797084.00,0.0269619994991,11.4809414486,-2.92941692073,0.0
1419804797085.00,-0.669799256563,12.2725938547,-2.72762198566,0.0
1419804797105.00,-1.28972490555,12.4332580697,-1.75685217262,0.0
1419804797106.00,-1.32234909592,11.8808978075,-0.325891214791,0.0
1419804797116.00,-0.864982644266,11.1626223509,0.404395823951,0.0
1419804797136.00,-0.369581010854,10.7248213365,0.0112511485326,0.0
1419804797138.00,0.0630126230807,10.4023087714,-1.10347754469,0.0
1419804797156.00,0.452388536131,9.98030395737,-1.82356292368,0.0
1419804797158.00,0.713512248014,9.31710503254,-1.6657172365,0.0
1419804797165.00,0.669010750426,8.5451728266,-1.0766378532,0.0
1419804797190.00,0.556147905122,7.64122994728,-0.560268202402,0.0
1419804797191.00,0.443680539952,6.94545638007,-0.24002898851,0.0
1419804797195.00,0.473835966805,6.44658209107,-0.266118335493,0.0
1419804797217.00,0.574463153538,6.19433902313,-0.577770492865,0.0
1419804797218.00,0.712991360975,5.9994174121,-0.924435041837,0.0
1419804797234.00,0.853790986216,5.90103580717,-0.990591859567,0.0
1419804797249.00,1.09698238443,5.90067501917,-0.874088918073,0.0
1419804797250.00,1.24191576418,6.18343759506,-0.741027983631,0.0
1419804797265.00,1.21624210001,6.50951555829,-0.552923125514,0.0
1419804797266.00,1.30075796622,6.53900776406,-0.0257829244656,0.0
1419804797283.00,1.3903595941,6.57952312939,0.892990436522,0.0
1419804797284.00,1.20159168251,6.93337884368,2.00454905825,0.0
1419804797297.00,1.09384957222,7.3151525303,2.83757318999,0.0
1419804797315.00,1.0800826516,7.81902224479,2.96673638503,0.0
1419804797316.00,1.14687406469,8.39645397627,2.54003019637,0.0
1419804797330.00,1.29203259512,9.02254951211,2.40643807585,0.0
1419804797336.00,1.57267527034,9.682266967,3.19282839099,0.0
1419804797352.00,2.02048648797,10.3109062549,3.73654323715,0.0
1419804797368.00,2.14461204016,10.6282493644,2.74158569202,0.0
1419804797369.00,1.65058901743,10.5612689266,1.69929630849,0.0
1419804797387.00,1.11830987576,10.7477718749,1.2639432914,0.0
1419804797387.00,0.890221581561,11.1904157469,1.22578899431,0.0
1419804797395.00,0.872057732775,11.6434728478,1.55413334474,0.0
1419804797415.00,1.08510627699,12.0318933498,2.18961310983,0.0
1419804797417.00,1.51359434101,12.5014880937,2.91173080536,0.0
1419804797432.00,2.04407938835,13.0497327,3.33079182248,0.0
1419804797436.00,2.31803309091,13.6337420242,3.3455011618,0.0
1419804797449.00,2.43179268677,13.8683214793,2.90285463665,0.0
1419804797464.00,2.43940874435,13.7101647732,1.71879080972,0.0
1419804797465.00,2.32137541005,13.7349922801,0.0283299518015,0.0
1419804797482.00,2.41691022077,14.0395398925,-0.834050528568,0.0
1419804797484.00,2.153304005,14.7960766158,-0.792474816573,0.0
1419804797498.00,2.01628407914,15.343548457,-0.684650330936,15.343548457
1419804797514.00,2.04793820553,15.1505482795,-0.925722062361,0.0
1419804797516.00,1.61384086868,14.3352066683,-1.52755985719,0.0
1419804797530.00,0.338409123655,12.9549342798,-2.05323774353,0.0
1419804797536.00,-1.27548917152,11.6171354876,-1.8312168308,0.0
1419804797547.00,-2.72729409949,10.6696822816,-1.11789418098,0.0
1419804797563.00,-3.68358583163,10.200685922,-0.474503970949,0.0
1419804797566.00,-3.86973819131,10.0462671508,-0.318527948658,0.0
1419804797586.00,-4.06773347145,10.3946947029,-0.517545618798,0.0
1419804797587.00,-4.3486000098,10.8175162094,-0.95245404037,0.0
1419804797599.00,-4.39077096859,10.9685253406,-1.23380905835,0.0
1419804797621.00,-4.03520182339,10.6336404618,-0.92767118984,0.0
1419804797632.00,-3.50762251054,10.1453801721,-0.228885714133,0.0
1419804797633.00,-3.02075816759,9.29646033329,-0.154838824437,0.0
1419804797636.00,-2.03691673884,9.00268715703,-0.137834377083,0.0
1419804797662.00,-0.366988426541,8.80011478408,0.216371806214,0.0
1419804797664.00,1.16262478749,8.53014490978,-0.18552002871,0.0
1419804797665.00,1.74993893963,8.57436656003,-1.0232408183,0.0
1419804797691.00,1.82087408588,8.66861266383,-1.62182329229,0.0
1419804797692.00,1.85358781775,8.58749527741,-1.76536324079,0.0
1419804797696.00,1.75322746147,8.53190424383,-1.59759156051,0.0
1419804797716.00,1.50190328763,8.50314681912,-1.07159151799,0.0
1419804797716.00,1.30470451919,8.33859548187,-0.618990051219,0.0
1419804797731.00,1.22019702814,7.84266908243,-0.362362555319,0.0
1419804797747.00,0.994552419298,7.21031198987,-0.0714077954718,0.0
1419804797748.00,0.789221476354,6.69838930884,0.147479951296,0.0
1419804797764.00,0.412858903439,6.44255284577,0.184357423832,0.0
1419804797766.00,-0.0862747365506,6.41293227893,0.0394038377185,0.0
1419804797783.00,-0.392702076199,6.28841998284,-0.154035002247,0.0
1419804797784.00,-0.507519117514,6.20092764231,-0.0565026382926,0.0
1419804797796.00,-0.591317889655,6.25832545854,-0.0023942105851,0.0
1419804797812.00,-0.60840433073,6.43614329662,-0.0800647433835,0.0
1419804797816.00,-0.5519258996,6.5374266307,0.102024971467,0.0
1419804797830.00,-0.525357724185,6.56107272251,0.720955240022,0.0
1419804797844.00,-0.32338935724,6.76679511272,1.1657669112,0.0
1419804797845.00,-0.0817030560661,7.2990948963,1.55853392131,0.0
1419804797862.00,0.0845772525757,8.16197745466,2.16111150617,0.0
1419804797864.00,0.134322934924,9.35177520614,2.97287273831,0.0
1419804797879.00,0.00716888323706,10.8727129129,3.69216003003,0.0
1419804797885.00,0.140408165999,12.3189598636,3.84208083339,0.0
1419804797897.00,0.319980190107,13.6458547849,3.40777022523,0.0
1419804797912.00,0.337453779958,14.6447523023,2.84482161546,0.0
1419804797916.00,0.320106499855,15.1031955443,2.3212832258,0.0
1419804797932.00,0.189817916563,14.9995469478,1.38323257394,0.0
1419804797944.00,0.247485801617,14.0699349326,0.578499172066,0.0
1419804797945.00,0.419642066055,12.2701928513,1.62476691319,0.0
1419804797962.00,0.116100194426,11.1819261565,3.00756283454,0.0
1419804797964.00,-0.584273167175,12.0035571938,3.2331541398,0.0
1419804797980.00,-0.43379194919,16.4165049605,0.316943816769,0.0
1419804798006.00,-0.668008997243,18.8371886682,-2.39492008812,0.0
1419804798008.00,-1.67331642454,19.1478918357,-5.86951365894,19.1478918357
1419804798009.00,-3.46966199789,16.3511775573,-2.886289913,0.0
1419804798016.00,-3.92621197413,11.8001735848,1.4271690025,0.0
1419804798038.00,-2.78730653404,8.13207385885,0.979321792226,0.0
1419804798039.00,-1.72577843283,6.67176981366,-2.10644105524,0.0
1419804798044.00,-0.939551460542,6.47112245679,-5.18026465965,0.0
1419804798066.00,-0.720690206271,6.70127938877,-5.80556153161,0.0
1419804798066.00,-0.788447427135,7.73703058419,-4.72107610659,0.0
1419804798084.00,-0.430782104447,8.74153756971,-4.56388490901,0.0
1419804798098.00,0.0192177943167,9.30371416378,-4.75671833514,0.0
1419804798099.00,0.204429994034,9.89129992709,-4.35739428995,0.0
1419804798116.00,-0.0310836111534,10.5497645198,-3.80361980515,0.0
1419804798117.00,-0.4324511688,11.0854144507,-3.14415527858,0.0
1419804798129.00,-0.860622387111,11.2518069449,-2.08239917775,0.0
1419804798143.00,-1.08952788905,10.914334121,-0.876577903625,0.0
1419804798144.00,-0.983094274405,10.4767297171,-0.293445634584,0.0
1419804798160.00,-0.690352386324,10.2456775881,-0.473201530356,0.0
1419804798165.00,-0.424966232613,10.1230586562,-0.882855748381,0.0
1419804798177.00,0.00968328197866,9.6592346598,-1.09072558288,0.0
1419804798195.00,0.123274456903,9.1106699049,-0.990195310249,0.0
1419804798196.00,0.157429258681,8.32962240007,-0.838976552068,0.0
1419804798217.00,0.0732277937664,7.54102007086,-0.717952352042,0.0
1419804798217.00,-0.0920239899005,6.91689437354,-0.609656191792,0.0
1419804798236.00,-0.155656256607,6.41538719251,-0.652087810879,0.0
1419804798237.00,-0.0481320328044,6.13527315781,-0.820585635112,0.0
1419804798245.00,0.00608900484008,5.98886695391,-0.949701439292,0.0
1419804798265.00,0.394612299807,5.76405052991,-1.02625802622,0.0
1419804798266.00,0.819859686647,5.7302642853,-0.919202644514,0.0
1419804798281.00,1.02343401029,6.01169487149,-0.617153148822,0.0
1419804798304.00,1.10583251286,6.35849273053,-0.140654402046,0.0
1419804798305.00,1.18528327469,6.56669737098,0.747613362108,0.0
1419804798306.00,1.26825497041,6.82576888145,1.84766499201,0.0
1419804798340.00,1.27921971539,7.28128199014,2.63149594178,0.0
1419804798341.00,1.14522227713,7.9334856875,2.90773317252,0.0
1419804798342.00,1.23043671872,8.54930678041,2.49055519767,0.0
1419804798345.00,1.39623553408,9.11322967848,1.71777939568,0.0
1419804798363.00,1.39791520941,9.64163269012,1.46092940684,0.0
1419804798366.00,1.54600276465,9.84802637565,1.98658226631,0.0
1419804798378.00,1.75057479092,10.0270080928,2.7616454309,0.0
1419804798406.00,1.99722027428,10.371599052,3.02491243106,0.0
1419804798407.00,2.13565491844,10.8028705688,1.95599041341,0.0
1419804798409.00,1.71930461885,11.1586755789,0.823736351843,0.0
1419804798417.00,1.21659264251,11.4444324472,1.07023987142,0.0
1419804798440.00,1.07518419566,11.7556611816,2.05789436964,0.0
1419804798441.00,1.15559229042,12.0698615251,2.85113391971,0.0
1419804798445.00,1.34003265076,12.4151998219,3.23132543508,0.0
1419804798463.00,1.56043857366,12.8723653106,3.18427047343,0.0
1419804798465.00,1.69646823993,13.3753216763,2.92425855879,0.0
1419804798478.00,1.86232830065,13.495074412,2.58015140913,0.0
1419804798506.00,2.11016489648,13.2732083574,1.83629717484,0.0
1419804798507.00,2.39249583446,13.1129101114,0.489901919273,0.0
1419804798508.00,2.37800088027,13.5632625798,-0.688726168974,0.0
1419804798517.00,2.27960082967,14.322671125,-0.908171834208,0.0
1419804798538.00,2.22553445295,15.010328077,-0.850875063084,0.0
1419804798539.00,2.21835809216,15.2426343084,-1.05272443814,15.2426343084
1419804798546.00,1.9828350632,14.5803539927,-1.60879889132,0.0
1419804798562.00,1.4199681154,13.0045018603,-2.3815547137,0.0
1419804798565.00,0.421954160364,11.1021490643,-2.75894846279,0.0
1419804798581.00,-1.01732471327,9.95369521485,-2.0505263028,0.0
1419804798602.00,-2.63678604874,9.68048886913,-0.987940529476,0.0
1419804798603.00,-3.34298743889,9.63746248542,-0.677785806003,0.0
1419804798606.00,-3.5072644658,10.0508059033,-0.560104344112,0.0
1419804798635.00,-3.76297886287,10.7821536159,-0.734463120595,0.0
1419804798636.00,-3.7066783158,11.2767363775,-0.902270077572,0.0
1419804798637.00,-3.66128361916,11.6264905725,-0.794278041661,0.0
1419804798645.00,-3.25747859613,11.5057244955,-0.715828168588,0.0
1419804798660.00,-2.90019303429,11.1477931486,-0.15986334438,0.0
1419804798666.00,-2.23618149902,10.4269592519,0.219916490419,0.0
1419804798679.00,-1.04327108092,9.99318951839,0.438605645795,0.0
1419804798703.00,0.480670670601,9.78934718326,0.599612651226,0.0
1419804798704.00,1.47512071601,9.6120593241,0.0568962084762,0.0
1419804798706.00,1.95267842684,9.60159531641,-1.11091222034,0.0
1419804798741.00,2.06571469591,9.52741783971,-1.98549230514,0.0
1419804798743.00,1.97619568098,9.1327104192,-2.01032317534,0.0
1419804798744.00,1.71463636587,8.57875109904,-1.36923641802,0.0
1419804798746.00,1.2277071113,8.12767745695,-0.799270432892,0.0
1419804798777.00,0.894115499463,7.57513033566,-0.693249956814,0.0
1419804798778.00,0.600372695334,6.81941404676,-1.16564659353,0.0
1419804798780.00,-0.0100427510314,6.43015436306,-1.22911622668,0.0
1419804798801.00,-0.452168305117,6.19435521217,-0.817661782896,0.0
1419804798803.00,-0.534407268205,6.07281883754,-0.372049496062,0.0
1419804798806.00,-0.620155169212,6.31238727646,-0.0958447224177,0.0
1419804798835.00,-0.693511615313,6.61029044542,0.104191104337,0.0
1419804798837.00,-0.66333554299,6.72285516225,0.355582177513,0.0
1419804798838.00,-0.738039330531,6.75243457676,0.585647076091,0.0
1419804798846.00,-0.850113791441,6.68077434949,0.745288519367,0.0
1419804798884.00,-0.910427967801,6.59702547751,0.942192827715,0.0
1419804798886.00,-0.917429400248,6.61082946942,1.21137869095,0.0
1419804798887.00,-0.836700655995,6.79559952374,1.5926479004,0.0
1419804798909.00,-0.654332201711,7.15775154114,1.97021278435,0.0
1419804798910.00,-0.346987738172,7.67008750549,2.29002227041,0.0
1419804798911.00,-0.0671216903353,8.51031740476,2.68487161691,0.0
1419804798933.00,0.0806341862991,9.62514525128,3.03049040298,0.0
1419804798935.00,0.347843762338,10.7987189901,3.00894388633,0.0
1419804798956.00,0.596620799083,12.0149940423,2.54419172338,0.0
1419804798958.00,0.892808594097,13.2029246667,1.71326426749,0.0
1419804798959.00,0.921545461597,14.2820771162,1.14498861163,0.0
1419804798988.00,0.877836625149,15.0034438844,0.704059738162,0.0
1419804798988.00,0.51068355813,15.0577788083,0.405239901317,0.0
1419804798989.00,0.315801175554,14.0878296622,1.19647132635,0.0
1419804798997.00,0.331145253503,12.3804430272,2.89867829837,0.0
1419804799013.00,-0.128582456141,11.6859548802,3.91787076555,0.0
1419804799027.00,-0.70396117823,12.8400765355,3.82501676228,0.0
1419804799028.00,-0.602544575271,14.6058614513,2.50701941642,0.0
1419804799053.00,-0.607947122495,16.4226670722,0.844076925835,0.0
1419804799054.00,-0.864283268737,18.4149149557,-2.27758484998,0.0
1419804799057.00,-1.90417975818,18.7685819544,-6.72219736125,18.7685819544
1419804799083.00,-3.79711638843,16.5137062943,-4.19464429106,0.0
1419804799084.00,-3.89154809437,11.8903339336,1.47843812526,0.0
1419804799086.00,-2.27369296128,7.82928163024,1.83424080887,0.0
1419804799097.00,-0.809789383604,5.87733248412,-1.0187520099,0.0
1419804799119.00,-0.498009638525,5.79229706185,-4.32158358083,0.0
1419804799120.00,-0.155670704347,5.9208945572,-5.71864828137,0.0
1419804799126.00,-0.262610591012,6.70172312026,-4.8044750515,0.0
1419804799161.00,-0.330786648019,8.00216182626,-3.91332098368,0.0
1419804799162.00,-0.0917585082653,9.10661619443,-4.01350679905,0.0
1419804799164.00,0.159890707524,10.0621995664,-4.12307945647,0.0
1419804799189.00,0.194435496279,11.0228652456,-3.76107820038,0.0
1419804799190.00,-0.367770107185,11.9593694575,-3.38864471911,0.0
1419804799190.00,-1.05785627176,12.2609488115,-2.47607023887,0.0
1419804799197.00,-1.32971670394,11.7947054117,-1.29242242484,0.0
1419804799213.00,-1.2339836159,11.1926348828,-0.676070236254,0.0
1419804799227.00,-1.02564297791,10.6745727243,-0.741069298971,0.0
1419804799228.00,-0.647474924934,10.2005347805,-1.19439024548,0.0
1419804799243.00,-0.41920994306,9.65829352679,-1.50480648166,0.0
1419804799246.00,-0.387348414649,8.99388783057,-1.32586730096,0.0
1419804799258.00,-0.614898695617,8.27096694689,-0.762027121084,0.0
1419804799275.00,-0.593528409248,7.48666626391,-0.262215155983,0.0
1419804799277.00,-0.376215606125,6.80817324195,0.0155251369416,0.0
1419804799302.00,-0.261744916206,6.48059136422,-0.172298348065,0.0
1419804799303.00,-0.0854249398674,6.28692813525,-0.683946208671,0.0
1419804799307.00,0.144844305546,6.1391555056,-1.13807146111,0.0
1419804799333.00,0.481778575298,5.99718834056,-1.35528721602,0.0
1419804799335.00,0.759869981314,6.01926380553,-1.20897257658,0.0
1419804799337.00,0.883147667261,6.27946193633,-0.866759769603,0.0
1419804799346.00,0.943291668195,6.47779695085,-0.372792954544,0.0
1419804799358.00,1.01409158243,6.58677586279,0.422134353158,0.0
1419804799380.00,1.08443451392,6.79654487344,1.33928246916,0.0
1419804799381.00,1.08346173138,7.09181951878,1.90479083481,0.0
1419804799403.00,0.979266105657,7.47621372915,1.93363442954,0.0
1419804799405.00,0.98845794844,7.89542754151,1.69033061477,0.0
1419804799406.00,0.96181513914,8.44584811561,1.35724259696,0.0
1419804799432.00,1.010490566,8.91983284539,1.51959934818,0.0
1419804799433.00,1.19811452592,9.35065533876,2.38371096897,0.0
1419804799437.00,1.64255106199,9.76954360977,3.60607356269,0.0
1419804799462.00,2.08761687425,10.2713045748,3.46293831044,0.0
1419804799463.00,2.15083033305,10.8476747432,1.66083776856,0.0
1419804799480.00,1.7842072276,11.1788521465,0.426087926552,0.0
1419804799481.00,1.44959670591,11.4723191396,0.891302154767,0.0
1419804799510.00,1.42900692905,12.361834416,2.61925897354,0.0
1419804799511.00,1.75422398849,12.8154751284,2.99338716571,0.0
1419804799512.00,2.08903840262,13.2326617109,2.99299991623,0.0
1419804799531.00,2.18644095161,13.6574477117,2.69957934687,0.0
1419804799532.00,2.09922523308,13.7356134176,2.15363796723,0.0
1419804799538.00,1.99314905337,13.602360239,1.1843945482,0.0
1419804799546.00,2.07613077352,13.4714014061,-0.0789110004867,0.0
1419804799559.00,2.28489411833,13.7924198712,-0.642852024898,0.0
1419804799575.00,2.3218966891,14.3534365456,-0.479094455339,0.0
1419804799579.00,2.41190335519,14.9366547204,-0.316672020998,0.0
1419804799595.00,2.56191808539,15.0446760066,-0.358761993407,15.0446760066
1419804799611.00,2.4102104054,14.4288556054,-0.776868526034,0.0
1419804799612.00,1.68836475809,12.8744695831,-1.46154830185,0.0
1419804799626.00,0.372865810067,11.2269306723,-1.66579863146,0.0
1419804799627.00,-1.18994723841,10.1470382551,-1.11830954677,0.0
1419804799647.00,-2.67328859595,9.77559602545,-0.312122321414,0.0
1419804799647.00,-3.68555686113,9.91839223344,-0.155386462581,0.0
1419804799661.00,-3.8905599966,10.2318796535,-0.558496536223,0.0
1419804799676.00,-3.94040629524,10.6440805789,-1.19207196687,0.0
1419804799678.00,-4.02883433502,10.9133633039,-1.73865392417,0.0
1419804799693.00,-3.78230065165,10.8927269849,-1.71703636012,0.0
1419804799709.00,-3.33955046105,10.5657970908,-1.09769480963,0.0
1419804799709.00,-2.73182257964,9.97113265253,-0.368752424926,0.0
1419804799724.00,-2.3379188443,9.41569987687,0.339237855048,0.0
1419804799726.00,-1.19483298995,9.37812615978,0.547479503576,0.0
1419804799742.00,0.296162670442,9.31193153931,0.109671202762,0.0
1419804799758.00,1.30741086659,9.42441671135,-0.683590272392,0.0
1419804799760.00,1.49913541183,9.67012068828,-1.65403264605,0.0
1419804799775.00,1.55931550334,9.76673072743,-2.20896384028,0.0
1419804799778.00,1.58658947959,9.58771230827,-1.97237775847,0.0
1419804799792.00,1.4176877511,9.20207971464,-1.30812903189,0.0
1419804799808.00,1.20203179567,8.53508303655,-0.83519961982,0.0
1419804799809.00,0.810136062201,7.66965484903,-0.496844387427,0.0
1419804799825.00,0.336889935581,7.00775917526,-0.351060673875,0.0
1419804799826.00,-0.111933117069,6.64855501716,-0.281666331673,0.0
1419804799842.00,-0.476273030196,6.50252043494,-0.154838109543,0.0
1419804799846.00,-0.73109720873,6.50049287312,0.0031352884723,0.0
1419804799858.00,-0.873150380567,6.56361647004,0.0949013788341,0.0
1419804799873.00,-0.804271923499,6.47279251825,0.324322648893,0.0
1419804799877.00,-0.823272660623,6.48102903786,0.620365710853,0.0
1419804799899.00,-0.861270923015,6.56976259699,0.613210113487,0.0
1419804799900.00,-0.809097058082,6.57282504232,0.589360124774,0.0
1419804799906.00,-0.74573509746,6.54807132447,0.894669219873,0.0
1419804799929.00,-0.574656266594,6.60438813841,1.2765960417,0.0
1419804799930.00,-0.271392925829,6.73007545458,1.55475691676,0.0
1419804799945.00,0.115682143981,7.14660902425,1.81085547574,0.0
1419804799946.00,0.4470447334,7.86783718433,2.19824448704,0.0
1419804799964.00,0.54293928925,8.97171200338,2.55577544039,0.0
1419804799966.00,0.621849123556,10.351574716,2.69103980686,0.0
1419804799977.00,0.857622409001,11.8297513618,2.66853246853,0.0
1419804799999.00,1.07702909371,13.2810226251,2.49460528479,0.0
1419804800000.00,1.12979806739,14.6251520235,2.19099659444,0.0
1419804800006.00,1.10427876641,15.6356821901,1.542494259,0.0
1419804800035.00,0.907081152557,15.8495821662,0.671201700258,0.0
1419804800036.00,0.866588327963,14.7133739983,1.33904617036,0.0
1419804800038.00,0.904352204678,12.5745773639,3.16574137435,0.0
1419804800066.00,0.445935755148,11.4394422587,4.12989256277,0.0
1419804800067.00,-0.409989979372,12.1773857645,4.15726408021,0.0
1419804800068.00,-0.514243560182,13.9516245959,2.58537527287,0.0
1419804800081.00,-0.75765164059,16.0359324682,0.319175087591,0.0
1419804800102.00,-1.76665618574,18.2142740065,-3.41543707598,0.0
1419804800104.00,-3.51559989146,19.0258575213,-7.53031029996,19.0258575213
1419804800109.00,-5.65088024369,16.8260386725,-4.21881884575,0.0
1419804800149.00,-6.1911246412,12.4903783015,0.874478744007,0.0
1419804800150.00,-4.34863710692,8.37451370897,0.912808603567,0.0
1419804800151.00,-2.41443175117,6.28379741231,-1.54301458611,0.0
1419804800151.00,-1.48713977189,6.12235746539,-4.42461129042,0.0
1419804800158.00,-0.93632580383,6.25528352738,-5.5961105403,0.0
1419804800177.00,-1.11427085144,7.18714186204,-4.78473942541,0.0
1419804800178.00,-0.89831911348,8.10169997742,-4.43912457635,0.0
1419804800193.00,-0.372639621086,8.61682141043,-4.45174842849,0.0
1419804800214.00,0.161790034688,9.16288606538,-4.14922368566,0.0
1419804800215.00,0.266722342949,10.0294573198,-3.76532086977,0.0
1419804800218.00,-0.292751909843,11.0148462958,-3.10516253026,0.0
1419804800227.00,-0.833468794263,11.4132641424,-1.80811230362,0.0
1419804800254.00,-0.960276498602,10.9987730783,-0.47040001125,0.0
1419804800255.00,-0.670041012061,10.3589101807,-0.0460834454859,0.0
1419804800259.00,-0.389493848326,10.0412207035,-0.4511518997,0.0
1419804800286.00,-0.165803903536,9.86304150514,-1.15357240682,0.0
1419804800287.00,0.154233796107,9.49763279844,-1.66499121526,0.0
1419804800288.00,0.320107913187,8.96618554787,-1.64579580602,0.0
1419804800314.00,0.230003151241,8.22879712325,-1.0972541688,0.0
1419804800314.00,0.0713778145855,7.42540815658,-0.429889320141,0.0
1419804800318.00,0.00839267011307,6.78009504209,-0.0863165237655,0.0
1419804800327.00,0.175287472781,6.20576178444,-0.163825161759,0.0
1419804800352.00,0.214142140001,5.96686907375,-0.454447311144,0.0
1419804800353.00,0.262947951106,6.07713047044,-0.644189419398,0.0
1419804800358.00,0.531886207057,6.14469388623,-0.742322395673,0.0
1419804800377.00,0.79400266058,6.23229325616,-0.64392026897,0.0
1419804800378.00,0.983061978128,6.42965178282,-0.151849804475,0.0
1419804800393.00,1.17976586592,6.61638825846,0.537385121676,0.0
1419804800408.00,1.35886380811,6.72632237279,1.2627088742,0.0
1419804800409.00,1.33784627602,6.99353889749,2.19887526595,0.0
1419804800427.00,1.38189450287,7.4365703675,2.68963699194,0.0
1419804800428.00,1.53072198478,8.00562286627,2.69060234409,0.0
1419804800447.00,1.62403407393,8.68460905323,2.52192991764,0.0
1419804800448.00,1.67644659295,9.3248163711,2.2287133972,0.0
1419804800458.00,1.81988184348,9.82621863813,2.09595260505,0.0
1419804800475.00,1.96606680834,10.1524258727,2.18623010841,0.0
1419804800510.00,2.31257572072,10.5099317693,2.68383810341,0.0
1419804800511.00,2.59231113987,11.1168403473,2.59335986213,0.0
1419804800512.00,2.45536126635,11.5069894732,0.871877811375,0.0
1419804800513.00,1.77129369586,11.7044367271,0.198547036992,0.0
1419804800545.00,1.2980625548,11.8284099308,1.25786168881,0.0
1419804800548.00,1.16721442733,12.0519691941,2.43595111744,0.0
1419804800549.00,1.27324118084,12.3432904084,3.20826626744,0.0
1419804800550.00,1.49623703452,12.6019033811,3.39875355669,0.0
1419804800559.00,1.58572031216,12.9904815727,3.11279240696,0.0
1419804800586.00,1.55700118465,13.2907328475,2.79295486626,0.0
1419804800587.00,1.62283360519,13.2518550488,2.20872655934,0.0
1419804800588.00,1.77000808651,13.0838073937,0.957185694345,0.0
1419804800617.00,1.7548583984,13.3875870735,-0.241677849007,0.0
1419804800619.00,1.80416057498,14.0988082903,-0.465898080705,0.0
1419804800620.00,1.85509161444,14.8050543581,-0.42740644306,0.0
1419804800627.00,2.00653203429,15.1074018536,-0.771226009057,15.1074018536
1419804800650.00,1.82616814976,14.6316625222,-1.52398985874,0.0
1419804800651.00,1.18096563027,13.1165299664,-2.36331356405,0.0
1419804800660.00,0.176414935915,11.1327859157,-2.66162174806,0.0
1419804800677.00,-1.64775163124,10.0422508023,-1.78250610811,0.0
1419804800695.00,-3.18720506136,9.76955656743,-0.744371190092,0.0
1419804800695.00,-3.75597988901,10.1336005073,-0.351411973014,0.0
1419804800698.00,-3.70617425392,10.7456566575,-0.762982358748,0.0
1419804800707.00,-3.69496939662,11.4371331888,-1.47603295376,0.0
1419804800724.00,-3.73915225577,12.1662917767,-1.64770900503,0.0
1419804800727.00,-3.55145837162,12.4009896847,-1.10889959803,0.0
1419804800750.00,-3.05362232363,12.0775390651,-0.27504843263,0.0
1419804800751.00,-2.73817537957,11.5272381687,0.592073512893,0.0
1419804800759.00,-2.03602815352,10.3998319915,0.810278095691,0.0
1419804800793.00,-0.882906529767,9.68001795411,0.401755225748,0.0
1419804800794.00,0.242918102599,9.37943289259,-0.0736305169822,0.0
1419804800794.00,1.08043042893,9.08156899545,-1.00099939693,0.0
1419804800812.00,1.19197110669,9.13250309066,-2.16386232284,0.0
1419804800813.00,1.1477969226,9.00790934361,-2.70917319979,0.0
1419804800819.00,1.05598826354,8.44335706865,-2.24625801898,0.0
1419804800853.00,0.687049828923,7.73502409985,-1.45750887296,0.0
1419804800854.00,0.303581092134,6.89659876201,-1.05746072461,0.0
1419804800855.00,-0.108012112215,6.21680781356,-0.949422860382,0.0
1419804800859.00,-0.564731192419,5.90084287195,-1.00986416994,0.0
1419804800879.00,-0.686910125689,5.69238962969,-1.06972689373,0.0
1419804800880.00,-0.581214105129,5.59795061503,-0.947682884049,0.0
1419804800888.00,-0.560568232042,5.84081399621,-0.506463473347,0.0
1419804800912.00,-0.688870670193,6.26542959932,-0.0159265442911,0.0
1419804800913.00,-0.66001047039,6.42577928438,0.423952552611,0.0
1419804800919.00,-0.638796556306,6.47244604964,0.912872031245,0.0
1419804800953.00,-0.679683982194,6.50455827275,1.23106664255,0.0
1419804800955.00,-0.732118712197,6.55504412046,1.40855635679,0.0
1419804800957.00,-0.766992679885,6.70702167763,1.45048727736,0.0
1419804800962.00,-0.718216076738,6.97299064835,1.48617745065,0.0
1419804800982.00,-0.487837089383,7.29100359144,1.60846437817,0.0
1419804800983.00,-0.330228717403,7.92454690726,1.8574267625,0.0
1419804800988.00,-0.27026850499,9.03693850921,2.28377243011,0.0
1419804801008.00,0.0513704300352,10.3192085672,2.64590567809,0.0
1419804801009.00,0.61089725075,11.5304303803,2.82401853162,0.0
1419804801023.00,1.53533596088,14.0838036523,2.47187404631,0.0
1419804801044.00,1.51589319867,15.38134685,1.97642977073,0.0
1419804801045.00,1.16376503413,16.1364810714,1.11228890619,0.0
1419804801048.00,0.806477507131,15.871096925,0.588802300205,0.0
1419804801059.00,0.810585539639,13.8566056734,2.22302085533,0.0
1419804801073.00,0.680250925045,11.766061463,4.20722032619,0.0
1419804801115.00,0.380304272323,11.1533512142,4.63156760432,0.0
1419804801118.00,0.0659190689202,12.0106131472,4.47993070055,0.0
1419804801122.00,0.195133040936,13.4691854623,2.96768445585,0.0
1419804801123.00,-0.134916222258,15.2652043291,0.590485475282,0.0
1419804801125.00,-1.19822251533,17.0426580269,-3.92858425705,0.0
1419804801152.00,-2.92935178265,17.3209113461,-8.26947733624,17.3209113461
1419804801153.00,-5.02802048149,15.4550011739,-5.4532109239,0.0
1419804801154.00,-5.34629936182,11.3392993252,-0.396638306201,0.0
1419804801159.00,-3.70995922184,7.74269434559,0.0797241912731,0.0
1419804801175.00,-1.99993647262,6.27465975855,-2.21587336707,0.0
1419804801195.00,-1.04238010438,6.3094880003,-5.07690103373,0.0
1419804801197.00,-0.447742075248,6.68753913795,-6.01061302529,0.0
1419804801201.00,-0.55918724786,8.02659159255,-4.89075342367,0.0
1419804801207.00,-0.488994274611,9.37563873165,-4.69308896456,0.0
1419804801227.00,-0.0547654619212,10.0505242386,-4.84302684388,0.0
1419804801228.00,0.21444343848,10.5040638359,-4.43657352162,0.0
1419804801240.00,0.1918581833,11.0393250496,-3.60562647705,0.0
1419804801271.00,-0.203199057167,11.6710178529,-2.62170017095,0.0
1419804801272.00,-0.782528461295,11.9625159451,-1.27100990822,0.0
1419804801273.00,-0.991257109118,11.592317383,-0.399123115074,0.0
1419804801295.00,-0.933875500506,10.9810693042,-0.359772011679,0.0
1419804801296.00,-0.708770646693,10.2949653583,-0.742556940436,0.0
1419804801299.00,-0.549777983901,9.74049676924,-1.37380200534,0.0
1419804801308.00,-0.255391044343,9.09583295326,-1.90292545798,0.0
1419804801328.00,-0.194773253653,8.51216923749,-1.66946480697,0.0
1419804801329.00,-0.0735728160804,7.75739520428,-1.01410669194,0.0
1419804801339.00,0.102399343601,6.99125121988,-0.482123484704,0.0
1419804801361.00,0.278403327048,6.44752212689,-0.142688782456,0.0
1419804801361.00,0.406073308946,6.31285069578,-0.149041612998,0.0
1419804801368.00,0.591455571807,6.37943205784,-0.433383235273,0.0
1419804801401.00,1.03696447951,6.22597498557,-0.974606890388,0.0
1419804801402.00,1.2653176329,6.10410787033,-1.23474253927,0.0
1419804801403.00,1.2823838257,6.13421400737,-1.18189170466,0.0
1419804801408.00,1.26039675413,6.21844467784,-0.598578489629,0.0
1419804801433.00,1.38523440044,6.28531578876,0.303709092402,0.0
1419804801435.00,1.45051067121,6.40508315001,1.27111220787,0.0
1419804801439.00,1.39592479414,6.71340780331,2.40034259463,0.0
1419804801461.00,1.49164458628,7.27936328117,2.9282840832,0.0
1419804801464.00,1.63850980963,8.04287612052,2.66248202987,0.0
1419804801469.00,1.73213748681,8.74583428462,2.1891069952,0.0
1419804801502.00,1.74229579465,9.31190932273,1.8208234736,0.0
1419804801503.00,1.85009353562,9.72958135462,1.80533036596,0.0
1419804801505.00,2.11481887125,10.0269418776,2.19228773887,0.0
1419804801510.00,2.31745688877,10.3824099857,3.15500593468,0.0
1419804801533.00,2.58304342419,10.8983513477,3.31514627892,0.0
1419804801535.00,2.57908771475,11.259794177,1.86799550072,0.0
1419804801540.00,1.96787839405,11.4466138236,0.977701353384,0.0
1419804801569.00,1.42170569278,11.6702427048,1.38532898289,0.0
1419804801570.00,1.24459893325,12.0190397689,1.89491042403,0.0
1419804801572.00,1.18025245922,12.2953860158,2.24808784572,0.0
1419804801596.00,1.15805796011,12.6163703918,2.50876296698,0.0
1419804801597.00,1.20833890984,12.9110133014,2.60286302943,0.0
1419804801600.00,1.23185676313,13.0803670186,2.42459258028,0.0
1419804801610.00,1.23382555229,13.1128417618,1.83616065462,0.0
1419804801623.00,1.38089552675,13.0714049171,0.648159276663,0.0
1419804801640.00,1.52402296516,13.3027588406,-0.786685228162,0.0
1419804801641.00,1.91060484593,14.0233562184,-1.19067869325,0.0
1419804801660.00,2.21144909346,15.0708232863,-0.60786601704,0.0
1419804801660.00,2.62842984005,15.7079671228,-0.364764388956,15.7079671228
1419804801668.00,2.70117229863,15.5173073232,-0.767757672735,0.0
1419804801688.00,2.28261073247,14.1110025425,-1.63327491772,0.0
1419804801689.00,1.29932597139,12.0627034139,-2.33045634564,0.0
1419804801708.00,0.0102221822294,10.3613689129,-2.08330168693,0.0
1419804801709.00,-1.3746888728,9.56305122046,-1.05782154242,0.0
1419804801725.00,-2.71157955783,9.55992674135,-0.276609041748,0.0
1419804801728.00,-3.04054043483,9.77395789361,-0.378554027567,0.0
1419804801741.00,-2.97183719875,10.0449058892,-0.858064663978,0.0
1419804801757.00,-3.15456726607,10.4826438703,-1.31845391526,0.0
1419804801772.00,-3.20097998238,10.8053210513,-1.67160535519,0.0
1419804801773.00,-2.77263208531,10.7026524095,-1.39404487966,0.0
1419804801788.00,-2.02788372649,10.259176121,-0.705294910377,0.0
1419804801789.00,-1.57744495279,9.56828829537,-0.0350859533812,0.0
1419804801800.00,-1.18710047529,8.83228192372,0.186130385634,0.0
1419804801821.00,-0.525323643605,9.01217357658,-0.0126218574022,0.0
1419804801822.00,0.465326041004,9.17999980279,-0.335906708403,0.0
1419804801839.00,1.1128089016,9.40533707465,-1.17914407785,0.0
1419804801840.00,1.23869384898,9.89417304512,-2.12177346582,0.0
1419804801853.00,1.32859132131,9.87361972302,-2.57013241254,0.0
1419804801869.00,1.10198317061,9.30119314073,-2.28388177646,0.0
1419804801869.00,0.506361656939,8.47771825522,-1.55785393346,0.0
1419804801885.00,-0.0447342498939,7.70289803455,-0.90623080013,0.0
1419804801888.00,-0.60460688662,7.24532318087,-0.630837328049,0.0
1419804801909.00,-0.991730371473,7.04852486313,-0.544022924469,0.0
1419804801928.00,-1.31897705854,7.045708619,-0.363812757565,0.0
1419804801928.00,-1.27730913577,7.08322988806,-0.00912728320236,0.0
1419804801929.00,-1.1926205532,7.06497247994,0.397252301938,0.0
1419804801940.00,-1.22253219787,6.82112746593,1.04576687844,0.0
1419804801960.00,-1.24985104794,6.62826523373,1.36071572886,0.0
1419804801961.00,-1.25341106143,6.58657203599,1.24171730355,0.0
1419804801969.00,-1.18961081531,6.43447321887,1.13412722738,0.0
1419804801998.00,-1.11808947691,6.22044595535,1.31044680373,0.0
1419804802000.00,-0.934239929031,6.11069655114,1.55202871771,0.0
1419804802002.00,-0.604672885228,6.1834342661,1.57066925128,0.0
1419804802028.00,-0.154403202981,6.4476565225,1.47175345151,0.0
1419804802029.00,0.434903078073,6.88132166775,1.64636709912,0.0
1419804802030.00,0.926009117845,7.68765371273,1.8981731589,0.0
1419804802041.00,1.10649600857,9.18074069798,2.07964984386,0.0
1419804802059.00,1.12730769472,10.9946762828,2.23916786698,0.0
1419804802060.00,1.27506592677,12.7771362423,2.35030335363,0.0
1419804802068.00,1.60894498877,14.3597506048,2.22361936186,0.0
1419804802095.00,1.73805205306,15.6645266231,1.96265992234,0.0
1419804802098.00,1.46215764213,16.5128517137,1.65331508818,0.0
1419804802102.00,1.25667795052,16.3505774984,1.34832087016,0.0
1419804802135.00,1.52627371185,14.6078555839,2.43858585715,0.0
1419804802136.00,1.66242260814,12.4993164633,4.0430242879,0.0
1419804802137.00,1.55450065647,11.6845700693,4.53023656955,0.0
1419804802141.00,1.17101662474,12.2410996243,4.28329541923,0.0
1419804802162.00,1.00675028193,13.8396890373,2.99493465807,0.0
1419804802163.00,0.8505216321,15.9834721825,-0.973390681624,0.0
1419804802168.00,-0.931157197668,18.0890338622,-7.31160086395,0.0
1419804802200.00,-4.20565466902,18.4602125181,-10.257366322,18.4602125181
1419804802201.00,-6.37103231347,15.2479184597,-4.05350175,0.0
1419804802202.00,-7.06292116562,11.098904559,1.1229448861,0.0
1419804802230.00,-5.46794381752,7.7720862363,0.674641915119,0.0
1419804802231.00,-3.09679916641,5.97701862449,-2.36901516686,0.0
1419804802233.00,-2.08222038742,5.64339788036,-4.61612099411,0.0
1419804802262.00,-1.82977140731,6.31320116325,-4.81724278305,0.0
1419804802263.00,-2.26465227155,7.88972244308,-4.37062648776,0.0
1419804802265.00,-2.07801842123,8.93659007105,-4.36749122235,0.0
1419804802270.00,-1.46444371365,9.37727677473,-4.10247229288,0.0
1419804802299.00,-1.18436208809,9.96215945153,-3.56978153953,0.0
1419804802301.00,-1.50780092314,10.8931246528,-2.9111500902,0.0
1419804802302.00,-2.06108750001,11.7077378448,-1.91106531992,0.0
1419804802330.00,-2.4193786926,11.8630308859,-0.59052917153,0.0
1419804802331.00,-1.91991336369,11.2480457358,0.0117245317907,0.0
1419804802332.00,-1.14304678074,10.6170571525,-0.401142184282,0.0
1419804802356.00,-0.472451849581,10.2444122074,-1.22416610342,0.0
1419804802357.00,0.00784562992688,9.81171057455,-1.92446152802,0.0
1419804802373.00,0.233187435047,9.24977834435,-2.05070176115,0.0
1419804802374.00,0.145832904344,8.79332686521,-1.93053596956,0.0
1419804802381.00,0.016570404206,8.09270403971,-1.51854148788,0.0
1419804802412.00,-0.050554773383,7.33917290486,-0.945834540816,0.0
1419804802413.00,0.0431914847743,6.7002605116,-0.869272755786,0.0
1419804802414.00,0.25117695095,6.14052229856,-1.11413812148,0.0
1419804802421.00,0.261970205433,5.84172882598,-1.25897626285,0.0
1419804802444.00,0.469940735718,5.61795641311,-1.35436404347,0.0
1419804802445.00,0.606790808706,5.66665756268,-1.1021272264,0.0
1419804802450.00,0.93069272728,5.64986871629,-0.542936337444,0.0
1419804802471.00,1.21063921665,6.07475744469,-0.102713778786,0.0
1419804802472.00,1.39522239555,6.69172273153,0.198400076025,0.0
1419804802484.00,1.44247864527,7.11184414256,0.508854226833,0.0
1419804802489.00,1.42052688421,7.17151844748,1.2871821434,0.0
1419804802504.00,1.33585213429,7.29260742481,2.48471708487,0.0
1419804802519.00,1.37162540043,7.60883708296,3.24573952028,0.0
1419804802521.00,1.36609638158,8.23653819159,3.19262928165,0.0
1419804802537.00,1.39497101693,8.9982720765,2.77492532224,0.0
1419804802552.00,2.32242233572,10.8302271805,4.12049966427,0.0
1419804802553.00,3.15354178888,11.5490462838,4.14811681556,0.0
1419804802570.00,3.23762607163,11.4614362222,1.97418956239,0.0
1419804802570.00,2.37628653167,10.9187234158,0.705154418432,0.0
1419804802584.00,1.75160594975,10.7604458348,1.10412101067,0.0
1419804802601.00,1.3719303286,11.0334396255,1.88592263076,0.0
1419804802602.00,1.17388051295,11.4687972547,2.44625116772,0.0
1419804802616.00,1.24421501426,11.922224849,2.84588175142,0.0
1419804802621.00,1.55985071704,12.3519253972,3.03551965742,0.0
1419804802637.00,1.84505559777,12.7461930051,2.96386826715,0.0
1419804802660.00,1.78069985691,13.1229606477,2.96498948252,0.0
1419804802661.00,1.68334541613,13.2241170529,2.65976961869,0.0
1419804802662.00,1.50932699369,13.2796038459,1.22319361531,0.0
1419804802670.00,1.36127896414,13.8770516073,-0.536881896081,0.0
1419804802691.00,1.54821903295,14.7617358774,-1.02911907338,0.0
1419804802692.00,1.70112322148,15.66038083,-0.664287849108,0.0
1419804802701.00,1.70934017068,15.9876958495,-0.718791841522,15.9876958495
1419804802718.00,2.01231483645,14.8163353992,-1.85088232382,0.0
1419804802743.00,1.76596014449,12.7544918134,-3.49806452063,0.0
1419804802744.00,0.367721720324,10.9894733788,-3.80052855349,0.0
1419804802745.00,-1.39432978576,9.79727522876,-2.23897379115,0.0
1419804802750.00,-3.02580988128,9.50717488007,-0.46440175767,0.0
1419804802787.00,-4.04962553256,9.96852659451,0.36264147062,0.0
1419804802789.00,-3.88806995791,10.4747614399,0.35832864239,0.0
1419804802790.00,-3.91303858127,11.2835437815,-0.207334648154,0.0
1419804802810.00,-3.66613202758,11.8669769872,-1.01006676502,0.0
1419804802811.00,-2.93012347034,11.9285656188,-1.46131234792,0.0
1419804802812.00,-2.39873923494,11.8155763892,-1.0003277529,0.0
1419804802846.00,-1.86734554801,11.3732664492,-0.130076498495,0.0
1419804802847.00,-0.803512579715,10.4605009555,0.562453128826,0.0
1419804802849.00,0.481829969535,9.80680742686,0.698686964678,0.0
1419804802850.00,1.30827501577,9.56290068836,0.299591417315,0.0
1419804802877.00,1.71299225827,9.62884699822,-0.93567004608,0.0
1419804802878.00,1.88275498154,9.76619448482,-2.27593702957,0.0
1419804802881.00,1.64666748001,9.6717522093,-2.85830184617,0.0
1419804802912.00,1.18034372924,9.11733088299,-2.48665805893,0.0
1419804802913.00,0.552427271295,8.41961020416,-1.80427063508,0.0
1419804802914.00,-0.204198858301,7.79093828204,-1.30006384823,0.0
1419804802921.00,-0.68086189781,7.229740893,-1.17146340613,0.0
1419804802947.00,-0.906536157563,6.7344048268,-1.11028829813,0.0
1419804802948.00,-1.05763891474,6.59498841791,-0.875408287162,0.0
1419804802950.00,-1.07723035736,6.60082647337,-0.243348107737,0.0
1419804802976.00,-1.06330975441,6.55702607812,0.436695647834,0.0
1419804802977.00,-1.09212284282,6.4195416932,0.873462912981,0.0
1419804802981.00,-1.15921841162,6.33912553865,0.920003925454,0.0
1419804803014.00,-1.14435716025,6.24441843689,0.610071985911,0.0
1419804803015.00,-1.07363441583,6.15285921817,0.375673921668,0.0
1419804803016.00,-0.999447538817,5.98537201834,0.388866337668,0.0
1419804803023.00,-0.889825228431,5.79886570032,0.51936446355,0.0
1419804803062.00,-0.716666173638,5.80433980402,0.629187783606,0.0
1419804803065.00,-0.370442735743,5.88573190864,0.675783609565,0.0
1419804803068.00,0.12979107831,6.19151454934,0.783366458174,0.0
1419804803070.00,0.639401284014,6.76364532368,1.0989947632,0.0
1419804803073.00,0.848945033292,7.86482635714,1.6538123779,0.0
1419804803112.00,0.651361641962,9.5439996915,2.24990306797,0.0
1419804803114.00,0.350223875078,11.4807925664,2.70058730695,0.0
1419804803115.00,0.391227110315,13.2676016461,3.02612320745,0.0
1419804803117.00,0.597185021092,14.780920845,3.11640920035,0.0
1419804803152.00,0.83455407358,15.8307638388,2.79025993131,0.0
1419804803153.00,0.827379478783,16.4582590695,2.11585794762,0.0
1419804803155.00,0.921595000326,16.0747769676,1.83626959595,0.0
1419804803156.00,0.99856875069,14.6913686311,2.33066380685,0.0
1419804803180.00,0.650756624051,13.4142821395,3.18948329226,0.0
1419804803181.00,-0.200811002912,13.5397971419,3.35948385362,0.0
1419804803185.00,-0.259151492065,14.7080150991,2.18782668503,0.0
1419804803200.00,0.202180797002,16.7673959577,0.652645476902,0.0
1419804803201.00,0.549040034131,18.9246418182,-1.96572189204,0.0
1419804803218.00,-0.040511010515,18.9255584839,-5.7749142472,18.9255584839
1419804803235.00,-2.12953830478,15.910236259,-3.76982840802,0.0
1419804803235.00,-3.51441540333,11.6622791276,1.02901324931,0.0
1419804803252.00,-3.05556783077,8.03812938481,1.1297769674,0.0
1419804803253.00,-1.27671026274,5.6806378894,-1.24216128099,0.0
1419804803267.00,-0.532083272523,5.42019090418,-3.98728451364,0.0
1419804803270.00,-0.155749434969,5.4828112554,-5.12702726628,0.0
1419804803284.00,0.0778081564201,6.16164251185,-4.6847356044,0.0
1419804803300.00,-0.206523047962,7.77081165114,-3.98160316075,0.0
1419804803302.00,-0.298285410171,9.02101787818,-3.79912685686,0.0
1419804803315.00,-0.205563712091,9.91206150119,-3.83652498985,0.0
1419804803332.00,-0.322750842652,10.8657828766,-3.77864436549,0.0
1419804803332.00,-0.562289079526,11.9100909546,-3.9543722322,0.0
1419804803350.00,-0.91720487819,12.5017052584,-3.68163886509,0.0
1419804803351.00,-1.15342604369,12.3852740228,-2.39114080488,0.0
1419804803365.00,-0.97566442297,11.6285952332,-1.25561007766,0.0
1419804803379.00,-0.656526128044,10.8465925888,-0.924602916565,0.0
1419804803399.00,-0.27250548026,10.1868887676,-1.076532765,0.0
1419804803400.00,-0.0485812729742,9.54096395176,-1.35358891916,0.0
1419804803402.00,0.0594722799307,8.84702154436,-1.516014766,0.0
1419804803415.00,0.303394708651,8.09510034938,-1.60095994631,0.0
1419804803432.00,0.243016532421,7.54847048603,-1.35057833321,0.0
1419804803432.00,0.125725125957,7.19102240618,-1.05417811534,0.0
1419804803449.00,0.188389904555,6.95710965203,-1.02695467609,0.0
1419804803450.00,0.220143463218,6.73557959899,-1.08760165849,0.0
1419804803464.00,0.116188111536,6.63148759438,-1.04988746208,0.0
1419804803483.00,0.0153007290802,6.72884999627,-1.0225050057,0.0
1419804803484.00,0.273908659441,6.80412286811,-1.2042508552,0.0
1419804803497.00,0.591381773767,6.75469471665,-1.2908303378,0.0
1419804803502.00,0.715812106426,6.60668371154,-0.904901780557,0.0
1419804803515.00,0.847421087344,6.43917592734,0.0646383882275,0.0
1419804803533.00,0.956090722784,6.39678680653,1.23925530771,0.0
1419804803533.00,0.889639713193,6.61208976922,2.09175825602,0.0
1419804803550.00,0.80503061242,7.00341301212,2.8302177269,0.0
1419804803551.00,0.735604075694,7.65108331605,2.85536339252,0.0
1419804803564.00,0.908476014749,8.26203481709,2.12841394837,0.0
1419804803582.00,0.977283218406,8.90671052755,1.18369850078,0.0
1419804803583.00,1.06272131456,9.36753826647,0.991661268403,0.0
1419804803596.00,1.18859115074,9.73273264862,1.78359352342,0.0
1419804803602.00,1.32515503598,10.0450369312,2.87125333201,0.0
1419804803614.00,1.39091436128,10.1434195523,2.92437883063,0.0
1419804803631.00,1.00151717054,10.1604155626,2.10372562665,0.0
1419804803634.00,0.464828723062,10.6117076129,1.37143221442,0.0
1419804803653.00,0.344903075989,11.1821749388,1.24783713976,0.0
1419804803654.00,0.438377524798,11.7813553142,1.85024062058,0.0
1419804803663.00,0.775468310828,12.3074014257,2.73324046833,0.0
1419804803688.00,1.20347088562,12.8152489076,3.31010301919,0.0
1419804803689.00,1.82952934734,13.1804566933,3.38297225132,0.0
1419804803691.00,2.31625902488,13.5571654324,3.13635568697,0.0
1419804803702.00,2.41045023417,13.8650772179,2.41561191881,0.0
1419804803722.00,2.13976115327,14.0421751038,0.871399830844,0.0
1419804803725.00,1.88647648486,14.3156018887,-0.830333573107,0.0
1419804803731.00,1.9374273035,14.5198898187,-1.51145862088,0.0
1419804803762.00,2.03800649702,14.7592611409,-1.13305356178,0.0
1419804803763.00,2.22999818926,14.8499744817,-0.415967769656,14.8499744817
1419804803764.00,2.29334544877,14.5402361939,-0.288812561896,0.0
1419804803790.00,2.1303264924,13.3864952794,-0.990953238139,0.0
1419804803791.00,1.3409318198,11.548559395,-1.88865607411,0.0
1419804803792.00,0.0216150060482,9.91337122509,-2.03559738287,0.0
1419804803803.00,-1.44880547617,8.98794182392,-0.95188133558,0.0
1419804803819.00,-3.10671990818,8.90851879569,0.387291916283,0.0
1419804803839.00,-4.09274474226,9.12764418425,0.513987834602,0.0
1419804803840.00,-4.14078109916,9.53740950775,-0.394291854556,0.0
1419804803843.00,-3.94384001287,9.99199302553,-1.8833571436,0.0
1419804803850.00,-3.72772542568,10.2527102288,-3.21286554698,0.0
1419804803869.00,-3.41904888463,10.3985220687,-3.19039316165,0.0
1419804803871.00,-2.99773583904,10.4937676634,-1.51126424205,0.0
1419804803884.00,-2.09790774284,10.3887036591,0.0590575413629,0.0
1419804803924.00,-1.24499612369,10.6080984209,0.878730377262,0.0
1419804803926.00,-0.0393803558872,10.4055220482,0.589437890713,0.0
1419804803929.00,1.22515829159,9.8939782999,-0.162741023052,0.0
1419804803931.00,1.6186158708,9.64611981281,-0.949357823917,0.0
1419804803934.00,1.44793577031,9.30627375653,-1.20655291742,0.0
1419804803971.00,0.956869164399,8.91667044417,-1.28227827512,0.0
1419804803972.00,0.479815066161,8.42021629233,-1.11794347243,0.0
1419804803973.00,0.0967332283822,7.86465319232,-1.07976274114,0.0
1419804803973.00,-0.303094252047,7.3992425209,-1.09075269123,0.0
1419804803983.00,-0.759029250456,7.08205618992,-0.959851059627,0.0
1419804804000.00,-1.1336187658,6.79283400226,-0.745318225715,0.0
1419804804053.00,-1.36215606284,6.53357928554,-0.312112939901,0.0
1419804804055.00,-1.32218019377,6.07961155786,0.0149463160937,0.0
1419804804057.00,-1.35773959144,5.83826180243,0.515647084059,0.0
1419804804060.00,-1.41980178833,6.10158049085,0.804685034748,0.0
1419804804063.00,-0.731156553102,6.57681010843,1.16842034985,0.0
1419804804065.00,-0.338956039464,6.73620399951,1.69464751507,0.0
1419804804067.00,0.0636248687111,6.92306248008,1.98614664632,0.0
1419804804101.00,0.483996781484,7.1516930532,1.84784708535,0.0
1419804804103.00,0.862598188429,7.46062534872,1.54543719625,0.0
1419804804104.00,1.23866272831,8.03132694647,1.34209490527,0.0
1419804804123.00,1.45846774639,8.96317588011,1.45006722305,0.0
1419804804123.00,1.57303249991,10.2163664734,1.78086182438,0.0
1419804804125.00,1.76018802215,11.5596801356,2.15355447298,0.0
1419804804131.00,1.8527350769,12.7520985053,2.26390496311,0.0
1419804804158.00,1.76109525703,13.8168991439,2.18758911523,0.0
1419804804159.00,1.56909057785,14.7307021844,1.88492132942,0.0
1419804804162.00,1.17967125468,15.2997682022,1.38643645598,0.0
1419804804188.00,0.69472711638,15.1936614283,1.63068181497,0.0
1419804804189.00,0.520391110642,13.9235613886,2.86263666885,0.0
1419804804191.00,0.067789522621,12.5688692005,3.87743421258,0.0
1419804804215.00,-0.964707356833,12.2667090299,3.62108818617,0.0
1419804804216.00,-1.92658148913,13.324368316,2.8607324862,0.0
1419804804231.00,-2.2645009958,14.8415012317,0.782192318824,0.0
1419804804233.00,-2.7457943221,16.5561602297,-1.18823652592,0.0
1419804804257.00,-3.3327644552,17.8547211679,-3.08468236921,17.8547211679
1419804804258.00,-3.99653020947,17.1599154277,-3.68902300009,0.0
1419804804264.00,-4.27730292912,14.1013080487,-0.691664428083,0.0
1419804804294.00,-3.52224086918,10.5036984137,1.4677354372,0.0
1419804804295.00,-1.79237687025,7.65955701621,0.399830788237,0.0
1419804804296.00,-0.822217115196,6.44381443078,-2.29245816524,0.0
1419804804331.00,-0.401013051766,6.24925300059,-5.0191006925,0.0
1419804804332.00,-0.207026154318,6.43252103497,-5.95489909476,0.0
1419804804335.00,-0.295793444814,7.12841491228,-4.96700524409,0.0
1419804804336.00,-0.151220239406,7.8224121863,-4.26106698002,0.0
1419804804355.00,0.127439334571,8.64559837748,-4.1199656948,0.0
1419804804356.00,0.397359996244,9.77318552872,-4.15579631,0.0
1419804804362.00,0.307216804734,11.0983434094,-4.1258820707,0.0
1419804804385.00,-0.206889940931,12.2577140323,-3.56381856249,0.0
1419804804386.00,-0.962082498477,12.8352829738,-2.20200482865,0.0
1419804804391.00,-1.25806166816,12.4977732243,-1.12865083374,0.0
1419804804419.00,-0.999640042782,11.8100078239,-0.959627423727,0.0
1419804804420.00,-0.596766383949,10.9828399696,-1.2428979778,0.0
1419804804423.00,-0.424870608722,10.1301689941,-1.49031795265,0.0
1419804804432.00,-0.341575261703,9.20149105641,-1.5837288483,0.0
1419804804452.00,-0.198024635769,8.20592706011,-1.34259075517,0.0
1419804804453.00,-0.199067465513,7.41846755673,-0.778287562892,0.0
1419804804463.00,-0.276121148562,6.80749543296,-0.18966238292,0.0
1419804804486.00,-0.324064915044,6.42666864629,-0.0489866594994,0.0
1419804804487.00,-0.31166080163,6.13411983137,-0.424100062289,0.0
1419804804492.00,-0.289343346986,5.99207154773,-0.897718761369,0.0
1419804804519.00,-0.151472873151,5.78178639866,-1.39760306853,0.0
1419804804520.00,0.184547216076,5.66709376838,-1.73101925795,0.0
1419804804523.00,0.412601947954,5.73505773821,-1.58798459874,0.0
1419804804531.00,0.477220958034,5.94284208779,-1.06706790607,0.0
1419804804555.00,0.603438533798,6.07985696582,-0.159681946694,0.0
1419804804556.00,0.78949111598,6.2263618884,0.809714781942,0.0
1419804804563.00,0.729917814536,6.62550812624,1.53638019415,0.0
1419804804589.00,0.631665947406,7.26696451131,1.9635488182,0.0
1419804804590.00,0.659402398912,8.02037960128,1.89735376343,0.0
1419804804591.00,0.657614727037,8.82132902998,1.47295375712,0.0
1419804804618.00,0.801906698485,9.46113611881,1.40048875099,0.0
1419804804623.00,1.07491082283,9.94188534456,1.73155903307,0.0
1419804804626.00,1.39103877611,10.365822169,2.35434580965,0.0
1419804804632.00,1.68842244254,10.8578575794,2.88569665074,0.0
1419804804656.00,2.00208311017,11.4934702203,3.19027313397,0.0
1419804804656.00,2.39033884693,12.2550223327,3.09923305329,0.0
1419804804663.00,2.79957927833,12.7763930509,2.30794057767,0.0
1419804804680.00,2.84523742897,12.9491550748,1.70208897406,0.0
1419804804683.00,2.44244834698,12.8042568239,2.45561330313,0.0
1419804804694.00,2.25937431454,12.5655038044,3.31018290091,0.0
1419804804712.00,2.06250601689,12.7049935898,3.20793092012,0.0
1419804804713.00,1.75486182574,13.093738584,2.52483679536,0.0
1419804804728.00,1.46216981771,13.4733218561,1.48480549817,0.0
1419804804732.00,1.16182321478,13.861185141,-0.0495882602376,0.0
1419804804753.00,1.40279435817,14.1586759883,-1.06566565247,0.0
1419804804754.00,1.67073191484,14.571546117,-0.947904408005,0.0
1419804804763.00,1.75472568387,14.9461173878,-0.586048935521,14.9461173878
1419804804785.00,1.76932368326,14.7757369928,-0.750606514622,0.0
1419804804786.00,1.76067478206,13.8386883898,-1.58973913808,0.0
1419804804792.00,1.35068893287,12.2971419284,-2.44594507029,0.0
1419804804819.00,0.293371095411,10.7142798644,-2.36594185089,0.0
1419804804820.00,-1.69136793947,10.0196467212,-1.10738805406,0.0
1419804804823.00,-2.93764902068,9.58414372972,-0.238264620103,0.0
1419804804831.00,-3.43539674384,9.70765008211,-0.226994013682,0.0
1419804804853.00,-3.77950660492,10.358685555,-1.05467085973,0.0
1419804804854.00,-3.66148576919,10.928958993,-1.93232950942,0.0
1419804804863.00,-3.57198211778,11.2594871709,-2.19768583733,0.0
1419804804887.00,-3.40084157229,11.4118240247,-1.72334315443,0.0
1419804804887.00,-2.63936719401,11.1406482767,-0.908943550062,0.0
1419804804891.00,-1.52986125082,10.489197876,-0.0680009022706,0.0
1419804804920.00,-0.304565995381,9.93293969735,0.15758292403,0.0
1419804804920.00,1.12120697642,9.23923805051,-0.341836299934,0.0
1419804804923.00,1.96154481762,8.94162874152,-1.12124567875,0.0
1419804804931.00,2.13415401206,9.01004471805,-1.92445186099,0.0
1419804804956.00,1.87632218933,9.18504830109,-2.43814188172,0.0
1419804804956.00,1.42256256617,9.25211180908,-2.40959799563,0.0
1419804804963.00,0.903234700233,8.92853667572,-1.89294811567,0.0
1419804804985.00,0.435474751347,8.2309921761,-1.27653047683,0.0
1419804804986.00,-0.229199313883,7.67655389104,-0.826146402403,0.0
1419804804991.00,-0.956181520963,7.3527721768,-0.542678996986,0.0
1419804805017.00,-1.29198837321,7.09554747151,-0.430298425434,0.0
1419804805018.00,-1.30964772106,6.67107938317,-0.213634419159,0.0
1419804805023.00,-1.20592160929,6.43881929716,0.0829352744483,0.0
1419804805032.00,-1.15519887061,6.47041192444,0.474820579084,0.0
1419804805048.00,-1.0405642626,6.63339226541,0.718211014532,0.0
1419804805070.00,-0.760767475756,6.61086718325,0.976246207214,0.0
1419804805071.00,-0.608268596585,6.35414295626,1.39237272643,0.0
1419804805072.00,-0.516513241662,6.11397255227,1.41016023551,0.0
1419804805099.00,-0.417059101538,6.00465130993,1.18920375446,0.0
1419804805100.00,-0.361386672658,6.15163779612,1.04816429893,0.0
1419804805103.00,-0.224687797011,6.32876494519,1.10840832038,0.0
1419804805112.00,-0.03649085316,6.73853904706,1.22145031961,0.0
1419804805137.00,0.0665131028002,7.58014041131,1.31175483892,0.0
1419804805139.00,0.122862043664,8.76473659428,1.40794667889,0.0
1419804805144.00,0.407753989782,10.1046247091,1.52673425566,0.0
1419804805178.00,0.734743614178,11.5215651988,1.62792016222,0.0
1419804805179.00,0.911785146497,13.0123106564,1.61991513217,0.0
1419804805181.00,0.976949827652,14.3328708398,1.38113637629,0.0
1419804805202.00,0.68923503238,15.5006518711,0.864508377087,0.0
1419804805203.00,0.144180887975,16.1169466397,0.84634662197,0.0
1419804805205.00,-0.0713855752372,15.4312268245,1.97449577135,0.0
1419804805213.00,0.258127032752,13.3872150538,3.73294655718,0.0
1419804805237.00,0.0928492699425,12.0111296021,4.8928049079,0.0
1419804805239.00,-0.38616113086,12.296848532,4.75364463553,0.0
1419804805244.00,-0.434453442328,13.8357249896,3.30110280282,0.0
1419804805286.00,-0.440775963534,15.8572210714,1.21986818292,0.0
1419804805287.00,-0.601923552241,17.8254123101,-1.50974572915,0.0
1419804805289.00,-1.65798654288,18.5701352922,-5.74621747256,18.5701352922
1419804805290.00,-3.7808476531,16.9762757736,-5.05695392806,0.0
1419804805293.00,-4.71839816046,13.3631980427,-0.454233637177,0.0
1419804805326.00,-3.6701559988,9.71148841815,0.524329618214,0.0
1419804805327.00,-1.46220844746,6.80017537947,-1.09272687279,0.0
1419804805328.00,-0.855024354713,6.01355332422,-3.9412712955,0.0
1419804805332.00,-0.484220794891,5.92893997217,-6.1546403971,0.0
1419804805354.00,-0.548619203125,6.43626940009,-6.22347968741,0.0
1419804805355.00,-0.653798321859,7.40625848909,-4.877089396,0.0
1419804805363.00,-0.551431235991,8.39080505524,-3.97052033103,0.0
1419804805386.00,-0.259756486972,9.18839416877,-3.63046391789,0.0
1419804805387.00,-0.10918708213,10.0271434135,-3.44757888863,0.0
1419804805393.00,-0.336048950293,11.1285823819,-3.17321951334,0.0
1419804805425.00,-0.782156019591,12.1323095619,-2.47178832345,0.0
1419804805426.00,-1.00856520724,12.4667173783,-1.34840339114,0.0
1419804805427.00,-0.804438767409,12.1960232398,-0.58199301275,0.0
1419804805432.00,-0.253030111744,11.4376724414,-0.870070681239,0.0
1419804805448.00,-0.0922710241296,10.6783377085,-1.6937398766,0.0
1419804805461.00,-0.0290444465744,9.83441060324,-2.1391593045,0.0
1419804805463.00,0.14903324285,8.94375957999,-2.02077224591,0.0
1419804805480.00,0.225920578663,8.20398035844,-1.43744623467,0.0
1419804805499.00,0.443266060852,7.44665183723,-0.768358942286,0.0
1419804805500.00,0.541523484215,6.81100386965,-0.432892245761,0.0
1419804805504.00,0.576326262386,6.43542315495,-0.227408535353,0.0
1419804805513.00,0.595911538785,6.1638428894,-0.141297863308,0.0
1419804805549.00,0.649214264014,5.94528953989,-0.122753681688,0.0
1419804805550.00,0.770302957168,5.73091044263,-0.246025618549,0.0
1419804805552.00,0.840624952902,5.90495486044,0.0383798851495,0.0
1419804805572.00,1.04018329926,6.11392137215,0.859869956832,0.0
1419804805573.00,1.02550251852,6.4243927348,1.64946782226,0.0
1419804805574.00,0.933854758116,6.94177607218,2.08321906701,0.0
1419804805596.00,0.882651953936,7.63797868462,2.1867779565,0.0
1419804805597.00,0.81781281851,8.34907011856,2.00724042369,0.0
1419804805614.00,0.836079625075,8.92095411887,1.67662529338,0.0
1419804805615.00,0.879526655998,9.34042303391,1.46661665924,0.0
1419804805623.00,0.920413649897,9.6279842817,1.5885510099,0.0
1419804805677.00,1.07364610586,9.69871595007,2.12635551252,0.0
1419804805679.00,1.14138398743,9.6740952728,2.58770567637,0.0
1419804805682.00,0.967854638203,10.0208635501,2.50620386009,0.0
1419804805683.00,0.921890957943,10.5391939814,1.97884015704,0.0
1419804805684.00,0.980145520058,11.2143648655,1.60708049674,0.0
1419804805703.00,1.12656178169,12.0069851386,1.80543257043,0.0
1419804805704.00,1.44040968686,12.6466554226,2.42545040584,0.0
1419804805705.00,1.84449245874,13.0857817206,2.8087702594,0.0
1419804805711.00,2.27736515338,13.3521469054,2.81577125428,0.0
1419804805734.00,2.38061525472,13.5648214357,2.5931020396,0.0
1419804805735.00,2.2647244501,13.5183716011,2.03793512307,0.0
1419804805746.00,2.02276266497,13.3192629951,1.0225615453,0.0
1419804805780.00,1.69630619683,13.4616409652,-0.352259949277,0.0
1419804805782.00,1.56545861862,13.8167079823,-0.996248008128,0.0
1419804805783.00,1.53248930558,14.2772554291,-0.605802882305,0.0
1419804805800.00,1.53864214141,14.5656900731,-0.134594990477,14.5656900731
1419804805801.00,1.547646457,14.2120759015,-0.319900365207,0.0
1419804805804.00,1.44859275015,12.8314804942,-1.18192574072,0.0
1419804805813.00,0.896745194255,11.1604944328,-1.69780089092,0.0
1419804805833.00,-0.356023823276,9.94300030494,-1.47102958524,0.0
1419804805835.00,-1.76659322162,9.28897208668,-0.665103561645,0.0
1419804805844.00,-3.04279430902,9.33685739919,-0.256913004244,0.0
1419804805874.00,-3.60123075049,9.69232581054,-0.774146020815,0.0
1419804805876.00,-3.5754389388,10.2121550022,-1.75903935502,0.0
1419804805877.00,-3.43622984768,10.6920087394,-2.43072899954,0.0
1419804805901.00,-3.2659583825,11.1542210205,-2.4381637102,0.0
1419804805902.00,-3.16321172057,11.6836713538,-1.55156332827,0.0
1419804805910.00,-2.91954289927,12.0764166155,-0.643316457364,0.0
1419804805913.00,-1.87845357526,11.6814328045,0.466152533753,0.0
1419804805939.00,-0.888910410329,11.3182246426,0.841988921505,0.0
1419804805940.00,0.341761139236,10.5827815639,0.00485674817722,0.0
1419804805944.00,1.02006397958,10.1802574744,-0.915844648008,0.0
1419804805962.00,1.29149035493,9.75199405471,-1.72409837769,0.0
1419804805978.00,1.24773804142,9.25411512917,-2.32250302631,0.0
1419804805979.00,0.867745908774,8.70482100488,-2.33849043773,0.0
1419804805994.00,0.4023370155,8.09179986131,-1.96151992741,0.0
1419804805995.00,-0.0294132320062,7.57757569288,-1.50275880678,0.0
1419804806009.00,-0.462131243215,7.23657559879,-1.09178389364,0.0
1419804806012.00,-0.755487153096,6.9930237275,-0.856199754067,0.0
1419804806025.00,-0.939387715252,6.77494205632,-0.614296436191,0.0
1419804806041.00,-0.874230004493,6.46579610184,-0.380171879588,0.0
1419804806044.00,-0.739521659822,6.00477039114,-0.0825989683757,0.0
1419804806056.00,-0.783990483227,5.84611878118,0.217878831553,0.0
1419804806073.00,-0.783390719782,5.95442907216,0.473403552128,0.0
1419804806074.00,-0.700106432256,6.09744864858,0.739039765195,0.0
1419804806100.00,-0.563769831216,6.26544550627,0.911114566828,0.0
1419804806102.00,-0.451920606914,6.49403759576,0.925086491421,0.0
1419804806104.00,-0.343201107074,6.53690666607,1.08334460479,0.0
1419804806130.00,-0.320793276699,6.62821734045,1.23560483157,0.0
1419804806131.00,-0.192676027943,6.91323383329,1.23625698442,0.0
1419804806133.00,-0.00667609432828,7.40083785207,1.33255187119,0.0
1419804806144.00,0.167624869251,8.22218590999,1.66048318739,0.0
1419804806161.00,0.270793537681,9.37793272717,2.14671376147,0.0
1419804806174.00,0.315864615192,10.6941022947,2.42503135493,0.0
1419804806175.00,0.447301697363,11.9725926747,2.52751840658,0.0
1419804806202.00,0.563852059029,13.1990305068,2.71545988807,0.0
1419804806204.00,0.539670865898,14.3466361546,2.93681496891,0.0
1419804806205.00,0.513729765886,15.232825332,2.80501424998,0.0
1419804806214.00,0.600827125162,15.6556413344,1.81550294358,0.0
1419804806237.00,1.00493516836,14.9593060791,1.59116101812,0.0
1419804806239.00,1.47659036252,13.0467891083,2.93315999292,0.0
1419804806247.00,1.16790136901,11.8117811278,3.84138819152,0.0
1419804806280.00,0.196314482368,12.2680539345,3.78811350992,0.0
1419804806282.00,-0.00496735464175,13.8179697792,2.26301131452,0.0
1419804806283.00,-0.0724012967251,15.876418446,-0.286702298115,0.0
1419804806285.00,-0.562938804015,18.1339973191,-3.34584847029,0.0
1419804806293.00,-2.14883047405,19.0239370557,-6.35394248688,19.0239370557
1419804806322.00,-4.23531169657,16.6321778072,-3.33315859148,0.0
1419804806324.00,-4.96379527521,12.2768946562,1.12139422607,0.0
1419804806325.00,-3.57612387193,8.41460856359,0.890834455697,0.0
1419804806366.00,-1.9129347213,6.29691738789,-1.60077850821,0.0
1419804806368.00,-1.24382003847,6.03125637988,-4.57927212939,0.0
1419804806369.00,-0.821162275677,6.40091957263,-5.6466596289,0.0
1419804806371.00,-0.779038248061,7.44857762773,-4.48658952388,0.0
1419804806373.00,-0.686734598601,8.6025449176,-3.71680861337,0.0
1419804806403.00,-0.291073550499,9.13934481374,-3.72635475366,0.0
1419804806404.00,-0.0605842943169,9.66210228067,-3.67926255313,0.0
1419804806405.00,-0.204666148527,10.4312434231,-3.46596075081,0.0
1419804806426.00,-0.693909633964,11.3128201451,-3.24289134535,0.0
1419804806427.00,-1.33603645378,11.8564771646,-2.70119815281,0.0
1419804806445.00,-1.87291001117,11.7924761775,-1.62494507468,0.0
1419804806446.00,-1.78192487886,11.1129182312,-1.00603404552,0.0
1419804806453.00,-1.18485175887,10.4038758062,-1.14522763477,0.0
1419804806480.00,-0.807890384743,9.94882466327,-1.44781756565,0.0
1419804806481.00,-0.429801063007,9.39953607929,-1.40930918049,0.0
1419804806485.00,-0.172020113079,8.84268391315,-1.09607318393,0.0
1419804806493.00,0.00862726903207,8.1667105485,-0.756887144453,0.0
1419804806522.00,0.282335635523,7.43944120574,-0.390775869615,0.0
1419804806523.00,0.247039469166,7.05789494746,-0.187491270463,0.0
1419804806525.00,0.355584567992,6.84126998493,-0.290871254217,0.0
1419804806557.00,0.5041176465,6.75075962682,-0.729276832009,0.0
1419804806558.00,0.554125842471,6.68175199614,-1.17485547463,0.0
1419804806559.00,0.729237696626,6.73516807821,-1.44317941797,0.0
1419804806581.00,0.970039132777,6.77001070731,-1.25780380878,0.0
1419804806582.00,1.13032818822,6.72294582747,-0.642790653783,0.0
1419804806584.00,1.23511377139,6.65831944039,0.0803088072908,0.0
1419804806593.00,1.25078767662,6.72093162889,0.848656318773,0.0
1419804806610.00,1.2307865618,6.99300647323,1.60579679768,0.0
1419804806623.00,1.20371172278,7.49350373901,2.10124707374,0.0
1419804806624.00,1.21570263973,8.10332792439,2.1353872687,0.0
1419804806656.00,1.2692086524,8.7824765409,1.83253329691,0.0
1419804806657.00,1.26279527888,9.33872408719,1.65937869116,0.0
1419804806658.00,1.22670941061,9.72933170519,1.6721603785,0.0
1419804806681.00,1.28466991885,9.8980209379,1.85404702404,0.0
1419804806683.00,1.33263662756,9.95293117484,2.0545629004,0.0
1419804806686.00,1.26050383341,10.0310967664,1.94170559731,0.0
1419804806693.00,1.2549411744,10.2382455372,1.56261375012,0.0
1419804806708.00,1.1806254208,10.5497795388,1.2345774908,0.0
1419804806724.00,1.07160174123,10.8949815699,1.14826574108,0.0
1419804806725.00,1.06353729654,11.2546851281,1.44994591199,0.0
1419804806744.00,1.18780045033,11.5475322356,1.90965838865,0.0
1419804806745.00,1.36320063446,11.7947822012,2.22592078446,0.0
1419804806758.00,1.64085779316,12.0086490371,2.24850757641,0.0
1419804806775.00,1.79752931122,12.3727008585,2.22392615211,0.0
1419804806776.00,1.84447631311,12.833344169,2.92613975271,0.0
1419804806791.00,2.16924390386,13.1890258299,4.27780891055,0.0
1419804806793.00,2.49406666126,12.9389210869,4.41152590057,0.0
1419804806814.00,2.39519246312,12.287700652,2.53101019379,0.0
1419804806815.00,2.0786720288,12.1306738469,0.305027979984,0.0
1419804806825.00,1.66810834747,12.6637042987,-0.694737925905,0.0
1419804806846.00,1.31216403806,13.6022455242,-0.834411393761,0.0
1419804806847.00,1.13826024415,14.2516009424,-1.1659288178,0.0
1419804806853.00,0.844122267073,14.2576749103,-1.62700172607,14.2576749103
1419804806875.00,0.55559540887,13.1066519944,-2.35747158827,0.0
1419804806876.00,0.16317723196,11.2298169342,-3.08601153504,0.0
1419804806906.00,-0.984176891847,9.98419102429,-2.93286174883,0.0
1419804806907.00,-2.564324246,9.55559295718,-2.06546388139,0.0
1419804806908.00,-3.48165838402,9.46199236497,-1.32444031097,0.0
1419804806938.00,-3.69076080318,9.69159177889,-0.747264059824,0.0
1419804806939.00,-3.71792967609,10.0866376068,-0.642739109962,0.0
1419804806940.00,-3.76706872359,10.6340228019,-1.01666923933,0.0
1419804806963.00,-3.56329005519,11.1754822648,-1.17075579065,0.0
1419804806964.00,-3.20190746438,11.6100840504,-1.03346919142,0.0
1419804806967.00,-2.71295652764,11.7349454102,-0.867207208057,0.0
1419804806973.00,-1.78262999702,11.618623276,-0.30504959612,0.0
1419804806993.00,-0.485485122021,11.2668950961,0.355687405925,0.0
1419804806994.00,0.800188012458,10.9284666227,0.358338102872,0.0
1419804807008.00,1.58712373594,10.7666703284,-0.446841022189,0.0
1419804807024.00,1.64641980618,10.8889388751,-2.38949640901,0.0
1419804807025.00,1.47142360589,10.2595404979,-2.07797636772,0.0
1419804807047.00,1.05257801341,9.22723105066,-1.4609393537,0.0
1419804807048.00,0.401117995488,8.13768013013,-1.05105353734,0.0
1419804807053.00,-0.289065345633,7.43105178323,-0.816035676017,0.0
1419804807078.00,-0.815250679258,7.09009367151,-0.716857498373,0.0
1419804807079.00,-0.890758873367,6.65473409634,-0.575968434604,0.0
1419804807085.00,-0.89333544283,6.40878632983,-0.35697927789,0.0
1419804807094.00,-1.01089890592,6.26952168772,-0.23820055722,0.0
1419804807112.00,-1.01828942474,6.10944316015,-0.117369159673,0.0
1419804807114.00,-0.883869998612,6.00534427258,0.0520182495944,0.0
1419804807125.00,-0.806152885862,5.95265229554,0.260792728234,0.0
1419804807145.00,-0.726718387847,5.91753755048,0.670397940998,0.0
1419804807147.00,-0.72978155657,6.02814494248,1.0565296764,0.0
1419804807153.00,-0.720238556555,6.24906318914,1.2273552854,0.0
1419804807179.00,-0.637950132759,6.52414560421,1.11531074703,0.0
1419804807183.00,-0.520946694401,6.80332139663,0.99644772806,0.0
1419804807185.00,-0.2270076429,7.08903876578,0.97769868927,0.0
1419804807218.00,0.0554621199906,7.57165975175,1.22891016252,0.0
1419804807219.00,0.324627552392,8.34183155202,1.65059326942,0.0
1419804807221.00,0.492544177231,9.49164877486,1.83051434487,0.0
1419804807225.00,0.560745775048,10.8529279998,1.89495731978,0.0
1419804807242.00,0.71485387712,12.1355957184,1.86139509167,0.0
1419804807258.00,0.707606189574,13.3608652209,1.78990181267,0.0
1419804807258.00,0.627517969526,14.327142661,1.73833792016,0.0
1419804807277.00,0.436033070541,15.0247396099,1.74537991186,0.0
1419804807278.00,0.311601354626,15.2506757597,1.74366399849,0.0
1419804807285.00,0.307460590825,14.6575860377,2.45239230157,0.0
1419804807306.00,0.594964467932,13.1260879068,3.68407473138,0.0
1419804807307.00,0.606609196324,11.8571760731,4.51066864049,0.0
1419804807321.00,0.0748475584499,11.7579163665,4.55496301286,0.0
1419804807340.00,-0.283330690134,12.6310188775,3.77611435807,0.0
1419804807341.00,-0.0420624130452,13.8485934258,1.92502219037,0.0
1419804807357.00,-0.0428747286003,15.5215434133,-0.226167173382,0.0
1419804807358.00,-0.336568101859,16.9041103307,-3.52770062651,16.9041103307
1419804807374.00,-1.66943753279,16.7935715586,-5.05703107189,0.0
1419804807375.00,-2.8149187847,14.3070852255,-1.43721463909,0.0
1419804807389.00,-2.98207015499,11.4271165267,0.785957100707,0.0
1419804807404.00,-1.64629123896,9.18951576486,-0.579822505864,0.0
1419804807405.00,-0.77806849329,8.15302388997,-2.97815861478,0.0
1419804807423.00,-0.559940147661,7.58429587377,-4.89461522268,0.0
1419804807425.00,-0.755562296923,7.22548772828,-5.26640902094,0.0
1419804807441.00,-0.983541586415,7.4152042736,-4.65715752773,0.0
1419804807455.00,-0.857124191901,8.02343985877,-4.22229188584,0.0
1419804807456.00,-0.545306312768,8.54861065943,-4.12477399387,0.0
1419804807472.00,-0.175620227721,9.19967130569,-3.83153015495,0.0
1419804807473.00,-0.0635300352062,10.0692626992,-3.55540580952,0.0
1419804807488.00,-0.502237929445,10.9325128806,-3.45908426376,0.0
1419804807504.00,-1.16793589906,11.3786848302,-2.90237781365,0.0
1419804807507.00,-1.70002617257,11.3046616091,-1.83586884883,0.0
1419804807528.00,-1.95122344247,10.8882970401,-1.10720586441,0.0
1419804807529.00,-1.78953137829,10.3003982413,-1.03581827755,0.0
1419804807534.00,-1.48274457505,9.73329484923,-1.16188664849,0.0
1419804807560.00,-0.987545478571,9.12568289769,-1.13093487682,0.0
1419804807561.00,-0.65036882789,8.79311029661,-0.867540000377,0.0
1419804807566.00,-0.360322449057,8.52667124232,-0.535672607757,0.0
1419804807574.00,-0.0208942663786,8.05803620019,-0.403570521173,0.0
1419804807609.00,0.0537684944732,7.64456809312,-0.451611656651,0.0
1419804807611.00,0.206436692918,7.24220722938,-0.511200704487,0.0
1419804807613.00,0.508090757644,6.96967140607,-0.66342543944,0.0
1419804807617.00,0.764858387332,6.84392781085,-0.836331415024,0.0
1419804807674.00,0.703528652079,7.06699338092,-0.9645147206,0.0
1419804807677.00,0.900059334716,7.19378795618,-0.882907217204,0.0
1419804807679.00,1.19554416598,7.06786626726,-0.814910298995,0.0
1419804807680.00,1.2669248055,7.14604844122,-0.535191177813,0.0
1419804807681.00,1.40249626452,7.27026672235,0.122321561535,0.0
1419804807682.00,1.48334878344,7.33699523958,0.925005305564,0.0
1419804807702.00,1.48541410823,7.45883626916,1.50743381854,0.0
1419804807703.00,1.433178518,7.77445071664,1.75095568014,0.0
1419804807705.00,1.56053330643,8.25608807542,1.61141011534,0.0
1419804807723.00,1.74160450099,8.85061404176,1.20432866461,0.0
1419804807727.00,1.79286675407,9.46040236406,1.00160630387,0.0
1419804807774.00,1.78886724258,9.84394325273,1.31935803803,0.0
1419804807776.00,1.80702900931,9.89408781125,1.96660502943,0.0
1419804807778.00,1.83526425507,9.84033836482,2.47395481572,0.0
1419804807779.00,1.86980383865,9.76231849865,2.49888709055,0.0
1419804807780.00,1.9312389993,9.8771332982,1.97019819866,0.0
1419804807793.00,1.96731757204,10.1830555672,1.20388292569,0.0
1419804807794.00,1.85716484314,10.5690497187,0.680312144058,0.0
1419804807805.00,1.52094790551,11.0864559342,0.755933711279,0.0
1419804807820.00,1.13757857588,11.5271055827,1.24879079486,0.0
1419804807839.00,0.925722688732,11.8079562279,1.78735658996,0.0
1419804807840.00,0.874581975503,11.9845630628,2.15119945988,0.0
1419804807859.00,0.957370875026,12.0564765872,2.29584460519,0.0
1419804807860.00,1.06512481902,12.1881291415,2.45490041895,0.0
