time,acc_x,acc_y,acc_z,gravity_x,gravity_y,gravity_z,vertaccel,corr
1419804789353.00,-2.1428933005,9.41946498957,0.261608709993,4.48807657705e-14,9.80665195417,7.54951656745e-15,90.7704893028
1419804789357.00,-1.99780545991,9.26693682455,0.409130815196,3.98014954328e-14,9.80665149383,-2.6645352591e-15,89.5720425117
1419804789368.00,-1.74329358978,9.43428025592,0.652588665037,-7.88258347484e-15,9.80665076274,3.33066907388e-15,91.5985975507
1419804789384.00,-1.08678806118,9.91134179076,0.817337030263,1.37667655054e-14,9.80665157345,2.22044604925e-16,96.5265670347
1419804789388.00,-0.500498013445,10.2630328828,0.669439930213,-1.08801856413e-14,9.80665009239,-8.43769498715e-15,99.8769600612
1419804789399.00,-0.237327455826,10.4915096674,0.410964079522,-1.75415237891e-14,9.80665019206,-9.10382880193e-15,101.910145762
1419804789408.00,-0.0420595779899,10.5241931445,0.20983740062,0.0,9.80665026641,-1.99840144433e-15,102.086474717
1419804789418.00,0.119461582066,10.4068057796,0.132417117406,2.6645352591e-15,9.80664960942,-8.881784197e-15,100.919317969
1419804789435.00,0.263802363581,10.2127258635,0.208542702852,-3.99680288865e-15,9.80665027412,1.1990408666e-14,99.1575472411
1419804789436.00,0.36969761498,10.0185280366,0.337697819212,-1.06581410364e-14,9.80664960095,-6.66133814775e-15,97.459644465
1419804789451.00,0.380978291088,9.85130079442,0.311398890556,6.66133814775e-15,9.80665210912,1.55431223448e-15,95.8762090697
1419804789456.00,0.315142729783,9.78351366635,0.194680279152,-8.99280649946e-15,9.8066502605,2.99760216649e-15,95.163831672
1419804789468.00,0.24432565185,9.81267917367,0.105525925431,-6.88338275268e-15,9.80664932548,2.88657986403e-15,95.406542056
1419804789483.00,0.130797750968,9.84212754336,0.0988926508603,2.03170813506e-14,9.80665020179,-7.21644966006e-15,95.7135983374
1419804789490.00,-0.0633671591396,9.77874500167,0.193809071254,-1.68753899743e-14,9.80664917684,-1.22124532709e-15,95.2134710102
1419804789501.00,-0.233384965878,9.76145077523,0.118747145114,2.44249065418e-15,9.80665008736,-5.55111512313e-16,95.0133833078
1419804789516.00,-0.480205302778,9.6467534325,-0.0939927138371,1.24344978758e-14,9.8066506747,3.66373598126e-15,93.7262213851
1419804789517.00,-0.447283883335,9.49478063747,-0.192143764298,1.33226762955e-15,9.80664977152,1.66533453694e-15,92.1341012928
1419804789533.00,-0.361017917357,9.51969576567,-0.236333043026,1.54321000423e-14,9.80665158642,-7.54951656745e-15,92.2844125335
1419804789538.00,-0.289750999298,9.45390612419,-0.267687982234,4.55191440096e-15,9.80665178321,-7.32747196253e-15,91.5583368603
1419804789549.00,-0.151922593379,9.15012886262,-0.381466676256,-2.55351295664e-15,9.8066502588,-2.33146835171e-15,88.4149316099
1419804789556.00,0.00630122294517,8.84808109743,-0.499305641244,1.74305014866e-14,9.80665014464,-1.02140518266e-14,85.2415964307
1419804789568.00,0.125143234037,8.67180991401,-0.625007395267,3.99680288865e-15,9.80665124707,-6.88338275268e-15,83.2315383693
1419804789583.00,0.203282427201,8.63938924333,-0.6807402923,4.55191440096e-15,9.80665065721,7.54951656745e-15,82.6379901361
1419804789588.00,0.325974846311,8.70339238014,-0.778990625618,1.82076576039e-14,9.80665046669,-6.66133814775e-15,82.8821734838
1419804789600.00,0.436231844545,8.88033517388,-0.794058265718,-1.08801856413e-14,9.80665003038,8.881784197e-15,84.2559170105
1419804789615.00,0.419787168238,9.21908373334,-0.631181435577,1.59872115546e-14,9.80664969889,-1.55431223448e-15,87.4230158242
1419804789616.00,0.340513671236,9.61024714053,-0.370930630363,-6.88338275268e-15,9.80665055558,-5.77315972805e-15,91.2814441656
1419804789633.00,0.379571011415,9.96823937366,-0.103631367399,4.55191440096e-15,9.80664927683,1.11022302463e-15,94.9314148044
1419804789636.00,0.251876932787,10.4387600322,0.160645781115,-1.68198788231e-14,9.80665027272,-1.7763568394e-15,99.7541693663
1419804789649.00,0.0653471753365,10.9945763016,0.344734792114,2.77555756156e-15,9.80665105376,-3.77475828373e-15,105.35918062
1419804789665.00,-0.0551224102182,11.490552627,0.458007288354,1.17128529098e-14,9.80664931658,2.88657986403e-15,110.349553552
1419804789670.00,-0.0417986862605,11.8312911609,0.430813904309,2.0872192863e-14,9.80665089182,-4.4408920985e-16,113.678787709
1419804789682.00,0.182808799723,11.9672226748,0.278240496388,1.50990331349e-14,9.80664977555,-2.6645352591e-15,114.870046121
1419804789688.00,0.569049816406,11.8354682769,-0.0325514289491,-9.99200722163e-15,9.80664947347,4.21884749358e-15,113.235417172
1419804789700.00,0.707070012938,11.5252959786,-0.404746815327,9.21485110439e-15,9.80664931494,-3.10862446895e-15,109.710460293
1419804789717.00,0.468804071383,11.2325645689,-0.660982036663,9.82547376793e-15,9.80665154987,4.4408920985e-16,106.391679746
1419804789718.00,0.203841142243,10.9439329408,-0.715626406335,-7.21644966006e-15,9.80665107431,1.33226762955e-15,103.30428191
1419804789733.00,0.142929263782,10.6482670438,-0.561952755337,3.44724249146e-14,9.80665042369,-6.66133814775e-15,100.458042527
1419804789736.00,0.226733556226,10.1527455982,-0.226212984035,4.94049245958e-15,9.8066502151,-1.7763568394e-15,96.0972385242
1419804789748.00,0.393882391022,9.64076041735,0.138125968933,3.697042672e-14,9.80664909989,-3.33066907388e-15,91.8204783202
1419804789756.00,0.341649327204,9.24884995025,0.244535696162,3.28348459533e-14,9.80664945255,-5.99520433298e-15,88.3810187927
1419804789768.00,0.304762631995,8.9815776031,0.323082686275,-2.85604873085e-14,9.80665135698,6.66133814775e-16,86.0907541826
1419804789784.00,0.299595047146,8.76941310401,0.381446661416,8.70414851306e-14,9.80664934237,-5.77315972805e-15,84.2734407026
1419804789788.00,0.285775006169,8.70682642618,0.354040037188,-6.10622663544e-15,9.80665072216,7.1054273576e-15,83.7291632603
1419804789799.00,0.262532832534,8.74242585087,0.234459899048,9.99339500041e-14,9.80664993817,-3.33066907388e-15,83.9713342163
1419804789815.00,0.223185577519,8.8413895755,0.206591635546,-1.26551547019e-13,9.80665043124,-9.7699626167e-15,84.9192900218
1419804789816.00,0.189618264753,8.94103528834,0.274807910953,4.87804241445e-15,9.8066500807,-1.26565424807e-14,85.9989042398
1419804789833.00,0.158793297298,9.02770839945,0.408139891969,1.66154416614e-13,9.80664920283,-4.4408920985e-16,87.0578648939
1419804789839.00,0.0426310716241,9.14665266099,0.513445096493,-1.23263031726e-12,9.80665041069,5.10702591328e-15,88.410895934
1419804789850.00,-0.0324216372083,9.26718612592,0.498408066142,7.03813743397e-13,9.80665241401,6.66133814775e-16,89.6273801429
1419804789857.00,0.00285847656356,9.38194798801,0.41460142202,-1.76000056543e-12,9.80664961363,-3.99680288865e-15,90.693661113
1419804789868.00,0.0637085204588,9.43115238646,0.330132749322,-8.61850207087e-12,9.80665180406,5.77315972805e-15,91.1280838123
1419804789881.00,0.185351328889,9.59157280684,0.293416106525,-1.29635625151e-12,9.80664946504,1.99840144433e-15,92.6773634584
1419804789888.00,0.280747994233,9.76206927564,0.0865840708922,-2.23432383706e-13,9.80665182215,-5.77315972805e-15,94.1041927276
1419804789900.00,0.288177690086,9.89016971094,0.0467797785214,1.23026588916e-14,9.80664907725,7.1054273576e-15,95.3019276811
1419804789916.00,0.278656595244,9.95371426783,-0.0239616712023,-6.80705491973e-14,9.80665038164,1.33226762955e-15,95.8347190948
1419804789917.00,0.245927539924,9.93748500168,-0.214424975589,-5.35543831504e-14,9.8066498424,-6.43929354283e-15,95.425114089
1419804789933.00,0.186110495733,9.90318428576,-0.410590277218,2.02476924116e-14,9.80665020395,-1.99840144433e-15,94.7662023897
1419804789937.00,0.145240938664,9.86436295365,-0.568133127313,1.14352971536e-14,9.80665077672,-2.22044604925e-15,94.0457241609
1419804789948.00,0.16859701917,9.79668119734,-0.731184506967,-3.25850457727e-14,9.80665066471,-1.24344978758e-14,92.9647326058
1419804789968.00,0.159491412853,9.72954871753,-0.956751682435,-2.44526621174e-14,9.80664976723,-6.66133814775e-15,91.7003262301
1419804789969.00,0.103598995318,9.76242738198,-1.27042014687,-6.13398221105e-15,9.80665087557,-6.66133814775e-16,91.1061806082
1419804789989.00,0.0381216411158,9.92031237187,-1.5670017458,8.10462807976e-15,9.80665237755,-2.22044604925e-16,91.4932380935
1419804789990.00,-0.127600167314,10.1541150595,-1.699217963,1.90958360236e-14,9.80665136381,-4.66293670343e-15,92.6209193167
1419804790002.00,-0.415394600771,10.3158808024,-1.57502581978,1.91235915992e-14,9.8066512059,-7.1054273576e-15,93.393414046
1419804790018.00,-0.666333239262,10.398074119,-1.22640510959,1.48492329544e-14,9.80665019168,-6.66133814775e-15,93.9548255959
1419804790019.00,-0.942854411434,10.4720177879,-0.87924278043,-1.2002898675e-13,9.80665036479,-5.3290705182e-15,94.6856469636
1419804790034.00,-1.044743549,10.6156075168,-0.52480967145,-4.43936554184e-13,9.80665180256,-8.881784197e-15,96.3256188075
1419804790037.00,-1.03063080412,10.8917514634,-0.0277580917081,-1.31006316906e-14,9.80665064199,-1.33226762955e-15,99.7688373338
1419804790050.00,-0.845616663746,11.2920027341,0.571977151077,-4.77395900589e-15,9.80664931398,-2.22044604925e-15,104.888931554
1419804790057.00,-0.479760537656,11.7066483207,0.96150441445,-6.49480469406e-15,9.80665135603,-2.22044604925e-15,109.899419218
1419804790069.00,-0.026955551572,12.166787361,1.05897283465,-4.99600361081e-15,9.80665081894,-1.33226762955e-15,114.832093878
1419804790083.00,0.325023922917,12.7442183516,0.914109198663,7.21644966006e-15,9.8066498673,0.0,120.386541524
1419804790088.00,0.532043575678,13.4088389204,0.850534812622,-1.27675647832e-15,9.80665079816,-4.4408920985e-15,126.919726839
1419804790099.00,0.749624749459,13.9675949933,0.765701001208,5.10702591328e-15,9.80665060524,-4.88498130835e-15,132.406035244
1419804790116.00,1.00442070901,14.3132256115,0.44315637861,-3.80251385934e-15,9.80665089496,-3.10862446895e-15,135.376249485
1419804790117.00,1.06520437737,14.3900160702,0.0825995094572,4.64350780049e-14,9.80665106086,2.44249065418e-15,135.614784687
1419804790134.00,0.817940339931,14.347211012,-0.199370325116,4.11268241685e-14,9.80665016963,0.0,134.713871312
1419804790137.00,0.450166266269,14.2898567169,-0.359426590488,7.76011199743e-14,9.8066506878,1.55431223448e-15,133.769225296
1419804790149.00,0.169039952007,14.1548608484,-0.508016376093,7.7410300392e-14,9.80665081292,-4.88498130835e-15,132.016422622
1419804790163.00,-0.0962840289525,13.9740713956,-0.806538539305,-1.1698975122e-14,9.80665018421,-7.1054273576e-15,129.459636867
1419804790168.00,-0.565882667724,13.8504220452,-1.12080214502,-2.46747067223e-14,9.80665086626,-2.22044604925e-15,127.275936571
1419804790180.00,-1.08506852358,13.2708158406,-1.52899081507,1.26745836049e-13,9.80665069563,-1.33226762955e-15,120.503118271
1419804790188.00,-1.74741802508,12.3177410675,-1.48786310237,-2.76688394418e-13,9.80665096822,-3.99680288865e-15,110.987483906
1419804790200.00,-2.34571812047,11.2167505326,-1.2866844733,-6.44484465795e-14,9.80665158794,-8.881784197e-16,100.639021709
1419804790215.00,-2.86679897258,10.2568845796,-1.17570451534,-8.32667268469e-15,9.80665191699,-5.3290705182e-15,91.5619783799
1419804790216.00,-3.20737631663,9.46895858421,-1.0995864616,1.05471187339e-14,9.80665131905,-1.33226762955e-15,84.0821125166
1419804790233.00,-3.24133997708,8.82184079053,-1.00019796114,-7.66053886991e-15,9.80664878748,5.3290705182e-15,78.0322974429
1419804790236.00,-3.01606934811,8.39230777089,-0.694613815943,1.11022302463e-15,9.80664999207,-4.88498130835e-15,74.5827788306
1419804790250.00,-2.76068109889,8.30324303965,-0.258935713381,-3.10862446895e-15,9.80664967099,4.4408920985e-16,74.7292028639
1419804790266.00,-2.54641342125,8.58170572482,-0.113702143039,1.33226762955e-15,9.80665120847,-9.32587340685e-15,77.6373039011
1419804790268.00,-2.15154600136,8.89678975997,-0.195156254758,4.21884749358e-15,9.80665039366,-8.881784197e-16,80.3207239783
1419804790279.00,-1.80575000469,9.22508790899,-0.305463900424,1.02140518266e-14,9.80665098284,-4.4408920985e-15,83.0052370805
1419804790288.00,-1.3999805646,9.56795856205,-0.297333116046,1.7763568394e-15,9.80664989364,-5.77315972805e-15,86.0245557579
1419804790297.00,-0.770926517415,9.78539296286,-0.278706337914,4.4408920985e-16,9.80665105537,-8.881784197e-16,87.8300335388
1419804790314.00,-0.324593764521,10.0659262909,-0.567848261108,-8.881784197e-16,9.80665020326,-1.33226762955e-15,89.3692104136
1419804790317.00,-0.260488083218,10.4608103178,-0.714109794271,5.3290705182e-15,9.80665123946,2.22044604925e-15,92.2086872253
1419804790333.00,0.015586547145,10.6785292809,-0.666819880335,-1.33226762955e-15,9.8066500939,-3.10862446895e-15,93.7549558294
1419804790336.00,0.292110523019,10.9921584555,-0.346525521947,3.99680288865e-15,9.80665107875,1.7763568394e-15,96.8681338626
1419804790348.00,0.439267080058,11.347485309,0.298120697707,1.33226762955e-15,9.8066495857,-2.6645352591e-15,101.456506702
1419804790366.00,0.544866662473,11.4956088349,0.703703727631,1.24344978758e-14,9.80665020235,-6.2172489379e-15,103.934851257
1419804790368.00,0.506912041111,11.3956455511,0.581783420621,6.66133814775e-15,9.80664872843,-1.33226762955e-15,103.01262292
1419804790380.00,0.472029269175,11.0533314099,0.235185207791,8.881784197e-16,9.80665001923,-1.33226762955e-15,99.2817976477
1419804790397.00,0.367564437572,10.4559444894,-0.0442621187752,8.881784197e-16,9.80665017434,-1.33226762955e-15,93.3164546793
1419804790398.00,0.159683336986,9.75152752607,-0.160050112585,5.3290705182e-15,9.80665013508,-4.4408920985e-15,86.7611724129
1419804790414.00,-0.0388336873536,8.99874108956,-0.158236119435,7.1054273576e-15,9.80665073341,-4.88498130835e-15,80.0767426093
1419804790417.00,-0.0685052978579,8.2748731161,-0.176546638594,-1.33226762955e-15,9.80664992252,-3.99680288865e-15,73.6046151957
1419804790431.00,-0.0585925634652,7.74669873623,-0.263972035146,-2.6645352591e-15,9.80665113575,0.0,68.6912860276
1419804790447.00,0.14710525009,7.08984561886,-0.253333637724,7.54951656745e-15,9.8066503358,-5.3290705182e-15,62.7888394719
1419804790449.00,0.270292330303,6.81921356021,0.0484618813424,2.22044604925e-15,9.80665079488,-3.99680288865e-15,61.1067456096
1419804790463.00,0.267024333368,6.69295009782,0.311790422056,1.7763568394e-15,9.80665034035,-2.22044604925e-15,60.7554248848
1419804790469.00,0.360871079335,6.53484601155,0.487518798062,4.88498130835e-15,9.80664990519,-4.4408920985e-16,59.9205263059
1419804790482.00,0.355566778858,6.52304563707,0.722795671749,7.1054273576e-15,9.80664986647,-2.22044604925e-15,60.6180674223
1419804790499.00,0.403636073989,6.53974884126,0.972331754137,9.32587340685e-15,9.80664957762,-6.2172489379e-15,61.651848518
1419804790499.00,0.467669688348,6.61180604375,1.07058137119,4.88498130835e-15,9.8066514731,-8.881784197e-16,62.8344537733
1419804790516.00,0.60107953544,6.66252126022,1.31187259134,5.3290705182e-15,9.80665049379,-1.7763568394e-15,64.1721129689
1419804790517.00,0.748136936256,6.64999522692,1.67791969472,6.66133814775e-15,9.8066503681,-1.33226762955e-15,65.1944296131
1419804790537.00,0.938676841143,6.60933371577,1.73904864699,3.77475828373e-15,9.80664927464,-3.10862446895e-15,65.237781824
1419804790540.00,1.12253253828,6.83054641521,1.70333339301,-1.99840144433e-15,9.80665076983,-1.55431223448e-15,67.497448677
1419804790559.00,1.17566593176,7.34367850541,1.62403142484,7.32747196253e-15,9.80664998826,-7.9936057773e-15,72.4534331388
1419804790560.00,1.12472967239,8.21371707849,1.63879366103,2.44249065418e-15,9.80664927129,-1.06581410364e-14,81.0019613605
1419804790573.00,1.13137550602,9.41214461095,1.66117045871,-1.7763568394e-15,9.8066501304,-1.99840144433e-15,92.7505924305
1419804790595.00,1.13762257825,10.7998151735,1.42467155018,6.2172489379e-15,9.80664863764,-3.99680288865e-15,106.076159459
1419804790599.00,1.17512058828,12.2429243712,0.99347146346,8.881784197e-16,9.80665090713,-1.7763568394e-14,119.848889312
1419804790600.00,1.05710556778,13.7565753216,0.747141610938,7.1054273576e-15,9.80664929821,7.21644966006e-15,134.542546892
1419804790623.00,0.562566687261,15.3319421187,0.502905898984,-6.66133814775e-16,9.80665039772,-5.99520433298e-15,149.864470173
1419804790624.00,-0.108592187513,16.4260290406,-0.24184216973,7.32747196253e-15,9.80664990623,1.45439216226e-14,160.138968045
1419804790629.00,-0.169910173085,16.0281889923,-0.959781906465,4.66293670343e-15,9.8066509478,-1.99840144433e-14,155.70217356
1419804790638.00,0.0722054814424,14.1108879018,0.545985125065,2.55351295664e-15,9.80665090328,-4.99600361081e-15,137.920462356
1419804790656.00,0.17996808126,12.0079808845,2.9724553323,1.0325074129e-14,9.80665080575,-1.55431223448e-15,119.276522426
1419804790658.00,0.602702816288,10.7763277386,3.79783413721,1.59872115546e-14,9.80664891255,-3.99680288865e-15,107.697346388
1419804790669.00,0.824354451508,10.642499681,3.6155504927,-1.11022302463e-15,9.80665183162,-1.36557432029e-14,106.118660647
1419804790691.00,0.351683589434,11.8072934053,2.9377641249,1.64313007645e-14,9.80665040988,1.13242748512e-14,116.998046869
1419804790692.00,0.157936181978,12.8992400176,-0.717217831297,5.44009282066e-15,9.80665144881,1.7763568394e-15,125.93234349
1419804790698.00,-0.968351721226,13.5066543878,-4.40998189783,4.99600361081e-15,9.80665053145,-8.77076189454e-15,130.602293466
1419804790722.00,-3.15644085025,14.130514391,-7.39090965702,5.99520433298e-15,9.80665027697,1.75415237891e-14,135.620297037
1419804790733.00,-5.08369410651,14.2047764913,-8.54522253975,1.3211653993e-14,9.80665025758,7.21644966006e-16,135.406254228
1419804790734.00,-6.52017857619,13.4099127499,-4.85524273916,-5.88418203051e-15,9.80664994181,1.33226762955e-14,128.518962277
1419804790760.00,-7.45546770561,11.8645110662,-0.725747110747,1.88737914186e-14,9.80664988198,-1.99840144433e-15,115.481113497
1419804790761.00,-6.84606335276,10.0505767168,-0.275910578935,3.5527136788e-15,9.8066509784,9.7699626167e-15,97.9477191557
1419804790762.00,-4.51613903066,7.7955776154,-1.84475674143,4.21884749358e-15,9.80664937644,-4.32986979604e-15,74.5796421228
1419804790770.00,-3.51700056611,7.15648066872,-3.21723378854,3.10862446895e-15,9.80664900773,1.33226762955e-15,66.7699160755
1419804790791.00,-2.22432978012,7.01401232841,-3.49333420054,6.66133814775e-15,9.80665073362,-1.11022302463e-15,64.5186366356
1419804790792.00,-1.49123484554,7.30440839709,-4.02824959531,3.10862446895e-15,9.80665032223,5.55111512313e-15,66.0482842072
1419804790798.00,-0.849342094253,8.03823076478,-3.74711639028,3.10862446895e-15,9.80664972614,-9.54791801178e-15,72.6680562658
1419804790823.00,-0.13389806805,8.71957296501,-3.08646722547,5.3290705182e-15,9.80665040747,-3.77475828373e-15,79.4540839033
1419804790823.00,0.419683674409,9.38172668578,-2.8492794913,8.43769498715e-15,9.80665020902,1.33226762955e-15,85.7446447805
1419804790829.00,0.0774401454904,10.414843368,-2.97116452837,7.54951656745e-15,9.80665259339,4.4408920985e-15,95.2621142533
1419804790867.00,-0.763354241156,11.1961146004,-3.0897705793,3.99680288865e-15,9.80665101921,-1.11022302463e-15,102.409076282
1419804790868.00,-1.20811751497,11.0835076668,-2.75604580117,-1.33226762955e-15,9.80665022749,-4.66293670343e-15,101.698077911
1419804790869.00,-1.40708709917,10.5742396426,-1.93200884741,3.5527136788e-15,9.80664940494,-2.22044604925e-15,97.9851646379
1419804790872.00,-1.48617246754,9.94402223688,-1.40227991954,2.6645352591e-15,9.80665038339,-8.881784197e-16,92.687330989
1419804790893.00,-1.41887389493,9.35857279133,-1.60381976178,7.1054273576e-15,9.80665143494,-2.22044604925e-15,86.618049761
1419804790894.00,-1.07918014605,8.95760108856,-2.03463323277,3.10862446895e-15,9.806651895,-7.54951656745e-15,81.8506813923
1419804790898.00,-0.706703676544,8.66141128575,-2.31325622023,0.0,9.8066505705,2.22044604925e-15,78.2712751875
1419804790920.00,-0.427267525702,8.42177867596,-2.07672832114,0.0,9.8066508123,4.88498130835e-15,76.1139600882
1419804790922.00,-0.193978141999,8.12993041466,-1.44355644646,3.99680288865e-15,9.80665200351,-2.6645352591e-15,74.2235976068
1419804790936.00,-0.194198293052,7.91608385209,-0.816628956122,3.10862446895e-15,9.80665116614,1.99840144433e-15,73.1748389429
1419804790939.00,-0.224869658164,7.64564560773,-0.399148967694,-3.10862446895e-15,9.80665002674,-6.43929354283e-15,71.2982943416
1419804790955.00,-0.230739309839,7.3468748569,-0.270121873207,8.43769498715e-15,9.80665117905,1.33226762955e-15,68.687807222
1419804790958.00,-0.114368454146,6.99349251862,-0.171995816601,4.4408920985e-15,9.80664894379,-5.55111512313e-15,65.5585359847
1419804790969.00,-0.0422230828,6.88518091948,-0.283912045436,7.77156117238e-15,9.80665079351,3.5527136788e-15,64.370969383
1419804790984.00,0.0110725274381,6.86764549266,-0.531800900355,8.881784197e-16,9.80665019651,-4.88498130835e-15,63.8117969289
1419804791000.00,0.28001968648,6.79574124778,-0.779542265742,5.10702591328e-15,9.80665084311,1.7763568394e-15,62.7274428551
1419804791001.00,0.512779074263,6.90945515754,-0.744893348031,-4.21884749358e-15,9.80664991939,5.55111512313e-15,63.8959524944
1419804791014.00,0.519322383274,7.21097980235,-0.487920713981,8.881784197e-16,9.80665034485,-5.99520433298e-15,67.234209076
1419804791018.00,0.543753562047,7.43515346826,0.00294222976525,-2.22044604925e-16,9.80664952149,6.66133814775e-16,70.2548988686
1419804791032.00,0.521353375439,7.68069002478,0.493799563305,-5.77315972805e-15,9.8066496618,-8.21565038223e-15,73.4881695693
1419804791050.00,0.39090083552,8.11766672992,0.787232267394,-3.77475828373e-15,9.80664937192,-5.10702591328e-15,78.1981038534
1419804791051.00,0.22619819458,8.60919301296,1.03987149125,8.881784197e-16,9.80665054621,3.77475828373e-15,83.3815044162
1419804791064.00,0.135847494867,8.99653776967,1.20142252628,7.9936057773e-15,9.80665036699,-6.88338275268e-15,87.4410543067
1419804791069.00,0.210748919997,9.24958170033,1.32736345298,6.66133814775e-15,9.80665191552,-2.88657986403e-15,90.1682932777
1419804791080.00,0.371248888548,9.4314251404,1.53616140958,-2.6645352591e-15,9.80665114586,-6.66133814775e-16,92.346156171
1419804791100.00,0.543706078618,9.52801430945,1.79493447012,6.88338275268e-15,9.8066493131,1.99840144433e-15,93.7680704472
1419804791101.00,0.70482628697,9.77887287554,1.86600065453,-1.33226762955e-15,9.80664925449,-1.99840144433e-15,96.3506230406
1419804791119.00,0.765562701489,10.2667845404,1.60717615375,2.22044604925e-16,9.80665184728,-1.11022302463e-15,100.712025289
1419804791121.00,0.720731671996,10.8699816791,1.19926060875,5.10702591328e-15,9.80665121026,-4.66293670343e-15,105.986978978
1419804791131.00,0.638256804489,11.4669103357,0.929342654202,-2.22044604925e-15,9.80665118427,-9.10382880193e-15,111.412669271
1419804791147.00,0.63446395297,11.9797806176,1.06939510794,5.10702591328e-15,9.806650263,8.881784197e-16,116.589276144
1419804791149.00,0.732791973532,12.3598783572,1.51984076903,-6.66133814775e-16,9.80665041381,4.21884749358e-15,120.892015894
1419804791165.00,0.861837123079,12.6679935975,1.94399977215,1.33226762955e-15,9.80665136959,4.4408920985e-15,124.459018143
1419804791171.00,1.05794676879,12.9965435293,2.11158244289,-2.6645352591e-15,9.80665004617,-1.31006316906e-14,127.875595965
1419804791181.00,1.13916659123,13.3864840483,2.01586943345,1.11022302463e-15,9.80665015505,-8.881784197e-16,131.56010038
1419804791199.00,1.07704372161,13.7311248649,1.79116886078,-7.1054273576e-15,9.80665052786,-9.10382880193e-15,134.684463574
1419804791199.00,1.06812879571,13.662672118,1.47348393709,-3.99680288865e-15,9.80665039868,-5.55111512313e-15,133.747971508
1419804791217.00,1.2304347494,13.1797070192,0.95705206742,3.99680288865e-15,9.8066510699,3.77475828373e-15,128.611049233
1419804791221.00,1.29443647339,12.8796920835,0.219434943138,1.04360964315e-14,9.80665177233,6.88338275268e-15,125.068480114
1419804791242.00,1.22189365311,13.214993138,-0.00152719241768,-1.11022302463e-15,9.80665079079,-5.44009282066e-15,128.270584031
1419804791254.00,1.1393315298,13.9683654294,0.454148004481,3.99680288865e-15,9.8066502736,6.66133814775e-15,136.206277366
1419804791255.00,1.2307580631,14.4615752258,-0.160904542648,5.77315972805e-15,9.80664958206,-5.3290705182e-15,140.697673334
1419804791258.00,1.01766246716,14.5516496494,-1.28157529019,-3.33066907388e-15,9.8066511363,-1.52100554374e-14,140.967387817
1419804791270.00,0.51534959725,13.8638249878,-1.87108112911,7.9936057773e-15,9.80665177414,2.55351295664e-15,134.060637131
1419804791281.00,0.0901948855887,12.3942227825,-2.43824690171,4.4408920985e-15,9.80665050647,-1.9206858326e-14,119.504074938
1419804791304.00,-0.95983001348,10.966883501,-2.7718528057,3.10862446895e-15,9.80665102026,-6.77236045021e-15,105.487796349
1419804791305.00,-2.39226149252,9.77201732838,-2.54505090495,2.22044604925e-15,9.80664993904,5.55111512313e-16,94.0203408891
1419804791310.00,-3.4996692664,9.23425832469,-1.93981772391,9.99200722163e-15,9.80664946805,7.1054273576e-15,89.1351708427
1419804791318.00,-3.84997847041,9.383879515,-1.41964085938,1.04360964315e-14,9.80664922161,-1.29896093881e-14,90.8663405189
1419804791338.00,-3.71932492232,9.90658654275,-1.21977014278,6.66133814775e-15,9.80665027476,-3.77475828373e-15,96.0039935695
1419804791339.00,-3.46988159198,10.6747145182,-1.27055957098,-4.88498130835e-15,9.80665065695,-1.66533453694e-15,103.306555352
1419804791350.00,-3.53649582555,11.6329850938,-1.61236193541,-1.33226762955e-15,9.80665042359,2.44249065418e-15,112.14343992
1419804791368.00,-3.45284112841,12.0723694095,-1.77640615781,9.10382880193e-15,9.80665073174,-1.33226762955e-15,115.932982465
1419804791370.00,-2.94491940142,11.8526710535,-1.18120619031,3.33066907388e-15,9.80665132305,7.32747196253e-15,113.963106376
1419804791387.00,-2.20875328126,11.1668418443,-0.41646437758,4.21884749358e-15,9.80664960435,-1.08801856413e-14,107.776830877
1419804791390.00,-1.21387538612,10.7702954885,-0.0574157604605,4.88498130835e-15,9.80665137383,8.881784197e-16,104.082487267
1419804791399.00,0.0899370438617,10.4437912898,-0.0528913448725,5.77315972805e-15,9.80665040733,-1.22124532709e-14,100.701602642
1419804791420.00,0.944191421439,10.3443738389,-0.944374256427,3.77475828373e-15,9.80665134484,-9.54791801178e-15,98.3991432131
1419804791421.00,1.3712100619,10.1382372369,-2.08328093974,2.6645352591e-15,9.80665095142,3.77475828373e-15,94.6231045169
1419804791430.00,1.41196240784,9.63538819029,-2.56584680918,-2.22044604925e-15,9.80665167237,0.0,88.7949821645
1419804791464.00,1.22520427175,8.78432154604,-2.07450464804,7.32747196253e-15,9.80665013505,-5.99520433298e-15,81.0111647145
1419804791465.00,0.98078300487,7.79174684901,-1.26712564319,8.43769498715e-15,9.8066516789,-6.2172489379e-15,72.4526285393
1419804791466.00,0.598998355997,6.91463134138,-0.656531586269,1.11022302463e-15,9.80665133209,-9.7699626167e-15,64.8272302719
1419804791493.00,0.136041584132,6.24026954488,-0.553964345092,2.22044604925e-16,9.80665005798,-1.99840144433e-15,58.4107086526
1419804791493.00,-0.131634483657,5.83749782943,-0.766289701255,-1.7763568394e-15,9.8066510237,-2.22044604925e-15,54.0945736709
1419804791494.00,-0.416643660055,5.69213668876,-0.842733619585,1.22124532709e-14,9.80665046399,-2.88657986403e-15,52.4745569956
1419804791498.00,-0.523275583097,5.52958001798,-0.634456607452,1.99840144433e-15,9.80665020573,8.881784197e-16,51.2462886019
1419804791516.00,-0.598933299687,5.41727325307,-0.257028649175,8.881784197e-16,9.80665073382,1.11022302463e-15,50.8523982389
1419804791519.00,-0.649413354139,5.51477497754,0.135744015307,2.6645352591e-15,9.80665052317,-6.43929354283e-15,52.5085395793
1419804791533.00,-0.661846499652,5.83887831271,0.446274093221,1.11022302463e-15,9.8066504002,8.881784197e-16,56.1844607942
1419804791546.00,-0.688244732484,6.31263704887,0.648614617614,-2.22044604925e-15,9.806651038,-3.99680288865e-15,61.1069642996
1419804791550.00,-0.751334207592,6.72041232007,0.754821068797,-5.77315972805e-15,9.80665047272,3.5527136788e-15,65.2486971578
1419804791560.00,-0.793024019431,6.98279074087,0.813185768876,8.881784197e-16,9.80665071878,-1.11022302463e-15,67.940954918
1419804791578.00,-0.826343308365,7.17559093798,0.888263741999,5.10702591328e-15,9.80665012169,-7.32747196253e-15,69.9989322693
1419804791579.00,-0.73732806181,7.27574986606,0.96650618998,1.55431223448e-15,9.80664949996,-8.65973959208e-15,71.1606379272
1419804791603.00,-0.440130231115,7.28534505935,1.07615268756,5.77315972805e-15,9.80664961374,8.881784197e-16,71.4695393513
1419804791604.00,0.0164735677779,7.45533555715,1.16606895318,4.66293670343e-15,9.80665094976,2.22044604925e-16,73.2623374869
1419804791610.00,0.433283933866,8.04306984791,1.34930220422,1.99840144433e-15,9.80665151421,4.4408920985e-16,79.1853176865
1419804791619.00,0.6233487697,9.10751752757,1.60726370115,4.21884749358e-15,9.80665122865,4.66293670343e-15,89.79870529
1419804791637.00,0.911267723499,10.37963354,1.69009980568,4.4408920985e-16,9.80665021813,-7.1054273576e-15,102.189750327
1419804791639.00,1.35030628517,11.68838499,1.55238953939,7.1054273576e-15,9.8066506103,-6.66133814775e-15,114.673369545
1419804791652.00,1.5601560511,13.1372717008,1.2864221466,1.13242748512e-14,9.80665065992,-8.881784197e-15,128.394023589
1419804791671.00,1.42556731731,14.5419079861,0.952704762599,3.77475828373e-15,9.80665038584,1.7763568394e-15,141.658543231
1419804791672.00,0.694914507924,15.7772195774,0.442011351517,8.881784197e-16,9.80665119757,-4.66293670343e-15,153.132273431
1419804791678.00,-0.241498561803,16.3649335692,-0.438386984579,0.0,9.80664993505,1.33226762955e-15,157.950908702
1419804791721.00,-0.480671502411,15.5217240088,-0.307829733747,-4.4408920985e-16,9.80665052768,3.99680288865e-15,149.952556764
1419804791722.00,-0.254182712515,13.3625272625,2.01380060126,3.33066907388e-15,9.80665155598,-9.10382880193e-15,131.583770962
1419804791724.00,-0.244377985787,11.8634736122,3.94289251083,-4.4408920985e-16,9.80665183642,-7.1054273576e-15,119.209716955
1419804791726.00,-0.477502084118,12.3616829741,4.11657636704,2.22044604925e-16,9.80665232112,-5.10702591328e-15,124.223400412
1419804791731.00,-0.400331631014,13.9521583739,3.25749836012,8.881784197e-15,9.80665149344,-4.66293670343e-15,138.668831331
1419804791756.00,-0.180886079617,15.6049189591,1.62526939036,-2.6645352591e-15,9.80664952268,-3.33066907388e-15,152.960962799
1419804791757.00,-0.685785149646,17.0026857389,-1.26983541091,2.88657986403e-15,9.80664991694,-7.1054273576e-15,163.718814081
1419804791759.00,-2.12392561657,17.2574434392,-7.36390719883,-7.54951656745e-15,9.80664898056,1.0325074129e-14,160.598239535
1419804791784.00,-4.2177527787,16.1295265544,-7.81274077098,-2.6645352591e-15,9.80664900789,-4.88498130835e-15,148.715906007
1419804791786.00,-5.19922249755,13.0402162404,-1.75433294519,2.22044604925e-15,9.8066512403,-6.43929354283e-15,124.44435426
1419804791802.00,-4.96884674281,9.68385875853,1.37255917825,-8.881784197e-16,9.806651065,-7.54951656745e-15,95.3318151718
1419804791803.00,-2.60995663017,6.84670263835,-0.0206690728917,3.99680288865e-15,9.80665128465,4.66293670343e-15,66.0959116475
1419804791810.00,-1.34216515524,5.79660899325,-2.64653390903,5.3290705182e-15,9.80665010493,-3.33066907388e-15,52.281579493
1419804791837.00,-0.909103194835,5.60618666535,-4.8991905378,9.32587340685e-15,9.80665207233,-3.77475828373e-15,46.8519450519
1419804791839.00,-0.701113165881,5.96323812936,-5.1266670472,-4.4408920985e-16,9.8066497526,6.43929354283e-15,49.3247901547
1419804791840.00,-0.988872084744,7.25838987874,-4.46634472824,8.881784197e-16,9.80665051232,4.4408920985e-16,62.188353921
1419804791853.00,-0.912962985931,8.34430615511,-4.23408599452,1.33226762955e-15,9.80665098551,1.11022302463e-15,72.4552760765
1419804791883.00,-0.507003719211,9.19854883452,-3.68777854239,2.22044604925e-15,9.80665184557,-7.1054273576e-15,81.1412871699
1419804791885.00,-0.361420541886,10.0755634775,-3.27767689491,0.0,9.80665088936,-4.66293670343e-15,89.9404238125
1419804791886.00,-0.618226908249,11.0640817695,-3.21996115719,6.2172489379e-15,9.80665094668,-1.15463194561e-14,99.3067952694
1419804791900.00,-1.28623874766,11.8245045434,-2.72194133403,3.5527136788e-15,9.80665184772,1.99840144433e-15,107.293963918
1419804791900.00,-1.52296820171,11.5846953042,-1.65407294269,3.99680288865e-15,9.80665013905,-4.66293670343e-15,106.775547666
1419804791913.00,-1.45810540757,10.9750031385,-0.808609398309,3.5527136788e-15,9.80665101225,-6.88338275268e-15,102.386096537
1419804791933.00,-1.36390453629,10.4724141818,-0.555571517722,-1.7763568394e-15,9.80665005073,1.33226762955e-15,97.9806946715
1419804791934.00,-1.0576157129,9.91247226754,-1.00795280659,2.6645352591e-15,9.80665027426,-2.44249065418e-15,91.7394857286
1419804791946.00,-0.709619841332,9.3648491312,-1.63544806742,4.4408920985e-16,9.80665058015,-3.5527136788e-15,85.2554081147
1419804791952.00,-0.506270306356,8.9354621172,-1.74372557846,1.02140518266e-14,9.80664992056,-4.21884749358e-15,80.8941902682
1419804791967.00,-0.212228018348,7.83045589571,-0.720821602969,9.7699626167e-15,9.80664966897,-6.66133814775e-15,72.3620072213
1419804791979.00,0.00516156857883,7.25239180328,-0.471145328282,-5.3290705182e-15,9.8066502703,2.44249065418e-15,67.3911979914
1419804791979.00,0.130521632257,6.81471057609,-0.538661033942,7.54951656745e-15,9.80665069029,-4.88498130835e-15,63.1872194322
1419804791997.00,-0.0559807209363,6.63406240435,-0.609599959517,3.99680288865e-15,9.80665001315,-7.77156117238e-15,61.4772340941
1419804792000.00,-0.153995829881,6.54746816148,-0.655866625329,3.99680288865e-15,9.80665013992,6.66133814775e-16,60.734432805
1419804792015.00,0.143999100672,6.31106693843,-0.823089033151,-3.10862446895e-15,9.80665014657,-2.22044604925e-15,58.3399007089
1419804792029.00,0.627875536517,6.17274159183,-0.915745977256,-2.22044604925e-15,9.80665122856,-1.7763568394e-15,56.9887750127
1419804792030.00,0.942971146389,6.16221629154,-0.866436918387,1.7763568394e-15,9.80664981942,2.44249065418e-15,57.064565294
1419804792046.00,1.0575925086,6.32313566011,-0.596810588799,0.0,9.80665168898,2.88657986403e-15,59.0816095234
1419804792052.00,1.13635012907,6.44336725681,-0.208477359177,-2.22044604925e-15,9.80665139664,-1.33226762955e-15,60.8571296656
1419804792070.00,1.17338405572,6.60480489199,0.301237986593,-3.5527136788e-15,9.80665030363,-6.66133814775e-15,63.2274421734
1419804792071.00,1.08791598758,6.78611397243,0.899107112545,-6.66133814775e-16,9.80665030095,-4.4408920985e-16,65.9632164394
1419804792079.00,1.01824200832,7.21115148904,1.53488826595,-2.22044604925e-16,9.80665021392,-8.65973959208e-15,71.0995766893
1419804792109.00,0.946492937824,7.92786471824,1.83981370776,-5.77315972805e-15,9.806649681,-3.99680288865e-15,78.4688574892
1419804792111.00,0.974263230141,8.68655232407,1.93099105264,8.21565038223e-15,9.80665172945,-1.33226762955e-15,85.8992850751
1419804792112.00,1.15025417146,9.35865239393,2.10563892927,4.4408920985e-15,9.80665055995,8.881784197e-16,92.646926116
1419804792138.00,1.43251383696,9.85900753524,2.31761241501,-2.44249065418e-15,9.80664973346,-4.4408920985e-16,97.8085311629
1419804792139.00,1.64833413814,10.4027222521,2.41552101331,4.21884749358e-15,9.80665067795,0.0,103.216951991
1419804792140.00,1.84439553746,11.1080168367,2.20792555107,2.22044604925e-16,9.80665085007,-2.22044604925e-15,109.782553957
1419804792152.00,2.07521876557,11.8677591047,2.37360423633,6.2172489379e-15,9.8066499884,-1.08801856413e-14,117.383440793
1419804792173.00,2.31373214163,12.6545942736,2.15603085267,9.10382880193e-15,9.80665049971,-1.22124532709e-14,124.800428438
1419804792174.00,2.51293734195,13.252248614,1.31526307743,2.22044604925e-16,9.80664982896,2.44249065418e-15,129.774312429
1419804792180.00,2.55489893466,13.5177222649,1.34888743234,6.43929354283e-15,9.80665106191,1.36557432029e-14,132.485182811
1419804792213.00,2.56909946853,13.4851597491,2.32954886308,-2.22044604925e-15,9.80665070575,2.22044604925e-16,133.161123185
1419804792214.00,2.38741434794,13.5480445084,2.94779694537,2.44249065418e-15,9.80664895569,-5.55111512313e-16,134.366588341
1419804792215.00,2.06219316639,13.7544056253,2.79622968238,1.08801856413e-14,9.80664967998,3.88578058619e-15,136.233621185
1419804792245.00,1.66372790369,13.7755538694,2.31308405848,6.43929354283e-15,9.80665036629,-1.68753899743e-14,135.998580552
1419804792246.00,1.24107620529,13.575201378,1.5921036059,4.21884749358e-15,9.80665130637,-3.44169137634e-15,133.40167049
1419804792247.00,1.13767288126,13.139197725,0.313008044327,5.3290705182e-15,9.80665080156,-2.22044604925e-15,128.020725819
1419804792270.00,1.15935896653,13.0335807762,-0.936276713242,4.21884749358e-15,9.80664916822,-1.72084568817e-14,125.887637757
1419804792271.00,1.07936478959,13.336680648,-1.31005178402,3.5527136788e-15,9.80665170882,-3.44169137634e-15,128.486604538
1419804792272.00,1.01896803529,13.7983018965,-1.18033850168,1.22124532709e-14,9.80665093418,-1.11022302463e-14,133.071475549
1419804792279.00,1.07177685939,13.9224013652,-1.16904752264,1.1990408666e-14,9.80665074497,-8.99280649946e-15,134.251379896
1419804792308.00,1.04195727471,13.4212321089,-1.5181262177,-5.10702591328e-15,9.80665067417,1.04360964315e-14,129.012850646
1419804792311.00,0.697266088179,12.1956313527,-2.03637362707,6.88338275268e-15,9.80665071676,-1.25455201783e-14,116.605075496
1419804792312.00,-0.0284636211212,10.7641617711,-2.36747864984,4.4408920985e-16,9.8066504058,-2.22044604925e-16,102.432379572
1419804792345.00,-1.12136931878,9.78688686086,-2.12889029892,6.66133814775e-15,9.80665122696,-6.32827124036e-15,93.2330593145
1419804792346.00,-2.52642765905,9.51652217056,-1.28868385103,-2.22044604925e-15,9.80665113866,-6.10622663544e-15,91.4357871614
1419804792347.00,-3.56391327585,9.70109217355,-0.585560842958,5.88418203051e-15,9.80665162147,9.43689570931e-15,93.9009139468
1419804792374.00,-3.80425169471,10.1356810646,-0.320006677947,9.32587340685e-15,9.8066517005,-7.1054273576e-15,98.3903804595
1419804792375.00,-3.96804854643,10.7626464597,-0.363450988645,-5.44009282066e-15,9.80665119807,3.10862446895e-15,104.491191023
1419804792376.00,-4.03451347139,11.3106467319,-0.628253556437,-2.22044604925e-16,9.80665116139,-4.66293670343e-15,109.648678076
1419804792379.00,-3.88743776623,11.5801501728,-0.884661288041,-1.11022302463e-15,9.80664999059,1.7763568394e-15,112.094368288
1419804792401.00,-3.50814422895,11.5185550378,-0.839459387027,6.2172489379e-15,9.80665092793,4.55191440096e-15,111.535902245
1419804792402.00,-3.42394486479,11.359397802,-0.420237146452,7.32747196253e-15,9.80665111358,-2.22044604925e-16,110.306846202
1419804792411.00,-2.71986903354,10.708976606,0.0437058775916,-3.77475828373e-15,9.80664997917,3.77475828373e-15,104.309952923
1419804792434.00,-1.71955247198,10.1883085741,0.351452926353,4.21884749358e-15,9.80665087634,-4.4408920985e-16,99.4418139464
1419804792435.00,-0.556646559203,9.97221893539,0.519533733993,4.66293670343e-15,9.80665065036,-1.02140518266e-14,97.4176709079
1419804792439.00,0.711784077631,9.65139810597,-0.289141211434,-2.22044604925e-16,9.80665094027,-4.99600361081e-15,93.4445308461
1419804792474.00,1.21087593891,9.5509092598,-1.58904669942,4.66293670343e-15,9.80665029874,7.1054273576e-15,91.0200306112
1419804792475.00,1.25826680682,9.31424716766,-2.50614748958,8.881784197e-16,9.80665015292,-1.11022302463e-15,87.4834143624
1419804792481.00,1.33867613948,8.76419538064,-2.57059422056,-3.10862446895e-15,9.80665150985,-6.66133814775e-15,81.7138489448
1419804792482.00,1.32410461701,7.98221450759,-2.00940996996,9.99200722163e-15,9.80664979082,7.77156117238e-15,74.4242141422
1419804792502.00,0.864619186061,7.27905651945,-1.57978128481,8.21565038223e-15,9.80665148307,-3.33066907388e-15,67.8049610024
1419804792508.00,0.250012882899,6.62837808503,-1.48369203599,-5.99520433298e-15,9.80665078417,4.4408920985e-16,61.2927868316
1419804792511.00,-0.361802678726,6.23215746571,-1.24734324971,5.10702591328e-15,9.80665027955,-1.39888101103e-14,57.5023134905
1419804792538.00,-0.627294029257,5.97270699667,-0.925205910977,-3.5527136788e-15,9.80665171461,-1.7763568394e-15,55.2417695318
1419804792539.00,-0.787098443495,6.00480507024,-0.558550055678,1.33226762955e-14,9.80664989131,-2.88657986403e-15,55.9587241162
1419804792540.00,-0.873224787283,6.18866142249,-0.134322033526,1.15463194561e-14,9.8066504014,-5.10702591328e-15,58.3404257072
1419804792564.00,-0.935854286768,6.4191340068,0.323289244989,6.2172489379e-15,9.80665116508,-4.21884749358e-15,61.3268097158
1419804792564.00,-0.930712809406,6.61356073262,0.681670572157,4.66293670343e-15,9.80664990883,-2.6645352591e-15,63.8543718528
1419804792578.00,-0.819771776579,6.66614142612,0.859998308019,4.88498130835e-15,9.80665045691,-6.66133814775e-16,64.7437750191
1419804792579.00,-0.816943683922,6.72896089318,0.858411323486,1.33226762955e-15,9.80665071449,-5.10702591328e-15,65.4409384119
1419804792603.00,-0.798221740344,6.8157747635,0.666111493172,2.44249065418e-15,9.80665071055,-3.5527136788e-15,66.0622499405
1419804792604.00,-0.716469500969,6.85090131882,0.476518933105,9.54791801178e-15,9.80665126382,-3.10862446895e-15,66.2227140304
1419804792611.00,-0.537160031836,6.95627902541,0.45642764883,6.66133814775e-15,9.80665009872,-4.88498130835e-15,67.3142107254
1419804792643.00,-0.223241152654,7.18606963563,0.765919495093,8.881784197e-16,9.80665175978,-2.22044604925e-16,70.041718848
1419804792645.00,0.294028958613,7.60390302871,1.17986502836,2.22044604925e-15,9.80665053157,3.5527136788e-15,74.6632327563
1419804792647.00,0.694938231544,8.40881227592,1.76175110598,7.77156117238e-15,9.80665058606,4.21884749358e-15,83.2056906367
1419804792680.00,0.855682646409,9.66122374527,2.35108851188,3.5527136788e-15,9.80665069946,-8.21565038223e-15,96.054682254
1419804792682.00,1.07328774567,11.126262847,2.51242822269,-6.66133814775e-16,9.80665084199,5.10702591328e-15,110.371616058
1419804792685.00,1.28780769454,12.6389935956,2.42088735135,-1.33226762955e-15,9.80664972336,4.4408920985e-16,124.839875974
1419804792686.00,1.23239192895,14.2180591974,2.29674561278,3.99680288865e-15,9.80664972188,-3.77475828373e-15,139.964398691
1419804792700.00,0.894866867032,15.7202061988,1.908421024,1.99840144433e-15,9.80665046534,1.55431223448e-15,154.10297398
1419804792701.00,0.149795095726,16.7500846711,1.14134300704,1.33226762955e-15,9.80665075775,-1.7763568394e-15,163.327898314
1419804792711.00,-0.407830196451,16.5408111247,0.154031352617,6.66133814775e-16,9.80665022601,-5.99520433298e-15,160.345716346
1419804792737.00,-0.0410645437639,14.4887677417,0.93858818241,-4.4408920985e-16,9.80665100775,-7.1054273576e-15,141.368656871
1419804792737.00,0.397381070718,12.0568729377,3.49523484711,-2.6645352591e-15,9.80665055937,-5.77315972805e-15,120.541352636
1419804792739.00,0.189774817657,11.6816190044,4.30929926277,5.99520433298e-15,9.80665115221,3.33066907388e-15,117.765843176
1419804792774.00,0.0786138855497,12.968157988,4.17596205003,6.43929354283e-15,9.80665088292,-1.7763568394e-15,130.091215308
1419804792775.00,0.380022954622,14.7361493717,2.82509119656,9.54791801178e-15,9.80665037738,-4.4408920985e-15,145.800489805
1419804792777.00,0.165138571119,16.5057068692,0.500546989152,1.99840144433e-15,9.80664986715,-1.11022302463e-14,160.703991781
1419804792780.00,-0.913036913381,17.5440596479,-5.57783282333,2.44249065418e-15,9.80665080779,1.26565424807e-14,165.163204101
1419804792803.00,-3.1169205906,16.9159428633,-9.33138053952,9.10382880193e-15,9.80664982253,-4.77395900589e-15,155.347787205
1419804792805.00,-4.5003880406,13.7302146656,-3.73035709806,6.66133814775e-15,9.80664944624,-8.881784197e-15,129.33322022
1419804792811.00,-4.76833938405,9.77889284022,0.939865765519,3.33066907388e-15,9.80665162667,-4.4408920985e-15,95.8542106864
1419804792845.00,-3.56316946511,6.80496021328,0.236869633849,-1.7763568394e-15,9.80665020632,9.32587340685e-15,66.1955857313
1419804792846.00,-2.21673998143,5.4828221746,-2.79069097962,4.88498130835e-15,9.80665202569,-3.77475828373e-15,49.5654972036
1419804792847.00,-1.34480431053,5.30892961326,-5.53382957634,-8.881784197e-16,9.80665063694,-2.88657986403e-15,43.8536154408
1419804792875.00,-1.00623576709,6.20236134145,-5.66814560449,5.77315972805e-15,9.80665095805,-1.99840144433e-15,51.3942636256
1419804792877.00,-1.34490806003,8.00356867779,-4.97446278772,8.43769498715e-15,9.80665173824,-3.10862446895e-15,68.9693691847
1419804792878.00,-1.249115383,9.1943094861,-4.60655484563,-8.881784197e-16,9.8066503023,1.55431223448e-15,80.2667963354
1419804792880.00,-0.786484098075,9.7972390402,-3.65389036127,3.99680288865e-15,9.80665087251,-1.7763568394e-15,87.0557962429
1419804792900.00,-0.574412241862,10.3489913805,-2.89106833081,3.10862446895e-15,9.80665170228,-3.99680288865e-15,93.3212254792
1419804792901.00,-0.682651699473,11.140138217,-2.57166347434,-2.6645352591e-15,9.80664987408,-8.881784197e-16,101.229533835
1419804792913.00,-1.34378285519,11.8479976486,-1.993510826,0.0,9.80664981735,-1.33226762955e-15,108.864249829
1419804792934.00,-1.63200021074,11.6910849534,-1.08585119284,1.7763568394e-15,9.80665075215,-3.99680288865e-15,108.860785452
1419804792935.00,-1.49146260506,10.9713253839,-0.532071405323,2.6645352591e-15,9.80664986402,-1.99840144433e-15,102.89458614
1419804792940.00,-1.16721307112,10.3460809941,-0.569498322914,4.4408920985e-16,9.80665038582,-7.9936057773e-15,96.7442432199
1419804792968.00,-0.742854646121,9.84062446063,-1.14849528752,5.3290705182e-15,9.80665139871,-1.11022302463e-15,90.6941437417
1419804792969.00,-0.422392239427,9.42279150071,-1.65420819953,4.4408920985e-15,9.80665008906,-6.88338275268e-15,85.5735739241
1419804792972.00,0.0894714530485,8.79247398054,-1.63977032689,3.99680288865e-15,9.80665065424,1.55431223448e-15,79.4152503436
1419804792980.00,0.242325110218,8.3427943117,-1.2803337913,4.88498130835e-15,9.80665180242,-5.10702591328e-15,75.6997670963
1419804793002.00,0.384784610884,7.72770096372,-1.01915164171,5.3290705182e-15,9.80665124206,-4.4408920985e-15,70.3326171035
1419804793004.00,0.416143506526,7.06980366237,-0.835685379827,-8.881784197e-16,9.80665184161,-2.6645352591e-15,64.5140315299
1419804793013.00,0.288437755199,6.68531456019,-0.741442309189,3.5527136788e-15,9.80665098531,-1.7763568394e-15,61.1751064645
1419804793059.00,0.265746533583,6.34556501724,-0.842450236329,8.43769498715e-15,9.80665090977,-4.4408920985e-15,57.9056809911
1419804793061.00,0.0978177774988,6.09168522225,-0.869932640579,0.0,9.80665080191,1.11022302463e-15,55.621406594
1419804793062.00,0.254337053723,5.77198706731,-0.853173888038,1.33226762955e-15,9.80665043354,-6.2172489379e-15,52.7609363452
1419804793063.00,0.548858239457,5.65895236436,-0.666172285479,4.4408920985e-15,9.80665041719,-3.5527136788e-15,52.1206455196
1419804793065.00,0.701925175778,5.73240303619,-0.371504094009,-1.33226762955e-15,9.80665130428,3.10862446895e-15,53.4023904246
1419804793091.00,0.781083667663,5.99323083097,0.0414832933669,4.4408920985e-15,9.80665058206,0.0,56.6357906254
1419804793091.00,0.847898676406,6.37317245606,0.656932842877,1.33226762955e-15,9.80665119888,2.88657986403e-15,61.353910755
1419804793094.00,0.902908348894,6.79741237229,1.17649648838,4.4408920985e-15,9.80664949898,-4.4408920985e-15,66.331203574
1419804793114.00,0.856647184925,7.46101204662,1.55827799956,1.33226762955e-15,9.8066514438,-3.5527136788e-15,73.3535416599
1419804793115.00,0.865669558426,8.08169800288,1.93747748327,4.88498130835e-15,9.80665053968,-5.99520433298e-15,79.9697070289
1419804793135.00,0.844449436743,8.64216427067,2.38511101125,-1.33226762955e-15,9.80665153553,3.33066907388e-15,86.130265767
1419804793142.00,0.945006558259,9.11073093213,2.6397424633,4.4408920985e-15,9.80665010678,-2.6645352591e-15,91.0622369773
1419804793143.00,1.1479429011,9.53154086552,2.63121743008,1.33226762955e-15,9.80665062076,-3.77475828373e-15,95.106696733
1419804793163.00,1.3364269856,9.88472343131,2.36981680744,8.21565038223e-15,9.80665161226,-1.55431223448e-15,98.1490965279
1419804793163.00,1.4198290825,10.2594987274,2.08318934869,6.43929354283e-15,9.80665060252,-4.21884749358e-15,101.407685606
1419804793179.00,1.56601534366,10.5565951858,1.66873962533,8.881784197e-16,9.80665112578,2.6645352591e-15,103.786810403
1419804793180.00,1.70244150622,10.984637266,1.20933601562,8.881784197e-16,9.80665027086,-1.7763568394e-15,107.412895476
1419804793199.00,1.75858564839,11.5740338934,0.835119674543,3.99680288865e-15,9.80665042026,2.22044604925e-16,112.730418642
1419804793201.00,1.81906787776,12.1204214348,0.841374790398,0.0,9.80665115852,-6.2172489379e-15,118.077229529
1419804793211.00,1.95858856364,12.4758863933,1.39420275756,7.77156117238e-15,9.80665096231,3.33066907388e-15,122.179119418
1419804793231.00,2.00959618756,12.7887709713,2.22196665747,-3.10862446895e-15,9.8066512596,-6.88338275268e-15,126.166931555
1419804793234.00,2.01994656974,12.9956704209,2.94998007406,5.10702591328e-15,9.80665090441,2.22044604925e-15,129.009597735
1419804793240.00,2.03632731972,13.2516317418,3.13821286033,3.33066907388e-15,9.8066505394,7.54951656745e-15,131.702495908
1419804793268.00,1.89054139119,13.615256564,2.97241828271,1.11022302463e-15,9.80665230834,-6.66133814775e-15,135.046788683
1419804793269.00,1.63407812229,13.7305497854,2.66787422157,5.77315972805e-15,9.80665176371,-9.10382880193e-15,135.853671529
1419804793274.00,1.42519109016,13.3397881838,2.26944068275,-6.66133814775e-15,9.80665151196,-4.21884749358e-15,131.673681448
1419804793280.00,1.58114102127,12.7299056467,1.44695040575,2.6645352591e-15,9.80664853244,-7.77156117238e-15,124.95308883
1419804793303.00,1.60490686109,12.701342442,0.460215990222,-2.88657986403e-15,9.80665132456,2.44249065418e-15,123.744081089
1419804793304.00,1.13472620877,13.4079767213,-0.20320501434,-1.33226762955e-15,9.80665028173,-4.55191440096e-15,130.009327101
1419804793312.00,0.87955253527,13.9840868363,-0.62186165581,-5.99520433298e-15,9.80665144606,-4.32986979604e-15,135.216622889
1419804793336.00,0.801906421998,14.2369522457,-0.828958197885,-8.21565038223e-15,9.80665184057,-2.33146835171e-15,137.465987064
1419804793337.00,0.418534389807,13.8935504765,-1.32474673472,2.88657986403e-15,9.80665052423,-1.15463194561e-14,133.68729251
1419804793340.00,0.233986254014,12.5456319082,-2.37131319286,8.65973959208e-15,9.80665076371,8.10462807976e-15,119.702590227
1419804793366.00,-0.133399091245,11.104649624,-3.20000228805,8.65973959208e-15,9.80664898124,3.33066907388e-16,105.070965084
1419804793367.00,-1.27930794095,10.3148899268,-3.02211512753,2.44249065418e-15,9.80665002907,-3.33066907388e-15,97.6444560737
1419804793372.00,-2.65634940121,10.1919264651,-2.06271678497,-6.43929354283e-15,9.80664969305,2.44249065418e-15,97.3489844515
1419804793381.00,-3.469689671,10.3736763014,-1.03902536899,2.44249065418e-15,9.80665105889,2.22044604925e-16,100.005757
1419804793401.00,-3.95287714756,10.9461783919,-0.4515686435,3.10862446895e-15,9.80664900979,7.77156117238e-16,106.058543106
1419804793402.00,-4.05623772316,11.5869641163,-0.638866092017,-1.99840144433e-15,9.80665068991,1.22124532709e-15,112.056986609
1419804793412.00,-3.98044564108,12.0412828409,-1.31157181028,-1.11022302463e-15,9.80665078198,1.88737914186e-15,115.718430785
1419804793436.00,-4.04173833737,12.194710288,-1.69626123056,-3.33066907388e-15,9.80664944759,-1.55431223448e-15,116.601978814
1419804793437.00,-3.74352225836,11.7747945298,-1.71734596161,-5.3290705182e-15,9.80664986379,-7.54951656745e-15,112.192460995
1419804793442.00,-3.45563607305,10.9621058389,-1.24893414492,7.77156117238e-15,9.80665076107,-5.3290705182e-15,104.496556678
1419804793476.00,-2.82382775117,9.99287771094,-0.266541769499,8.881784197e-16,9.80665028967,-3.10862446895e-15,96.0158622478
1419804793478.00,-1.74550966741,9.2398612461,0.56609516536,1.13242748512e-14,9.80665063592,-1.33226762955e-15,89.614671002
1419804793481.00,-0.528415199177,8.68414274159,0.407853057365,-7.77156117238e-15,9.80665103474,5.3290705182e-15,83.8269719252
1419804793507.00,1.37142447446,8.18463061321,-1.30841530269,2.88657986403e-15,9.80665107075,-4.21884749358e-15,76.1440937627
1419804793508.00,1.43695805572,8.15460196443,-1.60124536017,3.5527136788e-15,9.80665136409,-4.88498130835e-15,75.0699766717
1419804793509.00,1.47981798956,7.81799160059,-1.40947880043,-3.33066907388e-15,9.8066507452,-1.02140518266e-14,71.8400238841
1419804793512.00,1.37524805676,7.39600780635,-0.90293773691,3.10862446895e-15,9.8066508217,-8.881784197e-16,68.4346347281
1419804793536.00,1.09451518812,7.01523745584,-0.172786960238,1.31006316906e-14,9.80665198454,0.0,65.9345550827
1419804793537.00,0.766184398698,6.81080591865,-0.0734001300186,-2.22044604925e-15,9.80664934339,-1.55431223448e-15,64.0236761845
1419804793541.00,0.353615916112,6.74470247653,-0.252803133468,5.3290705182e-15,9.80664938606,0.0,62.8961446924
1419804793573.00,0.110499487046,6.70836791586,-0.562817257648,2.44249065418e-15,9.80665183469,-8.881784197e-16,61.7823866063
1419804793574.00,-0.225919258636,6.66999130017,-0.628717000212,1.55431223448e-15,9.80665008032,-3.99680288865e-15,61.1447401065
1419804793575.00,-0.501286298725,6.63678233795,-0.353419712404,-4.21884749358e-15,9.80665156411,-7.9936057773e-15,61.3249302169
1419804793600.00,-0.64818428535,6.76962840489,0.00714889975518,9.99200722163e-15,9.80664936079,-4.88498130835e-15,63.2964425059
1419804793601.00,-0.799944731752,7.0229057736,0.489141607839,-4.21884749358e-15,9.80665039407,1.7763568394e-15,66.68773497
1419804793602.00,-1.02174446694,7.37573152888,0.878563196773,1.11022302463e-15,9.806651147,-7.54951656745e-15,70.8477085695
1419804793612.00,-1.19963359853,7.67221186124,1.14817016571,3.5527136788e-15,9.80665135845,-8.881784197e-16,74.2542701881
1419804793634.00,-1.23269414138,7.8481018159,1.32480318468,3.33066907388e-15,9.80664942176,-2.6645352591e-15,76.3437461149
1419804793635.00,-1.12962612481,7.9297264389,1.46046721396,4.88498130835e-15,9.80665031641,2.22044604925e-16,77.4715042541
1419804793640.00,-0.883288979266,7.76978772826,1.61955717555,2.22044604925e-15,9.80665170833,-8.21565038223e-15,76.3494591112
1419804793668.00,-0.515390202131,7.58257374605,1.82523475207,7.1054273576e-15,9.8066508331,-5.99520433298e-15,75.0158325939
1419804793670.00,-0.0714064033729,7.72229972436,1.845834732,4.4408920985e-16,9.80665002041,-5.99520433298e-15,76.3951471918
1419804793672.00,0.390912491701,8.25613822272,1.96215499654,-2.22044604925e-15,9.80665181303,-5.77315972805e-15,81.6665286817
1419804793701.00,0.865715436371,9.0937623612,2.28576066037,-1.7763568394e-15,9.8066502727,-4.21884749358e-15,90.1788604399
1419804793703.00,1.37159657153,10.008650253,2.40186703969,8.881784197e-16,9.80665062193,-4.21884749358e-15,99.0670268745
1419804793704.00,1.80042239851,10.9860104706,2.37059776966,-3.10862446895e-15,9.80665123292,2.22044604925e-16,108.323846869
1419804793712.00,1.9693500517,12.1619501656,2.30841446204,2.22044604925e-15,9.806650452,-4.21884749358e-15,119.472319585
1419804793741.00,1.83562568035,13.6488704444,2.061111784,2.22044604925e-15,9.80665090752,-7.1054273576e-15,133.366184199
1419804793743.00,1.40494831296,15.2370736586,1.40790512776,-1.11022302463e-15,9.8066503884,-3.99680288865e-15,147.7013444
1419804793744.00,0.722265165891,16.3283419393,0.428091063251,3.5527136788e-15,9.80665075055,-7.32747196253e-15,156.902490351
1419804793769.00,0.331142172665,15.7709915321,1.18347186093,2.6645352591e-15,9.80665155546,-3.99680288865e-15,152.867712992
1419804793770.00,0.301817948347,13.5584184097,3.39719267084,6.43929354283e-15,9.8066500594,4.88498130835e-15,134.926352274
1419804793772.00,0.056387972314,11.7896623166,4.79471646772,1.7763568394e-15,9.80665106559,-7.9936057773e-15,119.879113549
1419804793799.00,-0.437487543871,11.934090833,4.89769981356,-1.99840144433e-15,9.80664956755,-1.99840144433e-15,121.374920747
1419804793801.00,-0.397373154333,13.3750827063,3.33401169012,9.99200722163e-15,9.80664996041,6.43929354283e-15,133.161542287
1419804793804.00,-0.477818718104,15.1233619733,0.966073131488,5.99520433298e-15,9.80665016887,-8.65973959208e-15,147.019729316
1419804793841.00,-1.37931694438,16.9206932392,-2.74881707709,-5.3290705182e-15,9.80665038443,-3.33066907388e-15,159.954986331
1419804793843.00,-3.14991939147,17.7545110603,-8.29289287148,3.77475828373e-15,9.80665065238,-7.77156117238e-15,161.325917073
1419804793843.00,-5.67599320282,17.2512783025,-7.49449709482,7.9936057773e-15,9.80665081682,1.7763568394e-15,156.742966768
1419804793844.00,-6.06183685168,13.8124383793,-1.62888597475,1.7763568394e-15,9.80665087682,-1.99840144433e-15,130.822610577
1419804793865.00,-3.80938967192,8.47117703087,1.56042284504,5.3290705182e-15,9.80665029366,5.55111512313e-15,83.693817201
1419804793866.00,-1.67518236769,5.3271433505,-0.391634246904,-5.3290705182e-15,9.80665135302,-6.88338275268e-15,50.5200895141
1419804793872.00,-0.723422757158,4.88065189904,-4.59092137079,3.10862446895e-15,9.80665121817,-5.77315972805e-15,39.3000190809
1419804793923.00,-0.382798468338,5.43536842203,-6.68243368603,5.3290705182e-15,9.80665073,4.4408920985e-16,40.1942620549
1419804793924.00,-0.664341087262,6.71880815719,-5.60479641722,3.99680288865e-15,9.80664996287,-2.44249065418e-15,53.2330033576
1419804793925.00,-0.85621517874,8.29443859909,-4.9985782922,-3.10862446895e-15,9.80665029688,8.881784197e-16,68.4793971954
1419804793926.00,-0.52406917423,9.1311494152,-4.67124842067,0.0,9.80665081173,-7.1054273576e-15,76.2415456786
1419804793927.00,-0.198377761503,9.74067806812,-3.84966734643,4.88498130835e-15,9.80665140005,0.0,83.0987783696
1419804793973.00,-0.525577850011,10.5786439879,-2.82714592054,3.99680288865e-15,9.80665056512,2.22044604925e-15,92.9108481794
1419804793976.00,-1.27998654964,11.5979254527,-2.12025654913,8.881784197e-15,9.80664977637,2.22044604925e-15,103.969810868
1419804793978.00,-2.02619237121,12.3169124888,-1.18880040861,-1.7763568394e-15,9.80665162199,4.4408920985e-16,112.739886925
1419804793982.00,-1.72376869294,11.7410259596,-0.146991011503,5.3290705182e-15,9.80665104462,3.10862446895e-15,109.523989845
1419804793985.00,-1.01635737777,10.9777854999,0.492414775242,-4.4408920985e-16,9.80665208896,-2.22044604925e-15,103.661015151
1419804794002.00,-0.620062539295,10.6863050845,0.370424993188,6.2172489379e-15,9.80665086267,2.22044604925e-15,100.647959285
1419804794003.00,-0.184166265811,10.3422108667,-0.517178471604,3.5527136788e-15,9.80664990976,-4.4408920985e-15,95.5641174388
1419804794004.00,0.206603303178,9.76096534353,-1.45766879647,3.5527136788e-15,9.80665092385,-4.4408920985e-16,88.1999152934
1419804794029.00,0.232308358708,9.11875913357,-1.7419881107,5.3290705182e-15,9.8066504949,4.4408920985e-16,81.6591525396
1419804794030.00,0.0837141801235,8.34125880724,-1.33634044413,-1.33226762955e-15,9.80665149965,-3.10862446895e-15,75.3489365395
1419804794032.00,0.0463140638504,7.47664609339,-0.916563727614,-1.33226762955e-15,9.80664989118,-5.77315972805e-15,68.2530018749
1419804794041.00,0.0646022838806,6.76390001951,-0.789857909058,6.2172489379e-15,9.80665001002,-6.66133814775e-16,61.985247
1419804794060.00,0.08357571363,6.19437820285,-0.705454005374,8.881784197e-15,9.80665141943,-4.66293670343e-15,56.9796015482
1419804794061.00,0.260210645109,5.68449489351,-0.610093428612,3.5527136788e-15,9.80665180789,-4.88498130835e-15,52.5289551556
1419804794076.00,0.462450212837,5.50066397418,-0.557059588615,-3.5527136788e-15,9.80665111388,5.3290705182e-15,51.0508815267
1419804794097.00,0.619893048176,5.55898486383,-0.728245988772,-1.33226762955e-15,9.80665054075,-1.55431223448e-15,51.4630984814
1419804794098.00,0.712299127052,5.87088329881,-0.73133413068,1.7763568394e-15,9.80665108855,-1.7763568394e-15,54.551728749
1419804794101.00,0.776465605411,6.15203585058,-0.334211501939,-4.4408920985e-15,9.80665101528,4.4408920985e-16,57.9597807402
1419804794123.00,1.00736740553,6.22733694689,0.341075409034,3.5527136788e-15,9.80665020905,-2.88657986403e-15,59.7945450345
1419804794124.00,1.12007631333,6.40094344429,1.05105748376,3.5527136788e-15,9.80665090183,3.10862446895e-15,62.6118287815
1419804794153.00,1.07028790272,6.81286493367,1.51960138355,5.77315972805e-15,9.80665231262,4.4408920985e-16,67.3198456968
1419804794154.00,0.885840848333,7.38496500726,1.63051971264,-1.7763568394e-15,9.80664952913,-3.5527136788e-15,72.9903503345
1419804794155.00,0.849584897789,7.93995278978,1.5748457754,-1.7763568394e-15,9.80665103899,-8.881784197e-15,78.2432373534
1419804794162.00,0.838787963529,8.49402587168,1.47760262849,-1.7763568394e-15,9.8066495189,-3.10862446895e-15,83.4512224074
1419804794184.00,0.913241802615,9.00624833062,1.51436731162,6.2172489379e-15,9.80665260451,-2.6645352591e-15,88.4713545164
1419804794184.00,1.11426909418,9.48131019853,1.74424506728,-1.7763568394e-15,9.80665085509,-2.44249065418e-15,93.4009790023
1419804794192.00,1.40940586591,9.85102676434,2.08260859798,-2.6645352591e-15,9.80664968331,-3.5527136788e-15,97.4481784707
1419804794211.00,1.69135650251,10.3256305645,2.13149583788,6.2172489379e-15,9.80664992197,-1.11022302463e-14,102.088105758
1419804794225.00,1.86602632873,11.0088223868,1.79138376582,-1.99840144433e-15,9.80665026196,-6.43929354283e-15,108.215973921
1419804794226.00,1.92728613489,11.7604829211,1.38772200632,1.99840144433e-15,9.80665104859,-9.7699626167e-15,114.947850271
1419804794242.00,1.97674884604,12.3819114042,1.42218076682,8.881784197e-16,9.80665030939,-5.77315972805e-15,121.032083231
1419804794243.00,2.07482565914,12.7988235161,2.10081286632,-2.22044604925e-16,9.80664969083,-6.2172489379e-15,125.974453982
1419804794260.00,2.18723606778,13.0179780555,3.11933027147,1.33226762955e-15,9.80665048497,-1.55431223448e-15,129.390163793
1419804794261.00,2.29328816377,13.1109162784,3.60173339749,5.99520433298e-15,9.80665082424,2.22044604925e-15,130.865542806
1419804794280.00,2.06052220047,13.1426043514,3.18609929871,7.32747196253e-15,9.80665052115,-1.08801856413e-14,130.695698791
1419804794283.00,1.54302652085,13.1000864903,2.58990661191,2.44249065418e-15,9.80665002024,-3.77475828373e-15,129.665166809
1419804794293.00,1.07217284977,12.974661163,2.32153727685,5.3290705182e-15,9.80665091291,4.88498130835e-15,128.203233916
1419804794317.00,1.0553188628,12.4771503335,2.10007751699,8.881784197e-16,9.80664932435,3.21964677141e-15,123.16798509
1419804794319.00,1.46475314183,11.8071673474,1.2816062967,5.55111512313e-15,9.80665068562,-4.99600361081e-15,115.872928068
1419804794321.00,1.62864281067,11.8366238465,0.133067003216,6.66133814775e-15,9.80665011984,-4.4408920985e-15,115.045770568
1419804794351.00,1.23081476486,12.9596028028,-0.576942261841,5.77315972805e-15,9.80664997602,5.88418203051e-15,125.22573997
1419804794352.00,1.24611254576,14.3069323358,-0.755534303559,6.66133814775e-16,9.80665061867,9.99200722163e-15,138.049507436
1419804794354.00,1.48069287011,15.3095426309,-0.627096712752,-2.22044604925e-15,9.8066514081,4.4408920985e-15,147.802410091
1419804794361.00,1.48674337326,15.5211174539,-0.853789173386,1.24344978758e-14,9.80665055285,-1.99840144433e-15,149.556519321
1419804794384.00,1.18989562341,14.3740340418,-2.0392101673,4.4408920985e-16,9.80665153546,-5.10702591328e-15,137.226673511
1419804794385.00,0.857192119181,11.7242842353,-3.38238869434,2.6645352591e-15,9.80664951701,-1.7763568394e-15,110.246684863
1419804794393.00,-0.0543126726592,9.40767853471,-3.13640847984,5.77315972805e-15,9.80665097393,-1.08801856413e-14,88.1507729864
1419804794417.00,-1.42873855427,8.47686669232,-1.36643036004,2.44249065418e-15,9.80665097761,-5.21804821574e-15,80.989074942
1419804794418.00,-2.09911358089,8.42031740854,-0.00160717960432,6.66133814775e-16,9.80665234091,-2.22044604925e-16,81.8204125409
1419804794428.00,-2.29156422134,9.17996398588,0.304111248601,-8.881784197e-16,9.80665198882,-8.10462807976e-15,89.5131716759
1419804794453.00,-2.24311494005,10.3644274448,-0.504242534539,-4.4408920985e-16,9.8066517134,3.77475828373e-15,100.295854553
1419804794454.00,-2.22100121627,11.5507781987,-1.50566735035,-1.13242748512e-14,9.80665081747,-7.54951656745e-15,110.928236682
1419804794455.00,-2.07922664761,12.33257819,-1.94653156795,5.10702591328e-15,9.80665054447,-6.77236045021e-15,118.066504209
1419804794475.00,-1.55195754196,12.6658472372,-1.64045102631,-3.99680288865e-15,9.80665167622,2.10942374679e-15,121.407257947
1419804794476.00,-1.02053857631,12.617184436,-1.01123926856,4.66293670343e-15,9.80665007667,-6.88338275268e-15,121.328641019
1419804794489.00,-0.457746700461,12.3537780581,-0.348722692805,2.44249065418e-15,9.80665233252,-4.88498130835e-15,119.205293169
1419804794493.00,0.196765872924,11.9084054564,0.529912997859,3.77475828373e-15,9.80665119412,-2.6645352591e-15,115.630736209
1419804794512.00,0.534692698568,11.2729230869,1.04465546676,7.77156117238e-15,9.806648809,-7.54951656745e-15,109.899538645
1419804794513.00,0.826747843227,10.5730248584,0.53333588868,-6.66133814775e-16,9.80665131577,-3.5527136788e-15,102.195513502
1419804794521.00,0.991402872768,9.77487146912,-0.55661003658,-6.66133814775e-16,9.80665076788,6.66133814775e-15,92.5277853628
1419804794554.00,0.917991840202,8.89700279202,-1.20365372777,7.77156117238e-15,9.80664925524,-4.4408920985e-16,82.5607344839
1419804794555.00,0.67180837057,7.98604360987,-1.1221782738,5.99520433298e-15,9.80664992248,-6.43929354283e-15,73.4690443569
1419804794556.00,0.132314326109,7.42550359325,-0.966048029563,4.4408920985e-16,9.80665014313,-7.54951656745e-15,67.9441076948
1419804794605.00,-0.366196918967,7.07411287591,-0.88895998819,1.99840144433e-15,9.80664925301,-4.4408920985e-16,64.3393093123
1419804794607.00,-0.692557177763,6.85950349093,-0.995594038877,-8.881784197e-16,9.8066498359,-1.7763568394e-15,61.7319823457
1419804794609.00,-0.756979997796,6.64806415682,-1.0554930282,-2.44249065418e-15,9.8066500479,-1.7763568394e-15,59.359490184
1419804794613.00,-0.577058759065,6.38614449941,-1.01097036438,-4.4408920985e-16,9.80665185959,-4.88498130835e-15,56.8835980855
1419804794615.00,-0.551010592507,6.37881865764,-1.11207218459,4.88498130835e-15,9.8066501557,-2.22044604925e-15,56.5194786575
1419804794645.00,-0.487693728879,6.32898243461,-0.956964818371,-5.99520433298e-15,9.80664950759,-5.3290705182e-15,56.4358307723
1419804794646.00,-0.360629586759,6.21000117386,-0.489050699194,1.02140518266e-14,9.80665106222,-2.6645352591e-15,56.4615126583
1419804794647.00,-0.361557049693,6.09801088432,-0.0901274706873,1.08801856413e-14,9.80665130693,-4.4408920985e-15,56.4188316559
1419804794647.00,-0.421681861802,6.03476500194,0.215254489308,1.33226762955e-15,9.80665026415,-5.3290705182e-15,56.6196620814
1419804794653.00,-0.391310592158,6.03906132023,0.511382858996,6.2172489379e-15,9.80664986846,-3.10862446895e-15,57.4032296944
1419804794678.00,-0.369533527125,6.181890424,0.85832277755,2.6645352591e-15,9.80665043265,-4.4408920985e-15,59.5634538939
1419804794679.00,-0.248957653575,6.38278443158,1.21351303829,3.5527136788e-15,9.80665012363,-2.22044604925e-15,62.2456147791
1419804794681.00,0.0158267552748,6.62732866487,1.50459645918,-3.10862446895e-15,9.80665063187,-3.10862446895e-15,65.1671444034
1419804794693.00,0.32937121893,7.11026433634,1.6299140613,1.33226762955e-15,9.80664974861,-3.10862446895e-15,69.9809945339
1419804794707.00,0.586389244094,7.73511207375,1.65734429352,2.22044604925e-15,9.80665061667,0.0,75.9575200011
1419804794728.00,0.671486488565,8.50499017998,1.70370715594,6.2172489379e-15,9.80665079064,8.881784197e-16,83.3803577284
1419804794729.00,0.599712363272,9.54292016718,1.84482240585,-4.4408920985e-15,9.80665142144,-5.55111512313e-15,93.5586446344
1419804794735.00,0.655019973003,10.6734717361,1.89968752083,4.88498130835e-15,9.80665087615,-6.66133814775e-16,104.487240897
1419804794742.00,0.820366957316,11.7472808145,1.94050042907,4.4408920985e-15,9.80664915614,-4.4408920985e-16,114.896460505
1419804794764.00,0.981394177531,12.8413874379,1.83107827934,1.11022302463e-14,9.80664982355,-3.33066907388e-15,125.297007934
1419804794765.00,0.873546972416,14.0197201619,1.45185282177,6.2172489379e-15,9.80665112743,-3.33066907388e-15,136.137111682
1419804794773.00,0.686565855251,14.9933028647,0.609709108337,6.2172489379e-15,9.80665101859,-6.88338275268e-15,144.355625419
1419804794799.00,0.491314264765,15.3206063446,0.132791473488,3.5527136788e-15,9.80665110254,-4.4408920985e-16,146.896261091
1419804794800.00,0.558793726877,14.1337280036,1.70112051541,-2.44249065418e-15,9.8066505298,1.7763568394e-15,137.879541375
1419804794802.00,0.729456155649,12.4073821852,3.7846178636,8.43769498715e-15,9.80665089155,-6.66133814775e-16,124.405679775
1419804794833.00,0.969971523002,11.4748998295,4.64440556278,1.06581410364e-14,9.80665027128,-7.77156117238e-15,116.71881138
1419804794836.00,0.976821305135,11.4795419193,4.57648820276,-2.22044604925e-15,9.80665202341,6.66133814775e-16,116.651225158
1419804794837.00,0.558779584721,12.4533480557,4.29899438858,5.3290705182e-15,9.80665104725,1.33226762955e-15,125.586026322
1419804794841.00,0.476737429594,13.9149817225,2.23626738611,3.99680288865e-15,9.80665062649,-1.39888101103e-14,136.834530756
1419804794859.00,-0.0219460783163,15.4754625962,-0.83568117624,3.77475828373e-15,9.80665189703,-5.99520433298e-15,148.168466643
1419804794875.00,-1.28249538865,16.9127630309,-5.0350746357,6.66133814775e-16,9.80665105646,-8.881784197e-15,157.355696719
1419804794876.00,-2.99288781,17.0541653549,-7.47105906379,1.99840144433e-15,9.8066490983,4.4408920985e-16,155.919868429
1419804794891.00,-4.95567409223,15.3334662607,-3.98354479405,-6.2172489379e-15,9.80665114182,4.66293670343e-15,142.988532323
1419804794907.00,-5.61005115068,12.0261840335,0.576595793066,2.22044604925e-16,9.80665028894,-1.08801856413e-14,116.696629433
1419804794907.00,-4.57688530205,9.39519518429,0.20968723798,3.99680288865e-15,9.80665039719,-5.10702591328e-15,90.7163060017
1419804794928.00,-2.08839896252,7.82123912924,-3.17675032762,3.10862446895e-15,9.80665021185,-4.21884749358e-15,70.3735807049
1419804794928.00,-1.10623391187,7.33414467618,-5.22300628871,7.1054273576e-15,9.80664955486,-4.4408920985e-15,62.0156720458
1419804794934.00,-1.12629503205,7.07540544695,-4.72318082318,5.3290705182e-15,9.80665178008,-1.99840144433e-15,59.734913406
1419804794944.00,-1.07391046293,7.54403999138,-3.46432394601,5.77315972805e-15,9.80665087114,-5.10702591328e-15,65.708985416
1419804794969.00,-1.08481607699,8.60283255844,-3.33883398899,5.3290705182e-15,9.80665075164,-6.66133814775e-16,75.4116351674
1419804794970.00,-0.642203270325,9.22931961385,-3.34975455097,9.32587340685e-15,9.80665070155,-5.99520433298e-15,80.7969690764
1419804794974.00,0.135723219508,10.4916626489,-3.0819544558,6.66133814775e-15,9.8066505277,-3.77475828373e-15,92.836410723
1419804794998.00,0.0439389356481,11.2587893643,-3.13538666402,3.99680288865e-15,9.80665025146,-5.10702591328e-15,99.8160865759
1419804794999.00,-0.489901996983,11.803603788,-2.49168487065,8.43769498715e-15,9.80665065982,2.22044604925e-16,106.122668076
1419804795003.00,-0.927535416363,11.6384497715,-1.64099227294,0.0,9.80664990125,1.33226762955e-15,106.17977935
1419804795031.00,-0.621476119179,10.9168114817,-0.876239473877,7.1054273576e-15,9.80665030186,-3.33066907388e-15,100.749232318
1419804795032.00,-0.262368273266,10.629404422,-0.562453209341,7.54951656745e-15,9.80664910153,-4.4408920985e-15,98.4777086149
1419804795034.00,0.0500501756089,10.449756054,-1.14665733974,0.0,9.80665032461,8.881784197e-16,95.3831206599
1419804795051.00,0.183663887951,10.070744608,-2.04230075462,0.0,9.80665138157,-1.7763568394e-15,89.7645128553
1419804795088.00,0.0573525380005,9.38566956127,-2.21967942459,-2.22044604925e-15,9.80664928479,-5.77315972805e-15,82.7718809835
1419804795089.00,-0.0590961772986,8.47025814213,-1.57873647055,2.22044604925e-15,9.80665002323,-5.3290705182e-15,75.5066599669
1419804795091.00,-0.151201350395,7.57126970816,-0.624681888512,-4.4408920985e-16,9.80665036032,1.33226762955e-15,69.2001451788
1419804795092.00,-0.279373301077,6.89422442413,0.0674282025412,2.22044604925e-15,9.80665036223,-6.2172489379e-15,64.4648195605
1419804795114.00,-0.214641601047,6.46473206102,0.313083590762,3.99680288865e-15,9.80665102986,-2.22044604925e-15,61.0752794332
1419804795115.00,-0.0961548547312,6.29492868006,0.0169587858263,0.0,9.80665054161,-2.22044604925e-15,59.0094789418
1419804795117.00,0.117928292329,6.13572555284,-0.309265199718,4.4408920985e-15,9.80665142385,-2.22044604925e-15,57.0313431879
1419804795123.00,0.60190016961,6.02323491313,-0.527268198938,-1.33226762955e-15,9.80665022906,-7.77156117238e-15,55.7164129222
1419804795147.00,0.978708363608,6.24851321782,-0.653280612891,1.7763568394e-15,9.80664940994,-2.44249065418e-15,57.813658386
1419804795148.00,1.30639445264,6.36718743603,-0.780076664546,2.6645352591e-15,9.80664970294,-2.22044604925e-16,58.9130809868
1419804795154.00,1.56369306075,6.31547648843,-0.613296903802,3.10862446895e-15,9.8066509844,1.55431223448e-15,58.8723993625
1419804795182.00,1.63064375221,6.21084088855,-0.0114438619147,1.33226762955e-15,9.80665153892,-1.33226762955e-15,59.0112560739
1419804795183.00,1.61095656313,6.18185936915,0.624120093742,2.6645352591e-15,9.80665138406,-4.21884749358e-15,59.8657111606
1419804795184.00,1.54966126858,6.29113522662,1.31802292535,7.1054273576e-15,9.80665002022,4.4408920985e-15,62.0699253746
1419804795213.00,1.35927155643,6.77932221427,1.84515752373,8.881784197e-16,9.80665054454,-8.65973959208e-15,67.5891758593
1419804795214.00,1.27358871838,7.4674893743,2.02863526914,3.99680288865e-15,9.80664964606,-4.66293670343e-15,74.4863960192
1419804795215.00,1.27963227231,8.22041010136,1.9871220843,8.881784197e-16,9.80665082113,-6.2172489379e-15,81.7016991861
1419804795222.00,1.34303776556,9.17009294242,2.71932130887,6.66133814775e-15,9.80664987869,-1.99840144433e-15,91.782414502
1419804795246.00,1.80614521093,10.3212701936,4.05916012952,1.33226762955e-15,9.80664877375,8.881784197e-16,104.377134546
1419804795248.00,2.27709879047,11.2880569563,3.66579593644,-8.881784197e-16,9.80665046513,-6.66133814775e-16,113.175576965
1419804795256.00,2.23909897761,11.829059856,2.38044581403,-2.44249065418e-15,9.80665077473,-9.88098491916e-15,117.124227279
1419804795279.00,1.75444981619,11.9058404,1.67480937643,-5.99520433298e-15,9.80665236182,-1.33226762955e-14,117.254566729
1419804795281.00,1.43330857757,11.5962021854,1.27669066421,7.9936057773e-15,9.80665103198,-6.66133814775e-16,113.895967746
1419804795282.00,1.35242045624,11.564000233,0.933231691546,7.1054273576e-15,9.80664991024,-5.55111512313e-15,113.239014856
1419804795313.00,1.37343369862,11.6383124992,0.942400363208,-4.21884749358e-15,9.80665101551,-6.32827124036e-15,113.919349757
1419804795314.00,1.56117248263,11.7856039442,1.46794307408,8.21565038223e-15,9.80665073806,-2.6645352591e-15,115.820029001
1419804795315.00,1.81241010741,12.0527170505,2.19285269147,9.10382880193e-15,9.80665124681,-6.99440505514e-15,119.111747011
1419804795322.00,2.05431025989,12.2795180241,2.58999567344,9.32587340685e-15,9.80664987453,2.88657986403e-15,121.702898991
1419804795362.00,2.08410373159,12.4983582815,2.69418523713,8.881784197e-16,9.80665020429,-5.77315972805e-15,123.929575452
1419804795363.00,1.85345838021,12.6012754941,2.76322979606,5.10702591328e-15,9.80664979831,-9.7699626167e-15,124.99686968
1419804795364.00,1.57182675476,12.4290965534,3.02067327799,-3.77475828373e-15,9.80665122245,-1.21014309684e-14,123.554738844
1419804795365.00,1.5452337735,11.9436230774,2.85019940432,1.33226762955e-15,9.80665149953,6.99440505514e-15,118.656684198
1419804795373.00,1.7818466321,11.5972931566,1.74057476408,1.7763568394e-15,9.80665123907,1.45439216226e-14,114.327429287
1419804795398.00,1.72306366992,12.2005731981,0.0911314987404,-2.22044604925e-15,9.80665137524,-1.57651669497e-14,118.865256624
1419804795399.00,1.4093224064,13.2708161649,-1.31031092845,-4.4408920985e-16,9.80665110953,-4.32986979604e-15,128.169395992
1419804795402.00,1.14542739009,14.1196614707,-1.98224421319,8.21565038223e-15,9.806649961,-1.25455201783e-14,135.828510892
1419804795436.00,1.02684832647,14.3014739285,-2.3343863537,1.1768364061e-14,9.80665071243,2.44249065418e-15,137.160158588
1419804795437.00,1.14162830127,13.3389179551,-3.12531766348,0.0,9.80665105561,-1.06581410364e-14,126.940094192
1419804795438.00,0.998890662589,11.7914552638,-3.98832618299,-1.11022302463e-15,9.80665083151,-5.55111512313e-15,110.996553034
1419804795457.00,-0.109831446447,10.9427254206,-3.45667270115,3.99680288865e-15,9.80665133773,-9.43689570931e-15,103.161456726
1419804795457.00,-1.56051907059,10.7279029691,-2.18417645046,2.22044604925e-16,9.80665076216,-3.5527136788e-15,102.255866028
1419804795476.00,-2.63844045141,10.9880999115,-1.16599476797,-5.55111512313e-15,9.80665063454,-7.32747196253e-15,105.71006858
1419804795477.00,-3.28484935136,11.5144301617,-0.780224641504,6.88338275268e-15,9.80665201796,1.7763568394e-15,111.111337264
1419804795483.00,-3.50143727633,12.1578302779,-0.847709226806,9.32587340685e-15,9.8066506438,-1.11022302463e-14,117.171457056
1419804795505.00,-3.51350845277,12.7789046192,-1.01273410868,8.65973959208e-15,9.80664983058,4.21884749358e-15,122.865745855
1419804795506.00,-3.26959125807,13.1206339875,-1.17840819445,-3.10862446895e-15,9.80665223642,-8.21565038223e-15,125.783614837
1419804795525.00,-3.15139984478,13.163141024,-1.13947644857,6.88338275268e-15,9.80664903241,-2.6645352591e-15,125.936913021
1419804795526.00,-2.64931021074,12.246532398,-0.990048780376,2.6645352591e-15,9.80665141331,2.44249065418e-15,116.884272386
1419804795535.00,-1.87762718205,10.7640586075,-0.852239883196,-1.33226762955e-15,9.80665081869,-1.11022302463e-15,102.351464338
1419804795575.00,-0.952885350387,9.57897678055,-0.358022206654,4.21884749358e-15,9.80665103921,-5.77315972805e-15,91.2548566137
1419804795576.00,0.000337416577382,8.80572009914,-0.269717511731,7.32747196253e-15,9.80665253361,1.11022302463e-15,83.6254722309
1419804795577.00,0.733823549507,8.4219221708,-0.850885340268,4.88498130835e-15,9.80664982008,3.10862446895e-15,78.6810798543
1419804795578.00,1.08621200328,8.303277753,-1.40231782073,-1.55431223448e-15,9.80664958091,1.99840144433e-15,76.2493212934
1419804795601.00,1.22246285349,8.31234388213,-1.75105491289,3.99680288865e-15,9.8066507195,2.6645352591e-15,75.3579942941
1419804795602.00,1.09989891466,8.30824654922,-1.61474282735,-2.88657986403e-15,9.80665050617,-8.65973959208e-15,75.2270453861
1419804795603.00,0.849669904517,8.1874686131,-0.840155540173,6.66133814775e-15,9.80665102147,-4.4408920985e-15,75.2763427772
1419804795625.00,0.490490660376,7.87201479445,-0.144194086455,-6.66133814775e-16,9.80665015402,8.881784197e-16,73.4824462966
1419804795626.00,0.0683907496957,7.52449852228,0.426084859743,2.88657986403e-15,9.8066512923,-4.4408920985e-15,71.2530620965
1419804795634.00,-0.259610625651,7.31668169003,0.508131118701,-3.77475828373e-15,9.80665035915,3.10862446895e-15,69.3863677092
1419804795656.00,-0.411980341424,7.16882690901,0.20221138216,9.32587340685e-15,9.8066504042,0.0,67.2925309483
1419804795657.00,-0.49788115917,7.00899284176,-0.00516350314427,-1.11022302463e-15,9.80664945613,-3.99680288865e-15,65.3377741997
1419804795696.00,-0.645939866361,6.85070263197,0.131112506765,5.99520433298e-15,9.80665128941,-3.99680288865e-15,64.1925582986
1419804795697.00,-0.954456834136,6.57824121002,0.134672849032,1.22124532709e-14,9.806651604,-2.6645352591e-15,61.7553241095
1419804795699.00,-1.10509898479,6.30058055677,0.225301363728,1.02140518266e-14,9.80665018596,-8.881784197e-16,59.455145827
1419804795701.00,-1.13290042349,6.19485997618,0.3930700949,6.66133814775e-16,9.80665062847,1.7763568394e-15,58.9123128417
1419804795703.00,-1.06952720628,6.33462171755,0.364996069132,0.0,9.80665106611,0.0,60.2649943017
1419804795729.00,-0.90300470725,6.53945157767,0.416694439753,6.2172489379e-15,9.80665124073,8.881784197e-16,62.3863957125
1419804795731.00,-0.632674993058,6.67845634,0.737496695721,-3.33066907388e-15,9.80665036148,-1.99840144433e-15,64.3926710116
1419804795737.00,-0.372113785243,6.79934289329,1.10969147793,3.10862446895e-15,9.80665059693,-3.5527136788e-15,66.2927015212
1419804795758.00,-0.0488431222563,7.04921922214,1.33953399616,5.77315972805e-15,9.80664983365,-2.22044604925e-15,69.1137793531
1419804795758.00,0.373743399306,7.40253374854,1.62687587978,4.4408920985e-16,9.80665160841,6.66133814775e-16,72.9952999906
1419804795763.00,0.7975996554,8.01182212334,1.96091278071,6.66133814775e-15,9.80665185941,-2.6645352591e-15,79.3766215167
1419804795774.00,1.05643475461,9.0794425774,2.37123804637,2.6645352591e-15,9.80665125189,-1.11022302463e-15,90.2522787495
1419804795797.00,1.18969321891,10.4144991023,2.50504319769,2.22044604925e-15,9.80665050094,-1.55431223448e-15,103.238017605
1419804795798.00,1.35009324565,11.6524460972,2.33356257956,4.4408920985e-15,9.80665078914,-1.99840144433e-15,114.862744961
1419804795803.00,1.3538235644,12.9644139567,2.09434929414,9.32587340685e-15,9.80665033732,-6.88338275268e-15,127.187078746
1419804795829.00,1.20106582869,14.334862386,1.51711386697,7.32747196253e-15,9.8066507043,-4.88498130835e-15,139.697893759
1419804795831.00,0.796563221918,15.43119812,0.772946365774,1.33226762955e-15,9.80665225382,4.21884749358e-15,149.467664989
1419804795836.00,0.165107850991,15.8704515165,0.239521526458,8.65973959208e-15,9.80665036144,1.11022302463e-15,153.251218338
1419804795885.00,0.0416585871762,14.6022389714,1.0012558843,2.44249065418e-15,9.80665133956,-1.11022302463e-15,142.10081695
1419804795886.00,0.183091424073,12.2497100889,2.70302104402,2.6645352591e-15,9.80665106322,2.88657986403e-15,121.527100966
1419804795887.00,0.0677620355369,10.9456974103,3.90302356657,5.99520433298e-15,9.80665132464,-1.99840144433e-15,110.418521328
1419804795888.00,-0.287478033047,11.503169312,4.22847255673,3.77475828373e-15,9.80665034895,-9.10382880193e-15,116.208682385
1419804795889.00,-0.501938254764,13.3266745822,3.71031777735,2.88657986403e-15,9.80665111011,3.10862446895e-15,133.171561755
1419804795913.00,-0.307481893879,15.1003731412,1.72734544042,3.5527136788e-15,9.8066509339,-8.881784197e-16,147.947836735
1419804795914.00,-0.691250405276,16.7654114668,-0.517215889926,-7.54951656745e-15,9.80665071067,-1.1990408666e-14,161.60458376
1419804795915.00,-1.45432188781,17.3807390098,-4.70288023197,2.22044604925e-16,9.80665011467,-4.66293670343e-15,163.261758076
1419804795923.00,-3.16463856631,16.5120148432,-6.18257482009,-6.66133814775e-16,9.8066518026,-1.70974345792e-14,153.268651651
1419804795944.00,-4.30474725905,13.6898207001,-2.10774135094,8.43769498715e-15,9.80664938498,-5.10702591328e-15,130.162583888
1419804795945.00,-4.15497073198,10.2757564224,0.855389868794,-2.22044604925e-15,9.80665023727,-7.32747196253e-15,100.440194596
1419804795954.00,-2.85802727475,7.91084666198,-0.197117011279,4.4408920985e-16,9.80665183059,-3.5527136788e-15,76.2280276898
1419804795971.00,-1.72677093337,7.40520978169,-3.98156282316,6.2172489379e-15,9.80665120302,-5.55111512313e-15,66.4293679647
1419804795996.00,-0.955088495671,7.2571114042,-6.19615551884,9.32587340685e-15,9.80664946494,-1.55431223448e-15,61.5729072041
1419804795997.00,-1.02341733856,7.40607556321,-5.0256681808,6.2172489379e-15,9.8066491874,-6.66133814775e-16,63.8879880251
1419804795998.00,-0.8377379406,8.11503213413,-3.90059006459,3.99680288865e-15,9.80665107256,-6.66133814775e-16,71.5976678089
1419804796003.00,-0.328150061024,8.81894525107,-3.89844764286,8.881784197e-16,9.80664954832,-6.66133814775e-15,77.4856137789
1419804796028.00,0.276560354066,9.30403057545,-3.95839321061,-4.4408920985e-16,9.80665111442,-1.35447209004e-14,81.1651354147
1419804796029.00,0.490340680647,9.97433900222,-3.69125141606,2.6645352591e-15,9.80665133733,-2.22044604925e-15,87.2454698783
1419804796035.00,0.220159634332,10.8228075689,-3.4263468368,-2.22044604925e-15,9.80665097755,-8.881784197e-15,95.2196590526
1419804796064.00,-0.441110869335,11.429904148,-2.6624727478,2.22044604925e-15,9.80665183014,3.33066907388e-15,102.062157244
1419804796065.00,-0.958125551441,11.3124302776,-1.56397469498,7.1054273576e-15,9.80664913096,8.881784197e-16,102.918177553
1419804796066.00,-0.980796412947,10.6881737189,-0.937405115973,3.10862446895e-15,9.80664995468,4.4408920985e-16,98.1619825365
1419804796092.00,-0.857392449414,10.3537618496,-0.815280712766,1.7763568394e-15,9.80665121126,-4.88498130835e-15,95.1380945657
1419804796095.00,-0.60591424358,10.1759473487,-1.10702454652,7.54951656745e-15,9.80665087229,4.4408920985e-16,92.7374124309
1419804796096.00,-0.229386138768,9.87275164788,-1.54262456096,2.6645352591e-15,9.80665033658,-9.32587340685e-15,88.8225757472
1419804796104.00,-0.0017792055699,9.3435300439,-1.6677464562,-1.33226762955e-15,9.8066516829,-1.7763568394e-15,83.5181631164
1419804796137.00,0.00989171542971,8.76750773875,-1.3555289887,7.54951656745e-15,9.80665055813,0.0,78.7959585808
1419804796139.00,-0.0461423098898,8.1585631395,-0.799926332504,-1.7763568394e-15,9.80665030279,-3.99680288865e-15,74.3625465203
1419804796140.00,-0.0614230754313,7.60505152563,-0.311105991263,5.77315972805e-15,9.80665067205,-3.99680288865e-15,70.3420750356
1419804796171.00,0.119858046672,7.11819277161,-0.197349436409,8.43769498715e-15,9.80665122039,-3.5527136788e-15,66.164026654
1419804796172.00,0.314107848168,6.7401705996,-0.405678971112,-4.4408920985e-16,9.80665037015,1.55431223448e-15,62.368702921
1419804796173.00,0.384021692704,6.45971748561,-0.557151973768,-3.99680288865e-15,9.80665076501,-6.43929354283e-15,59.6604071632
1419804796191.00,0.483708912363,6.21300180697,-0.568880739794,4.88498130835e-15,9.80664976724,-3.5527136788e-15,57.5599807343
1419804796192.00,0.773999982547,6.03247980686,-0.510407673758,-4.4408920985e-16,9.80665085442,-5.55111512313e-15,56.1699034032
1419804796194.00,0.995557542178,6.05368305665,-0.202503949928,-1.33226762955e-15,9.80664945733,4.4408920985e-15,57.069060641
1419804796203.00,1.03407331951,6.20962473734,0.320643055779,3.5527136788e-15,9.80664970959,2.22044604925e-16,59.5488317419
1419804796218.00,1.20716065311,6.3707608486,0.900382215265,1.7763568394e-15,9.80664958814,1.33226762955e-15,62.0982650341
1419804796236.00,1.39517309798,6.49120058059,1.62693023914,2.22044604925e-15,9.80665139017,-3.33066907388e-15,64.44348975
1419804796237.00,1.47266167685,6.74113203753,2.28015495103,-1.33226762955e-15,9.80665173347,3.10862446895e-15,67.8596972393
1419804796254.00,1.48575026135,7.20792036212,2.46947011127,4.88498130835e-15,9.80665012363,7.1054273576e-15,72.610659397
1419804796254.00,1.52949642426,7.73018538283,2.27641897507,4.4408920985e-15,9.80665176408,1.55431223448e-15,77.347210178
1419804796270.00,1.63133450114,8.38459395406,2.04371372603,8.881784197e-16,9.8066498048,4.66293670343e-15,83.346524729
1419804796289.00,1.95394585055,9.14854550036,2.85160097676,2.6645352591e-15,9.806651242,-2.22044604925e-15,91.7198776346
1419804796290.00,2.51570819608,9.87917749907,3.61118862931,3.10862446895e-15,9.80665101837,1.99840144433e-15,99.5811272011
1419804796304.00,2.78345358909,10.1788467017,2.81864391358,6.88338275268e-15,9.80664996842,9.7699626167e-15,101.550475578
1419804796305.00,2.63163644935,10.2887592381,1.71657082077,3.99680288865e-15,9.80665112552,5.77315972805e-15,101.516067603
1419804796323.00,2.49935875554,9.9828104782,1.42676780435,7.9936057773e-15,9.80665155905,2.77555756156e-15,98.2638934695
1419804796324.00,2.12776530115,9.94799583002,1.07847577196,3.99680288865e-15,9.80664992263,8.881784197e-16,97.5552923623
1419804796337.00,1.66990559083,10.3834174719,0.56650195334,1.7763568394e-15,9.80665126019,-1.55431223448e-15,101.197043315
1419804796364.00,1.43236973403,10.9784194249,0.641554301729,3.5527136788e-15,9.8066504767,-1.08801856413e-14,106.968371672
1419804796366.00,1.49665478116,11.6348181672,1.30027133035,5.55111512313e-15,9.80664857352,-3.5527136788e-15,113.986291955
1419804796367.00,1.7188778657,12.3760796142,2.17363080189,2.88657986403e-15,9.80665113744,-3.33066907388e-15,122.115458821
1419804796393.00,2.10794902289,12.9919337953,2.88074949401,-1.7763568394e-15,9.80665135088,0.0,128.877691469
1419804796394.00,2.3595514152,13.5537737756,3.04307620412,5.77315972805e-15,9.8066515326,-6.2172489379e-15,134.497428788
1419804796395.00,2.34185363711,13.8855966199,2.42047269079,-2.22044604925e-16,9.80664944575,-7.77156117238e-15,137.018437661
1419804796403.00,1.99245991573,13.9288338098,1.08900125939,2.6645352591e-15,9.80665031492,-5.99520433298e-15,136.016697494
1419804796428.00,1.77061765427,13.9210221584,-0.566473387091,-3.10862446895e-15,9.80665146815,2.22044604925e-15,134.175658763
1419804796429.00,1.93689152902,14.1196961147,-1.0474977045,6.66133814775e-16,9.80665118027,-4.4408920985e-15,135.509214254
1419804796435.00,2.07687808258,14.5276945409,-0.30517546689,-1.99840144433e-15,9.80665068236,-1.11022302463e-15,140.142785356
1419804796461.00,2.08440245188,15.0039056655,0.310122450022,1.55431223448e-15,9.80665008655,1.7763568394e-15,145.319986884
1419804796463.00,2.23601030111,14.9072492755,-0.339025397797,3.33066907388e-15,9.80665015249,-1.7763568394e-15,143.504239252
1419804796464.00,1.16264790805,14.1842940629,-1.0094569122,6.43929354283e-15,9.80665072773,-3.77475828373e-15,135.662832373
1419804796494.00,-0.402391783266,13.0073780404,-1.32316878244,-4.4408920985e-15,9.80665194701,-9.7699626167e-15,123.963303182
1419804796496.00,-1.9162641973,12.0781422925,-1.08479767949,0.0,9.80664971275,-3.77475828373e-15,115.355931975
1419804796498.00,-3.34299402508,11.5073902804,-0.794858947845,-6.88338275268e-15,9.80665118333,-1.70974345792e-14,110.292312655
1419804796505.00,-4.08871205794,11.1995594889,-0.783905956394,4.66293670343e-15,9.80665073384,2.22044604925e-16,107.390908378
1419804796536.00,-4.42895367445,11.1687181471,-0.754109408356,5.10702591328e-15,9.8066514529,-7.32747196253e-15,107.149317626
1419804796537.00,-4.3013824028,11.0024785875,-1.01273263559,8.881784197e-15,9.80665161354,-2.22044604925e-16,105.233203919
1419804796539.00,-4.13541429049,10.6886191128,-1.21521850713,1.33226762955e-15,9.80665068899,-4.66293670343e-15,101.894413737
1419804796564.00,-3.95054527979,10.1597381574,-1.15017502685,5.3290705182e-15,9.80665156831,4.66293670343e-15,96.7400153325
1419804796566.00,-3.64439475861,9.29638791611,-0.707653207379,-1.55431223448e-15,9.80665100479,5.3290705182e-15,88.7754215517
1419804796567.00,-3.15342814293,8.23424575204,-0.228402883943,-5.77315972805e-15,9.80665015422,-5.10702591328e-15,78.9667830828
1419804796589.00,-2.72151416605,7.57192053232,-0.442748000737,4.88498130835e-15,9.80664985342,-8.881784197e-16,72.0811894333
1419804796590.00,-1.73909943184,8.1473339437,-0.153647456064,7.54951656745e-15,9.80665049957,7.32747196253e-15,77.7580591588
1419804796595.00,0.104786338337,8.2563662215,-0.0115888767911,0.0,9.80665103592,-1.7763568394e-15,78.7414718756
1419804796603.00,1.28832988295,8.37516331739,-0.661813898891,-4.4408920985e-16,9.80665111832,-8.881784197e-16,78.5988784002
1419804796617.00,1.57124739261,8.72588528702,-1.56297752155,-3.10862446895e-15,9.806649404,-4.21884749358e-15,80.2163395165
1419804796638.00,1.50337185755,9.00656632503,-2.02171946679,4.4408920985e-15,9.80664934363,-1.99840144433e-15,81.8310251528
1419804796639.00,1.40913150475,8.98482636398,-1.98930115084,5.3290705182e-15,9.80665044794,-7.1054273576e-15,81.3587331834
1419804796654.00,1.22455194596,8.8240232652,-1.44790226275,4.4408920985e-16,9.80665067209,-8.881784197e-16,80.489244023
1419804796655.00,0.91803784803,8.55152920837,-0.764442715011,4.21884749358e-15,9.80665060872,-9.54791801178e-15,78.9039280271
1419804796668.00,0.644991935857,8.06782925464,-0.355325432752,6.2172489379e-15,9.80665119771,6.2172489379e-15,74.8689650582
1419804796682.00,0.237059072844,7.62827811948,0.0316916620084,9.32587340685e-15,9.80664944558,-3.99680288865e-15,71.2976246887
1419804796684.00,-0.0823487185996,7.28193517411,0.393600104384,6.66133814775e-16,9.80665158824,-4.4408920985e-15,68.5873744181
1419804796699.00,-0.350883417096,7.11164521533,0.589536840599,2.22044604925e-16,9.80665073016,-2.22044604925e-15,67.2155840609
1419804796703.00,-0.593185873571,7.0591288447,0.58921332267,1.55431223448e-15,9.80664988234,-7.1054273576e-15,66.5518415538
1419804796715.00,-0.733243500243,7.01476748943,0.580036153244,1.55431223448e-15,9.80664909924,1.33226762955e-15,66.0119499771
1419804796734.00,-0.811984454061,6.90979769571,0.411374060283,-4.4408920985e-15,9.80665122022,-3.10862446895e-15,64.6280531025
1419804796735.00,-0.826818491431,6.72255033289,0.392183500466,1.55431223448e-15,9.80665050598,-1.7763568394e-15,62.9209237786
1419804796759.00,-0.864567333106,6.63431105034,0.553788526455,1.7763568394e-15,9.80665072587,-2.6645352591e-15,62.5827092493
1419804796760.00,-0.869165789207,6.61280243403,0.654681673875,-4.4408920985e-15,9.80665074496,-8.881784197e-16,62.7538145948
1419804796764.00,-0.808159461049,6.68320447257,0.822369042771,4.4408920985e-16,9.80665095746,-5.77315972805e-15,63.9250060478
1419804796790.00,-0.631699180453,6.84907818999,1.25326115747,1.7763568394e-15,9.80665141224,-5.3290705182e-15,66.5208088055
1419804796791.00,-0.347261703233,7.05308658647,1.82090154492,1.33226762955e-15,9.80665044798,-5.3290705182e-15,69.69704569
1419804796795.00,0.0174479254918,7.43578612584,2.26354906666,2.22044604925e-15,9.80665121282,-6.66133814775e-15,74.2199316109
1419804796804.00,0.324421231645,8.08462866014,2.63836613402,2.22044604925e-15,9.80665211778,-2.6645352591e-15,81.0799181534
1419804796818.00,0.478163711941,8.98566621526,2.94155885035,3.99680288865e-15,9.80665039388,-5.10702591328e-15,90.1752078814
1419804796836.00,0.636338163764,10.1065039835,3.02128308576,2.22044604925e-15,9.80665005801,-4.66293670343e-15,100.929167222
1419804796838.00,0.816511817487,11.2639792248,2.95727057923,3.5527136788e-15,9.80665151875,-4.88498130835e-15,111.812608857
1419804796853.00,0.890459327296,12.5108697963,2.81494685451,5.77315972805e-15,9.80665193047,3.10862446895e-15,123.493507057
1419804796870.00,1.03432126581,13.752813621,2.51966150876,-5.77315972805e-15,9.80665021134,-2.22044604925e-16,134.972597589
1419804796871.00,0.96509793062,15.0494403736,1.93992222402,-1.7763568394e-15,9.80665098957,-4.4408920985e-16,146.658890566
1419804796888.00,0.965265849375,15.693285274,0.866865480403,2.88657986403e-15,9.8066506229,-7.77156117238e-15,151.492056778
1419804796889.00,1.087196516,15.0452212131,0.805533197499,5.55111512313e-15,9.80665029367,-1.55431223448e-15,145.469605328
1419804796895.00,1.30861124303,13.0719514541,2.21554430892,-4.21884749358e-15,9.80664963271,-4.21884749358e-15,128.629142177
1419804796903.00,1.04539148666,11.4405390833,3.40261785519,-1.33226762955e-15,9.80665099256,2.22044604925e-16,114.576880435
1419804796917.00,0.380454466538,11.2849575609,3.57232614786,8.21565038223e-15,9.8066508041,6.66133814775e-16,113.319328906
1419804796934.00,-0.0984675724863,12.7501290144,2.87612842161,3.5527136788e-15,9.80665083469,-1.55431223448e-15,126.540284671
1419804796935.00,-0.308583759991,14.7376538132,0.80172793996,7.1054273576e-15,9.80665102205,-3.99680288865e-15,143.00146195
1419804796954.00,-0.820741244503,16.7574185784,-1.39524697356,2.44249065418e-15,9.80665007049,-5.10702591328e-15,159.643285707
1419804796972.00,-1.56266107086,18.1232154803,-5.5270574599,1.08801856413e-14,9.80665064884,-1.7763568394e-15,167.53319772
1419804796973.00,-3.2995296572,17.6129327264,-7.28805590073,-2.22044604925e-15,9.80665163529,-5.3290705182e-15,159.909096823
1419804796975.00,-4.68514497626,14.1435587259,-2.87688921499,-3.10862446895e-15,9.80665037588,-7.1054273576e-15,131.883527749
1419804796984.00,-4.54947272501,9.87150466331,0.396015202944,2.88657986403e-15,9.80664955072,-3.5527136788e-15,95.3554925692
1419804797008.00,-2.77584603625,6.82320754438,-0.471822512284,-1.7763568394e-15,9.80665139064,-9.10382880193e-15,64.5852853976
1419804797010.00,-1.16030537038,5.57755775108,-2.95545799692,0.0,9.80665043281,5.55111512313e-15,48.2741789936
1419804797015.00,-0.569289016244,5.6673086993,-4.99541950666,4.88498130835e-15,9.80665024435,-1.55431223448e-15,44.9889566087
1419804797042.00,-0.339445610038,6.17452708456,-4.7626413836,3.10862446895e-15,9.80664942765,-8.881784197e-16,49.5023369571
1419804797043.00,-0.361564051653,7.74946504818,-3.98512491551,-2.22044604925e-15,9.80664992264,-4.4408920985e-16,65.2334639071
1419804797044.00,-0.466669649325,9.2065872709,-3.86217414932,3.5527136788e-15,9.80665233288,-3.5527136788e-15,78.6439207975
1419804797066.00,-0.253991265591,10.124491737,-3.3908513755,8.881784197e-16,9.8066496062,-3.10862446895e-15,87.7337749332
1419804797067.00,0.138540483253,10.6901708524,-3.06655906416,4.4408920985e-15,9.80664906757,-4.4408920985e-16,93.325679178
1419804797084.00,0.0269619994991,11.4809414486,-2.92941692073,8.43769498715e-15,9.80665079872,-1.7763568394e-15,100.843954696
1419804797085.00,-0.669799256563,12.2725938547,-2.72762198566,-1.7763568394e-15,9.80665040954,-1.33226762955e-15,108.618482187
1419804797105.00,-1.28972490555,12.4332580697,-1.75685217262,8.881784197e-16,9.80665108008,-3.99680288865e-15,112.091650407
1419804797106.00,-1.32234909592,11.8808978075,-0.325891214791,7.54951656745e-15,9.80664931042,2.22044604925e-15,109.845839378
1419804797116.00,-0.864982644266,11.1626223509,0.404395823951,1.7763568394e-15,9.80665092089,-3.5527136788e-15,104.519539099
1419804797136.00,-0.369581010854,10.7248213365,0.0112511485326,1.11022302463e-14,9.80665083049,-3.10862446895e-15,99.3152597687
1419804797138.00,0.0630126230807,10.4023087714,-1.10347754469,3.5527136788e-15,9.80665052474,-1.7763568394e-15,93.5043261633
1419804797156.00,0.452388536131,9.98030395737,-1.82356292368,1.33226762955e-15,9.80664960986,-6.2172489379e-15,87.6641817743
1419804797158.00,0.713512248014,9.31710503254,-1.6657172365,1.7763568394e-15,9.80664985841,-3.5527136788e-15,81.7121974916
1419804797165.00,0.669010750426,8.5451728266,-1.0766378532,1.33226762955e-15,9.80664980131,-5.77315972805e-15,75.9325495997
1419804797190.00,0.556147905122,7.64122994728,-0.560268202402,2.22044604925e-15,9.80664998213,-4.4408920985e-16,68.8839225103
1419804797191.00,0.443680539952,6.94545638007,-0.24002898851,1.11022302463e-14,9.80665023243,-3.10862446895e-15,63.358584165
1419804797195.00,0.473835966805,6.44658209107,-0.266118335493,1.7763568394e-15,9.80664979644,-7.1054273576e-15,58.843777051
1419804797217.00,0.574463153538,6.19433902313,-0.577770492865,2.6645352591e-15,9.80664988623,-4.4408920985e-16,55.9827000586
1419804797218.00,0.712991360975,5.9994174121,-0.924435041837,8.43769498715e-15,9.80664957728,-2.6645352591e-15,53.6327889262
1419804797234.00,0.853790986216,5.90103580717,-0.990591859567,-8.881784197e-16,9.80665110328,0.0,52.8348897851
1419804797249.00,1.09698238443,5.90067501917,-0.874088918073,-3.5527136788e-15,9.80665003866,-4.4408920985e-15,53.3185567484
1419804797250.00,1.24191576418,6.18343759506,-0.741027983631,-8.881784197e-16,9.80665120529,-8.21565038223e-15,56.4614551297
1419804797265.00,1.21624210001,6.50951555829,-0.552923125514,8.43769498715e-15,9.80665141674,-2.22044604925e-16,60.1045099835
1419804797266.00,1.30075796622,6.53900776406,-0.0257829244656,3.5527136788e-15,9.80665090555,6.66133814775e-16,61.5300068827
1419804797283.00,1.3903595941,6.57952312939,0.892990436522,8.881784197e-16,9.80665203925,-7.1054273576e-15,63.7194880402
1419804797284.00,1.20159168251,6.93337884368,2.00454905825,9.7699626167e-15,9.8066508175,1.11022302463e-15,69.1548355793
1419804797297.00,1.09384957222,7.3151525303,2.83757318999,5.3290705182e-15,9.8066509721,-4.66293670343e-15,74.256932366
1419804797315.00,1.0800826516,7.81902224479,2.96673638503,1.33226762955e-15,9.80664982268,-1.7763568394e-15,79.2627432534
1419804797316.00,1.14687406469,8.39645397627,2.54003019637,-3.10862446895e-15,9.80665068448,-4.66293670343e-15,84.1090844763
1419804797330.00,1.29203259512,9.02254951211,2.40643807585,6.66133814775e-16,9.80665199122,2.22044604925e-15,89.9379130461
1419804797336.00,1.57267527034,9.682266967,3.19282839099,-5.3290705182e-15,9.80665142448,-8.65973959208e-15,97.3570601161
1419804797352.00,2.02048648797,10.3109062549,3.73654323715,-1.55431223448e-15,9.80665078135,-3.10862446895e-15,104.029638189
1419804797368.00,2.14461204016,10.6282493644,2.74158569202,5.99520433298e-15,9.80665041187,-6.88338275268e-15,105.868439938
1419804797369.00,1.65058901743,10.5612689266,1.69929630849,-3.33066907388e-15,9.80665074371,-1.26565424807e-14,104.075092241
1419804797387.00,1.11830987576,10.7477718749,1.2639432914,2.44249065418e-15,9.8066507191,-3.33066907388e-15,105.395600232
1419804797387.00,0.890221581561,11.1904157469,1.22578899431,3.10862446895e-15,9.80665109926,0.0,109.594850607
1419804797395.00,0.872057732775,11.6434728478,1.55413334474,-4.4408920985e-15,9.80665220729,-1.11022302463e-15,114.300473008
1419804797415.00,1.08510627699,12.0318933498,2.18961310983,-3.33066907388e-15,9.80664940434,-7.32747196253e-15,118.769545033
1419804797417.00,1.51359434101,12.5014880937,2.91173080536,4.66293670343e-15,9.80665244882,-4.4408920985e-16,124.164168629
1419804797432.00,2.04407938835,13.0497327,3.33079182248,4.4408920985e-15,9.80664965992,-5.3290705182e-15,129.957365487
1419804797436.00,2.31803309091,13.6337420242,3.3455011618,3.77475828373e-15,9.80665019647,-6.66133814775e-15,135.609934704
1419804797449.00,2.43179268677,13.8683214793,2.90285463665,5.77315972805e-15,9.80664967224,-9.32587340685e-15,137.368051064
1419804797464.00,2.43940874435,13.7101647732,1.71879080972,4.66293670343e-15,9.80665036241,-2.44249065418e-15,134.533901816
1419804797465.00,2.32137541005,13.7349922801,0.0283299518015,-2.22044604925e-15,9.80664982225,-3.10862446895e-15,132.9788214
1419804797482.00,2.41691022077,14.0395398925,-0.834050528568,1.99840144433e-15,9.80665069098,2.22044604925e-15,134.993373917
1419804797484.00,2.153304005,14.7960766158,-0.792474816573,3.10862446895e-15,9.8066505742,-6.66133814775e-16,142.283884828
1419804797498.00,2.01628407914,15.343548457,-0.684650330936,-1.33226762955e-15,9.80664974978,-8.65973959208e-15,147.568675397
1419804797514.00,2.04793820553,15.1505482795,-0.925722062361,-1.7763568394e-15,9.80665083946,-2.6645352591e-15,145.284694508
1419804797516.00,1.61384086868,14.3352066683,-1.52755985719,2.88657986403e-15,9.80664948438,9.54791801178e-15,136.576662732
1419804797530.00,0.338409123655,12.9549342798,-2.05323774353,3.77475828373e-15,9.80665034762,-8.881784197e-16,122.603200523
1419804797536.00,-1.27548917152,11.6171354876,-1.8312168308,7.1054273576e-15,9.80665058809,-5.77315972805e-15,110.044572857
1419804797547.00,-2.72729409949,10.6696822816,-1.11789418098,1.7763568394e-15,9.80665094933,-9.54791801178e-15,101.851115139
1419804797563.00,-3.68358583163,10.200685922,-0.474503970949,3.10862446895e-15,9.80665116864,-1.55431223448e-15,98.1450195818
1419804797566.00,-3.86973819131,10.0462671508,-0.318527948658,3.33066907388e-15,9.80665002142,1.99840144433e-15,96.8783772803
1419804797586.00,-4.06773347145,10.3946947029,-0.517545618798,6.66133814775e-16,9.80664992233,-6.66133814775e-16,100.066116289
1419804797587.00,-4.3486000098,10.8175162094,-0.95245404037,-5.10702591328e-15,9.80665145998,-6.66133814775e-16,103.701769321
1419804797599.00,-4.39077096859,10.9685253406,-1.23380905835,3.77475828373e-15,9.80665039534,2.22044604925e-16,104.82911564
1419804797621.00,-4.03520182339,10.6336404618,-0.92767118984,-4.66293670343e-15,9.80665091837,2.22044604925e-15,101.841333989
1419804797632.00,-3.50762251054,10.1453801721,-0.228885714133,5.77315972805e-15,9.80665025928,7.1054273576e-15,97.5021574001
1419804797633.00,-3.02075816759,9.29646033329,-0.154838824437,5.77315972805e-15,9.80665025928,7.1054273576e-15,89.4083677095
1419804797636.00,-2.03691673884,9.00268715703,-0.137834377083,5.77315972805e-15,9.80665025928,7.1054273576e-15,86.564789767
1419804797662.00,-0.366988426541,8.80011478408,0.216371806214,5.3290705182e-15,9.80665194101,-2.22044604925e-15,84.8930819174
1419804797664.00,1.16262478749,8.53014490978,-0.18552002871,4.4408920985e-15,9.80664876452,1.55431223448e-15,81.543944947
1419804797665.00,1.74993893963,8.57436656003,-1.0232408183,3.99680288865e-15,9.80665188243,-5.10702591328e-15,80.5474496094
1419804797691.00,1.82087408588,8.66861266383,-1.62182329229,3.10862446895e-15,9.80665142889,-3.10862446895e-15,80.2789324084
1419804797692.00,1.85358781775,8.58749527741,-1.76536324079,-2.88657986403e-15,9.80664987334,2.22044604925e-16,78.9445835708
1419804797696.00,1.75322746147,8.53190424383,-1.59759156051,7.54951656745e-15,9.80665079375,-1.11022302463e-15,78.3204136723
1419804797716.00,1.50190328763,8.50314681912,-1.07159151799,2.88657986403e-15,9.80665139377,6.66133814775e-16,78.57676388
1419804797716.00,1.30470451919,8.33859548187,-0.618990051219,4.4408920985e-16,9.80665037743,-7.9936057773e-15,77.4951929588
1419804797731.00,1.22019702814,7.84266908243,-0.362362555319,-3.5527136788e-15,9.80665043141,-3.77475828373e-15,72.9653430166
1419804797747.00,0.994552419298,7.21031198987,-0.0714077954718,6.43929354283e-15,9.8066497441,1.7763568394e-15,67.311465004
1419804797748.00,0.789221476354,6.69838930884,0.147479951296,3.5527136788e-15,9.80665080192,1.33226762955e-15,62.74327462
1419804797764.00,0.412858903439,6.44255284577,0.184357423832,-2.22044604925e-16,9.80665020393,-2.22044604925e-15,60.2845839557
1419804797766.00,-0.0862747365506,6.41293227893,0.0394038377185,9.99200722163e-15,9.80665042648,-3.5527136788e-15,59.6156747609
1419804797783.00,-0.392702076199,6.28841998284,-0.154035002247,7.77156117238e-15,9.80665125401,-2.22044604925e-15,57.9682086094
1419804797784.00,-0.507519117514,6.20092764231,-0.0565026382926,3.5527136788e-15,9.80665016769,-8.881784197e-16,57.3671177876
1419804797796.00,-0.591317889655,6.25832545854,-0.0023942105851,7.54951656745e-15,9.80665209308,0.0,58.073207933
1419804797812.00,-0.60840433073,6.43614329662,-0.0800647433835,1.11022302463e-15,9.80664929676,-5.3290705182e-15,59.6499341686
1419804797816.00,-0.5519258996,6.5374266307,0.102024971467,9.7699626167e-15,9.80665046049,-3.10862446895e-15,61.1052367894
1419804797830.00,-0.525357724185,6.56107272251,0.720955240022,5.10702591328e-15,9.80665108322,-5.3290705182e-15,62.7573057366
1419804797844.00,-0.32338935724,6.76679511272,1.1657669112,3.99680288865e-15,9.80664973072,-3.5527136788e-15,65.6798730628
1419804797845.00,-0.0817030560661,7.2990948963,1.55853392131,5.10702591328e-15,9.80664947414,-7.9936057773e-15,71.5209659261
1419804797862.00,0.0845772525757,8.16197745466,2.16111150617,0.0,9.8066498089,3.33066907388e-15,80.8780547189
1419804797864.00,0.134322934924,9.35177520614,2.97287273831,8.43769498715e-15,9.80664998004,-4.4408920985e-15,93.7137960453
1419804797879.00,0.00716888323706,10.8727129129,3.69216003003,8.881784197e-16,9.80664997371,-9.10382880193e-15,109.485825866
1419804797885.00,0.140408165999,12.3189598636,3.84208083339,1.33226762955e-15,9.80665111989,-3.10862446895e-15,123.495592674
1419804797897.00,0.319980190107,13.6458547849,3.40777022523,3.5527136788e-15,9.80664843059,-6.66133814775e-15,135.449881916
1419804797912.00,0.337453779958,14.6447523023,2.84482161546,8.881784197e-16,9.8066507587,2.44249065418e-15,144.244799256
1419804797916.00,0.320106499855,15.1031955443,2.3212832258,4.88498130835e-15,9.80664926324,7.32747196253e-15,148.072247564
1419804797932.00,0.189817916563,14.9995469478,1.38323257394,1.33226762955e-15,9.80665105701,-9.54791801178e-15,145.981947143
1419804797944.00,0.247485801617,14.0699349326,0.578499172066,2.44249065418e-15,9.80665177926,-1.33226762955e-15,136.124342643
1419804797945.00,0.419642066055,12.2701928513,1.62476691319,1.55431223448e-15,9.80665100974,-7.77156117238e-15,120.238610646
1419804797962.00,0.116100194426,11.1819261565,3.00756283454,-4.4408920985e-16,9.80665116349,4.4408920985e-15,111.597990195
1419804797964.00,-0.584273167175,12.0035571938,3.2331541398,4.21884749358e-15,9.80665111594,-6.66133814775e-16,119.827821012
1419804797980.00,-0.43379194919,16.4165049605,0.316943816769,7.9936057773e-15,9.8066493785,2.22044604925e-16,158.442368877
1419804798006.00,-0.668008997243,18.8371886682,-2.39492008812,7.9936057773e-15,9.80664974216,-7.1054273576e-15,178.060976256
1419804798008.00,-1.67331642454,19.1478918357,-5.86951365894,7.9936057773e-15,9.8066503694,-4.88498130835e-15,176.088798172
1419804798009.00,-3.46966199789,16.3511775573,-2.886289913,1.08801856413e-14,9.80665058168,3.10862446895e-15,152.786643074
1419804798016.00,-3.92621197413,11.8001735848,1.4271690025,2.88657986403e-15,9.80664991905,-7.77156117238e-15,115.307605795
1419804798038.00,-2.78730653404,8.13207385885,0.979321792226,-4.4408920985e-16,9.806650497,-1.33226762955e-15,79.412435918
1419804798039.00,-1.72577843283,6.67176981366,-2.10644105524,4.4408920985e-16,9.80664999053,-4.66293670343e-15,60.4671059599
1419804798044.00,-0.939551460542,6.47112245679,-5.18026465965,8.881784197e-16,9.80665018644,-5.10702591328e-15,52.9999510532
1419804798066.00,-0.720690206271,6.70127938877,-5.80556153161,-8.881784197e-16,9.80664945195,-5.3290705182e-15,53.4422079139
1419804798066.00,-0.788447427135,7.73703058419,-4.72107610659,1.7763568394e-15,9.80665180397,2.44249065418e-15,64.6095853811
1419804798084.00,-0.430782104447,8.74153756971,-4.56388490901,0.0,9.80664998255,-4.21884749358e-15,73.8322619804
1419804798098.00,0.0192177943167,9.30371416378,-4.75671833514,8.881784197e-16,9.80664977381,2.22044604925e-16,78.1243843041
1419804798099.00,0.204429994034,9.89129992709,-4.35739428995,-2.22044604925e-15,9.80665070745,-6.2172489379e-15,83.8826725685
1419804798116.00,-0.0310836111534,10.5497645198,-3.80361980515,5.77315972805e-15,9.80665095171,-9.32587340685e-15,90.7859399856
1419804798117.00,-0.4324511688,11.0854144507,-3.14415527858,-1.7763568394e-15,9.80665137067,0.0,96.9313522291
1419804798129.00,-0.860622387111,11.2518069449,-2.08239917775,5.3290705182e-15,9.80665106334,4.4408920985e-16,100.548257733
1419804798143.00,-1.08952788905,10.914334121,-0.876577903625,3.99680288865e-15,9.80664979362,2.22044604925e-15,99.8361789445
1419804798144.00,-0.983094274405,10.4767297171,-0.293445634584,3.10862446895e-15,9.80664946528,1.7763568394e-15,96.8864698065
1419804798160.00,-0.690352386324,10.2456775881,-0.473201530356,1.7763568394e-15,9.80665080273,-3.5527136788e-15,94.2057018661
1419804798165.00,-0.424966232613,10.1230586562,-0.882855748381,1.7763568394e-15,9.80664986579,-4.4408920985e-15,92.0243348501
1419804798177.00,0.00968328197866,9.6592346598,-1.09072558288,1.7763568394e-15,9.80665106499,-2.6645352591e-15,87.1359538965
1419804798195.00,0.123274456903,9.1106699049,-0.990195310249,6.2172489379e-15,9.80665154814,2.22044604925e-15,82.2474163576
1419804798196.00,0.157429258681,8.32962240007,-0.838976552068,-1.7763568394e-15,9.80665009766,-4.4408920985e-15,75.3832399478
1419804798217.00,0.0732277937664,7.54102007086,-0.717952352042,1.33226762955e-15,9.80664852089,-3.10862446895e-15,68.4581115268
1419804798217.00,-0.0920239899005,6.91689437354,-0.609656191792,2.22044604925e-15,9.80664975322,-1.7763568394e-15,63.0926269768
1419804798236.00,-0.155656256607,6.41538719251,-0.652087810879,-1.33226762955e-15,9.80665012765,-1.7763568394e-15,58.560939325
1419804798237.00,-0.0481320328044,6.13527315781,-0.820585635112,6.2172489379e-15,9.80664866996,1.7763568394e-15,55.8299554935
1419804798245.00,0.00608900484008,5.98886695391,-0.949701439292,-3.5527136788e-15,9.80665008677,-1.33226762955e-15,54.4510498914
1419804798265.00,0.394612299807,5.76405052991,-1.02625802622,-8.881784197e-16,9.80665016172,-2.22044604925e-16,52.3996537519
1419804798266.00,0.819859686647,5.7302642853,-0.919202644514,3.99680288865e-15,9.8066506165,-4.4408920985e-15,52.4524202553
1419804798281.00,1.02343401029,6.01169487149,-0.617153148822,-2.22044604925e-15,9.80664976083,-3.77475828373e-15,55.7935628508
1419804798304.00,1.10583251286,6.35849273053,-0.140654402046,2.22044604925e-15,9.80665020049,-7.9936057773e-15,60.0081134081
1419804798305.00,1.18528327469,6.56669737098,0.747613362108,5.77315972805e-15,9.80664994699,4.4408920985e-16,63.572519491
1419804798306.00,1.26825497041,6.82576888145,1.84766499201,-3.10862446895e-15,9.80665203131,-9.10382880193e-15,67.9273512427
1419804798340.00,1.27921971539,7.28128199014,2.63149594178,4.4408920985e-16,9.80665047163,3.77475828373e-15,73.5747136082
1419804798341.00,1.14522227713,7.9334856875,2.90773317252,3.99680288865e-15,9.80665136373,-6.66133814775e-16,80.2456978117
1419804798342.00,1.23043671872,8.54930678041,2.49055519767,-3.10862446895e-15,9.80665059105,1.7763568394e-15,85.4958180056
1419804798345.00,1.39623553408,9.11322967848,1.71777939568,1.7763568394e-15,9.80665104273,-6.43929354283e-15,89.8187353364
1419804798363.00,1.39791520941,9.64163269012,1.46092940684,2.22044604925e-15,9.80665120205,4.4408920985e-15,94.6370674666
1419804798366.00,1.54600276465,9.84802637565,1.98658226631,7.1054273576e-15,9.80664857241,4.21884749358e-15,97.3891206891
1419804798378.00,1.75057479092,10.0270080928,2.7616454309,5.99520433298e-15,9.80665129444,4.88498130835e-15,100.096250241
1419804798406.00,1.99722027428,10.371599052,3.02491243106,4.66293670343e-15,9.80665053229,-3.33066907388e-15,103.709488667
1419804798407.00,2.13565491844,10.8028705688,1.95599041341,8.43769498715e-15,9.80665044025,4.21884749358e-15,106.700683511
1419804798409.00,1.71930461885,11.1586755789,0.823736351843,0.0,9.80664933148,-1.7763568394e-15,108.994277988
1419804798417.00,1.21659264251,11.4444324472,1.07023987142,6.88338275268e-15,9.80665100369,2.22044604925e-15,112.0361836
1419804798440.00,1.07518419566,11.7556611816,2.05789436964,4.21884749358e-15,9.80665086446,-6.66133814775e-16,116.080543741
1419804798441.00,1.15559229042,12.0698615251,2.85113391971,-1.55431223448e-15,9.80665070942,-1.55431223448e-15,119.962308436
1419804798445.00,1.34003265076,12.4151998219,3.23132543508,1.02140518266e-14,9.80665170991,-1.33226762955e-15,123.715837737
1419804798463.00,1.56043857366,12.8723653106,3.18427047343,-1.33226762955e-15,9.80665141675,-1.26565424807e-14,128.085395746
1419804798465.00,1.69646823993,13.3753216763,2.92425855879,1.33226762955e-15,9.80664947385,-1.26565424807e-14,132.67618172
1419804798478.00,1.86232830065,13.495074412,2.58015140913,1.99840144433e-15,9.80665087373,-4.88498130835e-15,133.48578662
1419804798506.00,2.11016489648,13.2732083574,1.83629717484,4.66293670343e-15,9.80665080246,-3.88578058619e-15,130.611333777
1419804798507.00,2.39249583446,13.1129101114,0.489901919273,3.77475828373e-15,9.8066499622,-7.88258347484e-15,127.794898848
1419804798508.00,2.37800088027,13.5632625798,-0.688726168974,3.33066907388e-15,9.80665037037,9.32587340685e-15,131.07997158
1419804798517.00,2.27960082967,14.322671125,-0.908171834208,2.88657986403e-15,9.80665034135,-1.0325074129e-14,138.203544774
1419804798538.00,2.22553445295,15.010328077,-0.850875063084,-2.44249065418e-15,9.80665099473,-6.66133814775e-15,144.826735894
1419804798539.00,2.21835809216,15.2426343084,-1.05272443814,1.24344978758e-14,9.80665187945,-6.43929354283e-15,146.729024503
1419804798546.00,1.9828350632,14.5803539927,-1.60879889132,1.08801856413e-14,9.80665094313,-6.66133814775e-15,139.593589222
1419804798562.00,1.4199681154,13.0045018603,-2.3815547137,6.88338275268e-15,9.80665065091,-2.44249065418e-15,123.380639626
1419804798565.00,0.421954160364,11.1021490643,-2.75894846279,-8.881784197e-16,9.80665191568,-4.4408920985e-16,104.511531805
1419804798581.00,-1.01732471327,9.95369521485,-2.0505263028,-1.11022302463e-15,9.80665029646,-1.02140518266e-14,94.2010202928
1419804798602.00,-2.63678604874,9.68048886913,-0.987940529476,6.66133814775e-16,9.80665028012,-1.39888101103e-14,92.7650815822
1419804798603.00,-3.34298743889,9.63746248542,-0.677785806003,8.21565038223e-15,9.80665064619,-1.28785870857e-14,92.7120738341
1419804798606.00,-3.5072644658,10.0508059033,-0.560104344112,-2.22044604925e-16,9.80665091623,7.9936057773e-15,96.8561157749
1419804798635.00,-3.76297886287,10.7821536159,-0.734463120595,7.54951656745e-15,9.80665230173,-1.24344978758e-14,103.77950591
1419804798636.00,-3.7066783158,11.2767363775,-0.902270077572,1.7763568394e-15,9.80665210007,-6.88338275268e-15,108.394953123
1419804798637.00,-3.66128361916,11.6264905725,-0.794278041661,1.62092561595e-14,9.8066512033,4.4408920985e-16,111.865571838
1419804798645.00,-3.25747859613,11.5057244955,-0.715828168588,8.43769498715e-15,9.80665034794,-9.10382880193e-15,110.702825738
1419804798660.00,-2.90019303429,11.1477931486,-0.15986334438,-4.4408920985e-16,9.80665152038,-5.77315972805e-15,107.753749484
1419804798666.00,-2.23618149902,10.4269592519,0.219916490419,2.88657986403e-15,9.8066498248,-3.77475828373e-15,101.113587323
1419804798679.00,-1.04327108092,9.99318951839,0.438605645795,6.2172489379e-15,9.80664839977,-2.22044604925e-15,97.065590686
1419804798703.00,0.480670670601,9.78934718326,0.599612651226,4.66293670343e-15,9.80665004916,-5.3290705182e-15,95.1699523613
1419804798704.00,1.47512071601,9.6120593241,0.0568962084762,-4.21884749358e-15,9.80665045157,-3.33066907388e-15,92.6306596215
1419804798706.00,1.95267842684,9.60159531641,-1.11091222034,2.22044604925e-16,9.80665111391,-6.43929354283e-15,90.756394332
1419804798741.00,2.06571469591,9.52741783971,-1.98549230514,-1.7763568394e-15,9.806650262,-4.4408920985e-15,88.4447199919
1419804798743.00,1.97619568098,9.1327104192,-2.01032317534,1.7763568394e-15,9.80664975799,-9.99200722163e-15,84.131584916
1419804798744.00,1.71463636587,8.57875109904,-1.36923641802,1.55431223448e-15,9.80665028238,2.88657986403e-15,79.3412960581
1419804798746.00,1.2277071113,8.12767745695,-0.799270432892,1.37667655054e-14,9.80664914022,-1.11022302463e-15,75.5466353907
1419804798777.00,0.894115499463,7.57513033566,-0.693249956814,4.4408920985e-15,9.80665141058,3.99680288865e-15,70.0752385954
1419804798778.00,0.600372695334,6.81941404676,-1.16564659353,4.21884749358e-15,9.80665043984,-6.66133814775e-16,61.5937661673
1419804798780.00,-0.0100427510314,6.43015436306,-1.22911622668,1.99840144433e-15,9.80664966487,-5.3290705182e-15,57.4060683631
1419804798801.00,-0.452168305117,6.19435521217,-0.817661782896,3.77475828373e-15,9.80665076451,1.33226762955e-15,55.7796394799
1419804798803.00,-0.534407268205,6.07281883754,-0.372049496062,1.55431223448e-15,9.80664967066,-4.4408920985e-15,55.444554393
1419804798806.00,-0.620155169212,6.31238727646,-0.0958447224177,6.43929354283e-15,9.80664968147,-2.22044604925e-15,58.2094099324
1419804798835.00,-0.693511615313,6.61029044542,0.104191104337,7.9936057773e-15,9.80664988893,-3.99680288865e-15,61.3963162233
1419804798837.00,-0.66333554299,6.72285516225,0.355582177513,-3.5527136788e-15,9.80664981854,-2.6645352591e-15,63.0647338329
1419804798838.00,-0.738039330531,6.75243457676,0.585647076091,9.32587340685e-15,9.80665041931,-8.881784197e-16,63.9830650767
1419804798846.00,-0.850113791441,6.68077434949,0.745288519367,1.99840144433e-15,9.8066520413,-1.7763568394e-15,63.8275637901
1419804798884.00,-0.910427967801,6.59702547751,0.942192827715,6.66133814775e-16,9.80665125075,8.881784197e-16,63.6200641048
1419804798886.00,-0.917429400248,6.61082946942,1.21137869095,5.3290705182e-15,9.80664955499,-3.10862446895e-15,64.4330869616
1419804798887.00,-0.836700655995,6.79559952374,1.5926479004,-1.33226762955e-15,9.80664900294,5.10702591328e-15,67.0238891077
1419804798909.00,-0.654332201711,7.15775154114,1.97021278435,3.99680288865e-15,9.80665087254,-6.2172489379e-15,71.2220194401
1419804798910.00,-0.346987738172,7.67008750549,2.29002227041,-3.5527136788e-15,9.80664971407,2.22044604925e-16,76.6868134722
1419804798911.00,-0.0671216903353,8.51031740476,2.68487161691,-7.1054273576e-15,9.80664987628,2.22044604925e-15,85.3750513049
1419804798933.00,0.0806341862991,9.62514525128,3.03049040298,1.7763568394e-15,9.80664980089,-1.55431223448e-15,96.5808940821
1419804798935.00,0.347843762338,10.7987189901,3.00894388633,3.5527136788e-15,9.8066499671,2.22044604925e-15,107.727714374
1419804798956.00,0.596620799083,12.0149940423,2.54419172338,1.99840144433e-15,9.806650522,3.77475828373e-15,118.627186605
1419804798958.00,0.892808594097,13.2029246667,1.71326426749,3.5527136788e-15,9.80664983243,-2.44249065418e-15,128.8019526
1419804798959.00,0.921545461597,14.2820771162,1.14498861163,6.2172489379e-15,9.80665040466,1.33226762955e-15,138.48016305
1419804798988.00,0.877836625149,15.0034438844,0.704059738162,-1.33226762955e-15,9.80664864171,3.33066907388e-15,144.982054441
1419804798988.00,0.51068355813,15.0577788083,0.405239901317,8.881784197e-15,9.806650774,-4.4408920985e-15,145.263964002
1419804798989.00,0.315801175554,14.0878296622,1.19647132635,0.0,9.80665099374,4.21884749358e-15,137.076192718
1419804798997.00,0.331145253503,12.3804430272,2.89867829837,7.32747196253e-15,9.80665062579,-8.881784197e-15,122.963400959
