index,i,acc_x,acc_y,acc_z
0,0,-0.108592187513,16.4260290406,-0.24184216973
0,1,-0.148232097378,16.1688395144,-0.705964827821
0,2,-0.0989874055974,15.4665553396,-0.518698634603
0,3,0.0575318054104,14.2270879679,0.454726517093
0,4,0.13533912578,12.8788817705,1.96755352931
0,5,0.278179181317,11.7218392446,3.16421000415
0,6,0.551462242345,10.925619029,3.69778822146
0,7,0.719125897414,10.7060342134,3.70208919262
0,8,0.74318874792,10.842514765,3.49916293459
0,9,0.437623746175,11.5955127282,3.06099800995
0,10,0.261659541525,12.3146625383,1.2394896806
0,11,0.0327930816222,12.9667305032,-1.1275249498
0,12,-0.69531222954,13.3594024192,-3.51476636655
0,13,-1.85242813699,13.7587190355,-5.61439715407
0,14,-3.25377687329,14.1342650021,-7.44920828746
0,15,-4.49967796825,14.1822728245,-8.19543075711
0,16,-5.57703220721,13.9317929841,-7.27795674965
0,17,-6.50566863205,13.4179416766,-4.8925152624
0,18,-7.11536256764,12.4264753148,-2.22738188472
0,19,-7.28311091894,11.351479129,-0.598520616901
0,20,-6.88915254942,10.1788347011,-0.307717202397
0,21,-5.50459177337,8.75224390085,-1.17918564219
0,22,-4.29410826076,7.6535560717,-2.14975164079
0,23,-3.64820056651,7.24040249,-3.03700952983
0,24,-2.85107925212,7.08308788735,-3.35946733411
0,25,-2.1058497907,7.06094502638,-3.57978517343
0,26,-1.63192983299,7.24867581826,-3.925589065
0,27,-1.19946541314,7.63796401877,-3.90046177484
0,28,-0.777075020899,8.10705320925,-3.68038415141
0,29,-0.314565751434,8.54751685384,-3.25329782264
0,30,0.0841795880704,8.98042140047,-2.99302963322
0,31,0.405855653038,9.42346877395,-2.85420413926
0,32,0.184607311111,10.0913421847,-2.93299850666
0,33,-0.202824650058,10.6752671121,-3.01069987868
0,34,-0.746368495971,11.1803313432,-3.08737449746
0,35,-1.04189285708,11.1255930864,-2.8807712233
0,36,-1.26238194702,10.9446163875,-2.53130845015
0,37,-1.39100874893,10.6153926142,-1.99859769216
0,38,-1.45182225704,10.2177530293,-1.63236420134
0,39,-1.47189701275,9.81983599086,-1.44503079517
0,40,-1.42839086479,9.44136362201,-1.57531917803
0,41,-1.2473113955,9.15606183033,-1.82140232289
0,42,-1.02274431734,8.91272384571,-2.07684883693
0,43,-0.781951448162,8.72124760955,-2.25696874802
0,44,-0.582509831725,8.55490790362,-2.20813270952
0,45,-0.406059399911,8.39524701584,-2.01916724162
0,46,-0.255246060951,8.20657743278,-1.60984400951
0,47,-0.194062644423,8.04784789569,-1.20291761179
0,48,-0.195127728358,7.90788875377,-0.803978047382
0,49,-0.214955681562,7.73305998974,-0.534091994257
0,50,-0.226766919312,7.54907324383,-0.357443240183
0,51,-0.230561441607,7.35592851602,-0.274031785161
0,52,-0.159036055322,7.12913422422,-0.209660363581
0,53,-0.095421184904,6.96504704814,-0.201387957507
0,54,-0.0487817529224,6.89502742849,-0.273737842815
0,55,-0.0126144104455,6.87543901569,-0.421628075947
0,56,0.0654052868404,6.85311938258,-0.58184966104
0,57,0.239270116928,6.80663583034,-0.742005695229
0,58,0.395223827908,6.85202388998,-0.76239280142
0,59,0.513704390689,6.9520950063,-0.70855378362
0,60,0.517934408635,7.14702002921,-0.542430060598
0,61,0.529933905367,7.30834816229,-0.274717617203
0,62,0.541943445957,7.45499480616,0.0426074688391
0,63,0.527462517241,7.61372550937,0.35992938143
0,64,0.472598385772,7.84400455095,0.6034663315
0,65,0.38757350944,8.12759655382,0.792336090098
0,66,0.281099074893,8.44535091861,0.955658416629
0,67,0.197906561336,8.73048278527,1.09045817898
0,68,0.139498028188,8.98088747647,1.19489521173
0,69,0.181242297976,9.14989772765,1.27775036064
0,70,0.251279215086,9.29550176096,1.3800902097
0,71,0.355036770512,9.41305711615,1.5150707069
0,72,0.465316446768,9.4841101417,1.67731035169
0,73,0.574628138807,9.57615888274,1.8085734348
0,74,0.678786657337,9.73833007698,1.85451521058
0,75,0.734274245524,10.015436107,1.74050998748
0,76,0.759675798626,10.3459922455,1.55361148622
0,77,0.730694122994,10.7359378705,1.28990850764
0,78,0.685742334266,11.1232241395,1.08474996137
0,79,0.637988623068,11.5031738909,0.939245352951
0,80,0.635536678652,11.8347263964,1.02978431294
0,81,0.670219596811,12.1179979774,1.23319353015
0,82,0.734095459891,12.3629906323,1.52412520341
0,83,0.817518586871,12.5621762423,1.7983290034
0,84,0.921264288445,12.7675541829,1.99478239965
0,85,1.04804224123,12.9799500984,2.10311867164
0,86,1.10635050135,13.2289323235,2.05454135646
0,87,1.12410650163,13.4700333372,1.96139656735
0,88,1.08394626268,13.6928314408,1.81613559107
0,89,1.07227108451,13.6944784448,1.62109511375
0,90,1.09763896911,13.5748602818,1.37958723351
0,91,1.20256403008,13.26264042,1.04573228746
0,92,1.26081940624,13.0372756861,0.606870200337
0,93,1.28564340426,12.9203346356,0.19265165398
0,94,1.2387470356,13.1370949133,0.0498074451357
0,95,1.18770125861,13.5269958042,0.187186778015
0,96,1.14487253182,13.9982569323,0.416872092534
0,97,1.20397655335,14.3170996289,0.0192623650971
0,98,1.15542123626,14.493419719,-0.557101271577
0,99,1.01766246716,14.5516496494,-1.28157529019
1,0,1.01766246716,14.5516496494,-1.28157529019
1,1,0.763969098518,14.2042634567,-1.57930551187
1,2,0.511055105213,13.848980521,-1.87681007631
1,3,0.296330503364,13.106757185,-2.16325743621
1,4,0.0689822613651,12.3653876455,-2.44498641493
1,5,-0.461333344225,11.6445092205,-2.61347424522
1,6,-1.003237028,10.9306754351,-2.76498002083
1,7,-1.72668726994,10.3272076712,-2.65043360631
1,8,-2.43700524096,9.75028969187,-2.52059703905
1,9,-2.99630209646,9.47869423546,-2.21492371529
1,10,-3.51736165044,9.24181495046,-1.91354616509
1,11,-3.69428549085,9.31738120819,-1.65083057695
1,12,-3.84206007356,9.4155587288,-1.40752748261
1,13,-3.77607343311,9.67955217716,-1.30658267625
1,14,-3.70168751513,9.96089862182,-1.22336131447
1,15,-3.57570603516,10.3488420438,-1.24901254084
1,16,-3.47526456035,10.7521505243,-1.29817996407
1,17,-3.50890811266,11.2361255625,-1.47080742085
1,18,-3.52889085308,11.6729291225,-1.62727504654
1,19,-3.48664100604,11.894840393,-1.71012566391
1,20,-3.40153590346,12.0501776564,-1.71628494897
1,21,-3.14500977872,11.9392188907,-1.41567890478
1,22,-2.86312316585,11.776467808,-1.09623487778
1,23,-2.49132209506,11.4300894195,-0.710001639031
1,24,-2.08816202124,11.1187756193,-0.372943333081
1,25,-1.58569843784,10.9184996821,-0.191605647667
1,26,-1.04266769329,10.7274211998,-0.0568216452823
1,27,-0.38417656704,10.5625200893,-0.0545365869045
1,28,0.210740693216,10.4297322563,-0.178959635395
1,29,0.642182298053,10.3795214225,-0.62920353012
1,30,1.00889121545,10.3131410204,-1.11693587511
1,31,1.22455719548,10.2090316255,-1.69214127072
1,32,1.37779629962,10.0569687041,-2.16127138328
1,33,1.39837829252,9.80300453917,-2.40499151936
1,34,1.37989282891,9.4892454332,-2.48147492292
1,35,1.28557053796,9.05941379469,-2.23332231629
1,36,1.18076404141,8.60385341931,-1.92770846534
1,37,1.05731895713,8.10255306727,-1.51994129118
1,38,0.907511203572,7.62341154957,-1.1499409252
1,39,0.714690673838,7.18042391945,-0.841560088367
1,40,0.505471735419,6.77839663501,-0.635810931486
1,41,0.271655183972,6.43780986911,-0.584009294528
1,42,0.0792618121772,6.15483312039,-0.599003057006
1,43,-0.0559281210496,5.95141306209,-0.706238085371
1,44,-0.19496985619,5.80519535373,-0.783277238662
1,45,-0.338913884674,5.73178063622,-0.821885278222
1,46,-0.441416733085,5.65437099757,-0.794346030907
1,47,-0.495271239672,5.57227166889,-0.689155620739
1,48,-0.541616847725,5.50235413558,-0.542958920597
1,49,-0.579827815699,5.44563354724,-0.352338739649
1,50,-0.611680788185,5.44189490066,-0.157843632892
1,51,-0.637175765181,5.49113819585,0.0405263996748
1,52,-0.652678624677,5.59989302516,0.217297369102
1,53,-0.658957991098,5.76358157827,0.374130741786
1,54,-0.669046017697,5.96808524075,0.501457872601
1,55,-0.682378458521,6.20735732972,0.603650056638
1,56,-0.706088220393,6.4279674286,0.678652805828
1,57,-0.73795159166,6.63391453527,0.732292427637
1,58,-0.763546374696,6.79727064535,0.771917799124
1,59,-0.784601835221,6.92978499929,0.801394920375
1,60,-0.803120773654,7.04121504302,0.835936669822
1,61,-0.819948697358,7.13858887995,0.873854838066
1,62,-0.798469847322,7.20695383465,0.912763902478
1,63,-0.753512652093,7.25753915187,0.952280290347
1,64,-0.641264116535,7.27885134268,1.00194748213
1,65,-0.491164202042,7.2836973999,1.0573245011
1,66,-0.287928964817,7.34200855862,1.1061247761
1,67,-0.0573209855785,7.42786234538,1.15153703147
1,68,0.159620562192,7.65718369741,1.22899754445
1,69,0.370130848095,7.9540191978,1.32153959043
1,70,0.500478572797,8.41938973466,1.44050071324
1,71,0.596470914127,8.95698957287,1.57078429755
1,72,0.728046571081,9.57010516844,1.63738592098
1,73,0.873460184111,10.212588003,1.67922233741
1,74,1.07535284251,10.8687628698,1.63863233242
1,75,1.29708948982,11.5297484506,1.56908169288
1,76,1.43085468017,12.2445233234,1.45030104519
1,77,1.53683941044,12.9762842884,1.31597407913
1,78,1.50713624688,13.6906132677,1.1549577226
1,79,1.43916213891,14.4000255331,0.986413589266
1,80,1.13035406099,15.0410237806,0.746363990445
1,81,0.761337490596,15.6649185236,0.488438025252
1,82,0.307107075007,16.0206162811,0.0774019395982
1,83,-0.165828818795,16.3174415295,-0.367243684693
1,84,-0.34296586994,16.0072083011,-0.382999059984
1,85,-0.463760284388,15.5813448868,-0.317061054513
1,86,-0.382297583567,14.5838910786,0.700555159238
1,87,-0.267909305842,13.4933876714,1.87309573248
1,88,-0.249825056191,12.6962811957,2.87117478329
1,89,-0.244873174006,11.9391833926,3.84546362651
1,90,-0.350343485028,12.0899324131,4.0218397182
1,91,-0.46808292863,12.3415533029,4.1095588375
1,92,-0.441645105908,13.1006917457,3.71740880827
1,93,-0.402670129593,13.9039621496,3.283531027
1,94,-0.296150409643,14.7368022881,2.48260177852
1,95,-0.185319323079,15.5715298564,1.65824371298
1,96,-0.425685628722,16.2826240644,0.221582213985
1,97,-0.68068515904,16.9885668825,-1.24059192807
1,98,-1.39759204742,17.128777934,-4.28609316453
1,99,-2.12392561657,17.2574434392,-7.36390719883
2,0,-2.12392561657,17.2574434392,-7.36390719883
2,1,-3.22371362092,16.6650022472,-7.59965816602
2,2,-4.26732195642,15.973500781,-7.50676057775
2,3,-4.7828414047,14.3508327372,-4.32456656825
2,4,-5.1759522193,12.7011902321,-1.43848525595
2,5,-5.05494677236,10.9382549891,0.203922728075
2,6,-4.61143914998,9.25398661911,1.16146398868
2,7,-3.37242616153,7.76376320245,0.429667331517
2,8,-2.35383714028,6.63456250803,-0.551146817567
2,9,-1.68792646658,6.08299816919,-1.93038895372
2,10,-1.23280607433,5.74852254681,-3.21538659307
2,11,-1.00533918604,5.64850273822,-4.39860017585
2,12,-0.846075913334,5.71438407868,-4.96812281337
2,13,-0.736828625398,5.9019262618,-5.08760542437
2,14,-0.802846116994,6.42112006096,-4.89321976272
2,15,-0.953992215791,7.10140178791,-4.54638379721
2,16,-0.958201741789,7.6971439298,-4.37250281562
2,17,-0.918330295948,8.26752419618,-4.25050832922
2,18,-0.728436046513,8.73259828212,-3.98576442537
2,19,-0.515204916518,9.18129140665,-3.69881505657
2,20,-0.433476861976,9.64148552289,-3.48065649821
2,21,-0.369202552988,10.1055185773,-3.27592793316
2,22,-0.504090745421,10.6247403064,-3.24561259618
2,23,-0.672207662949,11.1255300745,-3.17971713108
2,24,-1.0230825685,11.5249440567,-2.91813096134
2,25,-1.31732443354,11.7930144412,-2.58171619174
2,26,-1.44166717709,11.6670540328,-2.02081562255
2,27,-1.51117496641,11.4738421832,-1.50035229826
2,28,-1.47710562,11.1535998335,-1.05627043656
2,29,-1.43622035667,10.8582400475,-0.749822819991
2,30,-1.38674111115,10.5942539288,-0.616914034228
2,31,-1.27727739432,10.3140467717,-0.683517740836
2,32,-1.11639841637,10.0199358672,-0.921132155191
2,33,-0.941617089041,9.7299312221,-1.21711789353
2,34,-0.758831378725,9.44229078685,-1.54671136387
2,35,-0.631566484473,9.20003391371,-1.67700913226
2,36,-0.524756627718,8.97449730029,-1.73388216837
2,37,-0.378554969141,8.45550991999,-1.29943395274
2,38,-0.224108514833,7.87510261173,-0.762151056525
2,39,-0.106827006505,7.55018239635,-0.599766439484
2,40,0.00642783184831,7.24797078078,-0.471827305107
2,41,0.0722735218612,7.01807761095,-0.507290099999
2,42,0.119218459336,6.80376220205,-0.542960362765
2,43,0.021257627356,6.70887629366,-0.580221212562
2,44,-0.0668712885969,6.62444082181,-0.614740700163
2,45,-0.118353972083,6.57895697707,-0.639042383215
2,46,-0.105835033024,6.50926190321,-0.682892469017
2,47,0.0506875567615,6.38509156383,-0.770726461005
2,48,0.246639556761,6.28172519824,-0.842743536446
2,49,0.500796876598,6.20906946063,-0.89141183032
2,50,0.710627918908,6.16997737155,-0.902796123412
2,51,0.876132683689,6.16444893099,-0.876896415723
2,52,0.978862684052,6.21260518473,-0.782008471748
2,53,1.039067844,6.29712848943,-0.640386561258
2,54,1.08623164332,6.36685624073,-0.4555985053
2,55,1.12759928235,6.43000819051,-0.251625495802
2,56,1.15168741183,6.51022526734,0.00261687492964
2,57,1.17113957532,6.59502079289,0.270346147455
2,58,1.13367162002,6.68904951523,0.579035762288
2,59,1.0887793014,6.78428256758,0.893068030464
2,60,1.05202333159,7.00507269311,1.22663073703
2,61,1.01534305597,7.24010959931,1.54720848582
2,62,0.977656675513,7.61656503283,1.70737134415
2,63,0.949017509853,7.99683631877,1.8481025573
2,64,0.963603926019,8.39533889961,1.89599368794
2,65,0.999150838004,8.7815967784,1.95568873217
2,66,1.09159052435,9.13461903731,2.04742297039
2,67,1.20442521837,9.45468014833,2.14632070936
2,68,1.35268282046,9.71749294982,2.25766031804
2,69,1.48483390997,9.99081716356,2.34134783278
2,70,1.59819406817,10.2764046916,2.39277457128
2,71,1.70576626521,10.609323696,2.35471022134
2,72,1.80874801031,10.9797814577,2.24567018057
2,73,1.92366816125,11.3689384237,2.26482530156
2,74,2.0449086447,11.7679949685,2.35184844937
2,75,2.16917858038,12.1777244743,2.28789350943
2,76,2.29445833346,12.5910116337,2.17361254024
2,77,2.40226778622,12.9202184249,1.7823562859
2,78,2.50690082073,13.2341378764,1.3407408888
2,79,2.53370621107,13.3836446634,1.33190543491
2,80,2.55518581413,13.5170644363,1.36869877438
2,81,2.56264468041,13.4999608926,1.88379366729
2,82,2.55625304586,13.4896061462,2.37326337394
2,83,2.46082247747,13.5226365249,2.6979997404
2,84,2.34799359866,13.5730579772,2.92942515591
2,85,2.17717035179,13.6814496749,2.84981406828
2,86,1.99376983845,13.758037142,2.71326528232
2,87,1.78447495299,13.7691453106,2.4594918233
2,88,1.56980530405,13.7310310935,2.15286618013
2,89,1.34780643216,13.6257954415,1.77416937675
2,90,1.21287529874,13.4562912908,1.24325936184
2,91,1.15856244167,13.2272792711,0.571411188079
2,92,1.14468252498,13.1050589133,-0.0908011702408
2,93,1.15607319604,13.0495833442,-0.746991143913
2,94,1.12946215293,13.1468605262,-1.07597042656
2,95,1.08744500949,13.3060644993,-1.27229672637
2,96,1.05374192413,13.5325199656,-1.25502190666
2,97,1.02201837641,13.774987692,-1.18688967755
2,98,1.04403889117,13.8572178059,-1.17497813789
2,99,1.07177685939,13.9224013652,-1.16904752264
3,0,1.07177685939,13.9224013652,-1.16904752264
3,1,1.05671646308,13.6692855792,-1.34534989388
3,2,1.03847554555,13.4088523033,-1.52336104002
3,3,0.864389087707,12.7898620224,-1.78510215586
3,4,0.68260488193,12.1667127753,-2.04306261743
3,5,0.316074725718,11.4437483401,-2.2102873764
3,6,-0.0615819755956,10.7345473798,-2.36024869981
3,7,-0.613554550169,10.2409741929,-2.23974953268
3,8,-1.17813935273,9.77596303499,-2.09494256365
3,9,-1.88776477711,9.6394152116,-1.6705958728
3,10,-2.57882592252,9.52584388788,-1.25317258799
3,11,-3.10280855727,9.61906106111,-0.898059957656
3,12,-3.57847924063,9.72743089422,-0.569466651139
3,13,-3.69986228046,9.94692023313,-0.435348385982
3,14,-3.81583329029,10.1800119511,-0.323078497895
3,15,-3.89855897297,10.4966611406,-0.345020068955
3,16,-3.97341944946,10.80692931,-0.384849175942
3,17,-4.00698759338,11.0836971242,-0.518587846544
3,18,-4.02114295274,11.3351470448,-0.65156335022
3,19,-3.94686229357,11.4712598937,-0.781062204565
3,20,-3.84912528772,11.573928442,-0.880095439454
3,21,-3.65756289515,11.5428197879,-0.857266196518
3,22,-3.49878874405,11.5008709004,-0.792879138075
3,23,-3.45626381265,11.4204884581,-0.581150733743
3,24,-3.33860233979,11.2805588691,-0.364001628386
3,25,-2.98300848562,10.9520633156,-0.129686969778
3,26,-2.58851433353,10.6406060563,0.0841171062169
3,27,-2.08330394891,10.3776424039,0.239544908622
3,28,-1.55510113078,10.1577504434,0.375221929454
3,29,-0.967774912205,10.0486142622,0.460111226242
3,30,-0.364460099077,9.92360971881,0.39700722711
3,31,0.276161434678,9.76157899688,-0.0114144624992
3,32,0.792445388545,9.63515748437,-0.499226946865
3,33,1.04451198515,9.58440554186,-1.15574487009
3,34,1.21901376471,9.51027031468,-1.74652865328
3,35,1.24294854649,9.39074400552,-2.20971087054
3,36,1.27288668549,9.21423775184,-2.51786507703
3,37,1.31349745955,8.936433819,-2.55041393106
3,38,1.33587958466,8.61411824339,-2.46289219267
3,39,1.32852022988,8.21917840851,-2.17946580348
3,40,1.23127927742,7.84016238877,-1.92261629619
3,41,0.99921592846,7.48503209173,-1.70563211178
3,42,0.734248152057,7.14103382124,-1.55939871688
3,43,0.423840928238,6.81240834931,-1.51086879323
3,44,0.114053869204,6.54032905851,-1.43117008348
3,45,-0.194943889192,6.34021763462,-1.3118020096
3,46,-0.423482487435,6.17188109412,-1.17250326192
3,47,-0.557569028108,6.04084550369,-1.0098076363
3,48,-0.666034493315,5.98048834784,-0.836319643026
3,49,-0.746743793435,5.9966994961,-0.651139918127
3,50,-0.808847520209,6.05123344202,-0.451421767256
3,51,-0.852345673637,6.14409018558,-0.237165190411
3,52,-0.889672938663,6.24918957594,-0.0141412937138
3,53,-0.921303999009,6.36558987105,0.216975513617
3,54,-0.934452065669,6.47215947748,0.421029606944
3,55,-0.931855359931,6.57035479355,0.602030277231
3,56,-0.899335547596,6.62843203988,0.732106699471
3,57,-0.843304722936,6.65498794568,0.822171212533
3,58,-0.818943345397,6.68454308819,0.859533433762
3,59,-0.817515015772,6.71627009176,0.858731926422
3,60,-0.811270367686,6.75526812661,0.800138647633
3,61,-0.801814840626,6.79911351566,0.703017521212
3,62,-0.772622554277,6.82677398789,0.606744125878
3,63,-0.731333544492,6.8445146724,0.510990307662
3,64,-0.658510884684,6.88496279974,0.470024780612
3,65,-0.567950546738,6.93818386367,0.459877667342
3,66,-0.432520405442,7.03287589548,0.559591597584
3,67,-0.273975516966,7.14893175923,0.715900610849
3,68,-0.0455928316126,7.32956797265,0.908082607528
3,69,0.21565469933,7.54059493885,1.11714600817
3,70,0.435764560155,7.88846690399,1.38558232853
3,71,0.638243990928,8.29498672581,1.67946418591
3,72,0.75339074604,8.86423462841,1.97605561722
3,73,0.834574793952,9.49676567354,2.27370077171
3,74,0.937009804719,10.2087636116,2.41138719168
3,75,1.04691137,10.9486823498,2.49287189411
3,76,1.15562873615,11.7069069727,2.47729132258
3,77,1.26397214467,12.4709124013,2.43105855928
3,78,1.26597724143,13.2610497418,2.37198303009
3,79,1.23798948103,14.0585576215,2.30928518233
3,80,1.09601816656,14.8249872788,2.13984678903
3,81,0.925550963571,15.5836473805,1.94372325935
3,82,0.586301790027,16.1467215257,1.5907422493
3,83,0.210002915629,16.6668621682,1.20332910942
3,84,-0.0867732100461,16.6613019544,0.722483517283
3,85,-0.368402145489,16.5556082441,0.223841267576
3,86,-0.248527943264,15.6495195543,0.494798460507
3,87,-0.0632927651389,14.6131340073,0.891039283635
3,88,0.153800173783,13.4079256065,2.07487558894
3,89,0.375237352814,12.1796959076,3.36611127818
3,90,0.303014592054,11.886302968,3.86526412695
3,91,0.198162949094,11.6967807795,4.27640777123
3,92,0.138124283547,12.2794047948,4.24734459826
3,93,0.0819823986439,12.9291719582,4.18000257162
3,94,0.221707079958,13.8075074328,3.53463952363
3,95,0.373933882519,14.700432374,2.85238151683
3,96,0.275836586863,15.5941166432,1.69803945964
3,97,0.167309120448,16.487832551,0.524027233672
3,98,-0.368503840401,17.0196390526,-2.50794402915
3,99,-0.913036913381,17.5440596479,-5.57783282333
4,0,-0.913036913381,17.5440596479,-5.57783282333
4,1,-2.11515528277,17.2014504927,-7.62522248671
4,2,-3.24269035878,16.626331209,-8.8221965903
4,3,-3.99730896787,14.8886612829,-5.76709289496
4,4,-4.54910646668,13.0117925155,-2.88122566832
4,5,-4.69526174493,10.8565260653,-0.333831379094
4,6,-4.43965667889,8.9678203056,0.748139547791
4,7,-3.78229126855,7.34567523636,0.364687112334
4,8,-3.07355874377,6.32418274467,-0.864061498321
4,9,-2.33914266176,5.60301654176,-2.51545819658
4,10,-1.82040558557,5.40378010127,-4.03757215995
4,11,-1.34480431053,5.30892961326,-5.53382957634
4,12,-1.16013055956,5.79625601045,-5.60709286442
4,13,-1.03702415736,6.36610746293,-5.60508353024
4,14,-1.22175449896,7.34858419184,-5.22671108473
4,15,-1.32749120966,8.22006700657,-4.90757043462
4,16,-1.27524065855,8.86956199292,-4.70689337529
4,17,-1.12294321438,9.35874481903,-4.34673725898
4,18,-0.870598877152,9.68761548491,-3.8271020857
4,19,-0.709367059452,9.99787625486,-3.37650053201
4,20,-0.593691501518,10.2988320769,-2.96041578812
4,21,-0.623611995322,10.7086035789,-2.74588430514
4,22,-0.682651699473,11.140138217,-2.57166347434
4,23,-1.0432686935,11.5262433615,-2.25630748433
4,24,-1.36998443297,11.8337328581,-1.91099631389
4,25,-1.52719389963,11.7481441153,-1.41590924126
4,26,-1.60644791879,11.5602195771,-0.985163958748
4,27,-1.52979104297,11.1676234483,-0.683102256465
4,28,-1.40303091398,10.8008041867,-0.542278746484
4,29,-1.22616753184,10.4597617922,-0.562693428807
4,30,-1.01290091658,10.1622786183,-0.780042673679
4,31,-0.781432684758,9.88657505458,-1.09585919983
4,32,-0.597189915806,9.65070038794,-1.37836479298
4,33,-0.422392239427,9.42279150071,-1.65420819953
4,34,-0.143193861713,9.07898194425,-1.64633299627
4,35,0.103367240064,8.75159401065,-1.6070942782
4,36,0.186741962156,8.50631419128,-1.41103798606
4,37,0.268226837612,8.23095915752,-1.23284612774
4,38,0.345932019793,7.89545369499,-1.09038313705
4,39,0.393337036968,7.54827442699,-0.969115388467
4,40,0.410441889137,7.18942135352,-0.869042881987
4,41,0.369705051498,6.9299894434,-0.801415172322
4,42,0.300047368956,6.72026811494,-0.750009861065
4,43,0.278123563555,6.53088294976,-0.787355003343
4,44,0.265746533583,6.34556501724,-0.842450236329
4,45,0.174149030264,6.20708512907,-0.857440638647
4,46,0.11204680261,6.06262175362,-0.868409117621
4,47,0.197420953278,5.88824094183,-0.859267979871
4,48,0.30788636022,5.75143530313,-0.819173596664
4,49,0.468534279711,5.68978001062,-0.717172722541
4,50,0.590603767544,5.67898436577,-0.58580823326
4,51,0.674094823719,5.71904836858,-0.425080128821
4,52,0.730710081918,5.82724950702,-0.221326862236
4,53,0.773887441128,5.96951921326,0.00393898542363
4,54,0.811454126183,6.16593156965,0.321233088599
4,55,0.847898676406,6.37317245606,0.656932842877
4,56,0.877903952308,6.60457604673,0.940331194969
4,57,0.898702788533,6.85773961541,1.21120389849
4,58,0.873469426368,7.21970307413,1.41944835913
4,59,0.85828761647,7.57386403867,1.62722336023
4,60,0.863208911108,7.91242001481,1.83405944225
4,61,0.859882252513,8.23455243955,2.05955935454
4,62,0.848307640685,8.54026131289,2.30372309708
4,63,0.881015662749,8.81255214757,2.47770426654
4,64,0.935865001757,9.06813396291,2.61659414948
4,65,1.03725035046,9.30200817458,2.6358674482
4,66,1.1479429011,9.53154086552,2.63121743008
4,67,1.25075240174,9.72418590141,2.48863527228
4,68,1.34400899441,9.91879391277,2.34375976574
4,69,1.38950104726,10.1232168015,2.18741751551
4,70,1.44640840271,10.3135162653,2.00783485353
4,71,1.52614636335,10.475568879,1.78177136807
4,72,1.60322247891,10.673333935,1.54344773178
4,73,1.67763674939,10.9068114333,1.29286394466
4,74,1.72285755792,11.1989633124,1.07325734614
4,75,1.75348163546,11.5204523818,0.869139341914
4,76,1.78607757083,11.8223918668,0.837962909022
4,77,1.81906787776,12.1204214348,0.841374790398
4,78,1.89517007006,12.3143114121,1.14291731794
4,79,1.96322562036,12.5043304458,1.46945402118
4,80,1.99104796068,12.6749947611,1.92096160295
4,81,2.01147807523,12.8263890531,2.35433273321
4,82,2.01712373824,12.9392432983,2.75143096045
4,83,2.02441404701,13.0654780539,3.0013162885
4,84,2.03334900154,13.2050933198,3.10398871737
4,85,1.9833142548,13.3838589499,3.07792392301
4,86,1.90379465742,13.582199762,2.98749051704
4,87,1.77396717805,13.6676625737,2.83398916401
4,88,1.63407812229,13.7305497854,2.66787422157
4,89,1.52013974113,13.5174070936,2.45054683676
4,90,1.43936835663,13.2843443168,2.19466883938
4,91,1.52443195541,12.9516811147,1.7460377792
4,92,1.58546208306,12.7247123368,1.26754414838
4,93,1.59842526842,12.7091324069,0.729325376274
4,94,1.4766757741,12.8940608818,0.279282988978
4,95,1.2202136001,13.2794977614,-0.0825830135107
4,96,1.04193578204,13.6174713086,-0.355443793056
4,97,0.902750141951,13.9317131895,-0.583801961131
4,98,0.844258847419,14.0990256588,-0.715996447662
4,99,0.801906421998,14.2369522457,-0.828958197885
5,0,0.801906421998,14.2369522457,-0.828958197885
5,1,0.608284183518,14.0635170087,-1.07935644881
5,2,0.416670267224,13.8799351375,-1.33531811308
5,3,0.323464138035,13.1991681837,-1.86388703134
5,4,0.226564327847,12.516521155,-2.3880543867
5,5,0.0410161736759,11.7887523245,-2.80658423275
5,6,-0.168123601843,11.0807175119,-3.19461176803
5,7,-0.74686544513,10.681848978,-3.10476976777
5,8,-1.33494597975,10.3099217062,-2.98335155814
5,9,-2.03042146473,10.2478189477,-2.49880694068
5,10,-2.69742719261,10.2011057497,-2.0110151983
5,11,-3.10820510665,10.2928985964,-1.49399933164
5,12,-3.49897376049,10.4083733978,-1.00342193108
5,13,-3.74300783956,10.6975158677,-0.706726615176
5,14,-3.96018547109,10.9914864734,-0.464811897436
5,15,-4.012387782,11.3151156271,-0.559406568404
5,16,-4.05011311046,11.6236767405,-0.693226150059
5,17,-4.01183428113,11.8531306418,-1.03297651282
5,18,-3.98601770438,12.0552307906,-1.34654357576
5,19,-4.0169736116,12.1327194003,-1.54083116176
5,20,-4.01161550111,12.1522945549,-1.69839100137
5,21,-3.86100131979,11.9402158891,-1.70903985544
5,22,-3.71153490444,11.6844957864,-1.6653002042
5,23,-3.56613784115,11.2740469526,-1.4287285796
5,24,-3.37905324616,10.8446236416,-1.12985628123
5,25,-3.05995813409,10.355114486,-0.633698515867
5,26,-2.68223042704,9.89399676101,-0.157205606336
5,27,-2.13762533423,9.51368541513,0.263318098138
5,28,-1.57339529817,9.16127479091,0.543717493522
5,29,-0.95870112229,8.88060887954,0.463797236959
5,30,-0.240560703171,8.60845908577,0.147812396751
5,31,0.718954283516,8.35618023306,-0.718989805296
5,32,1.38201576032,8.17977749826,-1.35574137258
5,33,1.41511352864,8.16461151402,-1.50363534101
5,34,1.44431784234,8.09680018478,-1.5683157489
5,35,1.46596427357,7.92679495052,-1.47146395105
5,36,1.4608052745,7.74126727436,-1.31738042525
5,37,1.40799217713,7.52814414596,-1.06155160529
5,38,1.32137003146,7.32293066837,-0.762807789872
5,39,1.17958575438,7.13062241054,-0.394044771351
5,40,1.02818573571,6.9739381554,-0.152708812719
5,41,0.862362104691,6.87068990429,-0.102513443921
5,42,0.678669872089,6.79678397638,-0.111455312568
5,43,0.470301951591,6.76339839955,-0.202062890068
5,44,0.299590042986,6.73662812971,-0.321695161063
5,45,0.176803967701,6.7182773415,-0.478267951053
5,46,0.0323415966353,6.69945213646,-0.57812729885
5,47,-0.13756686078,6.68007000732,-0.611409997114
5,48,-0.292674904718,6.66194064266,-0.561978263773
5,49,-0.43174916739,6.64516843952,-0.422939229527
5,50,-0.538381749893,6.67032932455,-0.262367032566
5,51,-0.612572652229,6.73742329776,-0.0802616728896
5,52,-0.688040564203,6.83614569365,0.133732843292
5,53,-0.764687254305,6.96406355663,0.377163503941
5,54,-0.860435568622,7.11913097959,0.59534749573
5,55,-0.972455636898,7.29732580549,0.792025065899
5,56,-1.07205654456,7.45958455218,0.954815672835
5,57,-1.16189954031,7.60932209377,1.09098080866
5,58,-1.20931799997,7.72373518129,1.19991115106
5,59,-1.22601524384,7.81256849172,1.2891197465
5,60,-1.20146140909,7.87283655014,1.36591349658
5,61,-1.14940685526,7.91406110722,1.43443068309
5,62,-1.05249025095,7.87964462042,1.51028326254
5,63,-0.928077551182,7.79886749384,1.59063172799
5,64,-0.764372202818,7.70927411785,1.68603881645
5,65,-0.578564739619,7.61472160158,1.78991638035
5,66,-0.367395602545,7.62914907215,1.83210141205
5,67,-0.143161360748,7.69971774807,1.84250544231
5,68,0.0873697828139,7.90563819855,1.88578310568
5,69,0.320864174265,8.17525360176,1.94453071403
5,70,0.558772118604,8.55226796865,2.0765610393
5,71,0.79857158561,8.97531046283,2.23999824326
5,72,1.04967221279,9.42644886732,2.32798116194
5,73,1.3051677356,9.88851345917,2.38662074746
5,74,1.5318648099,10.3739262939,2.39018054483
5,75,1.74844351039,10.8675425654,2.37438798421
5,76,1.8652633159,11.4373812626,2.34672942936
5,77,1.95058031246,12.0312901995,2.31532371844
5,78,1.9166707539,12.747706639,2.21099219493
5,79,1.84913319261,13.4986764768,2.08609185249
5,80,1.66161462282,14.2905687127,1.79718990269
5,81,1.4441008009,15.0926915482,1.46728755105
5,82,1.12222094902,15.6890130476,1.00212354549
5,83,0.777431480805,16.2401586439,0.507267957352
5,84,0.556334199067,16.0918902514,0.748555644085
5,85,0.358797333802,15.8104001468,1.13006109746
5,86,0.318405388365,14.8099749234,2.14498696019
5,87,0.303595174063,13.6925137504,3.26302777327
5,88,0.192737958999,12.7723045905,4.01831435834
5,89,0.068783425649,11.8789934324,4.72413445778
5,90,-0.168100898679,11.8553116422,4.84152707947
5,91,-0.41753297756,11.9282553374,4.8935388703
5,92,-0.418848534591,12.6036426125,4.17113765519
5,93,-0.398588741895,13.3314162859,3.3813961787
5,94,-0.435564482588,14.2050738734,2.20983883905
5,95,-0.4761935552,15.0880432002,1.01391027409
5,96,-0.914908767207,15.9947953143,-0.835085757519
5,97,-1.37021090169,16.9025383779,-2.71129293357
5,98,-2.25567573132,17.3333909486,-5.49285459148
5,99,-3.14991939147,17.7545110603,-8.29289287148
6,0,-3.14991939147,17.7545110603,-8.29289287148
6,1,-4.52777783402,17.4800204651,-7.85740426603
6,2,-5.71106989817,16.9386564913,-6.96125972026
6,3,-5.92153007027,15.0629256241,-3.76183547296
6,4,-5.65230100081,12.8412999523,-1.04901164388
6,5,-4.42369344822,9.92788467135,0.690611348736
6,6,-3.2273331344,7.61371329986,1.02804363815
6,7,-2.06322005937,5.89878583784,-0.0367147756405
6,8,-1.32908796386,5.1647828227,-1.9186477465
6,9,-0.809946358115,4.92124203099,-4.20916799589
6,10,-0.568593534967,5.13279577312,-5.54160878681
6,11,-0.382798468338,5.43536842203,-6.68243368603
6,12,-0.536367169569,6.13542645939,-6.09463153941
6,13,-0.681784186487,6.86204728827,-5.54968567859
6,14,-0.786442781839,7.72148207476,-5.21902124676
6,15,-0.795824996102,8.44656783838,-4.93906377011
6,16,-0.614654448187,8.90295555626,-4.76052020382
6,17,-0.435244243486,9.29738450236,-4.44718085497
6,18,-0.257594381999,9.62985467668,-3.99904572357
6,19,-0.31735961187,10.045392948,-3.47784137338
6,20,-0.49583238742,10.5024652679,-2.9201024138
6,21,-0.868490895296,11.0419537447,-2.5058325699
6,22,-1.27998654964,11.5979254527,-2.12025654913
6,23,-1.68700790686,11.9901001997,-1.61218956339
6,24,-1.99869930955,12.264559168,-1.09409046342
6,25,-1.83374093958,11.9504392429,-0.52583079227
6,26,-1.59514845382,11.6022549669,-0.0307354139129
6,27,-1.20928773645,11.1859419889,0.318031378857
6,28,-0.908276967277,10.8982908411,0.459144834682
6,29,-0.69211614629,10.7393015236,0.392604953561
6,30,-0.461554803483,10.5611799144,0.0476600969
6,31,-0.223793199764,10.3734921592,-0.436487247532
6,32,-0.00654373445244,10.0780083562,-0.944674073817
6,33,0.206603303178,9.76096534353,-1.45766879647
6,34,0.220624242558,9.41067104719,-1.61275205878
6,35,0.218799797019,9.04807728572,-1.70511105011
6,36,0.137748426882,8.62398619864,-1.48384868652
6,37,0.0769141589829,8.18405649563,-1.26001740476
6,38,0.0565140955612,7.71244956081,-1.03104828666
6,39,0.0513017602223,7.28226080052,-0.882007595281
6,40,0.061277152966,6.89349021476,-0.812895330614
6,41,0.0715017128804,6.55680117709,-0.759165580446
6,42,0.0818508563801,6.24615291346,-0.713127087527
6,43,0.163864318848,5.96261306224,-0.662108288664
6,44,0.260210645109,5.68449489351,-0.610093428612
6,45,0.370523136597,5.58422348297,-0.581165879523
6,46,0.476763197867,5.50596587324,-0.572621988629
6,47,0.562641108052,5.53777726759,-0.665996388715
6,48,0.636694153426,5.61569367019,-0.728807469119
6,49,0.687097469177,5.78582008927,-0.730491910159
6,50,0.729799075696,5.94756126747,-0.623027959205
6,51,0.764798972982,6.10091720481,-0.406415616256
6,52,0.860429896363,6.17941806742,-0.0886526252216
6,53,0.986376332792,6.22049139268,0.279685689855
6,54,1.05859872726,6.30624899116,0.663794533912
6,55,1.12007631333,6.40094344429,1.05105748376
6,56,1.09291899845,6.62562789304,1.30662688365
6,57,1.05351998869,6.86487403127,1.52968486802
6,58,0.952912504474,7.17692861686,1.59018577479
6,59,0.879248857325,7.48587187681,1.62039717859
6,60,0.859472884301,7.78859248546,1.59002957647
6,61,0.846640279355,8.0910636303,1.54832491715
6,62,0.840751042485,8.39328531133,1.49528320066
6,63,0.865862086833,8.68028858402,1.49097160417
6,64,0.906473271789,8.95968265253,1.5110250677
6,65,1.00461784423,9.22218554331,1.61885720055
6,66,1.11426909418,9.48131019853,1.74424506728
6,67,1.27525278785,9.68297377988,1.92880699312
6,68,1.43503774197,9.89417256436,2.08705289251
6,69,1.58882899829,10.1530473645,2.11371865973
6,70,1.72311465273,10.4498472595,2.06965727932
6,71,1.8183891034,10.8224973444,1.88414160365
6,72,1.88273354859,11.2138207143,1.68129419504
6,73,1.91614798831,11.6238173694,1.4611150535
6,74,1.94527257531,11.986456915,1.40025246468
6,75,1.97225223594,12.3254179058,1.41904815222
6,76,2.02132921563,12.5714169096,1.73064990295
6,77,2.07482565914,12.7988235161,2.10081286632
6,78,2.13614042749,12.9183623558,2.65636781458
6,79,2.19687716742,13.0264269849,3.1631851011
6,80,2.25472376523,13.077120561,3.42631407894
6,81,2.25096707953,13.1166777462,3.52616356135
6,82,2.12400382682,13.1339621496,3.29945405292
6,83,1.91938701512,13.1310085711,3.02350129322
6,84,1.63711664442,13.1078170105,2.69830528223
6,85,1.37180700409,13.0544772804,2.49231776279
6,86,1.11497772896,12.9860634655,2.34593448913
6,87,1.0645119466,12.7485198768,2.22087374964
6,88,1.0553188628,12.4771503335,2.10007751699
6,89,1.27864665136,12.1117050683,1.65363866956
6,90,1.47965220264,11.8098452109,1.17719363366
6,91,1.56904656746,11.8259123923,0.550717655392
6,92,1.5563104387,12.0408018385,0.00397440956926
6,93,1.33931332281,12.6533358147,-0.383303371371
6,94,1.23498688692,13.3270563118,-0.62564918231
6,95,1.24333113105,14.0619633298,-0.723063023247
6,96,1.33141448189,14.6715178976,-0.708829725084
6,97,1.45936738608,15.2183962404,-0.638772857371
6,98,1.48344309882,15.405713005,-0.730138740313
6,99,1.48674337326,15.5211174539,-0.853789173386
7,0,1.48674337326,15.5211174539,-0.853789173386
7,1,1.33382180516,14.9301956961,-1.46446059449
7,2,1.17981369904,14.2937385931,-2.07991254691
7,3,1.00842098474,12.9287159655,-2.77185300023
7,4,0.801949404524,11.5838838898,-3.36748080255
7,5,0.33238632994,10.3904809532,-3.24076372236
7,6,-0.179260480079,9.32305927631,-2.97550137804
7,7,-0.887298055456,8.84355014538,-2.06369446784
7,8,-1.50999613326,8.47001223368,-1.20099724726
7,9,-1.85534084394,8.44088078446,-0.497906517946
7,10,-2.12827276883,8.53541537481,0.0447137943663
7,11,-2.22741400785,8.9267484601,0.202205105866
7,12,-2.2827552611,9.39532097841,0.157137833485
7,13,-2.25779654044,10.0054991239,-0.259286842678
7,14,-2.23842415016,10.6160776047,-0.716665980316
7,15,-2.22703223185,11.2272279931,-1.23255149149
7,16,-2.18663162387,11.7403054693,-1.61254352431
7,17,-2.11359624001,12.1430509194,-1.83965539398
7,18,-1.93542598243,12.4234697483,-1.86305505659
7,19,-1.66380250377,12.5951538029,-1.70537720181
7,20,-1.39092149176,12.6511009338,-1.44978079669
7,21,-1.11716020643,12.626032218,-1.12564140633
7,22,-0.832941284362,12.52938231,-0.790400409975
7,23,-0.543018196802,12.3936881154,-0.449103992162
7,24,-0.219742128321,12.1918243848,-0.029218805291
7,25,0.117431015544,11.9623900142,0.423411702021
7,26,0.329888561814,11.6580639169,0.732690334095
7,27,0.503972078055,11.3306942114,0.997860696864
7,28,0.658594881151,10.9759965657,0.827732009396
7,29,0.80904753143,10.6154429328,0.564324954018
7,30,0.901591038473,10.2102278633,0.0379059226528
7,31,0.986413326418,9.79905793546,-0.523581372178
7,32,0.955809644857,9.34923817113,-0.870328189883
7,33,0.917991840202,8.89700279202,-1.20365372777
7,34,0.791170052816,8.42772078909,-1.16168152421
7,35,0.655460066192,7.96905754876,-1.11744705428
7,36,0.377538891773,7.6802945099,-1.0370163224
7,37,0.102101523377,7.40420718614,-0.961376027056
7,38,-0.154707299844,7.22318772569,-0.921664005742
7,39,-0.395866033403,7.05460293182,-0.898653992798
7,40,-0.563991015207,6.94404658198,-0.953586685576
7,41,-0.700366004434,6.83387448074,-1.00285452243
7,42,-0.733553517784,6.72495118741,-1.03371157754
7,43,-0.729719204049,6.60837936024,-1.04874717005
7,44,-0.637032505309,6.47345105188,-1.02581125232
7,45,-0.572322728782,6.38481252818,-1.02935251351
7,46,-0.558903976312,6.38103860969,-1.08143526938
7,47,-0.537579742647,6.3682473376,-1.07917062206
7,48,-0.504961964414,6.3425741318,-0.999266827341
7,49,-0.456890300487,6.30013849261,-0.84353109251
7,50,-0.391433015152,6.23884511586,-0.602484425055
7,51,-0.360882531196,6.17945836762,-0.380253455056
7,52,-0.361360315132,6.12176640029,-0.174747549461
7,53,-0.379776689726,6.07884546542,0.0024125171902
7,54,-0.410750077782,6.04626425328,0.159730496582
7,55,-0.411558105254,6.03619710804,0.313963945871
7,56,-0.39591229968,6.03841036292,0.466514924195
7,57,-0.383391659419,6.09099917615,0.637542829379
7,58,-0.372173171372,6.16457780537,0.816269454089
7,59,-0.322033940575,6.26103048759,0.998246213598
7,60,-0.259919096625,6.36452133998,1.18122301458
7,61,-0.136624874063,6.48653046994,1.33700297442
7,62,-0.000220784655462,6.61250780225,1.48695503973
7,63,0.158346966027,6.84684487917,1.5615590056
7,64,0.319869871547,7.09562992205,1.6261165582
7,65,0.45398601901,7.41322081508,1.64321356783
7,66,0.586389244094,7.73511207375,1.65734429352
7,67,0.630227218519,8.13171594666,1.68122819234
7,68,0.669311515072,8.53644260383,1.70798337563
7,69,0.632336965678,9.07113380936,1.78067911044
7,70,0.603064339619,9.61143844408,1.84814756433
7,71,0.631556138571,10.1938437978,1.87641141144
7,72,0.670051517031,10.7710907432,1.90339778522
7,73,0.755230266526,11.3242651169,1.92442261673
7,74,0.839885408251,11.8798997992,1.9272371382
7,75,0.922838824726,12.4435304839,1.87086815197
7,76,0.965053691908,13.0199226991,1.77361987668
7,77,0.909496040788,13.6269425872,1.57826130763
7,78,0.839550405659,14.1967351988,1.29873578297
7,79,0.743226799846,14.6982778032,0.864904173015
7,80,0.645148851208,15.0627308756,0.508544761551
7,81,0.544564698534,15.2313417592,0.262859919356
7,82,0.507672922247,15.032878262,0.512992453348
7,83,0.542435069395,14.4214560863,1.32091953555
7,84,0.605338025633,13.6629064168,2.26934706492
7,85,0.693255034395,12.7735767527,3.34266388065
7,86,0.802339600302,12.1248117744,4.04515959063
7,87,0.92624145621,11.644442076,4.48808052656
7,88,0.972254783713,11.4764471928,4.62176644277
7,89,0.975783459357,11.4788385724,4.58677871186
7,90,0.824806134075,11.8336532416,4.47558136124
7,91,0.609451308407,12.3353109483,4.33263000242
7,92,0.526459947853,13.0291431366,3.48640496336
7,93,0.484195807333,13.7821059346,2.4237880227
7,94,0.265174729268,14.5770039114,0.933016480869
7,95,0.00827716458734,15.3808879978,-0.649502475491
7,96,-0.594923037558,16.1287809756,-2.74449638509
7,97,-1.2442969247,16.8692084723,-4.90782028845
7,98,-2.11177656264,16.9813217334,-6.21615799477
7,99,-2.99288781,17.0541653549,-7.47105906379
8,0,-2.99288781,17.0541653549,-7.47105906379
8,1,-4.06349850939,16.1156022126,-5.56877855302
8,2,-5.01516291572,15.0328042401,-3.56898655886
8,3,-5.3720958567,13.2288321161,-1.0816371477
8,4,-5.42220281457,11.5478224245,0.509885146687
8,5,-4.85865780623,10.1127375977,0.309753207549
8,6,-3.89820720945,8.96593444201,-0.713886643549
8,7,-2.54085102426,8.10741295743,-2.56103440661
8,8,-1.73124803501,7.64411387358,-3.92084340438
8,9,-1.19552164375,7.37842599009,-5.03698301952
8,10,-1.11535260286,7.21653593562,-4.99581289529
8,11,-1.12629503205,7.07540544695,-4.72318082318
8,12,-1.09772163071,7.33102428936,-4.03653161745
8,13,-1.07490188239,7.64029386111,-3.4529157681
8,14,-1.08085039915,8.21781707951,-3.38446670064
8,15,-1.00434102123,8.71673929579,-3.34081954572
8,16,-0.76291585396,9.05845950783,-3.34677621588
8,17,-0.430041500371,9.57359498703,-3.27671816138
8,18,-0.00571796046163,10.2621457334,-3.13064538219
8,19,0.102347116286,10.7706178181,-3.1013843497
8,20,0.0522829614536,11.1890505719,-3.13052919055
8,21,-0.19871603373,11.5064322841,-2.84279493976
8,22,-0.489901996983,11.803603788,-2.49168487065
8,23,-0.728611134826,11.713519779,-2.02767072645
8,24,-0.899711843891,11.5728462906,-1.57146929121
8,25,-0.732770409064,11.1792254052,-1.15433140081
8,26,-0.556183783559,10.8645556526,-0.81918742578
8,27,-0.360306776697,10.7077881656,-0.648031281488
8,28,-0.177163241755,10.5804094126,-0.721781608542
8,29,-0.006753178732,10.4824193936,-1.04043840694
8,30,0.0986369800969,10.31193371,-1.47234585424
8,31,0.171517186829,10.105200194,-1.960878626
8,32,0.126249637973,9.75934685949,-2.12292742279
8,33,0.0573525380005,9.38566956127,-2.21967942459
8,34,-0.00616494307175,8.88635424174,-1.87007417693
8,35,-0.0674693748529,8.38853192086,-1.49200423582
8,36,-0.117708560178,7.89817459324,-0.971610827435
8,37,-0.174505341428,7.44817056561,-0.498843690139
8,38,-0.244417314528,7.07887313795,-0.121329095019
8,39,-0.261719201069,6.77709014328,0.134425126601
8,40,-0.226411001053,6.54282158159,0.268418974722
8,41,-0.171555511478,6.40298537703,0.205401843513
8,42,-0.106926377124,6.31036535105,0.0438792226386
8,43,0.00115566665959,6.22256362223,-0.131324843967
8,44,0.117928292329,6.13572555284,-0.309265199718
8,45,0.381912952664,6.07436702209,-0.428175926565
8,46,0.636155459973,6.04371475901,-0.538723872934
8,47,0.841687202154,6.16659383429,-0.607457916908
8,48,1.03828765252,6.2700903484,-0.676334440465
8,49,1.21702551926,6.33482174015,-0.745495923186
8,50,1.3765668003,6.35308445032,-0.734591275252
8,51,1.51691149564,6.3248784789,-0.643620496665
8,52,1.58803876674,6.27742717938,-0.394441252207
8,53,1.62455732571,6.22035321581,-0.0661577748135
8,54,1.6216950299,6.19766747064,0.277448845202
8,55,1.61095656313,6.18185936915,0.624120093742
8,56,1.5775227661,6.24146438231,1.00261254734
8,57,1.53235311293,6.33551586186,1.36594425247
8,58,1.42850417903,6.6017996733,1.65347221523
8,59,1.3436928586,6.90444351609,1.87851711381
8,60,1.29695676512,7.27980742156,1.97859588403
8,61,1.27523696036,7.67283139077,2.01731349146
8,62,1.27853344432,8.08351542371,1.99466993609
8,63,1.30268881531,8.56574931629,2.25337634778
8,64,1.33727362981,9.08375813869,2.652757743
8,65,1.55354114982,9.6933553293,3.32833895462
8,66,1.80614521093,10.3212701936,4.05916012952
8,67,2.06302898159,10.8486084278,3.84459784239
8,68,2.27364426203,11.3372390381,3.54894592531
8,69,2.25291709138,11.6323315288,2.84784585854
8,70,2.15098094826,11.8430199549,2.25214827992
8,71,1.88662686021,11.8849002516,1.86725567759
8,72,1.66686584202,11.8213936142,1.56623154582
8,73,1.49169789368,11.6525000426,1.34907588461
8,74,1.40389471527,11.5844923846,1.15179649233
8,75,1.35977392181,11.5669276832,0.964455234516
8,76,1.36197193005,11.5977785358,0.937399269575
8,77,1.37343369862,11.6383124992,0.942400363208
8,78,1.47583667172,11.7186532874,1.22906002368
8,79,1.5840122667,11.8098869539,1.53384394838
8,80,1.72105097112,11.9555850119,1.92924919424
8,81,1.85639195331,12.0939535911,2.26506050638
8,82,1.98833749103,12.2176632131,2.48168395109
8,83,2.06243575217,12.3392017306,2.61841100899
8,84,2.07868673674,12.4585691438,2.67524168009
8,85,2.00023269473,12.5357827224,2.71929234947
8,86,1.87442613942,12.5919193839,2.75695301798
8,87,1.72544400501,12.5230123393,2.88024956058
8,88,1.57182675476,12.4290965534,3.02067327799
8,89,1.55732149226,12.1642928392,2.92768752872
8,90,1.56674403337,11.9121385391,2.74932443703
8,91,1.69580559261,11.7232313096,2.14407463326
8,92,1.7711588208,11.7069804368,1.44067598857
8,93,1.73909538688,12.0360422776,0.540979662015
8,94,1.63749787078,12.4924576436,-0.291080072311
8,95,1.4663662725,13.0762265346,-1.05550321441
8,96,1.31336058229,13.5794871852,-1.55465030472
8,97,1.16941784612,14.0424937156,-1.92115936912
8,98,1.09152781572,14.202303497,-2.14230882251
8,99,1.02684832647,14.3014739285,-2.3343863537
9,0,1.02684832647,14.3014739285,-2.3343863537
9,1,1.08481801071,13.815334548,-2.73384661116
9,2,1.14018650694,13.3232870188,-3.13403492125
9,3,1.06809679043,12.5417402051,-3.56989780989
9,4,0.976492236144,11.7743092064,-3.97758570861
9,5,0.416531575014,11.3456577704,-3.7090738491
9,6,-0.153791677482,10.9362156494,-3.41811220871
9,7,-0.886462194726,10.8277194617,-2.77543733462
9,8,-1.60407144961,10.7384159769,-2.14303779662
9,9,-2.1484761874,10.869828574,-1.62880462365
9,10,-2.67108736555,11.0146822473,-1.14651142825
9,11,-2.99755650693,11.280505606,-0.951678031044
9,12,-3.29797589226,11.5534241081,-0.784314616371
9,13,-3.40736373316,11.8783736617,-0.818397740261
9,14,-3.50229079386,12.2017446252,-0.859377652797
9,15,-3.50838734761,12.515418535,-0.942723552734
9,16,-3.49379797239,12.8065191136,-1.02612191359
9,17,-3.37060747002,12.9791097037,-1.10979569428
9,18,-3.25884658414,13.1244982635,-1.17486894482
9,19,-3.19915395116,13.1459664638,-1.1552064469
9,20,-3.10068372013,13.0705542941,-1.12438274471
9,21,-2.84710309688,12.6076206446,-1.04891422542
9,22,-2.563567652,12.0818130879,-0.974736680689
9,23,-2.17382874862,11.3330889513,-0.905136227568
9,24,-1.76553726306,10.6204123254,-0.792334710282
9,25,-1.29849593394,10.0218861502,-0.542729823139
9,26,-0.827714684018,9.4774380244,-0.346426640654
9,27,-0.346289044137,9.08690434693,-0.301828309885
9,28,0.104062728305,8.75144564463,-0.351902861221
9,29,0.474510270188,8.55760830708,-0.645421966543
9,30,0.787215739472,8.40394574386,-0.934435716095
9,31,0.965189706024,8.34402432073,-1.21293696885
9,32,1.10823234271,8.30474298599,-1.45867937097
9,33,1.17704590342,8.30932183909,-1.6348092155
9,34,1.20141652056,8.31164029971,-1.72764778709
9,35,1.13951554136,8.30957093966,-1.65880329944
9,36,1.054402731,8.28628692447,-1.47390877513
9,37,0.928024443048,8.22528796684,-1.08270307454
9,38,0.780736514228,8.12692697114,-0.706587180369
9,39,0.599332855571,7.96760686071,-0.355091496673
9,40,0.405217951148,7.80180948694,-0.0289862185366
9,41,0.192036178077,7.62629621816,0.25903345126
9,42,-0.00118529962032,7.48041616392,0.443488611643
9,43,-0.166842559897,7.37545816784,0.484926116167
9,44,-0.29347056249,7.28382507203,0.440148955025
9,45,-0.370424964395,7.2091509402,0.28564403758
9,46,-0.431937097062,7.13169374187,0.154033378503
9,47,-0.475321348449,7.05096946548,0.0492985879457
9,48,-0.533774179095,6.97061945757,0.0278731053186
9,49,-0.608551303939,6.89067490717,0.0966993729497
9,50,-0.723848191557,6.78189924259,0.132011583095
9,51,-0.879664841949,6.64429246382,0.133809735756
9,52,-0.994019419156,6.50532023038,0.158474277134
9,53,-1.07010131343,6.36508757722,0.204246254253
9,54,-1.11268119534,6.27174767116,0.271056472229
9,55,-1.126722326,6.21835343853,0.355788154639
9,56,-1.11497668529,6.2343885495,0.3851299664
9,57,-1.08297000993,6.30497528756,0.370951165507
9,58,-1.02074788838,6.39462238365,0.380140036283
9,59,-0.936645616145,6.49807180795,0.406250324476
9,60,-0.82108661204,6.58157423292,0.513907244592
9,61,-0.684556453358,6.65177865834,0.67592858599
9,62,-0.551085119904,6.71630970517,0.854042536614
9,63,-0.4194885503,6.77736351997,1.04201969934
9,64,-0.267622257813,6.88011099958,1.18398400907
9,65,-0.104354246204,7.00631116567,1.30006608899
9,66,0.0920190515979,7.16699073094,1.43531462403
9,67,0.305446587741,7.34543241094,1.58043678748
9,68,0.519310194329,7.6117843015,1.74159562353
9,69,0.733379010538,7.91950570291,1.91030112905
9,70,0.889107013707,8.38926369801,2.10597726857
9,71,1.01983181129,8.92846594754,2.31321225123
9,72,1.10489237799,9.56491767737,2.41989446503
9,73,1.17219463269,10.2391886495,2.48747282428
9,74,1.24964070365,10.877166161,2.44095448182
9,75,1.33065081816,11.502391916,2.35434810903
9,76,1.35152508517,12.15602972,2.24174333869
9,77,1.35340908454,12.8186397501,2.12092854808
9,78,1.29364627458,13.5042875804,1.8669535198
9,79,1.21649590301,14.1964332517,1.57542047577
9,80,1.03763043201,14.777826319,1.21644012911
9,81,0.83333618617,15.3315312351,0.840597956792
9,82,0.535051401635,15.6131111428,0.552033048482
9,83,0.216134547631,15.8349562926,0.282626563979
9,84,0.112735436039,15.3324219519,0.562681557057
9,85,0.0503873230014,14.6919105655,0.947395879199
9,86,0.103089011283,13.5804334972,1.74040640822
9,87,0.174519736988,12.3922875969,2.59988376161
9,88,0.131833918057,11.6701488984,3.23635549849
9,89,0.0735867521296,11.0115566365,3.84241737857
9,90,-0.0937107229103,11.1990937293,4.05095492573
9,91,-0.273124898963,11.4806451948,4.21532310258
9,92,-0.387126216875,12.3504545891,3.98771377035
9,93,-0.495439460167,13.2714168468,3.72601943733
9,94,-0.409620588485,14.1687334941,2.7689066679
9,95,-0.31141030521,15.0645408471,1.76740548763
9,96,-0.493551475162,15.9076644506,0.63907328025
9,97,-0.687373955666,16.7485928978,-0.494543553256
9,98,-1.06893225016,17.0699675234,-2.58890834205
9,99,-1.45432188781,17.3807390098,-4.70288023197
10,0,-1.45432188781,17.3807390098,-4.70288023197
10,1,-2.36994596822,16.915664456,-5.49503996097
10,2,-3.24525231226,16.3124657624,-5.89445528187
10,3,-3.85561353161,14.8015941504,-3.71297877818
10,4,-4.28356674007,13.2070237316,-1.6887126936
10,5,-4.20338334679,11.3792923505,-0.102389919401
10,6,-3.87986151378,9.77410889745,0.632130833627
10,7,-3.1855382488,8.50804609643,0.0686675543961
10,8,-2.53807598628,7.7678382514,-1.26746532171
10,9,-1.93245390453,7.49714375993,-3.29348176646
10,10,-1.45395390994,7.35285176945,-4.76449963476
10,11,-1.04083098875,7.27356677948,-5.95008966376
10,12,-0.984076489626,7.32030832014,-5.699585133
10,13,-1.02065657724,7.40005680931,-5.0729605985
10,14,-0.93151541432,7.75697325993,-4.4688113354
10,15,-0.822295883643,8.13636283464,-3.90052514272
10,16,-0.549486210739,8.51320521038,-3.89937818967
10,17,-0.267068200914,8.86794376868,-3.90450275071
10,18,0.0566656576699,9.12763591204,-3.93659482234
10,19,0.313270107115,9.41913404267,-3.9125203772
10,20,0.42771816074,9.77798602872,-3.76950507305
10,21,0.424842245177,10.1800283517,-3.62703212412
10,22,0.280199866847,10.6342589985,-3.48521452108
10,23,0.0130951331839,11.0129085179,-3.18715394024
10,24,-0.340918368779,11.3379198179,-2.77821124613
10,25,-0.639560949335,11.3848131675,-2.24082703056
10,26,-0.91634658723,11.3219231156,-1.6527422144
10,27,-0.968430488489,11.0286772964,-1.27917034089
10,28,-0.980567414345,10.6944793407,-0.94373410162
10,29,-0.915978169475,10.5125230401,-0.873258964794
10,30,-0.84215134603,10.3429852132,-0.832962157237
10,31,-0.707521599472,10.2477915915,-0.989148250057
10,32,-0.55647115911,10.1361337719,-1.16422454842
10,33,-0.354895507039,9.9738168815,-1.39742455615
10,34,-0.183404940142,9.76583819253,-1.56790171151
10,35,-0.0615547637837,9.48251753585,-1.63488616048
10,36,0.00140377288454,9.18643305158,-1.58259623779
10,37,0.00765184170251,8.87805747408,-1.41544951277
10,38,-0.00935229326588,8.55837525012,-1.16471595526
10,39,-0.0393503068208,8.23237460608,-0.867272109012
10,40,-0.0524707077403,7.92933105699,-0.597485585121
10,41,-0.0606513195959,7.63300665764,-0.335793887285
10,42,0.0264708019519,7.36899879641,-0.255951298
10,43,0.123782285086,7.11055596005,-0.201558113878
10,44,0.227774603059,6.90818045383,-0.3130880668
10,45,0.320463652217,6.71467486197,-0.419449244081
10,46,0.357892276059,6.56453329589,-0.500540851563
10,47,0.400132758508,6.41984424462,-0.559047531913
10,48,0.453500663982,6.28776413383,-0.565326568271
10,49,0.551150272103,6.1710623524,-0.555296088088
10,50,0.706558622807,6.07441926143,-0.523992325463
10,51,0.84113863698,6.03890503407,-0.417103515021
10,52,0.959750259813,6.0502562688,-0.25226616792
10,53,1.00995232765,6.11196429085,-0.0069843619362
10,54,1.03057188521,6.19544822091,0.273084237079
10,55,1.11100102333,6.28124078679,0.57830490444
10,56,1.2036639393,6.36750557362,0.888670313053
10,57,1.30401554895,6.43280555902,1.27466453059
10,58,1.39908666257,6.50382338144,1.65992138621
10,59,1.44057044722,6.63762507051,2.00962754509
10,60,1.47424817194,6.79771244051,2.30310224318
10,61,1.48125519193,7.04760922034,2.40445278351
10,62,1.49414598959,7.30815304287,2.43241989321
10,63,1.51756565256,7.58774946809,2.32906928494
10,64,1.55624177778,7.90205026012,2.21530446522
10,65,1.61076115227,8.2523902023,2.09072488745
10,66,1.73887161761,8.63924446949,2.31300947627
10,67,1.91158274406,9.04822863064,2.74551477212
10,68,2.18092053561,9.44375034832,3.1585050788
10,69,2.48166199332,9.83489677187,3.565153014
10,70,2.64281964529,10.0214446963,3.23493002689
10,71,2.78192008263,10.1799569293,2.80751186214
10,72,2.70064424014,10.2387989943,2.21751313568
10,73,2.62094734278,10.264036106,1.6931523952
10,74,2.55013201175,10.1002453557,1.5380053258
10,75,2.44305671699,9.97753553151,1.37399628429
10,76,2.24412284747,9.95889738652,1.18753691342
10,77,2.02601869886,10.0447561949,0.964703812269
10,78,1.78090188424,10.2778607102,0.690616818461
10,79,1.60032438025,10.5577109732,0.588486984686
10,80,1.47315871954,10.8762473723,0.628666524733
10,81,1.45574611481,11.2171098766,0.881087766681
10,82,1.49016134206,11.568515264,1.23373425675
10,83,1.59317591889,11.9567802099,1.67960928263
10,84,1.71214383283,12.3536171461,2.14716536336
10,85,1.91537845014,12.6871170794,2.53076145448
10,86,2.11811477611,13.0146344006,2.88730814896
10,87,2.25281100634,13.3154174203,2.9742103271
10,88,2.35758499541,13.5906429805,2.97389803597
10,89,2.34811042734,13.7682855133,2.64058504399
10,90,2.27832750595,13.8934579271,2.17838697599
10,91,2.09127834198,13.9166051096,1.46557903797
10,92,1.93643914263,13.9268611705,0.67095210624
10,93,1.81767510367,13.9226791754,-0.215312098443
10,94,1.8243627451,13.9852400029,-0.721955994737
10,95,1.91337805179,14.0916008077,-0.979474063651
10,96,1.99203774709,14.2804227674,-0.755067732106
10,97,2.06698004344,14.4988461673,-0.357662897832
10,98,2.08037425418,14.7489643564,-0.0192794650929
10,99,2.08440245188,15.0039056655,0.310122450022
11,0,2.08440245188,15.0039056655,0.310122450022
11,1,2.16250346512,14.9541129797,-0.0242870473396
11,2,2.20348416799,14.8853415417,-0.359341504294
11,3,1.6505399049,14.5129100686,-0.704715314746
11,4,1.06779701767,14.1129658191,-1.02846975282
11,5,0.261564449413,13.5066757469,-1.1900788981
11,6,-0.540016548178,12.9229020634,-1.30149868217
11,7,-1.31989021601,12.4442048599,-1.17870144732
11,8,-2.08920114612,12.0089602305,-1.04965359081
11,9,-2.82418317861,11.7149364666,-0.900291213898
11,10,-3.45598160582,11.4607492513,-0.793199403686
11,11,-3.84013938032,11.3021697527,-0.787556953544
11,12,-4.15057417003,11.1939519722,-0.778488402205
11,13,-4.32585015429,11.1780640082,-0.763138665337
11,14,-4.40189310167,11.1334552102,-0.8089688808
11,15,-4.33617456779,11.0478166492,-0.942199028165
11,16,-4.26114770891,10.9263914421,-1.0618201196
11,17,-4.17564898438,10.7647062582,-1.16613102312
11,18,-4.08499546939,10.5443788523,-1.19747937615
11,19,-3.98975991842,10.2719250267,-1.16397212873
11,20,-3.85777239459,9.89811687215,-1.0160775058
11,21,-3.70005848973,9.45336068725,-0.788111720009
11,22,-3.48073922005,8.94234052809,-0.547903099567
11,23,-3.22781702409,8.39517638296,-0.301016569312
11,24,-2.99636851497,7.9934002176,-0.306346562777
11,25,-2.77386737537,7.65220237713,-0.416766774459
11,26,-2.33450230106,7.79859854286,-0.328859907381
11,27,-1.82840986222,8.09502363358,-0.179929323762
11,28,-0.956844862673,8.19359006156,-0.0933801800089
11,29,-0.00696431440069,8.24975820466,-0.0201984876561
11,30,0.642760676799,8.31036490145,-0.307145705018
11,31,1.25246492706,8.37156340539,-0.642110110342
11,32,1.42550200885,8.54521033296,-1.09874171594
11,33,1.57124739261,8.72588528702,-1.56297752155
11,34,1.53628120788,8.87047854902,-1.7992991297
11,35,1.50051608929,9.00590753833,-2.02073709358
11,36,1.45196802875,8.99470816446,-2.004036749
11,37,1.39794486482,8.97508072163,-1.95648909702
11,38,1.30285842545,8.89224276165,-1.67758663952
11,39,1.19668702797,8.79925107821,-1.38576957659
11,40,1.038785826,8.65887535197,-1.03368435503
11,41,0.884941373828,8.49289891095,-0.714852741404
11,42,0.744281358465,8.24372014691,-0.504095353573
11,43,0.58318392631,8.0012305978,-0.296686479
11,44,0.373036693849,7.77479516453,-0.097314036245
11,45,0.178984928945,7.56530667487,0.0974931969858
11,46,0.0144415212319,7.3868875818,0.283930879422
11,47,-0.139310624341,7.24581306164,0.435162442369
11,48,-0.277646681142,7.15808793136,0.536099548904
11,49,-0.409623406544,7.09891397396,0.58945841201
11,50,-0.534445884123,7.07186008606,0.589291751259
11,51,-0.631383408118,7.04703029326,0.586710458281
11,52,-0.703534306706,7.02417747388,0.581982825547
11,53,-0.757104395339,6.98295846103,0.528926428104
11,54,-0.797667917003,6.92888311275,0.442039895367
11,55,-0.816929133184,6.84738190811,0.404977207011
11,56,-0.824570910012,6.75092114544,0.395091161044
11,57,-0.840545342949,6.69046332105,0.450948964462
11,58,-0.859991715933,6.64500672095,0.534200038456
11,59,-0.866378846115,6.62583795907,0.593534311802
11,60,-0.868747747743,6.61475776279,0.645509569564
11,61,-0.843284316655,6.64266996553,0.725821769771
11,62,-0.81185681427,6.67893768236,0.812206171929
11,63,-0.727950242596,6.75860161685,1.01822909491
11,64,-0.637046461683,6.84405171371,1.24020382066
11,65,-0.493790100589,6.94799135192,1.52848073926
11,66,-0.347261703233,7.05308658647,1.82090154492
11,67,-0.159380985405,7.25023483403,2.04893208642
11,68,0.0267501468904,7.45544802082,2.27490715961
11,69,0.184887910666,7.78970023546,2.46799473976
11,70,0.333738957723,8.13923699681,2.65674145016
11,71,0.412939629391,8.60340785854,2.81293163736
11,72,0.492543207561,9.08756055783,2.94880650812
11,73,0.574027016076,9.6649618324,2.98987656878
11,74,0.658177394518,10.2468040128,3.01352399405
11,75,0.750994125224,10.8430791371,2.98054785433
11,76,0.827715985639,11.4529020387,2.93570637851
11,77,0.865810157359,12.0952396058,2.86238809608
11,78,0.916616043389,12.7366777644,2.76125860983
11,79,0.990726738985,13.3764670074,2.60914191656
11,80,1.01963752804,14.0278556594,2.39668650897
11,81,0.983977022034,14.6958148956,2.09803293804
11,82,0.965138638197,15.2055239859,1.67978725587
11,83,0.965225141798,15.5372016618,1.12700044855
11,84,0.998519667546,15.5165405301,0.850138494157
11,85,1.0613324352,15.1826893472,0.818543075691
11,86,1.15429188783,14.44726068,1.23280929187
11,87,1.26835401993,13.4307277739,1.9591786523
11,88,1.22087132424,12.5281473305,2.61123549101
11,89,1.08527326793,11.6877227758,3.22275822696
11,90,0.803596206618,11.3839639843,3.46432996161
11,91,0.46105289322,11.3038159273,3.55175544571
11,92,0.19178820874,11.8621463153,3.29806643752
11,93,-0.0549292053023,12.6169316095,2.93941912399
11,94,-0.187607773246,13.5933213533,1.99607973242
11,95,-0.295849445597,14.6171977648,0.927449181272
11,96,-0.541382616588,15.6557287065,-0.196897020732
11,97,-0.80522132073,16.6962135855,-1.32867197618
11,98,-1.18045994819,17.4196231369,-3.39854902754
11,99,-1.56266107086,18.1232154803,-5.5270574599
12,0,-1.56266107086,18.1232154803,-5.5270574599
12,1,-2.51004393613,17.8448794327,-6.48760206399
12,2,-3.4254946862,17.29753509,-6.88704074749
12,3,-4.18128486024,15.4051492715,-4.48094982799
12,4,-4.66047729421,13.3668216236,-2.28181568446
12,5,-4.58647424808,11.0366103167,-0.496595092856
12,6,-4.06575635534,9.0401509036,0.1593321897
12,7,-3.09832361602,7.37744338419,-0.314033836788
12,8,-2.18837670321,6.37024398318,-1.37496268851
12,9,-1.30717270365,5.69079864138,-2.72967295286
12,10,-0.891661573048,5.61835363663,-3.88271322862
12,11,-0.569289016244,5.6673086993,-4.99541950666
12,12,-0.443919885586,5.94397327308,-4.86844962136
12,13,-0.341456377458,6.31770326307,-4.69195806832
12,14,-0.353520981975,7.17676033414,-4.26785817663
12,15,-0.38067416032,8.0143963614,-3.96277023074
12,16,-0.438004486323,8.80919030107,-3.89570617646
12,17,-0.408666453761,9.45692485257,-3.73363157464
12,18,-0.292660062634,9.9576000159,-3.47654642528
12,19,-0.11125244783,10.3301932335,-3.27292689865
12,20,0.102855778813,10.6387454783,-3.09604018337
12,21,0.0878229906377,11.0496120325,-3.00422172624
12,22,0.0269619994991,11.4809414486,-2.92941692073
12,23,-0.353089594716,11.9127518519,-2.81934695615
12,24,-0.726156133744,12.2871996925,-2.63937018448
12,25,-1.06429739683,12.3748347188,-2.10985937736
12,26,-1.29565657653,12.3328289311,-1.49667745301
12,27,-1.31345158945,12.0315415154,-0.716153294198
12,28,-1.19761279092,11.6850045012,-0.126722022407
12,29,-0.948140180929,11.2932178885,0.271616362361
12,30,-0.684836595752,11.0034219821,0.261434123799
12,31,-0.414617522983,10.7646214287,0.0469915735706
12,32,-0.172947540884,10.578224716,-0.495443712024
12,33,0.0630126230807,10.4023087714,-1.10347754469
12,34,0.275399484745,10.1721243274,-1.49625138778
12,35,0.476127055393,9.92001314602,-1.80921331576
12,36,0.618558170966,9.55826827793,-1.7231156682
12,37,0.705421066635,9.17675372237,-1.55861189408
12,38,0.681147522495,8.75569979185,-1.23729586683
12,39,0.638229974434,8.29864295042,-0.935809766618
12,40,0.57666842245,7.80558319807,-0.654153593456
12,41,0.515250681424,7.38822137739,-0.443817579169
12,42,0.453904845876,7.00870852254,-0.269141644318
12,43,0.457387552158,6.71869533961,-0.251887782593
12,44,0.473835966805,6.44658209107,-0.266118335493
12,45,0.528723523204,6.3089949631,-0.436110421332
12,46,0.587056626941,6.17661887667,-0.609285451862
12,47,0.662617467362,6.07029799793,-0.798375205847
12,48,0.738591292837,5.98152984757,-0.936463554151
12,49,0.815391088423,5.92786715397,-0.972549091095
12,50,0.920115913,5.90093741044,-0.958818330069
12,51,1.05276576657,5.90074061699,-0.895271271072
12,52,1.14968543161,6.00349777404,-0.825703123731
12,53,1.22874000238,6.15773190634,-0.753124432217
12,54,1.23024591683,6.33165485108,-0.655525775396
12,55,1.21624210001,6.50951555829,-0.552923125514
12,56,1.2623416634,6.52560221598,-0.26539210676
12,57,1.30890356876,6.54269097909,0.0577419265333
12,58,1.35777718396,6.56479026927,0.558891032527
12,59,1.35603815563,6.64386053199,1.09509200411
12,60,1.25307384021,6.83687273979,1.70139670687
12,61,1.17220747061,7.03749894003,2.23173745782
12,62,1.11343904682,7.24573913273,2.68611425695
12,63,1.08884341927,7.49837788102,2.88454162455
12,64,1.08133418984,7.77321590711,2.95499427639
12,65,1.11044238482,8.08149121365,2.77277902655
12,66,1.14687406469,8.39645397627,2.54003019637
12,67,1.22605144492,8.73796063218,2.467161767
12,68,1.31754556559,9.08252382619,2.4779281045
12,69,1.47062338844,9.44236971067,2.9068682764
12,70,1.65409549173,9.79656501934,3.29168563575
12,71,1.89835615589,10.1394591764,3.58825737002
12,72,2.05433891129,10.3974543757,3.46519117939
12,73,2.12204375794,10.5705506172,2.92248706386
12,74,1.96496730462,10.6038928416,2.36257137074
12,75,1.69550020131,10.5673580573,1.79404988881
12,76,1.40864395303,10.646042994,1.50140857345
12,77,1.11830987576,10.7477718749,1.2639432914
12,78,0.993898078925,10.9892139869,1.24313185662
12,79,0.88857032258,11.2316027561,1.25563848071
12,80,0.878662768697,11.4787248111,1.43473539913
12,81,0.910793831724,11.7140947572,1.66967512021
12,82,1.02700212857,11.9259604856,2.01630044662
12,83,1.20196665809,12.1599646436,2.38655429952
12,84,1.43568742028,12.4161072311,2.7804366789
12,85,1.70649799459,12.7008497687,3.06411662977
12,86,1.99585347496,12.9998922812,3.29269536638
12,87,2.1686037986,13.3151914837,3.33747788581
12,88,2.31803309091,13.6337420242,3.3455011618
12,89,2.38008377956,13.7616944542,3.10405760263
12,90,2.43248505564,13.8539435969,2.79521247057
12,91,2.43663926887,13.7676763027,2.14935947406
12,92,2.41794813811,13.7146788654,1.4114342901
12,93,2.35356631941,13.7282211419,0.489364731235
12,94,2.34743035843,13.8180507199,-0.206864724663
12,95,2.39954025519,13.9841675993,-0.677254077592
12,96,2.32105341504,14.3146441555,-0.818932087842
12,97,2.17726820643,14.72730055,-0.796254426754
12,98,2.09102222052,15.0449274527,-0.743463686738
12,99,2.01628407914,15.343548457,-0.684650330936
13,0,2.01628407914,15.343548457,-0.684650330936
13,1,2.03227101166,15.2460736199,-0.806403730646
13,2,2.04355338394,15.1423125057,-0.931801232006
13,3,1.82431230473,14.7305238131,-1.23575971424
13,4,1.5880745708,14.3073223776,-1.53817961247
13,5,0.943917123819,13.6102151107,-1.80367349446
13,6,0.289503114711,12.9143949224,-2.04650983708
13,7,-0.525597034367,12.2387389668,-1.93437806298
13,8,-1.33414795649,11.5788545499,-1.80239571364
13,9,-2.06738276859,11.1003428298,-1.44213174908
13,10,-2.77559166172,10.6459955968,-1.08539972593
13,11,-3.25856728401,10.4091287485,-0.760455175407
13,12,-3.69486779282,10.1913272086,-0.465050878689
13,13,-3.78888413609,10.1133379302,-0.386275109855
13,14,-3.88373785758,10.0709034423,-0.332599905133
13,15,-3.98373547381,10.2468769535,-0.43311387995
13,16,-4.09042975738,10.4288620974,-0.552689733672
13,17,-4.23228154443,10.6424083128,-0.772340451638
13,18,-4.35243373333,10.8312443123,-0.978031769277
13,19,-4.37373219737,10.9075115502,-1.12013026321
13,20,-4.35485489332,10.9346985852,-1.20288604133
13,21,-4.17527451695,10.765564808,-1.04827095622
13,22,-3.97658189974,10.5793893185,-0.850028359206
13,23,-3.71012770133,10.3327932126,-0.497106401778
13,24,-3.44860865079,10.0424807977,-0.219910333564
13,25,-3.20271756849,9.61373340438,-0.182512914525
13,26,-2.89156686886,9.25788405762,-0.152605917209
13,27,-2.39467725839,9.10951376658,-0.144017812485
13,28,-1.80076526034,8.97404055884,-0.0877446137889
13,29,-0.957367122809,8.87173127957,0.0911473979773
13,30,-0.135228848657,8.75921025767,0.155479103953
13,31,0.637303077624,8.62286183631,-0.0474965702514
13,32,1.25754424643,8.53729184316,-0.320909247229
13,33,1.55416755559,8.55962600995,-0.744000555102
13,34,1.76211972232,8.59055023442,-1.12602770777
13,35,1.79794555376,8.63814927674,-1.42834208858
13,36,1.82682203713,8.65386404811,-1.64792146474
13,37,1.84334412393,8.61289567114,-1.72041638823
13,38,1.83432673928,8.57682629117,-1.73316463548
13,39,1.78363969065,8.54875001158,-1.64843146362
13,40,1.7024549011,8.52609466308,-1.49132892565
13,41,1.57552350017,8.51157071121,-1.22567233853
13,42,1.46007324584,8.46824199001,-0.975585146251
13,43,1.36047790825,8.38513525402,-0.746998546871
13,44,1.28592507674,8.22838961533,-0.561961718796
13,45,1.2432445257,7.97792173682,-0.432351872382
13,46,1.16777454325,7.6957578387,-0.294767005051
13,47,1.0538126196,7.37638556974,-0.147820156644
13,48,0.944775221009,7.08620952174,-0.0183440992857
13,49,0.841072724572,6.82766271314,0.0922052677689
13,50,0.694180422588,6.6337841414,0.156792444361
13,51,0.504098315055,6.50457380652,0.17541743049
13,52,0.281773301017,6.43477370701,0.146288805257
13,53,0.029685604053,6.41981382476,0.0730799233811
13,54,-0.169845829182,6.37897438,-0.0133522095449
13,55,-0.324607111833,6.31608938197,-0.111048593366
13,56,-0.425175582833,6.26367467441,-0.12645009123
13,57,-0.483163987538,6.21948662363,-0.0771913215557
13,58,-0.532066232585,6.21774114403,-0.0406526948227
13,59,-0.574388844778,6.24672994011,-0.0133252060816
13,60,-0.596495599072,6.3122096519,-0.0259307356755
13,61,-0.605125114767,6.40201664083,-0.0651582774929
13,62,-0.590719165427,6.46785828002,-0.0230467518645
13,63,-0.56219470526,6.51901147905,0.0689177505855
13,64,-0.543338206536,6.54506981189,0.302083240091
13,65,-0.529919936125,6.55701228251,0.614674284815
13,66,-0.458034935203,6.62964685258,0.86922579708
13,67,-0.356030709473,6.73354704966,1.09387815626
13,68,-0.240385981079,6.94960513941,1.30065659144
13,69,-0.118322192608,7.21844341394,1.49902376826
13,70,-0.0229170883645,7.60415438663,1.77156640081
13,71,0.061062865495,8.03995365853,2.07589851437
13,72,0.102666591612,8.59463118247,2.45629740877
13,73,0.127790673606,9.19553913776,2.86627782904
13,74,0.0868007135866,9.92020647029,3.24169728168
13,75,0.0225814955628,10.6883568272,3.60497369164
13,76,0.0583112341962,11.4278380051,3.7497053889
13,77,0.125603801248,12.1582657579,3.82542296635
13,78,0.211148660344,12.8416760447,3.67098877563
13,79,0.301841601813,13.5118249949,3.45163998363
13,80,0.32704022641,14.0494497414,3.18031624148
13,81,0.335865271789,14.553943437,2.8959987618
13,82,0.330269552844,14.8346126348,2.62800268641
13,83,0.321508300267,15.0661496258,2.3635893583
13,84,0.264832555428,15.0592234125,1.9233223432
13,85,0.199030240634,15.0068756364,1.44955938771
13,86,0.214865583808,14.5957760725,1.03370190444
13,87,0.24399077828,14.1262750547,0.627270893392
13,88,0.323999696923,13.2700495631,1.04350705701
13,89,0.410947305225,12.361088916,1.57192510809
13,90,0.281668488042,11.7755261718,2.2533105138
13,91,0.128364512471,11.225896528,2.95169229226
13,92,-0.209325811975,11.5636941132,3.11238303698
13,93,-0.563049731975,11.9786592836,3.22631803965
13,94,-0.51283258894,14.0985930022,1.84869065311
13,95,-0.436831973795,16.3273545006,0.375857156629
13,96,-0.547351730064,17.5901697885,-0.99789928863
13,97,-0.665643168475,18.8127373177,-2.36752752342
13,98,-1.16558540065,18.9909710441,-4.11466842115
13,99,-1.67331642454,19.1478918357,-5.86951365894
14,0,-1.67331642454,19.1478918357,-5.86951365894
14,1,-2.65314128273,17.6224113202,-4.24230070661
14,2,-3.51116654119,15.9374499234,-2.49415728431
14,3,-3.76019380095,13.4550841203,-0.141361512226
14,4,-3.71913825775,11.1332463619,1.34574223699
14,5,-3.09791710861,9.13246469321,1.10146194048
14,6,-2.49779887007,7.73380911926,0.137750106553
14,7,-1.91878354214,6.93727964006,-1.54539326479
14,8,-1.43987771563,6.59880713844,-3.22419509321
14,9,-1.01102663984,6.48936312559,-4.90082615016
14,10,-0.840069072237,6.57573924405,-5.46449051054
14,11,-0.720690206271,6.70127938877,-5.80556153161
14,12,-0.757648690378,7.26623458627,-5.21402402705
14,13,-0.755932397799,7.82834940106,-4.70678599771
14,14,-0.560842221788,8.37626230225,-4.62104534449
14,15,-0.348963941035,8.8437514959,-4.59894553194
14,16,-0.103509450801,9.15039327449,-4.70412740074
14,17,0.0697302124214,9.4639648265,-4.64781177736
14,18,0.170755048631,9.78446615194,-4.4299986618
14,19,0.118788683057,10.1307415972,-4.15602175002
14,20,-0.00967328340908,10.4899041023,-3.85396294013
14,21,-0.213523410084,10.7932417611,-3.50386320216
14,22,-0.4324511688,11.0854144507,-3.14415527858
14,23,-0.665999106061,11.176173993,-2.56501558722
14,24,-0.881431978197,11.2211275972,-1.97277906192
14,25,-1.00628952471,11.0370515115,-1.31505836694
14,26,-1.07017632275,10.8347696839,-0.770553854709
14,27,-1.01212162385,10.5960763727,-0.452481707959
14,28,-0.903255577656,10.4137155001,-0.342469969795
14,29,-0.743578184157,10.2876870661,-0.440518640215
14,30,-0.593848330429,10.2010888856,-0.622166700547
14,31,-0.449092246587,10.1342058318,-0.845614455834
14,32,-0.227398271435,9.91222956691,-0.977342036788
14,33,0.00968328197866,9.6592346598,-1.09072558288
14,34,0.0716421046648,9.36001752076,-1.03589088872
14,35,0.126379438883,9.03966558628,-0.976448150414
14,36,0.145009330762,8.61363967455,-0.893965191406
14,37,0.142119901424,8.1862401584,-0.816972152063
14,38,0.0961918296522,7.75609343337,-0.750958952049
14,39,0.0281591254936,7.37080397159,-0.68841703561
14,40,-0.0619782110519,7.03037177305,-0.629346402747
14,41,-0.115162995976,6.73452812589,-0.62508587146
14,42,-0.149871505088,6.46097875442,-0.648230390962
14,43,-0.106781609424,6.28806263128,-0.728677730985
14,44,-0.0481320328044,6.13527315781,-0.820585635112
14,45,-0.018556921362,6.05541522841,-0.891012437392
14,46,0.0414093043825,5.96842909719,-0.956661129013
14,47,0.253331101637,5.84580195682,-0.998419267335
14,48,0.471930006505,5.75790757635,-1.00679341136
14,49,0.7038831266,5.73947871565,-0.948399566797
14,50,0.875379956731,5.80701808153,-0.836825509326
14,51,0.986420496897,5.960525674,-0.672071238948
14,52,1.05339710213,6.13780318387,-0.443880877267
14,53,1.0983417399,6.32696565243,-0.183972469935
14,54,1.14194649551,6.45313120346,0.263103672569
14,55,1.18528327469,6.56669737098,0.747613362108
14,56,1.23054056326,6.70800910396,1.34764152387
14,57,1.2692517654,6.86717916406,1.91892235108
14,58,1.27523253539,7.11564085971,2.3464665055
14,59,1.25485654479,7.39986448057,2.68172089283
14,60,1.18176703301,7.75561195185,2.83239574595
14,61,1.16846257938,8.10143689465,2.7939573612
14,62,1.21494318389,8.43733930897,2.56640573855
14,63,1.29072719704,8.75436965244,2.20954581513
14,64,1.38116291451,9.06196396048,1.78803174131
14,65,1.39699902287,9.35341286559,1.60102940075
14,66,1.39791520941,9.64163269012,1.46092940684
14,67,1.47869023954,9.75421106404,1.74764914837
14,68,1.56460022159,9.86429744085,2.057042554
14,69,1.67618496319,9.96192383204,2.47980428014
14,70,1.79541942426,10.0896609945,2.8095121582
14,71,1.92995332427,10.2776196995,2.95311234011
14,72,2.03497517723,10.4892185566,2.73338824443
14,73,2.11048498313,10.7244575658,2.15033987116
14,74,1.9842548095,10.9322542088,1.54426166375
14,75,1.75715464609,11.1263296689,0.926668539258
14,76,1.49079917506,11.2885650645,0.935783406194
14,77,1.21659264251,11.4444324472,1.07023987142
14,78,1.13946076241,11.6141935751,1.60896050681
14,79,1.08249402245,11.7842248492,2.13000705601
14,80,1.12635298323,11.9556068547,2.56268317423
14,81,1.18912690139,12.1326503063,2.92025964978
14,82,1.2897307343,12.3210166501,3.12763683998
14,83,1.40014335701,12.5398813188,3.21849226372
14,84,1.5203647695,12.7892443126,3.192825921
14,85,1.60990390685,13.0552585345,3.08972068629
14,86,1.68410190664,13.3295983703,2.94789600557
14,87,1.77185917662,13.4297547379,2.76784621803
14,88,1.86232830065,13.495074412,2.58015140913
14,89,1.99751189838,13.374056564,2.17441273588
14,90,2.13583134539,13.2586357896,1.71389760615
14,91,2.28983003883,13.1712003827,0.979500194025
14,92,2.38986038825,13.1947923784,0.275605903228
14,93,2.3819540496,13.4404391793,-0.367282144906
14,94,2.35116450283,13.7703740012,-0.748574986765
14,95,2.29749174796,14.184596844,-0.868272622347
14,96,2.25994032904,14.5727281984,-0.887336644709
14,97,2.23044957811,14.9478138086,-0.856083860459
14,98,2.22227247077,15.1159218185,-0.94262477902
14,99,2.21835809216,15.2426343084,-1.05272443814
15,0,2.21835809216,15.2426343084,-1.05272443814
15,1,2.09464902644,14.8947699002,-1.3448039489
15,2,1.95440743958,14.5007655012,-1.64782696316
15,3,1.65876015387,13.6730451892,-2.05371891027
15,4,1.319158625,12.8123450122,-2.41967529441
15,5,0.794949274874,11.8131294022,-2.61790231414
15,6,0.203881603753,10.9281409053,-2.65161177188
15,7,-0.552103259165,10.3249126207,-2.2795112434
15,8,-1.34448861943,9.89850201369,-1.83586251021
15,9,-2.19511477543,9.75499969069,-1.27773664947
15,10,-2.81511973312,9.66962362072,-0.909618629609
15,11,-3.18605379664,9.64702390402,-0.746709077886
15,12,-3.39276835614,9.76271806658,-0.642124756945
15,13,-3.47905527937,9.9798277406,-0.580312271912
15,14,-3.59766854558,10.3093631754,-0.621746335798
15,15,-3.73198317838,10.6935054083,-0.713328723445
15,16,-3.74023116709,10.9819850347,-0.802263911293
15,17,-3.71065916256,11.2417658792,-0.8904049392
15,18,-3.68604436278,11.435715557,-0.853182788522
15,19,-3.66220068374,11.6194248311,-0.796459698952
15,20,-3.45734168834,11.5654976043,-0.754656893644
15,21,-3.24665176093,11.494878091,-0.698980749672
15,22,-3.05898661733,11.3068737472,-0.406958821805
15,23,-2.84653553649,11.0895439448,-0.1291740648
15,24,-2.49776180079,10.7109241203,0.0703062524681
15,25,-2.07953669665,10.3699995899,0.248633248196
15,26,-1.45295748714,10.142160942,0.363500279302
15,27,-0.766190762463,9.95612727564,0.467879646783
15,28,0.0342634908624,9.84905857436,0.552448982969
15,29,0.711704519535,9.74815909477,0.473527013012
15,30,1.23404191712,9.65503819905,0.188463830961
15,31,1.61018754332,9.60909980677,-0.273393044119
15,32,1.86102593688,9.60360356031,-0.886787370367
15,33,1.9903571832,9.57686949084,-1.40243891527
15,34,2.04972976897,9.53790758389,-1.86181431335
15,35,2.0313538619,9.37591398133,-1.99502334622
15,36,1.98433377325,9.16859291197,-2.0080658235
15,37,1.86258910977,8.8921018256,-1.73187135145
15,38,1.72520441901,8.6011332938,-1.39513891327
15,39,1.47854945456,8.36004872712,-1.09288927372
15,40,1.22433749906,8.1220961729,-0.798199518992
15,41,1.04911766254,7.83186940212,-0.742511996204
15,42,0.876312905274,7.52932934846,-0.721880056009
15,43,0.72202375563,7.13238745933,-0.970007582365
15,44,0.532548756849,6.77616297079,-1.17269877499
15,45,0.211926502192,6.57170333895,-1.20603636008
15,46,-0.0814973860351,6.39204540938,-1.1626185388
15,47,-0.313724949797,6.26819130992,-0.946501053172
15,48,-0.469612933651,6.16857476907,-0.723137964477
15,49,-0.512809156687,6.10473748138,-0.489078985534
15,50,-0.556926918975,6.1357358013,-0.29951086864
15,51,-0.601966220514,6.26156972881,-0.154433613797
15,52,-0.643125369506,6.40567008695,-0.0332072413126
15,53,-0.681656028064,6.56214447872,0.0718620818315
15,54,-0.682538498105,6.65122306972,0.195606040038
15,55,-0.666688439914,6.71034797149,0.327649836049
15,56,-0.694273475204,6.7351052228,0.450861579955
15,57,-0.733511828256,6.75064188497,0.571703748905
15,58,-0.79011433257,6.7191379055,0.659823908321
15,59,-0.848981726179,6.68149819017,0.743675979536
15,60,-0.881184730778,6.6376309912,0.846724072153
15,61,-0.91071085396,6.59758321456,0.95306902421
15,62,-0.914388374034,6.60483379617,1.09445957864
15,63,-0.910090423498,6.62762674709,1.24603952817
15,64,-0.867687446719,6.72467768471,1.44630214324
15,65,-0.810911177611,6.84681294034,1.64604091429
15,66,-0.715121686472,7.03703420201,1.84435782303
15,67,-0.595346900628,7.25607864541,2.03159036248
15,68,-0.433913445032,7.52518440446,2.19957110263
15,69,-0.279141423545,7.87377960228,2.38574332411
15,70,-0.132141075186,8.31511247867,2.59313894045
15,71,-0.0238396658667,8.83688313758,2.78611348354
15,72,0.0537694814565,9.42244927918,2.9676506237
15,73,0.172403131605,10.0281907777,3.02309058918
15,74,0.312755636191,10.6446133476,3.0117732269
15,75,0.445846837419,11.277857647,2.82585970092
15,76,0.576517604195,11.9167091896,2.58174745371
15,77,0.72825981909,12.5429632087,2.17489063187
15,78,0.88383320637,13.166926769,1.73844388736
15,79,0.907031892153,13.7370506265,1.43199651863
15,80,0.9206624548,14.2966501822,1.13608095762
15,81,0.89770427808,14.6755498988,0.904481953373
15,82,0.851876307279,15.0072857477,0.682931062829
15,83,0.659028231673,15.0358253037,0.525975188931
15,84,0.487061451151,14.9402092149,0.501146740715
15,85,0.384698987576,14.4307409765,0.916743044773
15,86,0.318436017222,13.7946420582,1.48876949326
15,87,0.326495532912,12.8978329166,2.38285800382
15,88,0.228983540249,12.2261123278,3.1251655133
15,89,-0.01248960017,11.8613306749,3.6604989304
15,90,-0.285503925801,12.0007153316,3.89254694648
15,91,-0.587723052555,12.6069206455,3.84377514678
15,92,-0.671180054041,13.4108352961,3.39899741816
15,93,-0.617910727235,14.3383182822,2.70671598397
15,94,-0.604563709082,15.2848696126,1.88551565731
15,95,-0.607401410654,16.2391513529,1.01205091478
15,96,-0.716695790597,17.267863144,-0.480264433601
15,97,-0.851336998725,18.3142963758,-2.11992516433
15,98,-1.3579715011,18.5828174702,-4.38765341593
15,99,-1.90417975818,18.7685819544,-6.72219736125
16,0,-1.90417975818,18.7685819544,-6.72219736125
16,1,-2.91757007538,17.561426298,-5.36906288933
16,2,-3.80379337774,16.1868011779,-3.79351725152
16,3,-3.85434772536,13.7116624394,-0.756412523596
16,4,-3.66276049979,11.3160437089,1.52875365627
16,5,-2.7966360346,9.14194500104,1.71923388083
16,6,-1.96316795995,7.41523181137,1.22906051398
16,7,-1.17946200423,6.37024893516,-0.298299277887
16,8,-0.721609253683,5.85328206166,-1.95288619158
16,9,-0.554696864903,5.80775804772,-3.72106874975
16,10,-0.376980722401,5.83776082284,-4.81549534365
16,11,-0.1937083637,5.90660594661,-5.5634188702
16,12,-0.201039141114,6.25215515971,-5.33081721415
16,13,-0.258289787511,6.67017449145,-4.84141134362
16,14,-0.296354295996,7.34537460101,-4.36339879571
16,15,-0.323543371057,8.03563014045,-3.91635691748
16,16,-0.195578811391,8.62690369108,-3.96999174793
16,17,-0.0663393955593,9.20313976735,-4.02457474424
16,18,0.0683819017825,9.71471470384,-4.08323485377
16,19,0.165822640947,10.2271623598,-4.06091762461
16,20,0.184316315735,10.7414581275,-3.86711897237
16,21,0.0581432287727,11.2498965697,-3.67079129583
16,22,-0.242835528637,11.7512574104,-3.47140771495
16,23,-0.583857694071,12.0538033966,-3.10288907378
16,24,-0.953297761974,12.21525497,-2.61433909951
16,25,-1.16220674068,12.0819866984,-2.0217407749
16,26,-1.30774818417,11.832381646,-1.38807073304
16,27,-1.28620166392,11.5210369895,-1.01226233912
16,28,-1.23495061679,11.1987164033,-0.682296015937
16,29,-1.12455216968,10.9205214258,-0.710211158085
16,30,-1.00272370197,10.6458431519,-0.768543295729
16,31,-0.800270097852,10.3920652628,-1.01123026709
16,32,-0.617500735395,10.1293313836,-1.23515197346
16,33,-0.495298270351,9.83904061136,-1.40133440293
16,34,-0.412773270654,9.52407015382,-1.46865715223
16,35,-0.395716088777,9.16837821543,-1.37286142923
16,36,-0.449407582185,8.79672758956,-1.17209270645
16,37,-0.571227429572,8.40970933871,-0.870238872777
16,38,-0.607559405349,8.00161115678,-0.590374527009
16,39,-0.59611874699,7.58173301336,-0.32279842448
16,40,-0.503530177652,7.20567420431,-0.147191398307
16,41,-0.387191000222,6.84244056629,0.00149784942017
16,42,-0.320714665558,6.64934566487,-0.075540795183
16,43,-0.258182896482,6.47667897576,-0.182634668482
16,44,-0.163789373796,6.37300068146,-0.456547159513
16,45,-0.0644913721026,6.27349425983,-0.725230322529
16,46,0.0587840825125,6.19438366012,-0.968347881915
16,47,0.19929832894,6.11621131731,-1.17317703766
16,48,0.379677281433,6.0402086936,-1.28946425998
16,49,0.546385669625,6.00231698394,-1.32129492605
16,50,0.695262886987,6.01413516215,-1.24296486655
16,51,0.797226855844,6.09811172395,-1.10527172598
16,52,0.863224000846,6.23740971317,-0.922066889923
16,53,0.905625728216,6.35358714378,-0.682145909429
16,54,0.937824031747,6.45976649499,-0.41769902864
16,55,0.974758296743,6.52623202282,-0.0194919288984
16,56,1.01266128113,6.58457426861,0.406075215629
16,57,1.05032885017,6.69483868646,0.894604594734
16,58,1.08438538349,6.81145773432,1.36784349773
16,59,1.08386460092,6.9695340596,1.67059040055
16,60,1.07083195857,7.1384127564,1.90828702811
16,61,1.01505046197,7.34419955589,1.92372854852
16,62,0.981030196696,7.55666890526,1.88693975802
16,63,0.985951082226,7.78109650177,1.75668620062
16,64,0.981460847007,8.03998243976,1.60285295353
16,65,0.967197524857,8.33465204003,1.42453310561
16,66,0.978040281426,8.60384302554,1.41136151403
16,67,1.00409884328,8.85759242633,1.49827977479
16,68,1.08629822657,9.09390253968,1.86873535658
16,69,1.18674337683,9.32454488462,2.33134056771
16,70,1.4091096491,9.54952148762,2.96402452356
16,71,1.64704667626,9.77461190234,3.60462775206
16,72,1.88531423232,10.0432314089,3.52799978873
16,73,2.09272503254,10.317879942,3.31731402422
16,74,2.12656658119,10.6264417493,2.35255312807
16,75,2.09528137768,10.8978531377,1.47375445916
16,76,1.89900840203,11.0751501313,0.812726765967
16,77,1.70984933389,11.2440670338,0.529468866155
16,78,1.53071440814,11.4011756261,0.778522947927
16,79,1.44356535714,11.7328842205,1.3974713239
16,80,1.4325425473,12.2090893685,2.32253911577
16,81,1.54726767794,12.5267946751,2.75530558887
16,82,1.72137378046,12.7696528343,2.95559643923
16,83,1.89964843099,12.9966773814,2.99321896644
16,84,2.07889251129,13.2200196932,2.99301165106
16,85,2.13823160918,13.4472000951,2.84480770948
16,86,2.18291708419,13.660605922,2.67752110931
16,87,2.13622584094,13.702452209,2.38524946162
16,88,2.08743899089,13.7208075089,2.04594425401
16,89,2.03065073307,13.6494699486,1.52705636301
16,90,2.00823663885,13.5785495421,0.95470263026
16,91,2.0526611961,13.5084402679,0.278387538537
16,92,2.12884878988,13.5524666751,-0.221320350086
16,93,2.24061098458,13.7243250453,-0.523228171235
16,94,2.29685454524,13.9737585942,-0.589920285243
16,95,2.31666400232,14.2741008543,-0.502252091438
16,96,2.35735386059,14.5831891599,-0.415109859993
16,97,2.40553924748,14.8954170717,-0.328156435548
16,98,2.48160716922,14.9868464292,-0.336228977875
16,99,2.56191808539,15.0446760066,-0.358761993407
17,0,2.56191808539,15.0446760066,-0.358761993407
17,1,2.48376564418,14.7274351939,-0.574150207185
17,2,2.38833629488,14.3817529987,-0.797616398029
17,3,2.01647641596,13.5810086842,-1.15033022194
17,4,1.60863754912,12.77461874,-1.47392710971
17,5,0.930956272865,11.9258865739,-1.57914697648
17,6,0.230791896569,11.1287586344,-1.61602689649
17,7,-0.574293613253,10.5724504195,-1.33398706498
17,8,-1.36974619084,10.1020149545,-1.02058988309
17,9,-2.13389173866,9.91066592713,-0.605281312452
17,10,-2.82666257552,9.79723181454,-0.288374464015
17,11,-3.34813410607,9.87079349744,-0.207631748859
17,12,-3.72283015849,9.97538994617,-0.228679203243
17,13,-3.82843783433,10.1368834656,-0.436341968453
17,14,-3.90113345388,10.3193162134,-0.692891324541
17,15,-3.92681185015,10.5316621447,-1.0192786676
17,16,-3.96184339579,10.7093612395,-1.32457668379
17,17,-4.00739723447,10.8480826433,-1.60614920725
17,18,-3.96159787592,10.9077352169,-1.73275822488
17,19,-3.8345956754,10.8971043859,-1.72162190401
17,20,-3.64813392723,10.79365732,-1.5293571024
17,21,-3.4200504957,10.6252388897,-1.21030236426
17,22,-3.13697450058,10.3675756114,-0.854714014726
17,23,-2.82390256168,10.061233325,-0.47919824079
17,24,-2.5885848577,9.76915709774,-0.111301414027
17,25,-2.38566475162,9.4830250618,0.253420851415
17,26,-1.88761229562,9.40089810953,0.421272443862
17,27,-1.2987498858,9.38154195224,0.528548444619
17,28,-0.562289376451,9.35004359352,0.361742648685
17,29,0.205799297085,9.31594333449,0.136205039175
17,30,0.755820941417,9.36306116296,-0.250902195036
17,31,1.27676698185,9.42100806977,-0.659552045872
17,32,1.40036822186,9.54354591228,-1.15410778689
17,33,1.49913541183,9.67012068828,-1.65403264605
17,34,1.53013727715,9.71988949633,-1.93990629156
17,35,1.56014198746,9.76130592685,-2.20179456507
17,36,1.57419221765,9.66908431698,-2.07991688656
17,37,1.57635301119,9.56434063593,-1.93212025988
17,38,1.48934302985,9.36568142103,-1.58993152195
17,39,1.39808266425,9.141443653,-1.26513544898
17,40,1.28698717205,8.79783930368,-1.02150514579
17,41,1.15452928252,8.43018265018,-0.794186864378
17,42,0.952643601645,7.98435600813,-0.619882653751
17,43,0.738432103622,7.56936762573,-0.474755945979
17,44,0.494638644454,7.22839106652,-0.399655245059
17,45,0.25528574419,6.94244932833,-0.338443520747
17,46,0.0240738685828,6.75740476204,-0.302694920219
17,47,-0.189217341065,6.61757798457,-0.254763375463
17,48,-0.376907599343,6.54234804827,-0.189427624669
17,49,-0.538048588628,6.5020289048,-0.116541528206
17,50,-0.669321650297,6.50098440326,-0.0351612928647
17,51,-0.769838982867,6.51770839955,0.0281624040255
17,52,-0.843017889571,6.55022661615,0.075435844515
17,53,-0.85227812085,6.53609406041,0.164422975822
17,54,-0.816795279329,6.48930596403,0.282609690701
17,55,-0.81060550254,6.47553802479,0.423003669546
17,56,-0.820393761059,6.47978108034,0.575510701465
17,57,-0.837090210584,6.51329578663,0.617763675447
17,58,-0.856665073028,6.55900701406,0.614077458622
17,59,-0.840717582284,6.57096901485,0.603814663388
17,60,-0.813840136713,6.5725466382,0.591528305566
17,61,-0.782216226303,6.56232346505,0.718885195422
17,62,-0.749575216286,6.54957154979,0.876165638352
17,63,-0.667971992521,6.57366987626,1.0682723207
17,64,-0.57984047359,6.60268156829,1.26502250164
17,65,-0.427619495314,6.66532744322,1.41146192052
17,66,-0.271392925829,6.73007545458,1.55475691676
17,67,-0.0719906171386,6.94465335411,1.68668647745
17,68,0.12572343457,7.16846442304,1.82259453669
17,69,0.296425374573,7.54000620248,2.02215857281
17,70,0.452856524663,7.93473868852,2.21991302966
17,71,0.502256750405,8.50340147409,2.404095642
17,72,0.550112910551,9.09715406817,2.56807220098
17,73,0.590763431254,9.80799243526,2.63775384431
17,74,0.65042770361,10.5307476427,2.68831164464
17,75,0.771886668839,11.2922325815,2.67671695519
17,76,0.890865846078,12.0496409471,2.64217986493
17,77,1.00389353214,12.7972655374,2.5525810127
17,78,1.08662345256,13.5254097885,2.43940370473
17,79,1.11380746931,14.2178400846,2.28299922788
17,80,1.12438488234,14.8395069074,2.05343549298
17,81,1.11123857577,15.3600830538,1.7193585323
17,82,1.05647328426,15.6875367298,1.33127182052
17,83,0.954886634703,15.7977276266,0.88242413874
17,84,0.89603765494,15.5397072113,0.853341101194
17,85,0.875177714998,14.9543878521,1.19738219185
17,86,0.878031926967,14.065253806,1.89259017157
17,87,0.897486045275,12.9634494792,2.83361497363
17,88,0.751546721501,12.1961989955,3.48712510382
17,89,0.515392792955,11.6114324262,3.98380904937
17,90,0.134690033504,11.7077853517,4.13984584184
17,91,-0.30624140549,12.0879380668,4.15394632052
17,92,-0.451059571812,12.8763283345,3.53803515611
17,93,-0.504765961927,13.7903301567,2.72827425536
17,94,-0.617507594295,14.8358764205,1.62395701245
17,95,-0.742899635717,15.909610779,0.456520553365
17,96,-1.2162900702,17.0260877129,-1.37837589585
17,97,-1.73608029043,18.1482636569,-3.30226701042
17,98,-2.61462889154,18.607769044,-5.41052712397
17,99,-3.51559989146,19.0258575213,-7.53031029996
18,0,-3.51559989146,19.0258575213,-7.53031029996
18,1,-4.658729777,17.8481767234,-5.75749164266
18,2,-5.6890793425,16.5194768281,-3.85868669294
18,3,-5.97830109067,14.1983657204,-1.13197182166
18,4,-5.93057084847,11.908336844,0.879899128188
18,5,-4.94418863315,9.70489418334,0.900419154012
18,6,-3.93835112236,7.93102843392,0.391876411818
18,7,-2.90286744707,6.81175607308,-0.922857214977
18,8,-2.15216735299,6.23813762934,-2.35801163379
18,9,-1.65573831358,6.15171018301,-3.90068461691
18,10,-1.29240756096,6.16935152771,-4.83877769189
18,11,-0.997527355837,6.24051396493,-5.46594395698
18,12,-1.01181764221,6.65061736632,-5.25189249156
18,13,-1.10708115255,7.14949102023,-4.81752209672
18,14,-1.00738564781,7.63980193935,-4.61367753042
18,15,-0.882389431892,8.11730971781,-4.43950711732
18,16,-0.600965057176,8.39308179811,-4.44626534119
18,17,-0.318656827573,8.67197945639,-4.42119037366
18,18,-0.032548021957,8.96431709994,-4.25923268305
18,19,0.179808713884,9.31169123028,-4.0833009799
18,20,0.235984596084,9.77561321498,-3.87777725019
18,21,0.13109222106,10.2683394958,-3.60528248444
18,22,-0.168424298111,10.7958709678,-3.25186438349
18,23,-0.462067297893,11.1396033993,-2.6990154896
18,24,-0.751541993593,11.352897802,-2.00463506523
18,25,-0.882142458554,11.2541665622,-1.29464697928
18,26,-0.950029411383,11.0322673057,-0.57849797427
18,27,-0.828351277447,10.7079263067,-0.277528844993
18,28,-0.672972683642,10.3653734423,-0.0503694714027
18,29,-0.522682905857,10.1920429806,-0.258846673962
18,30,-0.375936881975,10.0304219642,-0.493722839525
18,31,-0.256183679209,9.93503310045,-0.869766141317
18,32,-0.123778751058,9.81505854365,-1.22072841197
18,33,0.0475545628925,9.61943570067,-1.49451827911
18,34,0.187743718749,9.39026971751,-1.66111335481
18,35,0.276545013752,9.10575755307,-1.65083702461
18,36,0.295533887202,8.76507961388,-1.49619354132
18,37,0.247295984342,8.37031611384,-1.20252983655
18,38,0.175525762895,7.95288576096,-0.868058160171
18,39,0.0906051281195,7.52278863739,-0.510782029069
18,40,0.0452930577838,7.15815727078,-0.287601596389
18,41,0.0115737380157,6.81268661353,-0.103668685199
18,42,0.0893113623159,6.50163043232,-0.123896469459
18,43,0.176072415553,6.20093566908,-0.169696316292
18,44,0.196873399015,6.07304361183,-0.325281911417
18,45,0.21857903192,5.97689283708,-0.471696593713
18,46,0.24470739544,6.03592166561,-0.573275702172
18,47,0.306412719744,6.08804981037,-0.660049294352
18,48,0.45038976586,6.12422012387,-0.712585130135
18,49,0.592781948785,6.16504525501,-0.71946129553
18,50,0.733106918853,6.21194188739,-0.666781369113
18,51,0.851293362867,6.2920988703,-0.494808007002
18,52,0.952506936908,6.39775545528,-0.231376344191
18,53,1.05657757256,6.49944218281,0.105743046713
18,54,1.16188369431,6.59941221522,0.474727401116
18,55,1.25936495134,6.66524786483,0.859751233909
18,56,1.35524566787,6.72410148159,1.2480558691
18,57,1.34803659461,6.86397937036,1.74497640934
18,58,1.34007093394,7.01591422426,2.22366121171
18,59,1.36365230791,7.253092688,2.48639223673
18,60,1.39993419764,7.50554642795,2.68975400432
18,61,1.47960951625,7.81019069498,2.69027080901
18,62,1.54863036553,8.1359333466,2.65823086831
18,63,1.59858532234,8.49943100225,2.56793148849
18,64,1.63779897791,8.85274430843,2.44492355874
18,65,1.66585820527,9.19548155941,2.2879490579
18,66,1.72425834313,9.49195046011,2.18445979982
18,67,1.80104691159,9.7603779364,2.11338584039
18,68,1.87894647575,9.95801954098,2.13242836399
18,69,1.9572071135,10.1326557373,2.18075874457
18,70,2.13057103947,10.3221508943,2.42246824745
18,71,2.31540133102,10.516062159,2.68292418178
18,72,2.46515867662,10.8409728119,2.63448633544
18,73,2.58124448342,11.1483675494,2.45425020146
18,74,2.50792788447,11.3572352633,1.53264869954
18,75,2.35171466476,11.5369057238,0.769857997075
18,76,1.98549667248,11.6426098092,0.409387986546
18,77,1.66613122007,11.7319863279,0.433950292951
18,78,1.41278525566,11.7983558208,1.00105813685
18,79,1.25973330534,11.8938969877,1.60295859215
18,80,1.18968329771,12.0135802297,2.23365293273
18,81,1.20576961043,12.1579041811,2.71679299017
18,82,1.26253140776,12.3138640231,3.13025463613
18,83,1.37009796577,12.4556172551,3.29100317085
18,84,1.48947958441,12.5940666243,3.39298121459
18,85,1.54143060909,12.798154993,3.25432873359
18,86,1.58455994338,13.0026129374,3.09986967804
18,87,1.56918505693,13.1633535188,2.92864351989
18,88,1.56431589805,13.2864130921,2.72804060994
18,89,1.59955951712,13.2655997251,2.41527192037
18,90,1.64959260179,13.2213009297,1.98117367479
18,91,1.72838298068,13.1313360235,1.31115684808
18,92,1.76618240769,13.1605194341,0.654442375316
18,93,1.7580719686,13.3231489596,0.0126265389765
18,94,1.77079445548,13.6174767597,-0.314153075415
18,95,1.79718855001,13.9982315526,-0.434190169152
18,96,1.8242243178,14.3770264382,-0.450734708299
18,97,1.85149042983,14.7551177674,-0.430128074005
18,98,1.92545787013,14.945539053,-0.587160988877
18,99,2.00653203429,15.1074018536,-0.771226009057
19,0,2.00653203429,15.1074018536,-0.771226009057
19,1,1.91543916332,14.867129464,-1.15140977153
19,2,1.8196509526,14.616358153,-1.53246787597
19,3,1.49379109427,13.8511396904,-1.95636873724
19,4,1.16067167684,13.076454329,-2.36933999201
19,5,0.653322841314,12.0745633943,-2.520000691
19,6,0.121137161152,11.0997393971,-2.63498188018
19,7,-0.800159084888,10.5489640873,-2.19098408223
19,8,-1.70995176983,10.0312328534,-1.74056126294
19,9,-2.48745350222,9.89350849239,-1.21625069828
19,10,-3.21593106276,9.78794262501,-0.724524764987
19,11,-3.50319107672,9.97180320072,-0.526060513937
19,12,-3.75296136567,10.1706948195,-0.376355632756
19,13,-3.72780700452,10.4798140872,-0.584219463935
19,14,-3.70538199129,10.7945489375,-0.813400077588
19,15,-3.69972297245,11.1437795088,-1.17352664073
19,16,-3.69853972868,11.4960550949,-1.48990576599
19,17,-3.720854304,11.8643170079,-1.57661084239
19,18,-3.72208917539,12.1876279501,-1.59872633167
19,19,-3.6272942844,12.3061622471,-1.32660036854
19,20,-3.50117190212,12.368317905,-1.02467220758
19,21,-3.24973955465,12.2049590062,-0.603535255362
19,22,-3.01857266317,12.0163945211,-0.178701549794
19,23,-2.85925602476,11.7384647754,0.259238826733
19,24,-2.6530666249,11.3905828745,0.618522553232
19,25,-2.29844681376,10.8211858153,0.728726887979
19,26,-1.88460814232,10.3053109563,0.756633678426
19,27,-1.30222348386,9.94176851315,0.550308996637
19,28,-0.723699005998,9.63751097572,0.334528959099
19,29,-0.155100706823,9.48570033858,0.0944351496396
19,30,0.36981390962,9.33430199908,-0.214140953338
19,31,0.792799933021,9.18386568739,-0.682509074522
19,32,1.09845720514,9.08980076841,-1.1889368395
19,33,1.15479088077,9.11552505892,-1.77624134753
19,34,1.18438564073,9.1111082048,-2.25750156433
19,35,1.16207544675,9.04818206993,-2.53291109815
19,36,1.13110443914,8.90526347543,-2.62500680328
19,37,1.08473642951,8.62013606384,-2.39121125742
19,38,0.985181897296,8.30741437767,-2.09488192025
19,39,0.798849354563,7.94967045403,-1.69652376569
19,40,0.609581397249,7.56564524372,-1.37669106521
19,41,0.415910318062,7.1421981034,-1.17464654584
19,42,0.216273442726,6.75240068204,-1.03454360189
19,43,0.00839808699497,6.40907192019,-0.979979024001
19,44,-0.209505241149,6.14659338209,-0.962854262507
19,45,-0.440171443272,5.98701512875,-0.993380176427
19,46,-0.593116197118,5.85241434092,-1.02377167143
19,47,-0.654822729073,5.74713492564,-1.05400537031
19,48,-0.661286847978,5.66949532311,-1.04014046714
19,49,-0.607905019412,5.62179885105,-0.978502078412
19,50,-0.576000500814,5.65927975169,-0.836263840943
19,51,-0.565573292184,5.78193802501,-0.613425754729
19,52,-0.594263821859,5.95232920511,-0.377635592989
19,53,-0.659063033047,6.16678152991,-0.129889669223
19,54,-0.68099970661,6.30916133161,0.104040482137
19,55,-0.666423848124,6.39014602103,0.326201642188
19,56,-0.654010575497,6.43897796546,0.562232809194
19,57,-0.643296477475,6.46254703882,0.809161838807
19,58,-0.650773681061,6.48185266045,1.00608055375
19,59,-0.671423896156,6.49807095495,1.1667849029
19,60,-0.695573294316,6.51985701448,1.28485140444
19,61,-0.722055481186,6.54535491737,1.37449267426
19,62,-0.743038843493,6.6026330525,1.42168624101
19,63,-0.760651958487,6.67938939451,1.44286347362
19,64,-0.75122650513,6.79299144594,1.46202349499
19,65,-0.726591857076,6.92731920893,1.48004883503
19,66,-0.641423080953,7.07899496271,1.52693975982
19,67,-0.525070057036,7.23960756023,1.58870083433
19,68,-0.433708961632,7.50858412414,1.69396661117
19,69,-0.354108773763,7.82855549577,1.81970518912
19,70,-0.309030662509,8.31781666553,2.00815502883
19,71,-0.278747726948,8.87963060591,2.22348112358
19,72,-0.153308892254,9.5032185303,2.41545724756
19,73,0.00913501432483,10.1508296707,2.59835282734
19,74,0.260486514545,10.7718874266,2.71247310819
19,75,0.543075817936,11.383615615,2.80242909483
19,76,0.965732311203,12.5105130503,2.6888519615
19,77,1.43262054864,13.800095511,2.51100121135
19,78,1.52767669092,14.5949570332,2.27669902866
19,79,1.51785711405,15.2502818805,2.02647464706
19,80,1.3736191928,15.6864515859,1.62728194668
19,81,1.19577668545,16.0678325058,1.1908471666
19,82,1.01579747244,16.0265745057,0.895491422904
19,83,0.835349226485,15.8925421085,0.631104248164
19,84,0.808220308801,15.0164642728,1.28210714178
19,85,0.810295072694,13.9990444488,2.10747004841
19,86,0.753975555523,12.9485915214,3.08484486793
19,87,0.688149992596,11.8927611121,4.0869658128
19,88,0.546941301613,11.4937457969,4.39581911647
19,89,0.395453093167,11.1842961763,4.6101359236
19,90,0.23740190714,11.5430157292,4.56264173897
19,91,0.0786215013809,11.9759763015,4.48605744413
19,92,0.1259578842,12.6883336169,3.77727082928
19,93,0.191217466026,13.4249863013,3.01351009963
19,94,0.038442986692,14.321840884,1.83911524285
19,95,-0.128248560376,15.2289211197,0.638509697111
19,96,-0.650458667383,16.1270000614,-1.60057863736
19,97,-1.18748204772,17.0247039492,-3.88293708803
19,98,-2.05504407188,17.1803793667,-6.07710709422
19,99,-2.92935178265,17.3209113461,-8.26947733624
20,0,-2.92935178265,17.3209113461,-8.26947733624
20,1,-4.05288149011,16.3219897388,-6.76177915589
20,2,-5.05052504879,15.1639919523,-5.09567548628
20,3,-5.2209167726,12.9606364171,-2.38862145863
20,4,-5.11489772586,10.83068852,-0.329273912619
20,5,-4.23887724688,8.90523332888,-0.0742515654863
20,6,-3.34722712352,7.43129306955,-0.407220745345
20,7,-2.43176039919,6.64537556336,-1.63617701395
20,8,-1.72911244928,6.28451017036,-3.02505290915
20,9,-1.21648126225,6.30315559271,-4.55671418524
20,10,-0.832154538528,6.4431424429,-5.40700123277
20,11,-0.513812967374,6.64553345599,-5.90686724845
20,12,-0.495021845447,7.25562199748,-5.53552107309
20,13,-0.554684412603,7.97248846307,-4.93600027626
20,14,-0.524445271202,8.69430179271,-4.79291949946
20,15,-0.475835825742,9.39608980761,-4.69763253666
20,16,-0.243369895716,9.75739214971,-4.77790231044
20,17,-0.0275726436989,10.0963363191,-4.80197095274
20,18,0.116549292879,10.339140346,-4.58437472971
20,19,0.210565162338,10.5959773776,-4.29388564528
20,20,0.19847406613,10.8825313607,-3.84903520728
20,21,0.0960867310654,11.1924626988,-3.36709888769
20,22,-0.115408559285,11.5306416743,-2.84035046119
20,23,-0.384605234217,11.7622950332,-2.19875675534
20,24,-0.694751278851,11.9183495675,-1.47565994802
20,25,-0.862646528136,11.8204195273,-0.936346290646
20,26,-0.974390147678,11.6222324183,-0.46957861351
20,27,-0.965174559749,11.3144773472,-0.381236249894
20,28,-0.934455112714,10.9872435273,-0.360169497572
20,29,-0.815638607594,10.620691474,-0.560830762137
20,30,-0.699134727736,10.2613612014,-0.780814217097
20,31,-0.614017443615,9.96452448199,-1.11875349427
20,32,-0.51112111305,9.65584394492,-1.44328286276
20,33,-0.353520024196,9.31072089192,-1.72655097377
20,34,-0.243145026022,8.97792109149,-1.8557616901
20,35,-0.210693077471,8.66545465779,-1.73077770522
20,36,-0.161718588861,8.30632177389,-1.4907307756
20,37,-0.0968335061197,7.90225082681,-1.1398824918
20,38,-0.0131379329576,7.49427504802,-0.831405388447
20,39,0.0810693848515,7.08411715738,-0.546606297703
20,40,0.1752898822,6.7660704844,-0.341549517106
20,41,0.269514236975,6.4749831922,-0.159831949236
20,42,0.340303924332,6.38222688756,-0.145768942719
20,43,0.409818405166,6.3141957738,-0.154785888196
20,44,0.50906345498,6.34984034137,-0.307009180929
20,45,0.631956381599,6.36548141491,-0.482585385738
20,46,0.870461150371,6.28332762874,-0.772331382921
20,47,1.07387003966,6.20627929017,-1.01664901546
20,48,1.19611970763,6.14103729919,-1.15591355476
20,49,1.26928250597,6.1111022254,-1.22246406254
20,50,1.27841895262,6.1272196523,-1.19417018138
20,51,1.27572107674,6.15973845297,-1.00513012435
20,52,1.26395022024,6.20483164018,-0.692851332462
20,53,1.30705324821,6.24343691121,-0.261359898365
20,54,1.3738855235,6.27923659685,0.221682948581
20,55,1.41424607634,6.33854572709,0.733666032609
20,56,1.44919195866,6.40266360736,1.25156871059
20,57,1.42239067393,6.56391706231,1.85283695256
20,58,1.40075912708,6.7419914133,2.42700630617
20,59,1.4520030562,7.04497767923,2.70964164854
20,60,1.50944643153,7.371910292,2.8960656525
20,61,1.58807124807,7.78065958983,2.75376758354
20,62,1.65647875777,8.17778728333,2.57163227574
20,63,1.70660266576,8.55411842169,2.31820927738
20,64,1.73480532523,8.89450045625,2.09238607033
20,65,1.74024361125,9.19755072917,1.89522418503
20,66,1.77822837498,9.45113333336,1.81565910438
20,67,1.83593827671,9.67473553225,1.80736481443
20,68,1.95705326719,9.84972702048,1.96167677926
20,69,2.09877491152,10.0089200277,2.16883577688
20,70,2.21102075836,10.1956994643,2.64933577123
20,71,2.32013958105,10.3876215146,3.15662351392
20,72,2.46232227172,10.6638325468,3.24235521335
20,73,2.5827237709,10.927558849,3.19820480189
20,74,2.58060606787,11.1210585455,2.42346751659
20,75,2.48648024191,11.288100184,1.73310244809
20,76,2.15926717124,11.3881147423,1.25648032881
20,77,1.84650668266,11.4963091305,1.06828527105
20,78,1.55411119612,11.6160296427,1.28651016362
20,79,1.36982593494,11.7724155822,1.53460031413
20,80,1.27501120509,11.9591453235,1.8074065402
20,81,1.22120021542,12.1195293132,2.02333857737
20,82,1.18675210306,12.2674722535,2.21241335868
20,83,1.17061242425,12.4348034721,2.36131037314
20,84,1.15873052069,12.6066435926,2.50086372088
20,85,1.18345237916,12.7651799421,2.55628825105
20,86,1.20928912613,12.9178558758,2.595660183
20,87,1.22187949204,13.0085199871,2.5002224678
20,88,1.23207551748,13.0839753234,2.35921125521
20,89,1.23312951572,13.101360792,2.04419214349
20,90,1.26056554764,13.10530779,1.62016040408
20,91,1.33929997842,13.0831244287,0.984159666389
20,92,1.41703881928,13.1298276251,0.285824805748
20,93,1.49366259943,13.2536837659,-0.482324272593
20,94,1.6489787246,13.5356792052,-0.917268974454
20,95,1.85593670118,13.9214535589,-1.13354830425
20,96,2.02911924647,14.4359947603,-0.961085820806
20,97,2.19017727797,14.9967599583,-0.649074994146
20,98,2.40519772319,15.3668699174,-0.494909705001
20,99,2.62842984005,15.7079671228,-0.364764388956
21,0,2.62842984005,15.7079671228,-0.364764388956
21,1,2.66663800011,15.6078225816,-0.576437628921
21,2,2.68003282559,15.4462818293,-0.811470664906
21,3,2.46018230599,14.7076166919,-1.26608578349
21,4,2.18328903943,13.9041036406,-1.70369728418
21,5,1.66681623563,12.8282293508,-2.06989358975
21,6,1.10400721546,11.8049254592,-2.29300867008
21,7,0.426902194888,10.9112952162,-2.16319006146
21,8,-0.269557828887,10.2000926114,-1.87613398097
21,9,-0.99698585779,9.78077422748,-1.33749794547
21,10,-1.71228753063,9.56226221058,-0.860545658409
21,11,-2.41449273893,9.56062107004,-0.450211819674
21,12,-2.81126467207,9.62478466628,-0.307501461693
21,13,-2.98405220343,9.73720506948,-0.361048322931
21,14,-3.01625141198,9.86974758903,-0.548077989934
21,15,-2.98016486373,10.0120637079,-0.799942162594
21,16,-3.04566752898,10.22176972,-1.04408052308
21,17,-3.14164695828,10.4516926999,-1.28590113992
21,18,-3.1756639553,10.6293153162,-1.47897729705
21,19,-3.20004235175,10.7988023204,-1.66447098266
21,20,-2.98464266063,10.7534682019,-1.53142329684
21,21,-2.75006395322,10.6892137341,-1.37317366847
21,22,-2.35888299708,10.4562766937,-1.01140600783
21,23,-1.99148463366,10.2033468018,-0.651136610822
21,24,-1.75489053031,9.8404562267,-0.299107663713
21,25,-1.52618759716,9.47164099404,-0.00603734320753
21,26,-1.32115817464,9.08505178873,0.110157097487
21,27,-1.06677741499,8.86498949696,0.149993614173
21,28,-0.719177462989,8.9594780419,0.0455984966184
21,29,-0.295172706777,9.05116350792,-0.0877284389479
21,30,0.225168541705,9.13931465704,-0.257534623312
21,31,0.648452506627,9.24373155645,-0.574398085621
21,32,0.988544514212,9.36209052752,-1.01731064331
21,33,1.15477055072,9.56828239814,-1.49335387384
21,34,1.22089193723,9.82504472606,-1.98847234025
21,35,1.27319994947,9.88628389118,-2.29387083931
21,36,1.32041882383,9.87548820684,-2.52937250829
21,37,1.23016555889,9.62498999536,-2.44580132818
21,38,1.11113905549,9.32432148749,-2.29544745873
21,39,0.813196982165,8.90193259018,-1.93186827682
21,40,0.500795031618,8.46989178834,-1.55127188161
21,41,0.211330514897,8.06291551082,-1.20900518531
21,42,-0.078665924847,7.67516622524,-0.88954028667
21,43,-0.372740441107,7.43482387785,-0.744889170022
21,44,-0.647620607159,7.22345670113,-0.621191283207
21,45,-0.850958195163,7.12008788776,-0.575591798498
21,46,-1.04461872494,7.04806971256,-0.51489804901
21,47,-1.2165058737,7.04659047322,-0.420242203768
21,48,-1.31013840826,7.05366767607,-0.288576444822
21,49,-1.2882522266,7.0733758174,-0.102277003742
21,50,-1.25506768984,7.0784350132,0.0975986684507
21,51,-1.21058479799,7.06884526348,0.311050571757
21,52,-1.20198682578,6.98861697051,0.600322522861
21,53,-1.21769799267,6.86053676113,0.94095644183
21,54,-1.23246632517,6.75099574513,1.16029373314
21,55,-1.24681562015,6.64969437064,1.32572141215
21,56,-1.25132539696,6.61099835386,1.31143355272
21,57,-1.25319530304,6.58909889646,1.24892932933
21,58,-1.22376650263,6.51589985834,1.19172595503
21,59,-1.19025526224,6.43600957056,1.13521399583
21,60,-1.15276648946,6.32421674978,1.22495852429
21,61,-1.11066121234,6.21601163599,1.32020768915
21,62,-1.01409377306,6.15836548428,1.44709919952
21,63,-0.904279288685,6.11730907068,1.55372331167
21,64,-0.731173366688,6.15551473915,1.563514299
21,65,-0.540998384708,6.22079902963,1.55668115839
21,66,-0.304493097063,6.35958243704,1.50472538477
21,67,-0.0413040177282,6.53088518674,1.50526516166
21,68,0.268230594542,6.7586688994,1.59698142101
21,69,0.553959087715,7.0767961029,1.7074109924
21,70,0.811913775272,7.50032404571,1.83967276118
21,71,0.978879015128,8.1250226276,1.95133299591
21,72,1.07368021025,8.90927033703,2.04665408296
21,73,1.11364345634,9.80370847458,2.1344338114
21,74,1.12457484705,10.7564827211,2.21822105587
21,75,1.18551548311,11.6968574789,2.28294851324
21,76,1.26312586762,12.6330990738,2.34132270824
21,77,1.42345662099,13.4805204034,2.29399935729
21,78,1.59882744144,14.3117925938,2.2274582707
21,79,1.67284646503,15.0055488361,2.09445761907
21,80,1.7324784286,15.6816645037,1.95641053175
21,81,1.58756419255,16.1272493998,1.79392637643
21,82,1.44762877505,16.5013777793,1.63174984044
21,83,1.33970004814,16.4161428379,1.47155085724
21,84,1.28935622462,16.1393384785,1.48047420192
21,85,1.43096207906,15.2239693921,2.05313863953
21,86,1.54965281525,14.2457832097,2.71409548667
21,87,1.62116536684,13.1382677119,3.55683082404
21,88,1.63843995221,12.318261709,4.15129368382
21,89,1.58175367457,11.8903141082,4.40720316509
21,90,1.44991410236,11.836350857,4.4628889831
21,91,1.2484881463,12.1286694112,4.3331825203
21,92,1.11792043312,12.7578153942,3.86685557724
21,93,1.03163912175,13.5974785202,3.190140834
21,94,0.948361796642,14.6409009199,1.51182316748
21,95,0.8663023038,15.7669284305,-0.572549738221
21,96,0.0946578861377,16.8767407739,-3.66232833473
21,97,-0.841173418387,17.9826923632,-6.99148923858
21,98,-2.48571660326,18.2652499918,-8.71009557637
21,99,-4.20565466902,18.4602125181,-10.257366322
22,0,-4.20565466902,18.4602125181,-10.257366322
22,1,-5.3430247449,16.7729469521,-6.99877078924
22,2,-6.4059761949,15.0383723031,-3.7920650512
22,3,-6.76939256168,12.8590922744,-1.07312338376
22,4,-6.90181234258,10.7628623042,1.07766175772
22,5,-6.06404646277,9.01544257912,0.842189490131
22,6,-5.10867947644,7.50010629512,0.213481751183
22,7,-3.86322976071,6.55724249902,-1.38520681713
22,8,-2.89183375652,5.90962049437,-2.82297594004
22,9,-2.35892369078,5.73438535604,-4.00327395031
22,10,-2.01847064497,5.81254012352,-4.66690932465
22,11,-1.88587118067,6.16435598928,-4.77254905217
22,12,-1.96155348738,6.79093488441,-4.68190451175
22,13,-2.18997575951,7.61900666775,-4.44731817483
22,14,-2.19867060729,8.25982716004,-4.36951806059
22,15,-2.10064070611,8.80969702524,-4.36787125452
22,16,-1.83010944847,9.11464530486,-4.26041286701
22,17,-1.50782778388,9.34611710881,-4.12121100506
22,18,-1.33713388385,9.64313253691,-3.86034013227
22,19,-1.19002030275,9.95034363988,-3.58054296889
22,20,-1.34771503509,10.4323438966,-3.2371393934
22,21,-1.52456718304,10.917809901,-2.8808444911
22,22,-1.81518235474,11.3456875372,-2.35554744004
22,23,-2.09004032366,11.7202867774,-1.80435532813
22,24,-2.27823367734,11.8018548394,-1.1107403815
22,25,-2.35379233628,11.7822752602,-0.511445351902
22,26,-2.091446911,11.4592527571,-0.19511007339
22,27,-1.77866489407,11.1333205389,-0.0633421438589
22,28,-1.37061375959,10.8018921921,-0.280201429069
22,29,-0.987251998755,10.5304830744,-0.592349761455
22,30,-0.635020317741,10.3347503759,-1.02464515332
22,31,-0.336610138205,10.1220319476,-1.42222945583
22,32,-0.0843326742211,9.89475432227,-1.79006139603
22,33,0.0829595649669,9.62439983115,-1.96654160573
22,34,0.201320917151,9.32924350822,-2.03284960697
22,35,0.199657413161,9.0745747463,-2.00457751791
22,36,0.153774225317,8.83482245422,-1.94146013243
22,37,0.0896885861025,8.489015941,-1.75158887146
22,38,0.0217931314843,8.12101203266,-1.53518772956
22,39,-0.0159751364432,7.72735561069,-1.24086539233
22,40,-0.0496078414825,7.33271924432,-0.945061189452
22,41,-0.000367382652329,6.99712889635,-0.904846918527
22,42,0.0557966645425,6.66633698353,-0.88411308098
22,43,0.165041555867,6.37233307365,-1.01272923266
22,44,0.252376201448,6.10732302383,-1.1302312483
22,45,0.258045385621,5.95038099783,-1.20630784781
22,46,0.295581604267,5.80556358754,-1.27439246982
22,47,0.404818650477,5.68802656259,-1.32449514247
22,48,0.498969539079,5.62828695998,-1.30085926409
22,49,0.570850385497,5.65386736178,-1.16837123897
22,50,0.691855959039,5.6622483707,-0.955269013141
22,51,0.861986259704,5.65342998673,-0.661552586617
22,52,1.0183527391,5.78291468175,-0.405088869582
22,53,1.16539533958,6.00608855929,-0.173860858973
22,54,1.27776037261,6.29910845809,0.00678216841783
22,55,1.37471315345,6.62317103299,0.164942981046
22,56,1.41479316564,6.86571240681,0.326971997067
22,57,1.43961463014,7.08638223886,0.490038823754
22,58,1.4322788371,7.13957159737,0.870501541602
22,59,1.42074861917,7.17091567673,1.27932024525
22,60,1.3769065585,7.23389761762,1.90409408294
22,61,1.33729751878,7.30538438069,2.51546546609
22,62,1.35608751716,7.47148480719,2.91519442207
22,63,1.37112276235,7.66590082011,3.24091131677
22,64,1.36821863124,7.99560241252,3.21301502981
22,65,1.37017966335,8.34425813491,3.13356003486
22,66,1.38534613848,8.74436078153,2.91415997538
22,67,1.57296672458,9.34985941968,3.03316686263
22,68,2.06011287182,10.3120984642,3.7399331837
22,69,2.52390583951,11.004486357,4.12719473125
22,70,2.96045343108,11.3820479063,4.1417007097
22,71,3.17817253837,11.5233827304,3.51130984241
22,72,3.22233802022,11.4773653243,2.36944906297
22,73,2.94181249225,11.2750500058,1.53835931093
22,74,2.48939172378,10.9899887338,0.871795396932
22,75,2.13020024182,10.8563716415,0.862323075979
22,76,1.8020851887,10.7732359423,1.07188128604
22,77,1.58286122924,10.8817764084,1.45158839737
22,78,1.38343565046,11.0251670864,1.86223167257
22,79,1.27390567237,11.2489196642,2.16325695713
22,80,1.17530141197,11.4779574081,2.45432451284
22,81,1.21224478639,11.716121397,2.6642314861
22,82,1.26653269022,11.952607716,2.85929049225
22,83,1.43232114016,12.1783090141,2.95889828126
22,84,1.59442100562,12.3997154103,3.02683464042
22,85,1.74422558944,12.606805467,2.98919956674
22,86,1.83400461197,12.8108904791,2.96406079908
22,87,1.80020159656,13.0087886348,2.96464972028
22,88,1.75906553673,13.1454398489,2.89716284611
22,89,1.70792987087,13.1985725062,2.73684534188
22,90,1.63588584637,13.2392498147,2.26797616322
22,91,1.54448223055,13.2683943928,1.51341098973
22,92,1.46147308515,13.4727182738,0.654280318698
22,93,1.38371048377,13.7865292192,-0.270203788295
22,94,1.43114545451,14.207691183,-0.720849325979
22,95,1.52933619772,14.6723738299,-0.979398146378
22,96,1.61308747657,15.1429791906,-0.874342190354
22,97,1.69340078772,15.6149947213,-0.682713668516
22,98,1.70502419736,15.815772809,-0.69016348187
22,99,1.70934017068,15.9876958495,-0.718791841522
23,0,1.70934017068,15.9876958495,-0.718791841522
23,1,1.8654180288,15.3842677388,-1.30198996877
23,2,2.00484954275,14.7538552906,-1.90079693585
23,3,1.87793954993,13.6916934433,-2.74934534026
23,4,1.68121842181,12.6475209991,-3.51639567413
23,5,0.960913779061,11.7382690783,-3.67221047894
23,6,0.207535219771,10.8810917288,-3.65856902964
23,7,-0.700188283362,10.2669290454,-2.85413172783
23,8,-1.59208494885,9.76211155013,-2.02387415073
23,9,-2.432544392,9.61266591596,-1.10970067894
23,10,-3.18093346481,9.57707665498,-0.339092177626
23,11,-3.7083536488,9.81474268969,0.0869603945231
23,12,-4.02025179172,10.0605692937,0.361857320032
23,13,-3.93702619266,10.3213569413,0.359635560035
23,14,-3.89336633257,10.6463213306,0.238339459547
23,15,-3.90622895672,11.0629667793,-0.0530628416423
23,16,-3.85318244704,11.4249821344,-0.401936373454
23,17,-3.72598816181,11.7255386343,-0.815465039717
23,18,-3.46540242106,11.8837738867,-1.13313374217
23,19,-3.08624649764,11.9155013636,-1.36559358791
23,20,-2.76909794446,11.8943264583,-1.3216200464
23,21,-2.49535455047,11.8361198855,-1.08414313381
23,22,-2.22160800596,11.6681397425,-0.710244001429
23,23,-1.947859743,11.4402831068,-0.261932749162
23,24,-1.4804971959,11.0413517242,0.121752456894
23,25,-0.932462030417,10.5711391972,0.478510143696
23,26,-0.297165514859,10.202985323,0.616121003556
23,27,0.364980646876,9.86623411129,0.68630207051
23,28,0.832443019452,9.70333184083,0.52937370216
23,29,1.25818743721,9.57768291493,0.323779026246
23,30,1.49223739872,9.59287628375,-0.261891066046
23,31,1.70072809941,9.62684862519,-0.898237880523
23,32,1.79530145743,9.69543971899,-1.58549646232
23,33,1.88275498154,9.76619448482,-2.27593702957
23,34,1.76113414742,9.71754240349,-2.57594314721
23,35,1.63253645726,9.65495156305,-2.84703991322
23,36,1.3923090705,9.36934057677,-2.65558705313
23,37,1.14228818633,9.07504478124,-2.44530124537
23,38,0.818816071634,8.71561291639,-2.09376833005
23,39,0.483643077696,8.36245821124,-1.75843365446
23,40,0.0938659806308,8.03859691802,-1.49869076426
23,41,-0.261976196423,7.72291435609,-1.28447591586
23,42,-0.507529883443,7.43381267083,-1.21822720326
23,43,-0.715054967469,7.15468997388,-1.16219445038
23,44,-0.831311404312,6.89951684887,-1.1306800008
23,45,-0.93400938614,6.70905638882,-1.06758284159
23,46,-1.01185020044,6.63723581454,-0.946584048062
23,47,-1.06179467529,6.59622679331,-0.741334915769
23,48,-1.07188723665,6.59923427642,-0.415728156671
23,49,-1.07385566574,6.59020819573,-0.0784890154773
23,50,-1.06668444603,6.56764435575,0.271836555574
23,51,-1.07116786943,6.51953033678,0.555813992874
23,52,-1.08601097558,6.44870504757,0.780815311283
23,53,-1.11245483337,6.39517316152,0.887566250094
23,54,-1.14701921729,6.35374665766,0.911541923186
23,55,-1.15426466116,6.30755650473,0.81669327894
23,56,-1.14660886501,6.25876799776,0.65703137069
23,57,-1.11863979865,6.21112417554,0.524836326186
23,58,-1.0822068697,6.16395730529,0.404085808243
23,59,-1.04440928246,6.08687941218,0.380870934032
23,60,-1.00619180036,6.00059812742,0.387667027123
23,61,-0.952941104108,5.90624812585,0.444229178952
23,62,-0.896469004818,5.81016911354,0.511455486224
23,63,-0.811116567162,5.80135392927,0.569284154485
23,64,-0.721913417723,5.80417392209,0.625859804211
23,65,-0.548800264355,5.84380264262,0.651779699223
23,66,-0.370442735743,5.88573190864,0.675783609565
23,67,-0.112746528503,6.0432562993,0.73120507703
23,68,0.145233811816,6.20885184553,0.792930952266
23,69,0.407760281421,6.5035858808,0.955527351823
23,70,0.652100905182,6.83038356813,1.13262007318
23,71,0.760047685113,7.39765864598,1.41843520803
23,72,0.830982906807,8.01747847845,1.70800244064
23,73,0.729197523395,8.88250716584,2.01507946279
23,74,0.614860094461,9.77876246422,2.30453146057
23,75,0.459728517581,10.7765042483,2.53670212914
23,76,0.356436486477,11.7515212149,2.74991092824
23,77,0.377559365236,12.6719986195,2.91761124062
23,78,0.428674003183,13.5427505913,3.04253884252
23,79,0.534773532977,14.3223392695,3.08904980856
23,80,0.647536032225,15.0036148133,3.04722602207
23,81,0.769817059265,15.5444430223,2.87920973196
23,82,0.832814777872,15.9828838947,2.62676854133
23,83,0.829118774492,16.3061390135,2.27934933761
23,84,0.853074621022,16.3536730417,2.03960657898
23,85,0.901609889695,16.1561216559,1.895576216
23,86,0.944920379224,15.6555623202,1.98608602349
23,87,0.984573523351,14.9428974195,2.24077395032
23,88,0.882631375144,14.2656731339,2.61693696865
23,89,0.703455431117,13.6077800928,3.0593591278
23,90,0.341095668792,13.4599239586,3.25130167821
23,91,-0.0975906844921,13.5245832022,3.33887772497
23,92,-0.223793619851,14.000004216,2.89792193872
23,93,-0.253847811233,14.6018134666,2.29434097308
23,94,-0.0634347633701,15.581691827,1.53653768764
23,95,0.174221264331,16.6425849966,0.745686762243
23,96,0.359844086606,17.7479622579,-0.537521508981
23,97,0.538529148158,18.8592707315,-1.88637742632
23,98,0.263197103394,18.9250862622,-3.81260303394
23,99,-0.040511010515,18.9255584839,-5.7749142472
24,0,-0.040511010515,18.9255584839,-5.7749142472
24,1,-1.17998044375,17.2808372703,-4.68123106219
24,2,-2.25543622283,15.524058338,-3.33357007553
24,3,-3.01082373113,13.2069908117,-0.716020080629
24,4,-3.43098857195,11.0033428107,1.04733392532
24,5,-3.18070807783,9.02653386011,1.10229595338
24,6,-2.57042485767,7.39517715879,0.482884717839
24,7,-1.60013891147,6.10927270675,-0.810899781284
24,8,-1.00593681175,5.58592989477,-2.24038791105
24,9,-0.59977663527,5.44386790284,-3.73772785613
24,10,-0.361022437271,5.44865470019,-4.5053494012
24,11,-0.155749434969,5.4828112554,-5.12702726628
24,12,-0.0283543851202,5.85308284983,-4.88577726889
24,13,0.0519598651126,6.30793061542,-4.62081447316
24,14,-0.103129882732,7.18565923685,-4.23728768572
24,15,-0.223207113818,7.99812187424,-3.94842565095
24,16,-0.273259311387,8.68005254353,-3.84889312156
24,17,-0.272997674331,9.26402977536,-3.80932634767
24,18,-0.222422202651,9.75005356974,-3.82972532931
24,19,-0.248177214113,10.2588692741,-3.81547749008
24,20,-0.312097467146,10.7790809334,-3.78390624043
24,21,-0.431631859413,11.3404683666,-3.85852066854
24,22,-0.562289079526,11.9100909546,-3.9543722322
24,23,-0.755879515161,12.2327896658,-3.80560857741
24,24,-0.938679529599,12.4911206006,-3.56432085962
24,25,-1.06752743805,12.427612654,-2.86041282678
24,26,-1.12110574901,12.2476960611,-2.18468067266
24,27,-1.02414486498,11.8349621758,-1.565300276
24,28,-0.888626706172,11.4153217847,-1.16533539736
24,29,-0.714551272576,10.9887748877,-0.984786036765
24,30,-0.516882256123,10.6067002902,-0.979850134177
24,31,-0.30741644824,10.2468618423,-1.06272096059
24,32,-0.170721749676,9.89328657859,-1.20246738052
24,33,-0.0485812729742,9.54096395176,-1.35358891916
24,34,0.0103570286103,9.16244991136,-1.44218483562
24,35,0.081647046178,8.77866507209,-1.52373705512
24,36,0.214695643662,8.36852623846,-1.57007078984
24,37,0.292416858428,7.9957131015,-1.55543601666
24,38,0.259483307757,7.69755135785,-1.4188642277
24,39,0.211027967022,7.45098464607,-1.26974191016
24,40,0.147050836223,7.25601296615,-1.10806906405
