time,acc_x,acc_y,acc_z,gravity_x,gravity_y,gravity_z
1419803734245,-2.554613,6.3111157,3.5817258,-2.1118984,6.4413257,7.0865793
1419803734246,-2.071583,6.3404446,5.796961,-2.1212428,6.4438663,7.0814757
1419803734270,-1.204882,6.1716533,7.789535,-2.1019297,6.4173956,7.11121
1419803734270,-0.5153519,5.9986725,9.308058,-2.0459375,6.3584414,7.1801643
1419803734271,-0.23942018,6.005256,10.1621895,-1.9643799,6.278632,7.2725773
1419803734286,-0.350152,5.9142766,10.064626,-1.8812865,6.1957755,7.36502
1419803734287,-0.6955156,5.7245364,9.208099,-1.8176275,6.1166353,7.4467025
1419803734302,-1.2838906,5.465364,8.052897,-1.7716755,6.059485,7.504278
1419803734316,-1.9153614,5.3899465,6.831256,-1.755939,6.0263915,7.5345645
1419803734318,-2.2888567,5.6670756,5.7424927,-1.763528,6.0124335,7.5439377
1419803734333,-2.4061728,5.9358244,4.9302597,-1.7815704,6.0107155,7.5410666
1419803734338,-2.433706,6.0040593,4.797382,-1.7965817,6.013846,7.535008
1419803734352,-2.360683,5.7604494,5.1541176,-1.7984483,6.011299,7.5365944
1419803734373,-2.2661119,5.2846017,5.762245,-1.7812691,6.000189,7.5495167
1419803734373,-2.3654714,4.995502,6.3224883,-1.753545,5.9684176,7.5811257
1419803734378,-2.4785974,4.903325,7.04434,-1.7106893,5.9202495,7.6285367
1419803734387,-2.1703439,4.9422307,7.4812818,-1.6520798,5.865874,7.6832643
1419803734411,-1.2797008,5.071518,7.5788455,-1.5654612,5.8171782,7.738227
1419803734412,-0.18016368,5.033809,8.866327,-1.4368286,5.7831287,7.7885394
1419803734418,0.19871874,5.04159,11.764508,-1.2660929,5.7522845,7.8408303
1419803734445,1.4556746,5.4857144,10.355521,-1.0714238,5.7208815,7.892652
1419803734446,1.9422961,6.0118403,8.859743,-0.84185356,5.725969,7.916752
1419803734447,2.3720553,6.9731126,8.240842,-0.6177866,5.7665715,7.9079313
1419803734480,2.4893713,7.811083,7.991845,-0.46136707,5.8208404,7.8787904
1419803734481,1.6394296,7.4327993,7.630321,-0.37869874,5.8683877,7.8478665
1419803734482,0.14903906,6.3260794,7.751827,-0.34549642,5.8934245,7.830617
1419803734486,-1.0474633,5.6030307,8.095993,-0.34598684,5.899484,7.8260317
1419803734510,-1.4556746,5.5539494,7.6375036,-0.38021207,5.8793287,7.8395996
1419803734511,-1.3156139,5.6030307,7.231686,-0.4291573,5.845059,7.8626647
1419803734518,-1.4867992,5.267244,7.0209966,-0.47189578,5.8038964,7.890659
1419803734545,-1.8782512,4.812944,6.5864487,-0.5075392,5.755118,7.9241033
1419803734545,-1.9937714,5.0679264,6.329072,-0.5314795,5.6982408,7.9635396
1419803734546,-2.5629928,5.78918,7.33763,-0.5403895,5.638925,8.0050535
1419803734572,-1.6723499,4.334702,7.914034,-0.53280926,5.5690227,8.054346
1419803734573,-2.0207062,2.9951463,6.7989345,-0.46611574,5.4789214,8.120008
1419803734580,-2.2667105,2.11827,5.8639984,-0.32177535,5.387847,8.187671
1419803734586,-1.7256209,1.9261353,5.2528787,-0.10569515,5.3124695,8.242383
1419803734611,-0.5506664,1.9937714,4.317344,0.15596214,5.2622595,8.273735
1419803734612,0.5243302,2.7431567,3.697246,0.46319327,5.2260675,8.285171
1419803734618,1.2162545,3.788824,3.9366663,0.80190396,5.1875677,8.283506
1419803734643,2.2200236,4.9158945,4.0521865,1.174139,5.134433,8.272205
1419803734644,3.8660371,5.525219,3.9318779,1.5774966,5.0574484,8.252521
1419803734647,6.3703723,4.5783124,4.63278,2.0256846,4.9497414,8.219918
1419803734676,5.774216,3.288436,4.670489,2.5232716,4.7980485,8.172039
1419803734677,3.833117,1.7986441,6.9467764,3.0118532,4.603065,8.118554
1419803734678,3.496133,0.3812766,7.5854297,3.4699645,4.3722324,8.063084
1419803734687,4.348469,1.3772645,8.94773,3.902703,4.1105757,8.002654
1419803734711,4.509479,2.7868507,10.001179,4.3263083,3.8396792,7.918984
1419803734712,3.66672,2.8933928,9.596559,4.7340617,3.5762029,7.808317
1419803734719,2.2984335,2.2637177,8.510789,5.0987463,3.3436096,7.680719
1419803734742,1.5442601,1.5598224,6.9120603,5.4124923,3.1700487,7.5383096
1419803734743,1.7340006,1.0965444,5.4246626,5.6824613,3.0613422,7.3829675
1419803734747,2.7581203,0.82599956,4.635773,5.9346285,2.9752042,7.2179446
1419803734767,4.249708,0.29867667,4.608838,6.1878057,2.9098926,7.029507
1419803734768,5.6323595,-0.3465607,5.3342814,6.462599,2.832556,6.8104215
1419803734783,6.165668,-0.3866636,6.1955953,6.76765,2.7257385,6.5528355
1419803734786,5.865794,-0.23463176,6.830059,7.1046953,2.5896463,6.2439914
1419803734808,5.1984105,-0.17477672,7.2753806,7.464439,2.426965,5.8789773
1419803734808,4.9039235,-0.1921347,7.378331,7.820063,2.245269,5.475012
1419803734819,5.934029,0.33877954,7.8039002,8.15544,2.026985,5.054752
1419803734839,6.9928646,-0.57161564,7.7649946,8.454307,1.7609683,4.6469436
1419803734842,8.236652,-2.9215245,7.639898,8.709007,1.4333543,4.2742376
1419803734847,11.395802,-3.9492357,7.611766,8.915834,1.0421082,3.9487085
1419803734872,14.594455,-3.0364463,7.1766195,9.064658,0.6093927,3.692018
1419803734873,16.068087,-1.5544355,6.711546,9.14429,0.16710371,3.5389833
1419803734878,16.16146,-0.38726214,6.3967085,9.146798,-0.2520099,3.527459
1419803734887,13.611036,-1.0899603,5.023035,9.103728,-0.63834816,3.5895724
1419803734915,11.262923,-3.0304608,3.9163153,9.004112,-0.9939918,3.756105
1419803734916,10.494983,-4.0336313,3.2363622,8.874883,-1.3051102,3.962767
1419803734919,10.441113,-3.128623,2.553416,8.751785,-1.5628341,4.139348
1419803734945,10.856507,-0.35913026,2.208651,8.661271,-1.78769,4.2375603
1419803734946,11.468824,1.7711107,2.0087352,8.613133,-1.984332,4.248149
1419803734947,11.636418,1.6771383,1.2551602,8.584809,-2.1654687,4.216895
1419803734969,11.428721,0.24600422,0.6087258,8.590329,-2.3335745,4.114737
1419803734969,11.319786,-1.5939398,0.26635495,8.619762,-2.4789152,3.9654825
1419803734982,11.8818245,-3.0226796,0.023343466,8.655868,-2.6055398,3.8023014
1419803735007,12.734758,-3.5661635,0.35913026,8.684416,-2.7288802,3.6475377
1419803735008,13.068151,-3.6391866,1.685518,8.698668,-2.8547306,3.5148373
1419803735009,13.080122,-3.6553473,2.9999347,8.689252,-2.9808226,3.4324903
1419803735019,12.582129,-3.8726213,3.852869,8.667855,-3.111114,3.370407
1419803735039,11.643601,-4.0863037,3.8229415,8.626668,-3.2504427,3.3444922
1419803735041,10.281301,-4.210802,4.311359,8.56595,-3.4000013,3.3518462
1419803735047,9.123704,-4.1078515,2.6551697,8.478997,-3.5548651,3.4117358
1419803735068,8.900445,-4.0144777,0.48003745,8.375449,-3.7043545,3.5071325
1419803735069,9.670779,-3.8564603,0.14724341,8.266639,-3.8460598,3.6112213
1419803735083,10.869077,-3.6332011,0.6410475,8.162042,-3.9604378,3.7237628
1419803735108,11.295245,-3.654749,1.2970588,8.077984,-4.041817,3.818412
1419803735109,10.954071,-4.3568487,2.0452468,8.034185,-4.08791,3.8615077
1419803735109,10.433931,-5.719149,3.1890767,8.034351,-4.1031866,3.844923
1419803735142,9.872491,-7.3591776,5.3169236,8.065251,-4.1056237,3.7770314
1419803735143,8.614338,-8.866327,7.6614456,8.105073,-4.115293,3.68002
1419803735143,7.4669166,-9.320028,8.86513,8.130231,-4.142287,3.593217
1419803735147,7.467515,-8.477868,8.819042,8.140432,-4.181665,3.5238376
1419803735169,8.560468,-6.423643,7.00304,8.13436,-4.2238855,3.4873145
1419803735169,10.2417965,-4.176685,4.0479965,8.116494,-4.260232,3.484729
1419803735184,11.474212,-2.5091233,1.2485762,8.095951,-4.282789,3.5048091
1419803735200,11.7064495,-1.875857,-0.7326257,8.08706,-4.279377,3.5294175
1419803735201,11.552622,-2.0620062,-0.7044938,8.094511,-4.260813,3.5347903
1419803735218,11.118672,-2.966416,0.985214,8.120236,-4.216281,3.5291836
1419803735219,10.032902,-3.8720226,2.48578,8.168597,-4.153876,3.4913797
1419803735233,9.081805,-4.160524,3.064578,8.239201,-4.079593,3.4121635
1419803735248,8.755595,-4.0737343,2.8904,8.328671,-3.990506,3.2984033
1419803735249,8.1402855,-4.7937903,2.9095535,8.427391,-3.890078,3.164926
1419803735262,7.433996,-5.66109,3.7128084,8.524927,-3.7947783,3.0159028
1419803735267,6.973711,-5.3540335,4.309563,8.618255,-3.706707,2.855943
1419803735280,7.2430587,-3.5625722,3.6445735,8.70112,-3.6330054,2.6948452
1419803735306,7.699154,-1.8435353,1.8010383,8.7707815,-3.5826612,2.5314662
1419803735307,7.926005,-1.0187328,0.16400282,8.817437,-3.56312,2.3931923
1419803735308,9.20391,-0.7392098,-0.6841431,8.84018,-3.564242,2.3060308
1419803735342,9.336189,-1.0893618,-0.6697779,8.852419,-3.566098,2.2556624
1419803735343,9.464279,-1.4305356,-0.7870938,8.861725,-3.568694,2.2146447
1419803735344,10.357317,-1.525705,-0.46148238,8.878422,-3.563394,2.1555133
1419803735350,10.856507,-1.9835961,0.0688333,8.90925,-3.543868,2.0583062
1419803735374,11.23539,-2.7742813,0.32321724,8.947115,-3.5238452,1.9240743
1419803735377,9.304466,-5.305551,3.5009215,8.983536,-3.5116808,1.7704765
1419803735379,11.549629,-5.7640405,3.4859576,8.999344,-3.5274582,1.6550603
1419803735466,10.418368,-6.6983776,3.0412347,9.004975,-3.5458782,1.5835271
1419803735466,9.297882,-6.3380504,2.4612393,8.998769,-3.5793746,1.5429233
1419803735470,8.48146,-5.1702785,1.9207484,8.992317,-3.6136024,1.500169
1419803735470,8.802282,-3.7086184,1.7459716,8.993531,-3.6402924,1.4265549
1419803735471,8.814852,-2.8323407,2.758719,8.990761,-3.6760466,1.3502976
1419803735482,8.826823,-2.3953989,1.9027919,8.974682,-3.734268,1.2964327
1419803735482,8.370728,-2.2732944,0.0017956513,8.950172,-3.8044715,1.2612761
1419803735483,7.8170686,-1.8968062,-1.4257472,8.920929,-3.8755217,1.2521026
1419803735637,7.53156,-1.7579426,-1.887828,8.889089,-3.9422677,1.270044
1419803735637,7.875128,-2.4504654,-2.0147207,8.851274,-4.00987,1.3214661
1419803735638,8.511387,-3.6828809,-1.9674352,8.809584,-4.08786,1.3605279
1419803735638,7.9756846,-5.1475334,-0.54288524,8.765027,-4.182496,1.3606728
1419803735638,7.351995,-6.4110737,2.6384103,8.713653,-4.2971997,1.3329368
1419803735639,8.103774,-7.1832037,4.4316673,8.653435,-4.4265676,1.3015163
1419803735639,8.641273,-7.6105685,4.653131,8.586506,-4.563914,1.2700434
1419803735640,8.573038,-7.6560583,3.7104142,8.514353,-4.7079234,1.2294904
1419803735640,8.359954,-6.805518,2.7790697,8.44143,-4.849149,1.182541
1419803735641,8.934562,-5.2852,2.2361844,8.371722,-4.979506,1.1354169
1419803735641,9.719262,-3.8923733,1.5382746,8.303967,-5.1031704,1.0826708
1419803735642,9.782109,-3.132813,1.7310078,8.236007,-5.225508,1.0162065
1419803735642,7.662044,-4.024653,-1.2880806,8.167578,-5.344884,0.9451304
1419803735642,5.952584,-4.6657004,-2.5941176,8.091232,-5.472955,0.865532
1419803735643,6.0639143,-4.7417164,-1.9482816,8.010636,-5.5965123,0.82410514
1419803735643,7.315483,-4.9661727,-0.53330845,7.9115534,-5.7332773,0.84099317
1419803735644,8.761581,-5.707178,1.3269863,7.786811,-5.898045,0.8654554
1419803735644,10.0341,-5.879561,4.3879733,7.6540494,-6.069968,0.86105627
1419803735648,10.925341,-5.0302176,3.8827965,7.5288477,-6.225117,0.85716456
1419803735695,10.525509,-4.5525746,1.8100165,7.4316196,-6.3439617,0.8340157
1419803735696,8.767567,-4.414908,1.6041151,7.3562646,-6.434027,0.81182027
1419803735696,6.8468184,-5.12838,1.4987702,7.2906065,-6.502669,0.8560212
1419803735696,5.604826,-6.0848637,1.2737153,7.226279,-6.5615606,0.9472154
1419803735699,4.903325,-7.029975,1.3694834,7.15809,-6.6233106,1.031462
1419803735739,4.461595,-8.22109,1.7711107,7.073758,-6.7032304,1.0950006
1419803735740,4.2538977,-9.129091,2.4947581,6.974663,-6.801109,1.1266689
1419803735740,4.4520183,-9.57142,3.0538042,6.8309803,-6.937385,1.1750661
1419803735741,5.2008047,-9.368511,2.7970262,6.636024,-7.1132784,1.2388878
1419803735747,6.793547,-9.102157,0.50278234,6.3932877,-7.315736,1.332766
1419803735765,8.428787,-8.79929,-2.3959973,6.1222105,-7.523209,1.4457711
1419803735780,8.783728,-8.377911,-2.3289597,5.8517857,-7.7129126,1.5614018
1419803735781,7.2029557,-7.7727757,-0.41240123,5.5869923,-7.8800187,1.6915116
1419803735795,4.3209357,-7.5243773,0.45848963,5.351594,-8.020568,1.7892233
1419803735799,3.0819361,-6.991069,1.2366052,5.146215,-8.148037,1.8155864
1419803735812,4.008492,-4.0880995,2.7084408,4.944707,-8.278486,1.785202
1419803735831,4.727351,-2.520496,-1.525705,4.7131877,-8.422139,1.7389164
1419803735832,3.702633,-2.6180596,-3.2172086,4.4487796,-8.58222,1.6505265
1419803735848,2.3469162,-2.9993362,-2.348712,4.1755743,-8.742224,1.5193729
1419803735849,1.1330559,-3.7122097,-2.2331917,3.9019616,-8.892069,1.3697461
1419803735864,0.3728969,-4.3341036,-3.1860838,3.667817,-9.024753,1.1275433
1419803735867,0.13467385,-4.71538,-1.3210008,3.4776752,-9.136366,0.7765289
1419803735879,1.6891093,-4.4340615,1.2569559,3.3060462,-9.224659,0.3822545
1419803735896,2.77069,-3.654749,2.4408886,3.1147792,-9.298837,0.01298983
1419803735899,3.2908301,-3.0454245,2.8173769,2.881752,-9.368659,-0.30679333
1419803735913,3.2944214,-2.9700072,2.5031378,2.6228895,-9.429381,-0.61449766
1419803735928,2.4313118,-3.8534677,1.6813282,2.343289,-9.485012,-0.844951
1419803735928,2.0614076,-5.533599,0.7158663,2.0585186,-9.533456,-1.0227865
1419803735944,2.6013002,-15.159487,-1.3437457,1.7829741,-9.573775,-1.1550764
1419803735948,0.12868834,-19.591753,-2.6162639,1.5078996,-9.609709,-1.2450445
1419803735961,-2.8042088,-19.608511,-2.5462334,1.1910653,-9.644685,-1.3159727
1419803735979,-3.9354692,-19.608511,-1.6418238,0.8296301,-9.67346,-1.3806697
1419803735980,-0.7966706,-19.608511,-0.27234045,0.4479662,-9.692412,-1.423668
1419803735995,2.5121162,-19.608511,1.3221979,0.061448447,-9.699189,-1.4464772
1419803735999,2.0177135,-18.364723,0.8062474,-0.34938276,-9.695932,-1.4273137
1419803736012,0.74639237,-12.709022,-0.93373865,-0.7766157,-9.679028,-1.372467
1419803736028,0.45250413,-8.596381,-1.7441759,-1.097036,-9.659395,-1.2895766
1419803736028,0.29269117,-6.1985884,-1.9446903,-1.227024,-9.659721,-1.1638693
1419803736048,0.30166942,-4.7818193,-1.9566613,-1.273475,-9.668953,-1.029564
1419803736048,0.30885202,-4.24492,-1.881244,-1.2181267,-9.690454,-0.8841192
1419803736061,-0.046686932,-4.5884876,-1.9865888,-1.1086767,-9.715304,-0.74437374
1419803736078,-0.62847793,-5.7263317,-1.9991584,-0.9750755,-9.73865,-0.615064
1419803736079,-1.1803415,-7.0964136,-1.8441339,-0.83730423,-9.758036,-0.5000357
1419803736095,-1.3311762,-8.293514,-1.46585,-0.71265024,-9.7724285,-0.4026818
1419803736099,-1.1312603,-9.210494,-0.87089086,-0.62187576,-9.781516,-0.32498598
1419803736112,-0.760159,-9.86471,-0.14425065,-0.55503714,-9.787618,-0.2547063
1419803736133,-0.20051439,-10.1382475,0.6266823,-0.5484551,-9.789258,-0.19996378
1419803736133,0.28431144,-10.471041,1.210269,-0.60160106,-9.786995,-0.1522928
1419803736147,0.61890113,-10.957663,1.5999253,-0.6982815,-9.781228,-0.10183979
1419803736148,0.8074445,-11.215638,1.6166847,-0.8114333,-9.772957,-0.035913903
1419803736169,0.58298814,-11.028292,1.1210849,-0.91011494,-9.764185,0.05289865
1419803736169,-0.25917232,-10.656591,0.22744916,-0.99271137,-9.7551365,0.14912148
1419803736179,-0.6889315,-10.119094,-0.44711718,-1.0316575,-9.748585,0.26674598
1419803736193,-0.75357497,-9.565434,-1.0654198,-1.0179735,-9.745606,0.3965689
1419803736211,-0.5835867,-9.247005,-1.4065934,-0.97074413,-9.744522,0.52186143
1419803736212,-0.36152446,-9.264962,-1.4514848,-0.9206512,-9.7430525,0.6290788
1419803736228,-0.11432313,-9.314043,-1.3060371,-0.883843,-9.740846,0.71070963
1419803736229,0.073621705,-9.345168,-1.1330559,-0.8604969,-9.738725,0.76627636
1419803736246,0.25198972,-9.144054,-0.7727286,-0.84156686,-9.736792,0.81058455
1419803736248,0.45310268,-8.583213,-0.25857377,-0.8252473,-9.735858,0.8381284
1419803736262,0.6793547,-8.098986,0.30526072,-0.80193514,-9.736157,0.8570567
1419803736278,0.85891986,-7.773973,1.0552444,-0.76232004,-9.737842,0.8739006
1419803736279,0.83378077,-7.781754,1.6585833,-0.6975962,-9.740636,0.8965312
1419803736294,0.7715315,-8.106169,2.110489,-0.5997896,-9.744115,0.9289134
1419803736299,0.80564886,-8.49343,2.5851393,-0.4824068,-9.746725,0.9690242
1419803736311,0.86251116,-9.000402,2.8191724,-0.32880965,-9.747429,1.0246506
1419803736331,0.80804306,-9.343372,2.7072437,-0.14051615,-9.743551,1.1017525
1419803736331,0.7637503,-9.781511,2.5025394,0.07857114,-9.731909,1.2058941
1419803736345,0.78529817,-10.375273,2.4121583,0.32461452,-9.708777,1.3433766
1419803736348,0.97384155,-10.947487,2.224812,0.5903572,-9.67062,1.5169007
1419803736361,1.3437457,-11.874043,1.4221559,0.8681392,-9.615583,1.7196751
1419803736378,2.2541409,-12.843695,0.66738373,1.1490803,-9.546933,1.9251124
1419803736381,3.2662897,-13.165116,1.8854338,1.4394222,-9.465291,2.1229038
1419803736395,4.0839095,-13.053786,3.3022027,1.7290708,-9.377378,2.2902973
1419803736400,4.6800656,-12.382213,3.5110967,1.9963019,-9.299089,2.3900042
1419803736414,4.968567,-11.283873,2.8736405,2.2274399,-9.2404585,2.413053
1419803736434,5.009867,-10.157401,2.3612814,2.7046053,-9.147317,2.2764251
1419803736434,4.909311,-9.050082,2.2080526,2.7046053,-9.147317,2.2764251
1419803736440,4.7644615,-8.160637,2.307412,2.7046053,-9.147317,2.2764251
1419803736448,4.606444,-7.559692,2.344522,2.8196998,-9.132027,2.1967673
1419803736461,4.5034933,-7.339425,2.2296004,2.935969,-9.116318,2.1078987
1419803736476,4.6261964,-7.619547,2.1374235,3.0648847,-9.094277,2.0176733
1419803736480,4.8099513,-8.007407,2.094328,3.2109876,-9.061454,1.9364939
1419803736494,5.0158525,-8.085817,1.965041,3.3745024,-9.0157585,1.8706253
1419803736500,5.130774,-8.078635,1.7316064,3.5499713,-8.961404,1.8059149
1419803736512,5.205593,-8.010401,1.2360066,3.7344456,-8.895258,1.7603117
1419803736528,6.073491,-7.909844,1.3934253,3.9295266,-8.819379,1.7169168
1419803736529,6.8282633,-7.9786773,1.3239936,4.13645,-8.734027,1.6664199
1419803736544,7.131728,-7.8709383,1.0779893,4.346797,-8.6450205,1.593544
1419803736549,7.097611,-7.795521,0.6194997,4.561301,-8.550007,1.504097
1419803736562,7.001843,-7.7087307,0.18195933,4.7770486,-8.446794,1.4148656
1419803736576,6.6923923,-7.6608467,-0.12928689,5.005933,-8.326934,1.3316163
1419803736580,6.4805055,-7.5770497,-0.02873042,5.247798,-8.188773,1.2549884
1419803736594,6.555923,-7.268198,0.110731825,5.503441,-8.031329,1.1748475
1419803736608,6.9360023,-6.301539,-3.6936548,5.76343,-7.8604126,1.0803566
1419803736611,8.851962,-9.433753,-6.8719573,6.0170054,-7.6856165,0.94728553
1419803736628,11.103709,-8.744822,17.770962,6.2528667,-7.516861,0.75422615
1419803736629,11.30123,-7.0994067,3.8385038,6.456828,-7.364988,0.48653266
1419803736645,7.5082164,-12.254722,-19.353529,6.4509997,-7.308955,1.0649539
1419803736648,6.130952,-9.965266,-10.9834,6.5833735,-7.2442927,0.59145373
1419803736660,6.781576,-5.245097,0.52073884,6.2835865,-7.4541016,-1.0598466
1419803736676,6.3913217,-4.4077253,4.630386,6.352385,-7.448987,-0.5746312
1419803736680,6.405687,-6.6923923,4.707599,6.403051,-7.422245,-0.28568566
1419803736693,7.571663,-4.31914,3.515885,6.417432,-7.4147444,-0.09245295
1419803736710,7.273585,-3.0813377,2.730587,6.6271887,-7.2245917,0.2366393
1419803736711,7.1502833,-4.7441106,2.6515784,6.853523,-6.996081,0.5044541
1419803736729,7.6464815,-6.081272,2.585738,6.9837337,-6.841862,0.7660265
1419803736730,8.173206,-6.9970546,2.381632,7.079469,-6.7169967,0.96615976
1419803736745,8.429385,-7.513005,2.0560207,7.130969,-6.6412673,1.1014717
1419803736748,8.399458,-7.802105,1.6986861,7.1470184,-6.608044,1.1934216
1419803736760,8.1881695,-7.9325886,1.2587515,7.141397,-6.603839,1.2490543
1419803736776,7.9595237,-7.967903,0.26994625,7.118679,-6.629792,1.2412357
1419803736780,7.7147164,-7.792528,-1.2593501,7.087866,-6.6786413,1.1525203
1419803736793,7.4705076,-7.439383,-1.9387048,7.065238,-6.737089,0.9297595
1419803736808,7.359776,-6.9677253,-0.641646,7.0536346,-6.781128,0.6579925
1419803736809,7.1981673,-6.5625067,0.5566519,7.0604205,-6.786588,0.51292557
1419803736825,7.056311,-6.323685,1.079785,7.0793037,-6.768931,0.48524553
1419803736828,7.0754647,-6.278794,1.3096284,7.105363,-6.740147,0.5046055
1419803736844,7.177817,-6.5457473,1.3467385,7.1337543,-6.706749,0.547237
1419803736860,7.3484035,-6.9928646,1.311424,7.1481214,-6.685663,0.6137287
1419803736861,7.5525093,-7.3466077,1.1653777,7.144076,-6.6834006,0.6817273
1419803736875,7.577648,-7.3753386,1.0253168,7.130457,-6.693006,0.7284493
1419803736880,7.507618,-7.180211,1.003769,7.1155252,-6.7060003,0.7544851
1419803736892,7.505822,-6.83784,0.8822633,7.1087537,-6.71099,0.7737287
1419803736908,7.6949644,-6.531382,0.830788,7.115494,-6.702404,0.7860879
1419803736911,7.603386,-6.0980315,0.61411273,7.1443973,-6.6706643,0.7938678
1419803736927,7.301717,-5.693412,0.39264908,7.1894503,-6.623275,0.7838614
1419803736929,7.3088994,-5.571307,0.28550854,7.2406073,-6.570363,0.7578554
1419803736942,7.523779,-5.747281,0.24001873,7.2970176,-6.5114975,0.7240946
1419803736956,8.121132,-6.073491,0.25617957,7.3483977,-6.4578986,0.68337333
1419803736960,8.526351,-6.555324,0.338181,7.405846,-6.396094,0.6432967
1419803736975,8.381501,-6.983288,0.39743748,7.450598,-6.3472195,0.6097423
1419803736980,8.028357,-7.1622543,0.3878607,7.4650483,-6.332737,0.5830086
1419803736991,7.700351,-7.165247,0.3866636,7.454526,-6.34734,0.5583172
1419803737006,7.7213006,-7.1371155,0.39324763,7.4274325,-6.3807693,0.53795946
1419803737008,7.5507135,-6.9862804,0.3196259,7.404073,-6.409412,0.5191753
1419803737023,6.872556,-6.6504936,0.2896984,7.3793044,-6.43948,0.49936
1419803737030,7.261614,-6.308123,0.4225766,7.3455505,-6.4793696,0.48069152
1419803737041,8.274361,-6.135142,0.52492875,7.3475437,-6.4773912,0.47688335
1419803737048,8.60117,-6.2752028,0.45729253,7.3979993,-6.419229,0.48323184
1419803737060,8.435969,-6.493075,0.3196259,7.453696,-6.354453,0.48348144
1419803737076,8.373122,-6.5337763,0.28550854,7.492943,-6.309288,0.46808222
1419803737080,8.304289,-6.505046,0.3513491,7.5211573,-6.277207,0.446383
1419803737091,8.206126,-6.321291,0.45609543,7.544292,-6.2506447,0.42838266
1419803737107,8.081029,-6.0142345,0.5410896,7.5660257,-6.2248497,0.4206056
1419803737108,7.801506,-5.9358244,0.5518635,7.5942464,-6.1899285,0.4273311
1419803737125,7.542334,-5.771223,0.57999533,7.6147385,-6.1639714,0.4377543
1419803737128,7.2298903,-6.3153057,0.33279404,7.6327505,-6.1407347,0.4504361
1419803737140,7.2580223,-6.5684924,0.5009867,7.6111627,-6.1683497,0.43826634
1419803737158,7.5692687,-6.205771,1.0001777,7.5800886,-6.206595,0.43685997
1419803737160,7.756615,-5.9723363,1.4921862,7.5758915,-6.2081966,0.48430446
1419803737177,8.037335,-5.9388175,1.608305,7.5851045,-6.1887226,0.57992524
1419803737180,8.167819,-5.725135,1.1492168,7.60757,-6.1512127,0.67665076
1419803737190,8.59279,-5.112818,0.5650316,7.6471233,-6.0960083,0.7284055
1419803737207,8.602366,-5.100847,-0.2885013,7.728597,-5.991496,0.7356383
1419803737211,8.307879,-5.7418942,-1.0336965,7.8065867,-5.8987584,0.6574527
1419803737225,8.409634,-6.015432,-0.64703304,7.8433394,-5.86511,0.5029139
1419803737229,8.483255,-6.0609217,0.55246204,7.8647094,-5.8448114,0.39361998
1419803737241,8.488044,-6.1662664,1.5711949,7.873704,-5.832506,0.39627838
1419803737257,8.547898,-6.187216,1.9566613,7.8708935,-5.829796,0.48259705
1419803737260,8.437765,-6.202778,1.9536686,7.8680325,-5.822352,0.6038924
1419803737275,8.209119,-6.217143,1.7986441,7.8616533,-5.817104,0.7253157
1419803737291,7.979874,-6.229114,1.5442601,7.845994,-5.8235946,0.8345856
1419803737292,7.880515,-6.2979474,1.2856863,7.8246446,-5.8404517,0.9134861
1419803737308,7.869741,-6.3284736,1.0941502,7.8002715,-5.8655825,0.9597341
1419803737309,7.7931266,-6.319495,0.94211835,7.777471,-5.89214,0.98185414
1419803737323,7.707534,-6.3284736,0.6380547,7.756173,-5.9196053,0.9851094
1419803737343,7.753622,-6.4350157,0.480636,7.736512,-5.950093,0.95559686
1419803737344,7.756615,-6.640917,0.3866636,7.7165985,-5.982783,0.9114754
1419803737360,7.78355,-6.904279,0.41240123,7.690167,-6.0244865,0.8586422
1419803737361,7.8206596,-7.04015,0.5410896,7.6550565,-6.075383,0.81254333
1419803737374,7.8493905,-7.071873,0.6733692,7.61813,-6.1256633,0.7815081
1419803737380,7.752425,-7.074866,0.7751228,7.5838404,-6.1701617,0.76475865
1419803737392,7.6949644,-7.101202,0.79966336,7.5484953,-6.21383,0.7608628
1419803737410,7.6710224,-7.067683,0.7344214,7.5124454,-6.257233,0.76194006
1419803737411,7.656657,-6.9826894,0.65541273,7.481579,-6.294707,0.7570044
1419803737428,7.626131,-6.8785415,0.61770403,7.4561543,-6.325854,0.7481372
1419803737429,7.6291237,-6.749853,0.5835867,7.4355125,-6.350984,0.740636
1419803737443,7.5962033,-6.5655,0.56323594,7.4230256,-6.3666615,0.7312562
1419803737459,7.5465236,-6.3721676,0.51355624,7.4194217,-6.3721824,0.7196236
1419803737463,7.44896,-6.2464724,0.45489833,7.423929,-6.3687034,0.70377606
1419803737489,7.441777,-6.1357403,0.3716998,7.4307423,-6.36269,0.6860475
1419803737490,7.44896,-5.9741316,0.31663316,7.443381,-6.350776,0.6588754
1419803737491,7.501034,-5.852626,0.3309984,7.462595,-6.331035,0.63093704
1419803737516,7.714118,-5.7418942,0.45130703,7.4870048,-6.3045235,0.6067279
1419803737517,8.087015,-5.535394,0.5141548,7.522196,-6.263683,0.59432316
1419803737521,8.1319065,-5.590461,0.40043023,7.57875,-6.1958704,0.58663553
1419803737529,7.9810715,-5.7005944,0.61112,7.629355,-6.135209,0.5679437
1419803737556,7.9828672,-5.6724625,0.91697925,7.6623306,-6.0936804,0.5710972
1419803737557,8.134899,-5.6826377,1.1719618,7.691637,-6.0534077,0.60446286
1419803737560,8.304289,-5.752668,1.3269863,7.721075,-6.0105615,0.6546651
1419803737580,8.33242,-5.7790046,1.4185646,7.7487993,-5.9686737,0.7081214
1419803737582,8.331821,-5.6844335,1.5041572,7.772456,-5.9304357,0.76762336
1419803737589,8.256405,-5.590461,1.6250644,7.797164,-5.8886986,0.8353835
1419803737617,8.082825,-5.468955,1.8124107,7.820606,-5.8470335,0.9059423
1419803737618,7.9062524,-5.348048,2.0638018,7.837755,-5.8094177,0.9953052
1419803737621,7.8757267,-5.2462945,2.4241292,7.85015,-5.774148,1.0976088
1419803737646,7.9625163,-5.141548,2.802413,7.8606586,-5.7339473,1.225674
1419803737647,8.090008,-5.035006,3.1352072,7.8727474,-5.682777,1.3770646
1419803737684,8.234857,-4.938041,3.3997664,7.8881497,-5.6181083,1.5441245
1419803737685,8.357559,-4.8428717,3.4799721,7.9085217,-5.5407004,1.7106489
1419803737686,8.46889,-4.9320555,3.3854012,7.9296947,-5.4534917,1.8840784
1419803737687,8.552089,-5.076905,3.1561563,7.951821,-5.3722982,2.0192497
1419803737692,8.574833,-5.3247046,2.8473043,7.9711647,-5.305494,2.1172335
1419803737716,8.620922,-5.6120086,2.492364,7.9819417,-5.2646255,2.1777754
1419803737716,8.6257105,-5.8238955,2.1559787,7.984468,-5.251194,2.2008255
1419803737721,8.482059,-5.9651537,1.721431,7.980601,-5.259999,2.1938136
1419803737731,8.415619,-5.9968767,1.30484,7.969195,-5.2916827,2.1587973
1419803737750,8.417415,-5.9160724,1.0408791,7.9657626,-5.3308115,2.073511
1419803737752,8.3408,-5.7855883,0.87807345,7.9651804,-5.3645616,1.9868987
1419803737761,8.160637,-5.6221843,1.0079589,7.969919,-5.391577,1.8925346
1419803737778,7.9870567,-5.459977,1.5939398,7.9752254,-5.4100776,1.8158331
1419803737795,7.902063,-5.369596,2.2266076,7.9756656,-5.4170356,1.7930063
1419803737797,7.8823104,-5.2923827,2.6473885,7.969642,-5.4143257,1.8276439
1419803737809,7.8410106,-5.2756233,2.8491,7.961673,-5.4049954,1.8889638
1419803737812,7.768586,-5.2528787,2.8628666,7.9510684,-5.3953114,1.9599732
1419803737827,7.702147,-5.3606176,2.8377275,7.9374256,-5.3868675,2.0369868
1419803737839,7.6614456,-5.501277,2.7431567,7.916283,-5.3875837,2.115847
1419803737842,7.702147,-5.6539073,2.497751,7.888658,-5.3994455,2.1875684
1419803737862,7.7799582,-5.8065376,2.2014685,7.860352,-5.4219446,2.2333324
1419803737863,7.8715367,-5.9465985,1.922544,7.835339,-5.4529886,2.2456093
1419803737880,7.8954787,-6.0441623,1.7070658,7.815822,-5.489886,2.223613
1419803737881,7.884106,-6.0764837,1.5065514,7.7964115,-5.531889,2.1873674
1419803737890,7.8266454,-6.117784,1.3569138,7.781505,-5.5746813,2.1310756
1419803737910,7.7344685,-6.145317,1.228824,7.767847,-5.61982,2.061203
1419803737910,7.6823945,-6.101623,1.1456255,7.7537117,-5.667464,1.9824767
1419803737927,7.6129627,-6.0740895,1.0372878,7.7422385,-5.710258,1.9029139
1419803737941,7.6387005,-6.06571,0.9744401,7.730793,-5.7522817,1.8211248
1419803737941,7.704541,-6.017826,0.9475053,7.722371,-5.788843,1.7391636
1419803737955,7.7224975,-5.9238534,0.9355343,7.7194633,-5.815286,1.6621459
1419803737961,7.8248496,-5.8065376,0.98940384,7.721104,-5.832653,1.5922015
1419803737973,7.9463553,-5.710171,1.0971429,7.73015,-5.8361588,1.534415
1419803737992,8.045116,-5.659294,1.2695254,7.745972,-5.8263383,1.4913439
1419803737993,8.183381,-5.5701103,1.4927847,7.7652373,-5.8074946,1.4644033
1419803738014,8.252214,-5.5126495,1.7274165,7.7880282,-5.776941,1.4642303
1419803738015,8.282143,-5.480926,1.9949685,7.812085,-5.7399864,1.4813094
1419803738021,8.305486,-5.3941364,2.2278047,7.8334236,-5.7003465,1.5211575
1419803738049,8.310873,-5.2636523,2.3660698,7.854666,-5.6547866,1.5805128
1419803738052,8.228272,-5.059547,2.5462334,7.8782144,-5.6019588,1.6499131
1419803738053,8.169016,-4.793192,2.7694929,7.90286,-5.542651,1.7303807
1419803738063,8.269572,-4.5298295,3.0160956,7.930181,-5.468629,1.8375831
1419803738091,8.564658,-4.353257,3.2860417,7.965754,-5.375193,1.9556185
1419803738092,9.069236,-4.2161894,3.5661635,8.009555,-5.2620554,2.0804286
1419803738092,9.820416,-4.1425676,3.8373067,8.065283,-5.124385,2.205061
1419803738133,10.79366,-4.158728,4.0198646,8.135232,-4.959748,2.3214865
1419803738135,11.8818245,-4.3065705,4.0976763,8.219046,-4.775077,2.4117064
1419803738136,12.99453,-4.59986,4.1240125,8.310441,-4.5781646,2.479394
1419803738137,13.857041,-5.0559554,3.99293,8.401148,-4.3870225,2.518957
1419803738142,13.959393,-5.650316,3.5883098,8.481932,-4.227252,2.5214217
1419803738177,13.324929,-5.9759274,3.0502129,8.525968,-4.171812,2.4645998
1419803738178,12.410344,-5.6826377,2.420538,8.560575,-4.136662,2.4031162
1419803738180,11.680712,-5.8466406,1.5490485,8.5871725,-4.114943,2.344802
1419803738203,10.769718,-7.062895,-13.20941,8.601313,-4.1104426,2.3004508
1419803738204,11.626244,-8.123527,-15.7736,8.684509,-4.1971593,1.7701755
1419803738204,12.740745,-7.7248917,-3.3207579,8.740972,-4.2937713,1.1529753
1419803738210,11.609484,-8.042124,-1.4191631,8.738604,-4.313856,1.0944659
1419803738235,10.157999,-8.3868885,-4.743512,8.7367,-4.3384533,1.0091063
1419803738236,10.8595,-7.6692266,-4.1826706,8.757784,-4.3565655,0.7013988
1419803738242,11.793239,-6.395511,-1.2910733,8.7842,-4.340638,0.408762
1419803738277,11.254543,-5.6485205,0.9259575,8.815546,-4.2903757,0.2218588
1419803738279,10.376471,-5.5467668,2.496554,8.843978,-4.2363772,0.08707564
1419803738280,9.564836,-5.592855,3.1376014,8.874007,-4.1736035,-0.05837211
1419803738303,8.992023,-5.6461263,2.5623944,8.905887,-4.1006765,-0.20010172
1419803738304,8.845977,-6.206968,1.3838485,8.935829,-4.025975,-0.3359861
1419803738305,9.22067,-7.0515227,0.8858546,8.958891,-3.9605567,-0.4718974
1419803738310,9.288904,-7.914034,1.5280992,8.973948,-3.9067109,-0.61341625
1419803738335,9.135675,-8.397662,2.0727801,8.980855,-3.8671184,-0.7483543
1419803738335,8.9363575,-8.282741,1.5041572,8.981412,-3.8324573,-0.9038161
1419803738342,8.649054,-7.889493,0.7206547,8.978801,-3.7909508,-1.0863906
1419803738370,7.838018,-7.948151,0.59735334,8.977237,-3.7413769,-1.2576625
1419803738371,7.167641,-8.166023,1.3700819,8.978378,-3.6953592,-1.3796496
1419803738372,7.153276,-7.9631147,1.6334441,8.981215,-3.6573997,-1.4600036
1419803738399,7.341221,-7.571663,1.4987702,8.983604,-3.6222866,-1.5310993
1419803738400,7.577648,-7.2963295,1.0570401,8.980067,-3.5920913,-1.6203903
1419803738402,7.415441,-7.1155677,0.55605334,8.971196,-3.5630817,-1.7298733
1419803738431,6.8761473,-6.892308,0.34835634,8.962716,-3.5262978,-1.8453467
1419803738431,6.5858502,-6.5325794,0.3561375,8.95963,-3.4751613,-1.9541415
1419803738432,6.6864066,-6.129156,0.6805518,8.962585,-3.410434,-2.0521631
1419803738443,7.028179,-5.746084,1.2479776,8.969174,-3.3387218,-2.1394525
1419803738464,6.7971387,-5.6401405,1.520318,8.979758,-3.2578895,-2.2182255
1419803738465,6.4380083,-5.779603,1.3670892,8.995847,-3.1671224,-2.2835279
1419803738473,6.4110737,-5.7418942,1.3551182,9.018683,-3.0669825,-2.3296664
1419803738495,6.6923923,-5.5826797,1.2276269,9.047172,-2.9655147,-2.3504953
1419803738495,6.743269,-5.653309,1.271321,9.076353,-2.8744988,-2.3510513
1419803738502,6.5026517,-5.841852,1.1330559,9.103806,-2.793145,-2.3429558
1419803738510,6.0639143,-6.045359,1.0055647,9.126617,-2.727549,-2.3314643
1419803738522,5.5204306,-6.2823853,0.88166475,9.145224,-2.6742609,-2.320267
1419803738546,5.0757074,-6.4242415,0.65900403,9.158623,-2.6342475,-2.3131685
1419803738547,4.657321,-6.4966664,0.39264908,9.164906,-2.608311,-2.3176804
1419803738550,4.255095,-6.3422403,0.26396075,9.163957,-2.5961876,-2.3349779
1419803738582,3.7906199,-6.0986304,0.2657564,9.158655,-2.5932755,-2.358884
1419803738583,3.4524388,-5.8412538,0.33039984,9.154267,-2.5914726,-2.3778267
1419803738584,3.445855,-5.5485625,0.25917232,9.149857,-2.5942814,-2.391702
1419803738593,3.572149,-5.409699,-0.004189853,9.14867,-2.6034176,-2.3863072
1419803738615,3.870227,-5.4312468,-0.20829555,9.148835,-2.6246498,-2.3622928
1419803738616,4.2503066,-5.4761376,-0.28431144,9.148281,-2.6614008,-2.322998
1419803738622,4.671686,-5.2905874,-0.22625206,9.146031,-2.7151828,-2.2689838
1419803738648,5.065532,-4.908712,0.065242,9.144975,-2.7750351,-2.1997778
1419803738650,5.5300074,-4.4753613,0.219668,9.142039,-2.8458953,-2.1199977
1419803738651,6.254852,-4.024653,0.004189853,9.139259,-2.9249015,-2.0221956
1419803738693,7.380127,-3.4853592,-0.6823475,9.136279,-3.0090775,-1.908995
1419803738694,8.962095,-2.920926,-1.9512744,9.133664,-3.093744,-1.7819439
1419803738695,15.170859,-0.87328506,-8.368932,9.132104,-3.1697967,-1.6515125
1419803738696,19.211674,1.0666169,-12.434885,9.140213,-3.1555882,-1.6337641
1419803738747,19.607914,2.0231004,-11.670536,9.138827,-3.225494,-1.4994769
1419803738747,19.607914,0.1945289,-6.6720414,9.14076,-3.2734208,-1.3789822
1419803738748,17.521965,-2.8993783,-3.4913447,8.97569,-2.7278202,-2.8576872
1419803738749,13.536218,-3.3943794,-2.5354595,9.075038,-2.4761658,-2.7717693
1419803738749,11.113884,-2.7694929,-2.4971523,9.113219,-2.409689,-2.7042725
1419803738750,9.552266,-1.371279,-0.8331822,9.122464,-2.4285083,-2.6558297
1419803738777,7.3472066,-0.533907,3.9618053,9.173135,-2.375587,-2.5259774
1419803738778,4.0797195,-0.9564836,8.513183,9.302088,-2.3311849,-2.0511272
1419803738794,1.436521,-3.4973302,10.554239,9.441652,-2.3499467,-1.2261039
1419803738795,0.55964464,-8.112154,8.054693,9.441247,-2.6491053,-0.124505945
1419803738802,2.7820623,-11.795633,3.5883098,9.147842,-3.4393642,0.811274
1419803738827,11.663952,-15.137341,-12.8832,8.642175,-4.4674416,1.2349855
1419803738828,19.607914,-19.002779,-11.492766,8.609632,-4.4895015,1.3744129
1419803738831,19.223045,-19.527708,9.245809,8.551573,-4.540065,1.5584552
1419803738843,12.151771,-16.007034,-4.4179006,8.469714,-4.6377077,1.7105534
1419803738864,6.096236,-10.806828,-1.7286136,7.514489,-6.263789,-0.6839447
1419803738865,3.8774097,-7.8487916,5.3683987,7.3368874,-6.4331503,-0.97728145
1419803738871,2.6581624,-5.3767786,5.597045,7.201506,-6.6512456,-0.26391456
1419803738900,1.8100165,-4.0827127,4.0617633,7.0372043,-6.8184323,0.39640406
1419803738901,1.614889,-3.690662,2.581548,6.913914,-6.9251018,0.64122343
1419803738904,2.2697031,-3.709217,1.8291701,6.796285,-7.022641,0.8144909
1419803738926,3.3883939,-4.559757,1.4993688,6.714223,-7.085971,0.9373534
1419803738927,4.8680105,-5.873575,1.4335283,6.643882,-7.1356254,1.0545489
1419803738944,6.917447,-6.7845693,1.5903485,6.592554,-7.1711802,1.1326182
1419803738944,8.773552,-7.574057,1.8189948,6.616407,-7.1405506,1.1857991
1419803738951,10.262746,-8.16363,1.99437,6.695648,-7.058891,1.2291234
1419803738976,11.001955,-8.443152,2.0039468,6.811931,-6.941127,1.2604467
1419803738977,10.778097,-8.003218,1.8674773,6.931574,-6.816486,1.2881033
1419803738999,10.231621,-6.7708025,1.6705543,7.046464,-6.6945157,1.3042922
1419803739000,9.548675,-5.563526,1.4323312,7.1769037,-6.5517354,1.3180268
1419803739003,8.735245,-4.7830167,1.2904748,7.314038,-6.396015,1.3289976
1419803739036,8.022371,-4.291008,1.1085154,7.4395504,-6.246514,1.3433465
1419803739036,7.4776907,-3.891775,0.8643068,7.548167,-6.112631,1.3532541
1419803739037,7.3100963,-3.555988,0.5650316,7.653175,-5.983708,1.3396078
1419803739043,7.410054,-3.342904,0.35553896,7.75712,-5.8558335,1.3064065
1419803739060,7.8188643,-3.1370027,0.31304187,7.8634977,-5.7251143,1.2485435
1419803739062,8.507197,-3.1160536,0.40821138,7.982304,-5.573668,1.1779034
1419803739071,9.215282,-3.2160115,0.49919105,8.112167,-5.398038,1.106493
1419803739095,9.79827,-3.2752678,0.56203884,8.245573,-5.2060394,1.0383003
1419803739096,10.206482,-3.180697,0.7098808,8.377306,-5.0045304,0.97254974
1419803739103,10.36031,-3.328539,0.81043726,8.5032425,-4.794598,0.93652916
1419803739135,10.324396,-3.3369186,0.75956047,8.609747,-4.607629,0.901331
1419803739136,10.086173,-3.1573534,0.6254852,8.700889,-4.439196,0.8708991
1419803739137,9.618107,-2.9592333,0.45908818,8.781874,-4.2820997,0.8442285
1419803739143,9.018359,-2.9562407,0.074220255,8.851322,-4.141585,0.81960666
1419803739158,8.6712,-2.8365304,-0.3333926,8.902146,-4.0407176,0.7712375
1419803739176,8.2593975,-2.9107506,-0.56323594,8.95106,-3.9473634,0.6835367
1419803739176,8.1402855,-3.1310172,-0.587178,8.984561,-3.8861542,0.58811027
1419803739182,8.069058,-3.5811272,-0.41180268,9.004305,-3.8538554,0.49057463
1419803739206,8.06008,-3.954024,-0.27353755,9.003414,-3.8649468,0.41366556
1419803739207,7.9996266,-4.249708,-0.2136825,8.987202,-3.9084997,0.35250062
1419803739223,7.9744873,-4.4993033,-0.22685061,8.958917,-3.9771152,0.30124915
1419803739223,7.9511437,-4.7099934,-0.3800795,8.9219,-4.062316,0.26023558
1419803739237,7.9529395,-5.073912,-0.5734113,8.879847,-4.1566486,0.2024439
1419803739255,8.049306,-5.4593782,-0.65660983,8.82711,-4.2701426,0.13576397
1419803739255,8.210316,-5.7760115,-0.5542577,8.764473,-4.398852,0.06713176
1419803739274,8.373122,-5.9064956,-0.30466217,8.695628,-4.533908,0.0106833065
1419803739275,8.489241,-5.9370217,0.049679685,8.6291275,-4.6591845,-0.024212066
1419803739293,8.671799,-5.957971,0.27832595,8.570051,-4.7669854,-0.021899698
1419803739293,9.091382,-5.85502,0.38606504,8.519817,-4.8562436,-4.0974986E-4
1419803739302,9.530719,-5.61141,0.37349546,8.489063,-4.9097333,0.02728782
1419803739323,9.675568,-5.4593782,0.3465607,8.482103,-4.92148,0.057900988
1419803739324,9.69113,-5.2768207,0.24301147,8.485592,-4.914993,0.089296825
1419803739338,9.664195,-4.9583917,0.11372458,8.49712,-4.8945937,0.11095219
1419803739372,9.585785,-4.5741224,-0.047884032,8.519116,-4.8560348,0.11824644
1419803739374,9.612122,-4.1784806,-0.16101007,8.552815,-4.796619,0.11038696
1419803739375,9.901221,-3.7870286,-0.22864626,8.596995,-4.717366,0.09232289
1419803739376,10.733206,-3.6804867,-0.2717419,8.658074,-4.6047735,0.06487433
1419803739399,11.956045,-3.9905357,-0.28311434,8.733288,-4.460832,0.03206804
1419803739399,13.071144,-4.301183,-0.23223756,8.810436,-4.3065777,-7.1896194E-4
1419803739403,14.070724,-4.3436804,0.0077811554,8.884745,-4.1510262,-0.02561229
1419803739425,14.316728,-4.39755,0.1340753,8.958006,-3.9904597,-0.02789923
1419803739425,14.242507,-4.425682,0.12030864,9.020921,-3.8461952,-0.012966449
1419803739432,15.093047,-4.185663,-0.28909984,9.07135,-3.7257183,-0.004941402
1419803739469,15.320497,-3.145981,-9.995792,9.129996,-3.5794535,-0.03287256
1419803739470,15.683817,-2.666542,-19.146431,9.178106,-3.3592262,-0.8051956
1419803739472,12.349293,-4.355053,-2.6898856,9.204548,-3.304995,-0.7236802
1419803739473,11.7681,-4.308366,5.185242,9.170661,-2.9821503,-1.7821782
1419803739505,11.766304,-4.335301,6.553529,9.246757,-2.9783337,-1.3406726
1419803739505,11.361086,-5.3408656,6.2464724,9.287334,-3.0074785,-0.9332028
1419803739506,11.21085,-6.6026096,4.609437,9.267092,-3.1399262,-0.65747446
1419803739526,11.719019,-7.9744873,-1.6298528,9.220441,-3.3313067,-0.23722659
1419803739527,12.97358,-9.9550905,-8.793304,9.134977,-3.559999,-0.22129773
1419803739532,12.161347,-11.343728,-1.7531542,8.993658,-3.8398428,-0.73490345
1419803739581,10.998962,-11.599309,1.7723078,8.829846,-4.198632,-0.75873893
1419803739583,10.604518,-11.104906,0.9947908,8.658393,-4.566059,-0.594754
1419803739585,10.354922,-9.97604,0.44891283,8.490439,-4.8715086,-0.5926304
1419803739586,9.242217,-8.953716,0.56203884,8.3624735,-5.093587,-0.54297966
1419803739587,7.6267295,-8.367735,0.87089086,8.258378,-5.271797,-0.4216063
1419803739607,7.107786,-7.459734,1.3628993,8.145894,-5.4506865,-0.32376638
1419803739608,7.3322425,-6.155493,1.6017209,8.054011,-5.590766,-0.21596302
1419803739625,7.043143,-5.2409077,1.9446903,8.018033,-5.6456656,-0.08939882
1419803739626,6.455965,-4.823718,2.1350293,8.008537,-5.659434,0.067335755
1419803739631,6.0567317,-4.931457,1.8734628,8.006466,-5.657697,0.2394852
1419803739659,5.708974,-5.0523643,1.6873137,7.9875746,-5.6754637,0.3976805
1419803739660,5.3761797,-5.0798974,1.578976,7.947342,-5.719742,0.5428803
1419803739663,4.844667,-5.153519,1.5239093,7.8926044,-5.782508,0.6631848
1419803739672,4.172495,-5.381567,1.5227122,7.8181186,-5.870435,0.7651171
1419803739693,3.615843,-5.691616,1.7106571,7.7082615,-6.000164,0.8666871
1419803739694,2.973,-5.7736173,1.9369092,7.55936,-6.168753,0.98637927
1419803739703,2.6527755,-5.590461,1.922544,7.373974,-6.3657312,1.1280051
1419803739734,2.6671407,-5.3139305,1.6932992,7.1787157,-6.5589967,1.2712116
1419803739735,2.8293478,-5.1882353,1.2665327,6.9975643,-6.7278533,1.3930151
1419803739736,3.1854854,-5.2343235,0.7146692,6.838513,-6.8754816,1.4604418
1419803739762,3.7181952,-5.209184,0.23942018,6.7151265,-6.99829,1.4496169
1419803739762,4.24073,-5.171476,-0.010773907,6.6326175,-7.0908046,1.3781341
1419803739763,4.7506948,-5.2277393,-0.12749124,6.5935335,-7.1472297,1.2699683
1419803739771,5.257068,-5.485116,-0.30107087,6.5891323,-7.1721907,1.1460441
1419803739793,5.6084175,-5.8322754,-0.4830302,6.603961,-7.1797633,1.0045384
1419803739793,5.816713,-6.0561333,-0.7697359,6.619332,-7.1854506,0.85097677
1419803739805,6.1345434,-6.007651,-0.8846575,6.638083,-7.1872334,0.670744
1419803739823,6.634333,-5.651513,-0.3196259,6.670357,-7.171133,0.50157636
1419803739830,7.557896,-4.7901993,0.045489833,6.7495227,-7.102221,0.4156845
1419803739860,9.1512375,-3.9641995,-1.5568297,6.9280343,-6.9302025,0.38083458
1419803739862,11.468226,-3.0484173,-4.830302,7.2264514,-6.6274915,0.15859146
1419803739863,14.498687,-1.536479,-6.525397,7.631712,-6.1450353,-0.40729076
1419803739864,17.50401,0.44232875,-6.643311,8.105615,-5.420475,-1.0430133
1419803739872,19.409195,2.1392193,-8.277354,8.582514,-4.483808,-1.5512354
1419803739899,18.653225,2.5863364,-8.322844,8.936231,-3.4742362,-2.0600617
1419803739900,15.684415,1.7034745,-5.353435,9.129132,-2.6251469,-2.4367912
1419803739903,12.372636,-0.3764882,-3.378817,9.245732,-2.076042,-2.5252516
1419803739929,10.056246,-2.3744495,-3.1681273,9.290126,-1.8768163,-2.5182319
1419803739930,8.775947,-2.9783869,-3.359065,9.264714,-1.9417405,-2.562247
1419803739932,8.37013,-2.6390088,0.049081136,9.214285,-2.0513964,-2.6569
1419803739969,8.4587145,-4.8027687,3.240552,9.24491,-2.1552992,-2.4610324
1419803739970,7.2059484,-8.86513,2.8754363,9.28897,-2.4283135,-1.9971743
1419803739971,8.403648,-11.77648,0.7781156,9.19194,-3.0474827,-1.5464422
1419803739973,16.633118,-12.319365,-7.8104844,8.948026,-3.8131888,-1.2501204
1419803739998,19.607914,-12.090718,-9.245809,8.92165,-3.9064817,-1.1462913
1419803739999,15.552135,-12.352285,7.6530657,8.879756,-4.013478,-1.1010687
1419803740003,6.6103907,-9.575011,2.5851393,8.534738,-4.639227,-1.3439602
1419803740022,3.3464954,-7.0605006,-1.5215151,8.400628,-4.9141,-1.2047613
1419803740038,1.9069817,-5.517438,5.1200004,8.221089,-5.2106586,-1.1971203
1419803740039,2.2499511,-4.8644195,3.7020345,8.078447,-5.5319324,-0.5539302
1419803740058,2.861071,-4.5118732,2.1733365,7.931443,-5.7650137,-0.1649813
1419803740058,3.6469676,-4.829105,1.5245079,7.8080153,-5.933316,0.032512717
1419803740063,5.00448,-5.6108117,1.3563153,7.7002006,-6.0699596,0.18133089
1419803740072,6.633734,-6.3769565,1.460463,7.6028066,-6.186619,0.30572584
1419803740084,8.19236,-6.8683662,1.8674773,7.5401454,-6.257048,0.40738788
1419803740109,9.564836,-7.314286,2.1948843,7.5197735,-6.27157,0.53926355
1419803740109,10.779893,-7.7213006,2.2092497,7.5313873,-6.24259,0.69185334
1419803740112,11.625645,-7.8086886,2.0859482,7.5680947,-6.182329,0.8204706
1419803740144,11.84232,-7.183802,1.9614497,7.6276484,-6.0962806,0.9081535
1419803740145,11.471219,-6.156091,1.7357962,7.7124243,-5.977901,0.97652733
1419803740146,10.67395,-5.3701944,1.5873557,7.816906,-5.832218,1.0254798
1419803740153,9.752182,-4.859631,1.5119383,7.9163437,-5.6883655,1.0697727
1419803740187,8.812458,-4.23654,1.359308,8.0019865,-5.5587397,1.1131002
1419803740189,7.8847046,-3.6254199,1.1797429,8.081696,-5.435308,1.1463078
1419803740191,7.2430587,-3.1573534,1.216853,8.153904,-5.3221297,1.1658418
1419803740209,6.953959,-3.0011318,1.151611,8.21751,-5.217911,1.1900922
1419803740210,7.020398,-3.0508115,0.9403227,8.274852,-5.120673,1.2148852
1419803740213,7.3986816,-3.1310172,0.7433996,8.328086,-5.033474,1.2155292
1419803740243,7.9307933,-3.3147724,0.54887074,8.385065,-4.9424224,1.1973109
1419803740243,8.405443,-3.4440591,0.43514615,8.445506,-4.848134,1.1573346
1419803740244,8.802282,-3.4051533,0.50158525,8.508612,-4.749209,1.1040443
1419803740252,9.074024,-3.2076318,0.63206923,8.575355,-4.6381946,1.0587059
1419803740273,8.998009,-2.9430726,0.65301853,8.648674,-4.5079584,1.0242912
1419803740274,8.817246,-2.7132292,0.6218939,8.721226,-4.371601,0.99985176
1419803740283,8.737639,-2.5983074,0.5638345,8.791075,-4.234519,0.97787404
1419803740310,8.638878,-2.710835,0.53211135,8.856617,-4.100695,0.95656234
1419803740311,8.581417,-3.0131028,0.41838676,8.909188,-3.9906628,0.93346655
1419803740312,8.4647,-3.2626984,0.3345897,8.94482,-3.9191637,0.894833
1419803740343,8.221688,-3.4422636,0.33758244,8.96528,-3.8829548,0.84662765
1419803740344,8.153454,-3.5260606,0.4201824,8.972718,-3.874979,0.80327237
1419803740346,8.143278,-3.6834793,0.50038815,8.974369,-3.8786407,0.7663218
1419803740352,8.1319065,-3.9133227,0.6428431,8.968463,-3.8970134,0.741847
1419803740384,8.231265,-4.0898952,0.6027403,8.952229,-3.9347396,0.7388049
1419803740385,8.511387,-4.2251673,0.40462008,8.932469,-3.9798841,0.7361488
1419803740385,8.782531,-4.4316673,0.2801216,8.915472,-4.0215993,0.71519995
1419803740404,9.012972,-4.7016134,0.18674773,8.898562,-4.065009,0.6794487
1419803740405,9.21229,-5.0038815,0.12988544,8.877539,-4.1170354,0.64007777
1419803740423,9.281721,-5.2103815,0.11552023,8.85084,-4.1811714,0.5923403
1419803740424,9.382876,-5.3725886,0.14784196,8.819713,-4.252887,0.54408246
1419803740432,9.421184,-5.4168816,0.18734628,8.786321,-4.3263717,0.5034633
1419803740461,9.126697,-5.3402667,0.22864626,8.754862,-4.3933883,0.47005555
1419803740462,8.755595,-5.1690817,0.30346507,8.723772,-4.457248,0.44623455
1419803740464,8.605958,-4.97156,0.427365,8.694607,-4.5151424,0.4332168
1419803740472,8.776545,-4.775235,0.53689975,8.672741,-4.556879,0.43453708
1419803740492,9.071032,-4.542998,0.56443304,8.662874,-4.5743237,0.44785205
1419803740493,9.368511,-4.2916064,0.53211135,8.668664,-4.56186,0.46268722
1419803740503,9.734824,-3.8833952,0.45609543,8.690551,-4.5190067,0.47253802
1419803740519,10.444106,-3.560178,0.44352585,8.7348175,-4.4329715,0.47130993
1419803740536,11.498753,-3.527856,0.4973954,8.799454,-4.303215,0.4715255
1419803740536,12.4630165,-3.5098996,0.6422446,8.87641,-4.1425214,0.468244
1419803740564,13.333908,-3.1118636,0.74878657,8.95891,-3.960565,0.47143576
1419803740565,14.63396,-1.9907787,0.6003461,9.052627,-3.7410574,0.47415772
1419803740566,18.53531,1.1965023,-15.966931,9.175903,-3.430562,0.45212665
1419803740592,16.713324,-0.8631097,-12.8293295,9.175689,-3.4320197,0.4453937
1419803740593,14.062344,-2.566584,6.299743,9.3064,-2.4896698,-1.8338071
1419803740593,14.515447,-2.510919,8.418014,9.453375,-2.3465955,-1.1391273
1419803740604,14.277822,-2.9245174,4.396353,9.547784,-2.214291,-0.32729325
1419803740617,13.224373,-4.97156,-1.9482816,9.5628195,-2.1666489,-0.16880642
1419803740635,12.198458,-7.1586633,-1.8926164,9.53273,-2.271627,-0.3704016
1419803740635,12.087726,-8.395268,0.94930094,9.468215,-2.5276377,-0.36653966
1419803740660,12.6300125,-9.372701,1.0893618,9.377101,-2.8612535,-0.23147228
1419803740660,13.216592,-10.523713,0.46507367,9.262637,-3.2172027,-0.15356384
1419803740664,13.14297,-11.823765,0.40581718,9.119314,-3.6017082,-0.19028935
1419803740691,12.794015,-12.565968,0.6733692,8.947626,-4.009218,-0.19115093
1419803740692,12.171523,-12.674904,0.92655605,8.76477,-4.396331,-0.14653146
1419803740693,11.314399,-12.318767,1.0690111,8.584168,-4.7407384,-0.08842253
1419803740716,9.850943,-11.550826,0.86849666,8.411317,-5.0418034,-0.018662907
1419803740717,8.246828,-10.62427,1.0031705,8.24466,-5.3097596,0.049181525
1419803740734,7.1867948,-9.705495,1.4862007,8.079449,-5.5573063,0.0961407
1419803740735,6.4068837,-8.622119,1.714847,7.924387,-5.7740903,0.18541503
1419803740759,6.167464,-7.3346367,1.134253,7.7876844,-5.953095,0.28814095
1419803740760,5.923255,-6.019023,0.219668,7.692799,-6.071717,0.3542334
1419803740764,5.502474,-5.1547165,0.34596214,7.644104,-6.1323247,0.3642432
1419803740789,5.385158,-4.396951,0.66858083,7.6178,-6.1637425,0.38444752
1419803740790,4.860828,-4.3520603,0.94451255,7.6190085,-6.1584888,0.44059053
1419803740792,4.299388,-4.5136685,1.4221559,7.603999,-6.1709166,0.51901203
1419803740804,3.7924154,-4.5765166,1.4790181,7.5598807,-6.2150555,0.625841
1419803740816,3.0855274,-4.673482,1.5951369,7.490088,-6.288095,0.7271968
1419803740835,2.6641479,-4.661511,1.5005659,7.379321,-6.4033074,0.84479415
1419803740836,2.4007857,-4.610634,1.4089876,7.2457995,-6.538403,0.9581628
1419803740850,2.2499511,-4.6285906,1.4437037,7.1020217,-6.6782937,1.0639895
1419803740852,2.2026656,-4.7764325,1.3479356,6.9440103,-6.825794,1.1660316
1419803740868,2.404377,-4.8560395,1.1540052,6.7759686,-6.9774485,1.2537377
1419803740883,2.7659016,-4.8698063,0.75596917,6.618934,-7.1153874,1.3158083
1419803740886,3.3255463,-4.8320975,0.40162733,6.4913087,-7.230337,1.3249611
1419803740899,4.0976763,-4.8859673,0.19512744,6.412503,-7.3076334,1.2840216
1419803740904,5.0002904,-4.947618,-0.011372458,6.39842,-7.331937,1.2138135
1419803740915,5.681441,-5.0757074,-0.2753332,6.447644,-7.3061647,1.1037335
1419803740932,6.017826,-5.179257,-0.4794389,6.534865,-7.247279,0.97102666
1419803740933,6.184223,-5.4043117,-0.30107087,6.631023,-7.1780677,0.8217655
1419803740959,6.546346,-5.4043117,0.22744916,6.710268,-7.1160913,0.7099065
1419803740967,7.3124905,-5.100847,0.038905777,6.7985916,-7.035061,0.67635584
1419803740967,8.271368,-4.589086,-0.3824737,6.942882,-6.8986526,0.61268973
1419803740997,10.280702,-3.6355953,-1.6795325,7.160973,-6.68074,0.508525
1419803740998,14.199411,-1.7603368,-5.0362034,7.505502,-6.306539,0.2557387
1419803740998,18.924967,1.2665327,-9.555858,8.037356,-5.6080027,-0.3486936
1419803741004,19.607914,3.927688,-10.248979,8.618805,-4.500125,-1.278858
1419803741017,19.60073,3.8229415,-6.1530986,8.60911,-4.5428624,-1.1899642
1419803741032,16.452356,1.6573862,-4.244321,9.268153,-2.312034,-2.219508
1419803741033,13.175292,1.3192052,-3.727772,9.377364,-1.7844299,-2.2475
1419803741052,11.229404,0.02813187,-3.679888,9.429974,-1.4130279,-2.2911506
1419803741053,11.925519,-2.634819,-2.0620062,9.426326,-1.3104566,-2.3658948
1419803741067,12.797606,-5.310938,-2.0380642,9.414815,-1.452254,-2.3286495
1419803741090,15.899295,-6.930017,-3.0538042,9.378014,-1.741481,-2.2782693
1419803741091,19.560627,-6.3781533,-4.817134,9.331655,-2.0486624,-2.212152
1419803741093,19.570204,-5.439626,-5.142745,9.298151,-2.2070582,-2.2008426
1419803741126,11.675324,-8.766968,5.1624975,9.2784,-2.2547138,-2.2356112
1419803741127,4.2060137,-8.893262,8.380903,9.289169,-2.6346495,-1.7147441
1419803741128,-0.2621651,-8.112753,2.1984756,9.21999,-3.1556947,-1.0971669
1419803741133,-4.3101616,-8.46889,-5.5647235,8.995125,-3.7878914,-0.95394236
1419803741164,-3.442862,-7.33344,0.86131406,8.552805,-4.5819974,-1.4230988
1419803741165,-0.4261679,-7.023989,6.4242415,8.158551,-5.2982025,-1.2399608
1419803741166,2.6048915,-6.59423,5.0661306,7.8414793,-5.8760223,-0.39240226
1419803741199,4.256292,-5.774216,3.1812954,7.57427,-6.22297,0.27475423
1419803741200,5.2726307,-5.625177,2.1721394,7.409155,-6.3886466,0.6782605
1419803741201,6.7612257,-5.9358244,1.9123687,7.317089,-6.4744706,0.8436966
1419803741230,8.811859,-6.3967085,2.0883424,7.298594,-6.48509,0.9189846
1419803741231,10.709863,-6.995259,2.4091654,7.3564982,-6.4077196,0.9967184
1419803741232,12.04463,-7.6027875,2.707842,7.456516,-6.272438,1.1078309
1419803741234,12.625224,-8.0445175,2.7844565,7.5630784,-6.1245112,1.2085502
1419803741262,12.615048,-8.136096,2.5432408,7.651826,-5.993949,1.3009831
1419803741263,12.569559,-7.755418,2.1733365,7.7198343,-5.893256,1.3579743
1419803741265,12.477981,-6.8988924,1.7022774,7.7871923,-5.7983136,1.3818878
1419803741294,12.120646,-6.1129956,1.347337,7.8731217,-5.681734,1.3792083
1419803741295,11.519103,-5.533,1.1959038,7.972148,-5.547564,1.3563917
1419803741296,10.699089,-5.0146556,1.0576386,8.068895,-5.415925,1.3157034
1419803741323,10.005369,-4.3999443,1.0265139,8.158611,-5.28902,1.2781777
1419803741325,9.232041,-3.86484,1.0857705,8.246882,-5.1610255,1.2341546
1419803741326,8.608353,-3.5883098,1.1031284,8.325177,-5.0403695,1.2068473
1419803741333,8.073847,-3.5368345,0.82779527,8.389261,-4.9347844,1.199416
1419803741359,7.8607626,-3.3865983,0.56802434,8.4367075,-4.8569317,1.1842964
1419803741360,7.7350674,-3.1160536,0.22744916,8.481703,-4.7857995,1.1520613
1419803741365,7.6369047,-3.120842,0.08738836,8.531963,-4.709369,1.0944614
1419803741397,7.53156,-3.0711622,0.027533319,8.577065,-4.64103,1.0320706
1419803741398,7.4429746,-3.0107086,-0.061650693,8.620225,-4.5739074,0.97029495
1419803741398,7.5189905,-2.8395233,-0.0700304,8.661781,-4.5086565,0.90331095
1419803741417,7.5842323,-2.6102784,0.05566519,8.709178,-4.4295783,0.8363468
1419803741418,7.578247,-2.4666264,0.1945289,8.762826,-4.332068,0.7851519
1419803741433,7.442376,-2.40318,0.25079262,8.816118,-4.2284036,0.753046
1419803741434,7.314286,-2.4187422,0.25019407,8.865658,-4.1290283,0.7222285
1419803741459,7.258621,-2.4558525,0.24660277,8.907584,-4.042384,0.69602984
1419803741460,7.2969284,-2.4534583,0.24660277,8.942362,-3.9692316,0.67064464
1419803741465,7.4310036,-2.4756045,0.2765303,8.974679,-3.9005497,0.6412787
1419803741488,7.6943655,-2.6617537,0.39803603,9.005479,-3.833975,0.6102119
1419803741488,8.192958,-2.9801826,0.54647654,9.030135,-3.778806,0.5896435
1419803741493,8.773552,-3.354875,0.6715736,9.047642,-3.736734,0.58941275
1419803741518,9.264363,-3.5972881,0.7679402,9.058468,-3.7102916,0.59013903
1419803741518,9.56723,-3.7499185,0.8230068,9.06539,-3.6917837,0.59987247
1419803741535,9.801862,-3.8839936,0.8810662,9.069259,-3.6794972,0.6166399
1419803741536,9.998186,-4.0240545,0.94930094,9.070077,-3.6730351,0.64257646
1419803741550,10.166379,-4.0892963,0.92176765,9.067263,-3.6736615,0.6777571
1419803741553,10.183139,-4.056975,0.8870517,9.064609,-3.6744578,0.70824987
1419803741572,10.046669,-4.128801,0.9139865,9.063786,-3.6726146,0.7280767
1419803741573,10.166978,-4.1503487,0.81343,9.057925,-3.6814904,0.75565207
1419803741585,10.3226,-4.110844,0.6703765,9.054902,-3.6858318,0.77057815
1419803741608,10.250774,-4.06296,0.5506664,9.05691,-3.681343,0.7684325
1419803741609,10.204686,-4.007295,0.52253455,9.060044,-3.6771429,0.7513896
1419803741613,10.377667,-3.9264908,0.5931635,9.065003,-3.6700778,0.72570616
1419803741645,10.527305,-3.8205473,0.6847417,9.074247,-3.6504714,0.70886314
1419803741645,10.642825,-3.6990416,0.7637503,9.087527,-3.6204267,0.6926235
1419803741646,10.797251,-3.5500026,0.78888947,9.104516,-3.5800388,0.6793347
1419803741671,11.039065,-3.2429461,0.7733272,9.126603,-3.5256858,0.66711074
1419803741672,11.637017,-2.9999347,0.7410054,9.158518,-3.4442053,0.65528077
1419803741673,12.631209,-2.9071593,0.83497787,9.200122,-3.3337777,0.6434644
1419803741685,13.267468,-3.210026,0.712275,9.247032,-3.2015584,0.6425217
1419803741700,13.58889,-3.430891,0.3693056,9.2871,-3.0864954,0.6274752
1419803741717,13.678074,-3.3369186,0.05566519,9.321295,-2.989995,0.5863149
1419803741717,15.098434,-2.106299,-8.71669,9.354432,-2.8966026,0.5240664
1419803741738,16.575657,-2.111686,-18.957888,9.423922,-2.7017996,-0.24572717
1419803741739,13.369223,-3.9624038,-0.25258827,9.43313,-2.6701462,-0.2382463
1419803741745,12.628816,-3.0041246,8.009203,9.379228,-2.4778943,-1.4354557
1419803741766,12.549209,-2.1027076,5.674258,9.481521,-2.4096453,-0.68175316
1419803741766,12.105083,-2.8514943,0.38965634,9.525983,-2.3073385,-0.31970966
1419803741781,11.2210245,-5.1702785,-1.2611457,9.52418,-2.2845104,-0.49133494
1419803741810,10.716447,-6.8127007,1.134253,9.487754,-2.4350646,-0.47259647
1419803741811,11.2689085,-7.3819222,2.1721394,9.426001,-2.6951895,-0.23842824
1419803741812,12.192472,-7.992444,1.9285295,9.343951,-2.9757695,-0.07590806
1419803741814,13.045406,-8.67958,0.9091981,9.252171,-3.2507875,-0.009843933
1419803741843,13.08132,-9.492412,0.39743748,9.149696,-3.5288117,0.030749068
1419803741844,12.545617,-9.7641535,0.43394905,9.034141,-3.8150175,0.018816344
1419803741845,11.37186,-9.388862,1.1384429,8.916274,-4.0829005,0.018601533
1419803741866,10.014946,-8.590994,1.6639702,8.804091,-4.318799,0.07975363
1419803741867,8.637083,-8.189367,2.1218612,8.699027,-4.523662,0.1838748
1419803741881,8.157045,-7.795521,1.9895816,8.584701,-4.729201,0.32855406
1419803741886,7.9912467,-7.2286935,2.078167,8.474507,-4.915662,0.43520534
1419803741907,8.26658,-6.3009405,2.1272483,8.381594,-5.0594344,0.56692606
1419803741908,8.428188,-5.4623713,1.5316905,8.33012,-5.1281133,0.6942209
1419803741914,8.10557,-4.883573,0.7338228,8.317551,-5.137366,0.7721453
1419803741942,7.7853456,-4.6022544,0.4225766,8.325639,-5.120749,0.7950174
1419803741943,7.495647,-4.406528,0.2100912,8.340562,-5.0962415,0.7960892
1419803741946,7.009624,-4.3436804,0.5410896,8.35466,-5.0778747,0.7650154
1419803741988,6.223727,-4.6244006,0.8738836,8.356241,-5.0741854,0.7721968
1419803741989,5.3396683,-5.0284224,1.1360487,8.324452,-5.1213517,0.8035152
1419803741990,4.550779,-5.193622,1.1683705,8.251723,-5.2287493,0.8600078
1419803741990,3.78643,-5.2301335,1.1408371,8.14686,-5.3809614,0.9188715
1419803741993,3.0998926,-5.2474914,1.2533646,8.012216,-5.5699444,0.9749495
1419803742020,2.825158,-5.34326,1.2838906,7.8499427,-5.7831593,1.0506544
1419803742021,3.127426,-5.3983264,1.1719618,7.664436,-6.013629,1.1238755
1419803742025,3.430891,-5.3366756,0.9923966,7.4862375,-6.2226267,1.1855556
1419803742033,3.596091,-5.120599,0.7254431,7.3286314,-6.4003205,1.2236912
1419803742057,3.8235402,-4.793192,0.53570265,7.201567,-6.542715,1.2250304
1419803742058,4.1383777,-4.43466,0.40641573,7.1153536,-6.6399126,1.2056848
1419803742065,4.4580035,-4.19105,0.34835634,7.073593,-6.689142,1.1790055
1419803742093,4.667496,-4.0743327,0.30765492,7.0733275,-6.6953564,1.1448369
1419803742094,4.7860093,-4.1479545,0.16938977,7.090576,-6.6841307,1.1029681
1419803742097,5.011064,-4.2676644,0.10295067,7.1094956,-6.6731076,1.046474
1419803742129,5.4737434,-4.3077674,0.18674773,7.1327195,-6.6581416,0.9817613
1419803742130,6.143522,-4.3341036,0.22325931,7.1776004,-6.6172132,0.9300192
1419803742130,7.215525,-4.280234,-0.18315643,7.2562585,-6.537749,0.88031197
1419803742134,8.866926,-4.0922894,-1.8836381,7.3989577,-6.389708,0.7729553
1419803742156,11.790845,-3.0885203,-5.8574142,7.6261597,-6.148911,0.45054686
1419803742156,17.065271,-0.40043023,-11.791444,7.990687,-5.676343,-0.3137848
1419803742165,19.607914,4.3556514,-14.215572,8.455526,-4.7151,-1.5627893
1419803742193,19.607914,5.614403,-6.535572,8.424513,-4.7964325,-1.4806126
1419803742194,19.428349,0.82480246,-4.156334,9.1077385,-2.2119348,-2.8856254
1419803742195,14.331093,-1.2006922,-2.9652188,9.256674,-1.6528984,-2.7842953
1419803742219,9.907207,-1.2162545,-2.0254946,9.321295,-1.482308,-2.6620693
1419803742219,7.48607,-1.543063,-2.5905263,9.354008,-1.4471725,-2.5648742
1419803742225,6.361394,-1.5574282,-1.2545617,9.333402,-1.5545503,-2.5770893
1419803742234,5.7682304,-2.693477,2.9179332,9.323041,-1.6502769,-2.5549703
1419803742262,6.1106014,-5.7963624,5.1146135,9.386582,-1.8341526,-2.1675768
1419803742263,6.3979053,-8.783129,6.311714,9.406818,-2.3041208,-1.5405183
1419803742266,10.132261,-10.30225,5.077503,9.2962885,-3.023818,-0.77840185
1419803742289,17.539324,-9.873089,-6.6870055,9.084951,-3.6883025,-0.17464565
1419803742290,19.302053,-9.7240505,-7.66384,8.949172,-3.9456322,-0.71743196
1419803742294,12.126632,-9.437345,-3.7271736,8.900211,-4.059983,-0.6878819
1419803742325,7.068282,-7.839813,-5.895722,8.737857,-4.227073,-1.3971928
1419803742326,5.9621606,-6.493075,0.60932434,8.566327,-4.4102974,-1.8269457
1419803742328,5.321712,-5.8945246,5.847239,8.475324,-4.658382,-1.6244211
1419803742334,4.258686,-5.509058,5.61979,8.42682,-4.918866,-0.98174953
1419803742363,3.7642837,-4.8799815,4.1904516,8.319929,-5.1750884,-0.40942734
1419803742364,3.803788,-4.392163,2.6581624,8.206596,-5.3685684,0.025689883
1419803742366,4.6519337,-4.338892,1.5298948,8.1032915,-5.5128727,0.33955988
1419803742394,6.411672,-4.5777135,1.127669,8.027161,-5.6102858,0.509698
1419803742394,8.197148,-5.1648917,1.3485341,8.004437,-5.634224,0.59572285
1419803742395,9.660006,-5.817312,1.6310499,8.020053,-5.602656,0.67778486
1419803742418,10.965444,-6.1943984,1.7753005,8.049397,-5.549536,0.7617445
1419803742419,11.690289,-6.493075,1.875857,8.101216,-5.4641356,0.82698125
1419803742433,11.742961,-6.5403605,1.7878702,8.154446,-5.3761272,0.879033
1419803742458,11.290457,-5.9064956,1.6089035,8.200287,-5.2997622,0.9155262
1419803742459,10.755353,-5.1020436,1.4520833,8.2534895,-5.211601,0.943131
1419803742460,10.166978,-4.549582,1.3628993,8.317197,-5.1041284,0.97081006
1419803742466,9.462483,-4.1521444,1.2204443,8.379152,-4.9958887,1.0006403
1419803742490,8.81605,-3.7056258,1.18094,8.438821,-4.890801,1.0182267
1419803742491,8.528745,-3.2154129,1.1150994,8.495003,-4.78699,1.0440515
1419803742495,8.453327,-2.9179332,1.1390414,8.55626,-4.6713233,1.0674906
1419803742527,8.381501,-2.7856536,1.1019313,8.619036,-4.547566,1.0964786
1419803742528,8.544906,-2.718616,1.0193313,8.67946,-4.4248915,1.1214873
1419803742529,8.539519,-2.855684,0.9127894,8.740267,-4.3003016,1.1338117
1419803742551,8.51857,-2.896984,0.80924016,8.791188,-4.196582,1.1287591
1419803742552,8.68796,-2.8149827,0.7062895,8.834487,-4.1073475,1.1189032
1419803742557,9.009979,-2.6162639,0.705691,8.8779545,-4.0167823,1.1035198
1419803742566,9.165004,-2.4636335,0.5686229,8.927811,-3.90816,1.0912657
1419803742594,9.146449,-2.315193,0.5231331,8.982531,-3.7879915,1.0656683
1419803742595,9.006987,-2.171541,0.57041854,9.038092,-3.662027,1.0357937
1419803742595,8.916606,-2.088941,0.7278373,9.091831,-3.5353074,1.0052799
1419803742614,8.788516,-2.0847511,0.7870938,9.140774,-3.410815,0.9914446
1419803742617,8.651448,-2.0787656,0.80804306,9.182866,-3.2984834,0.9825506
1419803742631,8.443152,-2.1643584,0.8218097,9.217922,-3.2007759,0.97741693
1419803742646,8.272566,-2.3900118,0.7278373,9.24292,-3.1277592,0.9777108
1419803742646,8.264186,-2.6042929,0.5129577,9.256283,-3.0898135,0.97194636
1419803742667,8.3072815,-2.906561,0.33518824,9.262691,-3.078486,0.9465147
1419803742668,8.33242,-3.1507695,0.26635495,9.260883,-3.0970635,0.9025781
1419803742680,8.614338,-3.221997,0.33518824,9.252224,-3.1358118,0.8563931
1419803742694,8.665215,-3.5535939,0.42078096,9.244167,-3.169415,0.8188902
1419803742694,8.738836,-3.855862,0.45968673,9.2256365,-3.2295783,0.7923614
1419803742712,9.063849,-3.9743748,0.47644615,9.199831,-3.3072412,0.77179366
1419803742715,9.834782,-4.1461587,0.42078096,9.175546,-3.3778834,0.7547598
1419803742727,10.056845,-4.271256,0.44651863,9.156782,-3.4342375,0.7278525
1419803742744,10.128072,-4.3526587,0.44113165,9.138114,-3.4881654,0.70565397
1419803742746,10.212467,-4.3520603,0.40462008,9.120895,-3.537827,0.68076736
1419803742763,10.1621895,-4.3089647,0.34955344,9.108117,-3.5761695,0.65085137
1419803742766,10.029311,-4.1425676,0.30166942,9.0982485,-3.6073272,0.6160155
1419803742783,9.872491,-3.8893807,0.26276365,9.093357,-3.625765,0.5788734
1419803742786,9.762358,-3.655946,0.24181437,9.09565,-3.625992,0.5401323
1419803742797,9.847352,-3.4512417,0.24121583,9.103629,-3.610042,0.5117799
1419803742819,9.952098,-3.2722752,0.2681506,9.1186905,-3.5765085,0.47796544
1419803742820,10.045472,-3.0268695,0.30286652,9.138764,-3.5288599,0.44781113
1419803742826,10.2178545,-2.5803509,0.40162733,9.165156,-3.4631448,0.4206595
1419803742859,10.626664,-2.1667526,0.6655881,9.204074,-3.360441,0.40357336
1419803742860,11.398794,-2.0045455,1.18094,9.253957,-3.2196162,0.41079614
1419803742860,12.443863,-1.863886,1.6777369,9.306805,-3.0551822,0.4686872
1419803742895,13.110648,-1.7244238,1.851915,9.36266,-2.8641746,0.55450463
1419803742896,13.096283,-1.7345991,1.5143325,9.41621,-2.6644468,0.6372652
1419803742897,13.453618,-1.3700819,0.18016368,9.460736,-2.4932446,0.66977936
1419803742897,14.6172,-0.46208093,-13.572729,9.5128355,-2.3123484,0.57390887
1419803742926,14.996681,-1.4095862,-15.307328,9.560491,-2.0779262,-0.67052495
1419803742927,13.127408,-2.3259668,2.2876596,9.4486475,-1.9133252,-1.7979584
1419803742927,14.268245,-1.8980033,6.306926,9.532268,-1.8414296,-1.3839836
1419803742956,13.724761,-2.203264,3.8013937,9.637135,-1.716374,-0.591701
1419803742956,12.275671,-3.6487634,-2.307412,9.655477,-1.6693699,-0.39411667
1419803742957,11.555614,-5.295376,-1.9740193,9.61667,-1.7542753,-0.78267246
1419803742966,11.568184,-6.51163,1.38325,9.572568,-1.9569618,-0.8406001
1419803742993,12.299613,-7.491457,1.560421,9.52992,-2.248198,-0.5446642
1419803742996,13.223775,-8.48984,0.43275195,9.4579115,-2.5673199,-0.3566095
1419803742997,14.062344,-9.233239,0.33877954,9.359364,-2.907067,-0.34881783
1419803743015,14.216769,-9.8515415,1.0720038,9.252969,-3.2302911,-0.34374565
1419803743016,13.360244,-10.344149,1.3215994,9.144936,-3.5334542,-0.23508565
1419803743026,12.331336,-10.06283,0.97144735,9.025067,-3.8343716,-0.12704584
1419803743048,11.408371,-9.090784,0.5805939,8.907477,-4.1016026,-0.063833594
1419803743049,10.327389,-7.9212165,0.60214174,8.808359,-4.3107653,-0.022177491
1419803743064,9.45171,-7.1245456,0.91099375,8.726299,-4.4745665,0.018266601
1419803743081,8.792108,-6.501455,1.13964,8.654606,-4.610854,0.09054551
1419803743081,8.359954,-5.7179523,1.3670892,8.596684,-4.71579,0.16949162
1419803743095,8.030751,-4.7680526,1.7142484,8.561497,-4.775556,0.2554564
1419803743095,7.8667483,-3.86484,1.7016789,8.55325,-4.782977,0.36802727
1419803743112,7.8505874,-3.3728316,0.7613561,8.570705,-4.7414722,0.48148108
1419803743114,7.3627687,-3.7415388,-0.05746084,8.607812,-4.6696243,0.52016515
1419803743127,6.5960255,-4.597466,-0.021547815,8.62425,-4.6420755,0.49381477
1419803743144,5.7903767,-5.192425,0.44771573,8.594252,-4.699922,0.46897522
1419803743146,4.7387238,-5.5006785,0.7685388,8.521409,-4.8295097,0.48148456
1419803743160,3.7858315,-5.511452,0.8774749,8.406688,-5.023082,0.51638037
1419803743177,3.0160956,-5.530606,0.9463082,8.260753,-5.2547746,0.5636302
1419803743178,2.3882163,-5.6856303,1.0127473,8.087291,-5.5116286,0.6229621
1419803743194,2.3211784,-5.6616883,1.0672154,7.872342,-5.806338,0.6950132
1419803743195,2.3062148,-5.7377043,1.0199299,7.6469784,-6.0907626,0.772496
1419803743212,2.3732524,-5.7347116,0.93014735,7.4100323,-6.367847,0.8439917
1419803743216,2.6809072,-5.6030307,0.90021986,7.1764655,-6.622404,0.901378
1419803743240,3.3039982,-5.397129,0.8283938,6.9721575,-6.830359,0.9516474
1419803743241,4.0258503,-5.083489,0.8230068,6.828602,-6.967819,0.99502486
1419803743246,4.4981065,-4.7387238,0.6991069,6.7558317,-7.034999,1.0187875
1419803743266,4.7638626,-4.578911,0.39025488,6.739264,-7.0477314,1.0402869
1419803743266,4.6710877,-5.005677,-0.14604631,6.7559605,-7.0347347,1.0197576
1419803743275,4.8069587,-5.3522377,-0.6596026,6.7423573,-7.0606165,0.92666245
1419803743303,5.275025,-5.3779755,-0.5835867,6.7186747,-7.101853,0.7703908
1419803743304,6.2219315,-5.1583076,-0.7086837,6.7224956,-7.1120276,0.63048685
1419803743307,7.9391727,-4.5896845,-2.0506337,6.809734,-7.040596,0.47739226
1419803743316,10.901399,-3.2172086,-4.3993454,7.0286174,-6.836802,0.16455343
1419803743343,15.4324255,-0.094570965,-7.9463553,7.454113,-6.3599296,-0.39735952
1419803743344,19.57978,5.61141,-13.374011,8.092217,-5.39645,-1.2508963
1419803743348,19.607914,8.215105,-8.139089,8.0502405,-5.4751062,-1.177801
1419803743385,19.568409,4.458602,-4.1820717,8.036823,-5.5061345,-1.1235548
1419803743387,15.222335,1.7908629,-3.2082303,9.324029,-1.4670898,-2.6609268
1419803743388,10.837953,0.3172317,-2.6659436,9.409382,-0.9884245,-2.580101
1419803743389,8.521563,-1.3096284,-2.5492263,9.429951,-0.8288863,-2.5611298
1419803743396,7.7159133,-1.6537948,-2.9454668,9.413921,-0.95168906,-2.5773625
1419803743433,8.027759,-1.7645266,-0.06584055,9.372485,-1.0934063,-2.6704628
1419803743434,9.989208,-3.679888,2.1631613,9.406099,-1.2016835,-2.5003374
1419803743436,9.654618,-5.61141,3.1920695,9.475563,-1.4428905,-2.074162
1419803743437,13.024457,-6.431424,1.0384849,9.504699,-1.839835,-1.5639977
1419803743447,19.339165,-5.2852,-5.4743423,9.473934,-2.201119,-1.2530137
1419803743483,19.23382,-6.1327477,-4.462792,9.421988,-2.292651,-1.4629662
1419803743484,11.224616,-7.797915,0.9828198,9.3695135,-2.424664,-1.5822917
1419803743485,4.803367,-7.1544733,0.45489833,9.305677,-2.7444859,-1.4291935
1419803743487,1.7417817,-6.8773446,-0.92895025,9.188263,-3.1245036,-1.4084303
1419803743495,1.1456255,-6.9503675,1.9147629,9.002266,-3.6101916,-1.4478039
1419803743523,2.8999767,-6.6403184,5.61141,8.798918,-4.166546,-1.1787027
1419803743524,4.3059716,-6.281787,4.540005,8.630505,-4.6310196,-0.4883274
1419803743527,4.959589,-6.1650696,2.574964,8.454238,-4.968511,0.1007197
1419803743554,5.791574,-5.9011087,1.472434,8.276162,-5.2413073,0.4519142
1419803743555,7.3525934,-5.769428,1.3102269,8.139603,-5.436087,0.60517275
1419803743556,9.184756,-5.787384,1.5640123,8.074054,-5.5265555,0.6612296
1419803743599,10.521918,-5.947197,1.8495208,8.082621,-5.5084434,0.7061722
1419803743600,11.300632,-6.0878563,1.9859903,8.121877,-5.4397116,0.7842596
1419803743600,11.394006,-5.973533,1.9470845,8.176674,-5.344798,0.8634367
1419803743601,11.062409,-5.547964,1.6184803,8.231018,-5.2476034,0.9398858
1419803743623,10.59973,-5.0787005,1.2587515,8.286378,-5.1511593,0.9858326
1419803743624,10.254366,-4.6764746,1.0217255,8.341639,-5.0577984,1.0030804
1419803743627,10.173561,-4.3424835,0.92895025,8.398197,-4.9629,1.0051405
1419803743649,10.248979,-3.911527,1.0570401,8.463048,-4.854203,0.99193335
1419803743650,10.241198,-3.469797,1.1534066,8.538588,-4.720069,0.9918883
1419803743655,10.023924,-3.0783448,1.1677719,8.621356,-4.565527,0.9992963
1419803743707,9.537901,-2.6312277,1.2844892,8.704581,-4.4019513,1.011684
1419803743709,8.940548,-2.2014685,1.2425907,8.78301,-4.2357855,1.0427171
1419803743710,8.527548,-1.8243817,1.1994951,8.855903,-4.0729136,1.074591
1419803743712,8.395866,-1.6777369,1.1941081,8.925466,-3.908609,1.1087133
1419803743714,8.474875,-1.6819267,1.0498575,8.989606,-3.748654,1.142368
1419803743753,8.81964,-1.5610195,0.9804256,9.047645,-3.6003008,1.1611935
1419803743755,9.173384,-1.3377602,0.9187749,9.108081,-3.4428327,1.1662608
1419803743756,9.335591,-1.1312603,0.92655605,9.1733,-3.267115,1.1605694
1419803743758,9.290101,-0.97264445,0.8607155,9.239089,-3.0780854,1.1554258
1419803743760,9.207501,-0.7858967,0.6955156,9.301188,-2.8893292,1.144583
1419803743827,8.895657,-0.7140707,0.66738373,9.362402,-2.695977,1.1169188
1419803743829,8.465299,-0.81402856,0.4249708,9.415205,-2.5167496,1.0910059
1419803743830,8.3312235,-0.9816227,0.18674773,9.458344,-2.3708649,1.0435913
1419803743832,8.478467,-1.3485341,-0.08678981,9.493075,-2.2578006,0.9768653
1419803743834,8.704121,-1.7100586,-0.15861586,9.517488,-2.1914802,0.88614964
1419803743836,8.722675,-2.1775265,-0.15801731,9.532118,-2.163124,0.79373765
1419803743838,8.766968,-2.544438,-0.13706805,9.533887,-2.185816,0.70542395
1419803743858,8.837597,-2.8101943,-0.07062895,9.527076,-2.2387621,0.6270308
1419803743859,8.859145,-3.0819361,0.031124622,9.513014,-2.3139498,0.56441814
1419803743860,8.830415,-3.3692403,0.12629414,9.491637,-2.409755,0.52180153
1419803743879,8.822035,-3.697246,0.19752164,9.463128,-2.5250902,0.4934553
1419803743880,8.9998045,-3.99293,0.29029694,9.426544,-2.661868,0.47450012
1419803743895,9.396643,-4.2179847,0.3788824,9.384853,-2.8068578,0.46526393
1419803743896,9.849147,-4.4119153,0.44592008,9.342063,-2.9466786,0.46187592
1419803743909,10.14543,-4.5525746,0.4237737,9.3010435,-3.0735407,0.46299294
1419803743929,10.254965,-4.6417584,0.3657143,9.26314,-3.186303,0.46056527
1419803743929,10.251373,-4.6662993,0.30585927,9.228079,-3.287628,0.4521955
1419803743942,10.227431,-4.526837,0.31783026,9.196067,-3.3780742,0.4374429
1419803743960,10.221446,-4.2185836,0.3429694,9.171307,-3.4467776,0.4210269
1419803743960,10.241198,-3.816956,0.36750996,9.157876,-3.4834847,0.41113764
1419803743977,10.292673,-3.4608185,0.40581718,9.158583,-3.4834425,0.39546546
1419803743977,10.404003,-3.0621839,0.427365,9.170799,-3.4525344,0.38319898
1419803743994,10.627861,-2.5007436,0.47764325,9.19511,-3.3883185,0.37368777
1419803744009,11.186908,-1.8710686,0.56982,9.235254,-3.2778387,0.36908656
1419803744009,12.315175,-1.3850456,0.7727286,9.293516,-3.107787,0.37763783
1419803744028,13.530232,-0.74519527,1.1444284,9.36466,-2.8830776,0.40175492
1419803744029,14.578893,0.59017074,0.29987377,9.446103,-2.5949228,0.45601434
1419803744043,18.340782,4.9763484,-16.99105,9.54526,-2.2081368,0.4272278
1419803744060,16.503233,4.367024,-10.554838,9.545609,-2.2049158,0.4359424
1419803744060,13.255498,3.0268695,2.4875755,9.619543,-0.8570897,-1.7029899
1419803744078,14.21258,2.2589293,0.39743748,9.698077,-0.44577014,-1.3852748
1419803744079,12.667123,-1.7669208,1.7441759,9.710252,-0.18903293,-1.3585607
1419803744094,12.446258,-3.7391446,2.7281928,9.7369995,-0.29494244,-1.1288095
1419803744109,12.703035,-5.6724625,2.2182279,9.760813,-0.52314126,-0.7894521
1419803744110,13.458406,-7.33763,0.8319851,9.751318,-0.8664868,-0.5756746
1419803744130,14.688427,-8.7609825,0.42317516,9.707126,-1.3050504,-0.48879474
1419803744130,15.751453,-10.144233,0.6733692,9.6326,-1.7912595,-0.41808483
1419803744135,16.09502,-11.2210245,0.8900445,9.529071,-2.292437,-0.3345242
1419803744162,15.363592,-12.065579,1.1043255,9.404988,-2.765677,-0.2600719
1419803744162,13.575722,-12.23078,1.1234791,9.257021,-3.2316043,-0.1861787
1419803744177,11.552622,-11.429919,0.92535895,9.09462,-3.6666307,-0.118828334
1419803744177,10.235811,-10.101735,0.74758947,8.934194,-4.043178,-0.057379447
1419803744190,9.279925,-8.988432,0.6691794,8.792331,-4.3434176,-0.0062622754
1419803744196,8.234857,-7.8487916,0.7835025,8.668371,-4.585661,0.03791487
1419803744207,7.595605,-6.92044,1.1593921,8.566666,-4.772168,0.09510142
1419803744224,7.1287355,-6.1866174,1.5783775,8.4848,-4.914387,0.16533992
1419803744227,6.3667808,-5.602432,2.095525,8.418913,-5.0214524,0.2780236
1419803744242,5.7885814,-4.569334,2.5330653,8.353212,-5.1194663,0.4304776
1419803744264,5.4761376,-3.4410665,2.1374235,8.306718,-5.1749473,0.62348145
1419803744265,5.3582234,-2.5450363,1.3389573,8.294936,-5.170769,0.7922133
1419803744267,5.2756233,-2.112883,0.60812724,8.32008,-5.112813,0.89767426
1419803744276,5.1942205,-2.2864625,0.15442601,8.368166,-5.0303392,0.916445
1419803744298,4.9542017,-2.8927941,0.41180268,8.410478,-4.961617,0.9036669
1419803744298,4.525041,-3.5565867,0.7152678,8.417872,-4.948939,0.90434045
1419803744310,4.0186677,-3.9959226,0.9056068,8.378421,-5.0113997,0.92645216
1419803744331,3.5823243,-4.1982327,1.1324574,8.297886,-5.136859,0.963428
1419803744332,3.2483332,-4.226963,1.1282675,8.186922,-5.300143,1.0262476
1419803744336,3.0442274,-4.301782,0.9163807,8.062922,-5.4735875,1.0952258
1419803744378,3.0693667,-4.4484267,0.6404489,7.9246554,-5.6636815,1.1370697
1419803744379,3.2854433,-4.7698483,0.4878186,7.7814035,-5.8569374,1.1473687
1419803744380,3.7834373,-4.9883194,0.26874915,7.6309905,-6.0539494,1.1349273
1419803744381,4.38917,-4.999093,0.10354923,7.49781,-6.226042,1.0907022
1419803744411,4.8422728,-4.923077,-0.011372458,7.4029307,-6.349417,1.02563
1419803744413,5.185841,-4.783615,-0.073023155,7.3445644,-6.4287963,0.94782245
1419803744414,5.5766945,-4.6680946,-0.28311434,7.3273654,-6.460479,0.8615861
1419803744439,6.296152,-4.3999443,-0.1316811,7.33918,-6.46058,0.7534879
1419803744440,7.4148426,-3.8013937,-0.40462008,7.4077563,-6.390427,0.67676383
1419803744441,8.798691,-2.9562407,-1.578976,7.569486,-6.208999,0.56710386
1419803744472,10.774507,-1.7717092,-3.809175,7.8328376,-5.892446,0.3100766
1419803744472,14.079103,0.34476504,-7.498041,8.195705,-5.3816514,-0.19654432
1419803744473,18.983027,4.1186256,-11.618463,8.631241,-4.536651,-1.044451
1419803744502,19.607914,7.1371155,-10.472239,8.602475,-4.61653,-0.92492175
1419803744503,19.607914,6.000468,-6.101623,8.581337,-4.675337,-0.81992364
1419803744504,16.437391,3.2573113,-4.1359835,9.357074,-1.0012878,-2.7591698
1419803744508,12.12304,1.6843209,-3.843891,9.415682,-0.4790832,-2.6992278
1419803744530,11.46224,-0.39145198,-4.3263226,9.426701,-0.23870033,-2.6927228
1419803744531,15.396513,-2.3373394,-4.6255975,9.40823,-0.29382044,-2.7512336
1419803744537,19.38585,-3.5853171,-7.1544733,9.387939,-0.47015786,-2.7957063
1419803744572,19.607914,-3.5739446,-5.4647655,9.339794,-0.70337594,-2.9058444
1419803744573,19.607914,-3.1735144,-2.8939912,9.333924,-0.8618977,-2.881901
1419803744574,15.197195,-5.509058,4.0880995,9.383081,-0.94753134,-2.688941
1419803744576,5.917868,-8.400057,10.277709,9.482225,-1.1994398,-2.195259
1419803744599,1.543063,-9.019556,9.140464,9.543932,-1.7394433,-1.434604
1419803744600,-2.7389667,-10.151415,3.003526,9.473695,-2.422847,-0.7411704
1419803744608,-5.744887,-10.572196,-2.1523874,9.207913,-3.338079,-0.4918876
1419803744627,-4.431069,-10.085575,1.2348095,8.71834,-4.4328074,-0.71494174
1419803744628,-0.31783026,-8.779537,2.2972364,8.12897,-5.4617386,-0.50952685
1419803744642,3.0388405,-7.0832458,1.8022354,7.640298,-6.14768,-0.047456603
1419803744659,4.8578353,-6.227917,2.2984335,7.3416452,-6.491583,0.3605139
1419803744659,6.1770406,-6.283582,2.7898436,7.1794066,-6.6504235,0.6311572
1419803744676,8.049905,-6.591836,3.2860417,7.1206937,-6.6949387,0.8024405
1419803744677,10.26933,-6.7803793,3.8085763,7.141436,-6.6466002,0.99649453
1419803744690,12.173917,-6.8486137,4.0132804,7.2607055,-6.484669,1.1838944
1419803744706,13.114839,-7.012018,3.7858315,7.429226,-6.248655,1.3897077
1419803744708,13.19265,-7.0090256,3.4087446,7.59093,-6.0095367,1.5600127
1419803744723,13.086108,-6.419453,2.8413188,7.7244544,-5.801776,1.6859998
1419803744728,12.908339,-5.518635,2.088941,7.851424,-5.6074944,1.7554231
1419803744741,12.791621,-4.5537715,1.3623008,7.996416,-5.399802,1.7521037
1419803744759,12.454638,-3.9193082,0.79607207,8.150348,-5.177274,1.7140816
1419803744759,11.821969,-3.5649664,0.52492875,8.303247,-4.955337,1.6343533
1419803744774,11.099519,-3.17531,0.35673606,8.443383,-4.7475758,1.529768
1419803744777,10.543466,-2.5366566,0.3238158,8.570336,-4.5527353,1.4115083
1419803744790,9.89763,-1.9973627,0.17118542,8.691826,-4.350984,1.3005799
1419803744808,9.24521,-1.5490485,0.11432313,8.803269,-4.1530137,1.193869
1419803744808,8.722076,-1.2240356,0.15382746,8.905857,-3.9537427,1.1063685
1419803744823,8.245032,-1.0366893,0.17657238,9.000003,-3.7560568,1.0307183
1419803744839,7.837419,-0.96546185,0.5243302,9.082359,-3.5687087,0.97234035
1419803744840,7.8446016,-0.91697925,0.95708215,9.148896,-3.3991358,0.95601624
1419803744858,8.243237,-0.7858967,1.2988545,9.205242,-3.2361023,0.98058224
1419803744858,8.670003,-0.7469909,1.3557167,9.261703,-3.0553188,1.0277526
1419803744873,8.876503,-0.97384155,1.1671734,9.314234,-2.8723075,1.0794821
1419803744876,9.105747,-1.2378023,0.9295488,9.35919,-2.711545,1.1061201
1419803744888,9.434352,-1.4167689,0.5746084,9.396601,-2.5761535,1.1125283
1419803744908,9.478046,-1.6124948,0.17357962,9.430299,-2.4620612,1.0854094
1419803744909,9.446921,-1.7495629,-0.0664391,9.459205,-2.378544,1.0180262
1419803744923,9.320028,-1.7004818,-0.23104046,9.483283,-2.3194177,0.92630017
1419803744938,9.009381,-1.7142484,-0.29568392,9.505091,-2.268485,0.8231819
1419803744940,8.590994,-1.834557,-0.27114335,9.521893,-2.2325428,0.72091645
1419803744966,8.377312,-1.9123687,-0.15861586,9.531097,-2.220737,0.6299927
1419803744967,8.322245,-2.0482395,0.010773907,9.535676,-2.2207756,0.55628437
1419803744968,8.388085,-2.3056161,0.22804771,9.535015,-2.2362096,0.50325453
1419803744978,8.672996,-2.6036944,0.48482585,9.527481,-2.2740297,0.47568917
1419803744997,9.093178,-2.8742392,0.7505822,9.513644,-2.3309915,0.47692764
1419803744997,9.433155,-3.0190883,1.033098,9.49512,-2.3993323,0.5062481
1419803745008,9.548675,-3.1130607,1.3341689,9.474934,-2.466985,0.5567859
1419803745031,9.633669,-3.1789012,1.5275006,9.452638,-2.5327554,0.63496935
1419803745032,9.8515415,-3.163339,1.5688007,9.429605,-2.592946,0.72773445
1419803745037,9.949105,-3.0597897,1.3736732,9.409788,-2.6380353,0.8167288
1419803745080,9.849746,-2.9987376,1.0953473,9.39637,-2.6667745,0.87577075
1419803745082,9.850943,-2.956839,0.9355343,9.387697,-2.6882133,0.90279305
1419803745083,10.011354,-2.8622682,0.9032126,9.38309,-2.7021658,0.90902185
1419803745084,10.220847,-2.719813,0.8798691,9.383248,-2.7032785,0.90406144
1419803745089,10.559627,-2.5905263,0.9020155,9.389038,-2.688264,0.888612
1419803745111,10.98759,-2.3678656,0.9576807,9.400005,-2.655409,0.87128234
1419803745112,11.337742,-1.99437,1.1282675,9.4178095,-2.595817,0.8584737
1419803745117,11.841123,-1.5328877,1.3479356,9.443128,-2.500516,0.86322224
1419803745150,12.867039,-1.2880806,1.5029601,9.476023,-2.3633187,0.8888779
1419803745151,13.9677725,-1.1629834,1.3605051,9.513665,-2.1953833,0.9169744
1419803745152,14.884752,-0.82360536,0.3812766,9.554196,-2.011005,0.91847914
1419803745157,18.467674,2.486977,-16.968904,9.6038475,-1.8046868,0.824386
1419803745182,16.080656,0.65182143,-12.870031,9.609049,-1.7876226,0.8006125
1419803745182,13.264476,0.2669535,7.004237,9.624207,-1.0474355,-1.5645915
1419803745189,13.599664,1.8363527,7.1550717,9.734014,-0.8575062,-0.8270848
1419803745207,14.356232,2.9107506,-1.4616601,9.786056,-0.58975804,-0.23599619
1419803745224,13.120225,1.0205284,-0.35254622,9.788293,-0.27890697,-0.5309522
1419803745225,12.234969,-1.4514848,3.110068,9.794709,-0.14454818,-0.461689
1419803745240,12.607866,-3.3602622,3.3291376,9.803901,-0.20161183,-0.115254566
1419803745241,13.278841,-4.982932,1.9752164,9.797667,-0.4111834,0.08381956
1419803745255,13.791799,-6.4882865,-0.12569559,9.778054,-0.73082423,0.16108517
1419803745258,14.413692,-7.792528,-0.4213795,9.740716,-1.129071,0.118636906
1419803745273,14.777612,-8.82802,0.62608373,9.679946,-1.5703657,0.05464929
1419803745290,14.832678,-9.611523,1.033098,9.596899,-2.0166717,0.05433131
1419803745291,14.392145,-9.892841,0.9355343,9.495603,-2.4491541,0.07471651
1419803745306,13.015479,-9.436148,0.6015432,9.384,-2.8458643,0.109450266
1419803745309,10.954071,-8.550293,0.61112,9.274178,-3.1833177,0.162799
1419803745346,9.188946,-7.9008656,1.1336545,9.167536,-3.477703,0.17953093
1419803745347,8.261193,-6.9168487,1.5251064,9.05926,-3.7465634,0.25187516
1419803745349,7.723695,-6.1381345,2.146402,8.966384,-3.9576423,0.33380732
1419803745350,7.4070616,-5.641338,2.4067712,8.887608,-4.118821,0.46492243
1419803745357,7.6003933,-4.8859673,2.070386,8.816731,-4.246531,0.63452655
1419803745385,7.453748,-4.175488,1.8106151,8.770261,-4.316929,0.78552526
1419803745386,6.9545574,-3.714604,1.5897499,8.747423,-4.341681,0.8959816
1419803745391,6.5206084,-3.406949,1.1965023,8.733171,-4.3492613,0.9929918
1419803745411,6.129156,-3.366846,1.1480197,8.72636,-4.349543,1.0500094
1419803745412,5.620987,-3.5033157,1.1953052,8.713162,-4.364751,1.0955164
1419803745417,5.0451818,-3.7433343,1.5167267,8.682958,-4.4115543,1.1466517
1419803745442,4.5154643,-4.023456,1.9009962,8.62626,-4.4989758,1.2317699
1419803745444,4.0438066,-4.1132383,1.8183962,8.542126,-4.6226735,1.3540279
1419803745461,3.7846344,-4.119224,0.42916065,8.438643,-4.775144,1.4689046
1419803745461,3.502717,-4.421492,0.062249243,8.342925,-4.9488683,1.4403759
1419803745470,3.6128504,-4.614824,-0.05207389,8.22475,-5.160492,1.375943
1419803745494,3.9396589,-4.7046065,-0.09756372,8.1001425,-5.374855,1.2919072
1419803745495,4.3903675,-4.7375264,-0.06823475,7.984049,-5.5674353,1.1954256
1419803745507,4.948815,-4.717176,-0.1364695,7.886407,-5.724333,1.0986321
1419803745548,5.446809,-4.7219644,-0.44532153,7.822557,-5.8300543,0.99422765
1419803745549,5.858013,-4.681263,-0.88645315,7.7832637,-5.904507,0.85323787
1419803745550,6.285378,-4.581305,-0.83138657,7.7705197,-5.9449506,0.66856545
1419803745551,6.9701195,-4.225766,-0.31004912,7.7823277,-5.945282,0.50928706
1419803745552,7.7590094,-3.7475243,-0.12868834,7.842646,-5.8717523,0.43106884
1419803745558,8.921992,-2.996942,-0.46986207,7.957883,-5.718139,0.38130388
1419803745583,10.618883,-1.9835961,-1.8782512,8.149971,-5.446327,0.2930361
1419803745584,12.792818,-0.6428431,-4.11683,8.419015,-5.0287504,0.04736951
1419803745589,15.992669,1.560421,-7.297527,8.738612,-4.4315214,-0.41071418
1419803745615,19.348742,5.222951,-9.730635,9.064847,-3.5731986,-1.1095886
1419803745615,19.607914,7.86615,-8.86932,9.047151,-3.6539853,-0.9837999
1419803745619,18.668787,5.934029,-5.7442884,9.038062,-3.7017102,-0.88383424
1419803745648,14.044387,3.417723,-3.614646,9.487109,-0.49624828,-2.4328735
1419803745648,11.513716,1.9267339,-2.4408886,9.499778,-0.10635844,-2.4317274
1419803745650,9.79827,0.29747957,-1.3042414,9.513048,0.12788141,-2.3782308
1419803745657,9.625888,-0.83138657,0.08319851,9.540972,0.11698592,-2.2641873
1419803745681,11.518504,-3.0490158,2.0374656,9.582828,-0.015994273,-2.083158
1419803745681,13.725958,-5.8400564,2.6479871,9.64442,-0.29770285,-1.7512679
1419803745689,18.75079,-6.3003416,-0.6895301,9.683422,-0.7595681,-1.3508468
1419803745712,19.607914,-4.5118732,-8.063073,9.666875,-1.1412901,-1.1913736
1419803745713,18.691532,-5.2852,-2.1057005,9.587502,-1.3107562,-1.5912668
1419803745718,10.159795,-7.4202294,5.4605756,9.57086,-1.5162942,-1.5066196
1419803745765,3.8893807,-7.492056,4.506486,9.56607,-1.8970597,-1.0304732
1419803745768,-1.192911,-8.446744,-0.18495208,9.490805,-2.353598,-0.7453778
1419803745771,-3.6463692,-8.986636,-2.1823149,9.281455,-3.0558367,-0.82875663
1419803745773,-1.9273324,-8.06427,2.7688942,8.928356,-3.9275324,-1.0145667
1419803745774,1.3521254,-7.1664443,4.0378213,8.584073,-4.6973753,-0.6471039
1419803745805,3.1639376,-6.757634,2.8101943,8.286509,-5.2434525,-0.10186587
1419803745805,4.4520183,-6.745663,1.9333179,8.017439,-5.6347003,0.3757895
1419803745807,6.851008,-6.771401,1.6879122,7.789813,-5.9247875,0.62138194
1419803745822,9.683948,-6.8731546,1.9961656,7.67672,-6.0619574,0.70073324
1419803745823,11.934497,-6.906075,2.540248,7.6848736,-6.0444646,0.7599945
1419803745841,13.262082,-6.783372,2.9981391,7.7809873,-5.904133,0.87627244
1419803745841,12.937069,-6.4828997,3.0945058,7.9027247,-5.7178807,1.0115241
1419803745856,11.934497,-5.7418942,2.9412768,8.009001,-5.541143,1.1497935
1419803745860,11.21444,-4.6686935,2.6396074,8.100186,-5.378237,1.2774702
1419803745888,10.62846,-3.9282866,2.166154,8.19829,-5.2006807,1.3825171
1419803745889,10.355521,-3.4955344,1.899799,8.294975,-5.0258174,1.4508468
1419803745894,10.226832,-3.2142158,1.7375919,8.393467,-4.845257,1.4978527
1419803745926,10.123283,-2.938284,1.484405,8.488919,-4.6661634,1.5282562
1419803745927,10.02153,-2.5396495,1.1665748,8.5884285,-4.4795823,1.5305741
1419803745928,9.805453,-2.211644,0.9091981,8.690528,-4.285446,1.5099834
1419803745931,9.661202,-1.9063832,0.7685388,8.790514,-4.092953,1.4645811
1419803745938,9.415796,-1.6370354,0.7104794,8.887291,-3.8988833,1.4089634
1419803745961,9.063251,-1.3808558,0.7236475,8.977555,-3.706515,1.3548563
1419803745962,8.922591,-0.8714894,0.9744401,9.058407,-3.5198703,1.313841
1419803745970,8.968081,-0.52971715,1.2360066,9.140379,-3.3060086,1.301609
1419803745994,9.090185,-0.26396075,1.4556746,9.216781,-3.0780456,1.3217412
1419803745994,9.157223,-0.12928689,1.4796166,9.286633,-2.8399613,1.3650842
1419803745998,9.298481,-0.09756372,1.5873557,9.349337,-2.6052508,1.4046321
1419803746034,9.424176,-0.16400282,1.5819688,9.404247,-2.3783572,1.4401159
1419803746035,9.520543,-0.2184709,1.447295,9.450928,-2.1679263,1.4664333
1419803746036,9.473856,-0.30885202,1.2162545,9.490508,-1.979373,1.4774189
1419803746039,9.358934,-0.52492875,0.91338795,9.525608,-1.81062,1.4679362
1419803746056,9.3738985,-0.7158663,0.54049104,9.554904,-1.6809999,1.4312421
1419803746068,9.529521,-0.9475053,0.17597382,9.5813265,-1.5866938,1.3605033
1419803746070,9.5809965,-1.2503718,-0.16460137,9.604913,-1.5284003,1.2570035
1419803746086,9.586982,-1.6280571,-0.41479546,9.624103,-1.5086063,1.127467
1419803746091,9.753978,-1.881244,-0.46926352,9.636765,-1.5275133,0.9848186
1419803746107,9.953894,-2.0727801,-0.27353755,9.643686,-1.5652684,0.84831256
1419803746120,10.056845,-2.2385786,-0.094570965,9.644111,-1.6143358,0.74528235
1419803746121,10.109517,-2.3529017,-0.022744916,9.63988,-1.671934,0.66913277
1419803746135,9.912594,-2.545635,0.006584055,9.63358,-1.7317984,0.60447603
1419803746137,9.674969,-2.7647045,0.006584055,9.623466,-1.8061899,0.5449688
1419803746152,9.591172,-2.8485014,0.048482586,9.608967,-1.8977973,0.48632076
1419803746167,9.490616,-2.8568811,0.18974048,9.592505,-1.9913305,0.43458194
1419803746169,9.39365,-2.9777884,0.39444473,9.5747795,-2.0802717,0.40799746
1419803746185,9.519944,-3.064578,0.5566519,9.554309,-2.1743765,0.3970831
1419803746189,9.753978,-3.0107086,0.60932434,9.533375,-2.2629282,0.40537485
1419803746215,9.750386,-2.918532,0.65780693,9.515984,-2.332558,0.4190968
1419803746216,9.713276,-2.8550856,0.6715736,9.50186,-2.386178,0.43728304
1419803746220,9.7563715,-2.758719,0.7128736,9.490408,-2.427661,0.4571439
1419803746240,9.838373,-2.617461,0.83617496,9.482594,-2.4536712,0.47988006
1419803746241,9.746197,-2.4187422,0.92416185,9.4786625,-2.4628103,0.5098393
1419803746256,9.64145,-2.0841527,1.0109516,9.478381,-2.4566474,0.5436638
1419803746273,9.737218,-1.6154876,1.1216835,9.484513,-2.4240296,0.5817982
1419803746274,10.437522,-1.2826935,1.3640964,9.500559,-2.3489637,0.62622285
1419803746294,11.702259,-1.2120646,1.8830396,9.524546,-2.2322335,0.6859996
1419803746295,13.151949,-1.0336965,2.472612,9.548771,-2.093464,0.7802417
1419803746298,14.13417,-0.86370826,2.8999767,9.573163,-1.9235905,0.90816337
1419803746317,14.444219,-0.59855044,2.6886885,9.593977,-1.7436239,1.0420074
1419803746318,14.131177,-0.4333505,1.3533225,9.616104,-1.5595179,1.1264247
1419803746333,15.522807,0.6242881,-13.456012,9.646723,-1.3912576,1.08423
1419803746338,15.143326,-0.51355624,-16.25184,9.73557,-1.164867,-0.17942221
1419803746358,13.4608,-1.5945383,2.778471,9.737468,-1.1437984,-0.20940161
1419803746359,12.81676,-1.1617863,7.5171947,9.703003,-0.990821,-1.0200014
1419803746369,12.416928,-1.0498575,3.1352072,9.7566185,-0.934004,-0.3261945
1419803746394,12.401965,-2.1290438,-2.1691468,9.760851,-0.90176034,-0.28814125
1419803746395,12.181698,-3.8762126,0.46327803,9.74919,-0.9437042,-0.4828015
1419803746399,12.429498,-5.0942626,1.6938977,9.737965,-1.1206822,-0.2940829
1419803746440,13.130401,-6.151303,0.39504328,9.708083,-1.3809617,-0.12820011
1419803746441,13.855844,-7.16405,-0.4249708,9.658676,-1.6903032,-0.15250453
1419803746446,13.997102,-7.9331875,-0.3298013,9.416867,-2.7315834,-0.17735608
1419803746447,13.318345,-8.395866,0.38187516,9.416867,-2.7315834,-0.17735608
1419803746450,12.467805,-8.301296,0.7104794,9.416867,-2.7315834,-0.17735608
1419803746478,11.5155115,-7.6015906,0.9463082,9.321988,-3.042123,-0.12802856
1419803746479,10.183139,-6.7923503,0.9540894,9.235998,-3.2961218,-0.048214436
1419803746480,9.058462,-6.293758,0.7457938,9.161109,-3.4990501,0.033641867
1419803746517,8.594585,-5.4821234,1.0043676,9.08809,-3.6837602,0.08326062
1419803746518,8.27077,-4.5447936,0.8062474,9.034378,-3.8113506,0.15488398
1419803746519,7.7584105,-3.9468415,0.8319851,9.0044365,-3.8786793,0.2153003
1419803746520,7.3807254,-3.6152446,1.0097545,8.986616,-3.9155996,0.28142333
1419803746547,7.2382703,-3.2704794,0.8631097,8.973895,-3.9381447,0.3614308
1419803746548,7.1700354,-3.031658,0.89603,8.97071,-3.9402559,0.41369975
1419803746549,6.927024,-3.0310593,0.88405895,8.974165,-3.9244957,0.4827885
1419803746570,6.727108,-2.9634233,0.63087213,8.973947,-3.9160852,0.55042833
1419803746571,6.2781954,-3.122039,0.39324763,8.975053,-3.9077432,0.5902334
1419803746587,5.6257753,-3.6655228,0.59855044,8.964575,-3.9315746,0.5912107
1419803746600,5.159505,-4.136582,0.7799112,8.920608,-4.027686,0.60902387
1419803746601,4.96737,-4.2544966,0.8631097,8.846894,-4.18272,0.63853246
1419803746617,4.735731,-4.200627,0.82899237,8.763845,-4.3485045,0.6752135
1419803746618,4.617218,-4.161721,0.7978677,8.674707,-4.518006,0.71236414
1419803746641,4.730344,-4.1335893,0.7529764,8.58452,-4.6802235,0.7562483
1419803746641,5.003283,-4.1826706,0.6691794,8.499944,-4.8245273,0.80330265
1419803746652,5.303157,-4.164714,0.43634325,8.424099,-4.9504213,0.83562607
1419803746665,5.60722,-4.0013094,0.32621,8.363887,-5.051495,0.8355915
1419803746670,5.793968,-3.8055837,0.2717419,8.329034,-5.111081,0.82125247
1419803746682,5.8562174,-3.6499605,0.15801731,8.312111,-5.1425867,0.7956177
1419803746706,5.705383,-3.5482068,-0.074220255,8.307693,-5.1545224,0.76389146
1419803746707,5.662287,-3.6942532,-0.14664486,8.305584,-5.1661944,0.70577496
1419803746710,5.8562174,-3.9019501,0.11671733,8.292789,-5.1949606,0.64219064
1419803746719,6.319495,-3.9193082,0.24959552,8.271945,-5.231378,0.6148319
1419803746744,7.019201,-3.715801,-0.04189853,8.26695,-5.2406564,0.6028817
1419803746745,8.063671,-3.306991,-1.091756,8.305573,-5.184548,0.55525714
1419803746750,9.825205,-2.3092074,-3.232771,8.401492,-5.0445857,0.37080842
1419803746786,13.022661,0.020949265,-6.3566055,8.590849,-4.7291656,-0.05208463
1419803746788,18.120516,4.209605,-10.147225,8.893469,-4.058908,-0.7758152
1419803746791,19.607914,10.390836,-7.221511,9.218127,-2.869762,-1.7207526
1419803746809,18.173187,6.326678,-5.617396,9.219374,-2.9146771,-1.6365244
1419803746810,12.075755,3.5368345,-3.9384618,9.525285,-0.42602938,-2.2929947
1419803746810,9.521142,1.5951369,-3.1854854,9.515344,-0.008890286,-2.3724535
1419803746819,10.238804,-0.2657564,-2.3798366,9.500669,0.18199673,-2.423749
1419803746837,12.270883,-2.6024973,-0.22744916,9.511474,0.100307465,-2.385834
1419803746842,13.306375,-5.0134583,1.7274165,9.5595045,-0.19817367,-2.1787536
1419803746865,17.001226,-5.60722,2.6007016,9.612961,-0.64146775,-1.8302722
1419803746865,19.607914,-3.6529531,-1.8495208,9.653721,-1.0271835,-1.385981
1419803746870,17.374123,-4.9242744,0.6368576,9.64767,-1.1602479,-1.3216181
1419803746899,8.5473,-7.7943234,5.349245,9.643068,-1.4035116,-1.1008056
1419803746900,3.2549171,-8.63828,1.4586674,9.601418,-1.9008734,-0.6081499
1419803746901,-0.19692309,-9.046491,-3.104681,9.473772,-2.4830663,-0.50241745
1419803746926,-0.83497787,-8.690952,0.29149407,9.226002,-3.2148833,-0.8460611
1419803746927,1.501763,-8.094796,4.36044,8.916743,-3.995797,-0.83407813
1419803746930,4.458602,-6.9366007,3.1723173,8.639948,-4.6301227,-0.28926015
1419803746965,5.8143187,-6.1530986,2.0847511,8.434193,-5.0014887,0.14105083
1419803746967,6.4577603,-5.631761,1.6741456,8.28009,-5.2289586,0.5181853
1419803746968,7.387908,-5.145139,1.5520413,8.171446,-5.3725576,0.730406
1419803746970,8.925584,-4.7614684,1.6813282,8.134763,-5.4174848,0.8042836
1419803747003,10.538078,-4.5926776,1.9554642,8.17478,-5.352971,0.8301027
1419803747003,11.600506,-4.5124717,2.3361423,8.265014,-5.2036877,0.8840753
1419803747004,12.097302,-4.3634324,2.5420437,8.370746,-5.0109973,0.9954533
1419803747020,12.146384,-4.150947,2.5276785,8.476292,-4.805499,1.109087
1419803747021,11.944673,-3.9378633,2.2984335,8.57299,-4.6023545,1.221715
1419803747038,11.678916,-3.6721067,1.7555484,8.657317,-4.416148,1.3110574
1419803747051,11.438897,-3.5338416,1.3102269,8.734324,-4.249303,1.3510683
1419803747051,11.246762,-3.5093012,1.0378864,8.802531,-4.1060686,1.3513054
1419803747070,11.059416,-3.4105403,0.82480246,8.861305,-3.9868925,1.3237699
1419803747071,10.708666,-3.0753522,0.7218518,8.917134,-3.8777242,1.2721556
1419803747085,10.147824,-2.6982653,0.52612585,8.973539,-3.764297,1.2149223
1419803747100,9.437943,-2.4905684,0.3238158,9.030525,-3.6491482,1.1417967
1419803747101,9.083601,-2.224812,0.19991584,9.080347,-3.5484693,1.0611584
1419803747117,8.992621,-2.094328,0.15741876,9.129137,-3.4447181,0.9814202
1419803747132,9.033921,-1.9045875,0.23642741,9.174253,-3.3438537,0.90671307
1419803747132,9.209895,-1.5711949,0.54288524,9.218703,-3.234762,0.84983593
1419803747149,9.2907,-1.2695254,0.96067345,9.2659,-3.1035821,0.82539916
1419803747150,9.3026705,-0.9864111,1.2425907,9.3123,-2.9557688,0.8455162
1419803747167,9.276933,-0.6631939,1.5023615,9.358007,-2.7924633,0.8945678
1419803747170,9.070433,-0.39803603,1.8656816,9.403524,-2.6090941,0.9678661
1419803747182,8.648455,-0.3537433,1.9375077,9.4438095,-2.4150522,1.0734776
1419803747207,8.072051,-0.45130703,1.8112136,9.474089,-2.240008,1.1808505
1419803747207,7.8829093,-0.5398925,1.7010803,9.495501,-2.0935194,1.273972
1419803747211,8.003218,-0.777517,1.5747862,9.511127,-1.9691663,1.3532282
1419803747220,8.036138,-1.1785458,1.276708,9.52087,-1.8787495,1.411995
1419803747242,8.220491,-1.441908,0.8750807,9.525043,-1.8393744,1.4355
1419803747243,8.452729,-1.5298948,0.55844754,9.530649,-1.8269913,1.413941
1419803747251,8.597578,-1.6238673,0.33399114,9.539947,-1.8224186,1.355949
1419803747269,8.728063,-1.763928,0.24420857,9.550616,-1.8269463,1.2721671
1419803747283,8.945934,-1.9416976,0.30885202,9.559135,-1.8425647,1.1824893
1419803747284,9.130887,-2.0769699,0.45968673,9.563523,-1.8696856,1.1016847
1419803747308,9.16261,-2.1865046,0.6607997,9.563353,-1.9051816,1.040654
1419803747308,9.1668,-2.3421278,0.7870938,9.558294,-1.9485035,1.0063508
1419803747311,9.419388,-2.4833858,0.92176765,9.548955,-2.0019534,0.9899786
1419803747321,9.838373,-2.5689783,0.9900024,9.53721,-2.0578663,0.9885297
1419803747345,10.187927,-2.6312277,1.0223241,9.526207,-2.1069372,0.99125373
1419803747346,10.641628,-2.6168625,1.1019313,9.516425,-2.1489396,0.9950376
1419803747351,11.109096,-2.558803,1.0899603,9.510045,-2.1729689,1.0038174
1419803747370,11.448474,-2.428319,1.1061212,9.508575,-2.1779547,1.006915
1419803747386,11.660959,-2.2936451,1.0989386,9.511838,-2.163413,1.0074532
1419803747388,11.84232,-2.1619642,1.1617863,9.51899,-2.1341279,1.0023519
1419803747402,11.951257,-1.99437,1.1264719,9.528613,-2.0930889,0.9974384
1419803747402,11.944074,-1.7585411,0.90859956,9.540742,-2.0398104,0.9918711
1419803747418,11.827356,-1.4873978,0.6655881,9.557806,-1.9737417,0.9607585
1419803747419,11.742961,-1.1953052,0.44951138,9.578572,-1.8943788,0.9125109
1419803747434,11.877036,-0.8265981,0.2621651,9.602416,-1.7986809,0.8536695
1419803747455,12.499529,-0.41060558,0.038307227,9.629926,-1.6774095,0.7881559
1419803747456,13.365032,0.2621651,-0.6931214,9.660964,-1.5266882,0.7109068
1419803747459,16.405668,3.5889084,-14.546571,9.700304,-1.3206012,0.57488227
1419803747495,15.814899,3.2273839,-14.975133,9.697573,-1.3186457,0.62340707
1419803747496,12.113463,1.2306197,2.9113493,9.696835,-1.2991014,0.6738839
1419803747497,14.00608,2.712032,2.0787656,9.711946,-0.20796704,-1.3435975
1419803747499,15.671845,3.301604,-5.501277,9.745788,0.103228025,-1.0859882
1419803747522,14.4370365,1.7381904,-0.3752911,9.679767,0.37999418,-1.5258193
1419803747523,13.480553,-0.026934769,3.2902317,9.698293,0.4836425,-1.3709979
1419803747530,13.2985935,-2.094328,4.119224,9.747828,0.46889353,-0.9645564
1419803747560,13.244125,-4.0066967,3.8241386,9.783816,0.3053037,-0.59506756
1419803747561,13.491326,-5.246893,3.0992942,9.801553,-8.013795E-4,-0.31616145
1419803747561,14.490906,-6.11539,1.2797008,9.798863,-0.38291475,-0.077696696
1419803747591,16.158466,-7.241862,-2.333748,9.774111,-0.7981974,-0.00424246
1419803747592,16.615759,-8.456919,-2.698864,9.72814,-1.2188611,-0.21927375
1419803747592,15.514427,-9.275137,-0.010175358,9.6544,-1.673238,-0.4040151
1419803747600,13.765463,-9.343372,1.3814543,9.568088,-2.1150074,-0.38575083
1419803747628,11.665748,-8.76637,1.726818,9.473862,-2.5169833,-0.28488106
1419803747629,9.745,-7.7853456,1.5269021,9.374764,-2.8736162,-0.16287015
1419803747631,8.321647,-6.9677253,1.2707225,9.278494,-3.1747649,-0.028452042
1419803747656,7.309498,-6.025607,1.4149733,9.187038,-3.4292808,0.09360665
1419803747657,6.8444242,-4.956596,1.5688007,9.10612,-3.6342862,0.20229222
1419803747660,6.919243,-3.7750576,2.1140802,9.048237,-3.7696724,0.29895562
1419803747695,7.0766616,-2.6749218,2.7611132,9.019338,-3.824357,0.44297555
1419803747695,6.853402,-2.106299,1.922544,9.017426,-3.799625,0.64751244
1419803747696,6.521207,-2.0081367,0.22984336,9.031634,-3.737457,0.7945963
1419803747699,6.132149,-2.321777,-0.60094464,9.056239,-3.676249,0.8000892
1419803747717,5.7706246,-2.801216,-0.55964464,9.069969,-3.6585667,0.72175276
1419803747736,5.4324436,-3.4985273,0.39923313,9.062174,-3.6925657,0.6421651
1419803747736,4.8404775,-4.1305966,1.5586253,9.018106,-3.7979374,0.64794016
1419803747773,4.338892,-4.4639893,2.0272903,8.932403,-3.976492,0.7550433
1419803747774,4.1162314,-4.575918,1.6262615,8.814902,-4.199538,0.91200817
1419803747775,4.051588,-4.6046486,0.9498995,8.683833,-4.436691,1.037896
1419803747775,4.1138372,-4.6513352,0.53809685,8.55199,-4.6732764,1.0928664
1419803747783,4.4119153,-4.623802,0.35673606,8.426343,-4.8957233,1.0950066
1419803747805,4.7764325,-4.5579615,0.25498247,8.314427,-5.091825,1.0554677
1419803747806,5.2139726,-4.4927197,0.06284779,8.223178,-5.2485213,1.0013806
1419803747811,5.710171,-4.5022964,-0.40641573,8.157601,-5.3638444,0.9236475
1419803747829,6.059126,-4.446631,-0.8182184,8.11705,-5.445424,0.7945143
1419803747831,6.338649,-4.510676,-0.9415198,8.096918,-5.497419,0.6234657
1419803747856,6.7785835,-4.4981065,-1.0462662,8.088118,-5.527431,0.44753066
1419803747857,7.4244194,-4.010886,-0.96426475,8.092706,-5.531943,0.27589676
1419803747859,8.069058,-3.2309752,-0.8750807,8.147214,-5.456664,0.13468254
1419803747895,9.001001,-2.0099323,-1.3311762,8.260813,-5.284781,0.022009952
1419803747896,10.02153,-0.6440403,-2.6240451,8.455712,-4.965229,-0.1334655
1419803747897,11.559804,1.2587515,-4.59567,8.708312,-4.4894786,-0.42455843
1419803747902,13.888764,3.558981,-6.408081,8.998345,-3.794589,-0.89514226
1419803747923,17.09879,5.9047,-7.2664022,9.265208,-2.8571784,-1.4706568
1419803747924,19.388245,7.2340803,-7.325659,9.44934,-1.7573379,-1.9473351
1419803747931,18.980034,6.30513,-6.1064115,9.516552,-0.7322221,-2.251557
1419803747956,15.928025,3.7726634,-4.57113,9.517804,-0.017248657,-2.3625305
1419803747957,12.989741,1.8561049,-4.06715,9.506928,0.33598232,-2.3824005
1419803747960,11.001357,0.48961425,-4.8907557,9.489542,0.4463906,-2.4330564
1419803747985,11.32218,-0.5626374,-4.267066,9.443924,0.42988107,-2.607273
1419803747986,13.03164,-2.1877017,-0.65660983,9.420583,0.30999535,-2.7068272
1419803748002,13.429077,-2.9466639,0.95827925,9.480563,0.08111206,-2.5065436
1419803748003,15.049952,-3.5063083,1.4000094,9.559248,-0.17086247,-2.1822028
1419803748011,18.73822,-2.7126305,-1.127669,9.628531,-0.43933424,-1.8079747
1419803748037,17.843985,-3.0963013,-1.2030864,9.652994,-0.608437,-1.6186005
1419803748037,10.441113,-6.688801,3.0615854,9.659155,-0.7637647,-1.512536
1419803748040,5.5168395,-8.228871,-1.1504139,9.661638,-1.1730989,-1.2029086
1419803748051,3.2130187,-7.85777,-0.8050503,9.56168,-1.7151144,-1.3427705
1419803748078,2.9658175,-6.9767036,4.8320975,9.422258,-2.305111,-1.441496
1419803748080,4.482544,-6.3338604,5.751471,9.333775,-2.8599412,-0.9337068
1419803748080,5.9082913,-5.774216,3.1836896,9.22825,-3.312055,-0.20023777
1419803748108,6.273407,-5.4114943,1.7304093,9.100177,-3.6430268,0.29243967
1419803748109,6.585252,-4.9284644,0.79128367,8.985023,-3.896443,0.50743747
1419803748110,7.539341,-4.433463,0.57640404,8.896422,-4.088056,0.5584176
1419803748134,8.831013,-4.413711,0.96426475,8.850888,-4.1907296,0.5195705
1419803748135,11.350311,-4.626795,1.9614497,8.833265,-4.227834,0.51885086
1419803748149,11.83813,-4.611831,2.1170728,8.851858,-4.174313,0.624607
1419803748151,11.773487,-4.472967,1.8788497,8.875825,-4.1046143,0.7364124
1419803748172,11.341932,-4.257489,1.3904326,8.90118,-4.0333276,0.8195267
1419803748172,10.916363,-4.021062,1.0031705,8.924136,-3.972127,0.86740947
1419803748179,10.585963,-3.6601357,1.0061632,8.949766,-3.9128163,0.87288594
1419803748198,10.198102,-3.1591492,1.2910733,8.976975,-3.8442676,0.8977384
1419803748200,9.787497,-2.618658,1.5221137,9.010528,-3.7541845,0.9417465
1419803748215,9.340978,-2.067393,1.6915035,9.052389,-3.6389954,0.9911408
1419803748230,8.907627,-1.5640123,1.6214731,9.100578,-3.4999032,1.0490718
1419803748231,8.471284,-1.2054806,1.5298948,9.15196,-3.3461,1.1025666
1419803748246,8.409035,-0.91697925,1.6980876,9.203562,-3.181181,1.1597097
1419803748252,8.627506,-0.6404489,1.6723499,9.25328,-3.004306,1.2334359
1419803748265,8.851364,-0.46986207,1.5113398,9.30475,-2.8102992,1.3016176
1419803748282,9.143456,-0.320823,1.4024036,9.356345,-2.6106093,1.3468246
1419803748282,9.448118,-0.2208651,1.1845313,9.406648,-2.4046552,1.3794999
1419803748296,9.548675,-0.20171149,0.9624691,9.455105,-2.199512,1.3905158
1419803748300,9.513959,-0.20590134,0.6913257,9.5002985,-2.0080216,1.3720722
1419803748321,9.535507,-0.108936176,0.39085343,9.540456,-1.8344641,1.3359827
1419803748321,9.451111,0.05207389,0.219668,9.580853,-1.6661662,1.2655232
1419803748331,9.193734,0.038307227,0.20231004,9.6195965,-1.4996669,1.1767703
1419803748355,8.969278,-0.11432313,0.16879122,9.6513605,-1.354336,1.0896796
1419803748356,8.974665,-0.21667525,0.10235212,9.676319,-1.238393,1.0028017
1419803748360,9.023148,-0.29149407,-0.034715924,9.696428,-1.1451348,0.9156011
1419803748393,8.796297,-0.54288524,-0.14784196,9.713363,-1.0671812,0.825897
1419803748394,8.608353,-0.92895025,-0.22325931,9.725212,-1.0246798,0.73529243
1419803748394,8.637681,-1.364695,-0.29747957,9.73132,-1.0238509,0.6507988
1419803748400,8.9124155,-1.762731,-0.25079262,9.731761,-1.0678774,0.5681999
1419803748414,9.282919,-2.0763714,-0.17537527,9.726223,-1.1505296,0.49724692
1419803748430,9.52174,-2.3744495,-0.044292733,9.716032,-1.255191,0.44003087
1419803748431,9.7402115,-2.6856956,0.108337626,9.701244,-1.3778791,0.3970859
1419803748449,10.09994,-2.9029696,0.2705448,9.681633,-1.5152351,0.37475482
1419803748469,10.393828,-3.1136594,0.3854665,9.65961,-1.6514118,0.36766297
1419803748469,10.648212,-3.3255463,0.41120413,9.635537,-1.7861958,0.36919573
1419803748471,10.887033,-3.4620156,0.44592008,9.609775,-1.9200037,0.36906406
1419803748480,10.960655,-3.513491,0.5177461,9.583942,-2.0449002,0.36995107
1419803748502,10.68652,-3.5332432,0.57400984,9.559263,-2.1562386,0.3761717
1419803748504,10.181941,-3.41892,0.61770403,9.534458,-2.2607782,0.39167103
1419803748512,9.709685,-3.196858,0.66738373,9.51119,-2.3541565,0.40693378
1419803748541,9.452907,-2.8562827,0.6254852,9.491114,-2.4302511,0.42781115
1419803748542,9.498397,-2.5049336,0.52492875,9.4782915,-2.4765956,0.44591743
1419803748543,9.700109,-2.123657,0.4770447,9.475049,-2.4873266,0.45502853
1419803748582,10.119094,-1.6938977,0.4950012,9.48337,-2.4548542,0.45802653
1419803748583,11.0695915,-1.352724,0.51235914,9.502645,-2.3780487,0.46373644
1419803748584,12.20983,-1.2000936,0.6440403,9.532759,-2.254295,0.4637607
1419803748585,13.433268,-0.95827925,0.6769605,9.566957,-2.102859,0.47085723
1419803748608,14.472351,-0.55485624,0.44592008,9.604846,-1.9219338,0.47274333
1419803748609,14.956578,0.11971009,-1.4257472,9.645203,-1.7149817,0.4464457
1419803748612,18.754381,3.9492357,-18.994997,9.691191,-1.4776161,0.260503
1419803748642,15.076288,0.86610246,-10.083779,9.691495,-1.4765041,0.25551015
1419803748643,12.619837,0.05327099,6.8222775,9.586816,-0.72652125,-1.9327596
1419803748643,13.243526,1.4766239,8.710705,9.715085,-0.5746581,-1.2071836
1419803748668,13.348871,1.9542671,4.8458643,9.788251,-0.3606965,-0.48003832
1419803748669,13.216592,0.635062,-0.10534488,9.802801,-0.17451544,-0.2120907
1419803748671,12.756906,-1.666963,0.5482722,9.804584,-0.07571312,-0.18658933
1419803748680,12.721591,-3.2740707,2.4187422,9.804967,-0.16800445,-0.069061264
1419803748698,13.010092,-4.39336,1.5185224,9.799008,-0.363245,0.13379093
1419803748700,13.444639,-5.181651,-0.1436521,9.783069,-0.6439163,0.2176178
1419803748715,14.033613,-5.756858,-0.54288524,9.757699,-0.97076404,0.12378742
1419803748735,14.151527,-6.256049,0.29388827,9.719868,-1.3012758,0.03556202
1419803748735,13.767259,-6.7570357,1.2144588,9.671285,-1.6233678,0.03638444
1419803748741,13.014282,-6.8881183,1.7226281,9.612072,-1.941519,0.09464257
1419803748774,11.91654,-6.4583592,1.5119383,9.5471115,-2.2328954,0.1929124
1419803748775,10.624868,-6.126762,1.3928268,9.483188,-2.4831958,0.27070713
1419803748776,9.792884,-5.659294,1.6579847,9.419442,-2.7046845,0.35943422
1419803748780,9.105747,-4.9901147,1.6885108,9.359529,-2.8887699,0.4739961
1419803748816,8.718486,-3.8127663,1.5197195,9.307739,-3.0340326,0.5753369
1419803748817,8.501212,-2.5115175,0.86251116,9.281331,-3.1005223,0.6434822
1419803748818,7.9074497,-2.3169887,0.46806642,9.289826,-3.0725396,0.654997
1419803748841,7.3609734,-2.7329812,0.43634325,9.299961,-3.0442448,0.6431744
1419803748842,6.947375,-3.1346085,0.8972271,9.295764,-3.0565722,0.64539164
1419803748843,6.291962,-3.3464954,1.7351977,9.2733965,-3.1100388,0.70863765
1419803748879,5.424064,-3.6553473,1.9428947,9.231046,-3.201238,0.8427755
1419803748881,4.8548427,-4.0240545,1.797447,9.166507,-3.343052,0.9846726
1419803748881,4.377199,-4.455011,1.7501614,9.08098,-3.5322847,1.1086743
1419803748882,4.1503487,-4.8039656,1.7160441,8.969174,-3.7704399,1.2280358
1419803748903,4.2981906,-4.770447,1.690905,8.83298,-4.0441008,1.3394356
1419803748904,4.6680946,-4.4777555,1.2120646,8.696157,-4.2977114,1.4411548
1419803748912,5.204396,-3.86903,0.7882909,8.587826,-4.5003324,1.4719508
1419803748941,5.623381,-3.38181,0.7589619,8.530474,-4.6142735,1.4525524
1419803748942,5.903503,-3.2932243,0.6242881,8.5113125,-4.654448,1.4366912
1419803748943,6.201581,-3.2752678,0.38187516,8.512451,-4.663852,1.3989439
1419803748972,6.3165026,-3.4943373,0.14065935,8.5268955,-4.6593347,1.3240286
1419803748972,6.318897,-3.7193923,-0.2100912,8.533071,-4.674834,1.225987
1419803748973,6.196194,-3.8510735,-0.53689975,8.528707,-4.7151155,1.0951042
1419803748981,6.179435,-3.9444473,-0.6835446,8.51517,-4.7739697,0.93352956
1419803748997,6.534375,-4.012682,-0.91578215,8.495303,-4.8388124,0.76558083
1419803749018,7.150882,-3.58412,-1.0067618,8.482585,-4.8863025,0.5832926
1419803749019,7.9547353,-2.6898856,-1.30484,8.514524,-4.8486247,0.40510085
1419803749021,9.153033,-1.5071499,-2.3469162,8.6092005,-4.6911783,0.21189314
1419803749032,10.817602,-0.11432313,-3.8576574,8.779368,-4.3686733,-0.08832666
1419803749059,12.932281,1.590947,-5.20679,9.001752,-3.8544033,-0.53146106
1419803749060,15.314511,3.6828809,-6.8282633,9.231383,-3.1382775,-1.0503277
1419803749061,17.238253,5.820903,-7.9786773,9.408646,-2.2426677,-1.6180933
1419803749094,17.875708,6.862979,-6.8599863,9.488069,-1.2806921,-2.1229124
1419803749095,16.700155,5.207389,-5.708974,9.504908,-0.41480452,-2.3780391
1419803749095,16.148293,2.0566192,-6.894104,9.486255,0.13044162,-2.4828105
1419803749114,18.258781,-1.1839328,-7.7865424,9.430735,0.30817747,-2.6714551
1419803749114,19.59654,-4.1479545,-10.949882,9.381282,0.18126404,-2.851152
1419803749133,19.607914,-3.2998085,-12.86644,9.395693,0.22714111,-2.7999616
1419803749134,19.607914,1.0761937,-6.1662664,9.403358,0.27480918,-2.7697918
1419803749140,15.969924,0.19153613,6.9318123,9.153739,-0.19479075,-3.5130496
1419803749163,6.131551,-5.6269727,14.624383,9.399629,-0.14560352,-2.7921627
1419803749164,1.6795325,-7.2101383,13.318944,9.631707,-0.5411936,-1.7628692
1419803749180,-1.062427,-7.4788876,6.7971387,9.712327,-1.1494892,-0.72096175
1419803749181,-3.8576574,-8.557475,0.24600422,9.628942,-1.8542675,-0.12473054
1419803749201,-2.2619221,-7.3843164,-0.29508537,9.410024,-2.7590127,-0.0983727
1419803749201,0.9211691,-6.825869,0.8391677,9.133439,-3.5693588,-0.10180896
1419803749212,3.2722752,-6.6708446,0.80564886,8.850946,-4.2224593,0.044164866
1419803749233,5.543774,-6.669049,1.4879963,8.594852,-4.7113214,0.3199809
1419803749234,7.8236527,-6.9850836,2.1386206,8.386362,-5.0497184,0.5828142
1419803749241,10.076596,-7.2646065,2.682703,8.243121,-5.26771,0.6874467
1419803749277,12.0410385,-7.071873,3.1477766,8.177117,-5.35642,0.7835351
1419803749278,13.133992,-6.4781113,3.3273418,8.186476,-5.3140645,0.95537174
1419803749279,12.870031,-5.7137623,3.1130607,8.248984,-5.1809864,1.132271
1419803749283,12.105083,-4.657321,2.7257986,8.3201065,-5.02692,1.2947148
1419803749304,11.594521,-3.7481227,2.272696,8.403701,-4.847546,1.4316077
1419803749304,11.276092,-3.1304188,1.809418,8.500267,-4.6450996,1.5293425
1419803749312,11.236588,-2.7371712,1.4718355,8.605315,-4.4296584,1.5802077
1419803749333,11.401787,-2.4331074,1.086369,8.714547,-4.207087,1.589799
1419803749333,11.568783,-2.1188686,0.81283146,8.824681,-3.987877,1.5466894
1419803749342,11.556213,-1.8357542,0.6344634,8.936237,-3.7586493,1.4787221
1419803749375,11.548432,-1.3485341,0.52253455,9.040374,-3.5361853,1.3919065
1419803749376,11.4041815,-0.6655881,0.38187516,9.142071,-3.3036177,1.2957869
1419803749377,10.992378,-0.142455,0.25737667,9.244638,-3.0461793,1.1949302
1419803749381,10.364499,0.1340753,0.2861071,9.341287,-2.775517,1.0987608
1419803749403,9.701904,0.30885202,0.2789245,9.424663,-2.5119104,1.0180433
1419803749403,9.236232,0.3645172,0.14544775,9.492848,-2.268079,0.9550113
1419803749412,9.035717,0.44771573,-0.05925649,9.551189,-2.043064,0.8780964
1419803749432,8.874108,0.60812724,-0.17477672,9.6014805,-1.8327193,0.78938365
1419803749433,8.641871,0.7954735,-0.25498247,9.645703,-1.6243714,0.70158046
1419803749441,8.471883,0.80804306,-0.25378537,9.6846,-1.4124001,0.61973965
1419803749473,8.607754,0.5650316,-0.2112883,9.716132,-1.2122002,0.54563236
1419803749474,9.302073,-0.06404489,0.2645593,9.73844,-1.0511595,0.47776833
1419803749474,9.355942,-0.4321534,0.5081693,9.749087,-0.9567773,0.45852792
1419803749481,9.196129,-0.93613285,0.5943606,9.753694,-0.9083052,0.45919323
1419803749500,9.011177,-1.4191631,0.6123171,9.75266,-0.913748,0.470208
1419803749501,8.817246,-1.8489223,0.56084174,9.746575,-0.9670573,0.48932973
1419803749512,8.644265,-2.1918917,0.4333505,9.73566,-1.0631247,0.5070422
1419803749530,8.476072,-2.4558525,0.35434186,9.720354,-1.1912305,0.5158119
1419803749545,8.337808,-2.6102784,0.2825158,9.70157,-1.3368542,0.5126123
1419803749546,8.429984,-2.742558,0.23283611,9.679452,-1.4897867,0.50907254
1419803749561,8.6496525,-2.8592753,0.21308395,9.655254,-1.6434704,0.495432
1419803749562,8.962095,-2.8335378,0.27832595,9.629669,-1.793236,0.47347295
1419803749576,9.103952,-2.7096379,0.4381389,9.606123,-1.9197432,0.45536944
1419803749595,9.11712,-2.5845408,0.8690952,9.586187,-2.016957,0.45530295
1419803749595,9.21229,-2.4462755,1.5813702,9.568447,-2.0889003,0.501715
1419803749609,9.588778,-2.247557,2.1080947,9.550852,-2.137584,0.61836296
1419803749612,10.200497,-1.9812019,2.308609,9.5358925,-2.1523316,0.77758306
1419803749628,10.704475,-1.733402,2.0488381,9.527183,-2.1258721,0.9401285
1419803749644,10.982801,-1.5167267,1.6053122,9.527713,-2.0668013,1.0589609
1419803749644,11.039065,-1.2551602,1.1893197,9.537493,-1.9871985,1.1214601
1419803749663,10.997766,-1.0043676,0.99179804,9.555647,-1.8919498,1.1316111
1419803749663,11.057621,-0.6985083,0.9056068,9.577995,-1.7842191,1.1175715
1419803749678,11.255142,-0.34237084,0.9923966,9.603844,-1.6599993,1.0867406
1419803749681,11.752538,-0.04129998,1.1300632,9.631585,-1.5143031,1.0534796
1419803749695,12.609063,0.090979666,1.2719196,9.658929,-1.3495263,1.0267758
1419803749710,13.532626,0.25797522,1.2330139,9.683166,-1.17796,1.0095118
1419803749714,14.042591,0.27114335,0.9151836,9.705427,-0.9988997,0.9885709
1419803749729,14.281413,0.24420857,0.23104046,9.7244005,-0.8446669,0.94496936
1419803749744,15.4803095,1.0702082,-8.397662,9.7441225,-0.70642835,0.8505457
1419803749744,18.954895,2.3732524,-19.5313,9.79256,-0.5228762,0.05264248
1419803749760,14.600441,-0.57640404,-2.4762032,9.793424,-0.5043635,0.06983634
1419803749761,13.243526,-0.14724341,8.367735,9.692193,-0.22980858,-1.4761258
1419803749779,13.24233,0.5674258,6.7588315,9.781031,-0.1262918,-0.6970345
1419803749793,13.02326,0.037708677,-0.23343466,9.803099,-0.052828796,-0.25854996
1419803749794,12.716204,-2.082357,-1.8058267,9.800313,-0.017589726,-0.3519988
1419803749811,13.443442,-4.0827127,-0.18914193,9.792843,-0.14822452,-0.49862903
1419803749812,13.932458,-5.837662,0.017956512,9.790878,-0.40261665,-0.38337052
1419803749827,13.471575,-6.932411,0.4333505,9.771775,-0.7626339,-0.31816345
1419803749843,13.722965,-7.015011,1.5993267,9.7297325,-1.1871569,-0.30551982
1419803749843,14.036008,-6.867768,2.1577742,9.676935,-1.5789185,-0.18524873
1419803749861,13.810952,-6.9569516,1.5807717,9.6207485,-1.900231,-0.0266013
1419803749861,13.198037,-7.2304893,0.4225766,9.55546,-2.2040076,0.07721505
1419803749875,11.974001,-7.097611,-0.33039984,9.484816,-2.4904952,0.07814766
1419803749891,10.390836,-6.613982,-0.31663316,9.413977,-2.7468517,0.047276862
1419803749894,9.261371,-6.1566896,0.43514615,9.344615,-2.9744685,0.03297975
1419803749909,8.541314,-5.4138885,1.4945804,9.275633,-3.1825335,0.06717837
1419803749912,7.93618,-4.5537715,2.4355016,9.216288,-3.3467622,0.17209728
1419803749927,7.3567834,-3.6421793,2.2391772,9.168918,-3.4631326,0.32876143
1419803749944,6.830059,-3.0107086,1.3682863,9.14004,-3.5235724,0.46314988
1419803749944,6.2315083,-3.003526,0.93014735,9.126964,-3.5454345,0.54666126
1419803749960,5.781997,-3.116652,0.74878657,9.107712,-3.5797036,0.6369446
1419803749961,5.6461263,-3.0891187,0.7266402,9.079753,-3.6346624,0.7195432
1419803749974,5.4420204,-3.0148985,1.0187328,9.050666,-3.696262,0.77039284
1419803749993,5.1361613,-3.2016463,1.2755109,9.02027,-3.7580895,0.82575935
1419803749993,4.908712,-3.5093012,1.2814964,8.974202,-3.8478267,0.9101088
1419803750007,4.643554,-3.6685154,1.1797429,8.91147,-3.970667,0.99493957
1419803750014,4.4448357,-3.8109705,1.2641385,8.837455,-4.1153984,1.0645521
1419803750026,4.533421,-3.8612487,1.2282255,8.751711,-4.275793,1.138222
1419803750045,4.9003325,-3.7403417,0.97862995,8.664961,-4.430822,1.2069216
1419803750045,5.168483,-3.7541082,0.74519527,8.598958,-4.54782,1.2432395
1419803750067,5.4761376,-3.8857894,0.64703304,8.542999,-4.6539445,1.2362639
1419803750086,5.9124813,-3.787627,0.48841715,8.492652,-4.749907,1.2180532
1419803750086,6.187814,-3.7487214,0.2777274,8.466501,-4.8057733,1.1803831
1419803750087,6.3548098,-3.8510735,0.14305355,8.455151,-4.840582,1.1178535
1419803750093,6.63972,-3.8307228,0.2908955,8.445744,-4.8741193,1.0405678
1419803750109,7.0569096,-3.567959,0.47225627,8.44473,-4.88693,0.9873422
1419803750114,7.5405383,-3.2381577,0.2693477,8.471921,-4.846033,0.95546204
1419803750131,8.337209,-2.7377696,-0.4441244,8.526345,-4.7593403,0.9058347
1419803750133,9.438541,-2.0272903,-1.8525136,8.629543,-4.5943584,0.7702356
1419803750142,10.919954,-0.866701,-3.0340521,8.787535,-4.326832,0.47763923
1419803750179,12.951434,1.276708,-4.7949877,8.995094,-3.905388,0.08138094
1419803750180,16.465523,5.0200424,-8.1959505,9.245928,-3.2360117,-0.45983988
1419803750181,19.546862,9.622296,-10.770915,9.478806,-2.1830866,-1.2477014
1419803750207,19.607914,11.719019,-8.655039,9.478072,-2.242377,-1.143803
1419803750208,17.469294,9.385869,-4.914099,9.484995,-2.2519267,-1.064936
1419803750208,11.880628,5.563526,-2.7712884,9.428255,1.1664664,-2.4326541
1419803750213,9.185355,2.321777,-1.839944,9.3822775,1.5674443,-2.3846214
1419803750231,8.26239,0.45070848,-1.6304513,9.386873,1.6165558,-2.3331873
1419803750233,8.119935,-0.3357868,0.60693014,9.412526,1.4713199,-2.325939
1419803750242,9.789292,-2.0991163,3.019687,9.4739,1.3164427,-2.1639278
1419803750265,11.147403,-5.8149176,3.1800983,9.59859,0.9985809,-1.7436522
1419803750266,13.621212,-8.254609,1.1139023,9.712388,0.3720774,-1.3044077
1419803750273,19.24639,-7.8757267,-8.492832,9.744993,-0.41168082,-1.0178517
1419803750299,19.607914,-7.479486,-9.992201,9.746034,-0.46402124,-0.98484474
