time,acc_x,acc_y,acc_z,gravity_x,gravity_y,gravity_z1419803737344.00,7.756615,-6.640917,0.3866636,7.7165985,-5.982783,0.91147541419803737360.00,7.78355,-6.904279,0.41240123,7.690167,-6.0244865,0.85864221419803737361.00,7.8206596,-7.04015,0.5410896,7.6550565,-6.075383,0.812543331419803737374.00,7.8493905,-7.071873,0.6733692,7.61813,-6.1256633,0.78150811419803737380.00,7.752425,-7.074866,0.7751228,7.5838404,-6.1701617,0.764758651419803737392.00,7.6949644,-7.101202,0.79966336,7.5484953,-6.21383,0.76086281419803737410.00,7.6710224,-7.067683,0.7344214,7.5124454,-6.257233,0.761940061419803737411.00,7.656657,-6.9826894,0.65541273,7.481579,-6.294707,0.75700441419803737428.00,7.626131,-6.8785415,0.61770403,7.4561543,-6.325854,0.74813721419803737429.00,7.6291237,-6.749853,0.5835867,7.4355125,-6.350984,0.7406361419803737443.00,7.5962033,-6.5655,0.56323594,7.4230256,-6.3666615,0.73125621419803737459.00,7.5465236,-6.3721676,0.51355624,7.4194217,-6.3721824,0.71962361419803737463.00,7.44896,-6.2464724,0.45489833,7.423929,-6.3687034,0.703776061419803737489.00,7.441777,-6.1357403,0.3716998,7.4307423,-6.36269,0.68604751419803737490.00,7.44896,-5.9741316,0.31663316,7.443381,-6.350776,0.65887541419803737491.00,7.501034,-5.852626,0.3309984,7.462595,-6.331035,0.630937041419803737516.00,7.714118,-5.7418942,0.45130703,7.4870048,-6.3045235,0.60672791419803737517.00,8.087015,-5.535394,0.5141548,7.522196,-6.263683,0.594323161419803737521.00,8.1319065,-5.590461,0.40043023,7.57875,-6.1958704,0.586635531419803737529.00,7.9810715,-5.7005944,0.61112,7.629355,-6.135209,0.56794371419803737556.00,7.9828672,-5.6724625,0.91697925,7.6623306,-6.0936804,0.57109721419803737557.00,8.134899,-5.6826377,1.1719618,7.691637,-6.0534077,0.604462861419803737560.00,8.304289,-5.752668,1.3269863,7.721075,-6.0105615,0.65466511419803737580.00,8.33242,-5.7790046,1.4185646,7.7487993,-5.9686737,0.70812141419803737582.00,8.331821,-5.6844335,1.5041572,7.772456,-5.9304357,0.767623361419803737589.00,8.256405,-5.590461,1.6250644,7.797164,-5.8886986,0.83538351419803737617.00,8.082825,-5.468955,1.8124107,7.820606,-5.8470335,0.90594231419803737618.00,7.9062524,-5.348048,2.0638018,7.837755,-5.8094177,0.99530521419803737621.00,7.8757267,-5.2462945,2.4241292,7.85015,-5.774148,1.09760881419803737646.00,7.9625163,-5.141548,2.802413,7.8606586,-5.7339473,1.2256741419803737647.00,8.090008,-5.035006,3.1352072,7.8727474,-5.682777,1.37706461419803737684.00,8.234857,-4.938041,3.3997664,7.8881497,-5.6181083,1.54412451419803737685.00,8.357559,-4.8428717,3.4799721,7.9085217,-5.5407004,1.71064891419803737686.00,8.46889,-4.9320555,3.3854012,7.9296947,-5.4534917,1.88407841419803737687.00,8.552089,-5.076905,3.1561563,7.951821,-5.3722982,2.01924971419803737692.00,8.574833,-5.3247046,2.8473043,7.9711647,-5.305494,2.11723351419803737716.00,8.620922,-5.6120086,2.492364,7.9819417,-5.2646255,2.17777541419803737716.00,8.6257105,-5.8238955,2.1559787,7.984468,-5.251194,2.20082551419803737721.00,8.482059,-5.9651537,1.721431,7.980601,-5.259999,2.19381361419803737731.00,8.415619,-5.9968767,1.30484,7.969195,-5.2916827,2.15879731419803737750.00,8.417415,-5.9160724,1.0408791,7.9657626,-5.3308115,2.0735111419803737752.00,8.3408,-5.7855883,0.87807345,7.9651804,-5.3645616,1.98689871419803737761.00,8.160637,-5.6221843,1.0079589,7.969919,-5.391577,1.89253461419803737778.00,7.9870567,-5.459977,1.5939398,7.9752254,-5.4100776,1.81583311419803737795.00,7.902063,-5.369596,2.2266076,7.9756656,-5.4170356,1.79300631419803737797.00,7.8823104,-5.2923827,2.6473885,7.969642,-5.4143257,1.82764391419803737809.00,7.8410106,-5.2756233,2.8491,7.961673,-5.4049954,1.88896381419803737812.00,7.768586,-5.2528787,2.8628666,7.9510684,-5.3953114,1.95997321419803737827.00,7.702147,-5.3606176,2.8377275,7.9374256,-5.3868675,2.03698681419803737839.00,7.6614456,-5.501277,2.7431567,7.916283,-5.3875837,2.1158471419803737842.00,7.702147,-5.6539073,2.497751,7.888658,-5.3994455,2.18756841419803737862.00,7.7799582,-5.8065376,2.2014685,7.860352,-5.4219446,2.23333241419803737863.00,7.8715367,-5.9465985,1.922544,7.835339,-5.4529886,2.24560931419803737880.00,7.8954787,-6.0441623,1.7070658,7.815822,-5.489886,2.2236131419803737881.00,7.884106,-6.0764837,1.5065514,7.7964115,-5.531889,2.18736741419803737890.00,7.8266454,-6.117784,1.3569138,7.781505,-5.5746813,2.13107561419803737910.00,7.7344685,-6.145317,1.228824,7.767847,-5.61982,2.0612031419803737910.00,7.6823945,-6.101623,1.1456255,7.7537117,-5.667464,1.98247671419803737927.00,7.6129627,-6.0740895,1.0372878,7.7422385,-5.710258,1.90291391419803737941.00,7.6387005,-6.06571,0.9744401,7.730793,-5.7522817,1.82112481419803737941.00,7.704541,-6.017826,0.9475053,7.722371,-5.788843,1.73916361419803737955.00,7.7224975,-5.9238534,0.9355343,7.7194633,-5.815286,1.66214591419803737961.00,7.8248496,-5.8065376,0.98940384,7.721104,-5.832653,1.59220151419803737973.00,7.9463553,-5.710171,1.0971429,7.73015,-5.8361588,1.5344151419803737992.00,8.045116,-5.659294,1.2695254,7.745972,-5.8263383,1.49134391419803737993.00,8.183381,-5.5701103,1.4927847,7.7652373,-5.8074946,1.46440331419803738014.00,8.252214,-5.5126495,1.7274165,7.7880282,-5.776941,1.46423031419803738015.00,8.282143,-5.480926,1.9949685,7.812085,-5.7399864,1.48130941419803738021.00,8.305486,-5.3941364,2.2278047,7.8334236,-5.7003465,1.52115751419803738049.00,8.310873,-5.2636523,2.3660698,7.854666,-5.6547866,1.58051281419803738052.00,8.228272,-5.059547,2.5462334,7.8782144,-5.6019588,1.64991311419803738053.00,8.169016,-4.793192,2.7694929,7.90286,-5.542651,1.73038071419803738063.00,8.269572,-4.5298295,3.0160956,7.930181,-5.468629,1.83758311419803738091.00,8.564658,-4.353257,3.2860417,7.965754,-5.375193,1.95561851419803738092.00,9.069236,-4.2161894,3.5661635,8.009555,-5.2620554,2.08042861419803738092.00,9.820416,-4.1425676,3.8373067,8.065283,-5.124385,2.2050611419803738133.00,10.79366,-4.158728,4.0198646,8.135232,-4.959748,2.32148651419803738135.00,11.8818245,-4.3065705,4.0976763,8.219046,-4.775077,2.41170641419803738136.00,12.99453,-4.59986,4.1240125,8.310441,-4.5781646,2.4793941419803738137.00,13.857041,-5.0559554,3.99293,8.401148,-4.3870225,2.5189571419803738142.00,13.959393,-5.650316,3.5883098,8.481932,-4.227252,2.52142171419803738177.00,13.324929,-5.9759274,3.0502129,8.525968,-4.171812,2.46459981419803738178.00,12.410344,-5.6826377,2.420538,8.560575,-4.136662,2.40311621419803738180.00,11.680712,-5.8466406,1.5490485,8.5871725,-4.114943,2.3448021419803738203.00,10.769718,-7.062895,-13.20941,8.601313,-4.1104426,2.30045081419803738204.00,11.626244,-8.123527,-15.7736,8.684509,-4.1971593,1.77017551419803738204.00,12.740745,-7.7248917,-3.3207579,8.740972,-4.2937713,1.15297531419803738210.00,11.609484,-8.042124,-1.4191631,8.738604,-4.313856,1.09446591419803738235.00,10.157999,-8.3868885,-4.743512,8.7367,-4.3384533,1.00910631419803738236.00,10.8595,-7.6692266,-4.1826706,8.757784,-4.3565655,0.70139881419803738242.00,11.793239,-6.395511,-1.2910733,8.7842,-4.340638,0.4087621419803738277.00,11.254543,-5.6485205,0.9259575,8.815546,-4.2903757,0.22185881419803738279.00,10.376471,-5.5467668,2.496554,8.843978,-4.2363772,0.087075641419803738280.00,9.564836,-5.592855,3.1376014,8.874007,-4.1736035,-0.058372111419803738303.00,8.992023,-5.6461263,2.5623944,8.905887,-4.1006765,-0.200101721419803738304.00,8.845977,-6.206968,1.3838485,8.935829,-4.025975,-0.33598611419803738305.00,9.22067,-7.0515227,0.8858546,8.958891,-3.9605567,-0.47189741419803738310.00,9.288904,-7.914034,1.5280992,8.973948,-3.9067109,-0.613416251419803738335.00,9.135675,-8.397662,2.0727801,8.980855,-3.8671184,-0.74835431419803738335.00,8.9363575,-8.282741,1.5041572,8.981412,-3.8324573,-0.90381611419803738342.00,8.649054,-7.889493,0.7206547,8.978801,-3.7909508,-1.08639061419803738370.00,7.838018,-7.948151,0.59735334,8.977237,-3.7413769,-1.25766251419803738371.00,7.167641,-8.166023,1.3700819,8.978378,-3.6953592,-1.37964961419803738372.00,7.153276,-7.9631147,1.6334441,8.981215,-3.6573997,-1.46000361419803738399.00,7.341221,-7.571663,1.4987702,8.983604,-3.6222866,-1.53109931419803738400.00,7.577648,-7.2963295,1.0570401,8.980067,-3.5920913,-1.62039031419803738402.00,7.415441,-7.1155677,0.55605334,8.971196,-3.5630817,-1.72987331419803738431.00,6.8761473,-6.892308,0.34835634,8.962716,-3.5262978,-1.84534671419803738431.00,6.5858502,-6.5325794,0.3561375,8.95963,-3.4751613,-1.95414151419803738432.00,6.6864066,-6.129156,0.6805518,8.962585,-3.410434,-2.05216311419803738443.00,7.028179,-5.746084,1.2479776,8.969174,-3.3387218,-2.13945251419803738464.00,6.7971387,-5.6401405,1.520318,8.979758,-3.2578895,-2.21822551419803738465.00,6.4380083,-5.779603,1.3670892,8.995847,-3.1671224,-2.28352791419803738473.00,6.4110737,-5.7418942,1.3551182,9.018683,-3.0669825,-2.32966641419803738495.00,6.6923923,-5.5826797,1.2276269,9.047172,-2.9655147,-2.35049531419803738495.00,6.743269,-5.653309,1.271321,9.076353,-2.8744988,-2.35105131419803738502.00,6.5026517,-5.841852,1.1330559,9.103806,-2.793145,-2.34295581419803738510.00,6.0639143,-6.045359,1.0055647,9.126617,-2.727549,-2.33146431419803738522.00,5.5204306,-6.2823853,0.88166475,9.145224,-2.6742609,-2.3202671419803738546.00,5.0757074,-6.4242415,0.65900403,9.158623,-2.6342475,-2.31316851419803738547.00,4.657321,-6.4966664,0.39264908,9.164906,-2.608311,-2.31768041419803738550.00,4.255095,-6.3422403,0.26396075,9.163957,-2.5961876,-2.33497791419803738582.00,3.7906199,-6.0986304,0.2657564,9.158655,-2.5932755,-2.3588841419803738583.00,3.4524388,-5.8412538,0.33039984,9.154267,-2.5914726,-2.37782671419803738584.00,3.445855,-5.5485625,0.25917232,9.149857,-2.5942814,-2.3917021419803738593.00,3.572149,-5.409699,-0.004189853,9.14867,-2.6034176,-2.38630721419803738615.00,3.870227,-5.4312468,-0.20829555,9.148835,-2.6246498,-2.36229281419803738616.00,4.2503066,-5.4761376,-0.28431144,9.148281,-2.6614008,-2.3229981419803738622.00,4.671686,-5.2905874,-0.22625206,9.146031,-2.7151828,-2.26898381419803738648.00,5.065532,-4.908712,0.065242,9.144975,-2.7750351,-2.19977781419803738650.00,5.5300074,-4.4753613,0.219668,9.142039,-2.8458953,-2.11999771419803738651.00,6.254852,-4.024653,0.004189853,9.139259,-2.9249015,-2.02219561419803738693.00,7.380127,-3.4853592,-0.6823475,9.136279,-3.0090775,-1.9089951419803738694.00,8.962095,-2.920926,-1.9512744,9.133664,-3.093744,-1.78194391419803738695.00,15.170859,-0.87328506,-8.368932,9.132104,-3.1697967,-1.65151251419803738696.00,19.211674,1.0666169,-12.434885,9.140213,-3.1555882,-1.63376411419803738747.00,19.607914,2.0231004,-11.670536,9.138827,-3.225494,-1.49947691419803738747.00,19.607914,0.1945289,-6.6720414,9.14076,-3.2734208,-1.37898221419803738748.00,17.521965,-2.8993783,-3.4913447,8.97569,-2.7278202,-2.85768721419803738749.00,13.536218,-3.3943794,-2.5354595,9.075038,-2.4761658,-2.77176931419803738749.00,11.113884,-2.7694929,-2.4971523,9.113219,-2.409689,-2.70427251419803738750.00,9.552266,-1.371279,-0.8331822,9.122464,-2.4285083,-2.65582971419803738777.00,7.3472066,-0.533907,3.9618053,9.173135,-2.375587,-2.52597741419803738778.00,4.0797195,-0.9564836,8.513183,9.302088,-2.3311849,-2.05112721419803738794.00,1.436521,-3.4973302,10.554239,9.441652,-2.3499467,-1.22610391419803738795.00,0.55964464,-8.112154,8.054693,9.441247,-2.6491053,-0.1245059451419803738802.00,2.7820623,-11.795633,3.5883098,9.147842,-3.4393642,0.8112741419803738827.00,11.663952,-15.137341,-12.8832,8.642175,-4.4674416,1.23498551419803738828.00,19.607914,-19.002779,-11.492766,8.609632,-4.4895015,1.37441291419803738831.00,19.223045,-19.527708,9.245809,8.551573,-4.540065,1.55845521419803738843.00,12.151771,-16.007034,-4.4179006,8.469714,-4.6377077,1.71055341419803738864.00,6.096236,-10.806828,-1.7286136,7.514489,-6.263789,-0.68394471419803738865.00,3.8774097,-7.8487916,5.3683987,7.3368874,-6.4331503,-0.977281451419803738871.00,2.6581624,-5.3767786,5.597045,7.201506,-6.6512456,-0.263914561419803738900.00,1.8100165,-4.0827127,4.0617633,7.0372043,-6.8184323,0.396404061419803738901.00,1.614889,-3.690662,2.581548,6.913914,-6.9251018,0.641223431419803738904.00,2.2697031,-3.709217,1.8291701,6.796285,-7.022641,0.81449091419803738926.00,3.3883939,-4.559757,1.4993688,6.714223,-7.085971,0.93735341419803738927.00,4.8680105,-5.873575,1.4335283,6.643882,-7.1356254,1.05454891419803738944.00,6.917447,-6.7845693,1.5903485,6.592554,-7.1711802,1.13261821419803738944.00,8.773552,-7.574057,1.8189948,6.616407,-7.1405506,1.18579911419803738951.00,10.262746,-8.16363,1.99437,6.695648,-7.058891,1.22912341419803738976.00,11.001955,-8.443152,2.0039468,6.811931,-6.941127,1.26044671419803738977.00,10.778097,-8.003218,1.8674773,6.931574,-6.816486,1.28810331419803738999.00,10.231621,-6.7708025,1.6705543,7.046464,-6.6945157,1.30429221419803739000.00,9.548675,-5.563526,1.4323312,7.1769037,-6.5517354,1.31802681419803739003.00,8.735245,-4.7830167,1.2904748,7.314038,-6.396015,1.32899761419803739036.00,8.022371,-4.291008,1.1085154,7.4395504,-6.246514,1.34334651419803739036.00,7.4776907,-3.891775,0.8643068,7.548167,-6.112631,1.35325411419803739037.00,7.3100963,-3.555988,0.5650316,7.653175,-5.983708,1.33960781419803739043.00,7.410054,-3.342904,0.35553896,7.75712,-5.8558335,1.30640651419803739060.00,7.8188643,-3.1370027,0.31304187,7.8634977,-5.7251143,1.24854351419803739062.00,8.507197,-3.1160536,0.40821138,7.982304,-5.573668,1.17790341419803739071.00,9.215282,-3.2160115,0.49919105,8.112167,-5.398038,1.1064931419803739095.00,9.79827,-3.2752678,0.56203884,8.245573,-5.2060394,1.03830031419803739096.00,10.206482,-3.180697,0.7098808,8.377306,-5.0045304,0.972549741419803739103.00,10.36031,-3.328539,0.81043726,8.5032425,-4.794598,0.936529161419803739135.00,10.324396,-3.3369186,0.75956047,8.609747,-4.607629,0.9013311419803739136.00,10.086173,-3.1573534,0.6254852,8.700889,-4.439196,0.87089911419803739137.00,9.618107,-2.9592333,0.45908818,8.781874,-4.2820997,0.84422851419803739143.00,9.018359,-2.9562407,0.074220255,8.851322,-4.141585,0.819606661419803739158.00,8.6712,-2.8365304,-0.3333926,8.902146,-4.0407176,0.77123751419803739176.00,8.2593975,-2.9107506,-0.56323594,8.95106,-3.9473634,0.68353671419803739176.00,8.1402855,-3.1310172,-0.587178,8.984561,-3.8861542,0.588110271419803739182.00,8.069058,-3.5811272,-0.41180268,9.004305,-3.8538554,0.490574631419803739206.00,8.06008,-3.954024,-0.27353755,9.003414,-3.8649468,0.413665561419803739207.00,7.9996266,-4.249708,-0.2136825,8.987202,-3.9084997,0.352500621419803739223.00,7.9744873,-4.4993033,-0.22685061,8.958917,-3.9771152,0.301249151419803739223.00,7.9511437,-4.7099934,-0.3800795,8.9219,-4.062316,0.260235581419803739237.00,7.9529395,-5.073912,-0.5734113,8.879847,-4.1566486,0.20244391419803739255.00,8.049306,-5.4593782,-0.65660983,8.82711,-4.2701426,0.135763971419803739255.00,8.210316,-5.7760115,-0.5542577,8.764473,-4.398852,0.067131761419803739274.00,8.373122,-5.9064956,-0.30466217,8.695628,-4.533908,0.0106833071419803739275.00,8.489241,-5.9370217,0.049679685,8.6291275,-4.6591845,-0.0242120661419803739293.00,8.671799,-5.957971,0.27832595,8.570051,-4.7669854,-0.0218996981419803739293.00,9.091382,-5.85502,0.38606504,8.519817,-4.8562436,-4.10E-041419803739302.00,9.530719,-5.61141,0.37349546,8.489063,-4.9097333,0.027287821419803739323.00,9.675568,-5.4593782,0.3465607,8.482103,-4.92148,0.0579009881419803739324.00,9.69113,-5.2768207,0.24301147,8.485592,-4.914993,0.0892968251419803739338.00,9.664195,-4.9583917,0.11372458,8.49712,-4.8945937,0.110952191419803739372.00,9.585785,-4.5741224,-0.047884032,8.519116,-4.8560348,0.118246441419803739374.00,9.612122,-4.1784806,-0.16101007,8.552815,-4.796619,0.110386961419803739375.00,9.901221,-3.7870286,-0.22864626,8.596995,-4.717366,0.092322891419803739376.00,10.733206,-3.6804867,-0.2717419,8.658074,-4.6047735,0.064874331419803739399.00,11.956045,-3.9905357,-0.28311434,8.733288,-4.460832,0.032068041419803739399.00,13.071144,-4.301183,-0.23223756,8.810436,-4.3065777,-7.19E-041419803739403.00,14.070724,-4.3436804,0.007781155,8.884745,-4.1510262,-0.025612291419803739425.00,14.316728,-4.39755,0.1340753,8.958006,-3.9904597,-0.027899231419803739425.00,14.242507,-4.425682,0.12030864,9.020921,-3.8461952,-0.0129664491419803739432.00,15.093047,-4.185663,-0.28909984,9.07135,-3.7257183,-0.0049414021419803739469.00,15.320497,-3.145981,-9.995792,9.129996,-3.5794535,-0.032872561419803739470.00,15.683817,-2.666542,-19.146431,9.178106,-3.3592262,-0.80519561419803739472.00,12.349293,-4.355053,-2.6898856,9.204548,-3.304995,-0.72368021419803739473.00,11.7681,-4.308366,5.185242,9.170661,-2.9821503,-1.78217821419803739505.00,11.766304,-4.335301,6.553529,9.246757,-2.9783337,-1.34067261419803739505.00,11.361086,-5.3408656,6.2464724,9.287334,-3.0074785,-0.93320281419803739506.00,11.21085,-6.6026096,4.609437,9.267092,-3.1399262,-0.657474461419803739526.00,11.719019,-7.9744873,-1.6298528,9.220441,-3.3313067,-0.237226591419803739527.00,12.97358,-9.9550905,-8.793304,9.134977,-3.559999,-0.221297731419803739532.00,12.161347,-11.343728,-1.7531542,8.993658,-3.8398428,-0.734903451419803739581.00,10.998962,-11.599309,1.7723078,8.829846,-4.198632,-0.758738931419803739583.00,10.604518,-11.104906,0.9947908,8.658393,-4.566059,-0.5947541419803739585.00,10.354922,-9.97604,0.44891283,8.490439,-4.8715086,-0.59263041419803739586.00,9.242217,-8.953716,0.56203884,8.3624735,-5.093587,-0.542979661419803739587.00,7.6267295,-8.367735,0.87089086,8.258378,-5.271797,-0.42160631419803739607.00,7.107786,-7.459734,1.3628993,8.145894,-5.4506865,-0.323766381419803739608.00,7.3322425,-6.155493,1.6017209,8.054011,-5.590766,-0.215963021419803739625.00,7.043143,-5.2409077,1.9446903,8.018033,-5.6456656,-0.089398821419803739626.00,6.455965,-4.823718,2.1350293,8.008537,-5.659434,0.0673357551419803739631.00,6.0567317,-4.931457,1.8734628,8.006466,-5.657697,0.23948521419803739659.00,5.708974,-5.0523643,1.6873137,7.9875746,-5.6754637,0.39768051419803739660.00,5.3761797,-5.0798974,1.578976,7.947342,-5.719742,0.54288031419803739663.00,4.844667,-5.153519,1.5239093,7.8926044,-5.782508,0.66318481419803739672.00,4.172495,-5.381567,1.5227122,7.8181186,-5.870435,0.76511711419803739693.00,3.615843,-5.691616,1.7106571,7.7082615,-6.000164,0.86668711419803739694.00,2.973,-5.7736173,1.9369092,7.55936,-6.168753,0.986379271419803739703.00,2.6527755,-5.590461,1.922544,7.373974,-6.3657312,1.12800511419803739734.00,2.6671407,-5.3139305,1.6932992,7.1787157,-6.5589967,1.27121161419803739735.00,2.8293478,-5.1882353,1.2665327,6.9975643,-6.7278533,1.39301511419803739736.00,3.1854854,-5.2343235,0.7146692,6.838513,-6.8754816,1.46044181419803739762.00,3.7181952,-5.209184,0.23942018,6.7151265,-6.99829,1.44961691419803739762.00,4.24073,-5.171476,-0.010773907,6.6326175,-7.0908046,1.37813411419803739763.00,4.7506948,-5.2277393,-0.12749124,6.5935335,-7.1472297,1.26996831419803739771.00,5.257068,-5.485116,-0.30107087,6.5891323,-7.1721907,1.14604411419803739793.00,5.6084175,-5.8322754,-0.4830302,6.603961,-7.1797633,1.00453841419803739793.00,5.816713,-6.0561333,-0.7697359,6.619332,-7.1854506,0.850976771419803739805.00,6.1345434,-6.007651,-0.8846575,6.638083,-7.1872334,0.6707441419803739823.00,6.634333,-5.651513,-0.3196259,6.670357,-7.171133,0.501576361419803739830.00,7.557896,-4.7901993,0.045489833,6.7495227,-7.102221,0.41568451419803739860.00,9.1512375,-3.9641995,-1.5568297,6.9280343,-6.9302025,0.380834581419803739862.00,11.468226,-3.0484173,-4.830302,7.2264514,-6.6274915,0.158591461419803739863.00,14.498687,-1.536479,-6.525397,7.631712,-6.1450353,-0.407290761419803739864.00,17.50401,0.44232875,-6.643311,8.105615,-5.420475,-1.04301331419803739872.00,19.409195,2.1392193,-8.277354,8.582514,-4.483808,-1.55123541419803739899.00,18.653225,2.5863364,-8.322844,8.936231,-3.4742362,-2.06006171419803739900.00,15.684415,1.7034745,-5.353435,9.129132,-2.6251469,-2.43679121419803739903.00,12.372636,-0.3764882,-3.378817,9.245732,-2.076042,-2.52525161419803739929.00,10.056246,-2.3744495,-3.1681273,9.290126,-1.8768163,-2.51823191419803739930.00,8.775947,-2.9783869,-3.359065,9.264714,-1.9417405,-2.5622471419803739932.00,8.37013,-2.6390088,0.049081136,9.214285,-2.0513964,-2.65691419803739969.00,8.4587145,-4.8027687,3.240552,9.24491,-2.1552992,-2.46103241419803739970.00,7.2059484,-8.86513,2.8754363,9.28897,-2.4283135,-1.99717431419803739971.00,8.403648,-11.77648,0.7781156,9.19194,-3.0474827,-1.54644221419803739973.00,16.633118,-12.319365,-7.8104844,8.948026,-3.8131888,-1.25012041419803739998.00,19.607914,-12.090718,-9.245809,8.92165,-3.9064817,-1.14629131419803739999.00,15.552135,-12.352285,7.6530657,8.879756,-4.013478,-1.10106871419803740003.00,6.6103907,-9.575011,2.5851393,8.534738,-4.639227,-1.34396021419803740022.00,3.3464954,-7.0605006,-1.5215151,8.400628,-4.9141,-1.20476131419803740038.00,1.9069817,-5.517438,5.1200004,8.221089,-5.2106586,-1.19712031419803740039.00,2.2499511,-4.8644195,3.7020345,8.078447,-5.5319324,-0.55393021419803740058.00,2.861071,-4.5118732,2.1733365,7.931443,-5.7650137,-0.16498131419803740058.00,3.6469676,-4.829105,1.5245079,7.8080153,-5.933316,0.0325127171419803740063.00,5.00448,-5.6108117,1.3563153,7.7002006,-6.0699596,0.181330891419803740072.00,6.633734,-6.3769565,1.460463,7.6028066,-6.186619,0.305725841419803740084.00,8.19236,-6.8683662,1.8674773,7.5401454,-6.257048,0.407387881419803740109.00,9.564836,-7.314286,2.1948843,7.5197735,-6.27157,0.539263551419803740109.00,10.779893,-7.7213006,2.2092497,7.5313873,-6.24259,0.691853341419803740112.00,11.625645,-7.8086886,2.0859482,7.5680947,-6.182329,0.82047061419803740144.00,11.84232,-7.183802,1.9614497,7.6276484,-6.0962806,0.90815351419803740145.00,11.471219,-6.156091,1.7357962,7.7124243,-5.977901,0.976527331419803740146.00,10.67395,-5.3701944,1.5873557,7.816906,-5.832218,1.02547981419803740153.00,9.752182,-4.859631,1.5119383,7.9163437,-5.6883655,1.06977271419803740187.00,8.812458,-4.23654,1.359308,8.0019865,-5.5587397,1.11310021419803740189.00,7.8847046,-3.6254199,1.1797429,8.081696,-5.435308,1.14630781419803740191.00,7.2430587,-3.1573534,1.216853,8.153904,-5.3221297,1.16584181419803740209.00,6.953959,-3.0011318,1.151611,8.21751,-5.217911,1.19009221419803740210.00,7.020398,-3.0508115,0.9403227,8.274852,-5.120673,1.21488521419803740213.00,7.3986816,-3.1310172,0.7433996,8.328086,-5.033474,1.21552921419803740243.00,7.9307933,-3.3147724,0.54887074,8.385065,-4.9424224,1.19731091419803740243.00,8.405443,-3.4440591,0.43514615,8.445506,-4.848134,1.15733461419803740244.00,8.802282,-3.4051533,0.50158525,8.508612,-4.749209,1.10404431419803740252.00,9.074024,-3.2076318,0.63206923,8.575355,-4.6381946,1.05870591419803740273.00,8.998009,-2.9430726,0.65301853,8.648674,-4.5079584,1.02429121419803740274.00,8.817246,-2.7132292,0.6218939,8.721226,-4.371601,0.999851761419803740283.00,8.737639,-2.5983074,0.5638345,8.791075,-4.234519,0.977874041419803740310.00,8.638878,-2.710835,0.53211135,8.856617,-4.100695,0.956562341419803740311.00,8.581417,-3.0131028,0.41838676,8.909188,-3.9906628,0.933466551419803740312.00,8.4647,-3.2626984,0.3345897,8.94482,-3.9191637,0.8948331419803740343.00,8.221688,-3.4422636,0.33758244,8.96528,-3.8829548,0.846627651419803740344.00,8.153454,-3.5260606,0.4201824,8.972718,-3.874979,0.803272371419803740346.00,8.143278,-3.6834793,0.50038815,8.974369,-3.8786407,0.76632181419803740352.00,8.1319065,-3.9133227,0.6428431,8.968463,-3.8970134,0.7418471419803740384.00,8.231265,-4.0898952,0.6027403,8.952229,-3.9347396,0.73880491419803740385.00,8.511387,-4.2251673,0.40462008,8.932469,-3.9798841,0.73614881419803740385.00,8.782531,-4.4316673,0.2801216,8.915472,-4.0215993,0.715199951419803740404.00,9.012972,-4.7016134,0.18674773,8.898562,-4.065009,0.67944871419803740405.00,9.21229,-5.0038815,0.12988544,8.877539,-4.1170354,0.640077771419803740423.00,9.281721,-5.2103815,0.11552023,8.85084,-4.1811714,0.59234031419803740424.00,9.382876,-5.3725886,0.14784196,8.819713,-4.252887,0.544082461419803740432.00,9.421184,-5.4168816,0.18734628,8.786321,-4.3263717,0.50346331419803740461.00,9.126697,-5.3402667,0.22864626,8.754862,-4.3933883,0.470055551419803740462.00,8.755595,-5.1690817,0.30346507,8.723772,-4.457248,0.446234551419803740464.00,8.605958,-4.97156,0.427365,8.694607,-4.5151424,0.43321681419803740472.00,8.776545,-4.775235,0.53689975,8.672741,-4.556879,0.434537081419803740492.00,9.071032,-4.542998,0.56443304,8.662874,-4.5743237,0.447852051419803740493.00,9.368511,-4.2916064,0.53211135,8.668664,-4.56186,0.462687221419803740503.00,9.734824,-3.8833952,0.45609543,8.690551,-4.5190067,0.472538021419803740519.00,10.444106,-3.560178,0.44352585,8.7348175,-4.4329715,0.471309931419803740536.00,11.498753,-3.527856,0.4973954,8.799454,-4.303215,0.47152551419803740536.00,12.4630165,-3.5098996,0.6422446,8.87641,-4.1425214,0.4682441419803740564.00,13.333908,-3.1118636,0.74878657,8.95891,-3.960565,0.471435761419803740565.00,14.63396,-1.9907787,0.6003461,9.052627,-3.7410574,0.474157721419803740566.00,18.53531,1.1965023,-15.966931,9.175903,-3.430562,0.452126651419803740592.00,16.713324,-0.8631097,-12.8293295,9.175689,-3.4320197,0.44539371419803740593.00,14.062344,-2.566584,6.299743,9.3064,-2.4896698,-1.83380711419803740593.00,14.515447,-2.510919,8.418014,9.453375,-2.3465955,-1.13912731419803740604.00,14.277822,-2.9245174,4.396353,9.547784,-2.214291,-0.327293251419803740617.00,13.224373,-4.97156,-1.9482816,9.5628195,-2.1666489,-0.168806421419803740635.00,12.198458,-7.1586633,-1.8926164,9.53273,-2.271627,-0.37040161419803740635.00,12.087726,-8.395268,0.94930094,9.468215,-2.5276377,-0.366539661419803740660.00,12.6300125,-9.372701,1.0893618,9.377101,-2.8612535,-0.231472281419803740660.00,13.216592,-10.523713,0.46507367,9.262637,-3.2172027,-0.153563841419803740664.00,13.14297,-11.823765,0.40581718,9.119314,-3.6017082,-0.190289351419803740691.00,12.794015,-12.565968,0.6733692,8.947626,-4.009218,-0.191150931419803740692.00,12.171523,-12.674904,0.92655605,8.76477,-4.396331,-0.146531461419803740693.00,11.314399,-12.318767,1.0690111,8.584168,-4.7407384,-0.088422531419803740716.00,9.850943,-11.550826,0.86849666,8.411317,-5.0418034,-0.0186629071419803740717.00,8.246828,-10.62427,1.0031705,8.24466,-5.3097596,0.0491815251419803740734.00,7.1867948,-9.705495,1.4862007,8.079449,-5.5573063,0.09614071419803740735.00,6.4068837,-8.622119,1.714847,7.924387,-5.7740903,0.185415031419803740759.00,6.167464,-7.3346367,1.134253,7.7876844,-5.953095,0.288140951419803740760.00,5.923255,-6.019023,0.219668,7.692799,-6.071717,0.35423341419803740764.00,5.502474,-5.1547165,0.34596214,7.644104,-6.1323247,0.36424321419803740789.00,5.385158,-4.396951,0.66858083,7.6178,-6.1637425,0.384447521419803740790.00,4.860828,-4.3520603,0.94451255,7.6190085,-6.1584888,0.440590531419803740792.00,4.299388,-4.5136685,1.4221559,7.603999,-6.1709166,0.519012031419803740804.00,3.7924154,-4.5765166,1.4790181,7.5598807,-6.2150555,0.6258411419803740816.00,3.0855274,-4.673482,1.5951369,7.490088,-6.288095,0.72719681419803740835.00,2.6641479,-4.661511,1.5005659,7.379321,-6.4033074,0.844794151419803740836.00,2.4007857,-4.610634,1.4089876,7.2457995,-6.538403,0.95816281419803740850.00,2.2499511,-4.6285906,1.4437037,7.1020217,-6.6782937,1.06398951419803740852.00,2.2026656,-4.7764325,1.3479356,6.9440103,-6.825794,1.16603161419803740868.00,2.404377,-4.8560395,1.1540052,6.7759686,-6.9774485,1.25373771419803740883.00,2.7659016,-4.8698063,0.75596917,6.618934,-7.1153874,1.31580831419803740886.00,3.3255463,-4.8320975,0.40162733,6.4913087,-7.230337,1.32496111419803740899.00,4.0976763,-4.8859673,0.19512744,6.412503,-7.3076334,1.28402161419803740904.00,5.0002904,-4.947618,-0.011372458,6.39842,-7.331937,1.21381351419803740915.00,5.681441,-5.0757074,-0.2753332,6.447644,-7.3061647,1.10373351419803740932.00,6.017826,-5.179257,-0.4794389,6.534865,-7.247279,0.971026661419803740933.00,6.184223,-5.4043117,-0.30107087,6.631023,-7.1780677,0.82176551419803740959.00,6.546346,-5.4043117,0.22744916,6.710268,-7.1160913,0.70990651419803740967.00,7.3124905,-5.100847,0.038905777,6.7985916,-7.035061,0.676355841419803740967.00,8.271368,-4.589086,-0.3824737,6.942882,-6.8986526,0.612689731419803740997.00,10.280702,-3.6355953,-1.6795325,7.160973,-6.68074,0.5085251419803740998.00,14.199411,-1.7603368,-5.0362034,7.505502,-6.306539,0.25573871419803740998.00,18.924967,1.2665327,-9.555858,8.037356,-5.6080027,-0.34869361419803741004.00,19.607914,3.927688,-10.248979,8.618805,-4.500125,-1.2788581419803741017.00,19.60073,3.8229415,-6.1530986,8.60911,-4.5428624,-1.18996421419803741032.00,16.452356,1.6573862,-4.244321,9.268153,-2.312034,-2.2195081419803741033.00,13.175292,1.3192052,-3.727772,9.377364,-1.7844299,-2.24751419803741052.00,11.229404,0.02813187,-3.679888,9.429974,-1.4130279,-2.29115061419803741053.00,11.925519,-2.634819,-2.0620062,9.426326,-1.3104566,-2.36589481419803741067.00,12.797606,-5.310938,-2.0380642,9.414815,-1.452254,-2.32864951419803741090.00,15.899295,-6.930017,-3.0538042,9.378014,-1.741481,-2.27826931419803741091.00,19.560627,-6.3781533,-4.817134,9.331655,-2.0486624,-2.2121521419803741093.00,19.570204,-5.439626,-5.142745,9.298151,-2.2070582,-2.20084261419803741126.00,11.675324,-8.766968,5.1624975,9.2784,-2.2547138,-2.23561121419803741127.00,4.2060137,-8.893262,8.380903,9.289169,-2.6346495,-1.71474411419803741128.00,-0.2621651,-8.112753,2.1984756,9.21999,-3.1556947,-1.09716691419803741133.00,-4.3101616,-8.46889,-5.5647235,8.995125,-3.7878914,-0.953942361419803741164.00,-3.442862,-7.33344,0.86131406,8.552805,-4.5819974,-1.42309881419803741165.00,-0.4261679,-7.023989,6.4242415,8.158551,-5.2982025,-1.23996081419803741166.00,2.6048915,-6.59423,5.0661306,7.8414793,-5.8760223,-0.392402261419803741199.00,4.256292,-5.774216,3.1812954,7.57427,-6.22297,0.274754231419803741200.00,5.2726307,-5.625177,2.1721394,7.409155,-6.3886466,0.67826051419803741201.00,6.7612257,-5.9358244,1.9123687,7.317089,-6.4744706,0.84369661419803741230.00,8.811859,-6.3967085,2.0883424,7.298594,-6.48509,0.91898461419803741231.00,10.709863,-6.995259,2.4091654,7.3564982,-6.4077196,0.99671841419803741232.00,12.04463,-7.6027875,2.707842,7.456516,-6.272438,1.10783091419803741234.00,12.625224,-8.0445175,2.7844565,7.5630784,-6.1245112,1.20855021419803741262.00,12.615048,-8.136096,2.5432408,7.651826,-5.993949,1.30098311419803741263.00,12.569559,-7.755418,2.1733365,7.7198343,-5.893256,1.35797431419803741265.00,12.477981,-6.8988924,1.7022774,7.7871923,-5.7983136,1.38188781419803741294.00,12.120646,-6.1129956,1.347337,7.8731217,-5.681734,1.37920831419803741295.00,11.519103,-5.533,1.1959038,7.972148,-5.547564,1.35639171419803741296.00,10.699089,-5.0146556,1.0576386,8.068895,-5.415925,1.31570341419803741323.00,10.005369,-4.3999443,1.0265139,8.158611,-5.28902,1.27817771419803741325.00,9.232041,-3.86484,1.0857705,8.246882,-5.1610255,1.23415461419803741326.00,8.608353,-3.5883098,1.1031284,8.325177,-5.0403695,1.20684731419803741333.00,8.073847,-3.5368345,0.82779527,8.389261,-4.9347844,1.1994161419803741359.00,7.8607626,-3.3865983,0.56802434,8.4367075,-4.8569317,1.18429641419803741360.00,7.7350674,-3.1160536,0.22744916,8.481703,-4.7857995,1.15206131419803741365.00,7.6369047,-3.120842,0.08738836,8.531963,-4.709369,1.09446141419803741397.00,7.53156,-3.0711622,0.027533319,8.577065,-4.64103,1.03207061419803741398.00,7.4429746,-3.0107086,-0.061650693,8.620225,-4.5739074,0.970294951419803741398.00,7.5189905,-2.8395233,-0.0700304,8.661781,-4.5086565,0.903310951419803741417.00,7.5842323,-2.6102784,0.05566519,8.709178,-4.4295783,0.83634681419803741418.00,7.578247,-2.4666264,0.1945289,8.762826,-4.332068,0.78515191419803741433.00,7.442376,-2.40318,0.25079262,8.816118,-4.2284036,0.7530461419803741434.00,7.314286,-2.4187422,0.25019407,8.865658,-4.1290283,0.72222851419803741459.00,7.258621,-2.4558525,0.24660277,8.907584,-4.042384,0.696029841419803741460.00,7.2969284,-2.4534583,0.24660277,8.942362,-3.9692316,0.670644641419803741465.00,7.4310036,-2.4756045,0.2765303,8.974679,-3.9005497,0.64127871419803741488.00,7.6943655,-2.6617537,0.39803603,9.005479,-3.833975,0.61021191419803741488.00,8.192958,-2.9801826,0.54647654,9.030135,-3.778806,0.58964351419803741493.00,8.773552,-3.354875,0.6715736,9.047642,-3.736734,0.589412751419803741518.00,9.264363,-3.5972881,0.7679402,9.058468,-3.7102916,0.590139031419803741518.00,9.56723,-3.7499185,0.8230068,9.06539,-3.6917837,0.599872471419803741535.00,9.801862,-3.8839936,0.8810662,9.069259,-3.6794972,0.61663991419803741536.00,9.998186,-4.0240545,0.94930094,9.070077,-3.6730351,0.642576461419803741550.00,10.166379,-4.0892963,0.92176765,9.067263,-3.6736615,0.67775711419803741553.00,10.183139,-4.056975,0.8870517,9.064609,-3.6744578,0.708249871419803741572.00,10.046669,-4.128801,0.9139865,9.063786,-3.6726146,0.72807671419803741573.00,10.166978,-4.1503487,0.81343,9.057925,-3.6814904,0.755652071419803741585.00,10.3226,-4.110844,0.6703765,9.054902,-3.6858318,0.770578151419803741608.00,10.250774,-4.06296,0.5506664,9.05691,-3.681343,0.76843251419803741609.00,10.204686,-4.007295,0.52253455,9.060044,-3.6771429,0.75138961419803741613.00,10.377667,-3.9264908,0.5931635,9.065003,-3.6700778,0.725706161419803741645.00,10.527305,-3.8205473,0.6847417,9.074247,-3.6504714,0.708863141419803741645.00,10.642825,-3.6990416,0.7637503,9.087527,-3.6204267,0.69262351419803741646.00,10.797251,-3.5500026,0.78888947,9.104516,-3.5800388,0.67933471419803741671.00,11.039065,-3.2429461,0.7733272,9.126603,-3.5256858,0.667110741419803741672.00,11.637017,-2.9999347,0.7410054,9.158518,-3.4442053,0.655280771419803741673.00,12.631209,-2.9071593,0.83497787,9.200122,-3.3337777,0.64346441419803741685.00,13.267468,-3.210026,0.712275,9.247032,-3.2015584,0.64252171419803741700.00,13.58889,-3.430891,0.3693056,9.2871,-3.0864954,0.62747521419803741717.00,13.678074,-3.3369186,0.05566519,9.321295,-2.989995,0.58631491419803741717.00,15.098434,-2.106299,-8.71669,9.354432,-2.8966026,0.52406641419803741738.00,16.575657,-2.111686,-18.957888,9.423922,-2.7017996,-0.245727171419803741739.00,13.369223,-3.9624038,-0.25258827,9.43313,-2.6701462,-0.23824631419803741745.00,12.628816,-3.0041246,8.009203,9.379228,-2.4778943,-1.43545571419803741766.00,12.549209,-2.1027076,5.674258,9.481521,-2.4096453,-0.681753161419803741766.00,12.105083,-2.8514943,0.38965634,9.525983,-2.3073385,-0.319709661419803741781.00,11.2210245,-5.1702785,-1.2611457,9.52418,-2.2845104,-0.491334941419803741810.00,10.716447,-6.8127007,1.134253,9.487754,-2.4350646,-0.472596471419803741811.00,11.2689085,-7.3819222,2.1721394,9.426001,-2.6951895,-0.238428241419803741812.00,12.192472,-7.992444,1.9285295,9.343951,-2.9757695,-0.075908061419803741814.00,13.045406,-8.67958,0.9091981,9.252171,-3.2507875,-0.0098439331419803741843.00,13.08132,-9.492412,0.39743748,9.149696,-3.5288117,0.0307490681419803741844.00,12.545617,-9.7641535,0.43394905,9.034141,-3.8150175,0.0188163441419803741845.00,11.37186,-9.388862,1.1384429,8.916274,-4.0829005,0.0186015331419803741866.00,10.014946,-8.590994,1.6639702,8.804091,-4.318799,0.079753631419803741867.00,8.637083,-8.189367,2.1218612,8.699027,-4.523662,0.18387481419803741881.00,8.157045,-7.795521,1.9895816,8.584701,-4.729201,0.328554061419803741886.00,7.9912467,-7.2286935,2.078167,8.474507,-4.915662,0.435205341419803741907.00,8.26658,-6.3009405,2.1272483,8.381594,-5.0594344,0.566926061419803741908.00,8.428188,-5.4623713,1.5316905,8.33012,-5.1281133,0.69422091419803741914.00,8.10557,-4.883573,0.7338228,8.317551,-5.137366,0.77214531419803741942.00,7.7853456,-4.6022544,0.4225766,8.325639,-5.120749,0.79501741419803741943.00,7.495647,-4.406528,0.2100912,8.340562,-5.0962415,0.79608921419803741946.00,7.009624,-4.3436804,0.5410896,8.35466,-5.0778747,0.76501541419803741988.00,6.223727,-4.6244006,0.8738836,8.356241,-5.0741854,0.77219681419803741989.00,5.3396683,-5.0284224,1.1360487,8.324452,-5.1213517,0.80351521419803741990.00,4.550779,-5.193622,1.1683705,8.251723,-5.2287493,0.86000781419803741990.00,3.78643,-5.2301335,1.1408371,8.14686,-5.3809614,0.91887151419803741993.00,3.0998926,-5.2474914,1.2533646,8.012216,-5.5699444,0.97494951419803742020.00,2.825158,-5.34326,1.2838906,7.8499427,-5.7831593,1.05065441419803742021.00,3.127426,-5.3983264,1.1719618,7.664436,-6.013629,1.12387551419803742025.00,3.430891,-5.3366756,0.9923966,7.4862375,-6.2226267,1.18555561419803742033.00,3.596091,-5.120599,0.7254431,7.3286314,-6.4003205,1.22369121419803742057.00,3.8235402,-4.793192,0.53570265,7.201567,-6.542715,1.22503041419803742058.00,4.1383777,-4.43466,0.40641573,7.1153536,-6.6399126,1.20568481419803742065.00,4.4580035,-4.19105,0.34835634,7.073593,-6.689142,1.17900551419803742093.00,4.667496,-4.0743327,0.30765492,7.0733275,-6.6953564,1.14483691419803742094.00,4.7860093,-4.1479545,0.16938977,7.090576,-6.6841307,1.10296811419803742097.00,5.011064,-4.2676644,0.10295067,7.1094956,-6.6731076,1.0464741419803742129.00,5.4737434,-4.3077674,0.18674773,7.1327195,-6.6581416,0.98176131419803742130.00,6.143522,-4.3341036,0.22325931,7.1776004,-6.6172132,0.93001921419803742130.00,7.215525,-4.280234,-0.18315643,7.2562585,-6.537749,0.880311971419803742134.00,8.866926,-4.0922894,-1.8836381,7.3989577,-6.389708,0.77295531419803742156.00,11.790845,-3.0885203,-5.8574142,7.6261597,-6.148911,0.450546861419803742156.00,17.065271,-0.40043023,-11.791444,7.990687,-5.676343,-0.31378481419803742165.00,19.607914,4.3556514,-14.215572,8.455526,-4.7151,-1.56278931419803742193.00,19.607914,5.614403,-6.535572,8.424513,-4.7964325,-1.48061261419803742194.00,19.428349,0.82480246,-4.156334,9.1077385,-2.2119348,-2.88562541419803742195.00,14.331093,-1.2006922,-2.9652188,9.256674,-1.6528984,-2.78429531419803742219.00,9.907207,-1.2162545,-2.0254946,9.321295,-1.482308,-2.66206931419803742219.00,7.48607,-1.543063,-2.5905263,9.354008,-1.4471725,-2.56487421419803742225.00,6.361394,-1.5574282,-1.2545617,9.333402,-1.5545503,-2.57708931419803742234.00,5.7682304,-2.693477,2.9179332,9.323041,-1.6502769,-2.55497031419803742262.00,6.1106014,-5.7963624,5.1146135,9.386582,-1.8341526,-2.16757681419803742263.00,6.3979053,-8.783129,6.311714,9.406818,-2.3041208,-1.54051831419803742266.00,10.132261,-10.30225,5.077503,9.2962885,-3.023818,-0.778401851419803742289.00,17.539324,-9.873089,-6.6870055,9.084951,-3.6883025,-0.174645651419803742290.00,19.302053,-9.7240505,-7.66384,8.949172,-3.9456322,-0.717431961419803742294.00,12.126632,-9.437345,-3.7271736,8.900211,-4.059983,-0.68788191419803742325.00,7.068282,-7.839813,-5.895722,8.737857,-4.227073,-1.39719281419803742326.00,5.9621606,-6.493075,0.60932434,8.566327,-4.4102974,-1.82694571419803742328.00,5.321712,-5.8945246,5.847239,8.475324,-4.658382,-1.62442111419803742334.00,4.258686,-5.509058,5.61979,8.42682,-4.918866,-0.981749531419803742363.00,3.7642837,-4.8799815,4.1904516,8.319929,-5.1750884,-0.409427341419803742364.00,3.803788,-4.392163,2.6581624,8.206596,-5.3685684,0.0256898831419803742366.00,4.6519337,-4.338892,1.5298948,8.1032915,-5.5128727,0.339559881419803742394.00,6.411672,-4.5777135,1.127669,8.027161,-5.6102858,0.5096981419803742394.00,8.197148,-5.1648917,1.3485341,8.004437,-5.634224,0.595722851419803742395.00,9.660006,-5.817312,1.6310499,8.020053,-5.602656,0.677784861419803742418.00,10.965444,-6.1943984,1.7753005,8.049397,-5.549536,0.76174451419803742419.00,11.690289,-6.493075,1.875857,8.101216,-5.4641356,0.826981251419803742433.00,11.742961,-6.5403605,1.7878702,8.154446,-5.3761272,0.8790331419803742458.00,11.290457,-5.9064956,1.6089035,8.200287,-5.2997622,0.91552621419803742459.00,10.755353,-5.1020436,1.4520833,8.2534895,-5.211601,0.9431311419803742460.00,10.166978,-4.549582,1.3628993,8.317197,-5.1041284,0.970810061419803742466.00,9.462483,-4.1521444,1.2204443,8.379152,-4.9958887,1.00064031419803742490.00,8.81605,-3.7056258,1.18094,8.438821,-4.890801,1.01822671419803742491.00,8.528745,-3.2154129,1.1150994,8.495003,-4.78699,1.04405151419803742495.00,8.453327,-2.9179332,1.1390414,8.55626,-4.6713233,1.06749061419803742527.00,8.381501,-2.7856536,1.1019313,8.619036,-4.547566,1.09647861419803742528.00,8.544906,-2.718616,1.0193313,8.67946,-4.4248915,1.12148731419803742529.00,8.539519,-2.855684,0.9127894,8.740267,-4.3003016,1.13381171419803742551.00,8.51857,-2.896984,0.80924016,8.791188,-4.196582,1.12875911419803742552.00,8.68796,-2.8149827,0.7062895,8.834487,-4.1073475,1.11890321419803742557.00,9.009979,-2.6162639,0.705691,8.8779545,-4.0167823,1.10351981419803742566.00,9.165004,-2.4636335,0.5686229,8.927811,-3.90816,1.09126571419803742594.00,9.146449,-2.315193,0.5231331,8.982531,-3.7879915,1.06566831419803742595.00,9.006987,-2.171541,0.57041854,9.038092,-3.662027,1.03579371419803742595.00,8.916606,-2.088941,0.7278373,9.091831,-3.5353074,1.00527991419803742614.00,8.788516,-2.0847511,0.7870938,9.140774,-3.410815,0.99144461419803742617.00,8.651448,-2.0787656,0.80804306,9.182866,-3.2984834,0.98255061419803742631.00,8.443152,-2.1643584,0.8218097,9.217922,-3.2007759,0.977416931419803742646.00,8.272566,-2.3900118,0.7278373,9.24292,-3.1277592,0.97771081419803742646.00,8.264186,-2.6042929,0.5129577,9.256283,-3.0898135,0.971946361419803742667.00,8.3072815,-2.906561,0.33518824,9.262691,-3.078486,0.94651471419803742668.00,8.33242,-3.1507695,0.26635495,9.260883,-3.0970635,0.90257811419803742680.00,8.614338,-3.221997,0.33518824,9.252224,-3.1358118,0.85639311419803742694.00,8.665215,-3.5535939,0.42078096,9.244167,-3.169415,0.81889021419803742694.00,8.738836,-3.855862,0.45968673,9.2256365,-3.2295783,0.79236141419803742712.00,9.063849,-3.9743748,0.47644615,9.199831,-3.3072412,0.771793661419803742715.00,9.834782,-4.1461587,0.42078096,9.175546,-3.3778834,0.75475981419803742727.00,10.056845,-4.271256,0.44651863,9.156782,-3.4342375,0.72785251419803742744.00,10.128072,-4.3526587,0.44113165,9.138114,-3.4881654,0.705653971419803742746.00,10.212467,-4.3520603,0.40462008,9.120895,-3.537827,0.680767361419803742763.00,10.1621895,-4.3089647,0.34955344,9.108117,-3.5761695,0.650851371419803742766.00,10.029311,-4.1425676,0.30166942,9.0982485,-3.6073272,0.61601551419803742783.00,9.872491,-3.8893807,0.26276365,9.093357,-3.625765,0.57887341419803742786.00,9.762358,-3.655946,0.24181437,9.09565,-3.625992,0.54013231419803742797.00,9.847352,-3.4512417,0.24121583,9.103629,-3.610042,0.51177991419803742819.00,9.952098,-3.2722752,0.2681506,9.1186905,-3.5765085,0.477965441419803742820.00,10.045472,-3.0268695,0.30286652,9.138764,-3.5288599,0.447811131419803742826.00,10.2178545,-2.5803509,0.40162733,9.165156,-3.4631448,0.42065951419803742859.00,10.626664,-2.1667526,0.6655881,9.204074,-3.360441,0.403573361419803742860.00,11.398794,-2.0045455,1.18094,9.253957,-3.2196162,0.410796141419803742860.00,12.443863,-1.863886,1.6777369,9.306805,-3.0551822,0.46868721419803742895.00,13.110648,-1.7244238,1.851915,9.36266,-2.8641746,0.554504631419803742896.00,13.096283,-1.7345991,1.5143325,9.41621,-2.6644468,0.63726521419803742897.00,13.453618,-1.3700819,0.18016368,9.460736,-2.4932446,0.669779361419803742897.00,14.6172,-0.46208093,-13.572729,9.5128355,-2.3123484,0.573908871419803742926.00,14.996681,-1.4095862,-15.307328,9.560491,-2.0779262,-0.670524951419803742927.00,13.127408,-2.3259668,2.2876596,9.4486475,-1.9133252,-1.79795841419803742927.00,14.268245,-1.8980033,6.306926,9.532268,-1.8414296,-1.38398361419803742956.00,13.724761,-2.203264,3.8013937,9.637135,-1.716374,-0.5917011419803742956.00,12.275671,-3.6487634,-2.307412,9.655477,-1.6693699,-0.394116671419803742957.00,11.555614,-5.295376,-1.9740193,9.61667,-1.7542753,-0.782672461419803742966.00,11.568184,-6.51163,1.38325,9.572568,-1.9569618,-0.84060011419803742993.00,12.299613,-7.491457,1.560421,9.52992,-2.248198,-0.54466421419803742996.00,13.223775,-8.48984,0.43275195,9.4579115,-2.5673199,-0.35660951419803742997.00,14.062344,-9.233239,0.33877954,9.359364,-2.907067,-0.348817831419803743015.00,14.216769,-9.8515415,1.0720038,9.252969,-3.2302911,-0.343745651419803743016.00,13.360244,-10.344149,1.3215994,9.144936,-3.5334542,-0.235085651419803743026.00,12.331336,-10.06283,0.97144735,9.025067,-3.8343716,-0.127045841419803743048.00,11.408371,-9.090784,0.5805939,8.907477,-4.1016026,-0.0638335941419803743049.00,10.327389,-7.9212165,0.60214174,8.808359,-4.3107653,-0.0221774911419803743064.00,9.45171,-7.1245456,0.91099375,8.726299,-4.4745665,0.0182666011419803743081.00,8.792108,-6.501455,1.13964,8.654606,-4.610854,0.090545511419803743081.00,8.359954,-5.7179523,1.3670892,8.596684,-4.71579,0.169491621419803743095.00,8.030751,-4.7680526,1.7142484,8.561497,-4.775556,0.25545641419803743095.00,7.8667483,-3.86484,1.7016789,8.55325,-4.782977,0.368027271419803743112.00,7.8505874,-3.3728316,0.7613561,8.570705,-4.7414722,0.481481081419803743114.00,7.3627687,-3.7415388,-0.05746084,8.607812,-4.6696243,0.520165151419803743127.00,6.5960255,-4.597466,-0.021547815,8.62425,-4.6420755,0.493814771419803743144.00,5.7903767,-5.192425,0.44771573,8.594252,-4.699922,0.468975221419803743146.00,4.7387238,-5.5006785,0.7685388,8.521409,-4.8295097,0.481484561419803743160.00,3.7858315,-5.511452,0.8774749,8.406688,-5.023082,0.516380371419803743177.00,3.0160956,-5.530606,0.9463082,8.260753,-5.2547746,0.56363021419803743178.00,2.3882163,-5.6856303,1.0127473,8.087291,-5.5116286,0.62296211419803743194.00,2.3211784,-5.6616883,1.0672154,7.872342,-5.806338,0.69501321419803743195.00,2.3062148,-5.7377043,1.0199299,7.6469784,-6.0907626,0.7724961419803743212.00,2.3732524,-5.7347116,0.93014735,7.4100323,-6.367847,0.84399171419803743216.00,2.6809072,-5.6030307,0.90021986,7.1764655,-6.622404,0.9013781419803743240.00,3.3039982,-5.397129,0.8283938,6.9721575,-6.830359,0.95164741419803743241.00,4.0258503,-5.083489,0.8230068,6.828602,-6.967819,0.995024861419803743246.00,4.4981065,-4.7387238,0.6991069,6.7558317,-7.034999,1.01878751419803743266.00,4.7638626,-4.578911,0.39025488,6.739264,-7.0477314,1.04028691419803743266.00,4.6710877,-5.005677,-0.14604631,6.7559605,-7.0347347,1.01975761419803743275.00,4.8069587,-5.3522377,-0.6596026,6.7423573,-7.0606165,0.926662451419803743303.00,5.275025,-5.3779755,-0.5835867,6.7186747,-7.101853,0.77039081419803743304.00,6.2219315,-5.1583076,-0.7086837,6.7224956,-7.1120276,0.630486851419803743307.00,7.9391727,-4.5896845,-2.0506337,6.809734,-7.040596,0.477392261419803743316.00,10.901399,-3.2172086,-4.3993454,7.0286174,-6.836802,0.164553431419803743343.00,15.4324255,-0.094570965,-7.9463553,7.454113,-6.3599296,-0.397359521419803743344.00,19.57978,5.61141,-13.374011,8.092217,-5.39645,-1.25089631419803743348.00,19.607914,8.215105,-8.139089,8.0502405,-5.4751062,-1.1778011419803743385.00,19.568409,4.458602,-4.1820717,8.036823,-5.5061345,-1.12355481419803743387.00,15.222335,1.7908629,-3.2082303,9.324029,-1.4670898,-2.66092681419803743388.00,10.837953,0.3172317,-2.6659436,9.409382,-0.9884245,-2.5801011419803743389.00,8.521563,-1.3096284,-2.5492263,9.429951,-0.8288863,-2.56112981419803743396.00,7.7159133,-1.6537948,-2.9454668,9.413921,-0.95168906,-2.57736251419803743433.00,8.027759,-1.7645266,-0.06584055,9.372485,-1.0934063,-2.67046281419803743434.00,9.989208,-3.679888,2.1631613,9.406099,-1.2016835,-2.50033741419803743436.00,9.654618,-5.61141,3.1920695,9.475563,-1.4428905,-2.0741621419803743437.00,13.024457,-6.431424,1.0384849,9.504699,-1.839835,-1.56399771419803743447.00,19.339165,-5.2852,-5.4743423,9.473934,-2.201119,-1.25301371419803743483.00,19.23382,-6.1327477,-4.462792,9.421988,-2.292651,-1.46296621419803743484.00,11.224616,-7.797915,0.9828198,9.3695135,-2.424664,-1.58229171419803743485.00,4.803367,-7.1544733,0.45489833,9.305677,-2.7444859,-1.42919351419803743487.00,1.7417817,-6.8773446,-0.92895025,9.188263,-3.1245036,-1.40843031419803743495.00,1.1456255,-6.9503675,1.9147629,9.002266,-3.6101916,-1.44780391419803743523.00,2.8999767,-6.6403184,5.61141,8.798918,-4.166546,-1.17870271419803743524.00,4.3059716,-6.281787,4.540005,8.630505,-4.6310196,-0.48832741419803743527.00,4.959589,-6.1650696,2.574964,8.454238,-4.968511,0.10071971419803743554.00,5.791574,-5.9011087,1.472434,8.276162,-5.2413073,0.45191421419803743555.00,7.3525934,-5.769428,1.3102269,8.139603,-5.436087,0.605172751419803743556.00,9.184756,-5.787384,1.5640123,8.074054,-5.5265555,0.66122961419803743599.00,10.521918,-5.947197,1.8495208,8.082621,-5.5084434,0.70617221419803743600.00,11.300632,-6.0878563,1.9859903,8.121877,-5.4397116,0.78425961419803743600.00,11.394006,-5.973533,1.9470845,8.176674,-5.344798,0.86343671419803743601.00,11.062409,-5.547964,1.6184803,8.231018,-5.2476034,0.93988581419803743623.00,10.59973,-5.0787005,1.2587515,8.286378,-5.1511593,0.98583261419803743624.00,10.254366,-4.6764746,1.0217255,8.341639,-5.0577984,1.00308041419803743627.00,10.173561,-4.3424835,0.92895025,8.398197,-4.9629,1.00514051419803743649.00,10.248979,-3.911527,1.0570401,8.463048,-4.854203,0.991933351419803743650.00,10.241198,-3.469797,1.1534066,8.538588,-4.720069,0.99188831419803743655.00,10.023924,-3.0783448,1.1677719,8.621356,-4.565527,0.99929631419803743707.00,9.537901,-2.6312277,1.2844892,8.704581,-4.4019513,1.0116841419803743709.00,8.940548,-2.2014685,1.2425907,8.78301,-4.2357855,1.04271711419803743710.00,8.527548,-1.8243817,1.1994951,8.855903,-4.0729136,1.0745911419803743712.00,8.395866,-1.6777369,1.1941081,8.925466,-3.908609,1.10871331419803743714.00,8.474875,-1.6819267,1.0498575,8.989606,-3.748654,1.1423681419803743753.00,8.81964,-1.5610195,0.9804256,9.047645,-3.6003008,1.16119351419803743755.00,9.173384,-1.3377602,0.9187749,9.108081,-3.4428327,1.16626081419803743756.00,9.335591,-1.1312603,0.92655605,9.1733,-3.267115,1.16056941419803743758.00,9.290101,-0.97264445,0.8607155,9.239089,-3.0780854,1.15542581419803743760.00,9.207501,-0.7858967,0.6955156,9.301188,-2.8893292,1.1445831419803743827.00,8.895657,-0.7140707,0.66738373,9.362402,-2.695977,1.11691881419803743829.00,8.465299,-0.81402856,0.4249708,9.415205,-2.5167496,1.09100591419803743830.00,8.3312235,-0.9816227,0.18674773,9.458344,-2.3708649,1.04359131419803743832.00,8.478467,-1.3485341,-0.08678981,9.493075,-2.2578006,0.97686531419803743834.00,8.704121,-1.7100586,-0.15861586,9.517488,-2.1914802,0.886149641419803743836.00,8.722675,-2.1775265,-0.15801731,9.532118,-2.163124,0.793737651419803743838.00,8.766968,-2.544438,-0.13706805,9.533887,-2.185816,0.705423951419803743858.00,8.837597,-2.8101943,-0.07062895,9.527076,-2.2387621,0.62703081419803743859.00,8.859145,-3.0819361,0.031124622,9.513014,-2.3139498,0.564418141419803743860.00,8.830415,-3.3692403,0.12629414,9.491637,-2.409755,0.521801531419803743879.00,8.822035,-3.697246,0.19752164,9.463128,-2.5250902,0.49345531419803743880.00,8.9998045,-3.99293,0.29029694,9.426544,-2.661868,0.474500121419803743895.00,9.396643,-4.2179847,0.3788824,9.384853,-2.8068578,0.465263931419803743896.00,9.849147,-4.4119153,0.44592008,9.342063,-2.9466786,0.461875921419803743909.00,10.14543,-4.5525746,0.4237737,9.3010435,-3.0735407,0.462992941419803743929.00,10.254965,-4.6417584,0.3657143,9.26314,-3.186303,0.460565271419803743929.00,10.251373,-4.6662993,0.30585927,9.228079,-3.287628,0.45219551419803743942.00,10.227431,-4.526837,0.31783026,9.196067,-3.3780742,0.43744291419803743960.00,10.221446,-4.2185836,0.3429694,9.171307,-3.4467776,0.42102691419803743960.00,10.241198,-3.816956,0.36750996,9.157876,-3.4834847,0.411137641419803743977.00,10.292673,-3.4608185,0.40581718,9.158583,-3.4834425,0.395465461419803743977.00,10.404003,-3.0621839,0.427365,9.170799,-3.4525344,0.383198981419803743994.00,10.627861,-2.5007436,0.47764325,9.19511,-3.3883185,0.373687771419803744009.00,11.186908,-1.8710686,0.56982,9.235254,-3.2778387,0.369086561419803744009.00,12.315175,-1.3850456,0.7727286,9.293516,-3.107787,0.377637831419803744028.00,13.530232,-0.74519527,1.1444284,9.36466,-2.8830776,0.401754921419803744029.00,14.578893,0.59017074,0.29987377,9.446103,-2.5949228,0.456014341419803744043.00,18.340782,4.9763484,-16.99105,9.54526,-2.2081368,0.42722781419803744060.00,16.503233,4.367024,-10.554838,9.545609,-2.2049158,0.43594241419803744060.00,13.255498,3.0268695,2.4875755,9.619543,-0.8570897,-1.70298991419803744078.00,14.21258,2.2589293,0.39743748,9.698077,-0.44577014,-1.38527481419803744079.00,12.667123,-1.7669208,1.7441759,9.710252,-0.18903293,-1.35856071419803744094.00,12.446258,-3.7391446,2.7281928,9.7369995,-0.29494244,-1.12880951419803744109.00,12.703035,-5.6724625,2.2182279,9.760813,-0.52314126,-0.78945211419803744110.00,13.458406,-7.33763,0.8319851,9.751318,-0.8664868,-0.57567461419803744130.00,14.688427,-8.7609825,0.42317516,9.707126,-1.3050504,-0.488794741419803744130.00,15.751453,-10.144233,0.6733692,9.6326,-1.7912595,-0.418084831419803744135.00,16.09502,-11.2210245,0.8900445,9.529071,-2.292437,-0.33452421419803744162.00,15.363592,-12.065579,1.1043255,9.404988,-2.765677,-0.26007191419803744162.00,13.575722,-12.23078,1.1234791,9.257021,-3.2316043,-0.18617871419803744177.00,11.552622,-11.429919,0.92535895,9.09462,-3.6666307,-0.1188283341419803744177.00,10.235811,-10.101735,0.74758947,8.934194,-4.043178,-0.0573794471419803744190.00,9.279925,-8.988432,0.6691794,8.792331,-4.3434176,-0.0062622751419803744196.00,8.234857,-7.8487916,0.7835025,8.668371,-4.585661,0.037914871419803744207.00,7.595605,-6.92044,1.1593921,8.566666,-4.772168,0.095101421419803744224.00,7.1287355,-6.1866174,1.5783775,8.4848,-4.914387,0.165339921419803744227.00,6.3667808,-5.602432,2.095525,8.418913,-5.0214524,0.27802361419803744242.00,5.7885814,-4.569334,2.5330653,8.353212,-5.1194663,0.43047761419803744264.00,5.4761376,-3.4410665,2.1374235,8.306718,-5.1749473,0.623481451419803744265.00,5.3582234,-2.5450363,1.3389573,8.294936,-5.170769,0.79221331419803744267.00,5.2756233,-2.112883,0.60812724,8.32008,-5.112813,0.897674261419803744276.00,5.1942205,-2.2864625,0.15442601,8.368166,-5.0303392,0.9164451419803744298.00,4.9542017,-2.8927941,0.41180268,8.410478,-4.961617,0.90366691419803744298.00,4.525041,-3.5565867,0.7152678,8.417872,-4.948939,0.904340451419803744310.00,4.0186677,-3.9959226,0.9056068,8.378421,-5.0113997,0.926452161419803744331.00,3.5823243,-4.1982327,1.1324574,8.297886,-5.136859,0.9634281419803744332.00,3.2483332,-4.226963,1.1282675,8.186922,-5.300143,1.02624761419803744336.00,3.0442274,-4.301782,0.9163807,8.062922,-5.4735875,1.09522581419803744378.00,3.0693667,-4.4484267,0.6404489,7.9246554,-5.6636815,1.13706971419803744379.00,3.2854433,-4.7698483,0.4878186,7.7814035,-5.8569374,1.14736871419803744380.00,3.7834373,-4.9883194,0.26874915,7.6309905,-6.0539494,1.13492731419803744381.00,4.38917,-4.999093,0.10354923,7.49781,-6.226042,1.09070221419803744411.00,4.8422728,-4.923077,-0.011372458,7.4029307,-6.349417,1.025631419803744413.00,5.185841,-4.783615,-0.073023155,7.3445644,-6.4287963,0.947822451419803744414.00,5.5766945,-4.6680946,-0.28311434,7.3273654,-6.460479,0.86158611419803744439.00,6.296152,-4.3999443,-0.1316811,7.33918,-6.46058,0.75348791419803744440.00,7.4148426,-3.8013937,-0.40462008,7.4077563,-6.390427,0.676763831419803744441.00,8.798691,-2.9562407,-1.578976,7.569486,-6.208999,0.567103861419803744472.00,10.774507,-1.7717092,-3.809175,7.8328376,-5.892446,0.31007661419803744472.00,14.079103,0.34476504,-7.498041,8.195705,-5.3816514,-0.196544321419803744473.00,18.983027,4.1186256,-11.618463,8.631241,-4.536651,-1.0444511419803744502.00,19.607914,7.1371155,-10.472239,8.602475,-4.61653,-0.924921751419803744503.00,19.607914,6.000468,-6.101623,8.581337,-4.675337,-0.819923641419803744504.00,16.437391,3.2573113,-4.1359835,9.357074,-1.0012878,-2.75916981419803744508.00,12.12304,1.6843209,-3.843891,9.415682,-0.4790832,-2.69922781419803744530.00,11.46224,-0.39145198,-4.3263226,9.426701,-0.23870033,-2.69272281419803744531.00,15.396513,-2.3373394,-4.6255975,9.40823,-0.29382044,-2.75123361419803744537.00,19.38585,-3.5853171,-7.1544733,9.387939,-0.47015786,-2.79570631419803744572.00,19.607914,-3.5739446,-5.4647655,9.339794,-0.70337594,-2.90584441419803744573.00,19.607914,-3.1735144,-2.8939912,9.333924,-0.8618977,-2.8819011419803744574.00,15.197195,-5.509058,4.0880995,9.383081,-0.94753134,-2.6889411419803744576.00,5.917868,-8.400057,10.277709,9.482225,-1.1994398,-2.1952591419803744599.00,1.543063,-9.019556,9.140464,9.543932,-1.7394433,-1.4346041419803744600.00,-2.7389667,-10.151415,3.003526,9.473695,-2.422847,-0.74117041419803744608.00,-5.744887,-10.572196,-2.1523874,9.207913,-3.338079,-0.49188761419803744627.00,-4.431069,-10.085575,1.2348095,8.71834,-4.4328074,-0.714941741419803744628.00,-0.31783026,-8.779537,2.2972364,8.12897,-5.4617386,-0.509526851419803744642.00,3.0388405,-7.0832458,1.8022354,7.640298,-6.14768,-0.0474566031419803744659.00,4.8578353,-6.227917,2.2984335,7.3416452,-6.491583,0.36051391419803744659.00,6.1770406,-6.283582,2.7898436,7.1794066,-6.6504235,0.63115721419803744676.00,8.049905,-6.591836,3.2860417,7.1206937,-6.6949387,0.80244051419803744677.00,10.26933,-6.7803793,3.8085763,7.141436,-6.6466002,0.996494531419803744690.00,12.173917,-6.8486137,4.0132804,7.2607055,-6.484669,1.18389441419803744706.00,13.114839,-7.012018,3.7858315,7.429226,-6.248655,1.38970771419803744708.00,13.19265,-7.0090256,3.4087446,7.59093,-6.0095367,1.56001271419803744723.00,13.086108,-6.419453,2.8413188,7.7244544,-5.801776,1.68599981419803744728.00,12.908339,-5.518635,2.088941,7.851424,-5.6074944,1.75542311419803744741.00,12.791621,-4.5537715,1.3623008,7.996416,-5.399802,1.75210371419803744759.00,12.454638,-3.9193082,0.79607207,8.150348,-5.177274,1.71408161419803744759.00,11.821969,-3.5649664,0.52492875,8.303247,-4.955337,1.63435331419803744774.00,11.099519,-3.17531,0.35673606,8.443383,-4.7475758,1.5297681419803744777.00,10.543466,-2.5366566,0.3238158,8.570336,-4.5527353,1.41150831419803744790.00,9.89763,-1.9973627,0.17118542,8.691826,-4.350984,1.30057991419803744808.00,9.24521,-1.5490485,0.11432313,8.803269,-4.1530137,1.1938691419803744808.00,8.722076,-1.2240356,0.15382746,8.905857,-3.9537427,1.10636851419803744823.00,8.245032,-1.0366893,0.17657238,9.000003,-3.7560568,1.03071831419803744839.00,7.837419,-0.96546185,0.5243302,9.082359,-3.5687087,0.972340351419803744840.00,7.8446016,-0.91697925,0.95708215,9.148896,-3.3991358,0.956016241419803744858.00,8.243237,-0.7858967,1.2988545,9.205242,-3.2361023,0.980582241419803744858.00,8.670003,-0.7469909,1.3557167,9.261703,-3.0553188,1.02775261419803744873.00,8.876503,-0.97384155,1.1671734,9.314234,-2.8723075,1.07948211419803744876.00,9.105747,-1.2378023,0.9295488,9.35919,-2.711545,1.10612011419803744888.00,9.434352,-1.4167689,0.5746084,9.396601,-2.5761535,1.11252831419803744908.00,9.478046,-1.6124948,0.17357962,9.430299,-2.4620612,1.08540941419803744909.00,9.446921,-1.7495629,-0.0664391,9.459205,-2.378544,1.01802621419803744923.00,9.320028,-1.7004818,-0.23104046,9.483283,-2.3194177,0.926300171419803744938.00,9.009381,-1.7142484,-0.29568392,9.505091,-2.268485,0.82318191419803744940.00,8.590994,-1.834557,-0.27114335,9.521893,-2.2325428,0.720916451419803744966.00,8.377312,-1.9123687,-0.15861586,9.531097,-2.220737,0.62999271419803744967.00,8.322245,-2.0482395,0.010773907,9.535676,-2.2207756,0.556284371419803744968.00,8.388085,-2.3056161,0.22804771,9.535015,-2.2362096,0.503254531419803744978.00,8.672996,-2.6036944,0.48482585,9.527481,-2.2740297,0.475689171419803744997.00,9.093178,-2.8742392,0.7505822,9.513644,-2.3309915,0.476927641419803744997.00,9.433155,-3.0190883,1.033098,9.49512,-2.3993323,0.50624811419803745008.00,9.548675,-3.1130607,1.3341689,9.474934,-2.466985,0.55678591419803745031.00,9.633669,-3.1789012,1.5275006,9.452638,-2.5327554,0.634969351419803745032.00,9.8515415,-3.163339,1.5688007,9.429605,-2.592946,0.727734451419803745037.00,9.949105,-3.0597897,1.3736732,9.409788,-2.6380353,0.81672881419803745080.00,9.849746,-2.9987376,1.0953473,9.39637,-2.6667745,0.875770751419803745082.00,9.850943,-2.956839,0.9355343,9.387697,-2.6882133,0.902793051419803745083.00,10.011354,-2.8622682,0.9032126,9.38309,-2.7021658,0.909021851419803745084.00,10.220847,-2.719813,0.8798691,9.383248,-2.7032785,0.904061441419803745089.00,10.559627,-2.5905263,0.9020155,9.389038,-2.688264,0.8886121419803745111.00,10.98759,-2.3678656,0.9576807,9.400005,-2.655409,0.871282341419803745112.00,11.337742,-1.99437,1.1282675,9.4178095,-2.595817,0.85847371419803745117.00,11.841123,-1.5328877,1.3479356,9.443128,-2.500516,0.863222241419803745150.00,12.867039,-1.2880806,1.5029601,9.476023,-2.3633187,0.88887791419803745151.00,13.9677725,-1.1629834,1.3605051,9.513665,-2.1953833,0.91697441419803745152.00,14.884752,-0.82360536,0.3812766,9.554196,-2.011005,0.918479141419803745157.00,18.467674,2.486977,-16.968904,9.6038475,-1.8046868,0.8243861419803745182.00,16.080656,0.65182143,-12.870031,9.609049,-1.7876226,0.80061251419803745182.00,13.264476,0.2669535,7.004237,9.624207,-1.0474355,-1.56459151419803745189.00,13.599664,1.8363527,7.1550717,9.734014,-0.8575062,-0.82708481419803745207.00,14.356232,2.9107506,-1.4616601,9.786056,-0.58975804,-0.235996191419803745224.00,13.120225,1.0205284,-0.35254622,9.788293,-0.27890697,-0.53095221419803745225.00,12.234969,-1.4514848,3.110068,9.794709,-0.14454818,-0.4616891419803745240.00,12.607866,-3.3602622,3.3291376,9.803901,-0.20161183,-0.1152545661419803745241.00,13.278841,-4.982932,1.9752164,9.797667,-0.4111834,0.083819561419803745255.00,13.791799,-6.4882865,-0.12569559,9.778054,-0.73082423,0.161085171419803745258.00,14.413692,-7.792528,-0.4213795,9.740716,-1.129071,0.1186369061419803745273.00,14.777612,-8.82802,0.62608373,9.679946,-1.5703657,0.054649291419803745290.00,14.832678,-9.611523,1.033098,9.596899,-2.0166717,0.054331311419803745291.00,14.392145,-9.892841,0.9355343,9.495603,-2.4491541,0.074716511419803745306.00,13.015479,-9.436148,0.6015432,9.384,-2.8458643,0.1094502661419803745309.00,10.954071,-8.550293,0.61112,9.274178,-3.1833177,0.1627991419803745346.00,9.188946,-7.9008656,1.1336545,9.167536,-3.477703,0.179530931419803745347.00,8.261193,-6.9168487,1.5251064,9.05926,-3.7465634,0.251875161419803745349.00,7.723695,-6.1381345,2.146402,8.966384,-3.9576423,0.333807321419803745350.00,7.4070616,-5.641338,2.4067712,8.887608,-4.118821,0.464922431419803745357.00,7.6003933,-4.8859673,2.070386,8.816731,-4.246531,0.634526551419803745385.00,7.453748,-4.175488,1.8106151,8.770261,-4.316929,0.785525261419803745386.00,6.9545574,-3.714604,1.5897499,8.747423,-4.341681,0.89598161419803745391.00,6.5206084,-3.406949,1.1965023,8.733171,-4.3492613,0.99299181419803745411.00,6.129156,-3.366846,1.1480197,8.72636,-4.349543,1.05000941419803745412.00,5.620987,-3.5033157,1.1953052,8.713162,-4.364751,1.09551641419803745417.00,5.0451818,-3.7433343,1.5167267,8.682958,-4.4115543,1.14665171419803745442.00,4.5154643,-4.023456,1.9009962,8.62626,-4.4989758,1.23176991419803745444.00,4.0438066,-4.1132383,1.8183962,8.542126,-4.6226735,1.35402791419803745461.00,3.7846344,-4.119224,0.42916065,8.438643,-4.775144,1.46890461419803745461.00,3.502717,-4.421492,0.062249243,8.342925,-4.9488683,1.44037591419803745470.00,3.6128504,-4.614824,-0.05207389,8.22475,-5.160492,1.3759431419803745494.00,3.9396589,-4.7046065,-0.09756372,8.1001425,-5.374855,1.29190721419803745495.00,4.3903675,-4.7375264,-0.06823475,7.984049,-5.5674353,1.19542561419803745507.00,4.948815,-4.717176,-0.1364695,7.886407,-5.724333,1.09863211419803745548.00,5.446809,-4.7219644,-0.44532153,7.822557,-5.8300543,0.994227651419803745549.00,5.858013,-4.681263,-0.88645315,7.7832637,-5.904507,0.853237871419803745550.00,6.285378,-4.581305,-0.83138657,7.7705197,-5.9449506,0.668565451419803745551.00,6.9701195,-4.225766,-0.31004912,7.7823277,-5.945282,0.509287061419803745552.00,7.7590094,-3.7475243,-0.12868834,7.842646,-5.8717523,0.431068841419803745558.00,8.921992,-2.996942,-0.46986207,7.957883,-5.718139,0.381303881419803745583.00,10.618883,-1.9835961,-1.8782512,8.149971,-5.446327,0.29303611419803745584.00,12.792818,-0.6428431,-4.11683,8.419015,-5.0287504,0.047369511419803745589.00,15.992669,1.560421,-7.297527,8.738612,-4.4315214,-0.410714181419803745615.00,19.348742,5.222951,-9.730635,9.064847,-3.5731986,-1.10958861419803745615.00,19.607914,7.86615,-8.86932,9.047151,-3.6539853,-0.98379991419803745619.00,18.668787,5.934029,-5.7442884,9.038062,-3.7017102,-0.883834241419803745648.00,14.044387,3.417723,-3.614646,9.487109,-0.49624828,-2.43287351419803745648.00,11.513716,1.9267339,-2.4408886,9.499778,-0.10635844,-2.43172741419803745650.00,9.79827,0.29747957,-1.3042414,9.513048,0.12788141,-2.37823081419803745657.00,9.625888,-0.83138657,0.08319851,9.540972,0.11698592,-2.26418731419803745681.00,11.518504,-3.0490158,2.0374656,9.582828,-0.015994273,-2.0831581419803745681.00,13.725958,-5.8400564,2.6479871,9.64442,-0.29770285,-1.75126791419803745689.00,18.75079,-6.3003416,-0.6895301,9.683422,-0.7595681,-1.35084681419803745712.00,19.607914,-4.5118732,-8.063073,9.666875,-1.1412901,-1.19137361419803745713.00,18.691532,-5.2852,-2.1057005,9.587502,-1.3107562,-1.59126681419803745718.00,10.159795,-7.4202294,5.4605756,9.57086,-1.5162942,-1.50661961419803745765.00,3.8893807,-7.492056,4.506486,9.56607,-1.8970597,-1.03047321419803745768.00,-1.192911,-8.446744,-0.18495208,9.490805,-2.353598,-0.74537781419803745771.00,-3.6463692,-8.986636,-2.1823149,9.281455,-3.0558367,-0.828756631419803745773.00,-1.9273324,-8.06427,2.7688942,8.928356,-3.9275324,-1.01456671419803745774.00,1.3521254,-7.1664443,4.0378213,8.584073,-4.6973753,-0.64710391419803745805.00,3.1639376,-6.757634,2.8101943,8.286509,-5.2434525,-0.101865871419803745805.00,4.4520183,-6.745663,1.9333179,8.017439,-5.6347003,0.37578951419803745807.00,6.851008,-6.771401,1.6879122,7.789813,-5.9247875,0.621381941419803745822.00,9.683948,-6.8731546,1.9961656,7.67672,-6.0619574,0.700733241419803745823.00,11.934497,-6.906075,2.540248,7.6848736,-6.0444646,0.75999451419803745841.00,13.262082,-6.783372,2.9981391,7.7809873,-5.904133,0.876272441419803745841.00,12.937069,-6.4828997,3.0945058,7.9027247,-5.7178807,1.01152411419803745856.00,11.934497,-5.7418942,2.9412768,8.009001,-5.541143,1.14979351419803745860.00,11.21444,-4.6686935,2.6396074,8.100186,-5.378237,1.27747021419803745888.00,10.62846,-3.9282866,2.166154,8.19829,-5.2006807,1.38251711419803745889.00,10.355521,-3.4955344,1.899799,8.294975,-5.0258174,1.45084681419803745894.00,10.226832,-3.2142158,1.7375919,8.393467,-4.845257,1.49785271419803745926.00,10.123283,-2.938284,1.484405,8.488919,-4.6661634,1.52825621419803745927.00,10.02153,-2.5396495,1.1665748,8.5884285,-4.4795823,1.53057411419803745928.00,9.805453,-2.211644,0.9091981,8.690528,-4.285446,1.50998341419803745931.00,9.661202,-1.9063832,0.7685388,8.790514,-4.092953,1.46458111419803745938.00,9.415796,-1.6370354,0.7104794,8.887291,-3.8988833,1.40896341419803745961.00,9.063251,-1.3808558,0.7236475,8.977555,-3.706515,1.35485631419803745962.00,8.922591,-0.8714894,0.9744401,9.058407,-3.5198703,1.3138411419803745970.00,8.968081,-0.52971715,1.2360066,9.140379,-3.3060086,1.3016091419803745994.00,9.090185,-0.26396075,1.4556746,9.216781,-3.0780456,1.32174121419803745994.00,9.157223,-0.12928689,1.4796166,9.286633,-2.8399613,1.36508421419803745998.00,9.298481,-0.09756372,1.5873557,9.349337,-2.6052508,1.40463211419803746034.00,9.424176,-0.16400282,1.5819688,9.404247,-2.3783572,1.44011591419803746035.00,9.520543,-0.2184709,1.447295,9.450928,-2.1679263,1.46643331419803746036.00,9.473856,-0.30885202,1.2162545,9.490508,-1.979373,1.47741891419803746039.00,9.358934,-0.52492875,0.91338795,9.525608,-1.81062,1.46793621419803746056.00,9.3738985,-0.7158663,0.54049104,9.554904,-1.6809999,1.43124211419803746068.00,9.529521,-0.9475053,0.17597382,9.5813265,-1.5866938,1.36050331419803746070.00,9.5809965,-1.2503718,-0.16460137,9.604913,-1.5284003,1.25700351419803746086.00,9.586982,-1.6280571,-0.41479546,9.624103,-1.5086063,1.1274671419803746091.00,9.753978,-1.881244,-0.46926352,9.636765,-1.5275133,0.98481861419803746107.00,9.953894,-2.0727801,-0.27353755,9.643686,-1.5652684,0.848312561419803746120.00,10.056845,-2.2385786,-0.094570965,9.644111,-1.6143358,0.745282351419803746121.00,10.109517,-2.3529017,-0.022744916,9.63988,-1.671934,0.669132771419803746135.00,9.912594,-2.545635,0.006584055,9.63358,-1.7317984,0.604476031419803746137.00,9.674969,-2.7647045,0.006584055,9.623466,-1.8061899,0.54496881419803746152.00,9.591172,-2.8485014,0.048482586,9.608967,-1.8977973,0.486320761419803746167.00,9.490616,-2.8568811,0.18974048,9.592505,-1.9913305,0.434581941419803746169.00,9.39365,-2.9777884,0.39444473,9.5747795,-2.0802717,0.407997461419803746185.00,9.519944,-3.064578,0.5566519,9.554309,-2.1743765,0.39708311419803746189.00,9.753978,-3.0107086,0.60932434,9.533375,-2.2629282,0.405374851419803746215.00,9.750386,-2.918532,0.65780693,9.515984,-2.332558,0.41909681419803746216.00,9.713276,-2.8550856,0.6715736,9.50186,-2.386178,0.437283041419803746220.00,9.7563715,-2.758719,0.7128736,9.490408,-2.427661,0.45714391419803746240.00,9.838373,-2.617461,0.83617496,9.482594,-2.4536712,0.479880061419803746241.00,9.746197,-2.4187422,0.92416185,9.4786625,-2.4628103,0.50983931419803746256.00,9.64145,-2.0841527,1.0109516,9.478381,-2.4566474,0.54366381419803746273.00,9.737218,-1.6154876,1.1216835,9.484513,-2.4240296,0.58179821419803746274.00,10.437522,-1.2826935,1.3640964,9.500559,-2.3489637,0.626222851419803746294.00,11.702259,-1.2120646,1.8830396,9.524546,-2.2322335,0.68599961419803746295.00,13.151949,-1.0336965,2.472612,9.548771,-2.093464,0.78024171419803746298.00,14.13417,-0.86370826,2.8999767,9.573163,-1.9235905,0.908163371419803746317.00,14.444219,-0.59855044,2.6886885,9.593977,-1.7436239,1.04200741419803746318.00,14.131177,-0.4333505,1.3533225,9.616104,-1.5595179,1.12642471419803746333.00,15.522807,0.6242881,-13.456012,9.646723,-1.3912576,1.084231419803746338.00,15.143326,-0.51355624,-16.25184,9.73557,-1.164867,-0.179422211419803746358.00,13.4608,-1.5945383,2.778471,9.737468,-1.1437984,-0.209401611419803746359.00,12.81676,-1.1617863,7.5171947,9.703003,-0.990821,-1.02000141419803746369.00,12.416928,-1.0498575,3.1352072,9.7566185,-0.934004,-0.32619451419803746394.00,12.401965,-2.1290438,-2.1691468,9.760851,-0.90176034,-0.288141251419803746395.00,12.181698,-3.8762126,0.46327803,9.74919,-0.9437042,-0.48280151419803746399.00,12.429498,-5.0942626,1.6938977,9.737965,-1.1206822,-0.29408291419803746440.00,13.130401,-6.151303,0.39504328,9.708083,-1.3809617,-0.128200111419803746441.00,13.855844,-7.16405,-0.4249708,9.658676,-1.6903032,-0.152504531419803746446.00,13.997102,-7.9331875,-0.3298013,9.416867,-2.7315834,-0.177356081419803746447.00,13.318345,-8.395866,0.38187516,9.416867,-2.7315834,-0.177356081419803746450.00,12.467805,-8.301296,0.7104794,9.416867,-2.7315834,-0.177356081419803746478.00,11.5155115,-7.6015906,0.9463082,9.321988,-3.042123,-0.128028561419803746479.00,10.183139,-6.7923503,0.9540894,9.235998,-3.2961218,-0.0482144361419803746480.00,9.058462,-6.293758,0.7457938,9.161109,-3.4990501,0.0336418671419803746517.00,8.594585,-5.4821234,1.0043676,9.08809,-3.6837602,0.083260621419803746518.00,8.27077,-4.5447936,0.8062474,9.034378,-3.8113506,0.154883981419803746519.00,7.7584105,-3.9468415,0.8319851,9.0044365,-3.8786793,0.21530031419803746520.00,7.3807254,-3.6152446,1.0097545,8.986616,-3.9155996,0.281423331419803746547.00,7.2382703,-3.2704794,0.8631097,8.973895,-3.9381447,0.36143081419803746548.00,7.1700354,-3.031658,0.89603,8.97071,-3.9402559,0.413699751419803746549.00,6.927024,-3.0310593,0.88405895,8.974165,-3.9244957,0.48278851419803746570.00,6.727108,-2.9634233,0.63087213,8.973947,-3.9160852,0.550428331419803746571.00,6.2781954,-3.122039,0.39324763,8.975053,-3.9077432,0.59023341419803746587.00,5.6257753,-3.6655228,0.59855044,8.964575,-3.9315746,0.59121071419803746600.00,5.159505,-4.136582,0.7799112,8.920608,-4.027686,0.609023871419803746601.00,4.96737,-4.2544966,0.8631097,8.846894,-4.18272,0.638532461419803746617.00,4.735731,-4.200627,0.82899237,8.763845,-4.3485045,0.67521351419803746618.00,4.617218,-4.161721,0.7978677,8.674707,-4.518006,0.712364141419803746641.00,4.730344,-4.1335893,0.7529764,8.58452,-4.6802235,0.75624831419803746641.00,5.003283,-4.1826706,0.6691794,8.499944,-4.8245273,0.803302651419803746652.00,5.303157,-4.164714,0.43634325,8.424099,-4.9504213,0.835626071419803746665.00,5.60722,-4.0013094,0.32621,8.363887,-5.051495,0.83559151419803746670.00,5.793968,-3.8055837,0.2717419,8.329034,-5.111081,0.821252471419803746682.00,5.8562174,-3.6499605,0.15801731,8.312111,-5.1425867,0.79561771419803746706.00,5.705383,-3.5482068,-0.074220255,8.307693,-5.1545224,0.763891461419803746707.00,5.662287,-3.6942532,-0.14664486,8.305584,-5.1661944,0.705774961419803746710.00,5.8562174,-3.9019501,0.11671733,8.292789,-5.1949606,0.642190641419803746719.00,6.319495,-3.9193082,0.24959552,8.271945,-5.231378,0.61483191419803746744.00,7.019201,-3.715801,-0.04189853,8.26695,-5.2406564,0.60288171419803746745.00,8.063671,-3.306991,-1.091756,8.305573,-5.184548,0.555257141419803746750.00,9.825205,-2.3092074,-3.232771,8.401492,-5.0445857,0.370808421419803746786.00,13.022661,0.020949265,-6.3566055,8.590849,-4.7291656,-0.052084631419803746788.00,18.120516,4.209605,-10.147225,8.893469,-4.058908,-0.77581521419803746791.00,19.607914,10.390836,-7.221511,9.218127,-2.869762,-1.72075261419803746809.00,18.173187,6.326678,-5.617396,9.219374,-2.9146771,-1.63652441419803746810.00,12.075755,3.5368345,-3.9384618,9.525285,-0.42602938,-2.29299471419803746810.00,9.521142,1.5951369,-3.1854854,9.515344,-0.008890286,-2.37245351419803746819.00,10.238804,-0.2657564,-2.3798366,9.500669,0.18199673,-2.4237491419803746837.00,12.270883,-2.6024973,-0.22744916,9.511474,0.100307465,-2.3858341419803746842.00,13.306375,-5.0134583,1.7274165,9.5595045,-0.19817367,-2.17875361419803746865.00,17.001226,-5.60722,2.6007016,9.612961,-0.64146775,-1.83027221419803746865.00,19.607914,-3.6529531,-1.8495208,9.653721,-1.0271835,-1.3859811419803746870.00,17.374123,-4.9242744,0.6368576,9.64767,-1.1602479,-1.32161811419803746899.00,8.5473,-7.7943234,5.349245,9.643068,-1.4035116,-1.10080561419803746900.00,3.2549171,-8.63828,1.4586674,9.601418,-1.9008734,-0.60814991419803746901.00,-0.19692309,-9.046491,-3.104681,9.473772,-2.4830663,-0.502417451419803746926.00,-0.83497787,-8.690952,0.29149407,9.226002,-3.2148833,-0.84606111419803746927.00,1.501763,-8.094796,4.36044,8.916743,-3.995797,-0.834078131419803746930.00,4.458602,-6.9366007,3.1723173,8.639948,-4.6301227,-0.289260151419803746965.00,5.8143187,-6.1530986,2.0847511,8.434193,-5.0014887,0.141050831419803746967.00,6.4577603,-5.631761,1.6741456,8.28009,-5.2289586,0.51818531419803746968.00,7.387908,-5.145139,1.5520413,8.171446,-5.3725576,0.7304061419803746970.00,8.925584,-4.7614684,1.6813282,8.134763,-5.4174848,0.80428361419803747003.00,10.538078,-4.5926776,1.9554642,8.17478,-5.352971,0.83010271419803747003.00,11.600506,-4.5124717,2.3361423,8.265014,-5.2036877,0.88407531419803747004.00,12.097302,-4.3634324,2.5420437,8.370746,-5.0109973,0.99545331419803747020.00,12.146384,-4.150947,2.5276785,8.476292,-4.805499,1.1090871419803747021.00,11.944673,-3.9378633,2.2984335,8.57299,-4.6023545,1.2217151419803747038.00,11.678916,-3.6721067,1.7555484,8.657317,-4.416148,1.31105741419803747051.00,11.438897,-3.5338416,1.3102269,8.734324,-4.249303,1.35106831419803747051.00,11.246762,-3.5093012,1.0378864,8.802531,-4.1060686,1.35130541419803747070.00,11.059416,-3.4105403,0.82480246,8.861305,-3.9868925,1.32376991419803747071.00,10.708666,-3.0753522,0.7218518,8.917134,-3.8777242,1.27215561419803747085.00,10.147824,-2.6982653,0.52612585,8.973539,-3.764297,1.21492231419803747100.00,9.437943,-2.4905684,0.3238158,9.030525,-3.6491482,1.14179671419803747101.00,9.083601,-2.224812,0.19991584,9.080347,-3.5484693,1.06115841419803747117.00,8.992621,-2.094328,0.15741876,9.129137,-3.4447181,0.98142021419803747132.00,9.033921,-1.9045875,0.23642741,9.174253,-3.3438537,0.906713071419803747132.00,9.209895,-1.5711949,0.54288524,9.218703,-3.234762,0.849835931419803747149.00,9.2907,-1.2695254,0.96067345,9.2659,-3.1035821,0.825399161419803747150.00,9.3026705,-0.9864111,1.2425907,9.3123,-2.9557688,0.84551621419803747167.00,9.276933,-0.6631939,1.5023615,9.358007,-2.7924633,0.89456781419803747170.00,9.070433,-0.39803603,1.8656816,9.403524,-2.6090941,0.96786611419803747182.00,8.648455,-0.3537433,1.9375077,9.4438095,-2.4150522,1.07347761419803747207.00,8.072051,-0.45130703,1.8112136,9.474089,-2.240008,1.18085051419803747207.00,7.8829093,-0.5398925,1.7010803,9.495501,-2.0935194,1.2739721419803747211.00,8.003218,-0.777517,1.5747862,9.511127,-1.9691663,1.35322821419803747220.00,8.036138,-1.1785458,1.276708,9.52087,-1.8787495,1.4119951419803747242.00,8.220491,-1.441908,0.8750807,9.525043,-1.8393744,1.43551419803747243.00,8.452729,-1.5298948,0.55844754,9.530649,-1.8269913,1.4139411419803747251.00,8.597578,-1.6238673,0.33399114,9.539947,-1.8224186,1.3559491419803747269.00,8.728063,-1.763928,0.24420857,9.550616,-1.8269463,1.27216711419803747283.00,8.945934,-1.9416976,0.30885202,9.559135,-1.8425647,1.18248931419803747284.00,9.130887,-2.0769699,0.45968673,9.563523,-1.8696856,1.10168471419803747308.00,9.16261,-2.1865046,0.6607997,9.563353,-1.9051816,1.0406541419803747308.00,9.1668,-2.3421278,0.7870938,9.558294,-1.9485035,1.00635081419803747311.00,9.419388,-2.4833858,0.92176765,9.548955,-2.0019534,0.98997861419803747321.00,9.838373,-2.5689783,0.9900024,9.53721,-2.0578663,0.98852971419803747345.00,10.187927,-2.6312277,1.0223241,9.526207,-2.1069372,0.991253731419803747346.00,10.641628,-2.6168625,1.1019313,9.516425,-2.1489396,0.99503761419803747351.00,11.109096,-2.558803,1.0899603,9.510045,-2.1729689,1.00381741419803747370.00,11.448474,-2.428319,1.1061212,9.508575,-2.1779547,1.0069151419803747386.00,11.660959,-2.2936451,1.0989386,9.511838,-2.163413,1.00745321419803747388.00,11.84232,-2.1619642,1.1617863,9.51899,-2.1341279,1.00235191419803747402.00,11.951257,-1.99437,1.1264719,9.528613,-2.0930889,0.99743841419803747402.00,11.944074,-1.7585411,0.90859956,9.540742,-2.0398104,0.99187111419803747418.00,11.827356,-1.4873978,0.6655881,9.557806,-1.9737417,0.96075851419803747419.00,11.742961,-1.1953052,0.44951138,9.578572,-1.8943788,0.91251091419803747434.00,11.877036,-0.8265981,0.2621651,9.602416,-1.7986809,0.85366951419803747455.00,12.499529,-0.41060558,0.038307227,9.629926,-1.6774095,0.78815591419803747456.00,13.365032,0.2621651,-0.6931214,9.660964,-1.5266882,0.71090681419803747459.00,16.405668,3.5889084,-14.546571,9.700304,-1.3206012,0.574882271419803747495.00,15.814899,3.2273839,-14.975133,9.697573,-1.3186457,0.623407071419803747496.00,12.113463,1.2306197,2.9113493,9.696835,-1.2991014,0.67388391419803747497.00,14.00608,2.712032,2.0787656,9.711946,-0.20796704,-1.34359751419803747499.00,15.671845,3.301604,-5.501277,9.745788,0.103228025,-1.08598821419803747522.00,14.4370365,1.7381904,-0.3752911,9.679767,0.37999418,-1.52581931419803747523.00,13.480553,-0.026934769,3.2902317,9.698293,0.4836425,-1.37099791419803747530.00,13.2985935,-2.094328,4.119224,9.747828,0.46889353,-0.96455641419803747560.00,13.244125,-4.0066967,3.8241386,9.783816,0.3053037,-0.595067561419803747561.00,13.491326,-5.246893,3.0992942,9.801553,-8.01E-04,-0.316161451419803747561.00,14.490906,-6.11539,1.2797008,9.798863,-0.38291475,-0.0776966961419803747591.00,16.158466,-7.241862,-2.333748,9.774111,-0.7981974,-0.004242461419803747592.00,16.615759,-8.456919,-2.698864,9.72814,-1.2188611,-0.219273751419803747592.00,15.514427,-9.275137,-0.010175358,9.6544,-1.673238,-0.40401511419803747600.00,13.765463,-9.343372,1.3814543,9.568088,-2.1150074,-0.385750831419803747628.00,11.665748,-8.76637,1.726818,9.473862,-2.5169833,-0.284881061419803747629.00,9.745,-7.7853456,1.5269021,9.374764,-2.8736162,-0.162870151419803747631.00,8.321647,-6.9677253,1.2707225,9.278494,-3.1747649,-0.0284520421419803747656.00,7.309498,-6.025607,1.4149733,9.187038,-3.4292808,0.093606651419803747657.00,6.8444242,-4.956596,1.5688007,9.10612,-3.6342862,0.202292221419803747660.00,6.919243,-3.7750576,2.1140802,9.048237,-3.7696724,0.298955621419803747695.00,7.0766616,-2.6749218,2.7611132,9.019338,-3.824357,0.442975551419803747695.00,6.853402,-2.106299,1.922544,9.017426,-3.799625,0.647512441419803747696.00,6.521207,-2.0081367,0.22984336,9.031634,-3.737457,0.79459631419803747699.00,6.132149,-2.321777,-0.60094464,9.056239,-3.676249,0.80008921419803747717.00,5.7706246,-2.801216,-0.55964464,9.069969,-3.6585667,0.721752761419803747736.00,5.4324436,-3.4985273,0.39923313,9.062174,-3.6925657,0.64216511419803747736.00,4.8404775,-4.1305966,1.5586253,9.018106,-3.7979374,0.647940161419803747773.00,4.338892,-4.4639893,2.0272903,8.932403,-3.976492,0.75504331419803747774.00,4.1162314,-4.575918,1.6262615,8.814902,-4.199538,0.912008171419803747775.00,4.051588,-4.6046486,0.9498995,8.683833,-4.436691,1.0378961419803747775.00,4.1138372,-4.6513352,0.53809685,8.55199,-4.6732764,1.09286641419803747783.00,4.4119153,-4.623802,0.35673606,8.426343,-4.8957233,1.09500661419803747805.00,4.7764325,-4.5579615,0.25498247,8.314427,-5.091825,1.05546771419803747806.00,5.2139726,-4.4927197,0.06284779,8.223178,-5.2485213,1.00138061419803747811.00,5.710171,-4.5022964,-0.40641573,8.157601,-5.3638444,0.92364751419803747829.00,6.059126,-4.446631,-0.8182184,8.11705,-5.445424,0.79451431419803747831.00,6.338649,-4.510676,-0.9415198,8.096918,-5.497419,0.62346571419803747856.00,6.7785835,-4.4981065,-1.0462662,8.088118,-5.527431,0.447530661419803747857.00,7.4244194,-4.010886,-0.96426475,8.092706,-5.531943,0.275896761419803747859.00,8.069058,-3.2309752,-0.8750807,8.147214,-5.456664,0.134682541419803747895.00,9.001001,-2.0099323,-1.3311762,8.260813,-5.284781,0.0220099521419803747896.00,10.02153,-0.6440403,-2.6240451,8.455712,-4.965229,-0.13346551419803747897.00,11.559804,1.2587515,-4.59567,8.708312,-4.4894786,-0.424558431419803747902.00,13.888764,3.558981,-6.408081,8.998345,-3.794589,-0.895142261419803747923.00,17.09879,5.9047,-7.2664022,9.265208,-2.8571784,-1.47065681419803747924.00,19.388245,7.2340803,-7.325659,9.44934,-1.7573379,-1.94733511419803747931.00,18.980034,6.30513,-6.1064115,9.516552,-0.7322221,-2.2515571419803747956.00,15.928025,3.7726634,-4.57113,9.517804,-0.017248657,-2.36253051419803747957.00,12.989741,1.8561049,-4.06715,9.506928,0.33598232,-2.38240051419803747960.00,11.001357,0.48961425,-4.8907557,9.489542,0.4463906,-2.43305641419803747985.00,11.32218,-0.5626374,-4.267066,9.443924,0.42988107,-2.6072731419803747986.00,13.03164,-2.1877017,-0.65660983,9.420583,0.30999535,-2.70682721419803748002.00,13.429077,-2.9466639,0.95827925,9.480563,0.08111206,-2.50654361419803748003.00,15.049952,-3.5063083,1.4000094,9.559248,-0.17086247,-2.18220281419803748011.00,18.73822,-2.7126305,-1.127669,9.628531,-0.43933424,-1.80797471419803748037.00,17.843985,-3.0963013,-1.2030864,9.652994,-0.608437,-1.61860051419803748037.00,10.441113,-6.688801,3.0615854,9.659155,-0.7637647,-1.5125361419803748040.00,5.5168395,-8.228871,-1.1504139,9.661638,-1.1730989,-1.20290861419803748051.00,3.2130187,-7.85777,-0.8050503,9.56168,-1.7151144,-1.34277051419803748078.00,2.9658175,-6.9767036,4.8320975,9.422258,-2.305111,-1.4414961419803748080.00,4.482544,-6.3338604,5.751471,9.333775,-2.8599412,-0.93370681419803748080.00,5.9082913,-5.774216,3.1836896,9.22825,-3.312055,-0.200237771419803748108.00,6.273407,-5.4114943,1.7304093,9.100177,-3.6430268,0.292439671419803748109.00,6.585252,-4.9284644,0.79128367,8.985023,-3.896443,0.507437471419803748110.00,7.539341,-4.433463,0.57640404,8.896422,-4.088056,0.55841761419803748134.00,8.831013,-4.413711,0.96426475,8.850888,-4.1907296,0.51957051419803748135.00,11.350311,-4.626795,1.9614497,8.833265,-4.227834,0.518850861419803748149.00,11.83813,-4.611831,2.1170728,8.851858,-4.174313,0.6246071419803748151.00,11.773487,-4.472967,1.8788497,8.875825,-4.1046143,0.73641241419803748172.00,11.341932,-4.257489,1.3904326,8.90118,-4.0333276,0.81952671419803748172.00,10.916363,-4.021062,1.0031705,8.924136,-3.972127,0.867409471419803748179.00,10.585963,-3.6601357,1.0061632,8.949766,-3.9128163,0.872885941419803748198.00,10.198102,-3.1591492,1.2910733,8.976975,-3.8442676,0.89773841419803748200.00,9.787497,-2.618658,1.5221137,9.010528,-3.7541845,0.94174651419803748215.00,9.340978,-2.067393,1.6915035,9.052389,-3.6389954,0.99114081419803748230.00,8.907627,-1.5640123,1.6214731,9.100578,-3.4999032,1.04907181419803748231.00,8.471284,-1.2054806,1.5298948,9.15196,-3.3461,1.10256661419803748246.00,8.409035,-0.91697925,1.6980876,9.203562,-3.181181,1.15970971419803748252.00,8.627506,-0.6404489,1.6723499,9.25328,-3.004306,1.23343591419803748265.00,8.851364,-0.46986207,1.5113398,9.30475,-2.8102992,1.30161761419803748282.00,9.143456,-0.320823,1.4024036,9.356345,-2.6106093,1.34682461419803748282.00,9.448118,-0.2208651,1.1845313,9.406648,-2.4046552,1.37949991419803748296.00,9.548675,-0.20171149,0.9624691,9.455105,-2.199512,1.39051581419803748300.00,9.513959,-0.20590134,0.6913257,9.5002985,-2.0080216,1.37207221419803748321.00,9.535507,-0.108936176,0.39085343,9.540456,-1.8344641,1.33598271419803748321.00,9.451111,0.05207389,0.219668,9.580853,-1.6661662,1.26552321419803748331.00,9.193734,0.038307227,0.20231004,9.6195965,-1.4996669,1.17677031419803748355.00,8.969278,-0.11432313,0.16879122,9.6513605,-1.354336,1.08967961419803748356.00,8.974665,-0.21667525,0.10235212,9.676319,-1.238393,1.00280171419803748360.00,9.023148,-0.29149407,-0.034715924,9.696428,-1.1451348,0.91560111419803748393.00,8.796297,-0.54288524,-0.14784196,9.713363,-1.0671812,0.8258971419803748394.00,8.608353,-0.92895025,-0.22325931,9.725212,-1.0246798,0.735292431419803748394.00,8.637681,-1.364695,-0.29747957,9.73132,-1.0238509,0.65079881419803748400.00,8.9124155,-1.762731,-0.25079262,9.731761,-1.0678774,0.56819991419803748414.00,9.282919,-2.0763714,-0.17537527,9.726223,-1.1505296,0.497246921419803748430.00,9.52174,-2.3744495,-0.044292733,9.716032,-1.255191,0.440030871419803748431.00,9.7402115,-2.6856956,0.108337626,9.701244,-1.3778791,0.39708591419803748449.00,10.09994,-2.9029696,0.2705448,9.681633,-1.5152351,0.374754821419803748469.00,10.393828,-3.1136594,0.3854665,9.65961,-1.6514118,0.367662971419803748469.00,10.648212,-3.3255463,0.41120413,9.635537,-1.7861958,0.369195731419803748471.00,10.887033,-3.4620156,0.44592008,9.609775,-1.9200037,0.369064061419803748480.00,10.960655,-3.513491,0.5177461,9.583942,-2.0449002,0.369951071419803748502.00,10.68652,-3.5332432,0.57400984,9.559263,-2.1562386,0.37617171419803748504.00,10.181941,-3.41892,0.61770403,9.534458,-2.2607782,0.391671031419803748512.00,9.709685,-3.196858,0.66738373,9.51119,-2.3541565,0.406933781419803748541.00,9.452907,-2.8562827,0.6254852,9.491114,-2.4302511,0.427811151419803748542.00,9.498397,-2.5049336,0.52492875,9.4782915,-2.4765956,0.445917431419803748543.00,9.700109,-2.123657,0.4770447,9.475049,-2.4873266,0.455028531419803748582.00,10.119094,-1.6938977,0.4950012,9.48337,-2.4548542,0.458026531419803748583.00,11.0695915,-1.352724,0.51235914,9.502645,-2.3780487,0.463736441419803748584.00,12.20983,-1.2000936,0.6440403,9.532759,-2.254295,0.46376071419803748585.00,13.433268,-0.95827925,0.6769605,9.566957,-2.102859,0.470857231419803748608.00,14.472351,-0.55485624,0.44592008,9.604846,-1.9219338,0.472743331419803748609.00,14.956578,0.11971009,-1.4257472,9.645203,-1.7149817,0.44644571419803748612.00,18.754381,3.9492357,-18.994997,9.691191,-1.4776161,0.2605031419803748642.00,15.076288,0.86610246,-10.083779,9.691495,-1.4765041,0.255510151419803748643.00,12.619837,0.05327099,6.8222775,9.586816,-0.72652125,-1.93275961419803748643.00,13.243526,1.4766239,8.710705,9.715085,-0.5746581,-1.20718361419803748668.00,13.348871,1.9542671,4.8458643,9.788251,-0.3606965,-0.480038321419803748669.00,13.216592,0.635062,-0.10534488,9.802801,-0.17451544,-0.21209071419803748671.00,12.756906,-1.666963,0.5482722,9.804584,-0.07571312,-0.186589331419803748680.00,12.721591,-3.2740707,2.4187422,9.804967,-0.16800445,-0.0690612641419803748698.00,13.010092,-4.39336,1.5185224,9.799008,-0.363245,0.133790931419803748700.00,13.444639,-5.181651,-0.1436521,9.783069,-0.6439163,0.21761781419803748715.00,14.033613,-5.756858,-0.54288524,9.757699,-0.97076404,0.123787421419803748735.00,14.151527,-6.256049,0.29388827,9.719868,-1.3012758,0.035562021419803748735.00,13.767259,-6.7570357,1.2144588,9.671285,-1.6233678,0.036384441419803748741.00,13.014282,-6.8881183,1.7226281,9.612072,-1.941519,0.094642571419803748774.00,11.91654,-6.4583592,1.5119383,9.5471115,-2.2328954,0.19291241419803748775.00,10.624868,-6.126762,1.3928268,9.483188,-2.4831958,0.270707131419803748776.00,9.792884,-5.659294,1.6579847,9.419442,-2.7046845,0.359434221419803748780.00,9.105747,-4.9901147,1.6885108,9.359529,-2.8887699,0.47399611419803748816.00,8.718486,-3.8127663,1.5197195,9.307739,-3.0340326,0.57533691419803748817.00,8.501212,-2.5115175,0.86251116,9.281331,-3.1005223,0.64348221419803748818.00,7.9074497,-2.3169887,0.46806642,9.289826,-3.0725396,0.6549971419803748841.00,7.3609734,-2.7329812,0.43634325,9.299961,-3.0442448,0.64317441419803748842.00,6.947375,-3.1346085,0.8972271,9.295764,-3.0565722,0.645391641419803748843.00,6.291962,-3.3464954,1.7351977,9.2733965,-3.1100388,0.708637651419803748879.00,5.424064,-3.6553473,1.9428947,9.231046,-3.201238,0.84277551419803748881.00,4.8548427,-4.0240545,1.797447,9.166507,-3.343052,0.98467261419803748881.00,4.377199,-4.455011,1.7501614,9.08098,-3.5322847,1.10867431419803748882.00,4.1503487,-4.8039656,1.7160441,8.969174,-3.7704399,1.22803581419803748903.00,4.2981906,-4.770447,1.690905,8.83298,-4.0441008,1.33943561419803748904.00,4.6680946,-4.4777555,1.2120646,8.696157,-4.2977114,1.44115481419803748912.00,5.204396,-3.86903,0.7882909,8.587826,-4.5003324,1.47195081419803748941.00,5.623381,-3.38181,0.7589619,8.530474,-4.6142735,1.45255241419803748942.00,5.903503,-3.2932243,0.6242881,8.5113125,-4.654448,1.43669121419803748943.00,6.201581,-3.2752678,0.38187516,8.512451,-4.663852,1.39894391419803748972.00,6.3165026,-3.4943373,0.14065935,8.5268955,-4.6593347,1.32402861419803748972.00,6.318897,-3.7193923,-0.2100912,8.533071,-4.674834,1.2259871419803748973.00,6.196194,-3.8510735,-0.53689975,8.528707,-4.7151155,1.09510421419803748981.00,6.179435,-3.9444473,-0.6835446,8.51517,-4.7739697,0.933529561419803748997.00,6.534375,-4.012682,-0.91578215,8.495303,-4.8388124,0.765580831419803749018.00,7.150882,-3.58412,-1.0067618,8.482585,-4.8863025,0.58329261419803749019.00,7.9547353,-2.6898856,-1.30484,8.514524,-4.8486247,0.405100851419803749021.00,9.153033,-1.5071499,-2.3469162,8.6092005,-4.6911783,0.211893141419803749032.00,10.817602,-0.11432313,-3.8576574,8.779368,-4.3686733,-0.088326661419803749059.00,12.932281,1.590947,-5.20679,9.001752,-3.8544033,-0.531461061419803749060.00,15.314511,3.6828809,-6.8282633,9.231383,-3.1382775,-1.05032771419803749061.00,17.238253,5.820903,-7.9786773,9.408646,-2.2426677,-1.61809331419803749094.00,17.875708,6.862979,-6.8599863,9.488069,-1.2806921,-2.12291241419803749095.00,16.700155,5.207389,-5.708974,9.504908,-0.41480452,-2.37803911419803749095.00,16.148293,2.0566192,-6.894104,9.486255,0.13044162,-2.48281051419803749114.00,18.258781,-1.1839328,-7.7865424,9.430735,0.30817747,-2.67145511419803749114.00,19.59654,-4.1479545,-10.949882,9.381282,0.18126404,-2.8511521419803749133.00,19.607914,-3.2998085,-12.86644,9.395693,0.22714111,-2.79996161419803749134.00,19.607914,1.0761937,-6.1662664,9.403358,0.27480918,-2.76979181419803749140.00,15.969924,0.19153613,6.9318123,9.153739,-0.19479075,-3.51304961419803749163.00,6.131551,-5.6269727,14.624383,9.399629,-0.14560352,-2.79216271419803749164.00,1.6795325,-7.2101383,13.318944,9.631707,-0.5411936,-1.76286921419803749180.00,-1.062427,-7.4788876,6.7971387,9.712327,-1.1494892,-0.720961751419803749181.00,-3.8576574,-8.557475,0.24600422,9.628942,-1.8542675,-0.124730541419803749201.00,-2.2619221,-7.3843164,-0.29508537,9.410024,-2.7590127,-0.09837271419803749201.00,0.9211691,-6.825869,0.8391677,9.133439,-3.5693588,-0.101808961419803749212.00,3.2722752,-6.6708446,0.80564886,8.850946,-4.2224593,0.0441648661419803749233.00,5.543774,-6.669049,1.4879963,8.594852,-4.7113214,0.31998091419803749234.00,7.8236527,-6.9850836,2.1386206,8.386362,-5.0497184,0.58281421419803749241.00,10.076596,-7.2646065,2.682703,8.243121,-5.26771,0.68744671419803749277.00,12.0410385,-7.071873,3.1477766,8.177117,-5.35642,0.78353511419803749278.00,13.133992,-6.4781113,3.3273418,8.186476,-5.3140645,0.955371741419803749279.00,12.870031,-5.7137623,3.1130607,8.248984,-5.1809864,1.1322711419803749283.00,12.105083,-4.657321,2.7257986,8.3201065,-5.02692,1.29471481419803749304.00,11.594521,-3.7481227,2.272696,8.403701,-4.847546,1.43160771419803749304.00,11.276092,-3.1304188,1.809418,8.500267,-4.6450996,1.52934251419803749312.00,11.236588,-2.7371712,1.4718355,8.605315,-4.4296584,1.58020771419803749333.00,11.401787,-2.4331074,1.086369,8.714547,-4.207087,1.5897991419803749333.00,11.568783,-2.1188686,0.81283146,8.824681,-3.987877,1.54668941419803749342.00,11.556213,-1.8357542,0.6344634,8.936237,-3.7586493,1.47872211419803749375.00,11.548432,-1.3485341,0.52253455,9.040374,-3.5361853,1.39190651419803749376.00,11.4041815,-0.6655881,0.38187516,9.142071,-3.3036177,1.29578691419803749377.00,10.992378,-0.142455,0.25737667,9.244638,-3.0461793,1.19493021419803749381.00,10.364499,0.1340753,0.2861071,9.341287,-2.775517,1.09876081419803749403.00,9.701904,0.30885202,0.2789245,9.424663,-2.5119104,1.01804331419803749403.00,9.236232,0.3645172,0.14544775,9.492848,-2.268079,0.95501131419803749412.00,9.035717,0.44771573,-0.05925649,9.551189,-2.043064,0.87809641419803749432.00,8.874108,0.60812724,-0.17477672,9.6014805,-1.8327193,0.789383651419803749433.00,8.641871,0.7954735,-0.25498247,9.645703,-1.6243714,0.701580461419803749441.00,8.471883,0.80804306,-0.25378537,9.6846,-1.4124001,0.619739651419803749473.00,8.607754,0.5650316,-0.2112883,9.716132,-1.2122002,0.545632361419803749474.00,9.302073,-0.06404489,0.2645593,9.73844,-1.0511595,0.477768331419803749474.00,9.355942,-0.4321534,0.5081693,9.749087,-0.9567773,0.458527921419803749481.00,9.196129,-0.93613285,0.5943606,9.753694,-0.9083052,0.459193231419803749500.00,9.011177,-1.4191631,0.6123171,9.75266,-0.913748,0.4702081419803749501.00,8.817246,-1.8489223,0.56084174,9.746575,-0.9670573,0.489329731419803749512.00,8.644265,-2.1918917,0.4333505,9.73566,-1.0631247,0.50704221419803749530.00,8.476072,-2.4558525,0.35434186,9.720354,-1.1912305,0.51581191419803749545.00,8.337808,-2.6102784,0.2825158,9.70157,-1.3368542,0.51261231419803749546.00,8.429984,-2.742558,0.23283611,9.679452,-1.4897867,0.509072541419803749561.00,8.6496525,-2.8592753,0.21308395,9.655254,-1.6434704,0.4954321419803749562.00,8.962095,-2.8335378,0.27832595,9.629669,-1.793236,0.473472951419803749576.00,9.103952,-2.7096379,0.4381389,9.606123,-1.9197432,0.455369441419803749595.00,9.11712,-2.5845408,0.8690952,9.586187,-2.016957,0.455302951419803749595.00,9.21229,-2.4462755,1.5813702,9.568447,-2.0889003,0.5017151419803749609.00,9.588778,-2.247557,2.1080947,9.550852,-2.137584,0.618362961419803749612.00,10.200497,-1.9812019,2.308609,9.5358925,-2.1523316,0.777583061419803749628.00,10.704475,-1.733402,2.0488381,9.527183,-2.1258721,0.94012851419803749644.00,10.982801,-1.5167267,1.6053122,9.527713,-2.0668013,1.05896091419803749644.00,11.039065,-1.2551602,1.1893197,9.537493,-1.9871985,1.12146011419803749663.00,10.997766,-1.0043676,0.99179804,9.555647,-1.8919498,1.13161111419803749663.00,11.057621,-0.6985083,0.9056068,9.577995,-1.7842191,1.11757151419803749678.00,11.255142,-0.34237084,0.9923966,9.603844,-1.6599993,1.08674061419803749681.00,11.752538,-0.04129998,1.1300632,9.631585,-1.5143031,1.05347961419803749695.00,12.609063,0.090979666,1.2719196,9.658929,-1.3495263,1.02677581419803749710.00,13.532626,0.25797522,1.2330139,9.683166,-1.17796,1.00951181419803749714.00,14.042591,0.27114335,0.9151836,9.705427,-0.9988997,0.98857091419803749729.00,14.281413,0.24420857,0.23104046,9.7244005,-0.8446669,0.944969361419803749744.00,15.4803095,1.0702082,-8.397662,9.7441225,-0.70642835,0.85054571419803749744.00,18.954895,2.3732524,-19.5313,9.79256,-0.5228762,0.052642481419803749760.00,14.600441,-0.57640404,-2.4762032,9.793424,-0.5043635,0.069836341419803749761.00,13.243526,-0.14724341,8.367735,9.692193,-0.22980858,-1.47612581419803749779.00,13.24233,0.5674258,6.7588315,9.781031,-0.1262918,-0.69703451419803749793.00,13.02326,0.037708677,-0.23343466,9.803099,-0.052828796,-0.258549961419803749794.00,12.716204,-2.082357,-1.8058267,9.800313,-0.017589726,-0.35199881419803749811.00,13.443442,-4.0827127,-0.18914193,9.792843,-0.14822452,-0.498629031419803749812.00,13.932458,-5.837662,0.017956512,9.790878,-0.40261665,-0.383370521419803749827.00,13.471575,-6.932411,0.4333505,9.771775,-0.7626339,-0.318163451419803749843.00,13.722965,-7.015011,1.5993267,9.7297325,-1.1871569,-0.305519821419803749843.00,14.036008,-6.867768,2.1577742,9.676935,-1.5789185,-0.185248731419803749861.00,13.810952,-6.9569516,1.5807717,9.6207485,-1.900231,-0.02660131419803749861.00,13.198037,-7.2304893,0.4225766,9.55546,-2.2040076,0.077215051419803749875.00,11.974001,-7.097611,-0.33039984,9.484816,-2.4904952,0.078147661419803749891.00,10.390836,-6.613982,-0.31663316,9.413977,-2.7468517,0.0472768621419803749894.00,9.261371,-6.1566896,0.43514615,9.344615,-2.9744685,0.032979751419803749909.00,8.541314,-5.4138885,1.4945804,9.275633,-3.1825335,0.067178371419803749912.00,7.93618,-4.5537715,2.4355016,9.216288,-3.3467622,0.172097281419803749927.00,7.3567834,-3.6421793,2.2391772,9.168918,-3.4631326,0.328761431419803749944.00,6.830059,-3.0107086,1.3682863,9.14004,-3.5235724,0.463149881419803749944.00,6.2315083,-3.003526,0.93014735,9.126964,-3.5454345,0.546661261419803749960.00,5.781997,-3.116652,0.74878657,9.107712,-3.5797036,0.63694461419803749961.00,5.6461263,-3.0891187,0.7266402,9.079753,-3.6346624,0.71954321419803749974.00,5.4420204,-3.0148985,1.0187328,9.050666,-3.696262,0.770392841419803749993.00,5.1361613,-3.2016463,1.2755109,9.02027,-3.7580895,0.825759351419803749993.00,4.908712,-3.5093012,1.2814964,8.974202,-3.8478267,0.91010881419803750007.00,4.643554,-3.6685154,1.1797429,8.91147,-3.970667,0.994939571419803750014.00,4.4448357,-3.8109705,1.2641385,8.837455,-4.1153984,1.06455211419803750026.00,4.533421,-3.8612487,1.2282255,8.751711,-4.275793,1.1382221419803750045.00,4.9003325,-3.7403417,0.97862995,8.664961,-4.430822,1.20692161419803750045.00,5.168483,-3.7541082,0.74519527,8.598958,-4.54782,1.24323951419803750067.00,5.4761376,-3.8857894,0.64703304,8.542999,-4.6539445,1.23626391419803750086.00,5.9124813,-3.787627,0.48841715,8.492652,-4.749907,1.21805321419803750086.00,6.187814,-3.7487214,0.2777274,8.466501,-4.8057733,1.18038311419803750087.00,6.3548098,-3.8510735,0.14305355,8.455151,-4.840582,1.11785351419803750093.00,6.63972,-3.8307228,0.2908955,8.445744,-4.8741193,1.04056781419803750109.00,7.0569096,-3.567959,0.47225627,8.44473,-4.88693,0.98734221419803750114.00,7.5405383,-3.2381577,0.2693477,8.471921,-4.846033,0.955462041419803750131.00,8.337209,-2.7377696,-0.4441244,8.526345,-4.7593403,0.90583471419803750133.00,9.438541,-2.0272903,-1.8525136,8.629543,-4.5943584,0.77023561419803750142.00,10.919954,-0.866701,-3.0340521,8.787535,-4.326832,0.477639231419803750179.00,12.951434,1.276708,-4.7949877,8.995094,-3.905388,0.081380941419803750180.00,16.465523,5.0200424,-8.1959505,9.245928,-3.2360117,-0.459839881419803750181.00,19.546862,9.622296,-10.770915,9.478806,-2.1830866,-1.24770141419803750207.00,19.607914,11.719019,-8.655039,9.478072,-2.242377,-1.1438031419803750208.00,17.469294,9.385869,-4.914099,9.484995,-2.2519267,-1.0649361419803750208.00,11.880628,5.563526,-2.7712884,9.428255,1.1664664,-2.43265411419803750213.00,9.185355,2.321777,-1.839944,9.3822775,1.5674443,-2.38462141419803750231.00,8.26239,0.45070848,-1.6304513,9.386873,1.6165558,-2.33318731419803750233.00,8.119935,-0.3357868,0.60693014,9.412526,1.4713199,-2.3259391419803750242.00,9.789292,-2.0991163,3.019687,9.4739,1.3164427,-2.16392781419803750265.00,11.147403,-5.8149176,3.1800983,9.59859,0.9985809,-1.74365221419803750266.00,13.621212,-8.254609,1.1139023,9.712388,0.3720774,-1.30440771419803750273.00,19.24639,-7.8757267,-8.492832,9.744993,-0.41168082,-1.01785171419803750299.00,19.607914,-7.479486,-9.992201,9.746034,-0.46402124,-0.984844741419803750301.00,16.175226,-8.644265,2.480393,9.743075,-0.5507573,-0.96931661419803750302.00,6.8647747,-8.010401,2.541445,9.470917,-1.9045848,-1.68662191419803750338.00,2.504335,-7.2149267,2.4420857,9.410696,-2.3220928,-1.48899411419803750339.00,1.6262615,-6.9090676,4.5082817,9.309617,-2.7903934,-1.30962311419803750340.00,2.3475149,-6.209362,4.594473,9.1926155,-3.3375187,-0.72607351419803750342.00,3.235165,-5.4647655,2.8856115,9.033173,-3.8152726,-0.12613881419803750374.00,3.6864722,-5.183447,1.4347254,8.867752,-4.1812177,0.225298421419803750375.00,4.501099,-5.3145294,0.5470751,8.710149,-4.488515,0.3961671419803750375.00,6.4840965,-5.4737434,0.3776853,8.568431,-4.751031,0.424359621419803750402.00,8.862736,-5.653309,0.82480246,8.465654,-4.933326,0.40664621419803750402.00,10.817003,-5.8119245,1.4449008,8.423176,-5.005805,0.403005871419803750403.00,12.026673,-5.837064,2.047641,8.431422,-4.9863997,0.46620071419803750427.00,12.260108,-5.650316,2.404377,8.470494,-4.9069037,0.58603511419803750427.00,11.829751,-4.9158945,2.517503,8.515557,-4.8080335,0.733810541419803750448.00,11.170747,-4.1641154,2.5791538,8.567508,-4.6878505,0.89008481419803750448.00,10.696096,-3.5110967,2.7096379,8.624884,-4.5506,1.03626511419803750453.00,10.465055,-3.0597897,2.695871,8.683958,-4.395536,1.19937491419803750462.00,10.298658,-2.6581624,2.349909,8.745589,-4.2267694,1.34888431419803750475.00,9.946113,-2.2810757,1.8896236,8.813763,-4.0466743,1.45341631419803750494.00,9.672575,-1.769315,1.5275006,8.885256,-3.8666732,1.5071381419803750497.00,9.546879,-1.2808979,1.4173675,8.964407,-3.6747892,1.51846111419803750514.00,9.457695,-0.83856916,1.1659763,9.047092,-3.4647653,1.52181771419803750515.00,9.463082,-0.39564183,1.0570401,9.134252,-3.2364929,1.50365381419803750522.00,9.647436,-0.047285482,1.1881226,9.2232485,-2.9875338,1.47537121419803750547.00,9.911995,0.23642741,1.1150994,9.30703,-2.7208157,1.4651881419803750548.00,10.148422,0.5650316,0.84455466,9.385174,-2.4445598,1.45362731419803750554.00,10.284293,0.92416185,0.6075287,9.459963,-2.1598268,1.41938011419803750598.00,10.274716,1.2282255,0.46387658,9.529847,-1.8648233,1.36925551419803750599.00,9.989806,1.1486182,0.47225627,9.593049,-1.567826,1.29834721419803750603.00,9.7958765,0.9995792,0.694917,9.640641,-1.3043954,1.23570951419803750605.00,9.685144,0.89902276,0.8559271,9.67464,-1.0775217,1.18772961419803750606.00,9.414001,0.6727707,0.97025025,9.698773,-0.8839815,1.15011171419803750650.00,9.135675,0.37110126,0.8002619,9.714144,-0.73316056,1.12617871419803750651.00,8.934562,0.077811554,0.5327099,9.724937,-0.62628484,1.09715861419803750653.00,9.033921,-0.095768064,0.24241292,9.7335005,-0.56172526,1.05538261419803750654.00,9.074623,-0.31184477,0.05566519,9.742686,-0.5184911,0.99077251419803750656.00,8.998009,-0.63206923,0.17178397,9.750731,-0.50141543,0.917718951419803750714.00,9.102157,-0.93014735,0.30645782,9.754805,-0.51781917,0.863736331419803750716.00,9.215881,-1.2276269,0.34117374,9.755527,-0.56299716,0.8265271419803750717.00,9.32781,-1.5101427,0.37229836,9.753692,-0.63545424,0.795043771419803750720.00,9.438541,-1.6849195,0.39624038,9.749261,-0.72998136,0.7677661419803750721.00,9.476849,-1.7471687,0.35314476,9.74295,-0.8326763,0.742950441419803750723.00,9.549872,-1.834557,0.30885202,9.735797,-0.9324112,0.71782941419803750725.00,9.685743,-1.9596541,0.31902736,9.727902,-1.0305241,0.690178161419803750768.00,9.942521,-2.0859482,0.35673606,9.718931,-1.1290312,0.66187171419803750769.00,10.401609,-2.1176715,0.40043023,9.7089815,-1.2268752,0.63312681419803750771.00,10.702082,-2.1296425,0.4866215,9.699824,-1.3117802,0.602523571419803750773.00,10.812215,-2.0775685,0.6302736,9.690968,-1.3825544,0.58659521419803750775.00,10.879851,-2.0189106,0.74639237,9.683572,-1.4377337,0.5759631419803750821.00,10.755951,-1.9572599,0.74519527,9.677468,-1.4779406,0.576806371419803750837.00,10.248979,-1.5981296,0.5267244,9.67242,-1.509154,0.580640551419803750839.00,10.216658,-1.401805,0.45070848,9.6726465,-1.5115236,0.570616251419803750841.00,10.318411,-1.1773487,0.39205053,9.675716,-1.4966812,0.557524741419803750890.00,10.635642,-0.91697925,0.35553896,9.682146,-1.4608564,0.54067871419803750895.00,11.639412,-0.7074866,0.38067806,9.69213,-1.4005411,0.52104241419803750896.00,12.8688345,-0.52253455,0.18375498,9.705417,-1.3133824,0.500328961419803750897.00,14.0473795,0.16101007,-3.5098996,9.721776,-1.2029405,0.458674761419803750897.00,18.02834,2.2361844,-19.479824,9.751916,-1.0309985,0.0869355051419803750898.00,14.4292555,-0.23882163,-7.3430166,9.751343,-1.0346333,0.105920341419803750899.00,12.899959,-0.62249243,2.1601684,9.594765,-0.59353405,-1.93872151419803750899.00,14.013861,0.4177882,0.7613561,9.666231,-0.52732056,-1.5672591419803750923.00,13.813347,1.1204864,0.19572599,9.699584,-0.3510241,-1.40187681419803750924.00,12.799402,1.0875661,2.8712463,9.703358,-0.19264936,-1.40646341419803750924.00,12.734758,0.55725044,2.9233203,9.746805,-0.08654343,-1.07827071419803750945.00,12.674305,-1.2240356,1.9177556,9.780182,-0.007898937,-0.71996541419803750946.00,12.699445,-3.0933087,2.088941,9.792008,-0.064492345,-0.53178621419803750967.00,12.999318,-4.582502,1.9578584,9.797442,-0.2768483,-0.322324071419803750967.00,13.64695,-5.489306,1.4161704,9.78882,-0.57490855,-0.13730611419803750976.00,14.959571,-5.9531827,0.16998832,9.763173,-0.9222464,-0.0171837751419803750992.00,15.776592,-6.4104753,-0.5859809,9.724665,-1.2646625,-0.043990391419803751007.00,15.266028,-6.851008,-0.14425065,9.675652,-1.5933602,-0.115652631419803751008.00,13.971963,-6.921637,0.533907,9.618406,-1.9078339,-0.12972981419803751022.00,12.26789,-6.670246,0.9451111,9.559277,-2.1869805,-0.087940741419803751023.00,10.9660425,-6.211756,1.2036849,9.498295,-2.4396377,-0.0307666031419803751041.00,10.078392,-5.8143187,1.7034745,9.440762,-2.6532311,0.052852471419803751042.00,9.462483,-4.9907136,2.0757728,9.383988,-2.8424313,0.178243381419803751056.00,9.095572,-3.8600516,1.6071079,9.336635,-2.9822364,0.322348921419803751074.00,8.711303,-2.871845,0.664391,9.3122015,-3.0462642,0.416582471419803751075.00,8.275558,-2.5462334,0.32920274,9.311445,-3.0453358,0.43965621419803751091.00,7.699154,-2.6677392,0.34356794,9.316912,-3.0280967,0.442948641419803751095.00,7.1820064,-2.8119898,0.7110779,9.314997,-3.0331657,0.44848221419803751106.00,6.449381,-2.9287071,1.2162545,9.303611,-3.0608857,0.494173381419803751124.00,5.7454853,-3.105878,1.2378023,9.278935,-3.1184146,0.589256641419803751124.00,5.2385135,-3.3746274,1.2808979,9.240288,-3.2120347,0.68578521419803751140.00,4.745308,-3.7002387,1.5011644,9.18556,-3.3438327,0.784019531419803751143.00,4.176685,-4.0078936,1.4508862,9.11067,-3.5154822,0.89860481419803751158.00,3.8498764,-4.1820717,1.2132617,9.012029,-3.7342017,1.00472081419803751171.00,3.7415388,-4.2838254,0.7835025,8.8983135,-3.9767458,1.08438981419803751174.00,3.8444893,-4.2796354,0.44352585,8.776712,-4.230315,1.11542531419803751206.00,4.0252514,-4.270657,0.46208093,8.656324,-4.4733863,1.1078251419803751207.00,4.417302,-4.220978,0.50637364,8.538724,-4.696071,1.09886691419803751207.00,5.0146556,-4.028843,0.38606504,8.43693,-4.879446,1.08610181419803751223.00,5.5778913,-3.8265328,0.28491,8.373759,-4.9942827,1.05247631419803751224.00,6.0244102,-3.6122518,0.23343466,8.343167,-5.055569,1.00159381419803751241.00,6.4266357,-3.5033157,0.12210429,8.342024,-5.067076,0.95171541419803751242.00,6.7773867,-3.3608606,-0.073621705,8.3621235,-5.044914,0.89114361419803751259.00,7.2113357,-3.0969,-0.19572599,8.401465,-4.992539,0.812600141419803751279.00,7.750031,-2.747945,-0.14185645,8.464721,-4.8980665,0.726523761419803751280.00,8.370728,-2.1051018,0.3429694,8.558877,-4.7430563,0.647639751419803751282.00,9.296086,-1.0516531,0.42916065,8.683496,-4.511905,0.64028891419803751308.00,10.700885,0.47524905,-0.9959879,8.862367,-4.149921,0.63798831419803751308.00,13.351266,3.0142999,-4.979341,9.107436,-3.6083105,0.452874121419803751328.00,18.112135,7.5932107,-10.362703,9.406064,-2.7683094,-0.181217571419803751329.00,19.607914,13.466786,-12.447454,9.3784485,-2.865737,-0.051404171419803751336.00,19.607914,14.94341,-8.676587,9.357128,-2.934363,0.0638286251419803751342.00,18.095377,10.23222,-5.813122,9.343721,-2.9737785,0.148094761419803751361.00,12.423512,6.2327056,-3.626617,9.249706,2.0705376,-2.51519921419803751362.00,10.235212,3.5296519,-2.9041667,9.172881,2.4375777,-2.46716141419803751374.00,9.435549,1.5233108,-1.851915,9.166678,2.4868944,-2.44085721419803751395.00,10.245388,-1.134253,1.8579005,9.211059,2.324684,-2.43365221419803751396.00,10.845734,-4.6860514,5.3564277,9.346769,2.0057352,-2.18753931419803751403.00,12.000338,-6.8528037,7.2268977,9.557428,1.4577,-1.64348011419803751437.00,16.992249,-6.318897,1.6412252,9.737658,0.74344873,-0.89204181419803751438.00,19.592949,-5.1636944,-7.77936,9.785598,0.093788,-0.63538231419803751439.00,14.765042,-7.854179,-3.7056258,9.736752,-0.37821606,-1.10590271419803751462.00,7.404069,-9.639056,-4.6764746,9.6833,-0.94271314,-1.23101741419803751463.00,2.5635915,-9.540296,-5.1050367,9.551334,-1.5634359,-1.5805351419803751464.00,1.763928,-8.051701,2.2499511,9.323201,-2.2249112,-2.07318831419803751474.00,3.5290532,-6.495469,6.393117,9.205268,-2.865721,-1.79473461419803751499.00,5.245097,-5.494693,4.6405616,9.15141,-3.3693311,-1.03424611419803751499.00,5.554548,-4.8775873,2.7754784,9.067929,-3.7198913,-0.324746641419803751503.00,5.835268,-4.3795934,1.5807717,8.963912,-3.9769893,0.046983871419803751527.00,6.8246717,-4.0904937,0.8182184,8.879434,-4.158351,0.184847161419803751528.00,8.495226,-3.9833531,0.64942724,8.827643,-4.264995,0.230077831419803751534.00,10.267534,-3.8456864,1.039682,8.821819,-4.274057,0.279878381419803751564.00,11.65677,-3.6433764,1.7489643,8.851438,-4.2068753,0.353084921419803751565.00,12.226589,-3.5655649,2.2092497,8.909815,-4.0680814,0.486121451419803751566.00,12.2559185,-3.3393128,2.4025815,8.970858,-3.9115667,0.62749121419803751575.00,11.922526,-2.8562827,2.4438813,9.029681,-3.7498739,0.75742431419803751607.00,11.545439,-2.3756466,2.054225,9.0874,-3.5796218,0.88083621419803751608.00,11.137826,-2.054225,1.501763,9.145219,-3.404028,0.973625841419803751611.00,10.709264,-1.7944542,1.2354081,9.199373,-3.2387998,1.02572011419803751639.00,10.295666,-1.5346833,1.3138182,9.2524,-3.0765467,1.04802291419803751640.00,9.965266,-1.3144168,1.6370354,9.298568,-2.9201937,1.08605961419803751644.00,9.796474,-1.0336965,1.7525556,9.338101,-2.7685668,1.14248911419803751660.00,9.537901,-0.8242039,1.6585833,9.376221,-2.6111386,1.19950541419803751661.00,9.178771,-0.62249243,1.4987702,9.412361,-2.4537606,1.24775361419803751663.00,8.916606,-0.37708676,1.4437037,9.445764,-2.2984526,1.29037341419803751674.00,8.850765,-0.21906945,1.5741876,9.478869,-2.134478,1.32869851419803751691.00,8.728661,-0.18495208,1.6358383,9.505857,-1.9698564,1.3887871419803751707.00,8.48984,-0.18555063,1.532289,9.526799,-1.8182483,1.45068251419803751708.00,8.284536,-0.24420857,1.3150153,9.544922,-1.6809376,1.49642921419803751721.00,8.186374,-0.2801216,1.0516531,9.561914,-1.560378,1.51835331419803751723.00,8.234259,-0.30286652,0.8355764,9.579219,-1.4529116,1.51591971419803751736.00,8.356362,-0.39983168,0.57161564,9.597258,-1.3576798,1.48988071419803751755.00,8.423999,-0.6051345,0.3854665,9.617549,-1.275326,1.4306251419803751756.00,8.623316,-0.83737206,0.25617957,9.636002,-1.2204568,1.35215931419803751771.00,8.919599,-1.0480618,0.1592144,9.652123,-1.1945416,1.25696851419803751775.00,8.99741,-1.2264298,0.079008654,9.66547,-1.1936288,1.15079281419803751790.00,8.93935,-1.3754689,0.008978256,9.675578,-1.2112732,1.04230431419803751808.00,8.909423,-1.6304513,0.15083471,9.682472,-1.2426255,0.935965541419803751809.00,9.095572,-1.8620903,0.3321955,9.682644,-1.2953838,0.859526041419803751823.00,9.443929,-2.1021092,0.50517654,9.678269,-1.3631027,0.80217051419803751824.00,9.725846,-2.3014264,0.5482722,9.668881,-1.4455569,0.770379251419803751839.00,9.913192,-2.4313118,0.51595044,9.656367,-1.5366838,0.750720741419803751857.00,9.965864,-2.52289,0.46088383,9.642651,-1.6273575,0.73580391419803751858.00,10.116699,-2.5504234,0.55844754,9.628676,-1.7138649,0.72227221419803751877.00,10.345944,-2.593519,0.6805518,9.614998,-1.791227,0.71673251419803751878.00,10.559028,-2.6342204,0.7930793,9.602418,-1.8578506,0.71578231419803751883.00,10.736797,-2.6426,0.90859956,9.590339,-1.9160593,0.72422491419803751905.00,10.891224,-2.5791538,0.9888053,9.579463,-1.964697,0.737717331419803751905.00,10.90918,-2.44448,1.0618285,9.571005,-1.9992177,0.754584251419803751923.00,10.839748,-2.2703018,1.1755531,9.565468,-2.0178795,0.77484331419803751925.00,10.731411,-2.0853498,1.292869,9.562944,-2.0194902,0.801332831419803751938.00,10.66557,-1.9027919,1.34195,9.562231,-2.0074322,0.8392581419803751956.00,10.649409,-1.6849195,1.2982559,9.564795,-1.9812683,0.87160521419803751957.00,10.694899,-1.4891934,1.2731167,9.571082,-1.9389251,0.897399371419803752017.00,10.724228,-1.2378023,1.2066777,9.580229,-1.8822709,0.9201441419803752018.00,10.840346,-0.91697925,1.1971009,9.593133,-1.8068559,0.93671771419803752019.00,11.377845,-0.6679823,1.2868834,9.610005,-1.7066666,0.95156531419803752020.00,12.269685,-0.57879823,1.3389573,9.628963,-1.5849402,0.97028111419803752020.00,13.095086,-0.4333505,1.115698,9.6486845,-1.4504856,0.98456661419803752021.00,13.732542,0.10414778,0.47644615,9.670902,-1.3083699,0.96551271419803752023.00,16.90067,3.7666779,-13.891158,9.700684,-1.13413,0.88368681419803752049.00,17.460913,3.277662,-14.768035,9.701977,-1.123795,0.88269191419803752050.00,12.88679,1.2761095,4.860828,9.706365,-1.09431,0.87141261419803752058.00,13.028647,2.8562827,6.613384,9.750386,-0.06727584,-1.04683021419803752086.00,14.572907,4.3023806,-0.2669535,9.791033,0.21771277,-0.50859281419803752087.00,14.165893,2.6013002,0.30226797,9.7767105,0.54324794,-0.539638041419803752088.00,13.012486,-0.1933318,3.520075,9.774209,0.7141332,-0.3539471419803752111.00,12.718598,-2.695871,3.8684313,9.783166,0.6773384,-0.0355414151419803752112.00,13.053786,-4.312556,2.6743233,9.795316,0.43454996,0.182607281419803752116.00,13.829508,-5.2474914,1.009156,9.801551,0.05600246,0.311238471419803752124.00,15.21994,-6.167464,-0.6979098,9.794983,-0.34166503,0.334624171419803752145.00,16.086042,-7.2071457,-1.0061632,9.77335,-0.7745228,0.228330481419803752145.00,13.500903,-6.9545574,0.04129998,9.731204,-1.2103692,0.0950632841419803752156.00,11.251551,-5.7909756,0.7236475,9.678555,-1.5791292,0.0485036261419803752177.00,9.86471,-4.771644,1.7082629,9.631958,-1.8409263,0.082438191419803752178.00,9.0315275,-3.958214,2.4049757,9.591141,-2.0319443,0.227205411419803752184.00,8.356362,-3.2902317,2.3391352,9.553889,-2.172875,0.414993321419803752214.00,7.97748,-2.92751,2.2505496,9.523306,-2.273144,0.55667381419803752215.00,7.7973166,-2.558803,2.4660277,9.494992,-2.3510907,0.69847811419803752216.00,7.6129627,-2.1978772,1.6424223,9.468107,-2.401158,0.871666671419803752245.00,7.217321,-2.244564,0.58897364,9.453557,-2.419901,0.971977651419803752245.00,6.7881603,-2.7263973,0.38606504,9.446579,-2.4448245,0.977431541419803752246.00,6.4122705,-3.1597476,0.6841431,9.428579,-2.5162802,0.969854951419803752256.00,5.9292407,-3.4261026,1.2808979,9.394998,-2.6327393,0.98645741419803752277.00,5.2786164,-3.70802,1.7124528,9.34457,-2.7810516,1.05600751419803752278.00,4.654328,-3.9199066,1.3970166,9.272563,-2.9753995,1.15627921419803752285.00,4.213795,-4.010288,0.6901286,9.185766,-3.2070754,1.22750161419803752309.00,3.9228995,-3.977966,0.31783026,9.09249,-3.460109,1.23477091419803752317.00,3.7702692,-4.023456,0.39205053,8.993865,-3.7168088,1.21082961419803752317.00,3.8935704,-4.073136,0.7398083,8.88568,-3.9721549,1.1987711419803752342.00,4.261679,-4.042011,0.7793127,8.769517,-4.2185564,1.21233431419803752342.00,4.823119,-3.8468835,0.5279215,8.662512,-4.4309525,1.22391391419803752358.00,5.4312468,-3.5021186,0.27473465,8.586425,-4.584187,1.19538031419803752360.00,5.851429,-3.38181,0.032920275,8.552203,-4.6616955,1.13965231419803752380.00,6.227917,-3.4835634,-0.30107087,8.541317,-4.699974,1.06138851419803752381.00,6.5349736,-3.5093012,-0.3309984,8.545193,-4.7192044,0.93764221419803752384.00,6.999449,-3.354875,-0.25198972,8.553283,-4.72758,0.81347951419803752403.00,7.6255326,-2.9293058,-0.47345337,8.5800705,-4.695394,0.71137921419803752404.00,8.381501,-2.3169887,-0.9804256,8.645149,-4.5918446,0.58886041419803752419.00,9.396045,-1.5251064,-1.7328035,8.755713,-4.39752,0.411934351419803752435.00,10.861895,-0.28431144,-2.268506,8.910803,-4.0916824,0.161721651419803752436.00,13.087904,1.8124107,-3.5685577,9.1122265,-3.6225631,-0.121390731419803752451.00,16.357185,5.1636944,-5.8574142,9.351086,-2.9095297,-0.512102251419803752455.00,19.320011,8.8567505,-6.6391215,9.566712,-1.8789667,-1.05731281419803752473.00,19.607914,11.5951185,-6.8761473,9.558126,-1.9688246,-0.967659061419803752486.00,19.259558,11.1899,-6.611588,9.554037,-2.023935,-0.89132941419803752487.00,14.748881,7.405266,-4.498705,9.5605955,-2.0225923,-0.821287451419803752501.00,11.068993,3.8492777,-1.8848352,9.404042,1.8395615,-2.08576921419803752504.00,9.204509,1.5448587,-0.3286042,9.392942,1.9969711,-1.98874551419803752521.00,8.314464,0.22744916,0.6242881,9.424724,1.9785906,-1.85207751419803752535.00,8.942942,-0.9672575,2.497751,9.47837,1.8357115,-1.72077141419803752535.00,11.651382,-3.560178,3.371036,9.565718,1.5940336,-1.45825411419803752551.00,15.008054,-6.168062,1.7076644,9.682762,1.1214733,-1.07554751419803752555.00,19.451693,-5.6425347,-6.1943984,9.762781,0.45661712,-0.80622961419803752570.00,19.607914,-3.3105824,-9.959281,9.739529,-0.07233166,-1.1431271419803752584.00,15.796943,-7.089231,0.89662856,9.740559,-0.08740035,-1.13327461419803752585.00,6.529587,-9.006389,-0.42676646,9.670493,-0.8037141,-1.41634061419803752601.00,1.5155296,-8.921394,1.738789,9.596321,-1.4030133,-1.45347511419803752604.00,-0.350152,-8.318055,5.180454,9.476236,-2.082425,-1.42648361419803752619.00,1.0606314,-7.1939774,6.8252707,9.341489,-2.8314598,-0.943304241419803752636.00,2.753332,-5.727529,5.4342394,9.171242,-3.4697146,-0.140672711419803752636.00,3.3728316,-4.8937483,3.518878,8.984776,-3.8923776,0.541863441419803752651.00,3.9653966,-4.674679,2.203264,8.80327,-4.2117496,0.96642541419803752655.00,5.8885393,-4.8901567,1.4640543,8.640225,-4.4744415,1.22322071419803752667.00,8.932168,-5.276222,1.2156559,8.533787,-4.6630096,1.26539431419803752685.00,12.073959,-5.533599,1.3784616,8.502564,-4.736731,1.20006591419803752685.00,13.900735,-5.816713,1.6927006,8.539986,-4.680937,1.15232811419803752709.00,14.05995,-5.9477954,2.03148,8.60161,-4.5676455,1.14860751419803752710.00,13.309367,-5.313332,2.1697452,8.648405,-4.4700866,1.18060141419803752716.00,12.516887,-4.1706996,2.0907366,8.699109,-4.359866,1.21960931419803752743.00,11.851897,-3.2974143,2.0362685,8.763774,-4.217358,1.25719391419803752744.00,11.423335,-2.9017725,1.8321629,8.832241,-4.0572863,1.30396751419803752744.00,11.18571,-2.6090813,1.5717934,8.898285,-3.8951411,1.34862351419803752755.00,10.842142,-2.1691468,1.4838065,8.965407,-3.7281072,1.37588941419803752769.00,10.310031,-1.6448165,1.4496891,9.03164,-3.5583782,